Packet number,Gyroscope X (deg/s),Gyroscope Y (deg/s),Gyroscope Z (deg/s),Accelerometer X (g),Accelerometer Y (g),Accelerometer Z (g),Magnetometer X (G),Magnetometer Y (G),Magnetometer Z (G)
3,43.875,-43.375,154.5625,-1.227051,-0.05273438,0.4599609,0.2724609,-0.1542969,-0.1782227
7,56,-43.125,155.75,-1.099121,0.05908203,0.4711914,0.2641602,-0.1694336,-0.1821289
11,63.625,-44.0625,175.375,-1.172852,0.01660156,0.3710938,0.2583008,-0.1870117,-0.1835938
15,66.8125,-43.9375,192.625,-1.161133,0.1875,0.3828125,0.2519531,-0.1982422,-0.1850586
19,68.1875,-43.8125,183.875,-1.091309,0.2416992,0.4404297,0.2412109,-0.2182617,-0.1850586
23,73.5625,-32.125,201.75,-1.187988,0.2148438,0.425293,0.2294922,-0.2329102,-0.1850586
27,68.75,-29.5625,224.375,-1.308105,0.3427734,0.3598633,0.222168,-0.2456055,-0.1821289
31,53.625,-42.375,248.6875,-1.300781,0.5991211,0.2402344,0.2055664,-0.2670898,-0.1821289
35,35.375,-51.6875,240.4375,-1.145508,0.5449219,0.3637695,0.1879883,-0.2817383,-0.1821289
39,36.375,-49,236.5625,-1.118652,0.4750977,0.3364258,0.1757813,-0.2905273,-0.1821289
44,37.1875,-38.8125,243.3125,-0.9946289,0.5097656,0.4135742,0.1567383,-0.3056641,-0.1821289
48,32.8125,-33.75,243.875,-0.9790039,0.5332031,0.375,0.1342773,-0.3178711,-0.1806641
52,23.125,-33.125,245.3125,-0.9711914,0.6264648,0.3481445,0.1210938,-0.3266602,-0.1796875
56,15.5,-26.9375,244.1875,-0.8896484,0.6303711,0.3867188,0.1010742,-0.3330078,-0.1796875
60,8.1875,-28.375,246.1875,-0.9633789,0.6069336,0.3291016,0.07861328,-0.3408203,-0.1796875
64,9.5625,-31.5,248.875,-0.9477539,0.5253906,0.3710938,0.06298828,-0.3442383,-0.1806641
68,16.6875,-35.4375,251.6875,-0.9365234,0.4985352,0.409668,0.0390625,-0.3505859,-0.1806641
72,19.625,-37.6875,257.25,-0.8510742,0.6342773,0.3637695,0.01513672,-0.3530273,-0.1782227
76,22.4375,-29.125,260.3125,-0.8198242,0.6381836,0.3867188,-0.001953125,-0.3544922,-0.1767578
80,8.0625,-39.4375,262.1875,-0.847168,0.7587891,0.2558594,-0.02587891,-0.3544922,-0.175293
84,-12.4375,-50.5625,259.5,-0.715332,0.7431641,0.2866211,-0.05224609,-0.3505859,-0.1728516
88,-23.3125,-64,254,-0.7695313,0.5019531,0.2709961,-0.06738281,-0.3457031,-0.1728516
92,-31.1875,-83.3125,255.375,-0.5141602,0.4013672,0.2441406,-0.09472656,-0.3344727,-0.1738281
96,-24.125,-89.625,250.625,-0.2851563,0.07470703,0.2827148,-0.1186523,-0.3266602,-0.1728516
100,-9,-80.1875,249,0.1870117,-0.1113281,0.3017578,-0.1352539,-0.3178711,-0.1713867
104,9.9375,-58,233.5,0.4697266,-0.2392578,0.2368164,-0.1582031,-0.3056641,-0.1674805
108,22.5,-44.5625,205.1875,0.6401367,-0.324707,0.1674805,-0.1782227,-0.2929688,-0.1645508
112,25.3125,-37.75,168.6875,0.8222656,-0.3364258,0.07910156,-0.1889648,-0.2880859,-0.1606445
116,12.5625,-40.4375,129.0625,0.8999023,-0.5151367,-0.04003906,-0.199707,-0.2783203,-0.1547852
120,-4.9375,-42.0625,77.5,1.055176,-0.387207,0.05566406,-0.2104492,-0.2695313,-0.1538086
124,-8,-33.5,33.375,1.124512,-0.4882813,0.1557617,-0.2128906,-0.2680664,-0.1523438
128,2.8125,-15.5,-1.5,1.124512,-0.453125,0.2250977,-0.2163086,-0.2670898,-0.1508789
132,12.875,1.9375,-34,1.047363,-0.2783203,0.2133789,-0.2138672,-0.265625,-0.1508789
136,20.5,17.9375,-65,0.9116211,-0.1152344,0.2211914,-0.215332,-0.2705078,-0.1484375
140,26.8125,26.875,-90.25,0.7294922,0.02441406,0.1982422,-0.2080078,-0.2744141,-0.1484375
144,30.375,30.3125,-111.75,0.5629883,0.140625,0.2094727,-0.199707,-0.2841797,-0.1494141
148,28.125,28.5625,-121.625,0.4775391,0.284668,0.1210938,-0.1948242,-0.2895508,-0.1494141
152,12.25,25.875,-132.0625,0.4736328,0.3544922,0.05566406,-0.1831055,-0.2983398,-0.1494141
156,-3.8125,26.4375,-149.875,0.4892578,0.284668,0.08251953,-0.1723633,-0.3066406,-0.1508789
160,3.5,38.1875,-170.5,0.3769531,0.04394531,0.2402344,-0.1640625,-0.3129883,-0.1523438
164,25.75,50.25,-177.8125,0.2216797,0.03222656,0.2558594,-0.1474609,-0.3232422,-0.1523438
168,33.875,59.6875,-182.375,0.08642578,0.2226563,0.1557617,-0.1303711,-0.3291016,-0.1538086
173,22.3125,57.1875,-189.875,-0.04492188,0.3349609,0.05566406,-0.1176758,-0.3369141,-0.1547852
177,5,59.1875,-189.6875,-0.06445313,0.3193359,0.07128906,-0.09863281,-0.3442383,-0.1538086
181,-13.0625,67,-192.6875,-0.1572266,0.3505859,0.04785156,-0.07714844,-0.3520508,-0.1591797
185,-20.875,60.9375,-218.75,-0.4287109,0.2924805,0.1479492,-0.06494141,-0.3530273,-0.15625
189,-4.625,53.6875,-247.6875,-0.5214844,0.09423828,0.2944336,-0.04003906,-0.359375,-0.1606445
193,30.75,73.1875,-250,-0.5371094,0.08642578,0.3330078,-0.01757813,-0.359375,-0.1591797
197,49.75,93.625,-235.25,-0.8085938,0.3388672,0.1635742,0,-0.3642578,-0.1591797
201,24.625,90.5,-228.5,-0.9594727,0.7509766,-0.04736328,0.02490234,-0.3642578,-0.1547852
205,-24.875,70.25,-234.3125,-1.063965,0.7158203,-0.1166992,0.04980469,-0.3632813,-0.1538086
209,-69.375,40.625,-261.25,-0.9672852,0.5371094,-0.1245117,0.06640625,-0.359375,-0.1547852
213,-78.625,50.9375,-283.0625,-0.6611328,-0.06054688,0.1518555,0.09130859,-0.3505859,-0.1606445
217,-11.25,110.75,-275.875,-0.6884766,-0.6201172,0.4443359,0.1186523,-0.3369141,-0.1616211
221,73.875,162.9375,-262.125,-1.351074,-0.3520508,0.3056641,0.1367188,-0.3320313,-0.1577148
225,66.8125,135,-264.25,-2.063965,0.7119141,-0.06298828,0.1630859,-0.3217773,-0.144043
229,-7.4375,56.8125,-295.4375,-2.129883,0.8984375,-0.1591797,0.1879883,-0.3081055,-0.1318359
233,-62.25,21.9375,-312.9375,-1.661133,0.4555664,0.02490234,0.203125,-0.2944336,-0.1347656
237,-40,49.4375,-305.0625,-1.563965,-0.1230469,0.3442383,0.2260742,-0.2705078,-0.1357422
241,39.1875,96.375,-268.625,-1.95166,-0.05273438,0.4941406,0.2460938,-0.2504883,-0.1303711
245,89.75,104.25,-218.8125,-2.614258,0.6811523,0.390625,0.2568359,-0.2382813,-0.1225586
249,87.8125,58.75,-167.1875,-2.893066,1.302734,0.2597656,0.269043,-0.2246094,-0.1113281
253,74.0625,12.9375,-119.25,-2.350586,1.543457,0.1748047,0.2773438,-0.2104492,-0.1044922
257,50,7.125,-72.875,-1.808105,1.803711,0.09423828,0.2817383,-0.2070313,-0.09912109
261,13,16.8125,-19.5,-1.637695,1.92041,0.1635742,0.2832031,-0.203125,-0.09765625
265,-27.0625,14.3125,28.0625,-1.695801,1.769043,0.3364258,0.2841797,-0.2016602,-0.09765625
269,-46.5625,0.9375,59.8125,-1.625977,1.422852,0.5751953,0.2832031,-0.203125,-0.09912109
273,-44.25,-18.125,79.9375,-1.645508,1.092773,0.6557617,0.2783203,-0.2104492,-0.1005859
277,-23.5625,-34.8125,95.4375,-1.517578,0.840332,0.6713867,0.2749023,-0.2167969,-0.1044922
281,11.4375,-36.5,115.1875,-1.397461,0.7197266,0.6137695,0.2709961,-0.2231445,-0.105957
285,33.3125,-29.75,138.5625,-1.424316,0.8442383,0.4365234,0.2651367,-0.234375,-0.1088867
289,33.4375,-30.6875,162.625,-1.595215,0.9838867,0.2944336,0.2568359,-0.2470703,-0.1098633
293,18.0625,-44.125,179.25,-1.753906,1.034668,0.1787109,0.2509766,-0.2543945,-0.1088867
297,-1.75,-56.375,198.3125,-1.742188,0.953125,0.1328125,0.237793,-0.2680664,-0.112793
302,-7,-61.0625,216.8125,-1.70752,0.6845703,0.1865234,0.222168,-0.2866211,-0.1181641
306,3,-53.1875,240.75,-1.610352,0.5410156,0.2021484,0.2119141,-0.2944336,-0.1210938
310,4.875,-45.4375,260.125,-1.610352,0.5800781,0.1479492,0.1904297,-0.3081055,-0.1235352
314,-4.8125,-50.6875,262.5,-1.599121,0.6108398,0.09033203,0.1713867,-0.3256836,-0.1264648
318,-15,-59.125,263.375,-1.591309,0.5371094,0.07519531,0.1547852,-0.3330078,-0.1279297
322,-12.4375,-59.1875,269.375,-1.420898,0.4125977,0.125,0.1308594,-0.3442383,-0.1333008
326,-0.3125,-45.375,278,-1.289063,0.3623047,0.1367188,0.105957,-0.3554688,-0.1347656
330,3.75,-42.375,277.1875,-1.339355,0.4750977,0.04785156,0.08886719,-0.3603516,-0.1357422
334,-7.25,-48.375,272.1875,-1.335449,0.5488281,0.04443359,0.06298828,-0.3691406,-0.1386719
338,-18.8125,-54.3125,271.6875,-1.227051,0.5136719,0.07519531,0.03564453,-0.3691406,-0.1401367
342,-19.1875,-49.125,284.625,-1.075684,0.4125977,0.09814453,0.01513672,-0.3706055,-0.1401367
346,-12.6875,-44.375,282.9375,-0.9516602,0.2924805,0.125,-0.01269531,-0.3681641,-0.1416016
350,1.9375,-33.25,282.4375,-0.8896484,0.3120117,0.1479492,-0.04003906,-0.3657227,-0.1416016
354,-8.0625,-36.3125,284.1875,-0.8164063,0.5175781,0.01708984,-0.05810547,-0.3618164,-0.1425781
358,-34.375,-48.9375,272.25,-0.6923828,0.4360352,-0.01318359,-0.08642578,-0.3530273,-0.1425781
362,-44.625,-52.125,266.625,-0.4130859,0.1333008,0.05175781,-0.112793,-0.3432617,-0.144043
366,-39.5,-49.3125,254.375,-0.2661133,-0.01416016,0.1171875,-0.1269531,-0.3354492,-0.1455078
370,-35.6875,-54.0625,237.25,-0.07617188,-0.1191406,0.1098633,-0.1508789,-0.3217773,-0.1469727
374,-36,-60.6875,212.5,0.175293,-0.2202148,0.105957,-0.1723633,-0.3081055,-0.1469727
378,-37.5,-65.75,178.5,0.4892578,-0.387207,0.1020508,-0.1831055,-0.3007813,-0.144043
382,-28.25,-51.0625,148.5625,0.8652344,-0.6357422,0.2021484,-0.1972656,-0.2856445,-0.1425781
386,-15.8125,-32.375,126.8125,1.000488,-0.6787109,0.1826172,-0.2089844,-0.2783203,-0.1425781
390,-10.0625,-17.875,89.125,1.198242,-0.6669922,0.1289063,-0.2163086,-0.2705078,-0.1416016
394,-8.25,-12.375,35.875,1.202148,-0.6899414,0.1171875,-0.2197266,-0.2641602,-0.1401367
398,-3.9375,-5.25,-15.25,1.271973,-0.6591797,0.1635742,-0.2236328,-0.2631836,-0.1401367
402,6.5,11.875,-53.375,1.209961,-0.5737305,0.1479492,-0.2211914,-0.265625,-0.1425781
406,11.8125,23.1875,-92.6875,1.027832,-0.3911133,0.1289063,-0.2172852,-0.2705078,-0.1401367
410,17.1875,29,-129,0.7719727,-0.2666016,0.1518555,-0.2089844,-0.2783203,-0.1425781
414,24.5,26.5625,-160.25,0.578125,-0.1074219,0.1557617,-0.2006836,-0.2856445,-0.1416016
418,21.5625,29,-181.4375,0.4892578,0.1098633,0.08251953,-0.1899414,-0.296875,-0.1425781
422,8.8125,31.3125,-192.5625,0.3417969,0.1601563,0.04052734,-0.1733398,-0.3095703,-0.1425781
426,-2.6875,33.75,-205.4375,0.2954102,0.1992188,0.01367188,-0.1616211,-0.3144531,-0.1425781
431,-7.75,40.6875,-228.125,0.2216797,0.105957,0.09814453,-0.1450195,-0.3266602,-0.1469727
435,5.625,52.8125,-242.375,0.02441406,0.03613281,0.1826172,-0.1220703,-0.3369141,-0.1508789
439,25.5,63.4375,-247.625,-0.262207,0.203125,0.1904297,-0.1069336,-0.3432617,-0.1508789
443,34.75,69.5625,-243.9375,-0.4521484,0.4243164,0.144043,-0.08056641,-0.3520508,-0.1494141
447,26.25,71.9375,-240.6875,-0.6069336,0.6655273,0.07128906,-0.05566406,-0.3603516,-0.1508789
451,2,62.1875,-238.8125,-0.796875,0.7666016,0.03271484,-0.04003906,-0.3642578,-0.1494141
455,-8.875,49.625,-248.25,-0.8125,0.5800781,0.1171875,-0.01513672,-0.3657227,-0.1484375
459,-8.5,45.4375,-250.875,-0.7617188,0.5253906,0.1098633,0.01074219,-0.3657227,-0.1508789
463,-15.5625,54.6875,-245.875,-0.699707,0.5410156,0.06738281,0.02734375,-0.3681641,-0.1508789
467,-29.9375,68.4375,-231.625,-0.7734375,0.5292969,0.01708984,0.05078125,-0.3642578,-0.1508789
471,-49.9375,65.8125,-237.75,-0.878418,0.4516602,0.001953125,0.07470703,-0.3569336,-0.1538086
475,-60.8125,51.8125,-271.75,-0.831543,0.1333008,0.1367188,0.09033203,-0.3520508,-0.1591797
479,-18.3125,77.4375,-287,-0.9091797,-0.2861328,0.4365234,0.1166992,-0.3393555,-0.1606445
483,27.625,102.125,-267.875,-1.40918,0.06298828,0.3330078,0.144043,-0.3291016,-0.1547852
487,14.625,88.5,-254.25,-1.761719,0.6655273,0.07519531,0.1591797,-0.3232422,-0.1469727
491,-38.1875,55.125,-254.875,-1.668457,0.7197266,-0.02050781,0.1831055,-0.3081055,-0.144043
495,-79.3125,40.25,-267.875,-1.509766,0.3896484,0.06738281,0.203125,-0.2895508,-0.1455078
499,-79.875,34.3125,-288.625,-1.45166,-0.006347656,0.2441406,0.2138672,-0.2768555,-0.1484375
503,-30.6875,63.1875,-280.1875,-1.614258,-0.2202148,0.5522461,0.2329102,-0.2529297,-0.1494141
507,20.4375,83.1875,-242.875,-2.133789,0.2070313,0.640625,0.2509766,-0.2319336,-0.144043
511,39.1875,62.125,-201.9375,-2.486328,0.7275391,0.5981445,0.2617188,-0.2207031,-0.1386719
515,45.1875,34.1875,-155.75,-2.276855,0.9682617,0.5444336,0.2709961,-0.2055664,-0.1333008
519,40.75,26.625,-105.25,-1.874023,1.255859,0.4482422,0.2783203,-0.1933594,-0.1279297
523,16.5,23.5625,-66.375,-1.695801,1.500488,0.4599609,0.2792969,-0.1904297,-0.125
527,-6.875,14.5625,-29.3125,-1.668457,1.395996,0.640625,0.2841797,-0.1870117,-0.125
531,-11.5,3.5625,7.9375,-1.618164,1.197754,0.8369141,0.2856445,-0.1855469,-0.1235352
535,0.5625,-13.375,34.9375,-1.625977,1.038574,0.8291016,0.2841797,-0.1855469,-0.1235352
539,23.375,-27.875,55.875,-1.544922,0.921875,0.7138672,0.2832031,-0.1879883,-0.1235352
543,42.375,-26.8125,89.125,-1.436035,0.9179688,0.4907227,0.2792969,-0.1967773,-0.1264648
547,42.4375,-23.625,113.875,-1.436035,1.026855,0.3095703,0.2758789,-0.2045898,-0.125
551,34,-28.3125,135,-1.513672,0.987793,0.2290039,0.269043,-0.2128906,-0.125
555,24.875,-37.75,149.5625,-1.62207,0.9257813,0.2480469,0.2626953,-0.2280273,-0.1279297
560,24.625,-46.25,170.5,-1.703613,0.777832,0.2749023,0.2543945,-0.2368164,-0.1289063
564,29.1875,-45.375,201.5625,-1.661133,0.7001953,0.2709961,0.2460938,-0.2504883,-0.1303711
568,28.5625,-44.9375,223.875,-1.637695,0.6616211,0.2290039,0.230957,-0.2695313,-0.1318359
572,27.4375,-45.25,235.1875,-1.661133,0.6030273,0.2094727,0.21875,-0.2792969,-0.1303711
576,21.125,-45.4375,250.1875,-1.633789,0.6811523,0.1826172,0.203125,-0.296875,-0.1357422
580,-0.25,-54.75,259.5625,-1.67627,0.6733398,0.09033203,0.1831055,-0.3129883,-0.137207
584,-8.875,-63.8125,259.1875,-1.475098,0.4477539,0.1982422,0.1689453,-0.3232422,-0.1386719
588,8.1875,-54.6875,261.5625,-1.312012,0.2807617,0.2675781,0.1450195,-0.3354492,-0.1425781
592,21.25,-43.875,266.6875,-1.289063,0.4243164,0.1787109,0.1225586,-0.3457031,-0.1425781
596,8.4375,-41.75,272.3125,-1.176758,0.5605469,0.1132813,0.1035156,-0.3544922,-0.1455078
600,-10.9375,-45.875,271.375,-1.133789,0.4907227,0.08642578,0.07861328,-0.3603516,-0.1469727
604,-15.4375,-47.5,264.0625,-0.9633789,0.2924805,0.1826172,0.05322266,-0.3632813,-0.1484375
608,-0.0625,-40.1875,257.9375,-0.8549805,0.1953125,0.2250977,0.03564453,-0.3666992,-0.1494141
612,8.1875,-34.625,251.75,-0.8125,0.3120117,0.2094727,0.008300781,-0.3681641,-0.1494141
616,4.375,-35.875,246.375,-0.7426758,0.3662109,0.1635742,-0.01513672,-0.3666992,-0.1484375
620,3,-34.125,239.0625,-0.6572266,0.3427734,0.2021484,-0.03076172,-0.3642578,-0.1484375
624,-4.0625,-32.0625,242.125,-0.5605469,0.4165039,0.1328125,-0.05419922,-0.3618164,-0.1469727
628,-14.9375,-32.25,237.0625,-0.4633789,0.3701172,0.1098633,-0.078125,-0.3569336,-0.1455078
632,-19.125,-37.0625,218.625,-0.3085938,0.269043,0.1479492,-0.09130859,-0.3505859,-0.1469727
636,-11.6875,-31.5625,204.375,-0.1499023,0.1875,0.1748047,-0.1113281,-0.3417969,-0.1484375
640,-1.0625,-24.25,192.4375,-0.04101563,0.1796875,0.2060547,-0.1318359,-0.3344727,-0.1469727
644,3.4375,-18.6875,182.75,-0.02587891,0.2924805,0.1518555,-0.1425781,-0.328125,-0.144043
648,-0.875,-19.375,177.25,0.01269531,0.3740234,0.125,-0.1567383,-0.3208008,-0.1455078
652,-12.6875,-20.3125,171.9375,0.175293,0.3505859,0.1557617,-0.1723633,-0.3066406,-0.1425781
656,-13.875,-20.6875,157.625,0.2026367,0.2573242,0.1865234,-0.1806641,-0.3032227,-0.1425781
660,-17.875,-27.75,143.1875,0.4580078,0.237793,0.1713867,-0.1948242,-0.2929688,-0.1416016
664,-21.625,-26,123.8125,0.6054688,0.1137695,0.2094727,-0.2055664,-0.2832031,-0.1416016
668,-18.4375,-24.25,104.75,0.7373047,0.02441406,0.1943359,-0.2114258,-0.2783203,-0.1416016
672,-13.8125,-19.5625,80.9375,0.8261719,-0.04150391,0.2519531,-0.2197266,-0.2680664,-0.1386719
676,-9.5625,-15.875,59.75,0.8920898,-0.04541016,0.2597656,-0.2255859,-0.2631836,-0.1416016
680,-7.25,-9.9375,38.375,0.9658203,-0.05664063,0.2675781,-0.2280273,-0.2583008,-0.1386719
684,-2.1875,-3,15,0.9736328,-0.07617188,0.3056641,-0.2280273,-0.2568359,-0.1401367
689,0.9375,-3.4375,-11.5,0.9155273,-0.02978516,0.2709961,-0.2304688,-0.2568359,-0.1386719
693,0.6875,-5,-40.9375,0.8881836,0.01269531,0.2709961,-0.2270508,-0.2583008,-0.1386719
697,2.875,-8.0625,-71.75,0.8183594,0.02832031,0.2749023,-0.2246094,-0.2617188,-0.1386719
701,13.9375,-2.5,-95.5625,0.7333984,0.04736328,0.3212891,-0.2211914,-0.2680664,-0.137207
705,31.75,8.0625,-108,0.6054688,0.1796875,0.2905273,-0.2172852,-0.2744141,-0.137207
709,34.125,12.5,-114.75,0.4775391,0.3974609,0.159668,-0.2089844,-0.2817383,-0.137207
713,13.9375,7.1875,-126.75,0.3999023,0.5332031,0.02099609,-0.1982422,-0.2905273,-0.1357422
717,-15.4375,-1.0625,-141,0.4155273,0.5019531,-0.02441406,-0.1938477,-0.2983398,-0.1333008
721,-40.1875,-5.9375,-163.625,0.4350586,0.3427734,0.005859375,-0.1816406,-0.3017578,-0.1333008
725,-41.8125,0.9375,-185,0.4736328,0.105957,0.140625,-0.1674805,-0.3144531,-0.1401367
729,-20.0625,22.3125,-199,0.3730469,-0.03759766,0.2368164,-0.1582031,-0.3193359,-0.144043
733,1.125,43.625,-199.75,0.206543,0.121582,0.1943359,-0.1411133,-0.3291016,-0.1455078
737,3.5,52.1875,-202.9375,0.02441406,0.3193359,0.09423828,-0.1220703,-0.3369141,-0.1494141
741,-10.375,50.6875,-214,-0.09912109,0.4243164,0.04443359,-0.1079102,-0.3432617,-0.1484375
745,-24.75,55.25,-228.375,-0.2041016,0.4399414,0.1328125,-0.08789063,-0.3491211,-0.1508789
749,-20.3125,61.6875,-228.5,-0.4287109,0.3271484,0.2402344,-0.06494141,-0.3554688,-0.1547852
753,8.625,78.3125,-219.375,-0.5332031,0.2651367,0.3481445,-0.04980469,-0.3579102,-0.15625
757,38.125,92.5625,-210.75,-0.7270508,0.4399414,0.2597656,-0.02587891,-0.3618164,-0.1577148
761,37.5,80.5,-219,-0.847168,0.7470703,0.05566406,-0.001953125,-0.3657227,-0.1538086
765,0.75,67.5625,-222.8125,-0.8276367,0.8867188,-0.03613281,0.01269531,-0.3657227,-0.1508789
769,-45.375,55,-225.8125,-0.78125,0.777832,-0.07470703,0.03564453,-0.3603516,-0.1538086
773,-60.9375,67.375,-228.3125,-0.6147461,0.3120117,0.1518555,0.05957031,-0.3569336,-0.1538086
777,-22.4375,89.75,-243,-0.8432617,-0.05273438,0.3364258,0.07470703,-0.3544922,-0.1591797
781,36.5625,99.5,-251.125,-1.246094,0.07470703,0.375,0.1010742,-0.3481445,-0.1577148
785,51,92.375,-241.3125,-1.541016,0.6655273,0.1865234,0.125,-0.3408203,-0.1484375
789,-0.6875,62.4375,-234,-1.62207,1.034668,0.005859375,0.1416016,-0.3344727,-0.1425781
793,-57.375,36.6875,-234.0625,-1.35498,0.7236328,0.02490234,0.1630859,-0.3256836,-0.144043
797,-71.6875,41.5625,-236.4375,-1.099121,0.237793,0.1479492,0.1821289,-0.3095703,-0.1455078
801,-38.3125,65,-242.625,-1.161133,-0.08789063,0.2944336,0.1948242,-0.296875,-0.1494141
805,12.6875,85.6875,-238.75,-1.529297,0.1293945,0.3173828,0.2128906,-0.2807617,-0.144043
809,15,80.625,-217.9375,-1.87793,0.6772461,0.1713867,0.2294922,-0.265625,-0.137207
813,-17.4375,54.0625,-196.4375,-1.947754,0.8129883,0.1210938,0.2392578,-0.2568359,-0.1318359
818,-38.5625,38,-176.4375,-1.672363,0.6577148,0.1904297,0.2509766,-0.2392578,-0.1303711
822,-36.0625,37.375,-164,-1.486328,0.5175781,0.2368164,0.2617188,-0.2255859,-0.1303711
826,-25.5,41.375,-154.3125,-1.447754,0.5952148,0.2866211,0.2666016,-0.2143555,-0.1279297
830,-26.625,38.0625,-138.8125,-1.567871,0.7392578,0.4633789,0.2749023,-0.2006836,-0.1279297
834,-18.875,24.875,-111.625,-1.691895,0.6733398,0.6367188,0.2817383,-0.1870117,-0.125
838,-0.3125,11.9375,-81.1875,-1.567871,0.7548828,0.6982422,0.2856445,-0.1791992,-0.1210938
842,12.3125,8.875,-48.625,-1.494141,0.8945313,0.6635742,0.2880859,-0.1767578,-0.1196289
846,11,4.5,-15.5,-1.498047,1.01123,0.5751953,0.2880859,-0.1704102,-0.1225586
850,3.75,-3.9375,13.6875,-1.513672,0.9760742,0.5556641,0.2890625,-0.1743164,-0.1210938
854,4.875,-12.375,42.25,-1.479004,0.793457,0.5249023,0.2890625,-0.1757813,-0.1210938
858,12.9375,-14.8125,69.1875,-1.401367,0.6962891,0.425293,0.2866211,-0.1806641,-0.1210938
862,17,-20.375,85.125,-1.385742,0.6420898,0.340332,0.2832031,-0.1845703,-0.1210938
866,21.5625,-25.8125,96.625,-1.385742,0.6225586,0.3251953,0.2792969,-0.1933594,-0.1235352
870,26.6875,-26.125,115.8125,-1.362793,0.6147461,0.2866211,0.2749023,-0.203125,-0.1264648
874,25.8125,-23.875,134.6875,-1.40918,0.6538086,0.2480469,0.2709961,-0.2104492,-0.125
878,22.0625,-30.9375,148.4375,-1.509766,0.6342773,0.2172852,0.2641602,-0.2246094,-0.1235352
882,15.9375,-36.4375,164.1875,-1.501953,0.6420898,0.1982422,0.2558594,-0.2382813,-0.1279297
886,4.3125,-40.625,180.75,-1.498047,0.6303711,0.125,0.25,-0.2456055,-0.1303711
890,-4.6875,-46.375,189.9375,-1.467285,0.5527344,0.144043,0.2368164,-0.2583008,-0.1303711
894,-5.5625,-48.625,197.0625,-1.385742,0.4633789,0.1865234,0.2246094,-0.2744141,-0.1386719
898,0.875,-44.5625,203,-1.413086,0.4594727,0.2172852,0.2138672,-0.2832031,-0.137207
902,1.625,-47.625,209.3125,-1.471191,0.5292969,0.2021484,0.2011719,-0.2983398,-0.1425781
906,-0.5,-54.5,214.1875,-1.443848,0.5332031,0.1674805,0.1821289,-0.3066406,-0.1469727
910,-6.4375,-51.25,224.125,-1.32373,0.5878906,0.1674805,0.1674805,-0.3154297,-0.1484375
914,-17.8125,-53.4375,230.125,-1.416992,0.6225586,0.09423828,0.1499023,-0.328125,-0.1523438
918,-33.3125,-72.75,223.375,-1.289063,0.5527344,0.09814453,0.128418,-0.3354492,-0.15625
922,-35.5,-83.8125,206.9375,-1.172852,0.3857422,0.1904297,0.1152344,-0.3408203,-0.1606445
926,-14.8125,-76.3125,209.625,-1.009766,0.269043,0.2983398,0.09277344,-0.3466797,-0.1645508
930,9.25,-53,228.9375,-0.9287109,0.3081055,0.2636719,0.07128906,-0.3505859,-0.1674805
934,10.625,-40.5,239.625,-0.8666992,0.5058594,0.1635742,0.05712891,-0.3520508,-0.1660156
938,6.0625,-39.3125,230.75,-0.8588867,0.5136719,0.1787109,0.03320313,-0.3569336,-0.1674805
942,-0.875,-41.3125,229.5625,-0.8354492,0.5644531,0.1674805,0.01171875,-0.3579102,-0.1660156
947,-16.25,-48.9375,222.125,-0.7734375,0.5913086,0.1557617,-0.003417969,-0.3569336,-0.1674805
951,-21.0625,-44.75,222.5625,-0.6728516,0.4477539,0.2597656,-0.02490234,-0.3530273,-0.1699219
955,-13.0625,-37.1875,231.5,-0.5644531,0.3388672,0.2905273,-0.04833984,-0.3520508,-0.168457
959,-12.8125,-34.6875,234.1875,-0.4829102,0.4125977,0.1865234,-0.06152344,-0.3491211,-0.1699219
963,-26,-39.5,217.9375,-0.4208984,0.4633789,0.2094727,-0.08398438,-0.3393555,-0.168457
967,-31.125,-48.25,199.4375,-0.3510742,0.3818359,0.2709961,-0.1030273,-0.3320313,-0.1713867
971,-20.75,-40.375,191.8125,-0.246582,0.2768555,0.3867188,-0.1176758,-0.328125,-0.1713867
975,-8.125,-29.5,194.4375,-0.1650391,0.3349609,0.3671875,-0.1352539,-0.3168945,-0.1699219
979,-10.25,-36,209.75,-0.230957,0.2226563,0.2709961,-0.1518555,-0.3081055,-0.1699219
983,-13.375,-45.5,212.375,0.109375,0.1992188,0.2709961,-0.1640625,-0.3007813,-0.1699219
987,-29.5,-48.875,204.625,0.3847656,0.1254883,0.1904297,-0.1831055,-0.2880859,-0.1699219
991,-42.75,-52.1875,179.875,0.5898438,-0.04150391,0.1865234,-0.1972656,-0.2744141,-0.1630859
995,-33.4375,-45.8125,154,0.8881836,-0.3520508,0.2944336,-0.2080078,-0.2641602,-0.1645508
999,-7.625,-23.4375,133.4375,1.000488,-0.5893555,0.2827148,-0.21875,-0.2529297,-0.1645508
1003,11.125,-5.875,112.25,1.109375,-0.4375,0.2709961,-0.2270508,-0.2441406,-0.1630859
1007,11.25,-8.4375,63.8125,1.047363,-0.2939453,0.1171875,-0.2304688,-0.2392578,-0.1630859
1011,2.6875,-17.4375,8.25,1.023926,-0.2045898,0.1635742,-0.234375,-0.2358398,-0.1630859
1015,-4.625,-21.4375,-29.4375,0.9619141,-0.1538086,0.140625,-0.2329102,-0.2358398,-0.1606445
1019,-4.125,-17.25,-59.5625,0.9389648,-0.1308594,0.2133789,-0.2329102,-0.2382813,-0.1606445
1023,12.75,-7.9375,-87.5,0.8417969,-0.09179688,0.2905273,-0.2294922,-0.2431641,-0.1577148
1027,36.8125,2.9375,-112.5625,0.7099609,0.06298828,0.3364258,-0.2236328,-0.2504883,-0.15625
1031,57.0625,8.75,-123.375,0.4892578,0.2299805,0.2827148,-0.21875,-0.2583008,-0.15625
1035,59.3125,9.1875,-120.875,0.4541016,0.253418,0.159668,-0.2114258,-0.2705078,-0.1508789
1039,38.5625,4.1875,-127.125,0.4194336,0.5019531,0.01708984,-0.203125,-0.2792969,-0.1508789
1043,14.625,-2.375,-142.9375,0.4658203,0.4399414,0.009765625,-0.1962891,-0.2880859,-0.1484375
1047,0.4375,0.125,-165.3125,0.4970703,0.2651367,0.06347656,-0.1855469,-0.2954102,-0.1469727
1051,4.5,8.6875,-181.6875,0.3999023,0.09814453,0.09814453,-0.1733398,-0.3056641,-0.1469727
1055,19.75,22.125,-195.625,0.3808594,0.01660156,0.1289063,-0.1625977,-0.3144531,-0.1494141
1059,33.0625,34.9375,-211.0625,0.1987305,0.04394531,0.07519531,-0.1450195,-0.3256836,-0.1469727
1063,30.5625,44.6875,-218.5,0.08642578,0.2148438,-0.001464844,-0.1259766,-0.3369141,-0.1469727
1067,12.125,59,-218.6875,-0.04492188,0.300293,-0.05908203,-0.1113281,-0.3432617,-0.1469727
1071,3.6875,73.25,-219.125,-0.1533203,0.2265625,0.03662109,-0.09033203,-0.3491211,-0.1484375
1076,11.0625,90.0625,-223.875,-0.4404297,0.2265625,0.1132813,-0.06738281,-0.3569336,-0.1494141
1080,14.5625,70.4375,-252.625,-0.8085938,0.4321289,0.02099609,-0.04833984,-0.359375,-0.1494141
1084,-3.5,59.1875,-265.5,-0.7387695,0.6264648,-0.001464844,-0.0234375,-0.3642578,-0.1523438
1088,-24.75,66.4375,-253.0625,-0.7851563,0.4907227,0.03662109,0.003417969,-0.3657227,-0.1523438
1092,-23.4375,88.875,-233.0625,-0.730957,0.3271484,0.09814453,0.02148438,-0.3657227,-0.1538086
1096,-17.5625,112.125,-222.125,-0.878418,0.2729492,0.06347656,0.04492188,-0.3603516,-0.1538086
1100,0.125,117.25,-237.75,-1.083496,0.1523438,0.125,0.06884766,-0.3569336,-0.1523438
1104,16.625,97,-271.5625,-1.413086,0.2651367,0.07519531,0.08691406,-0.3554688,-0.1494141
1108,4.4375,74.6875,-293.1875,-1.420898,0.5605469,0.02880859,0.1152344,-0.3466797,-0.1425781
1112,-31.5625,67.5,-290.5625,-1.475098,0.5292969,0.04785156,0.1425781,-0.3330078,-0.144043
1116,-28.5,77.0625,-284.4375,-1.521484,0.1640625,0.2480469,0.1591797,-0.3242188,-0.1425781
1120,15.75,92.0625,-275,-1.796387,0.09814453,0.2983398,0.1855469,-0.3095703,-0.1401367
1124,53.125,88.625,-262.4375,-2.114258,0.4711914,0.2597656,0.2070313,-0.2944336,-0.1333008
1128,53.4375,61.625,-255.3125,-2.362305,0.9799805,0.1518555,0.2202148,-0.2832031,-0.1279297
1132,25.125,29.8125,-222.375,-2.300293,1.186035,0.1328125,0.2368164,-0.265625,-0.1210938
1136,2.8125,21.625,-178.625,-1.92041,1.084961,0.2060547,0.2509766,-0.2504883,-0.1166992
1140,13.5625,27.125,-144.875,-1.730469,1.007324,0.2827148,0.2558594,-0.2407227,-0.1166992
1144,24.0625,32.6875,-107.9375,-1.657227,1.279297,0.3212891,0.2626953,-0.2304688,-0.112793
1148,8.9375,27.3125,-71.25,-1.684082,1.52002,0.425293,0.2700195,-0.2255859,-0.1074219
1152,-18.3125,12.5,-32.4375,-1.661133,1.566895,0.5175781,0.2724609,-0.2216797,-0.105957
1156,-39.375,-3.375,1.6875,-1.525391,1.372559,0.6176758,0.2724609,-0.2167969,-0.1074219
1160,-41.375,-11.5625,28.5625,-1.428223,1.100586,0.6635742,0.2700195,-0.2167969,-0.1113281
1164,-23.9375,-18.25,50.75,-1.405273,0.8789063,0.6713867,0.2709961,-0.2207031,-0.1113281
1168,3.5625,-25.6875,71.1875,-1.443848,0.7705078,0.5981445,0.2675781,-0.2246094,-0.1166992
1172,22.5625,-31.25,90.25,-1.385742,0.8208008,0.4443359,0.2626953,-0.2319336,-0.1157227
1176,25,-36.375,108.625,-1.401367,0.90625,0.2749023,0.2592773,-0.2382813,-0.1157227
1180,21.8125,-41.25,127.1875,-1.405273,0.9023438,0.1713867,0.2509766,-0.2480469,-0.1196289
1184,14.6875,-37.875,150.0625,-1.424316,0.9375,0.125,0.2426758,-0.2568359,-0.1196289
1188,2,-47.9375,161.875,-1.614258,0.921875,0.1020508,0.2353516,-0.2670898,-0.1235352
1192,-1,-62.5625,170.625,-1.494141,0.7236328,0.1674805,0.2236328,-0.2783203,-0.1264648
1196,12.25,-50.8125,191.5,-1.351074,0.5952148,0.2060547,0.2128906,-0.2919922,-0.1289063
1200,21.75,-38.875,210.625,-1.405273,0.6733398,0.1557617,0.2011719,-0.3007813,-0.1333008
1205,12.4375,-43.6875,217.125,-1.498047,0.7973633,0.06347656,0.1831055,-0.3129883,-0.1347656
1209,-2.0625,-53.125,222.5,-1.459473,0.7666016,0.06738281,0.1650391,-0.3256836,-0.1357422
1213,-5.9375,-54.5,231.8125,-1.366211,0.6381836,0.1098633,0.1523438,-0.3305664,-0.1357422
1217,-1.3125,-54.3125,239.0625,-1.339355,0.5644531,0.1328125,0.1308594,-0.3417969,-0.1401367
1221,6.75,-45.875,248.5,-1.199707,0.5722656,0.1518555,0.109375,-0.3520508,-0.144043
1225,4.0625,-39.25,250.25,-1.215332,0.6845703,0.06347656,0.09277344,-0.3569336,-0.1425781
1229,-17.1875,-46.1875,254.6875,-1.157227,0.8051758,0.01367188,0.06787109,-0.3618164,-0.1425781
1233,-41.375,-57.25,245.9375,-1.199707,0.7353516,0.02880859,0.04394531,-0.3632813,-0.1484375
1237,-46,-63,251.375,-1.025391,0.5097656,0.1210938,0.02734375,-0.3666992,-0.1494141
1241,-49.5,-55.3125,272,-0.831543,0.4868164,0.04052734,0.0009765625,-0.3632813,-0.15625
1245,-61.9375,-49.1875,279.125,-0.6728516,0.4399414,0.02880859,-0.02490234,-0.359375,-0.1591797
1249,-75.75,-54.3125,277.5,-0.5644531,0.3232422,0.009765625,-0.04492188,-0.3554688,-0.1616211
1253,-85.5,-62.3125,254.875,-0.4521484,0.2651367,0.03662109,-0.07128906,-0.3466797,-0.168457
1257,-88,-71.5625,235.75,-0.3862305,0.1333008,0.1098633,-0.09472656,-0.3354492,-0.1738281
1261,-75.4375,-78.0625,224.25,-0.246582,-0.03369141,0.1904297,-0.1113281,-0.3266602,-0.1767578
1265,-51.9375,-64.5625,216.1875,-0.02587891,-0.06835938,0.2441406,-0.1328125,-0.3129883,-0.1782227
1269,-25.125,-47.375,208.1875,0.1210938,-0.06835938,0.2827148,-0.1518555,-0.3032227,-0.1796875
1273,-5.625,-39.4375,192.6875,0.1015625,0.04736328,0.1826172,-0.1625977,-0.2929688,-0.1782227
1277,-4.125,-40.25,169.1875,0.2607422,0.121582,0.1635742,-0.1782227,-0.2841797,-0.1767578
1281,-12.25,-39.625,150.375,0.3959961,0.09033203,0.1367188,-0.1923828,-0.2719727,-0.1767578
1285,-15.1875,-33.625,129.8125,0.5087891,-0.01806641,0.1826172,-0.199707,-0.265625,-0.1738281
1289,-15.5625,-29.8125,110.3125,0.7333984,-0.09960938,0.1943359,-0.2089844,-0.2558594,-0.1728516
1293,-15.875,-19.25,83.9375,0.9038086,-0.2202148,0.2133789,-0.2163086,-0.2470703,-0.1699219
1297,-5.625,-8.625,54.6875,0.9775391,-0.4101563,0.2983398,-0.21875,-0.2441406,-0.1699219
1301,14.5625,0.8125,17.0625,1.059082,-0.4257813,0.340332,-0.2236328,-0.2431641,-0.168457
1305,24.0625,2.875,-25.1875,0.9697266,-0.2822266,0.2788086,-0.2236328,-0.2431641,-0.1699219
1309,24.25,3.4375,-59.4375,0.9658203,-0.2666016,0.2709961,-0.222168,-0.2441406,-0.1699219
1313,30.75,7.1875,-85.4375,0.8959961,-0.2202148,0.2211914,-0.2172852,-0.2504883,-0.168457
1317,28.4375,11.9375,-112,0.8417969,-0.07617188,0.1289063,-0.2104492,-0.2607422,-0.1674805
1321,21,16.5625,-137.75,0.7138672,-0.02587891,0.07128906,-0.206543,-0.2641602,-0.1660156
1325,19.6875,14.75,-169.1875,0.5708008,-0.07226563,0.1098633,-0.1948242,-0.2753906,-0.1660156
1329,25.0625,22.75,-196.5625,0.4541016,-0.02197266,0.1748047,-0.1816406,-0.2880859,-0.1660156
1334,35.0625,32.0625,-208.375,0.1367188,0.06689453,0.2402344,-0.1708984,-0.296875,-0.1660156
1338,37.625,35.0625,-211.9375,-0.04882813,0.3310547,0.1943359,-0.1542969,-0.3105469,-0.1645508
1342,27.75,37.875,-220.125,-0.1030273,0.5332031,0.1635742,-0.1328125,-0.3232422,-0.1645508
1346,8.4375,37.75,-244.625,-0.1884766,0.7470703,0.1518555,-0.1186523,-0.3291016,-0.1630859
1350,-33.0625,53.125,-318.25,-0.01416016,0.5214844,0.2329102,-0.09375,-0.3393555,-0.1674805
1354,-16,60.5,-272.625,-0.796875,0.1953125,0.1748047,-0.06738281,-0.3457031,-0.1728516
1358,-3.1875,42.125,-249,-0.7036133,0.4516602,0.2329102,-0.04736328,-0.3520508,-0.1699219
1362,9.625,57.0625,-244.3125,-0.5566406,0.4399414,0.4057617,-0.02587891,-0.3520508,-0.1713867
1366,18,66.0625,-230.25,-0.878418,0.4438477,0.2211914,0,-0.3554688,-0.1728516
1370,15.75,54.125,-213.75,-0.9711914,0.5683594,0.1674805,0.01416016,-0.3554688,-0.1713867
1374,6.875,43.625,-211.3125,-0.8046875,0.6225586,0.1557617,0.03564453,-0.3554688,-0.1699219
1378,-14.625,44.3125,-212.75,-0.7426758,0.6225586,0.1289063,0.05712891,-0.3530273,-0.168457
1382,-43.375,35,-216.1875,-0.8276367,0.5253906,0.04052734,0.07128906,-0.3491211,-0.168457
1386,-49.4375,38,-218,-0.6767578,0.121582,0.2944336,0.08886719,-0.3432617,-0.1728516
1390,-0.4375,78.25,-215.3125,-0.6962891,-0.1152344,0.5327148,0.109375,-0.3344727,-0.1728516
1394,41.9375,96.5625,-210.875,-1.227051,0.1796875,0.3442383,0.125,-0.3291016,-0.1699219
1398,20.1875,68.5625,-210.75,-1.471191,0.8051758,0.1098633,0.1474609,-0.3217773,-0.1630859
1402,-32.5625,34.0625,-229.75,-1.366211,0.7431641,0.125,0.1640625,-0.3095703,-0.1616211
1406,-45.8125,34.9375,-232.3125,-1.157227,0.203125,0.3364258,0.1772461,-0.3032227,-0.1616211
1410,3.5625,63.9375,-234.125,-1.203613,-0.1420898,0.5712891,0.1948242,-0.2866211,-0.1606445
1414,73.3125,87.875,-223.375,-1.629883,0.03613281,0.5712891,0.2128906,-0.2729492,-0.1547852
1418,103.6875,74.9375,-208.5625,-2.172363,0.7001953,0.5136719,0.2260742,-0.265625,-0.1469727
1422,87.9375,40,-158.3125,-2.350586,1.20166,0.3442383,0.2402344,-0.2568359,-0.137207
1426,53.125,6.375,-111.0625,-1.959473,1.337402,0.2094727,0.2485352,-0.2470703,-0.1289063
1430,30.25,3.375,-86.875,-1.509766,1.442383,0.1479492,0.2509766,-0.2431641,-0.1279297
1434,9.125,13.8125,-66.25,-1.428223,1.523926,0.2290039,0.2568359,-0.2368164,-0.1264648
1438,-8.3125,8.3125,-44.5625,-1.595215,1.481445,0.409668,0.2602539,-0.2319336,-0.1235352
1442,-7.8125,0.25,-8.125,-1.661133,1.314453,0.6367188,0.2626953,-0.2304688,-0.125
1446,15.5,-7.3125,45.9375,-1.687988,1.182129,0.6557617,0.2592773,-0.2319336,-0.125
1450,28.25,-9.0625,88.3125,-1.505859,1.321777,0.4980469,0.2568359,-0.2382813,-0.1225586
1454,21,-9.3125,122,-1.48291,1.353027,0.2905273,0.253418,-0.2431641,-0.125
1458,-4.625,-17.3125,143.5625,-1.436035,1.380371,0.2133789,0.2460938,-0.2543945,-0.125
1463,-28.9375,-32.8125,151.3125,-1.490234,1.135742,0.2329102,0.2353516,-0.2641602,-0.1264648
1467,-24.0625,-30.5625,172.5625,-1.389648,0.855957,0.3598633,0.2285156,-0.2705078,-0.1289063
1471,-9.6875,-22.5625,190.875,-1.463379,0.7817383,0.3481445,0.2177734,-0.2817383,-0.1333008
1475,-0.5,-23.625,212.75,-1.505859,0.8364258,0.2709961,0.2011719,-0.296875,-0.1357422
1479,-16.4375,-25.25,222.6875,-1.505859,1.019043,0.1713867,0.1914063,-0.3056641,-0.137207
1483,-49.25,-42.75,222.625,-1.583496,1.019043,0.1098633,0.1748047,-0.3168945,-0.1386719
1487,-59.6875,-55.8125,229.8125,-1.556152,0.5839844,0.2133789,0.1533203,-0.3242188,-0.1484375
1491,-36.75,-51.5625,248,-1.292969,0.3818359,0.2944336,0.1401367,-0.3330078,-0.1508789
1495,-11.5625,-39.375,252,-1.191895,0.4204102,0.2983398,0.1186523,-0.3378906,-0.1547852
1499,-6.0625,-36.375,253,-1.168945,0.5449219,0.2211914,0.09375,-0.3466797,-0.1577148
1503,-16.9375,-41.625,248.4375,-1.161133,0.6499023,0.159668,0.07861328,-0.3520508,-0.1606445
1507,-38.25,-50.6875,249.6875,-1.087402,0.5839844,0.159668,0.05566406,-0.3569336,-0.1630859
1511,-40.125,-55.125,254.125,-0.9985352,0.3896484,0.2250977,0.02978516,-0.3569336,-0.1660156
1515,-37.4375,-55.3125,255,-0.8237305,0.3857422,0.2211914,0.01269531,-0.3554688,-0.1674805
1519,-36.5,-56.1875,242.0625,-0.7075195,0.3623047,0.2094727,-0.01025391,-0.3530273,-0.1738281
1523,-22.1875,-52.3125,228.5625,-0.5834961,0.253418,0.3017578,-0.03515625,-0.3505859,-0.1767578
1527,-4.3125,-46.25,218,-0.5913086,0.3271484,0.2597656,-0.04833984,-0.3481445,-0.175293
1531,-9.3125,-49.9375,215.875,-0.5410156,0.4946289,0.1479492,-0.07128906,-0.3408203,-0.1728516
1535,-11.0625,-49.3125,215.9375,-0.4052734,0.3544922,0.2094727,-0.09033203,-0.3354492,-0.1738281
1539,-3.75,-46.0625,210.9375,-0.3007813,0.2963867,0.1982422,-0.1030273,-0.3320313,-0.1738281
1543,2.625,-43.25,196.4375,-0.1767578,0.3505859,0.1713867,-0.1235352,-0.3217773,-0.1713867
1547,-10.75,-42.375,185.375,-0.006347656,0.4477539,0.1132813,-0.1401367,-0.3129883,-0.1699219
1551,-18.125,-41.9375,180.3125,0.008789063,0.253418,0.144043,-0.1533203,-0.3081055,-0.1699219
1555,-17.125,-33.625,174.5625,0.3149414,0.1098633,0.2250977,-0.1674805,-0.296875,-0.168457
1559,-7.6875,-23.8125,163.5625,0.4467773,-0.04150391,0.2402344,-0.1816406,-0.2866211,-0.1660156
1563,0.5,-15.1875,145.5,0.6831055,-0.1191406,0.2675781,-0.1914063,-0.2817383,-0.1674805
1567,7.375,-4.625,122,0.7875977,-0.2548828,0.3017578,-0.199707,-0.2719727,-0.1660156
1571,14.8125,-2.375,92.625,0.8378906,-0.3173828,0.3330078,-0.206543,-0.2641602,-0.1645508
1575,19.875,-4.8125,48.25,0.8881836,-0.2744141,0.3598633,-0.2114258,-0.2617188,-0.1630859
1579,19.375,-7.1875,7.0625,0.8691406,-0.1811523,0.3671875,-0.215332,-0.2607422,-0.1606445
1583,20.25,-10.5,-22.3125,0.7915039,-0.1230469,0.3520508,-0.215332,-0.2607422,-0.1606445
1587,15.3125,-11.25,-48.5625,0.7797852,0.02050781,0.3095703,-0.2138672,-0.2617188,-0.1577148
1592,12.75,-12.0625,-78.1875,0.6713867,0.06689453,0.3017578,-0.2104492,-0.2670898,-0.15625
1596,15.6875,-9.5625,-103.1875,0.6015625,0.1523438,0.340332,-0.2045898,-0.2744141,-0.15625
1600,27.8125,-9.125,-116.8125,0.3769531,0.1757813,0.340332,-0.199707,-0.2783203,-0.1547852
1604,41.8125,-9.5625,-123.9375,0.3652344,0.2924805,0.3520508,-0.1923828,-0.2880859,-0.1494141
1608,44.5625,-8.25,-133.6875,0.2607422,0.4594727,0.2597656,-0.1831055,-0.296875,-0.1484375
1612,32.4375,-16,-143.0625,0.1831055,0.5839844,0.1865234,-0.1757813,-0.3032227,-0.1455078
1616,17.625,-22,-154.9375,0.1674805,0.5566406,0.1518555,-0.1650391,-0.3144531,-0.144043
1620,2,-25.9375,-169.875,0.1713867,0.5214844,0.1518555,-0.1542969,-0.3217773,-0.1425781
1624,-10.3125,-25.6875,-182.4375,0.1484375,0.4477539,0.144043,-0.1459961,-0.3305664,-0.1386719
1628,-12.0625,-14.8125,-190.75,0.1445313,0.2924805,0.2060547,-0.1303711,-0.3344727,-0.1401367
1632,-6.4375,3,-197.8125,0.08642578,0.2651367,0.1904297,-0.1113281,-0.3432617,-0.1401367
1636,-0.625,15.6875,-211.4375,-0.1069336,0.2651367,0.2133789,-0.1020508,-0.3491211,-0.1425781
1640,6.125,22.25,-226.875,-0.3046875,0.269043,0.2402344,-0.08203125,-0.3569336,-0.1401367
1644,17.875,25.0625,-233.3125,-0.5063477,0.3271484,0.2519531,-0.06054688,-0.3603516,-0.1416016
1648,14.3125,25.375,-232.9375,-0.5722656,0.5019531,0.2133789,-0.04492188,-0.3666992,-0.1425781
1652,4.3125,27.125,-231.875,-0.6376953,0.5097656,0.1982422,-0.02246094,-0.3691406,-0.1416016
1656,8.6875,37.0625,-223.875,-0.6650391,0.3818359,0.2480469,0.0009765625,-0.371582,-0.1416016
1660,30.25,49.25,-213.25,-0.7504883,0.3310547,0.2368164,0.01416016,-0.3706055,-0.1401367
1664,41.8125,45.75,-223.8125,-0.8818359,0.5058594,0.1328125,0.03808594,-0.3691406,-0.1357422
1668,25.9375,27.5625,-245.0625,-0.9829102,0.6811523,0.05957031,0.06054688,-0.3681641,-0.1333008
1672,-1.75,15,-253.3125,-1.009766,0.6342773,0.1020508,0.07714844,-0.3657227,-0.1318359
1676,-16.75,15.25,-246.3125,-1.001953,0.4516602,0.159668,0.09960938,-0.3569336,-0.1303711
1680,1.5,27.875,-241.625,-1.001953,0.07080078,0.3251953,0.1225586,-0.3491211,-0.1289063
1684,53.9375,47.8125,-238.5,-1.195801,-0.006347656,0.3481445,0.1367188,-0.3457031,-0.1279297
1688,87.25,49.25,-236.4375,-1.475098,0.3505859,0.1826172,0.1591797,-0.3378906,-0.1225586
1692,67.9375,28.5,-237.375,-1.661133,0.7626953,-0.001464844,0.1782227,-0.3256836,-0.112793
1696,27.5,3.6875,-232.6875,-1.595215,0.6845703,-0.03613281,0.1928711,-0.3193359,-0.1088867
1700,5.4375,3.1875,-234.375,-1.362793,0.5449219,0.01708984,0.2094727,-0.3032227,-0.1074219
1704,-0.8125,12.25,-238.9375,-1.40918,0.5136719,0.09033203,0.2260742,-0.2880859,-0.1074219
1708,2.9375,17.25,-233.875,-1.599121,0.5449219,0.2368164,0.237793,-0.2753906,-0.105957
1712,19.125,15.25,-213.8125,-1.727051,0.6030273,0.375,0.25,-0.2592773,-0.1044922
1716,44.25,15.375,-183.25,-1.796387,0.7587891,0.4868164,0.2617188,-0.2441406,-0.1020508
1721,58.4375,11.125,-144.5625,-1.827637,1.04248,0.4672852,0.2675781,-0.2319336,-0.09667969
1725,55.6875,-1.9375,-110.8125,-1.761719,1.32959,0.4599609,0.2749023,-0.2231445,-0.09765625
1729,46.9375,-7.9375,-68,-1.65332,1.298828,0.5214844,0.2792969,-0.2158203,-0.09228516
1733,53.0625,-10.75,-26.5,-1.618164,1.174316,0.6328125,0.2832031,-0.2143555,-0.09228516
1737,73.25,-15.0625,14.75,-1.618164,1.053711,0.6367188,0.2817383,-0.2128906,-0.09082031
1741,96.1875,-20.0625,49.625,-1.505859,1.003418,0.4907227,0.2807617,-0.2182617,-0.08984375
1745,102.5625,-24.125,80.5,-1.405273,1.030762,0.2983398,0.2783203,-0.2231445,-0.08544922
1749,93.25,-30.9375,101.625,-1.32373,1.007324,0.1367188,0.2734375,-0.2319336,-0.08447266
1753,78.3125,-37.75,108.8125,-1.319824,0.9604492,0.1518555,0.2675781,-0.2416992,-0.08007813
1757,78.0625,-42.4375,121.625,-1.428223,0.8867188,0.2094727,0.2651367,-0.2480469,-0.08007813
1761,78.25,-44.1875,145.25,-1.494141,0.9375,0.1943359,0.2543945,-0.2617188,-0.08154297
1765,66.1875,-51.5,171.875,-1.537109,0.9995117,0.1171875,0.2436523,-0.2753906,-0.07763672
1769,47.5,-54.5,188.6875,-1.509766,0.9492188,0.1328125,0.2368164,-0.2866211,-0.08007813
1773,38.125,-53.6875,208,-1.521484,0.875,0.159668,0.2246094,-0.3007813,-0.08154297
1777,34.3125,-54.0625,223.25,-1.618164,0.8442383,0.1367188,0.2055664,-0.3154297,-0.08007813
1781,27.8125,-61.875,226.625,-1.517578,0.8325195,0.1557617,0.1938477,-0.3242188,-0.08154297
1785,30.25,-61.875,232.3125,-1.521484,0.7470703,0.1904297,0.1757813,-0.3378906,-0.08300781
1789,28.8125,-56.625,251.5625,-1.416992,0.8632813,0.144043,0.1523438,-0.3530273,-0.08447266
1793,4.3125,-56.25,265.6875,-1.319824,0.9453125,0.05957031,0.1367188,-0.359375,-0.08447266
1797,-16.4375,-63.1875,263.3125,-1.25,0.7626953,0.08642578,0.1118164,-0.3691406,-0.08691406
1801,-18.5,-69.875,260.5625,-1.095215,0.5214844,0.159668,0.08691406,-0.3769531,-0.08837891
1805,-10.1875,-68.4375,255.75,-1.025391,0.4946289,0.1674805,0.06884766,-0.3818359,-0.09375
1809,-13,-71.1875,251.4375,-0.8588867,0.5913086,0.08251953,0.04052734,-0.3842773,-0.09521484
1813,-20.8125,-63.875,255.125,-0.831543,0.4907227,0.09814453,0.01416016,-0.3867188,-0.09667969
1817,-21.0625,-68,253.4375,-0.746582,0.4399414,0.05957031,-0.003417969,-0.3867188,-0.09667969
1821,-15.125,-63.25,242.875,-0.6728516,0.4204102,0.09814453,-0.02832031,-0.3842773,-0.09765625
1825,-14.8125,-62.0625,243.75,-0.7504883,0.4985352,0.05957031,-0.05664063,-0.3779297,-0.1005859
1829,-23.125,-67.125,243.5,-0.7036133,0.5332031,0.02490234,-0.07128906,-0.3779297,-0.09912109
1833,-36.5,-70.9375,248.5,-0.5253906,0.4672852,0.04052734,-0.09716797,-0.3681641,-0.1005859
1837,-43.5,-74.375,242.9375,-0.4790039,0.3740234,0.02880859,-0.1210938,-0.3579102,-0.09912109
1841,-46.0625,-82.6875,232.4375,-0.296875,0.2265625,0.03271484,-0.1376953,-0.3491211,-0.1005859
1845,-34,-74.25,221.3125,-0.01806641,0.05517578,0.1020508,-0.1601563,-0.3369141,-0.09912109
1850,-24.75,-69,210.8125,0.1445313,0.04394531,0.01708984,-0.1806641,-0.3242188,-0.09765625
1854,-39.3125,-71.75,194.9375,0.3188477,0.05517578,-0.1166992,-0.1938477,-0.3144531,-0.09667969
1858,-60.4375,-75.75,174.5,0.644043,-0.1889648,-0.1669922,-0.206543,-0.3017578,-0.09375
1862,-73.25,-68.875,145.5,0.9541016,-0.503418,-0.1591797,-0.2236328,-0.2880859,-0.09521484
1866,-72.75,-58.9375,103.0625,1.241211,-0.7949219,-0.08203125,-0.2294922,-0.2792969,-0.09375
1870,-51.9375,-41.5,52.4375,1.426758,-1.020508,-0.009277344,-0.237793,-0.2695313,-0.09375
1874,-16.875,-18.5,-5.375,1.458008,-1.094238,0.1132813,-0.2402344,-0.2670898,-0.09521484
1878,18.125,0,-55.875,1.241211,-0.8027344,0.144043,-0.2402344,-0.2680664,-0.09667969
1882,37,8.3125,-96.375,0.9619141,-0.484375,0.1748047,-0.2353516,-0.2729492,-0.09375
1886,48.4375,11.9375,-129.875,0.7138672,-0.1230469,0.2172852,-0.2280273,-0.2856445,-0.09082031
1890,49.5,10.125,-145.625,0.4467773,0.2265625,0.1826172,-0.2197266,-0.2919922,-0.08544922
1894,37.6875,4.4375,-147.9375,0.3999023,0.4086914,0.1328125,-0.2089844,-0.3017578,-0.08691406
1898,18.625,2.4375,-152.5,0.4194336,0.5136719,0.04052734,-0.1982422,-0.3144531,-0.08300781
1902,-3.0625,-0.375,-175.6875,0.4619141,0.4321289,0.1132813,-0.1914063,-0.3208008,-0.08447266
1906,0.4375,8.5,-189.9375,0.3730469,0.21875,0.2133789,-0.1748047,-0.3320313,-0.08447266
1910,20.4375,23.875,-197.8125,0.2685547,0.1757813,0.3056641,-0.1591797,-0.3432617,-0.08691406
1914,38.0625,34.9375,-196.5,0.109375,0.2651367,0.2558594,-0.1450195,-0.3505859,-0.08447266
1918,36.375,45.6875,-188.4375,0.0009765625,0.4750977,0.1635742,-0.128418,-0.3579102,-0.08544922
1922,16.875,44.1875,-188.5625,-0.1689453,0.6420898,0.07910156,-0.1079102,-0.3666992,-0.08300781
1926,-6.8125,29.9375,-206.3125,-0.2661133,0.6264648,0.06738281,-0.09472656,-0.371582,-0.08544922
1930,-12.875,21.5,-228.5,-0.3085938,0.4829102,0.159668,-0.07470703,-0.3769531,-0.08544922
1934,5.5,31.8125,-236.375,-0.3007813,0.3271484,0.2597656,-0.05078125,-0.3842773,-0.08691406
1938,32.25,53.125,-220.1875,-0.4672852,0.4165039,0.2094727,-0.03417969,-0.3881836,-0.08837891
1942,39.375,74,-194.8125,-0.5332031,0.6499023,0.07519531,-0.01269531,-0.3891602,-0.08447266
1946,16.8125,73.125,-188.9375,-0.7504883,0.8520508,-0.1362305,0.009277344,-0.390625,-0.08300781
1950,-31.1875,47.9375,-218.375,-0.7114258,0.855957,-0.1821289,0.0234375,-0.3891602,-0.08154297
1954,-47.5,42.4375,-255.5,-0.5332031,0.3271484,0.09814453,0.04638672,-0.3867188,-0.08544922
1958,-9.8125,70.1875,-255.75,-0.7773438,-0.03759766,0.2519531,0.07226563,-0.3818359,-0.08691406
1962,38.875,95.9375,-233.125,-0.9868164,0.1137695,0.3017578,0.08886719,-0.3769531,-0.08544922
1966,77.9375,119.75,-205.25,-1.300781,0.3662109,0.2021484,0.1142578,-0.371582,-0.07617188
1970,59.9375,94.5,-208.75,-1.661133,1.06543,-0.08984375,0.1342773,-0.3642578,-0.06640625
1974,-12.8125,36.25,-247.375,-1.541016,1.197754,-0.1669922,0.1474609,-0.3569336,-0.0625
1979,-67.25,13.5,-265.8125,-1.234863,0.7548828,-0.009277344,0.1713867,-0.3457031,-0.0625
1983,-63.0625,29.5625,-257,-1.091309,0.253418,0.2905273,0.1928711,-0.3305664,-0.06787109
1987,-10.75,60.8125,-241.0625,-1.289063,0.1254883,0.5214844,0.2070313,-0.3168945,-0.06933594
1991,45.4375,68.3125,-226.625,-1.785156,0.4711914,0.5175781,0.2236328,-0.3017578,-0.0625
1995,60.5,38.875,-206.5,-2.125977,1.069336,0.2983398,0.2392578,-0.2856445,-0.05712891
1999,35.3125,11.375,-182.5625,-1.812012,1.485352,0.125,0.2485352,-0.2783203,-0.05419922
2003,-8.125,6.9375,-157.25,-1.537109,1.617188,0.09814453,0.2592773,-0.2641602,-0.05029297
2007,-47.0625,8.625,-125.625,-1.544922,1.566895,0.2290039,0.2675781,-0.2504883,-0.05029297
2011,-62.25,3.6875,-88.625,-1.587402,1.36084,0.5366211,0.2700195,-0.2441406,-0.05029297
2015,-37.1875,-2.0625,-43.375,-1.587402,1.092773,0.7827148,0.2758789,-0.2368164,-0.05566406
2019,6.5,-3.5625,4,-1.501953,1.06543,0.7788086,0.2758789,-0.2358398,-0.05712891
2023,28.375,-8,40.4375,-1.416992,1.240234,0.5214844,0.2792969,-0.2358398,-0.05566406
2027,25.5,-16.25,67.6875,-1.347168,1.259766,0.340332,0.2734375,-0.2407227,-0.05566406
2031,15.875,-21.25,88.5,-1.335449,1.217285,0.2597656,0.2700195,-0.2480469,-0.05566406
2035,8.625,-23.75,111.375,-1.351074,1.116211,0.2709961,0.2651367,-0.2519531,-0.05566406
2039,7.6875,-31.1875,132.6875,-1.463379,1.026855,0.2675781,0.2602539,-0.2617188,-0.05859375
2043,10.375,-38.1875,151.6875,-1.48291,0.9760742,0.3095703,0.2509766,-0.2744141,-0.0625
2047,11.4375,-42.5625,172.1875,-1.533203,0.9760742,0.2983398,0.2426758,-0.2817383,-0.0625
2051,8.6875,-44.375,195.5,-1.556152,0.9760742,0.2480469,0.230957,-0.2944336,-0.06396484
2055,-1.25,-44.9375,221.125,-1.610352,1.019043,0.1826172,0.215332,-0.3105469,-0.06933594
2059,-22.4375,-53.1875,232.6875,-1.618164,1.084961,0.1210938,0.2055664,-0.3193359,-0.07080078
2063,-35.6875,-60.1875,242.25,-1.62207,0.8789063,0.1674805,0.1855469,-0.3330078,-0.07617188
2067,-30.125,-63.875,251.5,-1.563965,0.6499023,0.2519531,0.1616211,-0.3466797,-0.08300781
2071,-6.4375,-57.25,265.3125,-1.343262,0.5566406,0.2827148,0.1474609,-0.3554688,-0.08544922
2075,3.3125,-42.0625,276.0625,-1.253906,0.7041016,0.2290039,0.1235352,-0.3666992,-0.08837891
2079,-10.25,-46.9375,279.375,-1.223145,0.8168945,0.1020508,0.09521484,-0.3769531,-0.09082031
2083,-27.4375,-53.875,269.25,-1.133789,0.7041016,0.1479492,0.07714844,-0.3818359,-0.08984375
2087,-38.3125,-60.625,267.625,-1.048828,0.6499023,0.1171875,0.04980469,-0.3842773,-0.09082031
2091,-45.375,-63.75,261.875,-0.9672852,0.5097656,0.1674805,0.02246094,-0.3867188,-0.09912109
2095,-34.75,-62.25,263.3125,-0.8510742,0.3271484,0.2519531,0.003417969,-0.3842773,-0.1005859
2099,-15.9375,-60.375,259.375,-0.7773438,0.3505859,0.1865234,-0.0234375,-0.3833008,-0.1044922
2103,-19.1875,-57.9375,260.625,-0.6689453,0.4399414,0.1674805,-0.05224609,-0.3793945,-0.105957
2108,-26,-68.1875,249.625,-0.6611328,0.4013672,0.08251953,-0.06884766,-0.3730469,-0.105957
2112,-43.75,-77.1875,238.5625,-0.5488281,0.4125977,0.04443359,-0.09472656,-0.3666992,-0.1044922
2116,-62.4375,-92.3125,220.625,-0.3823242,0.2729492,0.03662109,-0.1186523,-0.3554688,-0.1074219
2120,-62.875,-94.5625,203,-0.2734375,0.07080078,0.08251953,-0.1342773,-0.3491211,-0.1088867
2124,-43.3125,-80.625,202.875,0.1015625,-0.1035156,0.2133789,-0.1533203,-0.3354492,-0.1098633
2128,-19.875,-45.1875,213.0625,0.2490234,-0.1230469,0.2021484,-0.1723633,-0.3256836,-0.1088867
2132,-14.5,-31.5625,204.125,0.2875977,-0.01416016,0.1328125,-0.1865234,-0.3154297,-0.105957
2136,-29.25,-38.75,172.25,0.4194336,0.02441406,0.05175781,-0.2006836,-0.3032227,-0.105957
2140,-46.75,-42.125,142.125,0.6132813,-0.1577148,0.05175781,-0.2138672,-0.2905273,-0.1035156
2144,-48.8125,-30.5,125.5,0.8535156,-0.355957,0.1020508,-0.2197266,-0.2832031,-0.1044922
2148,-38.5,-14.0625,97.875,0.9501953,-1.000977,0.1518555,-0.2319336,-0.2729492,-0.105957
2152,-8.75,-1.375,60.75,1.085938,-0.6977539,0.2675781,-0.2353516,-0.2680664,-0.1088867
2156,13.8125,4.6875,9.4375,1.082031,-0.5229492,0.2519531,-0.2387695,-0.2670898,-0.1074219
2160,18.25,10.3125,-25.3125,0.9501953,-0.3056641,0.2402344,-0.2387695,-0.2641602,-0.105957
2164,13.25,14.0625,-46.5625,0.8339844,-0.1420898,0.2290039,-0.234375,-0.265625,-0.1074219
2168,7.8125,11.9375,-70.4375,0.7568359,-0.04150391,0.2441406,-0.2329102,-0.2719727,-0.105957
2172,4.8125,11.1875,-93.3125,0.6948242,0.06689453,0.2519531,-0.2280273,-0.2753906,-0.1088867
2176,8.25,14.25,-113.1875,0.6210938,0.1137695,0.2597656,-0.2197266,-0.2841797,-0.105957
2180,11.6875,16.8125,-124.1875,0.5629883,0.1992188,0.1943359,-0.215332,-0.2880859,-0.1088867
2184,9.125,20.3125,-137.625,0.5356445,0.2070313,0.1748047,-0.2045898,-0.2983398,-0.1098633
2188,8,27.875,-150.125,0.4892578,0.1914063,0.1518555,-0.1938477,-0.3105469,-0.1098633
2192,11.625,39.875,-158.375,0.4077148,0.1176758,0.1787109,-0.184082,-0.3168945,-0.1098633
2196,15.375,48.3125,-171.5,0.2915039,0.1992188,0.1518555,-0.1699219,-0.3242188,-0.1142578
2200,11.4375,55.9375,-181.5,0.159668,0.300293,0.1171875,-0.1533203,-0.3354492,-0.1142578
2204,0.3125,62.3125,-191.5,0.09375,0.3662109,0.105957,-0.1411133,-0.3432617,-0.1157227
2208,-7.375,65.3125,-204.25,0.0009765625,0.2963867,0.105957,-0.1210938,-0.3505859,-0.1181641
2212,7.375,83.75,-209.1875,-0.02587891,0.140625,0.2441406,-0.1010742,-0.359375,-0.1210938
2216,39.875,114.1875,-190.9375,-0.2851563,0.1796875,0.3056641,-0.08544922,-0.3657227,-0.125
2220,63.4375,110.25,-199.625,-0.7075195,0.5136719,0.2675781,-0.06494141,-0.371582,-0.1225586
2224,61,84.25,-211.3125,-0.862793,0.7666016,0.2060547,-0.04003906,-0.3779297,-0.1181641
2228,39.8125,71.75,-199.25,-0.8125,0.7470703,0.1982422,-0.02490234,-0.3803711,-0.1166992
2232,33.375,82,-181.8125,-0.699707,0.6845703,0.2133789,-0.005859375,-0.3818359,-0.1098633
2237,36.25,104.8125,-142.875,-0.6650391,0.5566406,0.1826172,0.01416016,-0.3857422,-0.1088867
2241,39.875,107.25,-146.9375,-0.9477539,0.5991211,0.144043,0.02587891,-0.3833008,-0.1074219
2245,63.0625,65.5625,-205.25,-0.9829102,0.5488281,0.2133789,0.04394531,-0.3803711,-0.1005859
2249,78.5,72.375,-200.5625,-0.9399414,0.8051758,0.1674805,0.06542969,-0.3833008,-0.09082031
2253,47.6875,71.1875,-189.9375,-1.056641,1.150879,-0.04003906,0.08056641,-0.3793945,-0.08837891
2257,-1.8125,65.25,-193.875,-0.9594727,0.987793,-0.02050781,0.09863281,-0.3745117,-0.08154297
2261,-16.1875,66.25,-215.25,-0.9248047,0.5761719,0.1210938,0.1186523,-0.3666992,-0.08300781
2265,10.75,61.9375,-239.6875,-1.12207,0.3544922,0.2480469,0.1318359,-0.3618164,-0.08154297
2269,50.8125,60.0625,-243.75,-1.439941,0.5722656,0.340332,0.1547852,-0.3520508,-0.07470703
2273,66.875,47.25,-220.4375,-1.761719,1.092773,0.2519531,0.1757813,-0.3417969,-0.06933594
2277,49.25,34.9375,-182.5,-1.684082,1.43457,0.144043,0.1889648,-0.3330078,-0.06103516
2281,28.0625,28.25,-157.875,-1.436035,1.356934,0.07519531,0.2011719,-0.3217773,-0.05712891
2285,11.125,23.0625,-151.3125,-1.246094,1.32959,0.08642578,0.2128906,-0.3129883,-0.05175781
2289,-4.9375,20.3125,-145.125,-1.20752,1.368652,0.2250977,0.2211914,-0.3066406,-0.05175781
2293,-16.0625,18.5625,-119.625,-1.285156,1.356934,0.3828125,0.230957,-0.2944336,-0.05175781
2297,-13.875,11.5,-88.75,-1.335449,1.32959,0.5405273,0.2402344,-0.2866211,-0.05175781
2301,-6.75,4.1875,-50.8125,-1.308105,1.415039,0.5981445,0.2412109,-0.2817383,-0.05175781
2305,-3.125,-5.6875,-21.5,-1.265625,1.454102,0.5634766,0.2451172,-0.2807617,-0.05419922
2309,4.5,-12.5,13.8125,-1.219238,1.395996,0.5327148,0.2451172,-0.2792969,-0.05419922
2313,8.4375,-17.3125,48.125,-1.269531,1.422852,0.4287109,0.2436523,-0.2783203,-0.05273438
2317,4.75,-22.75,79.3125,-1.234863,1.399902,0.3291016,0.2402344,-0.2856445,-0.05273438
2321,-1.9375,-29.375,99.75,-1.277344,1.36084,0.2749023,0.2329102,-0.2929688,-0.05566406
2325,-8.25,-40.9375,116.4375,-1.335449,1.376465,0.2675781,0.230957,-0.296875,-0.05566406
2329,-8.75,-51.25,140.375,-1.420898,1.283203,0.2636719,0.2202148,-0.3056641,-0.0625
2333,-7.6875,-52.875,168.125,-1.455566,1.275391,0.2597656,0.2094727,-0.3168945,-0.06396484
2337,-3.1875,-52,195.375,-1.436035,1.217285,0.2636719,0.2011719,-0.3242188,-0.06933594
2341,3.4375,-56.5625,213.8125,-1.595215,1.275391,0.2480469,0.184082,-0.3354492,-0.07177734
2345,-2.6875,-63.3125,234.5,-1.583496,1.36084,0.159668,0.1650391,-0.3481445,-0.07470703
2349,-31.9375,-67,249.8125,-1.443848,1.415039,0.06738281,0.1474609,-0.3569336,-0.07617188
2353,-45.8125,-70.1875,259.5625,-1.351074,0.9101563,0.1865234,0.125,-0.3666992,-0.08300781
2357,-22.0625,-63.375,273.75,-1.308105,0.7509766,0.2368164,0.09960938,-0.3730469,-0.08691406
2361,-27.625,-62.6875,279.5,-1.157227,0.9838867,0.105957,0.08056641,-0.3779297,-0.08984375
2366,-58.5625,-73.6875,265.9375,-1.125977,0.9257813,0.02490234,0.05322266,-0.3842773,-0.09521484
2370,-75.625,-85.9375,251.0625,-0.9946289,0.5527344,0.1479492,0.02490234,-0.3842773,-0.1035156
2374,-47.125,-76.9375,256.6875,-0.8857422,0.237793,0.2749023,0.006835938,-0.3833008,-0.105957
2378,-17.625,-66.625,257.25,-0.8085938,0.3193359,0.2905273,-0.02099609,-0.3818359,-0.112793
2382,-15.125,-62.75,263.25,-0.8125,0.5527344,0.1171875,-0.04589844,-0.3779297,-0.1113281
2386,-41.0625,-74.125,245.0625,-0.7387695,0.6108398,0.05957031,-0.06640625,-0.3730469,-0.1113281
2390,-62.9375,-78.9375,240.0625,-0.6416016,0.4711914,0.09033203,-0.09033203,-0.3642578,-0.112793
2394,-69.4375,-85.1875,229.9375,-0.6030273,0.2456055,0.1289063,-0.1137695,-0.3544922,-0.1181641
2398,-45.75,-72.6875,233.75,-0.2773438,-0.05664063,0.3017578,-0.1303711,-0.3457031,-0.1181641
2402,-11.375,-56.3125,236.0625,-0.2041016,-0.08007813,0.2329102,-0.1557617,-0.3344727,-0.1166992
2406,-3.5625,-49.0625,216.625,-0.1420898,0.1333008,0.1865234,-0.1757813,-0.3193359,-0.1157227
2410,-12.4375,-56.5,195.375,-0.05273438,0.2070313,0.1479492,-0.1875,-0.3144531,-0.1142578
2414,-29.0625,-54.4375,186.75,0.07080078,0.1835938,0.1098633,-0.2045898,-0.2993164,-0.1113281
2418,-47.25,-54.1875,177.9375,0.2875977,0.02050781,0.07910156,-0.21875,-0.2856445,-0.1088867
2422,-51.75,-49.8125,160.125,0.5551758,-0.371582,0.1479492,-0.2270508,-0.2753906,-0.1088867
2426,-30.3125,-36.25,135.75,0.9350586,-0.7250977,0.2368164,-0.2402344,-0.2631836,-0.1088867
2430,-8.5625,-21.5,93.875,1.039551,-1.016602,0.2368164,-0.2470703,-0.2529297,-0.105957
2434,6.0625,-12.0625,46.0625,1.140137,-0.7792969,0.1982422,-0.2519531,-0.2470703,-0.105957
2438,13.6875,-6.1875,-1.375,1.097656,-0.7055664,0.2133789,-0.253418,-0.2456055,-0.105957
2442,16.625,-1.375,-41.1875,1.05127,-0.5698242,0.2211914,-0.2519531,-0.2470703,-0.1020508
2446,18.375,4.5,-75.0625,0.9658203,-0.4335938,0.2290039,-0.2495117,-0.2519531,-0.1035156
2450,25.9375,7.5,-105.625,0.8417969,-0.3134766,0.2368164,-0.2426758,-0.2568359,-0.1020508
2454,34.5,12.5625,-128,0.7177734,-0.1269531,0.2250977,-0.2353516,-0.2680664,-0.1005859
2458,34.75,12.9375,-146.1875,0.6015625,0.05126953,0.1557617,-0.2304688,-0.2768555,-0.1005859
2462,29.3125,9.1875,-170.3125,0.5473633,0.09814453,0.125,-0.2197266,-0.2880859,-0.1005859
2466,27,12.5,-189.75,0.5239258,0.09033203,0.1098633,-0.206543,-0.3017578,-0.09765625
2470,26.1875,19,-205.8125,0.4506836,0.05126953,0.08251953,-0.1962891,-0.3105469,-0.09765625
2474,22.6875,28.625,-219.0625,0.3339844,0.09814453,0.03271484,-0.1791992,-0.3242188,-0.09765625
2478,15.625,39.8125,-228.125,0.2138672,0.1137695,0.009765625,-0.1591797,-0.3378906,-0.09667969
2482,5.4375,45.75,-245.0625,0.09033203,0.1484375,-0.009277344,-0.1459961,-0.3457031,-0.09912109
2486,-2.25,47.5625,-273.875,-0.07617188,0.121582,0.05957031,-0.1220703,-0.3569336,-0.1020508
2490,1.6875,56.625,-286.75,-0.2348633,0.1020508,0.1674805,-0.09375,-0.3681641,-0.1044922
2495,13.6875,73.1875,-275.8125,-0.5292969,0.203125,0.1674805,-0.07470703,-0.3730469,-0.1044922
2499,16.375,88.125,-256.4375,-0.6572266,0.4086914,0.1328125,-0.04736328,-0.3803711,-0.105957
2503,7.625,87.4375,-254.25,-0.8857422,0.4829102,0.08642578,-0.02001953,-0.3833008,-0.1074219
2507,10.75,80.8125,-269.5,-0.9130859,0.4204102,0.140625,0,-0.3833008,-0.105957
2511,20.1875,83.6875,-273,-1.037109,0.4711914,0.144043,0.03076172,-0.3842773,-0.1044922
2515,13.1875,87.0625,-265.8125,-1.125977,0.6147461,0.09033203,0.05810547,-0.3818359,-0.1035156
2519,15.6875,100,-252.5625,-1.165039,0.4829102,0.2172852,0.07617188,-0.3779297,-0.09912109
2523,23.375,92.375,-251.75,-1.459473,0.6225586,0.144043,0.1020508,-0.371582,-0.09521484
2527,6.1875,73.0625,-261,-1.413086,0.8208008,0.1328125,0.128418,-0.3618164,-0.08984375
2531,-20.875,61.6875,-263.625,-1.339355,0.7353516,0.1635742,0.1450195,-0.3569336,-0.09082031
2535,-20.625,64.375,-265.8125,-1.20752,0.2612305,0.3364258,0.1689453,-0.3432617,-0.08837891
2539,28.5625,81.9375,-273.1875,-1.28125,-0.03369141,0.4365234,0.1914063,-0.3266602,-0.08300781
2543,69.75,84.875,-299.875,-1.501953,0.2612305,0.3481445,0.2070313,-0.3154297,-0.07763672
2547,71.5625,62.9375,-316.0625,-2.025391,0.6186523,0.2675781,0.2329102,-0.2944336,-0.06640625
2551,59.1875,28.125,-282.125,-2.226563,0.6069336,0.3364258,0.2509766,-0.2729492,-0.05859375
2555,59.8125,21.375,-235.0625,-1.839355,0.8481445,0.3212891,0.2602539,-0.2592773,-0.05419922
2559,55.125,18.8125,-217.9375,-1.788574,1.026855,0.2290039,0.2734375,-0.2407227,-0.04882813
2563,47,15.8125,-195.8125,-1.78125,1.302734,0.3330078,0.2841797,-0.2216797,-0.04638672
2567,28.375,14.25,-149.4375,-1.874023,1.458008,0.4443359,0.2900391,-0.2094727,-0.04199219
2571,2.375,-1.5,-93.3125,-1.95166,1.535645,0.4711914,0.2949219,-0.1992188,-0.03955078
2575,-23.1875,-18.9375,-40.5625,-1.78125,1.415039,0.4633789,0.2998047,-0.1918945,-0.04199219
2579,-23.75,-25.75,-0.4375,-1.517578,1.108398,0.4443359,0.2998047,-0.1894531,-0.04492188
2583,-3,-20.625,30.625,-1.366211,0.890625,0.3710938,0.2998047,-0.1879883,-0.04638672
2587,17.1875,-12.5,60.3125,-1.374023,0.8364258,0.2558594,0.2973633,-0.1958008,-0.04882813
2591,21.5625,-12.6875,83.4375,-1.370117,0.921875,0.1132813,0.2963867,-0.1992188,-0.05029297
2595,15.9375,-15.9375,99.25,-1.443848,0.90625,0.03662109,0.2924805,-0.2070313,-0.05029297
2599,11.1875,-14.8125,122.625,-1.479004,0.9453125,0.05175781,0.2841797,-0.2158203,-0.05029297
2603,2.3125,-18.875,146.1875,-1.684082,0.9799805,0.04785156,0.2817383,-0.2246094,-0.05029297
2607,-11.4375,-27.5,172.375,-1.641602,0.9257813,0.05957031,0.2758789,-0.2392578,-0.05273438
2611,-25.5625,-25.875,194.25,-1.645508,0.8710938,0.05957031,0.2651367,-0.2529297,-0.05566406
2615,-37.8125,-32.4375,206.3125,-1.757813,0.8168945,0.1020508,0.2583008,-0.2631836,-0.05859375
2619,-45.1875,-43.375,210.6875,-1.812012,0.777832,0.1865234,0.2451172,-0.2807617,-0.06542969
2624,-44.8125,-51.5,223.375,-1.881836,0.6655273,0.2558594,0.2294922,-0.296875,-0.07177734
2628,-34.1875,-55,248.5625,-1.835449,0.5527344,0.3291016,0.2177734,-0.3056641,-0.07617188
2632,-18.6875,-49.375,271.875,-1.610352,0.4985352,0.3598633,0.1972656,-0.3232422,-0.08007813
2636,-3.75,-44.875,272.1875,-1.563965,0.4672852,0.375,0.1738281,-0.3393555,-0.08691406
2640,5,-46.9375,280.0625,-1.490234,0.5722656,0.3173828,0.1567383,-0.3491211,-0.08837891
2644,-15,-55.4375,290.6875,-1.424316,0.7119141,0.2250977,0.1318359,-0.3632813,-0.08984375
2648,-36.25,-69.8125,292.1875,-1.331543,0.5371094,0.2060547,0.1044922,-0.371582,-0.09375
2652,-46.4375,-73.125,302.6875,-1.265625,0.4125977,0.2290039,0.08691406,-0.3754883,-0.09912109
2656,-42.375,-77.6875,310.75,-1.15332,0.2416992,0.2597656,0.0546875,-0.3803711,-0.1044922
2660,-38.125,-73.3125,322.25,-0.9672852,0.237793,0.1787109,0.02001953,-0.3833008,-0.1074219
2664,-49.9375,-77.9375,312.4375,-0.9208984,0.269043,0.1098633,-0.001953125,-0.3818359,-0.112793
2668,-63.1875,-92.25,303.8125,-0.8896484,0.1367188,0.09423828,-0.03515625,-0.3793945,-0.1166992
2672,-61.25,-99.1875,296.25,-0.7036133,-0.05664063,0.1210938,-0.06738281,-0.371582,-0.1196289
2676,-54.8125,-96.875,291.5,-0.3974609,-0.1308594,0.1210938,-0.08789063,-0.3657227,-0.1196289
2680,-35.75,-86.5625,272.125,-0.2890625,-0.2470703,0.1865234,-0.1176758,-0.3530273,-0.1225586
2684,-2.1875,-72.375,255,-0.1689453,-0.2548828,0.2290039,-0.1425781,-0.3408203,-0.1196289
2688,15.3125,-59,252.25,0.01660156,-0.06445313,0.07910156,-0.1582031,-0.3320313,-0.1157227
2692,6.875,-58.9375,225.0625,0.1870117,-0.05273438,-0.01318359,-0.1791992,-0.3168945,-0.112793
2696,-1.5625,-52.625,206.4375,0.5009766,-0.1889648,-0.04394531,-0.2021484,-0.3032227,-0.105957
2700,-14.8125,-43.8125,183.5625,0.7138672,-0.3325195,-0.03613281,-0.2114258,-0.2929688,-0.1044922
2704,-23.125,-35.125,162.375,0.8881836,-0.9619141,-0.08984375,-0.2246094,-0.2817383,-0.1035156
2708,-19.3125,-18.25,110.625,1.345703,-0.8803711,0.144043,-0.2353516,-0.2680664,-0.1044922
2712,-3.625,-1.3125,52.5625,1.419434,-0.9580078,0.2094727,-0.237793,-0.265625,-0.1020508
2716,19.875,12.875,-2.6875,1.345703,-0.9233398,0.2905273,-0.2412109,-0.2617188,-0.1005859
2720,38.5,20.5625,-49,1.194336,-0.6591797,0.2944336,-0.2387695,-0.2641602,-0.1035156
2724,46.625,22.25,-96.1875,0.9736328,-0.3134766,0.2944336,-0.2363281,-0.2695313,-0.1005859
2728,54.1875,20.125,-130.25,0.7529297,-0.002441406,0.3637695,-0.2304688,-0.2792969,-0.1005859
2732,68.9375,22.125,-147.5,0.4736328,0.2148438,0.3945313,-0.21875,-0.2905273,-0.09667969
2736,81.1875,22.5,-141.5,0.3496094,0.4750977,0.3330078,-0.2114258,-0.2993164,-0.09375
2740,76.3125,19.3125,-133.125,0.3110352,0.6811523,0.2250977,-0.2006836,-0.3095703,-0.08984375
2744,64.9375,14.5625,-142.6875,0.2993164,0.7001953,0.2558594,-0.1899414,-0.3193359,-0.08544922
2748,60.8125,7.8125,-146.875,0.206543,0.6845703,0.1904297,-0.1816406,-0.3256836,-0.08300781
2753,50,7.625,-146.375,0.2568359,0.7236328,0.1171875,-0.1699219,-0.3378906,-0.07763672
2757,33.4375,3.625,-147.375,0.2412109,0.6811523,0.04785156,-0.1567383,-0.3442383,-0.07470703
2761,9.5625,0.9375,-155.0625,0.2758789,0.6772461,-0.001464844,-0.1474609,-0.3491211,-0.07470703
2765,-14.0625,0.375,-167.0625,0.2451172,0.5527344,0.01708984,-0.1318359,-0.3569336,-0.07324219
2769,-25,1.9375,-185.3125,0.2216797,0.4086914,0.09033203,-0.1162109,-0.3657227,-0.07617188
2773,-21.6875,9.125,-200.875,0.1635742,0.2885742,0.144043,-0.1044922,-0.3691406,-0.08007813
2777,-6.9375,24.375,-205.4375,0.07470703,0.2148438,0.2021484,-0.08398438,-0.3769531,-0.08154297
2781,21.25,51.75,-198.75,-0.09521484,0.2416992,0.2709961,-0.06298828,-0.3818359,-0.08300781
2785,45.625,70,-183.25,-0.4521484,0.4946289,0.2060547,-0.04980469,-0.3857422,-0.08154297
2789,42,58.8125,-183.8125,-0.7387695,0.777832,0.1098633,-0.03076172,-0.3881836,-0.07763672
2793,16.5,21,-209.625,-0.7192383,0.8789063,0.04785156,-0.009277344,-0.3891602,-0.07617188
2797,12.1875,22.125,-218.5,-0.4985352,0.6538086,0.1865234,0.004394531,-0.3916016,-0.07177734
2801,23.1875,39.75,-203.3125,-0.5834961,0.6538086,0.1674805,0.02587891,-0.390625,-0.07324219
2805,23.0625,56.5625,-178.375,-0.6572266,0.7666016,0.105957,0.04492188,-0.3881836,-0.06933594
2809,-0.8125,55.75,-164,-0.8393555,0.8867188,0.01708984,0.05810547,-0.3867188,-0.06787109
2813,-45.5,18.9375,-193.5625,-0.8706055,0.8867188,0.001953125,0.07617188,-0.3857422,-0.07080078
2817,-68.4375,6.875,-224.6875,-0.5795898,0.4672852,0.2133789,0.09765625,-0.3779297,-0.07324219
2821,-30.1875,32.75,-225.1875,-0.6416016,-0.01025391,0.425293,0.1118164,-0.371582,-0.07861328
2825,25.9375,66.875,-205.8125,-0.8354492,0.1098633,0.3945313,0.1333008,-0.3632813,-0.07861328
2829,45,79.75,-187.375,-1.129883,0.5253906,0.2211914,0.1523438,-0.3544922,-0.07080078
2833,17.0625,60.25,-190.75,-1.420898,0.8325195,0.05957031,0.1640625,-0.3491211,-0.06640625
2837,-32.5,10.25,-225.6875,-1.381836,0.793457,0.02880859,0.1806641,-0.3378906,-0.06396484
2841,-41.75,6,-245.0625,-1.017578,0.269043,0.2519531,0.2011719,-0.3256836,-0.06542969
2845,0,36.625,-235.1875,-1.145508,0.0009765625,0.3212891,0.2119141,-0.3144531,-0.06933594
2849,33.6875,54.9375,-223.1875,-1.358887,0.2573242,0.2597656,0.2285156,-0.296875,-0.06396484
2853,41.875,52.625,-218.5,-1.633789,0.5253906,0.1826172,0.2436523,-0.2792969,-0.05957031
2857,31.375,37.1875,-212.0625,-1.70752,0.7431641,0.1020508,0.253418,-0.2695313,-0.05419922
2861,5.3125,21.6875,-207.5625,-1.54834,0.8129883,0.05175781,0.2666016,-0.2504883,-0.05029297
2865,-23,20,-203.0625,-1.389648,0.7666016,0.03271484,0.2773438,-0.2329102,-0.04882813
2869,-36.9375,10,-184.6875,-1.575684,0.4868164,0.1210938,0.2841797,-0.2246094,-0.04736328
2873,-32.625,1.0625,-164.625,-1.471191,0.5097656,0.2709961,0.2924805,-0.2080078,-0.04736328
2877,-29.75,-3.3125,-155.5,-1.439941,0.6303711,0.375,0.2998047,-0.1904297,-0.05029297
2882,-17.125,-4.9375,-129.875,-1.439941,0.5800781,0.5595703,0.3007813,-0.1821289,-0.05029297
2886,-0.625,-2.0625,-92.3125,-1.40918,0.7275391,0.5366211,0.3071289,-0.1694336,-0.05175781
2890,-5.625,-3.125,-56.3125,-1.351074,0.953125,0.4482422,0.3081055,-0.1630859,-0.05029297
2894,-22.5625,-9,-24.75,-1.40918,0.9257813,0.3828125,0.3081055,-0.1606445,-0.05029297
2898,-23.5,-12.9375,9.0625,-1.381836,0.6459961,0.3867188,0.3105469,-0.1582031,-0.05419922
2902,-7.3125,-8.1875,35.5,-1.358887,0.4829102,0.3637695,0.309082,-0.1591797,-0.05566406
2906,15.1875,-5.4375,54.75,-1.339355,0.3974609,0.2905273,0.3081055,-0.1630859,-0.05566406
2910,29.9375,-0.8125,69.4375,-1.269531,0.4829102,0.1982422,0.3056641,-0.1669922,-0.05712891
2914,37.9375,1.75,83.5,-1.315918,0.5332031,0.1518555,0.3056641,-0.1743164,-0.05273438
2918,32.125,2.25,106.3125,-1.366211,0.6577148,0.07910156,0.3022461,-0.1831055,-0.05273438
2922,13.6875,-0.375,125.9375,-1.413086,0.7275391,0.07910156,0.2998047,-0.1918945,-0.05273438
2926,-5.8125,-12.625,134.6875,-1.537109,0.7197266,0.08642578,0.2915039,-0.2045898,-0.05175781
2930,-18.0625,-26.5625,145.5,-1.57959,0.6342773,0.1479492,0.2890625,-0.2143555,-0.05419922
2934,-11.9375,-28.1875,166.125,-1.509766,0.4946289,0.2402344,0.2817383,-0.2255859,-0.05859375
2938,-0.25,-24.5625,184.5,-1.54834,0.5371094,0.2290039,0.2734375,-0.2407227,-0.06103516
2942,7.1875,-21.25,201.375,-1.560059,0.6069336,0.2290039,0.2651367,-0.2519531,-0.06103516
2946,-0.125,-20.6875,219.8125,-1.567871,0.7431641,0.1635742,0.253418,-0.2695313,-0.06103516
2950,-21.4375,-28.125,232.75,-1.633789,0.7817383,0.1328125,0.2402344,-0.2895508,-0.06542969
2954,-36.8125,-36.75,245.875,-1.521484,0.6538086,0.1826172,0.2270508,-0.296875,-0.06787109
2958,-35.8125,-43.375,247.0625,-1.479004,0.4829102,0.2402344,0.2104492,-0.3144531,-0.07324219
2962,-20.625,-42.5625,246.125,-1.32373,0.3935547,0.3364258,0.1904297,-0.3305664,-0.07763672
2966,0.3125,-27.5625,264.5625,-1.246094,0.4282227,0.3364258,0.1757813,-0.3393555,-0.08154297
2970,2.875,-22.5,273.5625,-1.339355,0.6225586,0.2329102,0.1523438,-0.3520508,-0.08007813
2974,-5.8125,-29.6875,275.125,-1.308105,0.6381836,0.2172852,0.1269531,-0.3642578,-0.08300781
2978,-10.3125,-31.6875,283.4375,-1.168945,0.5527344,0.2290039,0.1103516,-0.371582,-0.08447266
2982,-16.9375,-35.25,283.25,-1.106934,0.5913086,0.1787109,0.08300781,-0.3793945,-0.08837891
2986,-17.75,-32.4375,277.875,-0.9477539,0.4399414,0.2675781,0.0546875,-0.3857422,-0.08984375
2990,16.3125,-12.9375,287.5,-0.7231445,0.09033203,0.3945313,0.03564453,-0.3881836,-0.09082031
2994,66.9375,23.3125,300.4375,-0.5722656,0.1757813,0.3134766,0.004394531,-0.3881836,-0.08544922
2998,70.5625,36.6875,296.25,-0.5952148,0.5952148,0.105957,-0.02490234,-0.3867188,-0.08007813
3002,22.4375,16.125,279.375,-0.7270508,0.8632813,-0.07861328,-0.04248047,-0.3867188,-0.07324219
3006,-51.125,-20.8125,259.6875,-0.6728516,0.7666016,-0.1245117,-0.07128906,-0.3803711,-0.07324219
3011,-98.9375,-48.9375,245.5,-0.5024414,0.3193359,0.04785156,-0.09472656,-0.371582,-0.08007813
3015,-91.8125,-55.5625,237.875,-0.2080078,-0.1694336,0.2558594,-0.1113281,-0.3632813,-0.08691406
3019,-52.6875,-36.9375,234.4375,0.1132813,-0.355957,0.3671875,-0.1328125,-0.3520508,-0.08984375
3023,-8.9375,-14.375,224.4375,0.3457031,-0.387207,0.3598633,-0.1582031,-0.3408203,-0.09082031
3027,16.4375,-1.625,194.6875,0.4194336,-0.1616211,0.2133789,-0.168457,-0.3330078,-0.09228516
3031,4.875,-6.9375,154.6875,0.5048828,0.03613281,0.09033203,-0.1831055,-0.3232422,-0.08837891
3035,-19.3125,-17.8125,118.4375,0.5976563,-0.02197266,0.07910156,-0.1948242,-0.3129883,-0.08984375
3039,-33.75,-21.1875,88.9375,0.7451172,-0.2275391,0.125,-0.203125,-0.3056641,-0.09082031
3043,-32.0625,-21.0625,59.4375,0.8769531,-0.3911133,0.2133789,-0.2080078,-0.3032227,-0.08837891
3047,-19.75,-16.125,18.5625,1.035645,-0.4453125,0.2983398,-0.2128906,-0.296875,-0.09228516
3051,5.9375,-4.875,-20.3125,1.039551,-0.4765625,0.3520508,-0.2128906,-0.2983398,-0.09082031
3055,28.625,6,-56,0.9580078,-0.2392578,0.3251953,-0.2104492,-0.2993164,-0.08984375
3059,45,13.9375,-85.6875,0.7680664,-0.04150391,0.3173828,-0.2045898,-0.3056641,-0.08691406
3063,52.5625,15.75,-107.3125,0.5859375,0.2109375,0.2905273,-0.199707,-0.3095703,-0.08544922
3067,54.9375,15.8125,-119.5,0.4311523,0.3779297,0.2558594,-0.1914063,-0.3193359,-0.08154297
3071,48.3125,11.8125,-116.5,0.3574219,0.5332031,0.1557617,-0.1816406,-0.328125,-0.08007813
3075,28.4375,3.0625,-123.125,0.3339844,0.5913086,0.08251953,-0.1748047,-0.3330078,-0.07617188
3079,10.1875,-9.5,-140.8125,0.3378906,0.5136719,0.06347656,-0.1625977,-0.3417969,-0.07617188
3083,-1.4375,-10.3125,-160.375,0.3999023,0.4086914,0.08251953,-0.1494141,-0.3457031,-0.07470703
3087,-2.3125,-3,-173.5,0.3925781,0.315918,0.1132813,-0.1401367,-0.3530273,-0.07617188
3091,1.5625,11.6875,-182.3125,0.3188477,0.2651367,0.1171875,-0.1245117,-0.3618164,-0.07617188
3095,4.625,22.6875,-192.0625,0.159668,0.2651367,0.09814453,-0.1054688,-0.3691406,-0.07763672
3099,10.625,30.3125,-203.8125,-0.002441406,0.2612305,0.144043,-0.09130859,-0.3730469,-0.07617188
3103,17.0625,39.8125,-205.9375,-0.1186523,0.3505859,0.140625,-0.07226563,-0.3779297,-0.07617188
3107,29.8125,48.8125,-211.125,-0.246582,0.2924805,0.1982422,-0.05224609,-0.3842773,-0.07470703
3111,64.8125,71.75,-203.6875,-0.3510742,0.2885742,0.2172852,-0.0390625,-0.3867188,-0.07470703
3115,84.1875,87.6875,-183.4375,-0.6264648,0.6030273,0.06347656,-0.01513672,-0.390625,-0.06787109
3119,62,75.5625,-174.375,-0.8354492,1.045898,-0.1323242,0.004394531,-0.3930664,-0.05859375
3123,1.5,38.625,-189.375,-0.8896484,1.182129,-0.2089844,0.01416016,-0.3930664,-0.05712891
3127,-32.9375,3.0625,-228.5625,-0.6767578,0.5605469,0.05957031,0.03662109,-0.390625,-0.05859375
3131,30.875,27.75,-248.875,-0.5063477,-0.08789063,0.340332,0.05957031,-0.3891602,-0.05957031
3135,118.1875,76.25,-233.25,-0.7348633,0.09033203,0.2329102,0.07714844,-0.3857422,-0.05566406
3140,141.75,93.5625,-212.25,-1.195801,0.921875,-0.05908203,0.09863281,-0.3818359,-0.04052734
3144,79.1875,61.875,-195.8125,-1.575684,1.640625,-0.3129883,0.1176758,-0.3754883,-0.02734375
3148,-29.6875,10,-174.25,-1.513672,1.753418,-0.2822266,0.1318359,-0.3681641,-0.02294922
3152,-121.125,-34.4375,-165.5625,-1.219238,1.217285,-0.1474609,0.1459961,-0.3603516,-0.02734375
3156,-148,-46.6875,-173.0625,-0.746582,0.4282227,0.1171875,0.1616211,-0.3530273,-0.04199219
3160,-87.375,-9.375,-185.25,-0.4287109,-0.4296875,0.4672852,0.1723633,-0.3432617,-0.05175781
3164,37.6875,53.4375,-197.25,-0.715332,-0.5776367,0.5214844,0.1879883,-0.3320313,-0.05566406
3168,104.875,69.375,-200.5625,-1.257813,0.2729492,0.1748047,0.203125,-0.3208008,-0.04492188
3172,73.5,43,-203.5625,-1.595215,0.972168,-0.08203125,0.215332,-0.3144531,-0.03955078
3176,-2.9375,2.3125,-192.875,-1.571777,1.09668,-0.1669922,0.2294922,-0.2993164,-0.03125
3180,-67.1875,-16.4375,-186.9375,-1.211426,0.7817383,-0.112793,0.2412109,-0.2866211,-0.03662109
3184,-80.5625,-1.875,-196,-1.114746,0.3310547,0.1328125,0.2485352,-0.2753906,-0.03808594
3188,-44.125,13.75,-195,-1.459473,0.1020508,0.3598633,0.2617188,-0.2568359,-0.04052734
3192,-1.0625,13.25,-179.625,-1.727051,0.3349609,0.4560547,0.2734375,-0.2416992,-0.04345703
3196,16.3125,1.875,-153.25,-1.827637,0.7353516,0.3251953,0.2792969,-0.2329102,-0.04199219
3200,-0.5,-14.5625,-120.1875,-1.703613,1.019043,0.1787109,0.2856445,-0.2216797,-0.04052734
3204,-25.6875,-16.8125,-81.8125,-1.498047,1.100586,0.1982422,0.2915039,-0.2104492,-0.04199219
3208,-27.875,-9.6875,-49.1875,-1.40918,0.9296875,0.3481445,0.2915039,-0.2070313,-0.04199219
3212,-9.3125,-1.3125,-12.25,-1.393555,0.8481445,0.4018555,0.2939453,-0.203125,-0.04638672
3216,8.6875,4.625,21.9375,-1.381836,0.840332,0.3520508,0.2924805,-0.2055664,-0.04638672
3220,19.625,1.9375,46.6875,-1.366211,0.855957,0.2290039,0.2924805,-0.2055664,-0.04736328
3224,23.5,-2.625,62.875,-1.28125,0.8598633,0.140625,0.2900391,-0.2094727,-0.04345703
3228,24.5625,-5.1875,74.4375,-1.223145,0.8481445,0.08642578,0.2880859,-0.2143555,-0.04345703
3232,22.375,-3.8125,88.25,-1.25,0.8598633,0.03662109,0.2856445,-0.2207031,-0.04345703
3236,22.5625,-3.375,105,-1.331543,0.8598633,0.04785156,0.2807617,-0.2294922,-0.04345703
3240,24.9375,-2.1875,126.375,-1.413086,0.8520508,0.04443359,0.2758789,-0.2382813,-0.04199219
3244,18.625,-3,148.9375,-1.447754,0.9179688,0.01708984,0.2709961,-0.2470703,-0.04052734
3248,2.8125,-18.5625,156,-1.614258,0.921875,-0.001464844,0.2617188,-0.2607422,-0.03955078
3252,-6.75,-30.9375,165.125,-1.567871,0.875,0.05175781,0.2519531,-0.2729492,-0.04345703
3256,-18.8125,-27.6875,193.875,-1.544922,0.9604492,-0.005371094,0.2451172,-0.2817383,-0.04638672
3260,-40.4375,-25.5,217.5,-1.509766,0.8945313,-0.001464844,0.230957,-0.296875,-0.05029297
3264,-36.5625,-26.1875,228.375,-1.467285,0.6225586,0.105957,0.2163086,-0.3120117,-0.05175781
3269,-23.9375,-25.6875,231.4375,-1.428223,0.5761719,0.1748047,0.203125,-0.3242188,-0.05566406
3273,-10.0625,-22.75,235.3125,-1.370117,0.6108398,0.2172852,0.1831055,-0.3354492,-0.05712891
3277,-10.25,-23.3125,243.5,-1.32373,0.7353516,0.159668,0.1650391,-0.3505859,-0.05957031
3281,-17.375,-25.875,249,-1.199707,0.7392578,0.159668,0.1499023,-0.3579102,-0.06103516
3285,-28.375,-26.4375,259.0625,-1.227051,0.7626953,0.1098633,0.1259766,-0.3681641,-0.06542969
3289,-51.625,-36.9375,258.0625,-1.103027,0.7666016,0.07519531,0.1035156,-0.3769531,-0.07080078
3293,-61.75,-47.3125,243.625,-1.056641,0.5410156,0.140625,0.08544922,-0.3803711,-0.07470703
3297,-45.4375,-50.3125,237.375,-0.9672852,0.3466797,0.2597656,0.06152344,-0.3842773,-0.08007813
3301,-15.5,-38.625,240.6875,-0.8007813,0.3081055,0.3212891,0.03564453,-0.3881836,-0.08544922
3305,4,-22.5,248.6875,-0.8164063,0.5097656,0.2788086,0.02001953,-0.3891602,-0.08300781
3309,-10.0625,-28.5625,255.0625,-0.9052734,0.7666016,0.1289063,-0.005859375,-0.3881836,-0.08544922
3313,-44.1875,-47.0625,245.8125,-0.8588867,0.7817383,0.06738281,-0.03173828,-0.3857422,-0.08544922
3317,-71.6875,-68,239.25,-0.730957,0.5913086,0.05566406,-0.04980469,-0.3833008,-0.08984375
3321,-74.5625,-68.125,244.8125,-0.4130859,0.284668,0.140625,-0.07470703,-0.3769531,-0.09667969
3325,-64.4375,-54.8125,244.125,-0.2001953,0.1601563,0.1943359,-0.09716797,-0.3657227,-0.1005859
3329,-47.1875,-47.0625,231,-0.1728516,0.09423828,0.1943359,-0.1137695,-0.359375,-0.1020508
3333,-48.0625,-48.75,214.8125,-0.09912109,0.2768555,0.1289063,-0.1352539,-0.3491211,-0.1044922
3337,-64.125,-60.4375,195.0625,-0.1303711,0.3120117,0.06347656,-0.1582031,-0.3354492,-0.105957
3341,-89.1875,-74.125,179.6875,0.04345703,0.3349609,0.001953125,-0.1674805,-0.328125,-0.1088867
3345,-100.3125,-84.75,171.625,0.2607422,-0.04150391,0.07128906,-0.1855469,-0.3144531,-0.1098633
3349,-75.4375,-67.375,156.125,0.7568359,-0.3950195,0.2250977,-0.199707,-0.3017578,-0.1142578
3353,-25,-30.625,140.75,0.9311523,-0.6748047,0.3173828,-0.2080078,-0.2929688,-0.112793
3357,11.125,-10.8125,116.5,0.9541016,-0.550293,0.1748047,-0.2197266,-0.2841797,-0.1113281
3361,18.9375,-7.6875,65.9375,0.9892578,-0.371582,0.2060547,-0.2270508,-0.2768555,-0.1098633
3365,15.0625,-9,20.6875,1.008301,-0.3134766,0.2021484,-0.2270508,-0.2744141,-0.1088867
3369,9.875,-6.875,-14.9375,0.9619141,-0.2861328,0.2290039,-0.2294922,-0.2729492,-0.1074219
3373,11.1875,-2.125,-43.875,0.9462891,-0.2314453,0.2675781,-0.2246094,-0.2768555,-0.1074219
3377,21.9375,4.3125,-71.625,0.8457031,-0.1733398,0.3056641,-0.2255859,-0.2807617,-0.1074219
3381,32.5,7.875,-101.375,0.7333984,-0.01416016,0.2866211,-0.2197266,-0.2866211,-0.1044922
3385,43.5,12.25,-123.125,0.5898438,0.1176758,0.3134766,-0.2104492,-0.2954102,-0.1044922
3389,46.875,15.5,-135.375,0.5009766,0.3041992,0.2558594,-0.2055664,-0.3017578,-0.1005859
3393,42.6875,15.4375,-136.9375,0.3652344,0.2416992,0.125,-0.1923828,-0.3129883,-0.09912109
3398,26.5,14.6875,-154.625,0.3886719,0.3544922,0.1289063,-0.1831055,-0.3217773,-0.09765625
3402,14.0625,13,-169.75,0.3417969,0.2807617,0.1210938,-0.1723633,-0.328125,-0.09765625
3406,5.375,7.6875,-192.1875,0.2490234,0.2265625,0.144043,-0.1567383,-0.3393555,-0.09667969
3410,3.4375,10.625,-213.375,0.2758789,0.171875,0.1748047,-0.1391602,-0.3491211,-0.09667969
3414,10.25,25.6875,-224.9375,0.159668,0.1293945,0.2021484,-0.1259766,-0.3554688,-0.09765625
3418,15.5625,40.625,-224.25,-0.05273438,0.2456055,0.1635742,-0.1044922,-0.3657227,-0.09765625
3422,13.6875,46,-224.6875,-0.2773438,0.3310547,0.1557617,-0.08203125,-0.371582,-0.09765625
3426,12.375,36.125,-245.1875,-0.3823242,0.3583984,0.1367188,-0.06494141,-0.3769531,-0.09912109
3430,17.8125,40.0625,-254.5625,-0.3510742,0.2651367,0.2021484,-0.04150391,-0.3803711,-0.09765625
3434,47.6875,65.4375,-247.875,-0.3432617,0.04394531,0.2788086,-0.01416016,-0.3857422,-0.09667969
3438,96.625,97.0625,-228.4375,-0.6030273,0.105957,0.1982422,0.002441406,-0.3881836,-0.09375
3442,113.75,108,-217.6875,-0.9438477,0.5019531,-0.005371094,0.02490234,-0.3891602,-0.08300781
3446,83,68.875,-246.3125,-1.343262,0.9296875,-0.1708984,0.05224609,-0.3867188,-0.07177734
3450,24.875,20.4375,-277.125,-1.385742,1.06543,-0.128418,0.06982422,-0.3857422,-0.06640625
3454,-20.3125,-4.4375,-285.8125,-1.187988,0.8168945,0.02880859,0.09521484,-0.3803711,-0.06542969
3458,-21,7.375,-270.3125,-1.114746,0.4711914,0.1518555,0.1235352,-0.3706055,-0.06787109
3462,20.1875,39.1875,-253.375,-1.11084,0.2299805,0.2480469,0.1376953,-0.3618164,-0.06787109
3466,53.5625,61.125,-235.25,-1.351074,0.5566406,0.09033203,0.1606445,-0.3505859,-0.06103516
3470,23,41.4375,-237.4375,-1.587402,1.034668,-0.0859375,0.184082,-0.3393555,-0.05419922
3474,-41.9375,-0.125,-247.1875,-1.544922,0.9682617,-0.04003906,0.1962891,-0.328125,-0.05273438
3478,-79.4375,-13.4375,-238.875,-1.211426,0.5019531,0.1210938,0.2138672,-0.3120117,-0.05712891
3482,-73.4375,4.8125,-234.5625,-1.013672,0.09033203,0.2597656,0.230957,-0.2954102,-0.06542969
3486,-33.5625,36.0625,-238.125,-1.114746,-0.1191406,0.4057617,0.2412109,-0.2817383,-0.06640625
3490,17.375,58.75,-227.9375,-1.552246,0.1601563,0.4404297,0.2568359,-0.2631836,-0.06542969
3494,20,52.4375,-191.3125,-2.009766,0.809082,0.3481445,0.2700195,-0.2441406,-0.05859375
3498,-22.25,6.625,-153.125,-2.17627,1.019043,0.2368164,0.2758789,-0.2358398,-0.05566406
3502,-76,-31.6875,-125.9375,-1.641602,0.9296875,0.1479492,0.2817383,-0.2216797,-0.05957031
3506,-92.75,-26.5625,-128.1875,-1.060547,0.5214844,0.3056641,0.2890625,-0.2094727,-0.06396484
3510,-50.6875,6.0625,-124.875,-1.176758,0.2729492,0.605957,0.2939453,-0.2016602,-0.06933594
3514,-1,13.9375,-92.875,-1.645508,0.5527344,0.7021484,0.2973633,-0.1904297,-0.06787109
3518,13.6875,-1.0625,-54.4375,-1.67627,0.9375,0.5522461,0.2998047,-0.1831055,-0.06787109
3522,8,-10.875,-21.9375,-1.436035,1.061523,0.3442383,0.3007813,-0.1821289,-0.06933594
3527,-0.0625,-9.875,0.5,-1.319824,0.9995117,0.2558594,0.3007813,-0.1821289,-0.06787109
3531,0.75,-4.375,28.25,-1.315918,0.9101563,0.2368164,0.3007813,-0.1806641,-0.07080078
3535,7.0625,-2.4375,54,-1.339355,0.7895508,0.2211914,0.2998047,-0.1821289,-0.07080078
3539,15.3125,-6.5625,73.875,-1.32373,0.7119141,0.2094727,0.2973633,-0.1894531,-0.06933594
3543,22.4375,-6.125,88,-1.219238,0.6577148,0.1748047,0.2939453,-0.1958008,-0.06933594
3547,27.125,-2.25,100.375,-1.234863,0.6811523,0.140625,0.2915039,-0.2006836,-0.07080078
3551,23.8125,-5.3125,110,-1.362793,0.7392578,0.1171875,0.2880859,-0.2128906,-0.06933594
3555,16.6875,-8.5625,126.9375,-1.447754,0.8168945,0.1328125,0.2817383,-0.2246094,-0.07080078
3559,3.875,-14.375,146.6875,-1.603027,0.8945313,0.1557617,0.2783203,-0.2319336,-0.06933594
3563,-3.5625,-26.125,166.875,-1.618164,0.7548828,0.1865234,0.269043,-0.2441406,-0.07080078
3567,3.6875,-19.5625,193.5,-1.54834,0.7001953,0.2480469,0.2592773,-0.2592773,-0.07177734
3571,4.0625,-21.5,208,-1.603027,0.7739258,0.1982422,0.2519531,-0.2705078,-0.07470703
3575,-10.0625,-27.375,219.3125,-1.625977,0.8671875,0.2172852,0.237793,-0.2856445,-0.07470703
3579,-21.8125,-34.75,235,-1.665039,0.7739258,0.2827148,0.222168,-0.3017578,-0.07861328
3583,-19.1875,-36.875,253.75,-1.567871,0.6186523,0.3520508,0.2104492,-0.3144531,-0.08300781
3587,-4.6875,-32.5,270.1875,-1.447754,0.5175781,0.3828125,0.1889648,-0.328125,-0.08447266
3591,6.3125,-28.625,272.5,-1.370117,0.5878906,0.375,0.1665039,-0.3442383,-0.08447266
3595,13.875,-30.3125,273.8125,-1.401367,0.5913086,0.3598633,0.1508789,-0.3530273,-0.08544922
3599,9.875,-26.8125,288.1875,-1.257813,0.7197266,0.3095703,0.1235352,-0.3642578,-0.08544922
3603,-8.6875,-34.5,290.875,-1.319824,0.7314453,0.2060547,0.09619141,-0.3769531,-0.08691406
3607,-26.9375,-42.8125,292.375,-1.191895,0.6577148,0.1943359,0.07861328,-0.3779297,-0.08837891
3611,-42.8125,-49.8125,302,-1.063965,0.5175781,0.1557617,0.04882813,-0.3833008,-0.09082031
3615,-45.4375,-55,284.875,-0.9829102,0.3701172,0.1865234,0.01904297,-0.3857422,-0.09765625
3619,-41.0625,-53.5625,285.625,-0.8237305,0.3310547,0.1865234,-0.0009765625,-0.3842773,-0.09912109
3623,-42.375,-54.75,282.125,-0.8046875,0.3232422,0.1132813,-0.03076172,-0.3818359,-0.1035156
3627,-48.5625,-53.4375,280.625,-0.5488281,0.2265625,0.105957,-0.05908203,-0.3745117,-0.1074219
3631,-42.1875,-47.5625,271.75,-0.4482422,0.04394531,0.144043,-0.07958984,-0.3706055,-0.1088867
3635,-23.9375,-43.0625,252.875,-0.4365234,0.06298828,0.1904297,-0.1044922,-0.3603516,-0.1098633
3639,-29.375,-50.1875,244.5,-0.3510742,0.2416992,0.09033203,-0.1293945,-0.3505859,-0.1113281
3643,-44.25,-58,221.8125,-0.2426758,0.1333008,0.1367188,-0.1450195,-0.3408203,-0.1088867
3647,-43.3125,-61.4375,208.5625,-0.08398438,0.0009765625,0.1904297,-0.1650391,-0.328125,-0.112793
3651,-43.75,-55.75,197.625,0.1445313,0.05908203,0.1826172,-0.1831055,-0.3154297,-0.1098633
3656,-48.5625,-55.3125,184.75,0.2294922,-0.02587891,0.1748047,-0.1972656,-0.3056641,-0.1113281
3660,-48.9375,-60.5,167.9375,0.5048828,-0.2353516,0.1943359,-0.2089844,-0.2929688,-0.1088867
3664,-24.1875,-50.125,146.625,0.8691406,-0.6279297,0.2402344,-0.2236328,-0.2783203,-0.1074219
3668,8.0625,-34.25,101.75,1.349609,-0.9311523,0.2021484,-0.2304688,-0.2729492,-0.1074219
3672,29.625,-12.5625,46.1875,1.43457,-0.8496094,0.1289063,-0.2353516,-0.2670898,-0.1035156
3676,35.25,-4.125,-12.0625,1.260254,-0.7211914,0.125,-0.2402344,-0.265625,-0.1005859
3680,32,-0.3125,-59.8125,1.059082,-0.4960938,0.1635742,-0.2363281,-0.2670898,-0.09912109
3684,29.1875,3.25,-94.75,0.8730469,-0.2861328,0.2368164,-0.2319336,-0.2744141,-0.09765625
3688,33.875,4.5,-123.75,0.6401367,-0.09960938,0.2866211,-0.2255859,-0.2832031,-0.09521484
3692,40.875,4.3125,-142,0.5087891,0.1137695,0.2558594,-0.2197266,-0.2919922,-0.09521484
3696,38.6875,8.875,-150.25,0.5048828,0.3232422,0.1328125,-0.2089844,-0.3017578,-0.09228516
3700,32.1875,13.6875,-157.3125,0.5009766,0.4438477,0.07910156,-0.1972656,-0.3129883,-0.09082031
3704,19.4375,19.625,-168.9375,0.4311523,0.2495117,0.02099609,-0.1875,-0.3193359,-0.08691406
3708,12.25,25.625,-186.5,0.3925781,0.121582,0.04443359,-0.1748047,-0.3305664,-0.08984375
3712,14.8125,29.75,-210.125,0.2490234,0.01660156,0.09814453,-0.1542969,-0.3417969,-0.09082031
3716,22.0625,35.0625,-232,0.1328125,0.04736328,0.1020508,-0.1411133,-0.3491211,-0.08984375
3720,26.0625,46.375,-241.375,-0.04101563,0.1914063,0.09423828,-0.1210938,-0.3603516,-0.09228516
3724,20,56.9375,-241.8125,-0.2426758,0.3310547,0.04785156,-0.09716797,-0.3691406,-0.09228516
3728,17.875,64.125,-241.8125,-0.4633789,0.4052734,0.06738281,-0.08056641,-0.3730469,-0.08837891
3732,12.125,52.6875,-254.8125,-0.6455078,0.4790039,0.05566406,-0.05419922,-0.3803711,-0.09228516
3736,20.8125,52,-266.5,-0.5683594,0.3623047,0.1713867,-0.02832031,-0.3842773,-0.09082031
3740,40.375,69.0625,-258.75,-0.6962891,0.3349609,0.1635742,-0.01171875,-0.3842773,-0.09082031
3744,69.875,85.1875,-245.3125,-0.7929688,0.3271484,0.1748047,0.01757813,-0.3881836,-0.08447266
3748,76.8125,96.6875,-232,-0.9985352,0.6420898,0.001953125,0.04492188,-0.3881836,-0.07617188
3752,32.3125,59.125,-257.4375,-1.397461,1.038574,-0.1206055,0.05810547,-0.3867188,-0.07080078
3756,-22.375,0.3125,-306.1875,-1.15332,0.7314453,0.06347656,0.08544922,-0.3803711,-0.06933594
3760,3.0625,20.9375,-309.875,-1.075684,0.140625,0.3828125,0.1152344,-0.371582,-0.07177734
3764,69,48.375,-266.1875,-1.471191,0.1953125,0.3481445,0.1342773,-0.3642578,-0.06933594
3768,84,55.1875,-232.1875,-1.587402,0.9375,-0.009277344,0.1606445,-0.3530273,-0.05957031
3772,18.25,23.75,-233.75,-1.665039,1.345215,-0.2514648,0.1782227,-0.3408203,-0.05175781
3776,-54.125,-15.5,-261,-1.420898,1.069336,-0.1401367,0.1914063,-0.3305664,-0.05175781
3780,-77,-14.1875,-270.3125,-1.12207,0.4829102,0.1289063,0.2119141,-0.3144531,-0.05566406
3785,-46.5625,18.375,-260.4375,-1.203613,0.1875,0.3095703,0.2319336,-0.296875,-0.06396484
3789,-13.4375,36.75,-244.6875,-1.571777,0.3041992,0.340332,0.2436523,-0.2832031,-0.06396484
3793,0.4375,35.5,-222.125,-1.668457,0.5058594,0.340332,0.2583008,-0.2631836,-0.05957031
3797,-5.625,28.4375,-199.3125,-1.649414,0.6733398,0.3095703,0.2709961,-0.2441406,-0.05859375
3801,-21.3125,20.625,-181.5625,-1.544922,0.7705078,0.3520508,0.2773438,-0.2329102,-0.05419922
3805,-30.25,18.6875,-159.25,-1.521484,0.7080078,0.4711914,0.2841797,-0.2182617,-0.05566406
3809,-31.4375,10,-134.25,-1.62207,0.7197266,0.5097656,0.2915039,-0.2045898,-0.05419922
3813,-31.9375,-4.1875,-110.6875,-1.645508,0.7973633,0.5444336,0.2949219,-0.1967773,-0.05712891
3817,-12.5,-13.875,-81.4375,-1.587402,0.7275391,0.5673828,0.2983398,-0.1855469,-0.05957031
3821,11.75,-5.8125,-36.0625,-1.529297,0.8598633,0.5019531,0.3022461,-0.1791992,-0.05859375
3825,20.0625,-5.3125,7.9375,-1.556152,1.003418,0.3173828,0.3022461,-0.1782227,-0.05859375
3829,14.875,-11.25,39.5,-1.501953,0.9604492,0.2094727,0.3022461,-0.1791992,-0.05957031
3833,14.375,-12.75,62.6875,-1.381836,0.8789063,0.1557617,0.3007813,-0.1845703,-0.05957031
3837,11.125,-12.75,82.6875,-1.381836,0.8598633,0.125,0.2998047,-0.1904297,-0.06103516
3841,2.625,-24.5,89.625,-1.436035,0.8789063,0.1367188,0.2949219,-0.1958008,-0.06103516
3845,3.1875,-31.6875,107.25,-1.479004,0.7548828,0.2060547,0.2924805,-0.2055664,-0.06396484
3849,9.6875,-32.5,136.5625,-1.467285,0.7158203,0.1943359,0.2866211,-0.2128906,-0.06542969
3853,10.6875,-26.625,160.1875,-1.432129,0.7470703,0.2172852,0.2807617,-0.2280273,-0.06933594
3857,4.625,-29.6875,171.6875,-1.541016,0.809082,0.2250977,0.2709961,-0.2382813,-0.06787109
3861,-0.875,-35.625,181.0625,-1.711426,0.777832,0.2675781,0.2666016,-0.2504883,-0.07177734
3865,3.6875,-39.625,206.9375,-1.812012,0.7197266,0.2905273,0.253418,-0.2670898,-0.07324219
3869,3.25,-35.5,242.9375,-1.672363,0.8051758,0.2368164,0.2402344,-0.2832031,-0.07470703
3873,-2.6875,-33.5625,258.9375,-1.641602,0.7041016,0.2094727,0.2285156,-0.296875,-0.07861328
3877,0.375,-31.125,264.6875,-1.447754,0.5683594,0.2983398,0.2104492,-0.3129883,-0.08300781
3881,43.125,-12.375,266.8125,-1.513672,0.315918,0.4868164,0.1865234,-0.3320313,-0.08300781
3885,81.3125,-5.6875,283.5,-1.509766,0.5878906,0.3212891,0.1713867,-0.3417969,-0.07861328
3889,63.125,-16.5625,285.8125,-1.420898,0.9682617,0.105957,0.1474609,-0.3569336,-0.07324219
3893,-2.875,-35.1875,294.0625,-1.327637,1.166504,-0.06298828,0.1210938,-0.3691406,-0.07080078
3897,-69.6875,-56.875,293.125,-1.300781,0.875,-0.112793,0.1020508,-0.3779297,-0.07324219
3901,-103.875,-77.375,285.5625,-1.12207,0.4013672,0.03271484,0.07373047,-0.3833008,-0.08300781
3905,-82.625,-73.0625,282.0625,-0.8935547,-0.03759766,0.2290039,0.04150391,-0.3842773,-0.09375
3909,-36.5625,-44.6875,287.5625,-0.6264648,-0.09570313,0.340332,0.02246094,-0.3867188,-0.09765625
3914,-8.4375,-30.3125,285.1875,-0.7231445,0.1176758,0.2368164,-0.006835938,-0.3857422,-0.1005859
3918,-9.625,-28.3125,272.5,-0.6303711,0.3193359,0.1904297,-0.03417969,-0.3842773,-0.1005859
3922,-22.9375,-33.125,268.375,-0.6030273,0.3232422,0.1132813,-0.05419922,-0.3793945,-0.1005859
3926,-29.125,-39.5625,255.125,-0.4594727,0.1293945,0.140625,-0.08056641,-0.371582,-0.1020508
3930,-7.5625,-41.0625,231,-0.2661133,-0.09179688,0.2211914,-0.1044922,-0.3642578,-0.1035156
3934,33.875,-20.75,223.25,-0.04882813,-0.1230469,0.2944336,-0.1201172,-0.3569336,-0.1005859
3938,60.375,-7.8125,207.8125,-0.09521484,0.1992188,0.1479492,-0.1401367,-0.3491211,-0.09667969
3942,29.125,-15.6875,193.25,-0.05273438,0.5722656,-0.02832031,-0.1582031,-0.3393555,-0.08984375
3946,-36.9375,-44.0625,169.1875,-0.06835938,0.6811523,-0.1552734,-0.1699219,-0.3344727,-0.08691406
3950,-92.8125,-72.0625,155.8125,0.1831055,0.1679688,-0.03613281,-0.1831055,-0.3232422,-0.09082031
3954,-72.8125,-58.375,152.375,0.7255859,-0.5698242,0.2675781,-0.1972656,-0.3120117,-0.09375
3958,-1.625,-21.375,125.625,1.121094,-0.9541016,0.4482422,-0.2055664,-0.3041992,-0.09228516
3962,48.8125,4.625,77,1.198242,-0.6787109,0.3364258,-0.215332,-0.2954102,-0.09228516
3966,49,10.625,25.8125,1.105469,-0.2861328,0.1713867,-0.2172852,-0.2929688,-0.08837891
3970,3.5,-9.875,-18.9375,0.8803711,-0.02978516,0.03662109,-0.21875,-0.2929688,-0.08691406
3974,-41.4375,-20.1875,-46.75,0.9892578,-0.1035156,0.105957,-0.2172852,-0.2954102,-0.08691406
3978,-45.8125,-15.8125,-77.125,0.9501953,-0.3754883,0.2441406,-0.2128906,-0.2983398,-0.08984375
3982,-14.4375,0.125,-108,0.8842773,-0.421875,0.3291016,-0.2089844,-0.3017578,-0.08984375
3986,8.4375,8.0625,-139.875,0.659668,-0.1035156,0.2094727,-0.199707,-0.3095703,-0.09082031
3990,2.375,9.5,-163.25,0.5200195,0.1914063,0.105957,-0.1875,-0.3208008,-0.09082031
3994,-21.625,8.125,-174.25,0.3999023,0.2416992,0.05957031,-0.1791992,-0.3242188,-0.09228516
3998,-37.1875,19.0625,-179.9375,0.4619141,0.09423828,0.09423828,-0.1625977,-0.3354492,-0.09521484
4002,-29.8125,45.8125,-182.5,0.4389648,-0.1308594,0.1713867,-0.1474609,-0.3442383,-0.1005859
4006,3.625,71.9375,-192.1875,0.1987305,-0.2783203,0.2133789,-0.1342773,-0.3491211,-0.1044922
4010,35.5625,82.25,-215.625,0.07470703,-0.1269531,0.1557617,-0.1152344,-0.3579102,-0.105957
4014,46.375,90.4375,-233.9375,-0.1264648,0.09423828,0.07519531,-0.09228516,-0.3666992,-0.105957
4018,43,94.375,-240.5625,-0.3164063,0.2495117,0.04443359,-0.07568359,-0.371582,-0.1044922
4022,37.1875,108.1875,-230.0625,-0.4711914,0.3623047,0.01708984,-0.05078125,-0.3803711,-0.1035156
4026,29.25,119.75,-212.8125,-0.7270508,0.3349609,-0.01660156,-0.02490234,-0.3842773,-0.1005859
4030,27.5,92.9375,-245.9375,-0.9248047,0.284668,0.07128906,-0.0078125,-0.3857422,-0.09912109
4034,49.75,65,-303.3125,-1.037109,0.3232422,0.1098633,0.01904297,-0.3867188,-0.09521484
4038,46.5,60.8125,-310.0625,-1.203613,0.6923828,0.02099609,0.05078125,-0.3857422,-0.09375
4043,-2,61,-271.6875,-1.389648,1.007324,-0.03613281,0.07226563,-0.3818359,-0.08544922
4047,-57.6875,60,-241.1875,-1.277344,0.8325195,0.03271484,0.09863281,-0.3730469,-0.08691406
4051,-30.1875,85.5625,-239.9375,-1.149414,0.05517578,0.4443359,0.1225586,-0.3657227,-0.08984375
4055,62.5625,99.3125,-247,-1.703613,0.08642578,0.4633789,0.1376953,-0.3579102,-0.08984375
4059,87.125,67.625,-253.75,-1.839355,0.9604492,0.144043,0.1630859,-0.3466797,-0.07861328
4063,20.6875,32.9375,-251.125,-1.765625,1.368652,-0.06689453,0.184082,-0.3344727,-0.06787109
4067,-56.75,4.3125,-243.25,-1.467285,1.030762,-0.04394531,0.1987305,-0.3242188,-0.06640625
4071,-88.6875,10.9375,-240.875,-1.060547,0.4985352,0.144043,0.2177734,-0.3081055,-0.07324219
4075,-62.875,42.9375,-239.0625,-1.021484,-0.01806641,0.3979492,0.2319336,-0.2880859,-0.07861328
4079,7.8125,73.5625,-242.5,-1.37793,-0.04882813,0.5634766,0.2451172,-0.2768555,-0.07763672
4083,60,75.4375,-229.375,-1.870117,0.4438477,0.4750977,0.2583008,-0.2568359,-0.06787109
4087,54.5,47.1875,-196.1875,-2.160645,1.01123,0.3520508,0.2724609,-0.2407227,-0.06103516
4091,11.1875,7.5,-155.9375,-2.060059,1.248047,0.2329102,0.2792969,-0.2304688,-0.05712891
4095,-31.6875,-15.6875,-128.625,-1.645508,1.158691,0.1518555,0.2856445,-0.2182617,-0.05859375
4099,-52.5625,-17.3125,-111.75,-1.374023,0.9453125,0.2250977,0.2900391,-0.2055664,-0.05957031
4103,-34.375,-4.875,-88.5625,-1.315918,0.7353516,0.409668,0.2939453,-0.1992188,-0.06396484
4107,3.625,8.25,-47.8125,-1.541016,0.7001953,0.5175781,0.2983398,-0.1943359,-0.06396484
4111,35.3125,5.125,-3.9375,-1.668457,0.840332,0.5058594,0.2983398,-0.1879883,-0.06396484
4115,52.8125,-6.75,31.4375,-1.62207,0.9492188,0.3789063,0.2973633,-0.1894531,-0.06103516
4119,59.9375,-12.4375,62.875,-1.509766,0.9916992,0.2597656,0.2973633,-0.1943359,-0.05957031
4123,59,-9.6875,93.75,-1.37793,1.069336,0.1479492,0.2924805,-0.203125,-0.05566406
4127,41.5625,-5.625,119.6875,-1.381836,1.143066,0.07128906,0.2900391,-0.2080078,-0.05712891
4131,14.375,-12.8125,133.875,-1.517578,1.09668,0.1098633,0.2832031,-0.2207031,-0.05712891
4135,2.0625,-30.125,142.25,-1.62207,0.921875,0.1904297,0.2783203,-0.2319336,-0.05712891
4139,5.875,-43.3125,156.75,-1.695801,0.7626953,0.2944336,0.2724609,-0.2407227,-0.06103516
4143,18.5,-49.1875,180.25,-1.684082,0.7041016,0.2983398,0.2641602,-0.2543945,-0.0625
4147,28.75,-38.375,218.5625,-1.62207,0.7509766,0.2402344,0.2519531,-0.2695313,-0.06396484
4151,26.875,-28.9375,247.3125,-1.65332,0.8325195,0.1865234,0.2426758,-0.2832031,-0.06542969
4155,14.8125,-36.1875,258.125,-1.738281,0.8945313,0.09033203,0.2246094,-0.3017578,-0.06542969
4159,-8.4375,-56.5625,254.75,-1.687988,0.8789063,0.07128906,0.2055664,-0.3178711,-0.06933594
4163,-14.0625,-56.75,263.125,-1.529297,0.6655273,0.1787109,0.1928711,-0.3305664,-0.07177734
4167,-6.25,-46.625,287.25,-1.436035,0.5292969,0.2368164,0.1699219,-0.3457031,-0.07470703
4172,3.25,-36.6875,299.8125,-1.277344,0.5410156,0.2329102,0.1416016,-0.359375,-0.07763672
4176,6.375,-30.875,300.1875,-1.28125,0.6303711,0.1557617,0.1225586,-0.3691406,-0.07763672
4180,-13.875,-35.375,304.9375,-1.219238,0.7119141,0.04443359,0.09375,-0.3779297,-0.08007813
4184,-29.9375,-41.625,294.6875,-1.075684,0.5058594,0.1020508,0.06298828,-0.3842773,-0.08300781
4188,-8.8125,-28.875,288.5,-0.746582,0.21875,0.2402344,0.04394531,-0.3867188,-0.08447266
4192,27.5625,6.375,298.625,-0.699707,0.1445313,0.2905273,0.01513672,-0.3867188,-0.08447266
4196,50.875,21.4375,301.6875,-0.7695313,0.3466797,0.1787109,-0.01513672,-0.3891602,-0.07861328
4200,30.3125,9.8125,284.375,-0.6923828,0.6342773,0.01367188,-0.03417969,-0.3867188,-0.07470703
4204,-19.75,-8.25,262.0625,-0.7504883,0.6616211,-0.04003906,-0.06152344,-0.3803711,-0.07470703
4208,-53.8125,-31.375,255.1875,-0.6376953,0.3232422,0.05957031,-0.08886719,-0.3745117,-0.07763672
4212,-59.8125,-39.5,253,-0.4868164,0.1020508,0.07128906,-0.1054688,-0.3691406,-0.08154297
4216,-58.75,-42.3125,246.9375,-0.1806641,0.01660156,0.07519531,-0.1293945,-0.3579102,-0.08007813
4220,-57.375,-36.875,232.625,-0.01416016,-0.02197266,0.04443359,-0.1518555,-0.3442383,-0.08544922
4224,-55.3125,-40.0625,203.3125,0.1484375,-0.1113281,0.06347656,-0.1650391,-0.3369141,-0.08691406
4228,-52.375,-37.375,177.8125,0.3305664,-0.1420898,0.05175781,-0.184082,-0.3232422,-0.09082031
4232,-55.75,-28.375,159.625,0.4853516,-0.2084961,0.08251953,-0.1972656,-0.3105469,-0.09228516
4236,-55.125,-22.6875,133.5625,0.6713867,-0.3754883,0.1367188,-0.2055664,-0.3041992,-0.09082031
4240,-46.3125,-17.125,91.625,0.8457031,-0.3793945,0.2133789,-0.2172852,-0.2954102,-0.09521484
4244,-34.875,-9.5625,47.25,1.000488,-1.008789,0.2172852,-0.2211914,-0.2880859,-0.09765625
4248,-9.5,0.8125,-3,1.113281,-0.6513672,0.3056641,-0.222168,-0.2856445,-0.09912109
4252,21.375,8.875,-46.625,1.004395,-0.6240234,0.3364258,-0.2211914,-0.2866211,-0.09765625
4256,41.1875,10.75,-87.8125,0.8730469,-0.3520508,0.2866211,-0.215332,-0.2905273,-0.09667969
4260,49.5625,5.9375,-123.625,0.7177734,-0.1191406,0.2519531,-0.2104492,-0.2954102,-0.09375
4264,54.1875,6.125,-147.6875,0.6171875,0.07470703,0.2133789,-0.2006836,-0.3056641,-0.09375
4268,52.8125,7.5625,-159.4375,0.4775391,0.2495117,0.1713867,-0.1899414,-0.3178711,-0.08984375
4272,42.625,4.9375,-167.5,0.3613281,0.3081055,0.05566406,-0.1816406,-0.3266602,-0.08544922
4276,27.875,3.625,-185.1875,0.3227539,0.3544922,0.09423828,-0.1665039,-0.3354492,-0.08447266
4280,23.3125,5.3125,-200.1875,0.2993164,0.2651367,0.1289063,-0.1494141,-0.3457031,-0.08447266
4284,26.9375,11.125,-213.125,0.206543,0.2573242,0.1210938,-0.1367188,-0.3544922,-0.08007813
4288,21.1875,14.25,-228.4375,0.09375,0.3623047,0.06347656,-0.1162109,-0.3642578,-0.08154297
4292,2.125,15.4375,-239.8125,0.02441406,0.4086914,0.04443359,-0.09472656,-0.371582,-0.08007813
4296,-4.75,26.8125,-243.875,-0.06445313,0.269043,0.1367188,-0.078125,-0.3793945,-0.08154297
4301,11.8125,51,-234.3125,-0.1533203,0.1875,0.2060547,-0.05419922,-0.3833008,-0.08154297
4305,42.0625,76.5,-228.5,-0.4052734,0.1992188,0.2709961,-0.03076172,-0.3867188,-0.07861328
4309,66.625,75.75,-239.6875,-0.8164063,0.4477539,0.1518555,-0.01269531,-0.3881836,-0.07617188
4313,60,54.9375,-250.5,-0.9248047,0.7705078,0.06738281,0.01171875,-0.3916016,-0.07177734
4317,39.25,44.875,-247.0625,-0.9555664,0.8168945,0.04785156,0.0390625,-0.390625,-0.06542969
4321,33.125,51.25,-233.5,-0.8818359,0.6772461,0.125,0.05566406,-0.3881836,-0.0625
4325,44,68.1875,-217.4375,-0.8935547,0.6616211,0.07910156,0.07958984,-0.3842773,-0.05859375
4329,35.375,73.25,-219.1875,-1.009766,0.8632813,-0.009277344,0.09960938,-0.3779297,-0.05419922
4333,-8.8125,31.6875,-252.9375,-1.257813,1.049805,-0.1708984,0.1152344,-0.3745117,-0.05029297
4337,-75.1875,-13.8125,-279.25,-1.133789,0.987793,-0.1245117,0.1401367,-0.3642578,-0.05419922
4341,-132.25,-38.75,-293.3125,-0.8857422,0.6845703,-0.03222656,0.1650391,-0.3491211,-0.06103516
4345,-141.625,-23.625,-289.875,-0.699707,0.08642578,0.140625,0.1806641,-0.3369141,-0.07177734
4349,-95.9375,22.6875,-273.3125,-0.6342773,-0.484375,0.3598633,0.203125,-0.3154297,-0.08447266
4353,5,102.25,-255.125,-0.8510742,-0.6240234,0.4599609,0.2236328,-0.2993164,-0.08447266
4357,75.5,143.4375,-230,-1.45166,-0.09179688,0.2060547,0.237793,-0.2856445,-0.07617188
4361,74.6875,123.6875,-220.25,-1.901367,0.4750977,0.02490234,0.253418,-0.2705078,-0.05957031
4365,24.6875,61.0625,-210.875,-2.156738,0.7470703,-0.109375,0.2651367,-0.2519531,-0.04736328
4369,-31,-1.625,-207.25,-1.885742,0.6186523,-0.009277344,0.2749023,-0.2416992,-0.04638672
4373,-42.3125,-14,-202.875,-1.463379,0.2338867,0.1479492,0.2832031,-0.2216797,-0.04736328
4377,-5.75,19.25,-184.5,-1.308105,-0.02587891,0.3291016,0.2924805,-0.2055664,-0.05029297
4381,45.5,61.6875,-155.6875,-1.479004,0.171875,0.3330078,0.2963867,-0.1933594,-0.04492188
4385,65.3125,78.1875,-122.6875,-1.761719,0.5488281,0.2597656,0.3046875,-0.1806641,-0.03955078
4389,52.8125,57.625,-90.5,-1.943848,0.7973633,0.1982422,0.3071289,-0.1694336,-0.03125
4393,23.5,21.875,-60.625,-1.905273,0.9375,0.1787109,0.3081055,-0.1630859,-0.02441406
4397,0.5,-7.8125,-45.6875,-1.765625,0.8867188,0.2094727,0.3081055,-0.1582031,-0.02294922
4401,-2.5625,-20.5,-23.125,-1.633789,0.7353516,0.2329102,0.3115234,-0.1533203,-0.02441406
4405,4.5625,-13.5625,12.6875,-1.498047,0.7001953,0.2021484,0.3115234,-0.1533203,-0.02587891
4409,12.0625,-5.5625,48.125,-1.513672,0.6538086,0.1289063,0.3115234,-0.1567383,-0.02832031
4413,17.3125,-4.9375,78.5,-1.57959,0.5878906,0.09423828,0.3081055,-0.1606445,-0.02978516
4417,24.375,-15,104.25,-1.62207,0.6225586,0.07128906,0.309082,-0.1655273,-0.02734375
4421,23.125,-25.9375,116.1875,-1.637695,0.7119141,0.01708984,0.3056641,-0.1782227,-0.02978516
4425,11.8125,-41.125,126.75,-1.70752,0.7973633,-0.04394531,0.3007813,-0.1904297,-0.02978516
4430,-9.3125,-53.25,153.5625,-1.742188,0.824707,-0.04394531,0.2963867,-0.1992188,-0.03515625
4434,-25.25,-64.6875,184.1875,-1.769531,0.6772461,0.009765625,0.2890625,-0.2128906,-0.04199219
4438,-30.3125,-62.9375,206.875,-1.629883,0.5952148,0.07519531,0.2807617,-0.2319336,-0.04736328
4442,-28.25,-63.375,214.0625,-1.695801,0.5332031,0.1098633,0.2734375,-0.2431641,-0.05273438
4446,-23.9375,-64.25,220.4375,-1.65332,0.5332031,0.1557617,0.2617188,-0.2607422,-0.05957031
4450,-14.6875,-55.6875,240.375,-1.765625,0.4672852,0.1943359,0.2460938,-0.2783203,-0.06396484
4454,-4.8125,-62.0625,263.3125,-1.79248,0.4750977,0.159668,0.234375,-0.2905273,-0.06787109
4458,0.625,-56.3125,280.8125,-1.571777,0.5097656,0.2021484,0.215332,-0.3105469,-0.07470703
4462,-0.625,-45.5625,294.5,-1.552246,0.6108398,0.159668,0.1914063,-0.328125,-0.07470703
4466,-20.125,-50.25,300.5,-1.560059,0.7001953,0.1020508,0.1748047,-0.3393555,-0.07861328
4470,-44.375,-62.625,304.125,-1.463379,0.6264648,0.09033203,0.1474609,-0.3544922,-0.08300781
4474,-61.4375,-73.1875,306.25,-1.393555,0.4438477,0.140625,0.1201172,-0.3657227,-0.08984375
4478,-59.75,-84.3125,302.75,-1.223145,0.2495117,0.2060547,0.09863281,-0.3706055,-0.09667969
4482,-45.5,-70.5625,312.3125,-1.021484,0.203125,0.2441406,0.06787109,-0.3779297,-0.105957
4486,-43.5625,-63.1875,323.4375,-0.9208984,0.2768555,0.1635742,0.03564453,-0.3833008,-0.1088867
4490,-53.375,-65.3125,313.9375,-0.8237305,0.253418,0.140625,0.01171875,-0.3818359,-0.1098633
4494,-53.1875,-65.875,297.625,-0.6303711,0.1137695,0.2021484,-0.01855469,-0.3803711,-0.1157227
4498,-47.25,-66,282.5625,-0.5991211,0.105957,0.159668,-0.05078125,-0.3754883,-0.1210938
4502,-41,-66.25,272.6875,-0.5214844,0.04736328,0.1826172,-0.06884766,-0.3691406,-0.1225586
4506,-30.3125,-63,268.6875,-0.3085938,-0.03369141,0.1826172,-0.09619141,-0.359375,-0.1235352
4510,-20.9375,-53.8125,264.625,-0.1499023,0.008789063,0.09423828,-0.1210938,-0.3491211,-0.1235352
4514,-25.5,-50.375,245.75,-0.03320313,0.04394531,0.02880859,-0.1391602,-0.3408203,-0.125
4518,-53.3125,-60.625,222.4375,0.159668,0.1445313,-0.112793,-0.1616211,-0.3256836,-0.1225586
4522,-85.6875,-75.4375,176.1875,0.3613281,-0.04541016,-0.1245117,-0.1806641,-0.3144531,-0.1235352
4526,-97.625,-74.625,137,0.7529297,-0.4335938,-0.04003906,-0.1899414,-0.3032227,-0.1264648
4530,-73.375,-50.625,109.4375,0.9775391,-0.8378906,0.09423828,-0.2021484,-0.2919922,-0.1289063
4534,-24.25,-13.5625,85.4375,1.19043,-0.9389648,0.1982422,-0.2104492,-0.2841797,-0.1289063
4538,12.5625,17.5,47.5625,1.186523,-0.7329102,0.1826172,-0.215332,-0.2807617,-0.1289063
4542,25,24.625,-2.375,0.9736328,-0.4804688,0.159668,-0.215332,-0.2783203,-0.1289063
4546,22.875,18.25,-48,0.8339844,-0.3017578,0.1865234,-0.2138672,-0.2807617,-0.1279297
4550,23.125,16.375,-83.6875,0.7954102,-0.1733398,0.2519531,-0.2114258,-0.2841797,-0.1279297
4554,27.625,21.3125,-112.5,0.6982422,-0.04541016,0.2983398,-0.2021484,-0.2905273,-0.1289063
4559,41.3125,27.25,-131.0625,0.5356445,0.06298828,0.3251953,-0.1938477,-0.3007813,-0.1279297
4563,47.875,31.625,-137.25,0.4541016,0.2963867,0.2402344,-0.1855469,-0.3066406,-0.1264648
4567,39.375,30.9375,-143.0625,0.3032227,0.3974609,0.105957,-0.1772461,-0.3168945,-0.125
4571,23.125,29.25,-164.6875,0.3227539,0.4165039,0.2094727,-0.1640625,-0.3266602,-0.125
4575,24.125,33.1875,-175.6875,0.2138672,0.3583984,0.2636719,-0.1508789,-0.3330078,-0.1235352
4579,25.25,37.25,-178.8125,0.1445313,0.4399414,0.2402344,-0.1342773,-0.3442383,-0.125
4583,15.75,40.75,-180.75,0.1015625,0.4985352,0.1787109,-0.1176758,-0.3505859,-0.1235352
4587,-0.625,44.875,-181.625,0.07470703,0.4868164,0.144043,-0.1054688,-0.3554688,-0.125
4591,-1.125,60.5625,-175.6875,0.09033203,0.3310547,0.2329102,-0.08642578,-0.3632813,-0.1264648
4595,19.875,88.625,-169.125,-0.02587891,0.2456055,0.2866211,-0.06738281,-0.3666992,-0.1289063
4599,40.125,82,-189.375,-0.4091797,0.3818359,0.2094727,-0.05566406,-0.3706055,-0.1303711
4603,38.3125,63.5625,-218,-0.4790039,0.6499023,0.1943359,-0.03417969,-0.3745117,-0.1264648
4607,16.3125,54.0625,-219.3125,-0.6342773,0.8168945,0.1713867,-0.01171875,-0.3793945,-0.1235352
4611,-6.75,51.125,-199.4375,-0.5874023,0.7158203,0.2133789,0.004394531,-0.3803711,-0.1235352
4615,13,79.75,-177.5,-0.3935547,0.3349609,0.3671875,0.02587891,-0.3779297,-0.1235352
4619,50.6875,109.0625,-161.75,-0.6611328,0.3662109,0.2675781,0.04394531,-0.3779297,-0.1210938
4623,45,70.25,-204.875,-0.8857422,0.777832,0.03271484,0.05810547,-0.3779297,-0.1142578
4627,0.8125,37.25,-246.6875,-0.8198242,0.8012695,0.02099609,0.07958984,-0.3730469,-0.1098633
4631,-42.75,25.4375,-253.25,-0.8393555,0.6577148,0.07128906,0.1035156,-0.3657227,-0.1113281
4635,-50.3125,44.75,-236.6875,-0.699707,0.1835938,0.3173828,0.1201172,-0.359375,-0.1142578
4639,1.625,86.375,-211.25,-0.8393555,-0.08398438,0.375,0.1425781,-0.3481445,-0.1157227
4643,54.875,117.8125,-196.25,-1.029297,0.05908203,0.3095703,0.1616211,-0.3417969,-0.1098633
4647,80.3125,123,-199.4375,-1.447754,0.4672852,0.1098633,0.1772461,-0.3330078,-0.1020508
4651,50.5,85.625,-218.125,-1.711426,0.8828125,-0.05517578,0.1914063,-0.3242188,-0.08984375
4655,-8.0625,43.375,-233.75,-1.614258,0.8325195,-0.03222656,0.2119141,-0.3095703,-0.08300781
4659,-41.0625,31.75,-226.5625,-1.420898,0.4946289,0.07128906,0.2246094,-0.2983398,-0.08154297
4663,-28,50.875,-208.625,-1.23877,0.06298828,0.2558594,0.2402344,-0.2807617,-0.08154297
4667,16.5,89.6875,-185.5625,-1.335449,-0.03759766,0.355957,0.2543945,-0.2641602,-0.07763672
4671,59.625,108.5625,-160.0625,-1.730469,0.2651367,0.2441406,0.2592773,-0.2543945,-0.06933594
4675,56.625,82.1875,-144.75,-2.129883,0.890625,0.08251953,0.2700195,-0.2441406,-0.05566406
4679,27.5,29.6875,-142.875,-2.083496,1.073242,0.07128906,0.2773438,-0.2319336,-0.05175781
4683,7.1875,13.875,-115.1875,-1.695801,1.019043,0.2021484,0.2832031,-0.2231445,-0.04882813
4688,-1.875,21.9375,-79.125,-1.475098,1.108398,0.2441406,0.2890625,-0.2167969,-0.04638672
4692,-19.0625,16.875,-50.8125,-1.48291,1.221191,0.3173828,0.2915039,-0.2094727,-0.04638672
4696,-33.625,7.5625,-21.375,-1.447754,1.154785,0.4868164,0.2900391,-0.2070313,-0.04638672
4700,-34.625,0.25,9.75,-1.331543,1.049805,0.5288086,0.2924805,-0.203125,-0.04638672
4704,-29.8125,-6.875,34.5625,-1.339355,0.9296875,0.4404297,0.2900391,-0.2070313,-0.04736328
4708,-20.0625,-15.0625,59.6875,-1.308105,0.7314453,0.3056641,0.2915039,-0.2104492,-0.04882813
4712,-2.9375,-21,73.875,-1.203613,0.5722656,0.2250977,0.2866211,-0.2143555,-0.05029297
4716,15.5625,-22.5,76.0625,-1.137695,0.5058594,0.1674805,0.2856445,-0.2216797,-0.05273438
4720,29.25,-21.6875,76.3125,-1.165039,0.5878906,0.1132813,0.2792969,-0.2255859,-0.05273438
4724,29.1875,-24.25,86.0625,-1.289063,0.6962891,0.03271484,0.2773438,-0.2319336,-0.05419922
4728,13.75,-29.0625,106.6875,-1.362793,0.809082,-0.01318359,0.2724609,-0.2392578,-0.05419922
4732,-9.1875,-29.6875,129,-1.327637,0.8789063,0.01367188,0.269043,-0.2495117,-0.05566406
4736,-23.125,-31.4375,143,-1.447754,0.7470703,0.09033203,0.2617188,-0.2583008,-0.06103516
4740,-18.625,-38.8125,155.1875,-1.533203,0.6381836,0.1674805,0.253418,-0.2705078,-0.06396484
4744,-11,-45.625,170.3125,-1.556152,0.6538086,0.2021484,0.2451172,-0.2783203,-0.06640625
4748,-12.3125,-50.4375,185.875,-1.455566,0.7548828,0.144043,0.2329102,-0.2919922,-0.07177734
4752,-29.375,-47.25,199.4375,-1.374023,0.8710938,0.1132813,0.2177734,-0.3066406,-0.07470703
4756,-40.75,-43.125,217.0625,-1.335449,0.7509766,0.1289063,0.2094727,-0.3144531,-0.08154297
4760,-38.4375,-41.8125,222.6875,-1.381836,0.6420898,0.2060547,0.1889648,-0.328125,-0.08691406
4764,-32.875,-51.9375,225.0625,-1.37793,0.6694336,0.2329102,0.1713867,-0.3393555,-0.09228516
4768,-29.125,-53.0625,233.0625,-1.296875,0.6420898,0.2636719,0.1582031,-0.3481445,-0.09521484
4772,-18.6875,-54.0625,238.0625,-1.230957,0.5800781,0.3212891,0.1357422,-0.3579102,-0.1005859
4776,-4.875,-52,249.625,-1.106934,0.5566406,0.3251953,0.1118164,-0.3681641,-0.1020508
4780,13.375,-41.8125,254.1875,-1.07959,0.5527344,0.3291016,0.09765625,-0.371582,-0.1035156
4784,30.875,-33.8125,258.5625,-1.056641,0.6694336,0.3056641,0.07128906,-0.3793945,-0.1005859
4788,47.5,-28.5,272.8125,-1.091309,0.6538086,0.2558594,0.04492188,-0.3833008,-0.09912109
4792,71.3125,-18.5625,276.5625,-1.025391,0.7001953,0.2597656,0.02587891,-0.3842773,-0.09765625
4796,91.375,-3.1875,301.3125,-0.9365234,0.7314453,0.2060547,-0.001953125,-0.3867188,-0.08837891
4800,79.5625,8.3125,322.75,-0.746582,1.069336,-0.05126953,-0.03320313,-0.3867188,-0.08007813
4804,12.5,4.5,322.6875,-0.730957,1.197754,-0.2705078,-0.05419922,-0.3857422,-0.07617188
4808,-70.25,-24.875,308.1875,-0.6728516,0.875,-0.2978516,-0.08642578,-0.3754883,-0.07617188
4812,-114.25,-36.4375,290.9375,-0.3203125,0.2416992,-0.09765625,-0.1162109,-0.3618164,-0.08300781
4817,-110.5625,-35.3125,276.6875,-0.2192383,-0.2744141,0.04785156,-0.1342773,-0.3544922,-0.08691406
4821,-83.5,-24.4375,261.5625,0.1054688,-0.46875,0.1943359,-0.1567383,-0.3378906,-0.09375
4825,-57.3125,-8.8125,241.25,0.3032227,-0.4921875,0.2133789,-0.1806641,-0.3232422,-0.1005859
4829,-44.875,-0.5,208.25,0.3999023,-0.4414063,0.159668,-0.1923828,-0.3120117,-0.1020508
4833,-48.375,-9.0625,159.25,0.4580078,-0.3676758,0.1289063,-0.2080078,-0.2983398,-0.1044922
4837,-56.625,-12.875,114.3125,0.609375,-0.421875,0.1787109,-0.2197266,-0.2866211,-0.1074219
4841,-48.75,-10.875,79.125,0.6791992,-0.5385742,0.2558594,-0.2236328,-0.2783203,-0.1098633
4845,-35.0625,-7,38.75,0.7797852,-0.5151367,0.2709961,-0.2280273,-0.2729492,-0.112793
4849,-18.0625,-3,0.8125,0.7373047,-0.5737305,0.2749023,-0.2304688,-0.2729492,-0.112793
4853,5.1875,2.6875,-30.8125,0.7177734,-0.4179688,0.3671875,-0.2294922,-0.2719727,-0.112793
4857,21.875,1.125,-61.5,0.659668,-0.1772461,0.3056641,-0.2270508,-0.2744141,-0.112793
4861,28,-0.3125,-91.125,0.6210938,-0.002441406,0.2905273,-0.2211914,-0.2792969,-0.1113281
4865,31.6875,-1.375,-114.8125,0.5161133,0.1445313,0.2709961,-0.2172852,-0.2856445,-0.1098633
4869,31.9375,-1.6875,-127.5625,0.4233398,0.300293,0.2519531,-0.2080078,-0.2954102,-0.1088867
4873,27.9375,-1.9375,-133.0625,0.4814453,0.6962891,0.1748047,-0.199707,-0.3056641,-0.105957
4877,15.0625,-0.3125,-145.6875,0.3847656,0.4399414,0.1787109,-0.1938477,-0.3105469,-0.1035156
4881,8.375,-4.3125,-165.1875,0.3378906,0.3701172,0.2250977,-0.1806641,-0.3232422,-0.1044922
4885,13.3125,0.9375,-178.1875,0.3188477,0.3081055,0.2709961,-0.1650391,-0.3305664,-0.1044922
4889,20.4375,9.8125,-185.125,0.2373047,0.3427734,0.2402344,-0.1567383,-0.3378906,-0.1035156
4893,18.4375,17.0625,-191.0625,0.1367188,0.4282227,0.1826172,-0.1391602,-0.3466797,-0.1020508
4897,17,22.875,-191.9375,0.04736328,0.4165039,0.1787109,-0.1210938,-0.3569336,-0.1020508
4901,20.4375,35.25,-193.125,0.008789063,0.4360352,0.1826172,-0.1079102,-0.3632813,-0.1020508
4905,23.8125,36.5625,-201.875,-0.2080078,0.4790039,0.1557617,-0.09033203,-0.3691406,-0.1005859
4909,20.5,24.0625,-222.0625,-0.3320313,0.5952148,0.105957,-0.06884766,-0.3745117,-0.09912109
4913,9.875,23.75,-226.75,-0.3046875,0.5952148,0.1367188,-0.05419922,-0.3793945,-0.09912109
4917,11.3125,40.3125,-211.25,-0.4130859,0.5527344,0.1367188,-0.03173828,-0.3833008,-0.09912109
4921,40,67.875,-191.6875,-0.3901367,0.2651367,0.3017578,-0.009277344,-0.3857422,-0.09912109
4925,102.9375,97.4375,-170.625,-0.8046875,0.4165039,0.2133789,0.002441406,-0.3881836,-0.09375
4929,104.375,76.4375,-177.8125,-1.125977,1.178223,-0.112793,0.02246094,-0.3881836,-0.08300781
4933,32.375,20.9375,-215.6875,-1.12207,1.547363,-0.2592773,0.04248047,-0.3881836,-0.07470703
4937,-50.3125,-7,-234.0625,-0.8393555,1.275391,-0.1401367,0.05810547,-0.3881836,-0.07470703
4941,-88.3125,-2.0625,-228.9375,-0.6416016,0.6923828,0.06738281,0.08203125,-0.3803711,-0.08154297
4946,-62.25,24.125,-220.0625,-0.6264648,0.07470703,0.2749023,0.1010742,-0.371582,-0.08837891
4950,22.375,63.625,-214.5,-0.746582,-0.2626953,0.4907227,0.1176758,-0.3666992,-0.09082031
4954,107.5,72,-224.3125,-1.424316,0.3271484,0.2709961,0.1376953,-0.3618164,-0.08300781
4958,96.3125,34.25,-240.125,-1.57959,1.166504,-0.01660156,0.1591797,-0.3505859,-0.07080078
4962,16.4375,0.125,-235.875,-1.463379,1.426758,-0.1054688,0.1723633,-0.3432617,-0.06640625
4966,-50.1875,-15.5625,-215.5625,-1.215332,0.9453125,0.01708984,0.1904297,-0.3305664,-0.06787109
4970,-61,-5.9375,-211.5625,-0.9326172,0.4243164,0.1904297,0.2080078,-0.3129883,-0.07080078
4974,-29.5625,5.75,-226,-1.11084,0.1176758,0.3291016,0.2177734,-0.3041992,-0.07617188
4978,15,12.0625,-236.5625,-1.32373,0.2885742,0.4213867,0.2329102,-0.2895508,-0.07617188
4982,38.75,15.25,-215.9375,-1.633789,0.6694336,0.4057617,0.2485352,-0.2744141,-0.07080078
4986,29.125,6.8125,-172.75,-1.78125,0.9799805,0.340332,0.2583008,-0.2592773,-0.07177734
4990,-1.4375,-2.25,-126,-1.571777,1.174316,0.2441406,0.2666016,-0.2480469,-0.06787109
4994,-36.875,-4.8125,-103.875,-1.347168,1.131836,0.2094727,0.2724609,-0.2382813,-0.06933594
4998,-46.4375,-5.5625,-92.5,-1.351074,0.8945313,0.375,0.2758789,-0.2319336,-0.07080078
5002,-23.9375,0.0625,-66.5,-1.424316,0.7666016,0.5483398,0.2807617,-0.2216797,-0.07470703
5006,5.75,0.9375,-26.375,-1.575684,0.7856445,0.590332,0.2817383,-0.2192383,-0.07470703
5010,28.0625,-4.5625,12.5625,-1.505859,0.890625,0.4790039,0.2817383,-0.2207031,-0.07324219
5014,37.625,-4.625,46.5,-1.351074,0.9760742,0.3056641,0.2817383,-0.2207031,-0.07177734
5018,31.6875,-5.875,66.25,-1.300781,1.053711,0.1479492,0.2807617,-0.2270508,-0.07177734
5022,22.6875,-8.5,82.8125,-1.339355,0.9760742,0.1367188,0.2773438,-0.2304688,-0.06933594
5026,22.1875,-10.75,104.3125,-1.389648,0.9257813,0.1713867,0.2734375,-0.2392578,-0.06933594
5030,27.5,-10.9375,126.3125,-1.443848,0.8828125,0.2021484,0.2651367,-0.2480469,-0.06933594
5034,32.875,-9.0625,152.875,-1.467285,0.9296875,0.1713867,0.2592773,-0.2568359,-0.06933594
5038,28.625,-9.8125,173.5,-1.533203,0.9838867,0.125,0.2509766,-0.2705078,-0.06933594
5042,17.4375,-13.6875,192.625,-1.556152,1.061523,0.05566406,0.2392578,-0.2841797,-0.06787109
5046,1.875,-17.375,213.6875,-1.571777,1.01123,0.06738281,0.2319336,-0.2929688,-0.06787109
5050,-11.625,-20.6875,230.4375,-1.490234,0.9375,0.07128906,0.2163086,-0.3081055,-0.07080078
5054,-14.0625,-21.6875,241.875,-1.475098,0.7705078,0.1289063,0.1972656,-0.3242188,-0.07177734
5058,-12.1875,-16.6875,255.5625,-1.289063,0.6962891,0.1713867,0.184082,-0.3330078,-0.07324219
5062,-9.75,-10,262.9375,-1.257813,0.7041016,0.1518555,0.1616211,-0.3466797,-0.07470703
5066,-21.375,-16.5,259.8125,-1.187988,0.7666016,0.1171875,0.1391602,-0.3603516,-0.07763672
5070,-34.875,-19.8125,256.5,-1.15332,0.7548828,0.140625,0.1235352,-0.3681641,-0.07763672
5075,-39,-22.625,262.6875,-1.106934,0.6342773,0.1865234,0.09765625,-0.3754883,-0.08154297
5079,-44.5,-25.625,261.4375,-1.021484,0.6577148,0.1557617,0.07226563,-0.3833008,-0.08837891
5083,-52.375,-31.25,257.5,-0.9438477,0.6069336,0.1787109,0.05810547,-0.3833008,-0.09082031
5087,-54.875,-33.875,259.875,-0.9438477,0.5644531,0.1865234,0.03076172,-0.3857422,-0.09765625
5091,-62.0625,-39.6875,260.625,-0.8510742,0.5683594,0.1826172,0.002441406,-0.3842773,-0.1020508
5095,-68,-50.1875,249.875,-0.7578125,0.4750977,0.2021484,-0.01513672,-0.3842773,-0.105957
5099,-61.9375,-50.6875,248.375,-0.6030273,0.3081055,0.2519531,-0.04150391,-0.3779297,-0.1113281
5103,-47.875,-43.625,249.125,-0.4633789,0.269043,0.2636719,-0.06494141,-0.371582,-0.1166992
5107,-34.6875,-41.3125,239.5,-0.4248047,0.253418,0.2329102,-0.08300781,-0.3666992,-0.1181641
5111,-31.375,-41.4375,223.1875,-0.296875,0.3701172,0.2290039,-0.1044922,-0.3569336,-0.1196289
5115,-34.75,-47.875,213,-0.3745117,0.3818359,0.1826172,-0.1259766,-0.3481445,-0.1210938
5119,-39.625,-52.8125,205.5,-0.1459961,0.3081055,0.2094727,-0.1401367,-0.3417969,-0.1210938
5123,-39.375,-52.0625,195.25,0.05908203,0.1679688,0.1982422,-0.1591797,-0.3291016,-0.1225586
5127,-42.6875,-48.4375,182.5625,0.1948242,0.1137695,0.1713867,-0.1757813,-0.3168945,-0.1225586
5131,-45,-46.9375,158.25,0.3457031,-0.002441406,0.2060547,-0.1865234,-0.3105469,-0.1210938
5135,-38,-48.6875,136.125,0.5200195,-0.1772461,0.2133789,-0.199707,-0.296875,-0.1210938
5139,-26.3125,-35.625,114.1875,0.7255859,-0.2626953,0.2519531,-0.2114258,-0.2895508,-0.1196289
5143,-18.75,-30.25,90.125,0.7993164,-0.2470703,0.1943359,-0.2172852,-0.2832031,-0.1210938
5147,-17.9375,-23.1875,57.75,0.9194336,-0.2587891,0.1865234,-0.2236328,-0.2753906,-0.1210938
5151,-19.375,-16.8125,25.4375,0.9423828,-0.2783203,0.2250977,-0.2255859,-0.2719727,-0.1181641
5155,-16.5625,-15.25,-7.75,0.9389648,-0.3325195,0.2636719,-0.2294922,-0.2705078,-0.1196289
5159,-6.5625,-9.9375,-45.625,0.8999023,-0.324707,0.340332,-0.2270508,-0.2705078,-0.1196289
5163,10.8125,-10.1875,-81.3125,0.7875977,-0.2392578,0.409668,-0.2246094,-0.2783203,-0.1181641
5167,34.125,-3.75,-109.125,0.6518555,-0.08398438,0.4672852,-0.21875,-0.2807617,-0.1157227
5171,53.6875,0,-124.0625,0.4697266,0.2109375,0.390625,-0.2104492,-0.2895508,-0.1166992
5175,49.3125,-1.5625,-129.75,0.3574219,0.5253906,0.2480469,-0.2021484,-0.3007813,-0.1098633
5179,23.375,-9.875,-135.25,0.3227539,0.6772461,0.1210938,-0.1938477,-0.3066406,-0.1088867
5183,-8.5625,-17.625,-148.3125,0.3613281,0.6225586,0.1020508,-0.1855469,-0.3168945,-0.105957
5187,-24.75,-17.8125,-159.8125,0.3886719,0.4086914,0.1748047,-0.1723633,-0.3242188,-0.1113281
5191,-21.75,-7.75,-174.3125,0.3999023,0.2495117,0.2480469,-0.1650391,-0.3305664,-0.1088867
5195,2.875,11.1875,-180.5625,0.3496094,0.07080078,0.3212891,-0.1484375,-0.3408203,-0.1088867
5199,34.875,33.1875,-185.0625,0.2294922,0.09423828,0.3056641,-0.1318359,-0.3491211,-0.112793
5204,56.25,47.75,-190.625,0.03955078,0.2416992,0.2519531,-0.1220703,-0.3554688,-0.1074219
5208,63.875,53.125,-194.375,-0.2080078,0.4438477,0.1713867,-0.09960938,-0.3642578,-0.105957
5212,49.4375,41.0625,-211.3125,-0.4013672,0.7236328,0.1020508,-0.08056641,-0.3730469,-0.1020508
5216,25.8125,26.125,-221.375,-0.4907227,0.7509766,0.1098633,-0.06640625,-0.3754883,-0.1005859
5220,20.75,28.5,-216.8125,-0.4555664,0.6303711,0.1943359,-0.04394531,-0.3803711,-0.09912109
5224,33,45.0625,-205.875,-0.4829102,0.5644531,0.2441406,-0.02246094,-0.3857422,-0.09765625
5228,60.75,65.5625,-187,-0.6806641,0.6225586,0.1787109,-0.0078125,-0.3857422,-0.09521484
5232,53.625,66.0625,-171.9375,-0.7890625,0.9492188,-0.01660156,0.01171875,-0.3881836,-0.08984375
5236,5.5,45.625,-173.3125,-0.8393555,1.131836,-0.109375,0.02978516,-0.3867188,-0.08544922
5240,-45.375,29.4375,-180.375,-0.6303711,0.8710938,0.01708984,0.04150391,-0.3867188,-0.08447266
5244,-36.4375,45.0625,-184.625,-0.5371094,0.3349609,0.2675781,0.06054688,-0.3833008,-0.08984375
5248,22.375,71.5,-187.0625,-0.6923828,0.140625,0.409668,0.08203125,-0.3793945,-0.08984375
5252,69.4375,76.25,-190.3125,-1.087402,0.4633789,0.2749023,0.09277344,-0.3754883,-0.08544922
