Packet number,Gyroscope X (deg/s),Gyroscope Y (deg/s),Gyroscope Z (deg/s),Accelerometer X (g),Accelerometer Y (g),Accelerometer Z (g),Magnetometer X (G),Magnetometer Y (G),Magnetometer Z (G)
0,-0.75,1.8125,-5.4375,0.9038086,-0.2939453,0.2827148,-0.2363281,0.1274414,-0.1699219
4,-0.4375,2,-4.9375,0.8999023,-0.2939453,0.2788086,-0.2353516,0.1274414,-0.1660156
8,-0.5625,1.9375,-2.375,0.8959961,-0.3056641,0.2709961,-0.2363281,0.1264648,-0.1645508
12,0.4375,0.1875,-1.875,0.8803711,-0.3017578,0.2597656,-0.2353516,0.125,-0.1645508
16,0.875,0.125,-0.5,0.9077148,-0.2822266,0.2709961,-0.2363281,0.1264648,-0.1674805
20,1.5,1.375,-2.4375,0.8920898,-0.2978516,0.2636719,-0.2353516,0.1264648,-0.1674805
24,3,1.625,-4.875,0.8959961,-0.2744141,0.2709961,-0.2353516,0.125,-0.168457
28,-1.125,1.5625,-3.375,0.8999023,-0.2666016,0.2866211,-0.234375,0.1235352,-0.168457
32,-5.4375,0.125,-2.75,0.8999023,-0.2978516,0.3017578,-0.2363281,0.1235352,-0.168457
36,-6.6875,-0.4375,-2.5625,0.9272461,-0.3325195,0.3095703,-0.2363281,0.1235352,-0.1674805
41,-8.625,0.625,-3.0625,0.9775391,-0.3520508,0.3291016,-0.2363281,0.1235352,-0.1660156
45,-13.8125,3.125,-1.875,1.043457,-0.402832,0.3945313,-0.237793,0.1235352,-0.1674805
49,-19.625,7.9375,3.75,1.105469,-0.534668,0.4287109,-0.2387695,0.1235352,-0.1674805
53,-17.875,12.5,14.3125,1.109375,-0.6899414,0.4672852,-0.234375,0.1235352,-0.1674805
57,-13.0625,16.0625,25.125,1.132324,-0.7407227,0.4829102,-0.2353516,0.1289063,-0.1660156
61,-15.1875,20.375,34.375,1.233398,-0.7329102,0.5634766,-0.2319336,0.1313477,-0.168457
65,-27.375,25.3125,52.9375,1.326172,-0.7910156,0.5981445,-0.2304688,0.1362305,-0.168457
69,-37.5,31,72,1.368652,-0.9194336,0.5942383,-0.2280273,0.1386719,-0.1674805
73,-38.8125,37.4375,100.25,1.361328,-1.02832,0.5483398,-0.2236328,0.1450195,-0.168457
77,-30.75,42.5,120,1.353516,-1.070801,0.5327148,-0.2138672,0.1538086,-0.168457
81,-22,54.0625,129.8125,1.446289,-0.9775391,0.5483398,-0.206543,0.1611328,-0.1674805
85,-25.875,66.5625,145.1875,1.395996,-0.9194336,0.5136719,-0.1972656,0.1699219,-0.1738281
89,-31.5,66,164.8125,1.271973,-0.9233398,0.4482422,-0.184082,0.1801758,-0.175293
93,-36.5,59.125,181.375,1.26416,-0.9038086,0.4018555,-0.1748047,0.1884766,-0.1738281
97,-40.3125,57.625,199,1.380371,-0.8999023,0.4213867,-0.1601563,0.1987305,-0.1767578
101,-32.0625,67.8125,207,1.403809,-0.9389648,0.4018555,-0.1401367,0.2099609,-0.1767578
105,-18.4375,77.875,218.75,1.330078,-0.9389648,0.3056641,-0.1303711,0.2148438,-0.1782227
109,-6.5,78.25,235.1875,1.089844,-0.8105469,0.2133789,-0.1054688,0.2236328,-0.1782227
113,-2.375,65.75,244.5625,0.9501953,-0.6630859,0.1674805,-0.08300781,0.2324219,-0.1835938
117,-1.875,55.1875,246.5625,0.9350586,-0.550293,0.1787109,-0.06884766,0.2363281,-0.1835938
121,-1,51.6875,243.0625,0.9423828,-0.4609375,0.2060547,-0.04492188,0.2387695,-0.1850586
125,-4.6875,51.1875,234.8125,0.9423828,-0.4804688,0.2329102,-0.02246094,0.2412109,-0.1865234
129,-1.625,50.6875,231.125,0.8730469,-0.534668,0.2368164,-0.006835938,0.2387695,-0.1875
133,2.3125,47.6875,238.375,0.7875977,-0.581543,0.1904297,0.01660156,0.2387695,-0.1904297
137,3.6875,41.375,242.8125,0.7412109,-0.5,0.2290039,0.03808594,0.2348633,-0.1904297
141,1.9375,40.6875,237,0.6557617,-0.355957,0.2250977,0.05224609,0.2338867,-0.1889648
145,-7.875,37.375,225.5,0.5976563,-0.3208008,0.2519531,0.07470703,0.2260742,-0.1889648
149,-19.625,31.6875,218.0625,0.4619141,-0.3598633,0.2558594,0.09375,0.2211914,-0.1875
153,-21.875,24.6875,222.8125,0.4155273,-0.519043,0.2250977,0.105957,0.2163086,-0.1875
157,-10.3125,23.1875,222.25,0.3457031,-0.5268555,0.2211914,0.1259766,0.2084961,-0.1850586
161,10.4375,29.5625,211.625,0.2724609,-0.421875,0.2368164,0.1416016,0.1962891,-0.1850586
165,29.8125,41.9375,198.75,0.1557617,-0.3637695,0.2329102,0.1557617,0.1914063,-0.1875
170,56.1875,52.6875,187,-0.1186523,-0.2314453,0.1787109,0.1713867,0.1787109,-0.1889648
174,72.875,55.1875,166.8125,-0.3588867,0.1333008,0.159668,0.1865234,0.1650391,-0.1875
178,62,54.0625,138.1875,-0.6108398,0.4633789,0.1635742,0.1928711,0.15625,-0.1889648
182,38.1875,37.125,106.125,-0.8588867,0.6499023,0.2250977,0.2055664,0.1435547,-0.1918945
186,14.875,18.8125,77.8125,-0.9248047,0.6381836,0.2368164,0.2119141,0.1347656,-0.1889648
190,-1.5625,4.5625,46.5625,-0.9326172,0.6069336,0.2636719,0.2138672,0.1313477,-0.1904297
194,-12.25,-5.375,14.5,-0.9052734,0.5449219,0.2597656,0.2177734,0.1289063,-0.1904297
198,-12.375,-6.1875,-22.6875,-0.8164063,0.3896484,0.2675781,0.2163086,0.1289063,-0.1904297
202,-5.5625,-4.625,-61.25,-0.7734375,0.3310547,0.2480469,0.2138672,0.1313477,-0.1889648
206,-8.875,-4.8125,-93.9375,-0.6845703,0.2729492,0.2329102,0.2094727,0.1347656,-0.1875
210,-26,-15.1875,-117.4375,-0.6264648,0.1875,0.2402344,0.2045898,0.1450195,-0.1865234
214,-44.1875,-27,-130.375,-0.4633789,-0.04541016,0.2133789,0.199707,0.1513672,-0.1850586
218,-43.1875,-30.25,-140.9375,-0.3393555,-0.2626953,0.1748047,0.1889648,0.1650391,-0.1850586
222,-28.3125,-28.25,-155.625,-0.2080078,-0.3598633,0.1748047,0.1757813,0.1738281,-0.1850586
226,-14,-26.5625,-172,-0.1264648,-0.3481445,0.1865234,0.1699219,0.1811523,-0.1850586
230,-7.375,-26.5625,-177.4375,-0.04101563,-0.387207,0.1787109,0.1557617,0.1914063,-0.1821289
234,-3.0625,-33.25,-175.9375,-0.05664063,-0.4257813,0.1518555,0.1416016,0.2026367,-0.1865234
238,1.9375,-43.4375,-175.5,0.05908203,-0.4453125,0.1635742,0.1318359,0.2075195,-0.1835938
242,5.9375,-46.1875,-183.875,0.2026367,-0.421875,0.2329102,0.1166992,0.2124023,-0.1865234
246,3.3125,-44.4375,-195.5,0.3457031,-0.4648438,0.2675781,0.09765625,0.2211914,-0.1875
250,-2.5,-51.5625,-192.4375,0.3808594,-0.7016602,0.2368164,0.08544922,0.2250977,-0.1889648
254,13.0625,-55.25,-173.375,0.4038086,-1.327148,0.2290039,0.06542969,0.2285156,-0.1889648
258,46.3125,-49.5625,-169.5625,0.4970703,-0.9233398,0.1635742,0.05078125,0.2314453,-0.1928711
262,83.8125,-42.625,-179.375,0.5161133,-0.6435547,0.2211914,0.04150391,0.2314453,-0.1958008
266,97.6875,-35.5625,-209.875,0.3886719,-0.2314453,0.1904297,0.02246094,0.2285156,-0.199707
270,55.5,-65.0625,-223.25,0.2724609,0.1992188,0.1748047,0.0009765625,0.2260742,-0.2094727
274,-31.625,-115.75,-207.1875,0.4970703,0.09423828,0.2021484,-0.01269531,0.2250977,-0.2080078
278,-89.75,-146.9375,-187.5625,1.121094,-0.6318359,0.3251953,-0.03662109,0.2285156,-0.2041016
282,-55.625,-115.625,-180.625,1.72168,-1.42041,0.4443359,-0.05664063,0.2299805,-0.1943359
286,45.1875,-40.8125,-208.75,1.651855,-1.556641,0.4057617,-0.07128906,0.2299805,-0.1904297
290,114.875,-17.875,-210.9375,0.9658203,-1.008789,0.2519531,-0.09033203,0.2211914,-0.1943359
294,88.3125,-47.875,-197.8125,0.675293,-0.05273438,0.2597656,-0.1069336,0.2075195,-0.2011719
299,-28.875,-102.625,-182.125,0.7412109,0.3779297,0.3442383,-0.1186523,0.2036133,-0.2055664
303,-138.875,-132.625,-181,1.411621,-0.1811523,0.5058594,-0.1376953,0.1972656,-0.1928711
307,-165.6875,-105.625,-180.5625,1.818359,-1.102051,0.5327148,-0.1582031,0.2001953,-0.175293
311,-119.6875,-66.0625,-164.3125,1.802734,-1.731445,0.5214844,-0.168457,0.1987305,-0.1630859
315,-61.9375,-29.6875,-140.8125,1.454102,-1.669434,0.3481445,-0.1831055,0.1948242,-0.1538086
319,-14.1875,-20.4375,-120.0625,1.035645,-1.486816,0.1904297,-0.1938477,0.1899414,-0.1484375
323,21.5,-21.875,-117.3125,0.9194336,-1.121582,0.2519531,-0.1982422,0.1835938,-0.1469727
327,23.5625,-27,-118.6875,0.9775391,-0.7211914,0.5058594,-0.206543,0.1772461,-0.1484375
331,-14.875,-32.25,-115.3125,1.213867,-0.6240234,0.7407227,-0.2163086,0.1674805,-0.1455078
335,-57.5625,-26.5,-96.375,1.52002,-0.9428711,0.855957,-0.2211914,0.1625977,-0.1416016
339,-75.9375,-8.5625,-54.1875,1.659668,-1.517578,0.7368164,-0.2270508,0.1586914,-0.137207
343,-56.75,7.3125,-1.3125,1.574219,-1.871094,0.5522461,-0.2294922,0.1586914,-0.1333008
347,-12.5,19.375,37.25,1.461914,-1.964355,0.375,-0.2280273,0.1611328,-0.1333008
351,28.1875,28.8125,66.8125,1.388184,-1.68457,0.355957,-0.2255859,0.1635742,-0.1318359
355,43,33.625,91.8125,1.380371,-1.350586,0.4521484,-0.2197266,0.1674805,-0.1386719
359,38.5625,43.875,107.5625,1.42334,-1.094238,0.5288086,-0.215332,0.1723633,-0.1416016
363,23.625,51.3125,127.6875,1.372559,-1.032227,0.5288086,-0.2055664,0.1772461,-0.1484375
367,9.75,51.8125,152.375,1.349609,-1.02832,0.4790039,-0.1948242,0.1850586,-0.1508789
371,4.5625,58.0625,173,1.395996,-1.02832,0.4057617,-0.1855469,0.1899414,-0.1547852
375,2.4375,60.75,188,1.256348,-0.9736328,0.3291016,-0.1708984,0.2011719,-0.1577148
379,7.5,62,196.125,1.213867,-0.9194336,0.2749023,-0.1533203,0.2099609,-0.1606445
383,12.625,62.6875,198.75,1.182617,-0.8105469,0.2749023,-0.1425781,0.2163086,-0.1630859
387,5.125,62,207.5625,1.19043,-0.7172852,0.3017578,-0.1245117,0.2236328,-0.168457
391,-2.5,59.5,214.6875,1.175293,-0.7329102,0.2866211,-0.1044922,0.2285156,-0.1728516
395,1.9375,59.625,222.75,1.13623,-0.8066406,0.2402344,-0.09033203,0.2363281,-0.1738281
399,16.1875,62.4375,224.1875,1.085938,-0.7290039,0.2094727,-0.06884766,0.2387695,-0.1767578
403,19.9375,63.8125,229,1.004395,-0.6318359,0.2021484,-0.04492188,0.2412109,-0.1782227
407,21.1875,59.3125,229.125,0.8769531,-0.5927734,0.1826172,-0.03076172,0.2426758,-0.1821289
411,17.25,57.1875,223.0625,0.8842773,-0.534668,0.2250977,-0.0078125,0.2412109,-0.1850586
415,22.125,60.6875,223.875,0.8032227,-0.6162109,0.2021484,0.01074219,0.2387695,-0.1875
419,19.1875,56.4375,218.4375,0.6982422,-0.534668,0.2211914,0.02734375,0.2373047,-0.1904297
423,13.0625,49.375,221.375,0.6674805,-0.5541992,0.2368164,0.04638672,0.2338867,-0.1928711
428,12.375,50.3125,215.875,0.6948242,-0.6787109,0.2480469,0.06884766,0.2275391,-0.1928711
432,20.9375,52.1875,215.3125,0.59375,-0.6860352,0.2368164,0.08056641,0.2236328,-0.1928711
436,28.1875,53.375,219.75,0.4892578,-0.6083984,0.2172852,0.1010742,0.2138672,-0.1943359
440,20.4375,48.875,215.8125,0.3652344,-0.4414063,0.2368164,0.1201172,0.2036133,-0.1943359
444,5,42.4375,203.5625,0.2915039,-0.3286133,0.2905273,0.1333008,0.1962891,-0.1943359
448,-19.5625,37.0625,202.5625,0.2529297,-0.453125,0.2866211,0.1508789,0.1875,-0.1943359
452,-28.3125,30.3125,197.875,0.1791992,-0.5966797,0.3291016,0.1665039,0.1787109,-0.1904297
456,-18.375,30.625,204.3125,0.2177734,-0.8261719,0.2944336,0.1772461,0.1713867,-0.1875
460,11.9375,36.5625,207.25,0.1054688,-0.8105469,0.2480469,0.1928711,0.1601563,-0.1865234
464,44.5,45.375,204.125,0.02050781,-0.503418,0.2368164,0.2070313,0.1450195,-0.1865234
468,54.6875,52.75,197,-0.215332,-0.1308594,0.2250977,0.215332,0.1323242,-0.1865234
472,41.375,47.0625,179.5625,-0.4365234,0.2612305,0.2368164,0.2285156,0.1162109,-0.1875
476,25.625,31.5625,175.25,-0.8896484,0.5527344,0.1289063,0.237793,0.1025391,-0.1850586
480,3.0625,10.3125,152.8125,-0.9516602,0.6616211,0.1479492,0.2475586,0.09228516,-0.1850586
484,-5.8125,-8.375,124.625,-0.9633789,0.7626953,0.1865234,0.2509766,0.08007813,-0.1865234
488,-7.5,-15.0625,83.5,-0.9672852,0.7973633,0.2749023,0.2543945,0.07128906,-0.1865234
492,-5.1875,-13.625,32.6875,-0.8857422,0.8442383,0.3637695,0.2558594,0.06884766,-0.1865234
496,-17.375,-8.875,-15.625,-0.8393555,0.7509766,0.3979492,0.2558594,0.06738281,-0.1875
500,-36.125,-10.0625,-46.625,-0.796875,0.5136719,0.3789063,0.2558594,0.06982422,-0.1875
504,-53.75,-13.625,-71,-0.7075195,0.237793,0.3598633,0.2558594,0.07519531,-0.1850586
508,-64.6875,-14.25,-88.75,-0.5566406,-0.09179688,0.3520508,0.25,0.08251953,-0.1850586
512,-67.6875,-10.4375,-95.1875,-0.4711914,-0.3442383,0.3212891,0.2460938,0.09619141,-0.1835938
516,-57.125,-8.9375,-93.1875,-0.4829102,-0.5737305,0.2441406,0.2412109,0.1025391,-0.1821289
520,-27.9375,-4.75,-98.375,-0.4790039,-0.5698242,0.1635742,0.2368164,0.1123047,-0.1806641
524,-1.25,-1.75,-115.25,-0.4790039,-0.3637695,0.1787109,0.2319336,0.1201172,-0.1782227
528,0.0625,-4.5,-135.8125,-0.4672852,-0.1035156,0.2094727,0.2260742,0.1274414,-0.1782227
532,-25.6875,-15.4375,-141.3125,-0.4013672,-0.06835938,0.2250977,0.21875,0.1362305,-0.1767578
536,-43.1875,-24.1875,-146.0625,-0.3125,-0.1811523,0.1904297,0.2104492,0.1489258,-0.175293
540,-39.8125,-26.75,-155.5,-0.2270508,-0.2822266,0.1098633,0.203125,0.1586914,-0.1767578
544,-23.875,-30.1875,-170.3125,-0.1884766,-0.2548828,0.06347656,0.1904297,0.1699219,-0.1738281
548,-18,-34.4375,-187.9375,-0.07617188,-0.07617188,0.1210938,0.1772461,0.1811523,-0.175293
552,-30.875,-34.8125,-216.625,0.109375,-0.002441406,0.1674805,0.1650391,0.1914063,-0.1738281
557,-45.875,-35.3125,-236.6875,0.2216797,-0.1616211,0.1289063,0.1474609,0.2026367,-0.1738281
561,-46.9375,-39.125,-242.9375,0.3227539,-0.3950195,0.07519531,0.128418,0.2163086,-0.1699219
565,-31.1875,-43.9375,-236.4375,0.3417969,-0.5698242,0.01367188,0.112793,0.2250977,-0.168457
569,-3,-50.6875,-236.375,0.3808594,-0.503418,-0.009277344,0.09130859,0.2348633,-0.1660156
573,24.4375,-44,-267.75,0.5820313,-0.2548828,0.08251953,0.06982422,0.2412109,-0.1660156
577,19.5,-45.5,-312.875,0.7680664,-0.1459961,0.1674805,0.04980469,0.2451172,-0.168457
581,-14.125,-53.875,-315.875,1.085938,-0.340332,0.2675781,0.02246094,0.25,-0.1699219
585,-38.8125,-62.0625,-272.3125,1.179199,-0.8613281,0.2060547,-0.006835938,0.2509766,-0.1645508
589,-12,-65.3125,-236.875,1.097656,-1.152344,0.1367188,-0.02246094,0.2509766,-0.1616211
593,23.8125,-63.5625,-236.5625,1.047363,-0.7055664,0.1328125,-0.04492188,0.25,-0.1616211
597,6.0625,-63.25,-258.3125,1.19043,-0.2548828,0.2290039,-0.06982422,0.2451172,-0.1616211
601,-16,-60.25,-274.6875,1.217773,-0.3950195,0.2250977,-0.08789063,0.2412109,-0.1591797
605,-36.125,-72.875,-273.875,1.341797,-0.503418,0.2597656,-0.112793,0.2348633,-0.1538086
609,-41.8125,-71.4375,-257.1875,1.601563,-0.8027344,0.2983398,-0.1367188,0.2260742,-0.1455078
613,-14.625,-60.625,-238.625,1.608887,-1.004883,0.2788086,-0.1533203,0.2197266,-0.1416016
617,20.0625,-51.125,-232.5,1.628418,-0.7910156,0.2709961,-0.1733398,0.2084961,-0.1386719
621,1.1875,-43.75,-248,1.682617,-0.2202148,0.3212891,-0.1948242,0.1948242,-0.1357422
625,-74.5,-50.6875,-246.5,1.744629,-0.4648438,0.3330078,-0.206543,0.1860352,-0.1333008
629,-116.625,-56.375,-198.875,1.977051,-1.276855,0.3095703,-0.222168,0.1723633,-0.1225586
633,-87.8125,-33.75,-148.75,2.03125,-1.828613,0.2519531,-0.2353516,0.1635742,-0.1142578
637,-26.0625,-10.875,-106.5,1.59375,-1.925781,0.1367188,-0.2412109,0.1577148,-0.1074219
641,21.4375,-7.0625,-86.5,1.299316,-1.583984,0.1635742,-0.2460938,0.1513672,-0.105957
645,32.1875,-10.5625,-66.5625,1.283691,-1.315918,0.3598633,-0.2509766,0.1435547,-0.1088867
649,22,-3.75,-41.875,1.388184,-1.257324,0.5327148,-0.253418,0.1411133,-0.1088867
653,4.1875,4.125,-8.125,1.341797,-1.222656,0.6137695,-0.2553711,0.1362305,-0.1088867
657,-15.1875,8.5,20.6875,1.287598,-1.214844,0.5288086,-0.2553711,0.1376953,-0.1088867
661,-23.875,12.125,48.25,1.299316,-1.327148,0.4326172,-0.2553711,0.1401367,-0.1088867
665,-13.3125,19.8125,71.125,1.326172,-1.397461,0.3251953,-0.2509766,0.1435547,-0.1088867
669,4,25.9375,89.4375,1.310547,-1.334961,0.2749023,-0.2460938,0.1499023,-0.1098633
673,8.9375,31.5625,108.625,1.411621,-1.1875,0.2905273,-0.2412109,0.1538086,-0.112793
677,-5.9375,37.5,132.8125,1.450195,-1.020508,0.3017578,-0.234375,0.1625977,-0.1142578
681,-25.5,32.4375,162.9375,1.442383,-1.109863,0.2749023,-0.2246094,0.1748047,-0.1181641
686,-20.3125,35.5625,186.3125,1.582031,-1.249512,0.2368164,-0.2163086,0.1850586,-0.1181641
690,0.4375,45.5,201.5625,1.63623,-1.222656,0.2290039,-0.2006836,0.1948242,-0.1196289
694,13.4375,52.5625,220.5,1.644043,-1.207031,0.1982422,-0.1865234,0.2084961,-0.1225586
698,25.6875,56.75,241.5,1.632324,-1.047363,0.1826172,-0.1733398,0.2163086,-0.1279297
702,24.25,60.1875,257.125,1.558594,-0.8183594,0.1635742,-0.1518555,0.2275391,-0.1303711
706,21.8125,58.875,265.0625,1.407715,-0.7832031,0.1713867,-0.128418,0.2363281,-0.137207
710,27,52.125,271.0625,1.291504,-0.7910156,0.1635742,-0.1113281,0.2426758,-0.1416016
714,36.375,55.5,263.1875,1.419434,-0.7368164,0.2133789,-0.08789063,0.2475586,-0.1469727
718,32.9375,62.3125,269.1875,1.283691,-0.6821289,0.1904297,-0.06054688,0.2524414,-0.1523438
722,29.0625,55.4375,282.375,1.109375,-0.6669922,0.1367188,-0.04394531,0.2539063,-0.1523438
726,30.3125,51.9375,278.375,1.027832,-0.565918,0.1367188,-0.01611328,0.2548828,-0.1591797
730,30.9375,52.5,270.25,1.000488,-0.5385742,0.1367188,0.01074219,0.2524414,-0.1616211
734,32.5625,53,262.5625,0.9233398,-0.6123047,0.1289063,0.02734375,0.2485352,-0.1660156
738,37.5625,48.125,270.375,0.7915039,-0.5229492,0.1132813,0.05224609,0.2451172,-0.168457
742,27.5,42.875,270.3125,0.7758789,-0.5073242,0.1367188,0.07714844,0.2363281,-0.1728516
746,23.125,39,267.4375,0.6518555,-0.4335938,0.1328125,0.09521484,0.2299805,-0.1738281
750,22.625,38.9375,261.0625,0.6362305,-0.503418,0.125,0.1166992,0.2172852,-0.175293
754,30.625,39.4375,253,0.4853516,-0.5112305,0.1020508,0.1401367,0.2060547,-0.175293
758,41,37.9375,250.375,0.3149414,-0.3173828,0.06347656,0.1557617,0.1972656,-0.1767578
762,40.625,29.5625,242.75,0.1948242,-0.2587891,0.06347656,0.1738281,0.1811523,-0.1796875
766,55.125,24.25,242,0.04345703,-0.2744141,-0.01660156,0.1928711,0.1635742,-0.1806641
770,95.25,22.5,227,-0.1303711,-0.2275391,-0.1166992,0.2021484,0.1499023,-0.1835938
774,119.8125,18.4375,198.5625,-0.3046875,0.2456055,-0.08203125,0.2177734,0.1289063,-0.1918945
778,111.375,16.75,171.3125,-0.4672852,0.7275391,0.005859375,0.2285156,0.1098633,-0.1943359
782,57.8125,6.625,137.1875,-0.7075195,1.205566,0.1748047,0.2329102,0.09619141,-0.1958008
786,-1.1875,-8.5625,100.75,-0.862793,1.306641,0.3017578,0.237793,0.08642578,-0.1972656
790,-46.6875,-19.375,59.3125,-0.8510742,1.053711,0.3330078,0.2436523,0.08105469,-0.199707
794,-55.625,-20.125,15.5,-0.765625,0.6923828,0.340332,0.2426758,0.08007813,-0.1972656
798,-42.6875,-14,-21.75,-0.6806641,0.4829102,0.3671875,0.2412109,0.08251953,-0.1987305
802,-31.5,-8.375,-55.9375,-0.6728516,0.3818359,0.3828125,0.2392578,0.08740234,-0.1987305
806,-29,-5.375,-86,-0.6303711,0.3193359,0.3710938,0.2368164,0.08984375,-0.1972656
810,-37.75,-6.0625,-112,-0.5991211,0.2226563,0.3637695,0.2319336,0.1010742,-0.1958008
815,-50.125,-8.9375,-130.25,-0.5214844,0.07080078,0.3212891,0.2270508,0.1123047,-0.1943359
819,-54.75,-13.375,-142.625,-0.4672852,-0.06054688,0.2636719,0.2236328,0.1201172,-0.1918945
823,-52.8125,-15.25,-160.4375,-0.3085938,-0.1616211,0.2709961,0.2119141,0.1347656,-0.1889648
827,-43.1875,-12.1875,-174.8125,-0.2270508,-0.3017578,0.2290039,0.2021484,0.1489258,-0.1875
831,-33.9375,-16.5625,-185.3125,-0.1962891,-0.3173828,0.2094727,0.1948242,0.1586914,-0.1865234
835,-34,-21,-190.8125,-0.1069336,-0.2470703,0.1982422,0.1806641,0.1713867,-0.1850586
839,-39.25,-26.375,-200.4375,-0.06835938,-0.2939453,0.144043,0.1689453,0.1850586,-0.1821289
843,-35.9375,-38.1875,-201.6875,0.004882813,-0.4140625,0.125,0.1567383,0.1938477,-0.1782227
847,-27.75,-43.875,-205.5625,0.1518555,-0.402832,0.1210938,0.1391602,0.2050781,-0.1796875
851,-23.25,-48.8125,-207.875,0.3227539,-0.5268555,0.140625,0.1201172,0.2148438,-0.1782227
855,-2.3125,-42.875,-224.5625,0.609375,-0.7680664,0.2211914,0.1079102,0.2226563,-0.1782227
859,17.6875,-24,-248.875,0.609375,-0.6821289,0.2060547,0.08691406,0.2299805,-0.1782227
863,10.3125,-31.625,-244.6875,0.5239258,-0.6748047,0.1787109,0.06396484,0.2363281,-0.1796875
867,-6.125,-51,-223.25,0.5087891,-0.5927734,0.1367188,0.05078125,0.2387695,-0.1806641
871,-38.9375,-76.4375,-202.125,0.5512695,-0.5463867,0.08642578,0.02832031,0.2426758,-0.175293
875,-49.6875,-88.5,-196.1875,0.8730469,-0.6162109,0.1557617,0.008300781,0.2485352,-0.175293
879,-42.8125,-56.8125,-243,1.070313,-0.46875,0.2290039,-0.005859375,0.25,-0.1699219
883,-75.25,-58.375,-251.9375,0.9970703,-0.565918,0.2290039,-0.02832031,0.25,-0.1660156
887,-94.5,-69.8125,-214,1.147949,-1.210938,0.1328125,-0.05566406,0.2524414,-0.1547852
891,-38.5,-61.8125,-187.0625,1.206055,-1.529297,0.1328125,-0.06640625,0.2524414,-0.1469727
895,39.5,-40.125,-197.0625,1.16748,-1.117676,0.144043,-0.08544922,0.25,-0.1469727
899,68.8125,-21.8125,-236.1875,1.012207,-0.3481445,0.1865234,-0.1069336,0.2426758,-0.1494141
903,3,-42.625,-248.6875,0.8691406,0.1333008,0.1826172,-0.1186523,0.2324219,-0.1508789
907,-82.25,-76.1875,-222.75,1.275879,-0.3208008,0.2329102,-0.1411133,0.2236328,-0.1469727
911,-107.0625,-75.375,-193.3125,1.659668,-1.02832,0.2636719,-0.1591797,0.2211914,-0.1318359
915,-62.5,-47.625,-176.3125,1.709961,-1.424316,0.2060547,-0.1708984,0.2172852,-0.125
919,-6.9375,-20.6875,-177.8125,1.500488,-1.11377,0.1098633,-0.1875,0.2060547,-0.1196289
923,7.875,-20.125,-175.125,1.155762,-0.7446289,-0.03222656,-0.199707,0.1972656,-0.1196289
927,-5.1875,-40.1875,-174.0625,1.113281,-0.5893555,-0.009277344,-0.2080078,0.1899414,-0.1157227
931,-27,-46.3125,-160.25,1.395996,-0.8764648,0.144043,-0.2197266,0.1787109,-0.1142578
935,-23.875,-41.4375,-131.6875,1.508301,-1.22998,0.2866211,-0.2304688,0.1674805,-0.1074219
939,1.375,-22.375,-109.6875,1.527832,-1.389648,0.3056641,-0.2387695,0.1635742,-0.1044922
944,29.375,-6.125,-87.875,1.337891,-1.370117,0.2597656,-0.2436523,0.1547852,-0.1044922
948,43.4375,-6.6875,-64,1.105469,-1.22998,0.2827148,-0.2495117,0.1474609,-0.1074219
952,40.5,-11.6875,-39.375,1.113281,-1.055176,0.390625,-0.2519531,0.1435547,-0.1088867
956,29.375,-8.75,-19.3125,1.171387,-0.9580078,0.5288086,-0.2519531,0.1411133,-0.1098633
960,15.5625,0.625,-3.8125,1.194336,-0.8842773,0.5869141,-0.2543945,0.1386719,-0.1098633
964,-1.6875,10.25,11.875,1.194336,-0.8647461,0.5595703,-0.2543945,0.1386719,-0.1098633
968,-15.1875,14.4375,29.125,1.132324,-0.9389648,0.4287109,-0.253418,0.1411133,-0.112793
972,-16.1875,14.9375,50,1.147949,-1.02832,0.3017578,-0.2519531,0.1450195,-0.112793
976,-6.4375,17.9375,67.75,1.171387,-1.024414,0.2558594,-0.2470703,0.1459961,-0.1113281
980,-1.875,20.6875,80.0625,1.171387,-0.9541016,0.2480469,-0.2426758,0.1523438,-0.112793
984,-2.875,22.0625,94.25,1.217773,-0.9697266,0.2675781,-0.2363281,0.1577148,-0.1157227
988,-1.25,30,108.75,1.333984,-0.9658203,0.2866211,-0.234375,0.1635742,-0.1142578
992,-10.125,37.5,125.0625,1.322266,-0.9428711,0.2675781,-0.2255859,0.1713867,-0.1157227
996,-20.625,34.4375,152.375,1.341797,-1.055176,0.2290039,-0.215332,0.1826172,-0.1166992
1000,-14.75,36,176.25,1.43457,-1.191406,0.2133789,-0.2089844,0.1884766,-0.1196289
1004,12.4375,45.0625,189.4375,1.450195,-1.272949,0.1713867,-0.1938477,0.2001953,-0.1210938
1008,43.75,54.125,197.1875,1.426758,-1.11377,0.1787109,-0.1782227,0.2099609,-0.1289063
1012,40.75,60.75,204.0625,1.419434,-0.8417969,0.2329102,-0.168457,0.2163086,-0.1303711
1016,25.6875,64.375,214,1.42334,-0.7871094,0.2788086,-0.1484375,0.2260742,-0.1386719
1020,15,68.1875,221.4375,1.345703,-0.8725586,0.2441406,-0.1293945,0.2338867,-0.1416016
1024,13.1875,62.875,238.875,1.260254,-0.9077148,0.2094727,-0.1137695,0.2387695,-0.1469727
1028,16.5625,58.8125,248.875,1.302734,-0.9350586,0.2172852,-0.09228516,0.2460938,-0.1508789
1032,32.3125,65.6875,246.6875,1.252441,-0.9853516,0.1787109,-0.06884766,0.2485352,-0.1547852
1036,50.1875,71.5625,240.5625,1.271973,-0.9038086,0.1943359,-0.05078125,0.2509766,-0.1577148
1040,31.875,70.75,256.5,1.035645,-0.6123047,0.159668,-0.02685547,0.2485352,-0.1645508
1044,8.6875,54.5,267.5625,0.8613281,-0.5893555,0.159668,-0.0009765625,0.25,-0.168457
1048,10,48.6875,263.6875,0.8574219,-0.6938477,0.1328125,0.01513672,0.2485352,-0.1699219
1052,27.8125,49.75,252.625,0.8110352,-0.7680664,0.1171875,0.04150391,0.2436523,-0.1728516
1056,52.125,54.75,246.3125,0.8071289,-0.7563477,0.1210938,0.06396484,0.2373047,-0.175293
1060,55,56.6875,242.375,0.659668,-0.46875,0.1132813,0.07958984,0.2299805,-0.1767578
1064,40.3125,51,247.625,0.5087891,-0.3325195,0.1098633,0.1020508,0.2197266,-0.1821289
1068,29.4375,41.3125,245,0.4038086,-0.3676758,0.1210938,0.1235352,0.2114258,-0.1835938
1073,28.625,36.6875,229.5,0.4233398,-0.3833008,0.1748047,0.1376953,0.2036133,-0.1835938
1077,28,41.625,214.3125,0.4467773,-0.402832,0.2133789,0.1557617,0.1884766,-0.1865234
1081,15.0625,40,208.25,0.3496094,-0.4921875,0.2402344,0.1738281,0.1762695,-0.1835938
1085,13,39.5625,215.6875,0.2685547,-0.5424805,0.2250977,0.184082,0.1689453,-0.1865234
1089,15,36.625,222,0.109375,-0.4804688,0.1865234,0.199707,0.1538086,-0.1850586
1093,23,33.375,216.3125,0.008789063,-0.3833008,0.1982422,0.2163086,0.1362305,-0.1850586
1097,43.3125,39.3125,204.625,-0.2119141,-0.1347656,0.140625,0.2246094,0.1235352,-0.1835938
1101,53.0625,36.25,182.8125,-0.3085938,0.253418,0.2060547,0.234375,0.1074219,-0.1850586
1105,49,33.3125,158.4375,-0.5371094,1.026855,0.1635742,0.2475586,0.08984375,-0.1865234
1109,27.625,20.25,141.4375,-0.8354492,0.8051758,0.1982422,0.2509766,0.08105469,-0.1835938
1113,10.625,5.9375,108.4375,-0.8818359,0.9414063,0.2368164,0.2568359,0.06884766,-0.1850586
1117,3.4375,6.375,59.0625,-0.8354492,0.9799805,0.3442383,0.2617188,0.0625,-0.1821289
1121,0.9375,14.4375,3.875,-0.8510742,0.8598633,0.3710938,0.2626953,0.05859375,-0.1835938
1125,-6.875,13.625,-30.875,-0.9130859,0.777832,0.3173828,0.2626953,0.05859375,-0.1835938
1129,-15.75,8,-67.4375,-0.8354492,0.6381836,0.3330078,0.2626953,0.06396484,-0.1821289
1133,-33.25,5.375,-97.1875,-0.7114258,0.3701172,0.3481445,0.2602539,0.06982422,-0.1821289
1137,-55.5625,-1.75,-111.6875,-0.5834961,0.01269531,0.3637695,0.2558594,0.08007813,-0.1806641
1141,-72.75,-6.5,-108.1875,-0.4443359,-0.3637695,0.3212891,0.2509766,0.09130859,-0.1767578
1145,-62.6875,-7.1875,-101.9375,-0.4130859,-0.6821289,0.2250977,0.2485352,0.1010742,-0.175293
1149,-28.5,-0.8125,-109.8125,-0.4208984,-0.7250977,0.1826172,0.2426758,0.1098633,-0.1728516
1153,-2.375,3.6875,-125.75,-0.4672852,-0.4335938,0.1943359,0.2368164,0.1210938,-0.1713867
1157,-13.25,-2.1875,-139.4375,-0.3862305,-0.3208008,0.2597656,0.2329102,0.1264648,-0.1699219
1161,-30.9375,-10.6875,-131.4375,-0.4052734,-0.4335938,0.2250977,0.2236328,0.1401367,-0.168457
1165,-25.625,-21.875,-117.1875,-0.378418,-0.5927734,0.140625,0.2163086,0.1489258,-0.1674805
1169,3.625,-25.3125,-119.1875,-0.362793,-0.5463867,0.07910156,0.2104492,0.1547852,-0.1674805
1173,38.5,-18.75,-147.3125,-0.215332,-0.2705078,0.1635742,0.2011719,0.1625977,-0.1713867
1177,47.375,-6.6875,-192.3125,-0.2426758,0.06298828,0.2060547,0.1879883,0.1713867,-0.1728516
1181,17.75,-22.6875,-206.1875,-0.3125,0.1445313,0.1518555,0.1796875,0.1787109,-0.1738281
1185,-21.3125,-50.375,-197.3125,-0.1611328,-0.05664063,0.08642578,0.1640625,0.1914063,-0.1738281
1189,-41.125,-75.8125,-175.6875,-0.01416016,-0.3134766,0.02490234,0.1474609,0.2026367,-0.1738281
1193,-43.4375,-81.125,-185,0.4541016,-0.1733398,0.2519531,0.1342773,0.2084961,-0.1738281
1197,-50,-39.375,-255.6875,0.7412109,-0.2084961,0.3291016,0.1166992,0.2197266,-0.175293
1202,-61.375,-27.1875,-282.1875,0.6210938,-0.6474609,0.1943359,0.09521484,0.2324219,-0.1699219
1206,-51.5,-39.9375,-251.4375,0.6831055,-1.133301,0.08642578,0.07714844,0.2412109,-0.1645508
1210,-5.4375,-46.4375,-216.6875,0.6831055,-1.15625,0.02490234,0.0546875,0.2485352,-0.1630859
1214,2.8125,-61.8125,-209.25,0.609375,-0.5229492,0.09423828,0.03320313,0.2524414,-0.1616211
1218,-20.125,-56.1875,-241.6875,0.9580078,-0.1850586,0.2133789,0.01757813,0.2509766,-0.1606445
1222,-66.0625,-50.5625,-275.625,0.9077148,-0.1538086,0.1787109,-0.005859375,0.2573242,-0.1591797
1226,-101.375,-63.1875,-264.5,1.159668,-0.7524414,0.144043,-0.03320313,0.2573242,-0.1484375
1230,-69.0625,-58.25,-235.5,1.260254,-1.284668,0.07128906,-0.04980469,0.2597656,-0.1401367
1234,-9.5625,-47,-232.125,1.182617,-1.043945,0.07519531,-0.07128906,0.2587891,-0.1357422
1238,8.1875,-47.25,-243.1875,1.144043,-0.4375,0.1098633,-0.09375,0.2509766,-0.1333008
1242,-30.5,-46.3125,-269.125,1.39209,-0.1811523,0.2094727,-0.1103516,0.2451172,-0.1303711
1246,-67.1875,-45.625,-269.125,1.516113,-0.5893555,0.1635742,-0.1342773,0.2387695,-0.1235352
1250,-64.125,-42.25,-250.75,1.647949,-1.070801,0.140625,-0.1582031,0.2299805,-0.1142578
1254,-24.3125,-33.5,-228.4375,1.644043,-1.171875,0.1098633,-0.1723633,0.2211914,-0.1113281
1258,2.75,-27.1875,-222.625,1.527832,-0.8417969,0.07519531,-0.1899414,0.2099609,-0.1074219
1262,-0.125,-30.9375,-221.0625,1.458008,-0.5927734,0.09814453,-0.2055664,0.1948242,-0.1044922
1266,-29.375,-34.875,-212.875,1.570313,-0.565918,0.1904297,-0.21875,0.1875,-0.1044922
1270,-54.9375,-31,-190.75,1.647949,-0.8535156,0.2290039,-0.2329102,0.1748047,-0.09912109
1274,-53.25,-26.6875,-156.75,1.5625,-1.210938,0.2060547,-0.2446289,0.1611328,-0.09375
1278,-22.5,-18.4375,-134.3125,1.42334,-1.389648,0.1289063,-0.2509766,0.1547852,-0.09082031
1282,15.6875,-11.9375,-121.0625,1.29541,-1.358398,0.144043,-0.2578125,0.1450195,-0.08837891
1286,32.8125,-12.125,-96.5,1.217773,-1.167969,0.2709961,-0.2636719,0.1347656,-0.08837891
1290,25.3125,-11.0625,-70.8125,1.26416,-0.9736328,0.4135742,-0.2675781,0.1274414,-0.08837891
1294,4.5625,-6.0625,-45.875,1.260254,-0.8999023,0.4711914,-0.2700195,0.1225586,-0.08837891
1298,-12.375,-1.1875,-24.8125,1.198242,-1.008789,0.4213867,-0.2734375,0.1210938,-0.09082031
1302,-7.375,4.5,-3.375,1.202148,-1.237793,0.355957,-0.2734375,0.1186523,-0.08984375
1306,14.0625,11.75,21,1.198242,-1.26123,0.2983398,-0.2724609,0.1176758,-0.08837891
1310,28.5,16.75,44.1875,1.22168,-1.062988,0.2519531,-0.2709961,0.1225586,-0.09082031
1314,17.4375,16.9375,66.9375,1.213867,-0.7446289,0.2211914,-0.2700195,0.1235352,-0.09375
1318,-12.75,16.0625,84.8125,1.252441,-0.6860352,0.2636719,-0.2636719,0.1289063,-0.09521484
1322,-33.0625,19.375,103.4375,1.302734,-0.8378906,0.2290039,-0.2602539,0.1376953,-0.09521484
1326,-35.125,24.875,120.0625,1.314453,-1.008789,0.1713867,-0.2578125,0.1435547,-0.09375
1331,-23.125,23.6875,144.125,1.256348,-1.133301,0.09423828,-0.2485352,0.1538086,-0.09521484
1335,-1.875,22,163.6875,1.337891,-1.144531,0.08251953,-0.2402344,0.1660156,-0.09667969
1339,22.5,29.375,172.5,1.442383,-1.043945,0.144043,-0.234375,0.1738281,-0.09521484
1343,25.75,37.4375,181.5625,1.395996,-0.8378906,0.1826172,-0.2197266,0.1850586,-0.1005859
1347,13.6875,38.4375,193.1875,1.461914,-0.8144531,0.2558594,-0.206543,0.1972656,-0.105957
1351,4.1875,40.875,207.375,1.473633,-0.9736328,0.2519531,-0.1948242,0.2060547,-0.1074219
1355,13.1875,40.4375,228,1.516113,-1.117676,0.1713867,-0.1782227,0.2172852,-0.1098633
1359,34.875,42.3125,244.75,1.539551,-1.125488,0.1328125,-0.1591797,0.2314453,-0.1142578
1363,60.75,52.5625,249.125,1.43457,-0.9038086,0.08642578,-0.1450195,0.2373047,-0.1196289
1367,65.125,52.1875,242.25,1.39209,-0.7832031,0.1518555,-0.1201172,0.2436523,-0.1279297
1371,48.6875,56.125,246.8125,1.42334,-0.6860352,0.2133789,-0.09716797,0.25,-0.1357422
1375,28.375,51.375,263.3125,1.310547,-0.8300781,0.1943359,-0.08300781,0.2509766,-0.1401367
1379,32.625,49.8125,272.6875,1.213867,-0.8183594,0.1367188,-0.05664063,0.2548828,-0.144043
1383,38.6875,51.625,264.0625,1.097656,-0.6860352,0.1171875,-0.03173828,0.2573242,-0.1484375
1387,33.1875,48.1875,264.5625,1.016113,-0.6630859,0.125,-0.01269531,0.2573242,-0.1547852
1391,33.1875,45.75,260.5625,0.9116211,-0.6748047,0.1171875,0.01074219,0.2539063,-0.1591797
1395,29.0625,46.0625,257.1875,0.8999023,-0.5854492,0.1171875,0.03662109,0.2524414,-0.1616211
1399,26.1875,42.25,252.3125,0.7915039,-0.6044922,0.125,0.0546875,0.2475586,-0.1630859
1403,26.8125,42.6875,244.6875,0.7294922,-0.581543,0.09033203,0.07861328,0.2397461,-0.1674805
1407,7.125,36.6875,240.625,0.7490234,-0.503418,0.1943359,0.09960938,0.2324219,-0.1674805
1411,-23.4375,28.6875,249.125,0.644043,-0.6240234,0.1557617,0.112793,0.2250977,-0.1674805
1415,-24.8125,19.125,263.1875,0.5473633,-0.8339844,0.08642578,0.1357422,0.2163086,-0.1660156
1419,4.375,16.625,257,0.4970703,-0.8066406,0.09033203,0.1567383,0.2050781,-0.1630859
1423,40.0625,31.1875,238.875,0.4619141,-0.534668,0.1171875,0.1699219,0.1923828,-0.1660156
1427,65.8125,43.375,226.375,0.2490234,-0.355957,0.06738281,0.1889648,0.1762695,-0.1660156
1431,71.1875,40.125,215.6875,0.01660156,0.02441406,0.1289063,0.2055664,0.1601563,-0.1713867
1435,56.875,36.8125,208.5625,-0.1728516,0.4516602,0.125,0.2138672,0.1474609,-0.1713867
1439,29.1875,21.875,196.75,-0.4555664,0.4829102,0.1674805,0.2294922,0.1289063,-0.1713867
1443,24.0625,17.125,167.875,-0.5332031,0.6342773,0.1865234,0.2392578,0.1137695,-0.1713867
1447,36.0625,21.125,125.0625,-0.6416016,0.6499023,0.1479492,0.2451172,0.1064453,-0.1738281
1451,53,22.375,85.4375,-0.796875,0.793457,0.1748047,0.2519531,0.09521484,-0.1728516
1455,42.75,15.5,52.1875,-0.9287109,1.09668,0.2329102,0.2558594,0.08496094,-0.1738281
1460,15.9375,9.125,5.5,-0.9326172,1.20166,0.3710938,0.2568359,0.08398438,-0.1738281
1464,-20.375,4.875,-40.625,-0.8818359,1.003418,0.3828125,0.2568359,0.08251953,-0.1738281
1468,-46.4375,0.6875,-78.4375,-0.7504883,0.5991211,0.3520508,0.2543945,0.08886719,-0.1713867
1472,-58.875,-3.3125,-102,-0.6455078,0.1523438,0.2636719,0.253418,0.09521484,-0.1713867
1476,-59.0625,-7.0625,-114.625,-0.5063477,-0.2509766,0.2172852,0.2460938,0.1088867,-0.168457
1480,-41,-7.5625,-112.1875,-0.4482422,-0.565918,0.125,0.2402344,0.1176758,-0.1645508
1484,-5.875,-11.875,-112.5625,-0.4985352,-0.5893555,0.07128906,0.2353516,0.125,-0.1645508
1488,30.1875,-7.3125,-129.625,-0.4633789,-0.3442383,0.07910156,0.2294922,0.1337891,-0.1674805
1492,39.75,-9.8125,-159.75,-0.4594727,-0.03369141,0.1479492,0.2202148,0.1411133,-0.1699219
1496,13.5,-24.875,-174.5,-0.4365234,0.1137695,0.2021484,0.2138672,0.1499023,-0.1699219
1500,-29.3125,-44.4375,-173.875,-0.2734375,0.01269531,0.2172852,0.2021484,0.1611328,-0.1713867
1504,-52.875,-58.3125,-167.8125,-0.1186523,-0.2548828,0.1787109,0.1879883,0.1738281,-0.1713867
1508,-40.75,-53.125,-183.6875,0.09375,-0.4648438,0.1713867,0.1772461,0.1835938,-0.1699219
1512,-10,-43.6875,-207.1875,0.08642578,-0.5,0.1518555,0.1616211,0.1962891,-0.1713867
1516,5.8125,-42.125,-223.875,0.2104492,-0.2822266,0.2094727,0.1450195,0.2075195,-0.168457
1520,-28.375,-48.25,-236.25,0.159668,0.02832031,0.1982422,0.1318359,0.2148438,-0.1713867
1524,-88.75,-75.75,-223.4375,0.2993164,-0.1733398,0.140625,0.1079102,0.2260742,-0.1699219
1528,-98.75,-85.5625,-210.5625,0.5898438,-0.8066406,0.07910156,0.08691406,0.2387695,-0.1630859
1532,-37.9375,-71,-220.9375,0.8803711,-1.269043,0.1171875,0.07373047,0.2460938,-0.1577148
1536,44.9375,-34,-246.1875,0.9619141,-1.098145,0.1518555,0.05078125,0.2509766,-0.1577148
1540,72.4375,-21.625,-264.8125,0.7373047,-0.5620117,0.1904297,0.02832031,0.2524414,-0.1630859
1544,3.0625,-51.9375,-258.3125,0.574707,0.07861328,0.2060547,0.01074219,0.2509766,-0.1630859
1548,-93.25,-93.5,-217.25,0.9038086,-0.4453125,0.1865234,-0.01269531,0.2524414,-0.1606445
1552,-91,-94.1875,-193.1875,1.260254,-1.249512,0.1674805,-0.03515625,0.2563477,-0.1523438
1556,-5.625,-57.3125,-208.875,1.39209,-1.366211,0.2172852,-0.04833984,0.2573242,-0.144043
1560,76.6875,-10.375,-260.5,1.229492,-0.8647461,0.2172852,-0.07128906,0.2509766,-0.144043
1564,74.625,-16.5,-285.1875,0.8110352,-0.1152344,0.1635742,-0.09472656,0.2426758,-0.1508789
1568,-21.0625,-62.125,-261.9375,1.004395,0.2456055,0.2021484,-0.1113281,0.2348633,-0.1523438
1572,-118.6875,-91.625,-234.125,1.438477,-0.2548828,0.2519531,-0.1352539,0.2285156,-0.1455078
1576,-129.8125,-74.9375,-220.0625,1.926758,-1.08252,0.3291016,-0.1567383,0.2236328,-0.1303711
1580,-70.125,-29.3125,-221.9375,1.922852,-1.385742,0.2441406,-0.1708984,0.2211914,-0.1210938
1584,-20.75,-9.3125,-214.1875,1.492676,-1.121582,0.09814453,-0.1875,0.2084961,-0.1157227
1589,-12.875,-19.25,-201.4375,1.237305,-0.6899414,-0.03222656,-0.203125,0.1962891,-0.1142578
1593,-26.625,-37.5625,-197.625,1.155762,-0.4067383,-0.05517578,-0.2128906,0.1899414,-0.1098633
1597,-48.625,-48.9375,-202.875,1.368652,-0.4257813,0.04052734,-0.2270508,0.1772461,-0.1044922
1601,-71.6875,-43.1875,-194.25,1.616699,-0.7290039,0.2094727,-0.2412109,0.1635742,-0.09765625
1605,-72.1875,-27.4375,-159.875,1.69043,-1.284668,0.2021484,-0.2495117,0.1547852,-0.09375
1609,-19.9375,-10.8125,-121.5625,1.527832,-1.626465,0.09814453,-0.2568359,0.1425781,-0.08837891
1613,43.8125,0.0625,-102.8125,1.275879,-1.467285,0.02490234,-0.2651367,0.1337891,-0.08691406
1617,67.6875,-3.25,-83.8125,1.147949,-1.040039,0.1748047,-0.2700195,0.1298828,-0.09082031
1621,48,-11.6875,-54.875,1.194336,-0.7792969,0.4135742,-0.2724609,0.1210938,-0.09228516
1625,19.125,-9.75,-25.6875,1.283691,-0.7368164,0.5136719,-0.2734375,0.1152344,-0.09375
1629,6.5625,2.875,-13.375,1.248535,-0.7407227,0.4790039,-0.2744141,0.1137695,-0.09228516
1633,6.375,11.8125,-10.6875,1.140137,-0.7949219,0.3828125,-0.2734375,0.1123047,-0.09521484
1637,9.0625,13.0625,2.25,1.109375,-0.8686523,0.3017578,-0.2744141,0.1113281,-0.09521484
1641,14.25,13.875,19.1875,1.140137,-0.8574219,0.2558594,-0.2758789,0.1152344,-0.09765625
1645,14.6875,16.125,38.1875,1.171387,-0.7719727,0.2441406,-0.2724609,0.1137695,-0.09912109
1649,11.1875,18.25,53,1.159668,-0.6591797,0.2368164,-0.2709961,0.1162109,-0.1005859
1653,-0.875,18.75,67.1875,1.155762,-0.5966797,0.2211914,-0.2700195,0.1225586,-0.1035156
1657,-13.3125,20,78.0625,1.171387,-0.6279297,0.1904297,-0.2651367,0.1264648,-0.1035156
1661,-20.3125,19.8125,91.125,1.194336,-0.7485352,0.159668,-0.2626953,0.1347656,-0.1035156
1665,-18.3125,20.125,107.6875,1.233398,-0.8803711,0.1289063,-0.2568359,0.1411133,-0.1044922
1669,-4.0625,21.9375,126.9375,1.287598,-0.9853516,0.1328125,-0.2495117,0.1499023,-0.105957
1673,15.0625,26.5,139.3125,1.299316,-0.9233398,0.1020508,-0.2412109,0.1586914,-0.1074219
1677,19.4375,29.75,148.5,1.326172,-0.7563477,0.1557617,-0.2353516,0.1660156,-0.1088867
1681,10.0625,31.4375,157.75,1.395996,-0.7910156,0.2368164,-0.2255859,0.1772461,-0.112793
1685,9.1875,36,172.875,1.469727,-0.9506836,0.2211914,-0.2114258,0.1850586,-0.1157227
1689,18.6875,38.8125,195.25,1.454102,-1.004883,0.1557617,-0.2045898,0.1938477,-0.1196289
1693,27.5625,35.4375,214.4375,1.415527,-0.9233398,0.125,-0.1875,0.2060547,-0.1235352
1697,40.875,36.75,219.5,1.442383,-0.9194336,0.1713867,-0.1708984,0.2163086,-0.1279297
1701,65.25,46.875,220.9375,1.535645,-1.012695,0.2172852,-0.1591797,0.2211914,-0.1333008
1705,85.3125,61.6875,228.9375,1.458008,-0.8613281,0.2021484,-0.1391602,0.2285156,-0.1401367
1709,69.125,59.25,247.375,1.314453,-0.5581055,0.2480469,-0.1162109,0.2373047,-0.1508789
1713,37.375,49.875,267.125,1.244629,-0.5854492,0.2866211,-0.1020508,0.2397461,-0.15625
1718,24,47.5625,269.4375,1.283691,-0.6513672,0.340332,-0.07568359,0.2436523,-0.1616211
1722,24.5,63,250.1875,1.291504,-0.6162109,0.375,-0.05078125,0.2485352,-0.1660156
1726,-12.4375,64.4375,242.4375,1.159668,-0.5541992,0.3867188,-0.03515625,0.25,-0.1674805
1730,-51.0625,50.75,271.8125,0.9541016,-0.7680664,0.2905273,-0.01025391,0.2509766,-0.1674805
1734,-60.8125,38.875,285.3125,0.9038086,-0.9272461,0.1943359,0.01660156,0.2509766,-0.1616211
1738,-46.5625,37.25,284.1875,0.8417969,-1.090332,0.09033203,0.03417969,0.2509766,-0.1606445
1742,17.4375,43.5,275.0625,0.7099609,-1.183594,-0.03222656,0.06152344,0.25,-0.1591797
1746,69.1875,49.3125,250.5,0.6401367,-0.8222656,-0.04394531,0.08691406,0.2397461,-0.1616211
1750,83.5,47.4375,238.6875,0.4428711,-0.3364258,0.04785156,0.1010742,0.2314453,-0.1645508
1754,64.125,40.125,232.6875,0.3999023,-0.1733398,0.08251953,0.1210938,0.2172852,-0.1728516
1758,33.375,26.8125,235.375,0.2954102,-0.1152344,0.1171875,0.1416016,0.2075195,-0.1767578
1762,17.875,18.1875,236.125,0.2294922,-0.1616211,0.105957,0.1547852,0.1987305,-0.175293
1766,25.5,14.875,217.1875,0.1557617,-0.2822266,0.08251953,0.1738281,0.1811523,-0.1782227
1770,52.0625,15.4375,191,0.03955078,-0.2705078,0.05957031,0.1889648,0.1689453,-0.1796875
1774,75.875,19,171.8125,-0.08398438,0.05126953,0.08642578,0.1962891,0.1577148,-0.1821289
1778,63.4375,18.8125,159.75,-0.2192383,0.3818359,0.1674805,0.2080078,0.1435547,-0.1865234
1782,45.6875,13,143.1875,-0.5644531,0.6225586,0.1713867,0.2177734,0.1298828,-0.1904297
1786,25.5625,-2.125,116.3125,-0.7578125,0.8481445,0.1943359,0.2236328,0.1210938,-0.1889648
1790,14.875,-10.5625,70.6875,-0.8085938,0.9760742,0.2290039,0.2270508,0.1123047,-0.1928711
1794,1.5625,-12.375,15,-0.7734375,0.9453125,0.3095703,0.2294922,0.1088867,-0.1943359
1798,-9.4375,-10.3125,-25.75,-0.6884766,0.7431641,0.3291016,0.2294922,0.1088867,-0.1918945
1802,-16.625,-8.8125,-58.25,-0.6650391,0.5410156,0.3173828,0.2270508,0.1123047,-0.1904297
1806,-23.625,-7.125,-90.5,-0.5722656,0.3935547,0.3173828,0.222168,0.1176758,-0.1928711
1810,-36.375,-8.1875,-116.5,-0.5102539,0.1679688,0.2983398,0.21875,0.125,-0.1904297
1814,-46,-13.5625,-130.375,-0.4169922,-0.1420898,0.2709961,0.2119141,0.1337891,-0.1889648
1818,-45.6875,-16.625,-133,-0.3393555,-0.4101563,0.2060547,0.2021484,0.1459961,-0.1889648
1822,-30.1875,-18.5,-139.875,-0.3164063,-0.4648438,0.1748047,0.1972656,0.1538086,-0.1889648
1826,-13.375,-20.9375,-150.25,-0.2270508,-0.3911133,0.2060547,0.1865234,0.1635742,-0.1875
1830,-20.875,-19.5625,-162.4375,-0.1342773,-0.355957,0.2749023,0.1772461,0.1738281,-0.1850586
1834,-31.375,-24.8125,-167.3125,-0.1381836,-0.4257813,0.2558594,0.1689453,0.1811523,-0.1865234
1838,-27.1875,-24.375,-168.25,-0.01806641,-0.565918,0.2211914,0.1547852,0.1923828,-0.1835938
1842,-8.5,-25.5625,-173.4375,-0.08007813,-0.5268555,0.1635742,0.1391602,0.2011719,-0.1835938
1847,-3.5,-37.0625,-177.3125,-0.08007813,-0.3637695,0.1479492,0.1318359,0.2075195,-0.1835938
1851,-13.0625,-54.3125,-181.25,-0.01025391,-0.2353516,0.1787109,0.1166992,0.2163086,-0.1821289
1855,-32.1875,-64,-197,0.2104492,-0.2314453,0.2250977,0.09765625,0.2226563,-0.1821289
1859,-35.8125,-62.125,-205.3125,0.4194336,-0.5698242,0.1865234,0.08300781,0.2285156,-0.1835938
1863,-15.875,-60.5625,-203.5625,0.4506836,-0.8183594,0.125,0.06298828,0.2348633,-0.1806641
1867,6.625,-73.0625,-188.3125,0.4233398,-0.8105469,0.06738281,0.04492188,0.2412109,-0.1796875
1871,5.3125,-87,-188.625,0.5859375,-0.3520508,0.2133789,0.03076172,0.2426758,-0.1806641
1875,-49.1875,-89.125,-208.5,0.8574219,-0.1850586,0.2749023,0.01074219,0.2426758,-0.1782227
1879,-90.5,-83.1875,-218.8125,0.9541016,-0.4882813,0.2329102,-0.01171875,0.2485352,-0.1738281
1883,-86.625,-76.3125,-223.9375,1.097656,-0.9892578,0.1479492,-0.02685547,0.25,-0.1645508
1887,-34.875,-58.8125,-219.375,1.082031,-1.257324,0.07128906,-0.04980469,0.2524414,-0.1591797
1891,22.4375,-48.9375,-215.8125,0.8881836,-1.012695,0.01708984,-0.06982422,0.2485352,-0.1547852
1895,29.5,-65.3125,-217.0625,0.7021484,-0.4067383,-0.005371094,-0.08544922,0.2451172,-0.1523438
1899,-17.6875,-91.875,-216.75,0.9853516,-0.1499023,0.1020508,-0.1054688,0.2387695,-0.1523438
1903,-58.625,-90.6875,-227.125,1.233398,-0.3637695,0.1132813,-0.1269531,0.2324219,-0.144043
1907,-51.8125,-82.875,-242.25,1.395996,-0.8105469,0.144043,-0.1450195,0.2275391,-0.1401367
1911,-10,-60,-241.375,1.504395,-1.008789,0.1748047,-0.1640625,0.2172852,-0.1347656
1915,36.8125,-43.75,-230.125,1.333984,-0.8222656,0.1748047,-0.1855469,0.2060547,-0.1318359
1919,54.25,-42.5625,-230.125,1.194336,-0.3598633,0.125,-0.1972656,0.1962891,-0.1333008
1923,21.6875,-52,-225,1.237305,0.03222656,0.1171875,-0.2138672,0.1787109,-0.1303711
1927,-40.6875,-67.625,-214.6875,1.345703,-0.05273438,0.1479492,-0.2294922,0.1660156,-0.125
1931,-75.9375,-74.625,-206.25,1.597656,-0.4804688,0.1635742,-0.2387695,0.15625,-0.1196289
1935,-68.9375,-64.5,-195.25,1.798828,-0.8066406,0.1787109,-0.253418,0.1425781,-0.1098633
1939,-37.125,-41.8125,-179.375,1.794922,-0.9389648,0.1674805,-0.2636719,0.1274414,-0.1020508
1943,-12.6875,-27.3125,-160.1875,1.597656,-0.8222656,0.1098633,-0.2709961,0.1186523,-0.09667969
1947,0.1875,-24.1875,-143.4375,1.458008,-0.7368164,0.105957,-0.2792969,0.1064453,-0.09667969
1951,2.8125,-24.5,-128.875,1.419434,-0.7133789,0.2133789,-0.2851563,0.09228516,-0.09375
1955,-0.25,-24.3125,-108.625,1.454102,-0.7368164,0.3212891,-0.2866211,0.08642578,-0.09082031
1959,-10.9375,-17.8125,-78.0625,1.550781,-0.8144531,0.3945313,-0.2915039,0.07763672,-0.08984375
1963,-18.3125,-8.5,-43.1875,1.523926,-1.000977,0.3945313,-0.293457,0.07275391,-0.08984375
1967,-11.5,0,-11,1.446289,-1.140625,0.3520508,-0.2958984,0.06982422,-0.08837891
1971,5.8125,7.9375,13.8125,1.384277,-1.102051,0.3212891,-0.2949219,0.06884766,-0.08837891
1976,10.4375,13,36.5625,1.357422,-0.9116211,0.2827148,-0.2949219,0.07275391,-0.08837891
1980,1.5,14.4375,59.5,1.322266,-0.8027344,0.2329102,-0.293457,0.07519531,-0.09082031
1984,-6.5625,15.625,81.3125,1.345703,-0.7792969,0.2021484,-0.2900391,0.07861328,-0.09082031
1988,-10.625,21.25,101.6875,1.364746,-0.7641602,0.159668,-0.2866211,0.08886719,-0.09375
1992,-10.4375,23.6875,119.8125,1.330078,-0.7753906,0.125,-0.2851563,0.09375,-0.09667969
1996,-5.4375,25.3125,130.3125,1.372559,-0.8144531,0.08642578,-0.2768555,0.1064453,-0.09521484
2000,7.375,29,140,1.419434,-0.8959961,0.07519531,-0.2724609,0.1186523,-0.1005859
2004,25.125,35.0625,148.5625,1.539551,-0.9428711,0.08251953,-0.2685547,0.1264648,-0.09912109
2008,30.625,41.4375,170,1.531738,-0.7988281,0.04785156,-0.2568359,0.1386719,-0.1044922
2012,19.625,35.4375,195,1.5625,-0.7055664,0.07910156,-0.2470703,0.1523438,-0.1088867
2016,10.375,36.8125,211,1.694336,-0.7485352,0.125,-0.2387695,0.1611328,-0.1113281
2020,17.625,43.4375,222.5625,1.666992,-0.8613281,0.08642578,-0.2246094,0.1748047,-0.1157227
2024,38.25,50.4375,228.75,1.628418,-0.8842773,0.06738281,-0.206543,0.1899414,-0.1210938
2028,49.125,54.75,231.5,1.5625,-0.7485352,0.05566406,-0.1948242,0.2001953,-0.1264648
2032,46.875,55.5,243.9375,1.46582,-0.6821289,0.05566406,-0.1772461,0.2099609,-0.1333008
2036,46.8125,50.9375,251.5625,1.380371,-0.7055664,0.06347656,-0.1567383,0.2226563,-0.1401367
2040,54.1875,54.875,249.125,1.357422,-0.5966797,0.07910156,-0.1425781,0.2275391,-0.144043
2044,50.8125,55.5,244.375,1.233398,-0.4960938,0.09814453,-0.1186523,0.2348633,-0.1538086
2048,37.6875,52.3125,238.875,1.206055,-0.5,0.1132813,-0.09619141,0.2387695,-0.1577148
2052,23.125,48.4375,245.25,1.128418,-0.5307617,0.105957,-0.08056641,0.2426758,-0.1630859
2056,13.125,42.5625,247.9375,1.070313,-0.550293,0.1210938,-0.05810547,0.2460938,-0.1674805
2060,15.4375,43.5625,244.4375,0.9853516,-0.6357422,0.08251953,-0.03662109,0.25,-0.168457
2064,35.75,45.5,235.0625,0.9350586,-0.6860352,0.09423828,-0.01855469,0.2485352,-0.1699219
2068,58,52.25,221.1875,0.8842773,-0.5776367,0.09033203,0.0009765625,0.2451172,-0.175293
2072,60.625,54.5625,213.9375,0.7602539,-0.4140625,0.07910156,0.0234375,0.2426758,-0.1796875
2076,39.9375,45.0625,220.75,0.644043,-0.2978516,0.09423828,0.03808594,0.2363281,-0.1850586
2080,26.1875,37.75,228.5625,0.5239258,-0.2861328,0.1098633,0.05810547,0.2324219,-0.1889648
2084,15.8125,30.8125,220.375,0.5356445,-0.3950195,0.1171875,0.07861328,0.2250977,-0.1904297
2088,27.75,32.375,214.4375,0.4697266,-0.503418,0.1210938,0.09130859,0.2197266,-0.1918945
2092,55.25,41.875,197.0625,0.4428711,-0.4960938,0.1171875,0.1069336,0.2114258,-0.1928711
2096,64.8125,48.25,180.1875,0.2875977,-0.2392578,0.125,0.1269531,0.1987305,-0.1972656
2100,42.8125,41.25,176.5625,0.1674805,-0.1459961,0.1787109,0.1376953,0.1923828,-0.199707
2105,19.25,30.875,178.875,0.05126953,-0.2431641,0.2060547,0.1523438,0.1826172,-0.199707
2109,19.5,27,176.1875,-0.04492188,-0.3364258,0.2172852,0.1650391,0.1699219,-0.2026367
2113,32.8125,29.75,168.625,-0.2080078,-0.2163086,0.2094727,0.1757813,0.1635742,-0.199707
2117,49.5,29.3125,157.125,-0.4711914,0.08251953,0.2211914,0.1865234,0.1499023,-0.2041016
2121,64.1875,33.375,125.875,-0.6342773,0.3935547,0.2749023,0.1962891,0.1401367,-0.2026367
2125,67.125,29.5625,79.3125,-0.8935547,0.7236328,0.2597656,0.2021484,0.1313477,-0.2055664
2129,39.6875,15.8125,40.9375,-0.9985352,1.022949,0.355957,0.2070313,0.1235352,-0.206543
2133,-0.625,1.9375,10.4375,-0.9711914,0.987793,0.3979492,0.2104492,0.1201172,-0.2094727
2137,-25,-7.1875,-27,-0.8818359,0.7856445,0.375,0.2094727,0.1201172,-0.2055664
2141,-37.125,-7.25,-73.8125,-0.6845703,0.5175781,0.3828125,0.2080078,0.1264648,-0.206543
2145,-49.625,-7.3125,-109.25,-0.5371094,0.2651367,0.3979492,0.203125,0.1323242,-0.2055664
2149,-73.125,-9.0625,-124.375,-0.3164063,-0.08789063,0.390625,0.1972656,0.1401367,-0.2026367
2153,-79.4375,-9,-121,-0.2661133,-0.4882813,0.3095703,0.1904297,0.1523438,-0.1972656
2157,-55,-3.0625,-119.5625,-0.2080078,-0.7133789,0.2402344,0.1821289,0.1650391,-0.1918945
2161,-25.6875,3,-129.875,-0.2001953,-0.6630859,0.2519531,0.1757813,0.1713867,-0.1918945
2165,-3.875,9.25,-138.8125,-0.1806641,-0.5268555,0.2441406,0.1665039,0.1801758,-0.1889648
2169,3.3125,8.5625,-153,-0.2192383,-0.2392578,0.2480469,0.1567383,0.1875,-0.1904297
2173,-21.75,-1.4375,-169.375,-0.1420898,-0.08398438,0.2866211,0.1499023,0.1938477,-0.1875
2177,-55.0625,-13.5625,-171.375,-0.02978516,-0.2163086,0.2480469,0.1357422,0.2026367,-0.1865234
2181,-66.625,-20.5625,-162.125,0.03955078,-0.519043,0.140625,0.1225586,0.2124023,-0.1806641
2185,-39.625,-25.3125,-158.9375,0.07861328,-0.7211914,0.05957031,0.112793,0.2226563,-0.1767578
2189,-1.8125,-32.125,-162.8125,0.08642578,-0.7016602,0.009765625,0.09960938,0.2275391,-0.1767578
2193,23.875,-37.375,-175.8125,0.1948242,-0.4140625,0.06738281,0.08447266,0.2324219,-0.1782227
2197,10.75,-41.875,-197.8125,0.3457031,-0.1113281,0.1674805,0.07373047,0.2348633,-0.1782227
2201,-24.5625,-43.75,-221.8125,0.4467773,-0.03759766,0.159668,0.05322266,0.2397461,-0.1767578
2205,-48.125,-50.6875,-236.3125,0.6289063,-0.3911133,0.1210938,0.03173828,0.2460938,-0.1738281
2209,-33.8125,-48.625,-236.5,0.7529297,-0.7446289,0.05175781,0.01660156,0.2475586,-0.1728516
2213,-29.75,-62.625,-229.875,0.7255859,-0.6005859,0.01708984,-0.006835938,0.2509766,-0.1674805
2217,-49.125,-82.25,-207.125,0.8803711,-0.565918,-0.001464844,-0.02832031,0.2509766,-0.1630859
2221,-56.4375,-85.1875,-204.0625,1.140137,-0.6474609,0.08251953,-0.04248047,0.2509766,-0.1606445
2225,-21.5,-54.1875,-235.4375,1.341797,-0.7871094,0.140625,-0.06298828,0.25,-0.1523438
2229,25.125,-24.0625,-265.5625,1.186523,-0.6938477,0.1098633,-0.08789063,0.2451172,-0.1494141
2234,42,-22.625,-277.0625,1.023926,-0.2822266,0.09423828,-0.1044922,0.2397461,-0.1523438
2238,-39.125,-64.75,-266.875,1.016113,0.269043,0.07519531,-0.128418,0.2314453,-0.1523438
2242,-140.5625,-111.25,-229.375,1.492676,-0.1889648,0.01708984,-0.1518555,0.2211914,-0.1401367
2246,-173,-111.25,-203.0625,1.833984,-1.385742,-0.05517578,-0.1650391,0.2211914,-0.1264648
2250,-107.5625,-67.375,-205.5625,2.124512,-1.606934,0.03271484,-0.184082,0.2138672,-0.1074219
2254,-9.625,-14.0625,-212.8125,1.907715,-1.564453,0.04785156,-0.2021484,0.2026367,-0.1005859
2258,47.0625,1.75,-209.8125,1.318359,-0.9775391,-0.04394531,-0.2128906,0.1938477,-0.1020508
2262,42.4375,-23.25,-200.625,0.9350586,-0.3754883,-0.0859375,-0.2270508,0.1801758,-0.1005859
2266,4.625,-65.5,-198.75,0.9389648,-0.1308594,-0.02832031,-0.2402344,0.1635742,-0.1020508
2270,-26.6875,-85.75,-203.0625,1.322266,-0.2431641,0.1328125,-0.2485352,0.1523438,-0.09765625
2274,-32.875,-68.375,-201.5,1.678711,-0.46875,0.2675781,-0.2602539,0.1376953,-0.08837891
2278,-22,-38.875,-197.4375,1.740723,-0.5966797,0.3095703,-0.2709961,0.1225586,-0.08447266
2282,-13.75,-14.875,-182.8125,1.651855,-0.6435547,0.2749023,-0.2792969,0.1113281,-0.08007813
2286,-4.625,-2.3125,-166.8125,1.574219,-0.6552734,0.2060547,-0.2866211,0.09375,-0.08154297
2290,-7.1875,2.875,-149.375,1.450195,-0.6318359,0.1367188,-0.293457,0.08105469,-0.07861328
2294,-19.3125,-8.1875,-126,1.357422,-0.6591797,0.1289063,-0.2973633,0.07128906,-0.07861328
2298,-36.5625,-19,-98.3125,1.446289,-0.7719727,0.1635742,-0.3017578,0.0625,-0.08007813
2302,-44.5625,-18.375,-52.6875,1.640137,-0.9619141,0.2290039,-0.3041992,0.05371094,-0.07324219
2306,-38.5,-4.125,-1.5,1.640137,-1.102051,0.2519531,-0.3032227,0.05126953,-0.07470703
2310,-15.375,13.6875,32.0625,1.543457,-1.047363,0.159668,-0.3066406,0.05371094,-0.07177734
2314,4.625,25.375,51.4375,1.368652,-0.8647461,0.05957031,-0.3032227,0.05615234,-0.07324219
2318,12.75,26.9375,63.1875,1.291504,-0.6669922,0.02880859,-0.3007813,0.0625,-0.07617188
2322,7.0625,23.75,76.125,1.244629,-0.5776367,0.02490234,-0.2983398,0.06884766,-0.07763672
2326,-2.875,16.125,100.1875,1.271973,-0.5620117,0.05957031,-0.2973633,0.07617188,-0.07861328
2330,-5.25,15.9375,117.3125,1.302734,-0.5776367,0.05957031,-0.293457,0.08105469,-0.08007813
2334,1.5,20.125,119.4375,1.407715,-0.5854492,0.08251953,-0.2875977,0.08984375,-0.08300781
2338,9.625,31.3125,127.75,1.458008,-0.6513672,0.06347656,-0.2827148,0.1025391,-0.08544922
2342,24.625,39.5625,138.5625,1.403809,-0.6591797,0.04052734,-0.2792969,0.1113281,-0.08544922
2346,30.3125,41.1875,148.125,1.380371,-0.534668,0.02880859,-0.2700195,0.1210938,-0.08984375
2350,19.4375,36.0625,161.5,1.395996,-0.4492188,0.06347656,-0.2626953,0.1337891,-0.09667969
2354,6.0625,30.875,176.25,1.426758,-0.534668,0.08642578,-0.2568359,0.1435547,-0.09667969
2358,6.25,29.8125,189.0625,1.469727,-0.6357422,0.125,-0.2446289,0.1577148,-0.1020508
2363,22.1875,37.25,195.5625,1.500488,-0.7250977,0.1020508,-0.2319336,0.1713867,-0.1035156
2367,42.375,47.25,197.5,1.481445,-0.6669922,0.08251953,-0.222168,0.1787109,-0.1088867
2371,48.75,53.375,200.8125,1.395996,-0.5463867,0.06347656,-0.2089844,0.1923828,-0.1157227
2375,36.9375,46.375,211.625,1.330078,-0.4648438,0.09033203,-0.1923828,0.2026367,-0.1235352
2379,20.75,41.8125,222.5625,1.364746,-0.4804688,0.1098633,-0.1816406,0.2114258,-0.1279297
2383,16.875,41,231.25,1.260254,-0.5776367,0.1020508,-0.1640625,0.2211914,-0.1303711
2387,23.25,38,232.1875,1.155762,-0.5737305,0.08251953,-0.1425781,0.2324219,-0.1357422
2391,26.5625,36.1875,228.4375,1.140137,-0.5927734,0.08642578,-0.128418,0.2363281,-0.1357422
2395,31.9375,37.625,223.6875,1.109375,-0.5893555,0.08642578,-0.1069336,0.2436523,-0.1416016
2399,39.9375,42.9375,220.3125,1.113281,-0.6357422,0.09423828,-0.08544922,0.2485352,-0.1455078
2403,40.5625,44.4375,217.75,0.9853516,-0.5385742,0.07910156,-0.07324219,0.25,-0.1494141
2407,30.625,38.375,226.5,0.9350586,-0.6162109,0.07519531,-0.05224609,0.2524414,-0.15625
2411,29.875,32.8125,234.0625,0.9077148,-0.7368164,0.08251953,-0.02929688,0.2539063,-0.1591797
2415,49.0625,40.25,234.5625,0.8881836,-0.7094727,0.09423828,-0.01757813,0.2509766,-0.1616211
2419,58.375,44.6875,223.9375,0.7568359,-0.6318359,0.09814453,0.005859375,0.2485352,-0.1674805
2423,50.9375,41.4375,214.625,0.6479492,-0.421875,0.1171875,0.02734375,0.2436523,-0.1738281
2427,30.25,36.25,224,0.6362305,-0.5581055,0.1289063,0.04150391,0.2426758,-0.175293
2431,25.75,33.75,228.9375,0.559082,-0.6396484,0.140625,0.06298828,0.2373047,-0.1796875
2435,22,33.625,230.5625,0.5395508,-0.5385742,0.1865234,0.08300781,0.2299805,-0.1821289
2439,15.125,31.375,228.125,0.5161133,-0.6435547,0.2250977,0.09619141,0.2250977,-0.1821289
2443,23.8125,42.875,230,0.5239258,-0.7016602,0.2402344,0.1176758,0.2138672,-0.1850586
2447,39.375,59.5,236.4375,0.625,-0.7602539,0.3095703,0.1376953,0.2026367,-0.1850586
2451,55.4375,104.125,259.0625,0.7954102,-0.5966797,0.355957,0.1523438,0.1923828,-0.1850586
2455,71.375,138.4375,271.75,0.2836914,-0.4765625,0.2368164,0.1757813,0.1762695,-0.1850586
2459,101.8125,125.625,255.0625,-0.5410156,-0.2241211,-0.04736328,0.2011719,0.1523438,-0.1821289
2463,109.8125,89.6875,230.5625,-0.8164063,0.269043,-0.04736328,0.2138672,0.1401367,-0.1821289
2467,81.5,50.875,210.0625,-0.8549805,0.6069336,0.005859375,0.2285156,0.1176758,-0.1821289
2471,33.9375,20.875,179.6875,-0.9907227,1.108398,0.06347656,0.2402344,0.09863281,-0.1835938
2475,-10.625,-15.625,141.6875,-1.087402,1.019043,0.09423828,0.2460938,0.08984375,-0.1835938
2479,-29.875,-31,88.375,-0.8125,0.7666016,0.2675781,0.2509766,0.07861328,-0.1850586
2483,-25.0625,-17.125,31.625,-0.6611328,0.5058594,0.3134766,0.2519531,0.07519531,-0.1865234
2487,-9.5625,-8.1875,-3.25,-0.7231445,0.2573242,0.2636719,0.2519531,0.07617188,-0.1875
2492,7.6875,-9.25,-31.375,-0.7578125,0.1835938,0.2480469,0.2519531,0.07763672,-0.1865234
2496,7.9375,-9.1875,-60,-0.6650391,0.1757813,0.3095703,0.25,0.07861328,-0.1889648
2500,-12.75,-13.9375,-82.6875,-0.6455078,0.08251953,0.3945313,0.2475586,0.08398438,-0.1904297
2504,-45.3125,-21.1875,-98,-0.4946289,-0.1269531,0.4326172,0.2426758,0.09130859,-0.1889648
2508,-68.1875,-20.4375,-96.875,-0.3706055,-0.4179688,0.3979492,0.2392578,0.1010742,-0.1889648
2512,-62.6875,-16.25,-87.0625,-0.3974609,-0.6748047,0.3134766,0.234375,0.1088867,-0.1865234
2516,-37.8125,-14.0625,-90.6875,-0.5102539,-0.9233398,0.2905273,0.2294922,0.1201172,-0.1835938
2520,-26.875,-9.625,-110.375,-0.347168,-0.4648438,0.3520508,0.2246094,0.1274414,-0.1835938
2524,-30.0625,-6.25,-112.875,-0.378418,-0.371582,0.3442383,0.2202148,0.1337891,-0.1835938
2528,-37,-8,-115.625,-0.3549805,-0.2900391,0.3330078,0.2119141,0.1435547,-0.1806641
2532,-33.1875,-4.875,-130.5625,-0.3745117,-0.2705078,0.2558594,0.2045898,0.1538086,-0.1782227
2536,-25.0625,-6.125,-151.8125,-0.3745117,-0.1694336,0.1982422,0.1987305,0.1611328,-0.1767578
2540,-19.6875,-10.1875,-171.875,-0.328125,-0.1420898,0.1518555,0.1865234,0.1713867,-0.1738281
2544,-13.3125,-18.3125,-189.125,-0.2426758,-0.1113281,0.125,0.1738281,0.1850586,-0.1728516
2548,-8.625,-21.9375,-207.875,-0.1225586,-0.08007813,0.1132813,0.1640625,0.1914063,-0.1728516
2552,-6.125,-27.625,-229.375,-0.02197266,-0.06445313,0.1171875,0.1459961,0.2036133,-0.1738281
2556,-10.5625,-35.9375,-247.5625,0.08251953,-0.06835938,0.09423828,0.1259766,0.2148438,-0.1728516
2560,-23.5625,-49.3125,-258.6875,0.2373047,-0.1074219,0.09033203,0.1118164,0.2226563,-0.1728516
2564,-40.6875,-64.8125,-258.5,0.3925781,-0.1928711,0.07128906,0.08886719,0.2324219,-0.1713867
2568,-62.875,-80.625,-256.1875,0.59375,-0.2275391,0.08251953,0.06396484,0.2426758,-0.168457
2572,-82.5,-83.3125,-259.4375,0.9541016,-0.3793945,0.1367188,0.04736328,0.25,-0.1645508
2576,-78.625,-61.375,-282,1.140137,-0.5307617,0.125,0.01757813,0.2548828,-0.1547852
2580,-63.625,-45.875,-297.4375,1.19043,-0.6938477,0.1020508,-0.009277344,0.2597656,-0.1494141
2584,-43.9375,-36.375,-291.5,1.206055,-0.7485352,0.06738281,-0.02832031,0.2597656,-0.1425781
2588,-31.25,-39.4375,-277.625,1.128418,-0.7055664,0.01708984,-0.05566406,0.2573242,-0.1386719
2592,-15.6875,-46.4375,-270.1875,1.121094,-0.5966797,0.001953125,-0.07958984,0.2548828,-0.1347656
2596,-28.5625,-62.4375,-277.5,1.147949,-0.2241211,-0.01318359,-0.09716797,0.25,-0.1318359
2600,-54.125,-78.6875,-289.9375,1.430664,-0.2241211,0.04052734,-0.1245117,0.2426758,-0.125
2604,-71,-76.125,-320.125,1.612793,-0.3134766,-0.001464844,-0.1518555,0.2324219,-0.1157227
2608,-74.75,-80.375,-341.75,1.729004,-0.581543,-0.05908203,-0.1723633,0.2226563,-0.1088867
2612,-52.75,-76.0625,-331.8125,1.841797,-0.8959961,-0.1015625,-0.199707,0.2050781,-0.09765625
2616,-8.875,-66.1875,-311.3125,1.768066,-0.9697266,-0.1054688,-0.2246094,0.1850586,-0.08837891
2621,39.8125,-55.9375,-294.625,1.698242,-0.7988281,-0.07861328,-0.2387695,0.1713867,-0.08691406
2625,69.625,-46.5625,-289.625,1.682617,-0.4492188,-0.02441406,-0.2568359,0.1450195,-0.08691406
2629,62.0625,-40.75,-273.6875,1.771973,-0.1420898,0.07128906,-0.2734375,0.1210938,-0.08544922
2633,23.4375,-42.0625,-240.25,1.779785,-0.07617188,0.1904297,-0.2792969,0.1074219,-0.08544922
2637,-25,-45.6875,-192.4375,1.791016,-0.2045898,0.2133789,-0.293457,0.08496094,-0.07861328
2641,-49.5625,-39.8125,-154.75,1.794922,-0.453125,0.1674805,-0.2983398,0.06884766,-0.07617188
2645,-41.5625,-26,-134.8125,1.706055,-0.6938477,0.1367188,-0.3032227,0.06103516,-0.07470703
2649,-17.125,-8.625,-119.8125,1.655762,-0.7563477,0.140625,-0.3066406,0.04882813,-0.07324219
2653,-3.0625,-2.6875,-95.5,1.450195,-0.7290039,0.144043,-0.3105469,0.03613281,-0.06787109
2657,9.6875,-5.0625,-71.125,1.395996,-0.6591797,0.1713867,-0.3105469,0.03271484,-0.06933594
2661,22.8125,0.875,-53.9375,1.39209,-0.5927734,0.2402344,-0.3125,0.02734375,-0.06787109
2665,35.1875,9.5625,-45,1.349609,-0.5,0.2636719,-0.3149414,0.02001953,-0.07177734
2669,35.25,17.3125,-38.4375,1.361328,-0.3442383,0.2558594,-0.3149414,0.01757813,-0.07177734
2673,20.75,23.75,-26.0625,1.349609,-0.2822266,0.2094727,-0.3139648,0.01269531,-0.07617188
2677,0.375,26.8125,-6.9375,1.349609,-0.2939453,0.144043,-0.3125,0.008789063,-0.07617188
2681,-19.375,25.625,19.4375,1.318359,-0.3989258,0.06738281,-0.3139648,0.01025391,-0.07861328
2685,-27.3125,19.6875,47,1.275879,-0.5151367,0.02099609,-0.3125,0.01269531,-0.07861328
2689,-24,14.75,67.5625,1.279785,-0.5268555,-0.009277344,-0.3115234,0.01855469,-0.08154297
2693,-18.8125,12,80.8125,1.318359,-0.5151367,-0.005371094,-0.3115234,0.02392578,-0.08154297
2697,-17.1875,11.0625,90.75,1.411621,-0.5,0.02880859,-0.309082,0.03369141,-0.08154297
2701,-21.4375,13.9375,107.9375,1.481445,-0.550293,0.05957031,-0.3056641,0.04248047,-0.08154297
2705,-23.25,12.6875,134.5,1.512207,-0.6279297,0.06347656,-0.3032227,0.05126953,-0.08300781
2709,-14.25,14.75,161.75,1.570313,-0.6748047,0.04443359,-0.2998047,0.06494141,-0.08544922
2713,3.9375,19.625,170.75,1.574219,-0.6630859,0.04052734,-0.2924805,0.08007813,-0.08544922
2717,22.875,25.6875,174.3125,1.616699,-0.6591797,0.04052734,-0.2875977,0.08984375,-0.08544922
2721,36.5,34.375,184.4375,1.713867,-0.6357422,0.06738281,-0.2792969,0.1049805,-0.08984375
2725,44.25,46.625,198.875,1.775879,-0.5776367,0.1020508,-0.2709961,0.1225586,-0.09521484
2729,39.1875,53.8125,217.125,1.709961,-0.4960938,0.105957,-0.2617188,0.1313477,-0.09912109
2733,29.75,49.875,233.25,1.663574,-0.4921875,0.09033203,-0.2495117,0.1459961,-0.1074219
2737,20.875,45.375,248.5,1.663574,-0.4882813,0.1132813,-0.2329102,0.1650391,-0.1113281
2741,14.3125,41.625,260.6875,1.674805,-0.5307617,0.1020508,-0.222168,0.1762695,-0.1157227
2745,13.125,45.125,269.0625,1.713867,-0.5698242,0.1171875,-0.2045898,0.1938477,-0.1196289
2750,19.8125,52.3125,282.1875,1.640137,-0.6552734,0.05566406,-0.1831055,0.2099609,-0.125
2754,31.1875,53.75,289.875,1.539551,-0.5541992,0.04785156,-0.1650391,0.2197266,-0.1289063
2758,31.875,56.875,288.0625,1.500488,-0.4414063,0.05957031,-0.1425781,0.2338867,-0.1347656
2762,30.6875,57.4375,291.5,1.302734,-0.4726563,0.01367188,-0.1152344,0.2412109,-0.1401367
2766,34.75,53.3125,291.375,1.217773,-0.4804688,0.01367188,-0.09863281,0.2475586,-0.1455078
2770,47.5,56.125,287,1.237305,-0.484375,0.03271484,-0.06982422,0.2524414,-0.1484375
2774,61.8125,66.9375,275.6875,1.144043,-0.4375,0.01367188,-0.04394531,0.2548828,-0.1577148
2778,67.3125,64.5,272,0.9350586,-0.3598633,0.005859375,-0.02587891,0.2539063,-0.1616211
2782,47.8125,47.1875,272.875,0.8959961,-0.2822266,0.03271484,0,0.25,-0.168457
2786,38.1875,45.6875,273.0625,0.9272461,-0.3442383,0.09423828,0.02832031,0.2451172,-0.1699219
2790,38.1875,50,274.0625,0.8691406,-0.5268555,0.07128906,0.04492188,0.2412109,-0.1767578
2794,63.8125,58.3125,276.8125,0.6791992,-0.503418,0.02099609,0.07128906,0.2324219,-0.1796875
2798,86.125,58.0625,266,0.59375,-0.453125,0.01367188,0.09619141,0.2236328,-0.1850586
2802,102.8125,68.75,255.4375,0.5551758,-0.2353516,0.05957031,0.1118164,0.2138672,-0.1904297
2806,91.8125,71.625,249.0625,0.3305664,0.02832031,0.1171875,0.1342773,0.1948242,-0.1943359
2810,64.125,60.75,250.25,0.02441406,0.07080078,0.1020508,0.1567383,0.1772461,-0.1987305
2814,55.375,42.875,247.25,-0.246582,0.01660156,0.06738281,0.1699219,0.1689453,-0.1987305
2818,71,32.875,232.9375,-0.3549805,-0.002441406,0.04443359,0.1879883,0.1499023,-0.2026367
2822,107.75,29.9375,198.8125,-0.4169922,0.1914063,0.03662109,0.2011719,0.1298828,-0.2055664
2826,138.4375,33.375,152.625,-0.5214844,0.6962891,0.02099609,0.2119141,0.1186523,-0.2109375
2830,137.6875,26.3125,106.0625,-0.862793,0.9956055,0.105957,0.21875,0.09863281,-0.2148438
2834,89.9375,8.75,53.9375,-1.021484,1.426758,0.2172852,0.2246094,0.08496094,-0.2216797
2838,12.25,-14.3125,7.875,-0.9633789,1.418945,0.3789063,0.2260742,0.08105469,-0.2202148
2842,-52.375,-25.625,-30.8125,-0.78125,0.9995117,0.4018555,0.2246094,0.08251953,-0.2202148
2846,-76.875,-25.875,-68.4375,-0.6147461,0.5214844,0.3789063,0.2211914,0.08886719,-0.2202148
2850,-76.5,-22.3125,-105.3125,-0.4946289,0.1098633,0.3979492,0.215332,0.09521484,-0.2163086
2854,-72.875,-19.375,-128.875,-0.3320313,-0.2353516,0.4365234,0.2104492,0.1088867,-0.2163086
2858,-65.625,-16.125,-126.9375,-0.2348633,-0.519043,0.3945313,0.203125,0.1210938,-0.2133789
2862,-48,-14,-116.375,-0.2773438,-0.6552734,0.3095703,0.1972656,0.1298828,-0.2119141
2866,-26.0625,-17.4375,-118.4375,-0.3007813,-0.6240234,0.2866211,0.1904297,0.1401367,-0.2094727
2870,-11.0625,-15.8125,-138.375,-0.2080078,-0.4609375,0.3134766,0.1821289,0.1489258,-0.2094727
2874,-15.25,-14.1875,-151.0625,-0.1689453,-0.324707,0.3481445,0.1748047,0.15625,-0.2109375
2879,-36.6875,-21.3125,-155.1875,-0.1728516,-0.2744141,0.3291016,0.1650391,0.1650391,-0.2094727
2883,-54.75,-32.125,-153.375,-0.1499023,-0.3364258,0.2675781,0.1547852,0.1762695,-0.2055664
2887,-62.4375,-42.125,-156.4375,-0.06445313,-0.4335938,0.2402344,0.1450195,0.1835938,-0.2055664
2891,-62.75,-47.9375,-153.8125,0.05908203,-0.5229492,0.2133789,0.1308594,0.1948242,-0.2011719
2895,-62.375,-53.875,-154.125,0.09033203,-0.5268555,0.2060547,0.1176758,0.2050781,-0.1987305
2899,-61.4375,-57.75,-158.875,0.2451172,-0.5268555,0.2211914,0.1079102,0.2099609,-0.1958008
2903,-51.4375,-48.1875,-175.1875,0.3925781,-0.6240234,0.2290039,0.09130859,0.2197266,-0.1904297
2907,-25.25,-35,-189.125,0.3808594,-0.7250977,0.1713867,0.07617188,0.2275391,-0.1889648
2911,0.6875,-36.5625,-193.75,0.2758789,-0.6318359,0.1171875,0.06298828,0.2285156,-0.1889648
2915,12.1875,-48.75,-192.25,0.3149414,-0.4882813,0.09033203,0.04638672,0.2348633,-0.1889648
2919,-1,-64.5,-202.5625,0.4038086,-0.1074219,0.1557617,0.02490234,0.2373047,-0.1889648
2923,-48.25,-67.8125,-228,0.8496094,0.01269531,0.2983398,0.01171875,0.2363281,-0.1865234
2927,-81.9375,-55.8125,-252.625,0.9194336,-0.3056641,0.2211914,-0.01171875,0.2426758,-0.1806641
2931,-77.1875,-56.1875,-252.375,1.02002,-0.8105469,0.140625,-0.03515625,0.2451172,-0.1713867
2935,-34.6875,-46.75,-241.75,1.09375,-1.040039,0.105957,-0.05224609,0.2475586,-0.168457
2939,17.25,-36.4375,-237.125,0.9814453,-0.8222656,0.07128906,-0.07324219,0.2426758,-0.1630859
2943,42.8125,-40.125,-250.6875,0.9116211,-0.3286133,0.07519531,-0.09619141,0.2363281,-0.1645508
2947,8.1875,-55.3125,-268.75,0.9541016,0.2573242,0.1210938,-0.112793,0.2285156,-0.1660156
2951,-82.5625,-92.9375,-264,1.22168,0.4086914,0.125,-0.1367188,0.2211914,-0.1630859
2955,-148.3125,-103.9375,-249.0625,1.686523,-0.4140625,0.1713867,-0.1601563,0.2148438,-0.1455078
2959,-123.375,-82.4375,-224.875,1.760254,-1.781738,-0.04003906,-0.1748047,0.2114258,-0.1357422
2963,-20.1875,-42.75,-221.9375,1.709961,-1.265137,0.03662109,-0.1948242,0.2026367,-0.1235352
2967,48.0625,-26.8125,-234.6875,1.322266,-0.5268555,-0.05908203,-0.2114258,0.1860352,-0.1210938
2971,37.0625,-51.8125,-242.8125,1.202148,0.1293945,-0.02441406,-0.2211914,0.1738281,-0.1235352
2975,-18.5625,-75.375,-246.875,1.640137,0.2299805,0.159668,-0.237793,0.1547852,-0.1181641
2979,-67.125,-68.6875,-244.4375,2.042969,-0.1616211,0.2983398,-0.2543945,0.1386719,-0.1113281
2983,-87,-46.625,-223.0625,2.140137,-0.6435547,0.2749023,-0.2626953,0.1274414,-0.1035156
2987,-71.0625,-25,-189.25,1.907715,-0.9697266,0.1289063,-0.2768555,0.1098633,-0.09667969
2991,-42.375,-17.375,-164.625,1.620605,-1.062988,-0.001464844,-0.2841797,0.09765625,-0.09375
2995,-0.3125,-14.9375,-151.6875,1.458008,-1.191406,0.03271484,-0.2875977,0.08642578,-0.09082031
2999,37.875,-12.125,-134.8125,1.469727,-1.191406,0.2094727,-0.2949219,0.07373047,-0.09082031
3003,54.375,-4.625,-104.3125,1.500488,-1.000977,0.3979492,-0.2973633,0.06005859,-0.09082031
3008,42.6875,-1,-66.375,1.388184,-0.8261719,0.4521484,-0.3007813,0.05371094,-0.09228516
3012,19.25,-2.3125,-35.1875,1.306641,-0.6787109,0.4711914,-0.3032227,0.04736328,-0.09521484
3016,5.125,3.75,-19.625,1.287598,-0.7641602,0.4326172,-0.3017578,0.04394531,-0.09521484
3020,10.375,14.3125,-2.875,1.271973,-0.8574219,0.3637695,-0.3032227,0.04394531,-0.09521484
3024,19.0625,22.1875,15.5625,1.237305,-0.7485352,0.2636719,-0.3032227,0.04394531,-0.09667969
3028,21.4375,25.5,31.5,1.209961,-0.6513672,0.1674805,-0.3007813,0.04394531,-0.09912109
3032,14.5,23.8125,50.375,1.256348,-0.5307617,0.1210938,-0.3007813,0.04980469,-0.1005859
3036,-0.4375,21.3125,69.75,1.244629,-0.4921875,0.1132813,-0.2983398,0.05371094,-0.1020508
3040,-17.625,17.1875,87.375,1.287598,-0.46875,0.1328125,-0.2958984,0.06005859,-0.1044922
3044,-32.0625,15.625,105.9375,1.353516,-0.5620117,0.1674805,-0.2924805,0.06494141,-0.1044922
3048,-36.4375,18.1875,126.3125,1.419434,-0.6899414,0.1479492,-0.2890625,0.07861328,-0.1074219
3052,-28.6875,20.6875,148.25,1.438477,-0.7871094,0.1171875,-0.2851563,0.09130859,-0.105957
3056,-8,25.25,163.0625,1.496582,-0.8222656,0.105957,-0.2768555,0.1000977,-0.1044922
3060,17.25,36.375,169.5,1.554688,-0.7753906,0.1132813,-0.2700195,0.1137695,-0.1088867
3064,40.3125,49.4375,172.8125,1.535645,-0.7250977,0.105957,-0.2592773,0.125,-0.1142578
3068,43.375,51.5,183.875,1.442383,-0.5737305,0.1020508,-0.2543945,0.1337891,-0.1196289
3072,35.3125,51.375,193,1.539551,-0.5307617,0.1674805,-0.2426758,0.1474609,-0.125
3076,21.0625,59.0625,200.625,1.574219,-0.5307617,0.2368164,-0.2294922,0.1625977,-0.1303711
3080,7.625,58.6875,208.5,1.535645,-0.6552734,0.2172852,-0.21875,0.1723633,-0.1347656
3084,3,49.625,238.4375,1.539551,-0.8881836,0.159668,-0.203125,0.1835938,-0.1386719
3088,16.375,41.6875,267.6875,1.644043,-0.9580078,0.1289063,-0.184082,0.1972656,-0.144043
3092,39.75,49.375,280.3125,1.655762,-0.8613281,0.1367188,-0.168457,0.2099609,-0.1469727
3096,53.5625,56.375,280.3125,1.550781,-0.6357422,0.1787109,-0.1459961,0.2211914,-0.1508789
3100,46.5625,56.9375,276.375,1.454102,-0.4492188,0.2060547,-0.1201172,0.2275391,-0.1606445
3104,27.75,50.625,277,1.337891,-0.4492188,0.2133789,-0.1054688,0.2348633,-0.1630859
3108,13.25,44.3125,281.3125,1.302734,-0.5541992,0.2329102,-0.078125,0.2397461,-0.1674805
3112,10.75,40.3125,288.375,1.256348,-0.5893555,0.2329102,-0.05419922,0.2436523,-0.1699219
3116,13.9375,43.6875,285.625,1.229492,-0.6748047,0.1982422,-0.03662109,0.2451172,-0.1728516
3120,31.3125,44.8125,281.6875,1.128418,-0.6787109,0.1635742,-0.006835938,0.2436523,-0.175293
3124,48.0625,50.6875,280.5,1.121094,-0.7250977,0.140625,0.01757813,0.2426758,-0.1782227
3128,55.3125,54.8125,277.75,1.039551,-0.4765625,0.1943359,0.03417969,0.2387695,-0.1850586
3132,43.5,51.1875,285.75,0.8417969,-0.402832,0.159668,0.06152344,0.2299805,-0.1875
3137,15.6875,36.4375,290.8125,0.7602539,-0.3442383,0.1787109,0.08691406,0.2197266,-0.1918945
3141,21.3125,35.5625,293.125,0.6479492,-0.503418,0.1210938,0.1035156,0.2138672,-0.1918945
3145,53.4375,42.0625,268.875,0.6015625,-0.4609375,0.1210938,0.1269531,0.2001953,-0.1928711
3149,64.9375,48.875,249.0625,0.4853516,-0.2353516,0.140625,0.1499023,0.1850586,-0.1987305
3153,57.5625,51.3125,237.6875,0.3417969,-0.06445313,0.1904297,0.1630859,0.1738281,-0.199707
3157,41.25,48.0625,241.25,0.1635742,-0.1113281,0.1713867,0.1806641,0.1577148,-0.2011719
3161,37.125,38.625,239.1875,-0.1147461,0.008789063,0.1367188,0.1972656,0.1411133,-0.2011719
3165,41.125,34.9375,217.9375,-0.1611328,0.1293945,0.1713867,0.2070313,0.1274414,-0.199707
3169,49.25,36.6875,190.125,-0.3164063,0.2612305,0.1635742,0.2211914,0.1098633,-0.2011719
3173,58.0625,36.6875,156.4375,-0.5102539,0.5019531,0.1518555,0.2319336,0.09521484,-0.2026367
3177,58.6875,30.4375,125.625,-0.7695313,0.7041016,0.140625,0.2353516,0.08496094,-0.2041016
3181,48,16.5,91.625,-0.9208984,0.8789063,0.140625,0.2426758,0.07128906,-0.2026367
3185,38.5,3.125,48.25,-0.9790039,0.9414063,0.1674805,0.2475586,0.0625,-0.2041016
3189,28.9375,-2.625,-2,-0.878418,0.8481445,0.2402344,0.2475586,0.0625,-0.2011719
3193,16.375,0.875,-38.9375,-0.7695313,0.7626953,0.2827148,0.2451172,0.06103516,-0.2055664
3197,-7.6875,-4.1875,-65.8125,-0.8354492,0.6030273,0.2866211,0.2451172,0.06396484,-0.2055664
3201,-27,-16,-91.0625,-0.7192383,0.3427734,0.3364258,0.2436523,0.06982422,-0.206543
3205,-42.75,-18.875,-115,-0.5175781,0.1098633,0.4287109,0.237793,0.08007813,-0.206543
3209,-57.625,-16.4375,-115.375,-0.4091797,-0.1381836,0.4174805,0.2329102,0.08984375,-0.2041016
3213,-59.3125,-15,-111.4375,-0.4594727,-0.2006836,0.3481445,0.2285156,0.09863281,-0.2026367
3217,-50.875,-18.8125,-118.5,-0.5024414,-0.08398438,0.2675781,0.222168,0.1098633,-0.2026367
3221,-41.25,-17.375,-143.9375,-0.4208984,0.1333008,0.2519531,0.2138672,0.1210938,-0.199707
3225,-43,-12.4375,-180.4375,-0.3354492,0.3271484,0.2402344,0.2094727,0.1289063,-0.199707
3229,-56.125,-14.5625,-215.4375,-0.246582,0.3427734,0.1865234,0.1962891,0.1459961,-0.1958008
3233,-72.6875,-20.5,-239.5625,-0.1069336,0.2495117,0.144043,0.1821289,0.1650391,-0.1943359
3237,-79.0625,-29.625,-254.5,0.02832031,0.07080078,0.07128906,0.1699219,0.1762695,-0.1889648
3241,-73.3125,-36.8125,-263.875,0.206543,-0.1035156,0.02880859,0.1499023,0.1948242,-0.1835938
3245,-59.75,-41.9375,-277.4375,0.3457031,-0.1420898,0.06347656,0.1269531,0.2099609,-0.1796875
3249,-61.25,-47.4375,-298.6875,0.59375,-0.1074219,0.125,0.1118164,0.2197266,-0.1767578
3253,-83.375,-48.375,-314.75,0.8881836,-0.2045898,0.140625,0.08447266,0.2324219,-0.1713867
3257,-114.3125,-51.75,-302.3125,1.016113,-0.5073242,0.04785156,0.05712891,0.2451172,-0.1645508
3261,-121.5625,-58.3125,-266.875,1.035645,-1.735352,-0.1552734,0.03662109,0.2509766,-0.1577148
3266,-78.125,-45.625,-258.375,1.182617,-1.338867,-0.109375,0.009277344,0.2597656,-0.144043
3270,-3.8125,-26.125,-266.0625,1.22168,-1.22998,-0.05126953,-0.01416016,0.262207,-0.1401367
3274,48.25,-11.25,-290.625,1.121094,-0.7753906,-0.005371094,-0.03320313,0.2612305,-0.1401367
3278,11.5,-32.25,-303.3125,0.9814453,0.1176758,0.05175781,-0.05810547,0.2563477,-0.144043
3282,-98.4375,-74.1875,-275.0625,1.326172,-0.1308594,0.05566406,-0.08642578,0.2509766,-0.1386719
3286,-131.4375,-79.75,-245.875,1.612793,-0.9931641,-0.01660156,-0.1030273,0.25,-0.1279297
3290,-61.5,-49.5625,-247.3125,1.775879,-1.475098,-0.02050781,-0.1269531,0.2475586,-0.1142578
3294,31.5,-13.0625,-255.125,1.550781,-1.222656,-0.001464844,-0.1494141,0.2363281,-0.112793
3298,78.0625,-7.375,-264.75,1.206055,-0.5424805,-0.02050781,-0.1625977,0.2275391,-0.112793
3302,63,-32.9375,-271.25,1.055176,0.02832031,-0.03222656,-0.184082,0.2099609,-0.1181641
3306,8.0625,-66.375,-278.625,1.302734,0.3271484,0.02880859,-0.2055664,0.1914063,-0.1181641
3310,-43.75,-85.5,-278.8125,1.709961,0.07470703,0.1328125,-0.2197266,0.1787109,-0.1113281
3314,-68.5,-72.3125,-265,2.108887,-0.2314453,0.2172852,-0.237793,0.1611328,-0.1044922
3318,-68.375,-43.8125,-257.5,2.151367,-0.5112305,0.1748047,-0.2553711,0.1411133,-0.09667969
3322,-49.25,-18.875,-255.25,2.03125,-0.6860352,0.06347656,-0.2651367,0.1298828,-0.09082031
3326,-23.8125,-7.25,-246,1.802734,-0.8613281,-0.04394531,-0.2768555,0.1088867,-0.08691406
3330,-6,-14.0625,-225.1875,1.582031,-0.9541016,-0.05126953,-0.2866211,0.08740234,-0.08691406
3334,5.375,-31.625,-190.0625,1.535645,-1.012695,0.06738281,-0.293457,0.07373047,-0.08300781
3338,7.0625,-35.5,-140.9375,1.686523,-0.9697266,0.2749023,-0.3017578,0.06103516,-0.08154297
3342,3.1875,-23.6875,-87.25,1.756348,-0.9814453,0.4750977,-0.3056641,0.04638672,-0.07763672
3346,-0.1875,-4.625,-53.1875,1.647949,-0.9736328,0.5097656,-0.309082,0.04248047,-0.07763672
3350,2.0625,12.125,-36.9375,1.481445,-0.9389648,0.425293,-0.309082,0.03857422,-0.07861328
3354,-0.1875,16.3125,-15.125,1.330078,-0.8881836,0.3291016,-0.309082,0.03369141,-0.08007813
3358,-7.875,15.6875,14.75,1.349609,-0.8183594,0.2133789,-0.3081055,0.03271484,-0.08300781
3362,-12.5625,18.125,40.5625,1.364746,-0.8066406,0.1289063,-0.3066406,0.03613281,-0.08154297
3366,-11.9375,19.125,63,1.314453,-0.7524414,0.04052734,-0.3066406,0.04248047,-0.08447266
3370,-14,15.75,80.875,1.279785,-0.6552734,0.01367188,-0.3041992,0.04638672,-0.08447266
3374,-20,11.9375,93.9375,1.310547,-0.6513672,-0.01318359,-0.2998047,0.05273438,-0.08691406
3378,-24.125,7.5,113.1875,1.361328,-0.7250977,0.03271484,-0.2983398,0.06494141,-0.08544922
3382,-23.0625,7,134.0625,1.508301,-0.8027344,0.07128906,-0.2973633,0.07275391,-0.08691406
3386,-12.1875,10.75,159.375,1.616699,-0.8842773,0.105957,-0.2900391,0.08642578,-0.08300781
3390,6.25,19.8125,179.3125,1.717773,-0.8999023,0.1171875,-0.2827148,0.1010742,-0.08544922
3395,30.75,30.9375,189.4375,1.794922,-0.9155273,0.1020508,-0.2768555,0.1113281,-0.08691406
3399,52.75,48.375,198.8125,1.89209,-0.8574219,0.105957,-0.2675781,0.1274414,-0.09082031
3403,58.4375,56,220.1875,1.814453,-0.6630859,0.09033203,-0.2543945,0.1425781,-0.1005859
3407,41.5625,47.75,248.625,1.698242,-0.5385742,0.07519531,-0.2460938,0.1547852,-0.1044922
3411,27.0625,40.3125,265.25,1.752441,-0.5927734,0.1020508,-0.2304688,0.1723633,-0.1098633
3415,33.0625,42.5625,277.25,1.76416,-0.6860352,0.1289063,-0.2114258,0.1899414,-0.1157227
3419,45.25,51.25,278.3125,1.775879,-0.6318359,0.1479492,-0.1972656,0.1987305,-0.1196289
3423,47.1875,62.3125,278.9375,1.713867,-0.5463867,0.125,-0.1748047,0.2163086,-0.1264648
3427,36.875,62.75,287.5625,1.644043,-0.5073242,0.1328125,-0.1494141,0.2275391,-0.1357422
3431,16.1875,52.1875,302.3125,1.531738,-0.484375,0.09423828,-0.1328125,0.2348633,-0.1401367
3435,-1.125,40.125,316.8125,1.570313,-0.6005859,0.09033203,-0.1054688,0.2436523,-0.1425781
3439,5.5625,41.5625,322.25,1.539551,-0.6938477,0.07519531,-0.07714844,0.2539063,-0.1455078
3443,22.5,49.5,315.6875,1.446289,-0.6977539,0.02880859,-0.05810547,0.2548828,-0.1469727
3447,41.3125,53.8125,314.3125,1.26416,-0.5541992,-0.01318359,-0.02490234,0.2573242,-0.1523438
3451,40.375,49.8125,315.375,1.159668,-0.4492188,-0.009277344,0.003417969,0.2548828,-0.15625
3455,39.4375,41.6875,310.25,1.016113,-0.4414063,-0.005371094,0.02490234,0.2539063,-0.1606445
3459,53.0625,38.875,312.125,0.9658203,-0.4960938,-0.02832031,0.05322266,0.2460938,-0.1645508
3463,62.875,36.875,303.1875,0.9116211,-0.3911133,0.01367188,0.08203125,0.2338867,-0.1699219
3467,71.625,43.75,292.5,0.8417969,-0.2470703,0.04785156,0.1010742,0.2275391,-0.1738281
3471,78.4375,48.125,282.8125,0.6674805,-0.2666016,0.009765625,0.1259766,0.2124023,-0.1806641
3475,79.1875,44.4375,270.5,0.4506836,-0.04541016,0.01367188,0.1484375,0.1948242,-0.1850586
3479,72.25,41.75,265.5,0.4272461,-0.01416016,0.07128906,0.1640625,0.1835938,-0.1889648
3483,67,46.4375,253.5625,0.2138672,0.1484375,0.07910156,0.1865234,0.1635742,-0.1904297
3487,65.8125,45.9375,240.8125,-0.07226563,0.284668,0.02490234,0.2021484,0.1435547,-0.1928711
3491,73.0625,43.625,221.75,-0.262207,-0.1347656,0.09423828,0.2128906,0.1313477,-0.1943359
3495,71.625,33.6875,182.4375,-0.5991211,0.840332,0.07519531,0.2270508,0.1113281,-0.1958008
3499,43.4375,18.3125,146.125,-0.8393555,1.267578,0.1557617,0.2353516,0.09521484,-0.1987305
3503,1.625,-1.3125,107.0625,-1.041016,1.403809,0.2172852,0.2402344,0.08642578,-0.1972656
3507,-23.9375,-15.375,54.4375,-1.037109,1.283203,0.2441406,0.2436523,0.08105469,-0.1972656
3511,-29.4375,-16.3125,-11.25,-0.9326172,1.030762,0.2866211,0.2426758,0.08007813,-0.1972656
3515,-25.4375,-15.1875,-66.375,-0.8393555,0.7314453,0.2983398,0.2412109,0.08496094,-0.1987305
3519,-26.9375,-14.375,-104.9375,-0.6767578,0.5097656,0.3251953,0.237793,0.08984375,-0.1972656
3524,-35.4375,-14.75,-129.3125,-0.5874023,0.2612305,0.340332,0.234375,0.1000977,-0.1972656
3528,-47.875,-17.125,-142.9375,-0.4672852,-0.006347656,0.3017578,0.2270508,0.1088867,-0.1943359
3532,-46.5625,-17.125,-146.625,-0.4091797,-0.2470703,0.2329102,0.21875,0.1235352,-0.1958008
3536,-27.5,-17.0625,-154.9375,-0.378418,-0.2978516,0.1713867,0.2104492,0.1347656,-0.1928711
3540,-5.75,-17.0625,-174.8125,-0.3354492,-0.1577148,0.1557617,0.2055664,0.1435547,-0.1918945
3544,0.3125,-17,-202.625,-0.2270508,0.008789063,0.1748047,0.1914063,0.15625,-0.1928711
3548,-9,-23.75,-223.5625,-0.2001953,0.08251953,0.1479492,0.1748047,0.1699219,-0.1928711
3552,-26.6875,-40.375,-235.375,-0.07226563,0.07861328,0.1098633,0.1650391,0.1772461,-0.1918945
3556,-42.8125,-53.5625,-246.375,0.1132813,-0.02978516,0.09423828,0.1459961,0.1923828,-0.1918945
3560,-44.5625,-58.0625,-268.625,0.3652344,-0.1420898,0.105957,0.125,0.2075195,-0.1904297
3564,-57.5625,-59.8125,-295,0.4350586,-0.04150391,0.105957,0.1079102,0.2138672,-0.1850586
3568,-102.1875,-79.8125,-297.5,0.5820313,-0.02587891,0.07910156,0.07958984,0.2275391,-0.1835938
3572,-140.3125,-89,-307.1875,0.8183594,-0.1850586,0.01367188,0.05322266,0.2426758,-0.1738281
3576,-132,-78.125,-339.25,0.8574219,-0.5073242,-0.07861328,0.02978516,0.2485352,-0.1645508
3580,-79.9375,-56.1875,-386.3125,1.132324,-0.7753906,-0.04003906,-0.003417969,0.2563477,-0.1538086
3584,-5.6875,-34.0625,-421.9375,1.209961,-0.7563477,0.05175781,-0.04003906,0.2573242,-0.144043
3588,21.875,-32.8125,-432.3125,1.206055,-0.1035156,0.05566406,-0.06884766,0.2539063,-0.1469727
3592,-62.5,-62.3125,-366.1875,1.411621,0.2226563,0.09814453,-0.1054688,0.2426758,-0.144043
3596,-141,-86.4375,-308.5,1.458008,-0.09179688,-0.02050781,-0.1391602,0.2338867,-0.1318359
3600,-157.3125,-104.125,-298.875,1.73291,-0.5268555,-0.128418,-0.1557617,0.2299805,-0.1196289
3604,-111.125,-73.5625,-308.6875,2.236816,-0.4960938,-0.04003906,-0.1816406,0.21875,-0.1035156
3608,-16.875,-14.75,-296.125,2.128418,-1.288574,0.07519531,-0.206543,0.2026367,-0.09228516
3612,65.9375,30.9375,-276.0625,1.830078,-0.9428711,0.06347656,-0.21875,0.1875,-0.09082031
3616,91.625,38.6875,-252.9375,1.535645,-0.3481445,0.04785156,-0.2363281,0.1674805,-0.1020508
3620,71.25,16.4375,-239.375,1.310547,0.2416992,0.04443359,-0.2519531,0.1459961,-0.1088867
3624,-10.5625,-48.5,-244.1875,1.314453,0.5527344,0.02880859,-0.2592773,0.1323242,-0.1098633
3628,-94.875,-97.5625,-221.6875,1.841797,0.03222656,0.09423828,-0.2709961,0.1137695,-0.1020508
3632,-111.4375,-90.375,-191.1875,2.236816,-0.7485352,0.144043,-0.2841797,0.09863281,-0.08837891
3636,-45.5,-38,-157.125,2.287109,-1.381836,0.2250977,-0.2915039,0.08886719,-0.08154297
3640,49.9375,17.9375,-139.375,1.814453,-1.29248,0.2368164,-0.2949219,0.07519531,-0.07861328
3644,101.4375,35.125,-128.0625,1.508301,-0.6474609,0.2749023,-0.2983398,0.06103516,-0.08544922
3648,83.375,30.4375,-117.6875,1.345703,-0.002441406,0.2983398,-0.3032227,0.04980469,-0.08837891
3653,17.375,4.4375,-105.875,1.217773,0.1796875,0.2866211,-0.3056641,0.03759766,-0.09375
3657,-37.9375,-23.4375,-87.8125,1.318359,-0.1850586,0.2983398,-0.3066406,0.02880859,-0.09228516
3661,-52.3125,-28.4375,-61.75,1.527832,-0.6708984,0.3134766,-0.3105469,0.02490234,-0.08984375
3665,-31.4375,-10.75,-26.4375,1.686523,-0.8686523,0.2866211,-0.3105469,0.02001953,-0.08691406
3669,-6.3125,17.25,-3.875,1.663574,-0.7949219,0.1904297,-0.309082,0.02001953,-0.08544922
3673,5.3125,29.3125,15.5,1.442383,-0.6787109,0.1020508,-0.3115234,0.01855469,-0.08837891
3677,-2,19.9375,39.5,1.314453,-0.5893555,0.06347656,-0.309082,0.02148438,-0.09082031
3681,-16.1875,7.6875,76.625,1.361328,-0.5385742,0.07910156,-0.309082,0.02734375,-0.09082031
3685,-18.75,7.5625,100.4375,1.403809,-0.5268555,0.07128906,-0.3066406,0.03369141,-0.09082031
3689,-11.6875,10.5,109.875,1.368652,-0.46875,0.05957031,-0.3041992,0.04394531,-0.09082031
3693,-9.875,13.6875,115.75,1.337891,-0.3481445,0.06347656,-0.3007813,0.05517578,-0.09082031
3697,-17.8125,9.5625,119.125,1.256348,-0.340332,0.08251953,-0.2973633,0.06103516,-0.09375
3701,-27.5,3.125,123.625,1.322266,-0.4257813,0.09423828,-0.293457,0.07128906,-0.09375
3705,-28.25,0.625,136.8125,1.42334,-0.6357422,0.06738281,-0.2890625,0.08642578,-0.09082031
3709,-13.875,1.625,159.625,1.508301,-0.8027344,0.04785156,-0.2851563,0.09375,-0.09082031
3713,10.4375,7.625,180.25,1.585938,-0.7949219,0.05566406,-0.2768555,0.1098633,-0.09082031
3717,32.4375,16.625,194.9375,1.628418,-0.6899414,0.09814453,-0.2685547,0.125,-0.09228516
3721,45.6875,30,196.25,1.752441,-0.565918,0.144043,-0.2626953,0.1362305,-0.09521484
3725,47.5625,42,201.125,1.702148,-0.519043,0.1367188,-0.2509766,0.1489258,-0.09912109
3729,40.25,40.6875,219.1875,1.616699,-0.4570313,0.105957,-0.2363281,0.1650391,-0.1044922
3733,22.6875,30.9375,238.25,1.63623,-0.46875,0.07910156,-0.2270508,0.1738281,-0.112793
3737,17.0625,25.5625,257.75,1.620605,-0.5854492,0.08251953,-0.2104492,0.1899414,-0.112793
3741,19,26.1875,264.4375,1.678711,-0.6318359,0.08642578,-0.1914063,0.2075195,-0.1196289
3745,23.75,28.1875,272.625,1.659668,-0.6279297,0.07519531,-0.1772461,0.2148438,-0.1210938
3749,26.625,31.5625,283,1.686523,-0.6162109,0.1132813,-0.1533203,0.2299805,-0.125
3753,30.5625,40.25,291.5625,1.539551,-0.5737305,0.07519531,-0.128418,0.2412109,-0.1303711
3757,28.9375,38,301.25,1.349609,-0.4882813,0.03662109,-0.1103516,0.2460938,-0.1333008
3761,23,24.8125,310.4375,1.198242,-0.4921875,0.005859375,-0.08300781,0.2509766,-0.137207
3765,31.25,21.375,310.375,1.229492,-0.5385742,0.07128906,-0.05419922,0.2587891,-0.1401367
3769,51.0625,35.6875,301.25,1.209961,-0.5268555,0.105957,-0.03515625,0.2597656,-0.144043
3773,57.75,44.4375,291.0625,1.027832,-0.3754883,0.1098633,-0.009277344,0.2587891,-0.1508789
3777,48.9375,45.125,295.9375,0.9155273,-0.3364258,0.1020508,0.01904297,0.2524414,-0.1577148
3782,43.0625,42.5625,304.1875,0.7915039,-0.3442383,0.09033203,0.0390625,0.25,-0.1591797
3786,45.5625,46.9375,290.3125,0.7719727,-0.2470703,0.1132813,0.06884766,0.2426758,-0.1645508
3790,46.375,50.8125,280.6875,0.6132813,-0.3173828,0.1020508,0.09277344,0.2324219,-0.168457
3794,58.75,55.0625,271.1875,0.5473633,-0.3017578,0.1210938,0.112793,0.2250977,-0.1699219
3798,70.9375,67,256.375,0.4350586,-0.1733398,0.1020508,0.1357422,0.2099609,-0.1782227
3802,60.9375,65.75,249.4375,0.1289063,0.09814453,0.105957,0.1582031,0.1938477,-0.175293
3806,43.6875,51.375,238.6875,-0.1884766,0.1914063,0.05957031,0.1723633,0.1835938,-0.1796875
3810,33.6875,36.0625,211.9375,-0.3046875,0.2299805,0.09033203,0.1889648,0.1674805,-0.1806641
3814,37.5,29.6875,175.0625,-0.4633789,0.4555664,0.1479492,0.2055664,0.1513672,-0.1806641
3818,29.125,25.25,150.25,-0.6030273,0.3896484,0.1748047,0.2119141,0.1425781,-0.1796875
3822,27.125,14.125,127.9375,-0.7617188,0.4477539,0.159668,0.2211914,0.1313477,-0.1796875
3826,34.3125,10.875,91.6875,-0.7929688,0.5332031,0.1982422,0.2285156,0.1201172,-0.1835938
3830,37.5,13,44.4375,-0.9130859,0.7041016,0.2211914,0.230957,0.1176758,-0.1821289
3834,18.625,2.5625,2.3125,-1.001953,0.824707,0.2558594,0.2329102,0.1113281,-0.1850586
3838,-7.125,-9.375,-36.8125,-0.9594727,0.7080078,0.2636719,0.2294922,0.1137695,-0.1850586
3842,-27.875,-18.75,-70.3125,-0.7890625,0.4907227,0.2788086,0.2294922,0.1176758,-0.1850586
3846,-39.625,-22.5,-97.1875,-0.6416016,0.2109375,0.2558594,0.2260742,0.1225586,-0.1850586
3850,-37.9375,-21.625,-120,-0.4985352,-0.04150391,0.2402344,0.21875,0.1323242,-0.1835938
3854,-24.75,-17.9375,-136.3125,-0.4365234,-0.1928711,0.2060547,0.2128906,0.1401367,-0.1806641
3858,-9.3125,-16.0625,-151.75,-0.4404297,-0.1420898,0.1635742,0.203125,0.1523438,-0.1835938
3862,-11.3125,-23.4375,-174.6875,-0.3549805,0.004882813,0.1748047,0.1928711,0.1625977,-0.1796875
3866,-25.625,-26.75,-196.75,-0.2387695,0.03222656,0.1787109,0.184082,0.1713867,-0.1835938
3870,-41.875,-34.625,-210.0625,-0.1459961,-0.03759766,0.1367188,0.1674805,0.1835938,-0.1806641
3874,-44.1875,-42.625,-215.625,-0.006347656,-0.2470703,0.09423828,0.1508789,0.1987305,-0.1796875
3878,-24.4375,-42.125,-226.8125,0.2216797,-0.3364258,0.1098633,0.1391602,0.2075195,-0.1767578
3882,-13.1875,-39.4375,-241.6875,0.2255859,-0.2666016,0.1098633,0.1186523,0.2172852,-0.175293
3886,-25.5625,-55.375,-243.25,0.2993164,-0.2202148,0.1210938,0.09521484,0.2275391,-0.175293
3890,-55.5625,-70.375,-240.5,0.4775391,-0.2705078,0.1132813,0.08300781,0.2338867,-0.175293
3894,-52.6875,-73.375,-238.1875,0.7138672,-0.7753906,0.1020508,0.05810547,0.2426758,-0.1699219
3898,-10.125,-59.8125,-235.3125,0.8261719,-1.036133,0.09033203,0.03417969,0.2475586,-0.1674805
3902,49.875,-48.5,-236.1875,0.8457031,-0.7602539,0.1787109,0.01904297,0.2485352,-0.168457
3906,35.3125,-46.0625,-262.4375,0.7993164,-0.006347656,0.2402344,-0.004394531,0.2485352,-0.1713867
3911,-45.4375,-79.375,-263.5625,0.7177734,0.1484375,0.1787109,-0.03076172,0.2485352,-0.1699219
3915,-102.9375,-107.75,-242.875,1.147949,-0.5463867,0.144043,-0.04736328,0.2475586,-0.1645508
3919,-67,-94,-224.5625,1.411621,-1.272949,0.140625,-0.07226563,0.2485352,-0.1538086
3923,27.3125,-54.75,-225,1.484863,-1.245605,0.2021484,-0.09472656,0.2436523,-0.1484375
3927,96.5,-14.875,-263.8125,1.244629,-0.4296875,0.1904297,-0.109375,0.2387695,-0.1494141
3931,21.375,-49.5625,-274.25,0.8574219,0.5527344,0.105957,-0.1318359,0.2275391,-0.15625
3935,-102.5,-112.75,-241.1875,1.395996,0.1445313,0.09033203,-0.1557617,0.2172852,-0.1469727
3939,-114.8125,-103.625,-227,1.942383,-1.016602,0.1943359,-0.168457,0.2138672,-0.1386719
3943,-40.1875,-59.8125,-225.5,1.98877,-1.37793,0.1826172,-0.1889648,0.2026367,-0.125
3947,43.1875,-21.6875,-232.0625,1.76416,-0.9619141,0.159668,-0.2055664,0.1914063,-0.1210938
3951,60.4375,-16.875,-254.25,1.438477,-0.2431641,0.09423828,-0.2172852,0.1772461,-0.1225586
3955,-2.25,-44.375,-250.625,1.473633,0.01660156,0.05566406,-0.234375,0.1577148,-0.1225586
3959,-65,-65.0625,-224.125,1.76416,-0.3481445,0.09814453,-0.2519531,0.1411133,-0.1166992
3963,-83.0625,-49.4375,-195.0625,2.035156,-0.7172852,0.1098633,-0.2592773,0.1298828,-0.112793
3967,-65.3125,-29.875,-172.625,1.771973,-0.9814453,-0.02441406,-0.2709961,0.1162109,-0.1044922
3971,-37.5,-24.1875,-157.1875,1.570313,-0.8574219,-0.1245117,-0.2792969,0.1035156,-0.09912109
3975,-21.9375,-24.25,-144.4375,1.39209,-0.8647461,-0.04394531,-0.2817383,0.09619141,-0.09765625
3979,-10.1875,-25.5,-124.5625,1.384277,-0.9580078,0.1289063,-0.2890625,0.08398438,-0.09667969
3983,0.875,-17.4375,-90.5,1.461914,-1.136719,0.3364258,-0.293457,0.07373047,-0.09082031
3987,18.9375,-5.75,-54.75,1.426758,-1.191406,0.4365234,-0.2973633,0.06884766,-0.09082031
3991,37.5625,6.3125,-21.8125,1.384277,-1.148438,0.4599609,-0.2983398,0.0625,-0.09375
3995,52.1875,16.625,1.8125,1.322266,-0.9155273,0.3867188,-0.2973633,0.06103516,-0.09375
3999,50.4375,18.625,13.5625,1.260254,-0.6669922,0.3945313,-0.2973633,0.0625,-0.09667969
4003,20.75,18.1875,31.5,1.29541,-0.4453125,0.3671875,-0.2958984,0.0625,-0.09912109
4007,-16.8125,13.3125,57.1875,1.283691,-0.4570313,0.2290039,-0.2949219,0.06640625,-0.1005859
4011,-30.625,12.5,74.4375,1.283691,-0.6240234,0.1328125,-0.2924805,0.06982422,-0.1020508
4015,-27.375,13.625,89.6875,1.268066,-0.7446289,0.05175781,-0.2900391,0.07763672,-0.1005859
4019,-15.9375,11.9375,110.25,1.283691,-0.8686523,0.04785156,-0.2851563,0.08642578,-0.1020508
4023,-4.1875,12.625,130.1875,1.407715,-0.8417969,0.09423828,-0.2817383,0.09375,-0.1005859
4027,6.8125,22.25,147.1875,1.550781,-0.7719727,0.1635742,-0.2744141,0.1049805,-0.1044922
4031,-1.375,29,164.375,1.535645,-0.5854492,0.1865234,-0.2685547,0.1186523,-0.105957
4035,-19.625,24.625,183.375,1.477539,-0.7172852,0.159668,-0.2636719,0.1298828,-0.105957
4040,-16.625,20.625,201.9375,1.539551,-0.8959961,0.1479492,-0.2519531,0.1435547,-0.1074219
4044,7,29.5,206.3125,1.686523,-0.9892578,0.1787109,-0.2402344,0.1611328,-0.1098633
4048,34.375,42.5625,216.125,1.748535,-1.11377,0.1748047,-0.2304688,0.1723633,-0.112793
4052,52.375,54.5625,237.0625,1.694336,-0.8647461,0.144043,-0.2163086,0.1850586,-0.1181641
4056,44.375,53.5625,252.75,1.589844,-0.6279297,0.1713867,-0.1972656,0.1987305,-0.1264648
4060,25.8125,52.75,260.375,1.582031,-0.5463867,0.2290039,-0.1816406,0.2075195,-0.1303711
4064,12.75,54.5625,260.4375,1.48877,-0.6552734,0.2402344,-0.1616211,0.2197266,-0.1357422
4068,15.5625,56.875,262,1.523926,-0.8417969,0.2290039,-0.1391602,0.2314453,-0.1401367
4072,23.125,60.75,270.875,1.504395,-0.8457031,0.1787109,-0.1210938,0.2387695,-0.1425781
4076,23.125,54.8125,284.9375,1.364746,-0.7485352,0.1289063,-0.09472656,0.2460938,-0.1484375
4080,17.1875,53.3125,291.5625,1.337891,-0.6669922,0.1098633,-0.06982422,0.2524414,-0.1523438
4084,11.25,46.0625,292.5625,1.198242,-0.6474609,0.09814453,-0.04980469,0.2524414,-0.1523438
4088,15.875,45.6875,289.125,1.194336,-0.6977539,0.07910156,-0.0234375,0.2539063,-0.15625
4092,23.5625,48.625,281.9375,1.175293,-0.6899414,0.08642578,0.003417969,0.2548828,-0.1591797
4096,34.5,49.9375,286.25,0.8920898,-0.5620117,0.02099609,0.02148438,0.2509766,-0.1616211
4100,26.4375,40.125,288.1875,0.8999023,-0.4257813,0.05957031,0.04980469,0.2451172,-0.1645508
4104,19.375,36.375,283.8125,0.8110352,-0.3793945,0.08642578,0.07617188,0.2387695,-0.1674805
4108,27.8125,41.1875,273.9375,0.7602539,-0.4609375,0.06738281,0.09277344,0.2338867,-0.1699219
4112,31.1875,38.125,265.5,0.6054688,-0.3056641,0.07128906,0.1176758,0.2211914,-0.1699219
4116,37.3125,39.375,263.1875,0.527832,-0.3208008,0.05957031,0.1401367,0.2099609,-0.1728516
4120,49.625,41,241.8125,0.4233398,-0.2045898,0.07910156,0.1533203,0.1987305,-0.1738281
4124,63.25,48,230.5,0.2177734,-0.03369141,0.05957031,0.1738281,0.1811523,-0.1796875
4128,63.125,46.9375,211.625,0.01660156,0.284668,0.07519531,0.1928711,0.1660156,-0.1796875
4132,53.75,44.75,190.625,-0.2387695,0.4750977,0.09423828,0.203125,0.1538086,-0.1796875
4136,50.75,41.8125,156.875,-0.5332031,0.6147461,0.1098633,0.2138672,0.1401367,-0.1821289
4140,39.5,31.25,127,-0.7695313,0.9453125,0.07519531,0.2260742,0.1264648,-0.1821289
4144,24.9375,17.125,87.5625,-0.9868164,1.135742,0.1210938,0.2285156,0.1186523,-0.1821289
4148,17.375,7.9375,31.75,-1.001953,1.174316,0.1982422,0.234375,0.1137695,-0.1821289
4152,7,5.9375,-25.1875,-0.9287109,1.108398,0.2675781,0.2353516,0.1123047,-0.1821289
4156,-10.5625,1.875,-71.3125,-0.8549805,0.9296875,0.2788086,0.2329102,0.1123047,-0.1806641
4160,-32.25,-3.5625,-110.6875,-0.6923828,0.6420898,0.3056641,0.230957,0.1210938,-0.1806641
4164,-52.3125,-6.875,-137.5,-0.4907227,0.2612305,0.3212891,0.222168,0.1313477,-0.1782227
4169,-57.625,-5.9375,-146.5,-0.3510742,-0.1811523,0.2675781,0.2163086,0.1425781,-0.1767578
4173,-35.1875,0.125,-153.4375,-0.3007813,-0.4648438,0.1748047,0.2070313,0.1547852,-0.1728516
4177,-0.75,8.9375,-166.75,-0.2504883,-0.3325195,0.1674805,0.1987305,0.1674805,-0.1713867
4181,22.375,17.25,-190.625,-0.2851563,-0.1616211,0.1132813,0.1928711,0.1738281,-0.1713867
4185,21.875,7.5625,-213.5625,-0.362793,0.05517578,0.05957031,0.1782227,0.1835938,-0.1713867
4189,0.25,-13.8125,-225.875,-0.246582,0.1640625,0.04785156,0.1606445,0.1962891,-0.1713867
4193,-28.625,-37.6875,-231.6875,-0.09521484,0.1333008,0.05957031,0.1508789,0.2050781,-0.168457
4197,-43.5625,-53.8125,-234.8125,0.1674805,-0.1381836,0.06347656,0.1293945,0.2172852,-0.1674805
4201,-32.3125,-54.9375,-240.8125,0.3959961,-0.3833008,0.09033203,0.1079102,0.2285156,-0.1674805
4205,-15.9375,-48.4375,-260.4375,0.59375,-0.2509766,0.1713867,0.09130859,0.2348633,-0.1645508
4209,-30.4375,-47.0625,-277.75,0.6713867,-0.2314453,0.1674805,0.06787109,0.2426758,-0.1660156
4213,-54.8125,-55.75,-272,0.7758789,-0.3989258,0.140625,0.04052734,0.2509766,-0.1606445
4217,-44.1875,-59.8125,-257.1875,0.9194336,-0.9541016,0.06347656,0.0234375,0.2539063,-0.15625
4221,-12.125,-61,-248,0.9038086,-0.7563477,0.01708984,-0.0009765625,0.2573242,-0.1523438
4225,-19.0625,-72.1875,-249.8125,1.027832,-0.2548828,0.105957,-0.02587891,0.2573242,-0.1508789
4229,-93,-90.75,-256.8125,1.283691,-0.1113281,0.1674805,-0.04394531,0.2573242,-0.1469727
4233,-124.375,-70.875,-270.6875,1.775879,-0.7949219,0.1674805,-0.06982422,0.2587891,-0.1333008
4237,-68.0625,-31.9375,-285.8125,1.814453,-1.401367,0.1289063,-0.09716797,0.2539063,-0.1225586
4241,11.5625,-1.6875,-269.5625,1.578125,-1.37793,0.09423828,-0.1137695,0.2509766,-0.1196289
4245,30.6875,-8.3125,-256.6875,1.287598,-0.6162109,0.02880859,-0.1367188,0.2387695,-0.1210938
4249,-18.25,-37.1875,-243.5625,1.287598,-0.2241211,0.009765625,-0.1567383,0.2275391,-0.1196289
4253,-83.625,-58.8125,-237,1.585938,-0.3598633,0.05957031,-0.1708984,0.2211914,-0.1142578
4257,-109.4375,-54.25,-231.25,1.911133,-0.9038086,0.1210938,-0.1899414,0.2114258,-0.1035156
4261,-87.4375,-30.5625,-212.5,1.918945,-1.300293,0.1098633,-0.2080078,0.2001953,-0.09521484
4265,-39,-9.5625,-190.0625,1.628418,-1.315918,-0.001464844,-0.2197266,0.1914063,-0.08837891
4269,2.4375,-6.6875,-180.75,1.260254,-1.043945,-0.09375,-0.2329102,0.1787109,-0.08691406
4273,20.3125,-17.5,-174.8125,1.128418,-0.7641602,-0.07470703,-0.2436523,0.1660156,-0.08544922
4277,13.875,-33.1875,-163.8125,1.198242,-0.5112305,0.04785156,-0.2519531,0.1547852,-0.08447266
4281,-5.4375,-32.25,-152.625,1.481445,-0.4648438,0.1904297,-0.2592773,0.1425781,-0.08447266
4285,-14.1875,-15,-142.3125,1.531738,-0.6708984,0.2250977,-0.2685547,0.1298828,-0.08154297
4289,-7.9375,-3.5,-125.875,1.430664,-0.8959961,0.2172852,-0.2734375,0.1225586,-0.08007813
4293,2.4375,0.875,-91.9375,1.322266,-0.9697266,0.2133789,-0.2783203,0.1123047,-0.07763672
4298,15.625,5.6875,-68.5,1.275879,-0.9506836,0.2211914,-0.2817383,0.1035156,-0.07861328
4302,20.625,9.3125,-52.875,1.271973,-0.8183594,0.2172852,-0.2851563,0.1000977,-0.08007813
4306,6.5625,4.6875,-33,1.287598,-0.8378906,0.2480469,-0.2866211,0.09765625,-0.08154297
4310,-12,1.0625,1.5625,1.411621,-0.9775391,0.3056641,-0.2890625,0.09375,-0.08300781
4314,-15,6.375,37.9375,1.442383,-1.08252,0.2866211,-0.2875977,0.09619141,-0.08154297
4318,-8.5625,12.375,66.5625,1.357422,-1.043945,0.2172852,-0.2841797,0.1025391,-0.08447266
4322,-5.375,13.1875,82.1875,1.299316,-0.9506836,0.1674805,-0.2827148,0.1088867,-0.08300781
4326,-16.25,11.6875,97.25,1.368652,-0.8920898,0.1982422,-0.2783203,0.1113281,-0.08300781
4330,-28.1875,13.1875,119.5625,1.469727,-1.036133,0.1787109,-0.2724609,0.1201172,-0.08447266
4334,-22.25,17.875,145.75,1.481445,-1.129395,0.125,-0.2661133,0.1323242,-0.08300781
4338,-9.6875,19.125,164.5625,1.500488,-1.160156,0.07519531,-0.2617188,0.1411133,-0.08300781
4342,-0.1875,20.4375,179.8125,1.632324,-1.171875,0.07519531,-0.2509766,0.1577148,-0.08154297
4346,9.6875,26.8125,204.75,1.794922,-1.214844,0.1210938,-0.2402344,0.1674805,-0.08447266
4350,22.3125,34.3125,232.875,1.818359,-1.129395,0.105957,-0.2304688,0.1787109,-0.08837891
4354,21.375,35.1875,260,1.76416,-0.9389648,0.07128906,-0.2114258,0.1972656,-0.09082031
4358,22.25,33.8125,275.5,1.752441,-0.9350586,0.06738281,-0.1923828,0.2124023,-0.09765625
4362,37.9375,41.4375,279.4375,1.783691,-0.9619141,0.09814453,-0.1791992,0.2226563,-0.1020508
4366,59.5,58.125,272.3125,1.644043,-0.8027344,0.07519531,-0.1542969,0.2373047,-0.1088867
4370,49.5625,54.5,283.25,1.43457,-0.6591797,0.03662109,-0.128418,0.2451172,-0.1142578
4374,36.6875,42.75,296.5,1.349609,-0.6591797,0.02099609,-0.1113281,0.2509766,-0.1196289
4378,31.625,39.625,297.375,1.395996,-0.6591797,0.06738281,-0.08300781,0.2597656,-0.1264648
4382,31.1875,40.1875,297.375,1.349609,-0.6279297,0.06347656,-0.05566406,0.2636719,-0.1318359
4386,25.1875,35.8125,301.125,1.26416,-0.6279297,0.05566406,-0.03515625,0.2651367,-0.1333008
4390,41.25,44.9375,292.375,1.283691,-0.7524414,0.06347656,-0.0078125,0.2636719,-0.137207
4394,71,57.9375,286.625,1.082031,-0.6860352,-0.009277344,0.02148438,0.2597656,-0.144043
4398,79.9375,55.8125,288.0625,0.9077148,-0.4648438,-0.02832031,0.03808594,0.2573242,-0.1494141
4402,70.4375,48.3125,289.875,0.7875977,-0.2045898,0.005859375,0.06787109,0.2475586,-0.1577148
4406,63.5,46.6875,279.25,0.6948242,-0.2202148,0.02099609,0.09375,0.2373047,-0.1616211
4410,59,43.0625,262.375,0.609375,-0.1459961,0.08251953,0.1103516,0.2275391,-0.1660156
4414,55.3125,45.25,254.4375,0.5551758,-0.2470703,0.1020508,0.1357422,0.2138672,-0.1699219
4418,54.6875,45.9375,247.0625,0.4233398,-0.1420898,0.1518555,0.1547852,0.1987305,-0.1728516
4422,26.0625,38.4375,243.75,0.2490234,0.05517578,0.2094727,0.1674805,0.1875,-0.1738281
4427,-19.25,25.3125,244.1875,0.03173828,0.121582,0.1904297,0.1879883,0.1713867,-0.1728516
4431,-60.0625,2.8125,231.625,-0.328125,0.2456055,0.1367188,0.2045898,0.1601563,-0.1699219
4435,-109.875,-27.375,218.125,-0.3974609,0.01660156,0.1289063,0.215332,0.1513672,-0.1699219
4439,-111.5625,-39.9375,208.25,-0.2929688,-0.371582,0.125,0.2246094,0.1401367,-0.1645508
4443,-34.9375,-26.5,200.8125,-0.328125,-0.8803711,0.07128906,0.2353516,0.1289063,-0.1645508
4447,79.8125,4.25,160.75,-0.3549805,-0.3056641,0.144043,0.2436523,0.1176758,-0.1660156
4451,153.5625,30.3125,115.1875,-0.5488281,0.5214844,0.2519531,0.25,0.1010742,-0.168457
4455,163.3125,44.8125,66.5,-0.8706055,1.213379,0.3095703,0.2568359,0.08740234,-0.1738281
4459,67.9375,21.1875,30.0625,-1.23877,1.877441,0.4521484,0.2592773,0.07861328,-0.1738281
4463,-40.75,-11.0625,-4.0625,-1.063965,1.535645,0.4750977,0.2617188,0.07617188,-0.1738281
4467,-87.6875,-12,-48.8125,-0.7231445,0.7817383,0.4213867,0.2592773,0.08007813,-0.1767578
4471,-81.875,-1.25,-85.625,-0.5834961,0.105957,0.3173828,0.2558594,0.08642578,-0.1728516
4475,-64.5,7.5,-111.0625,-0.4750977,-0.1694336,0.2905273,0.2509766,0.09765625,-0.1674805
4479,-58.3125,9.75,-114.875,-0.4521484,-0.4296875,0.2211914,0.2485352,0.1098633,-0.1630859
4483,-45.0625,8.25,-110.0625,-0.4326172,-0.6044922,0.1713867,0.2451172,0.1176758,-0.1591797
4487,-23.375,11.0625,-107.6875,-0.4868164,-0.7641602,0.1557617,0.2368164,0.1274414,-0.1591797
4491,-3.625,10.375,-129.8125,-0.3862305,-0.3989258,0.1904297,0.230957,0.1376953,-0.15625
4495,6.3125,14.625,-146.9375,-0.2851563,-0.4101563,0.2368164,0.2270508,0.1435547,-0.1547852
4499,9.0625,13.375,-155.25,-0.3046875,-0.3637695,0.2172852,0.2163086,0.1538086,-0.15625
4503,1.0625,5.875,-155.0625,-0.2734375,-0.324707,0.1787109,0.2080078,0.1674805,-0.1547852
4507,-11.375,-5.6875,-155.3125,-0.2700195,-0.2822266,0.1367188,0.2011719,0.1738281,-0.1547852
4511,-18.625,-15.25,-160,-0.1264648,-0.3481445,0.1557617,0.1904297,0.1850586,-0.1523438
4515,-2.875,-8.25,-182.0625,0.03564453,-0.453125,0.1713867,0.1782227,0.1938477,-0.1523438
4519,31.625,2.6875,-208.375,0.04736328,-0.5927734,0.125,0.1699219,0.2011719,-0.1508789
4523,50.1875,-3.3125,-216.25,-0.04492188,-0.3095703,0.1132813,0.1523438,0.2114258,-0.1547852
4527,8.1875,-32.5,-201.4375,-0.02978516,-0.07226563,0.1210938,0.1333008,0.2197266,-0.15625
4531,-33.875,-51.5,-194.875,0.3652344,-0.1499023,0.2060547,0.1225586,0.2260742,-0.15625
4535,-31.875,-26.6875,-234.75,0.5708008,-0.453125,0.1943359,0.1020508,0.2373047,-0.15625
4539,3.6875,-12.8125,-266.125,0.543457,-0.6821289,0.1289063,0.08056641,0.2460938,-0.1484375
4543,22.5,-16.125,-267,0.5239258,-0.5966797,0.07910156,0.06542969,0.25,-0.1538086
4547,-34.1875,-54.875,-238.8125,0.5048828,-0.07226563,0.09423828,0.04052734,0.2539063,-0.1538086
4551,-125,-83,-205.3125,1.027832,-0.3520508,0.144043,0.01757813,0.2587891,-0.1455078
4556,-120.9375,-53.8125,-231.6875,1.415527,-1.140625,0.140625,0.003417969,0.2651367,-0.137207
4560,-28.5625,-8.875,-265.0625,1.411621,-1.606934,0.1289063,-0.02001953,0.2675781,-0.125
4564,50.75,8.5625,-267.125,1.05127,-1.183594,0.08251953,-0.04492188,0.2651367,-0.1264648
4568,70.3125,-10.9375,-250.4375,0.7954102,-0.581543,0.01708984,-0.06298828,0.2612305,-0.1289063
4572,17.75,-42.9375,-248.625,0.8261719,0.2885742,0.04052734,-0.08398438,0.2563477,-0.1347656
4576,-81.625,-73.0625,-259.5,1.345703,0.05126953,0.1518555,-0.109375,0.2485352,-0.1289063
4580,-106.875,-53.75,-274.8125,1.768066,-0.8378906,0.1635742,-0.1259766,0.2436523,-0.1181641
4584,-56.75,-29.625,-268.5,1.922852,-1.479004,0.159668,-0.1494141,0.2373047,-0.1088867
4588,17.375,-7.875,-247.9375,1.698242,-1.37793,0.05175781,-0.1723633,0.2250977,-0.105957
4592,57.125,-8.125,-239.4375,1.454102,-0.8027344,-0.01318359,-0.184082,0.2124023,-0.1074219
4596,26.8125,-31.125,-224.875,1.275879,-0.3442383,-0.03222656,-0.2021484,0.1987305,-0.1113281
4600,-9.4375,-50.8125,-212.5625,1.546875,-0.5307617,0.1367188,-0.2172852,0.1850586,-0.1074219
4604,-23.625,-39.9375,-191.0625,1.791016,-0.9116211,0.2905273,-0.2294922,0.1748047,-0.1020508
4608,-19.625,-28,-162.0625,1.686523,-1.203125,0.3017578,-0.2412109,0.1611328,-0.1005859
4612,-14.6875,-20,-134.125,1.492676,-1.265137,0.2402344,-0.2495117,0.1489258,-0.09667969
4616,-9.125,-21.875,-102.625,1.322266,-1.389648,0.2480469,-0.2553711,0.1435547,-0.09521484
4620,5.75,-19.375,-73.8125,1.244629,-1.416504,0.355957,-0.2617188,0.1376953,-0.09521484
4624,19.875,-17.3125,-54.25,1.182617,-1.331055,0.5058594,-0.2661133,0.1313477,-0.09375
4628,23.125,-7.75,-36.0625,1.26416,-1.175781,0.6210938,-0.2675781,0.1274414,-0.09521484
4632,4.875,3.1875,-13.75,1.202148,-0.9736328,0.640625,-0.2685547,0.125,-0.09375
4636,-17.5,6.8125,5.5625,1.128418,-1.012695,0.5214844,-0.2700195,0.1264648,-0.09375
4640,-22.25,12.875,27.375,1.202148,-1.129395,0.3481445,-0.2685547,0.125,-0.09082031
4644,-17.0625,17.5625,54.75,1.16748,-1.094238,0.1982422,-0.2675781,0.1298828,-0.09375
4648,-12.3125,15.625,74.125,1.144043,-0.9853516,0.144043,-0.2636719,0.1347656,-0.09375
4652,-10.6875,18,88.875,1.22168,-0.9077148,0.1479492,-0.2592773,0.1401367,-0.09228516
4656,-11.9375,20,106.75,1.194336,-0.8647461,0.1826172,-0.2543945,0.1459961,-0.09667969
4660,-10,26.5625,115.4375,1.310547,-0.8574219,0.2250977,-0.2460938,0.1547852,-0.09521484
4664,-8.0625,33.0625,127,1.241211,-0.8920898,0.1865234,-0.2436523,0.1625977,-0.09765625
4668,-3.0625,33.3125,138.75,1.337891,-0.9892578,0.1943359,-0.234375,0.1723633,-0.1005859
4672,10.625,41.75,151.5625,1.43457,-1.140625,0.2519531,-0.222168,0.1801758,-0.1005859
4676,15.75,43.875,177.9375,1.39209,-1.05127,0.2368164,-0.2163086,0.1884766,-0.1044922
4680,13.875,43.3125,195.875,1.411621,-1.000977,0.2597656,-0.2006836,0.2001953,-0.1098633
4685,22.5,50.5625,203.9375,1.492676,-1.105957,0.2905273,-0.1865234,0.2114258,-0.1157227
4689,33.4375,56.9375,217.3125,1.43457,-1.020508,0.2636719,-0.1733398,0.2197266,-0.1181641
4693,32.1875,53.5,234,1.322266,-0.9038086,0.2558594,-0.1533203,0.2260742,-0.1235352
4697,31.6875,56.5,232.875,1.330078,-0.8105469,0.2788086,-0.1318359,0.2397461,-0.1279297
4701,29.6875,59.4375,233.1875,1.364746,-0.8920898,0.3017578,-0.1186523,0.2436523,-0.1333008
4705,29,65.6875,242.0625,1.353516,-0.8842773,0.2905273,-0.09716797,0.25,-0.1386719
4709,16.1875,62.25,255.6875,1.19043,-0.7485352,0.2441406,-0.07324219,0.2539063,-0.1425781
4713,13,58.875,261.5625,1.171387,-0.7988281,0.2060547,-0.05664063,0.2573242,-0.144043
4717,25.5625,61.375,252.25,1.082031,-0.7871094,0.1787109,-0.03076172,0.2612305,-0.1484375
4721,26.375,62.8125,248.3125,1.059082,-0.6591797,0.1787109,-0.004394531,0.2573242,-0.1523438
4725,8.5,62.1875,252.8125,0.9462891,-0.5698242,0.2060547,0.01269531,0.2563477,-0.1547852
4729,5.75,53.625,260.3125,0.8149414,-0.7368164,0.125,0.03808594,0.2539063,-0.1538086
4733,23.5,51.625,257.0625,0.8496094,-0.7753906,0.125,0.06152344,0.2485352,-0.1577148
4737,46.25,55.4375,249.125,0.6831055,-0.5893555,0.09423828,0.07861328,0.2426758,-0.1591797
4741,44.0625,55.875,235.0625,0.690918,-0.3754883,0.1479492,0.1020508,0.2314453,-0.1630859
4745,27.875,50.875,228.75,0.4736328,-0.3754883,0.1367188,0.1235352,0.2211914,-0.1645508
4749,14.9375,43.625,229.1875,0.4428711,-0.3598633,0.159668,0.1367188,0.2138672,-0.1645508
4753,-3.3125,34.5,228.25,0.3457031,-0.355957,0.159668,0.1567383,0.2011719,-0.1660156
4757,3.375,29.4375,215.375,0.2451172,-0.503418,0.1328125,0.1748047,0.1914063,-0.1645508
4761,21.5625,30.375,189.4375,0.3417969,-0.6083984,0.1943359,0.1865234,0.1801758,-0.1645508
4765,32.25,43.625,195,0.3188477,-0.5620117,0.2211914,0.199707,0.1674805,-0.1645508
4769,27.1875,40.0625,198.875,0.01660156,-0.324707,0.2250977,0.2177734,0.1523438,-0.1630859
4773,8.125,31.875,203.8125,-0.05273438,-0.1616211,0.2709961,0.2246094,0.1411133,-0.1630859
4777,1.8125,31,194.375,-0.1650391,-0.2275391,0.2597656,0.237793,0.1264648,-0.1630859
4781,29.875,35.25,180.125,-0.3510742,-0.2587891,0.1557617,0.2475586,0.1113281,-0.1606445
4785,61.1875,41.3125,166.0625,-0.5605469,0.05517578,0.06347656,0.2558594,0.1000977,-0.1591797
4789,62.125,30.9375,158.8125,-0.8549805,0.5566406,0.001953125,0.2651367,0.08251953,-0.1606445
4793,47.4375,14.8125,131.875,-0.9750977,1.003418,0.09423828,0.2709961,0.06738281,-0.1616211
4797,28.3125,7.1875,74.1875,-1.005859,1.166504,0.1787109,0.2749023,0.05761719,-0.1606445
4801,6.75,8.625,9.25,-0.9516602,1.049805,0.2749023,0.2758789,0.05517578,-0.1606445
4805,-25.4375,4.9375,-22.625,-0.8974609,0.7739258,0.3095703,0.2758789,0.05371094,-0.1606445
4809,-49.625,-4.625,-38.4375,-0.8046875,0.3081055,0.3134766,0.2758789,0.05761719,-0.1606445
4814,-46.4375,-2.375,-56.5,-0.6455078,-0.08007813,0.3134766,0.2734375,0.06396484,-0.1577148
4818,-31.6875,2.5,-70.625,-0.5952148,-0.3442383,0.2827148,0.2700195,0.07128906,-0.15625
4822,-18.3125,5.6875,-80.3125,-0.5756836,-0.4492188,0.2749023,0.2700195,0.07519531,-0.15625
4826,-15,4.0625,-79.25,-0.5874023,-0.5112305,0.2597656,0.2666016,0.08251953,-0.1547852
4830,-11.4375,-0.6875,-77.125,-0.5991211,-0.4765625,0.2329102,0.2626953,0.09130859,-0.1547852
4834,-7,-4.1875,-79.0625,-0.6342773,-0.3950195,0.2172852,0.2626953,0.09375,-0.1523438
4838,-6.25,-11.5625,-89.75,-0.6416016,-0.2548828,0.2709961,0.2568359,0.1025391,-0.1538086
4842,-29.5625,-16.5,-99.4375,-0.4868164,-0.2241211,0.3671875,0.253418,0.1123047,-0.1538086
4846,-54,-22.0625,-93.0625,-0.4985352,-0.371582,0.3330078,0.2485352,0.1176758,-0.1523438
4850,-53.9375,-23.875,-93.5625,-0.4365234,-0.5424805,0.2675781,0.2426758,0.1264648,-0.1508789
4854,-27.125,-16.375,-102.5,-0.3901367,-0.5966797,0.2211914,0.2353516,0.1376953,-0.1508789
4858,7.5,-8.4375,-123,-0.4672852,-0.503418,0.140625,0.230957,0.1425781,-0.1508789
4862,21.625,-13.5,-147.125,-0.4711914,-0.2470703,0.1826172,0.2236328,0.1523438,-0.1523438
4866,7.0625,-19.8125,-160.125,-0.3510742,-0.1269531,0.2211914,0.2128906,0.1625977,-0.1538086
4870,-23.3125,-30.8125,-159.1875,-0.2890625,-0.2084961,0.2250977,0.2045898,0.1713867,-0.1538086
4874,-37.0625,-41.6875,-156.25,-0.1884766,-0.3950195,0.1943359,0.1948242,0.1826172,-0.1538086
4878,-14.5625,-38.375,-168.875,-0.01416016,-0.6708984,0.1557617,0.1796875,0.1938477,-0.1523438
4882,28.4375,-26,-191.125,0.02832031,-0.6396484,0.140625,0.1713867,0.2001953,-0.1547852
4886,9.625,-38.4375,-210.9375,0.1132813,-0.2822266,0.3095703,0.1547852,0.2075195,-0.1577148
4890,-50.625,-49.625,-189.4375,0.3535156,-0.4960938,0.3481445,0.1367188,0.2211914,-0.15625
4894,-80.75,-54.5,-172.9375,0.3691406,-0.8725586,0.2480469,0.125,0.2299805,-0.1538086
4898,-61.1875,-51.875,-164.375,0.4116211,-1.179688,0.1674805,0.1079102,0.2397461,-0.1484375
4902,-11.25,-43.75,-164.25,0.3496094,-1.199219,0.09033203,0.09375,0.2451172,-0.1469727
4906,29.875,-36.4375,-180.0625,0.3071289,-0.7290039,0.1518555,0.08203125,0.2475586,-0.144043
4910,-2.25,-48,-194.0625,0.3417969,-0.3134766,0.2368164,0.06396484,0.2524414,-0.1484375
4914,-57.9375,-63,-188.625,0.5200195,-0.4921875,0.2558594,0.04248047,0.2573242,-0.144043
4918,-71.625,-64.4375,-183.8125,0.8378906,-1.1875,0.2597656,0.03076172,0.2587891,-0.1416016
4922,-24.125,-45.625,-174.5625,0.9272461,-1.580078,0.2368164,0.01074219,0.2636719,-0.1357422
4926,44.5,-28.5625,-169.25,0.7255859,-1.405273,0.1713867,-0.006835938,0.2661133,-0.1347656
4930,80.875,-26,-168.4375,0.5161133,-0.9116211,0.1328125,-0.01855469,0.2636719,-0.1401367
4934,64.1875,-43.625,-172,0.3574219,-0.2978516,0.1210938,-0.03173828,0.2587891,-0.144043
4938,4.375,-72.875,-168.1875,0.4853516,-0.09960938,0.1865234,-0.05078125,0.2548828,-0.1484375
4943,-35.5,-82.9375,-171.3125,0.7954102,-0.3950195,0.2368164,-0.06152344,0.2563477,-0.144043
4947,-19.9375,-66.5,-194.75,1.016113,-0.7016602,0.2636719,-0.08056641,0.2524414,-0.1401367
4951,19.625,-49.125,-215.375,1.02002,-0.7211914,0.2480469,-0.1010742,0.2460938,-0.1386719
4955,38.6875,-47.0625,-224.6875,0.9423828,-0.4882813,0.1787109,-0.1152344,0.2436523,-0.1386719
4959,30.3125,-58.625,-234.0625,0.9658203,-0.2275391,0.1367188,-0.1367188,0.2348633,-0.137207
4963,-1.9375,-72,-241.5,1.175293,-0.2470703,0.1328125,-0.1567383,0.2226563,-0.1386719
4967,-18.5,-74.4375,-239.875,1.368652,-0.5307617,0.1557617,-0.1699219,0.2124023,-0.1333008
4971,-4.6875,-71.8125,-241.375,1.430664,-0.7446289,0.1674805,-0.1923828,0.2011719,-0.125
4975,21.125,-67.125,-243.5,1.477539,-0.7602539,0.1674805,-0.2128906,0.1860352,-0.1225586
4979,41,-62.375,-235.375,1.446289,-0.6821289,0.1479492,-0.2236328,0.1748047,-0.1210938
4983,53.3125,-60.375,-224.375,1.419434,-0.6044922,0.1748047,-0.2402344,0.15625,-0.1166992
4987,55.75,-58.1875,-204.3125,1.43457,-0.5307617,0.2519531,-0.2519531,0.1376953,-0.1166992
4991,48.25,-47.25,-165.0625,1.601563,-0.4570313,0.390625,-0.2592773,0.1274414,-0.1157227
4995,36.25,-33.5,-135.3125,1.43457,-0.4726563,0.4482422,-0.2685547,0.1113281,-0.1142578
4999,31.8125,-28.6875,-125.75,1.291504,-0.4335938,0.4326172,-0.2758789,0.1000977,-0.112793
5003,22.4375,-27.625,-117,1.244629,-0.4179688,0.4135742,-0.2807617,0.08984375,-0.1113281
5007,15.6875,-28,-105.5,1.213867,-0.4765625,0.4018555,-0.2841797,0.08105469,-0.1098633
5011,10.9375,-24.4375,-87.8125,1.306641,-0.46875,0.4326172,-0.2890625,0.07373047,-0.1098633
5015,2.9375,-15.5625,-65.1875,1.337891,-0.4414063,0.4560547,-0.2915039,0.06640625,-0.1088867
5019,-9.375,-7.25,-51,1.314453,-0.4101563,0.4404297,-0.2949219,0.06103516,-0.1074219
5023,-20.75,0.3125,-41.3125,1.29541,-0.4609375,0.3828125,-0.293457,0.05859375,-0.105957
5027,-22.6875,6.1875,-28.75,1.248535,-0.5737305,0.2749023,-0.2983398,0.05615234,-0.105957
5031,-14.8125,9.5,-12.625,1.194336,-0.6123047,0.1748047,-0.2983398,0.05517578,-0.1074219
5035,-0.3125,11,2.125,1.155762,-0.5966797,0.1132813,-0.2973633,0.05371094,-0.105957
5039,13.6875,11.4375,15.8125,1.117188,-0.5151367,0.09423828,-0.2958984,0.05517578,-0.1098633
5043,23.25,14.0625,24.875,1.151855,-0.3442383,0.1132813,-0.2958984,0.05615234,-0.1088867
5047,18.9375,16.9375,32.875,1.078125,-0.2353516,0.1210938,-0.2924805,0.05761719,-0.1098633
5051,15.75,14.875,36.625,1.027832,-0.1850586,0.09814453,-0.2924805,0.06005859,-0.1142578
5055,15.5625,15.5,37.8125,1.004395,-0.1420898,0.06738281,-0.2915039,0.0625,-0.1157227
5059,17.6875,13.625,36.8125,0.9423828,-0.1074219,0.06738281,-0.2900391,0.06494141,-0.1166992
5063,20.6875,10.3125,30.125,0.9272461,-0.08007813,0.05957031,-0.2890625,0.06640625,-0.1181641
5067,25.375,9.8125,26.75,0.9814453,-0.06835938,0.1020508,-0.2866211,0.06884766,-0.1181641
5072,25.9375,12.75,25.25,1.000488,-0.02978516,0.125,-0.2866211,0.06982422,-0.1196289
5076,26.875,13.5625,21.625,0.9658203,-0.04541016,0.1367188,-0.2851563,0.07128906,-0.1235352
5080,27.6875,13.75,23.25,0.9853516,-0.02978516,0.1367188,-0.2851563,0.07275391,-0.125
5084,20.25,13.25,27.8125,0.9389648,0.03613281,0.144043,-0.2841797,0.07373047,-0.1289063
