Packet number,Gyroscope X (deg/s),Gyroscope Y (deg/s),Gyroscope Z (deg/s),Accelerometer X (g),Accelerometer Y (g),Accelerometer Z (g),Magnetometer X (G),Magnetometer Y (G),Magnetometer Z (G)
0,34.5,16.6875,42.5,-0.1767578,-1.02832,0.425293,0.1342773,0.2172852,-0.1645508
4,37.0625,23.6875,49.625,-0.2270508,-0.9697266,0.4135742,0.1401367,0.2124023,-0.1674805
8,33.5625,23.8125,61.5,-0.2851563,-0.9233398,0.390625,0.1459961,0.2075195,-0.1699219
12,30.9375,23.4375,66.625,-0.3046875,-0.8803711,0.3867188,0.1484375,0.2036133,-0.1699219
16,27.1875,23.8125,67.1875,-0.3125,-0.8417969,0.3979492,0.1547852,0.2001953,-0.1728516
20,24.375,25.8125,63.375,-0.3046875,-0.8339844,0.4287109,0.1616211,0.1948242,-0.1713867
24,21.875,31.0625,60.0625,-0.3320313,-0.8803711,0.4672852,0.1665039,0.1923828,-0.1713867
29,25.375,34.3125,62.5625,-0.3823242,-0.9892578,0.4711914,0.1723633,0.1875,-0.1728516
33,32.625,37.4375,71.375,-0.3935547,-0.9619141,0.4633789,0.1782227,0.1811523,-0.1713867
37,36.25,39.875,84.8125,-0.4594727,-0.9697266,0.4482422,0.184082,0.1772461,-0.1738281
41,39.5625,39.75,84.625,-0.5063477,-0.8613281,0.5019531,0.1904297,0.1723633,-0.175293
45,43.625,42,82.0625,-0.5410156,-0.9389648,0.5556641,0.1962891,0.1660156,-0.1738281
49,52.125,45.75,86.5625,-0.6264648,-1.047363,0.590332,0.203125,0.1601563,-0.1713867
53,62.625,49.8125,92.75,-0.7075195,-1.012695,0.6328125,0.2119141,0.1523438,-0.175293
57,68.125,53.3125,111.625,-0.8354492,-1.109863,0.6367188,0.2202148,0.1411133,-0.175293
61,74.75,49.875,128,-0.9711914,-1.062988,0.625,0.2246094,0.1323242,-0.1767578
65,79.625,36.1875,135.1875,-1.087402,-1.047363,0.5981445,0.234375,0.1201172,-0.1782227
69,86.125,15.4375,145.5625,-1.129883,-1.05127,0.5751953,0.2412109,0.1049805,-0.1796875
73,90.0625,-3.1875,151.9375,-1.07959,-0.9736328,0.6098633,0.2460938,0.09375,-0.1806641
77,94.75,-8.8125,162.25,-1.029297,-1.090332,0.7329102,0.2519531,0.07763672,-0.1875
81,103.375,-5.6875,178.6875,-1.044922,-1.121582,0.7480469,0.2583008,0.05859375,-0.1928711
85,109.1875,-1.8125,192.4375,-1.041016,-1.070801,0.7675781,0.2617188,0.04492188,-0.1928711
89,115.8125,1.5,206.125,-1.056641,-1.098145,0.7636719,0.2675781,0.02148438,-0.1972656
93,124.375,9.0625,213.875,-1.103027,-1.02832,0.7675781,0.2724609,-0.003417969,-0.199707
97,125.5625,0.4375,228.3125,-1.315918,-1.043945,0.6367188,0.2749023,-0.02050781,-0.2011719
101,129.75,-11.5,239.625,-1.28125,-1.086426,0.675293,0.2773438,-0.046875,-0.2026367
105,129.9375,-17.4375,259.75,-1.312012,-1.043945,0.6210938,0.2749023,-0.078125,-0.2041016
109,133,-30.3125,268.4375,-1.304199,-1.066895,0.5522461,0.2734375,-0.09716797,-0.2055664
113,131.6875,-43.0625,285.375,-1.203613,-0.9389648,0.4560547,0.2666016,-0.1318359,-0.2055664
117,130.5,-48.8125,289.25,-1.060547,-0.9272461,0.4790039,0.2568359,-0.1621094,-0.2080078
121,127.9375,-37.75,297.3125,-0.9594727,-0.9116211,0.5214844,0.25,-0.1831055,-0.2080078
125,123.3125,-36.9375,320.8125,-1.056641,-0.9428711,0.3364258,0.234375,-0.2143555,-0.2055664
129,122.0625,-76.75,327.5625,-0.9130859,-0.7172852,0.06347656,0.2128906,-0.2441406,-0.2041016
133,121.5625,-124.4375,308.6875,-0.5141602,-0.7250977,-0.05908203,0.1987305,-0.2631836,-0.2026367
137,126.375,-146.3125,285.125,0.008789063,-0.6201172,-0.03222656,0.1699219,-0.2866211,-0.2011719
141,130.375,-145.375,263.3125,0.4233398,-0.4804688,-0.1054688,0.1425781,-0.3095703,-0.1987305
145,125.375,-124.4375,242.125,0.8730469,-0.1772461,-0.1899414,0.125,-0.3208008,-0.1943359
149,109.875,-94.0625,219.3125,1.241211,-0.002441406,-0.2397461,0.09765625,-0.3344727,-0.1889648
153,96.75,-64.625,179.3125,1.523926,0.21875,-0.3208008,0.07714844,-0.3457031,-0.1821289
158,76.1875,-41.5625,123.1875,1.682617,0.4477539,-0.3823242,0.06640625,-0.3491211,-0.1796875
162,50.8125,-22,63.1875,1.694336,0.5566406,-0.3632813,0.0546875,-0.3569336,-0.1713867
166,28.625,-6.25,8.4375,1.620605,0.5644531,-0.2939453,0.04980469,-0.3579102,-0.1699219
170,8.3125,10.25,-45.0625,1.477539,0.5527344,-0.2055664,0.05078125,-0.359375,-0.1674805
174,-8.0625,28.0625,-90.9375,1.26416,0.5214844,-0.1435547,0.05712891,-0.3579102,-0.168457
178,-23.1875,41.4375,-130.875,1.004395,0.4555664,-0.1166992,0.06787109,-0.3544922,-0.168457
182,-32.8125,47.5,-162.4375,0.7836914,0.3740234,-0.1323242,0.07861328,-0.3544922,-0.1674805
186,-47.1875,51.0625,-189.5,0.6479492,0.3974609,-0.1362305,0.09375,-0.3466797,-0.1713867
190,-62,58,-214.4375,0.5356445,0.2456055,-0.08203125,0.1142578,-0.3393555,-0.1738281
194,-70.0625,64.375,-236.375,0.3999023,0.1020508,-0.04736328,0.128418,-0.3305664,-0.175293
198,-77.9375,62.1875,-261.5,0.2451172,0.02832031,-0.05517578,0.1523438,-0.3154297,-0.1782227
202,-85.5625,50.75,-294.3125,0.1484375,-0.1035156,-0.03613281,0.1738281,-0.296875,-0.1821289
206,-94.8125,44.25,-331.625,0.1367188,-0.2314453,0.09033203,0.1904297,-0.2832031,-0.1875
210,-107.8125,55.5,-350.875,-0.05664063,-0.5385742,0.2133789,0.215332,-0.2558594,-0.1889648
214,-103.25,67.5625,-343.625,-0.296875,-0.9311523,0.2329102,0.2368164,-0.2255859,-0.1918945
218,-104.375,62.375,-330.5,-0.4750977,-0.7290039,0.1171875,0.2485352,-0.2045898,-0.1875
222,-116.375,29.25,-333.25,-0.5834961,-0.7133789,-0.04003906,0.2641602,-0.1704102,-0.1918945
226,-130.25,-0.8125,-354.5625,-0.4208984,-0.8105469,0.05957031,0.2734375,-0.1342773,-0.1918945
230,-145.8125,9.5625,-352.3125,-0.09912109,-1.11377,0.1982422,0.2807617,-0.1083984,-0.1928711
234,-165.375,92.1875,-342.0625,0.1445313,-1.677246,0.5288086,0.2856445,-0.06835938,-0.1904297
238,-158.25,171.25,-313.5625,-0.4326172,-1.852051,0.3173828,0.2890625,-0.02929688,-0.1796875
242,-155.375,151.0625,-309.75,-1.308105,-1.859863,0.05957031,0.2924805,-0.004394531,-0.1660156
246,-138.1875,59.9375,-295.375,-2.005859,-2.061523,0.02880859,0.2900391,0.03027344,-0.1469727
250,-114.75,-51.25,-289.375,-1.738281,-1.987793,0.105957,0.2817383,0.06396484,-0.1455078
254,-106.1875,-80.625,-284.25,-0.8164063,-1.809082,0.4135742,0.2724609,0.08398438,-0.1469727
258,-121.0625,0.3125,-253.625,-0.3085938,-1.74707,0.7211914,0.2568359,0.1113281,-0.144043
262,-122.875,96.875,-223.875,-0.7695313,-2.030762,0.855957,0.2436523,0.1362305,-0.1333008
266,-91.6875,131.375,-183.5,-1.533203,-2.225098,0.8251953,0.2392578,0.1474609,-0.1210938
270,-52.5625,108.25,-139.8125,-2.021484,-1.910156,0.6328125,0.2329102,0.1625977,-0.1074219
274,-29,54.1875,-111.125,-2.071777,-1.370117,0.4018555,0.2260742,0.1723633,-0.09912109
278,-28.4375,2.75,-89.875,-1.858398,-0.9541016,0.3979492,0.2236328,0.1801758,-0.09667969
282,-38.75,-16.375,-61.5,-1.645508,-0.8457031,0.6484375,0.215332,0.1850586,-0.09228516
287,-40.875,-16.9375,-27.75,-1.544922,-0.9892578,0.9521484,0.2119141,0.1899414,-0.08984375
291,-23.875,-7.375,3.625,-1.459473,-1.203125,1.198242,0.2119141,0.1923828,-0.09082031
295,9.9375,7.6875,24.9375,-1.397461,-1.288574,1.194336,0.2119141,0.1914063,-0.08984375
299,36.5,28.125,46.6875,-1.413086,-1.125488,0.9829102,0.2138672,0.1884766,-0.08984375
303,44.4375,42.375,79.9375,-1.587402,-1.05127,0.6674805,0.21875,0.1850586,-0.08984375
307,45.25,28.875,111.125,-1.78125,-1.036133,0.4213867,0.2246094,0.1772461,-0.09082031
311,46.3125,-2,137.5,-1.831543,-1.144531,0.3481445,0.234375,0.1674805,-0.09375
315,50.8125,-26.375,163.3125,-1.75,-1.304199,0.3828125,0.2402344,0.1586914,-0.09521484
319,58.8125,-36.4375,195.0625,-1.556152,-1.432129,0.4018555,0.25,0.1450195,-0.1035156
323,64.375,-31.0625,221.25,-1.351074,-1.416504,0.390625,0.2592773,0.125,-0.1088867
327,68.3125,-24.875,242.5,-1.277344,-1.479004,0.3598633,0.2675781,0.1123047,-0.1157227
331,72.9375,-23.9375,255.5,-1.253906,-1.498535,0.3789063,0.2792969,0.08886719,-0.1181641
335,80.5,-21.1875,265.6875,-1.165039,-1.587891,0.4404297,0.2880859,0.06396484,-0.125
339,84.875,-13.0625,278.9375,-1.129883,-1.552734,0.425293,0.2924805,0.04394531,-0.1303711
343,84.5625,-6.5,293.1875,-1.176758,-1.61084,0.4057617,0.3022461,0.01367188,-0.1333008
347,85.5625,-12.75,311.0625,-1.253906,-1.537109,0.3134766,0.3056641,-0.01806641,-0.1333008
351,84.75,-31.75,322.625,-1.246094,-1.505859,0.2290039,0.3081055,-0.04296875,-0.1386719
355,83.4375,-55.25,329.875,-1.087402,-1.350586,0.1865234,0.3056641,-0.07714844,-0.144043
359,82.5625,-74.75,332.875,-0.9365234,-1.296387,0.125,0.3007813,-0.1118164,-0.1508789
363,81.4375,-81.6875,333,-0.5795898,-1.152344,0.1826172,0.2963867,-0.1367188,-0.1538086
367,76.3125,-70.25,331.1875,-0.4365234,-1.059082,0.2094727,0.2832031,-0.171875,-0.1591797
371,72.4375,-59,319.1875,-0.4829102,-1.062988,0.2675781,0.2675781,-0.203125,-0.1606445
375,78.5625,-62.6875,314.1875,-0.5371094,-0.9892578,0.1943359,0.2568359,-0.2231445,-0.1606445
379,75.5625,-72.9375,317.75,-0.4555664,-0.7792969,0.06347656,0.2368164,-0.2519531,-0.1616211
383,71.625,-95,310.375,-0.3085938,-0.6318359,-0.05908203,0.2138672,-0.2792969,-0.1630859
387,75.0625,-127.3125,291.875,-0.1342773,-0.550293,-0.1743164,0.1972656,-0.2919922,-0.1645508
391,76,-140.6875,271.0625,0.2216797,-0.421875,-0.1362305,0.1699219,-0.3129883,-0.1674805
395,73.5,-133.9375,262.0625,0.5512695,-0.08398438,-0.1860352,0.1425781,-0.328125,-0.1660156
399,60.25,-130.1875,238.1875,0.7255859,0.269043,-0.2324219,0.1235352,-0.3378906,-0.1660156
403,51.625,-129.25,195.4375,0.8149414,0.4633789,-0.2055664,0.09960938,-0.3491211,-0.1674805
407,47.9375,-118.5,156.875,1.163574,0.5683594,-0.08203125,0.07714844,-0.3554688,-0.1630859
411,35.375,-73.375,133,1.430664,0.7314453,0.03271484,0.06542969,-0.3579102,-0.1616211
416,21.1875,-24.5625,97.9375,1.504395,0.7973633,0.04785156,0.05224609,-0.3618164,-0.1606445
420,7.5625,6.625,54.1875,1.318359,0.8129883,0.02880859,0.04394531,-0.3618164,-0.1591797
424,-2.5625,17.125,6.75,1.101563,0.7392578,0.07910156,0.04248047,-0.3642578,-0.1591797
428,-6.0625,16.875,-35.5625,0.9155273,0.6884766,0.09423828,0.04052734,-0.3657227,-0.1606445
432,-16.0625,19.0625,-67.125,0.7836914,0.6845703,0.1098633,0.04736328,-0.3632813,-0.1606445
436,-24.625,26.125,-93.375,0.6831055,0.6264648,0.1171875,0.05224609,-0.3632813,-0.1630859
440,-34.75,31.875,-112.0625,0.574707,0.6108398,0.07519531,0.06396484,-0.3579102,-0.1630859
444,-47.3125,36.8125,-131.1875,0.5239258,0.5097656,0.03271484,0.07470703,-0.3579102,-0.1660156
448,-54.5,46.75,-156.625,0.527832,0.4013672,0.09423828,0.08544922,-0.3520508,-0.168457
452,-61.9375,68.3125,-184.375,0.4428711,0.1640625,0.1904297,0.1010742,-0.3442383,-0.1728516
456,-64.25,90.9375,-199.0625,0.2529297,0.008789063,0.1787109,0.1225586,-0.3330078,-0.175293
460,-70.5625,101.3125,-201.0625,-0.04492188,-0.06835938,0.05957031,0.1342773,-0.328125,-0.1767578
464,-82.1875,95.5,-205.5,-0.2231445,-0.04541016,-0.02050781,0.1557617,-0.3144531,-0.1782227
468,-100.6875,86,-209.75,-0.328125,-0.1308594,-0.009277344,0.1757813,-0.2993164,-0.1796875
472,-109.875,73.8125,-225.5625,-0.3706055,-0.06445313,0.07910156,0.1889648,-0.2856445,-0.1835938
476,-106.4375,57.375,-232.25,-0.4521484,-0.3950195,0.03271484,0.2070313,-0.2680664,-0.1835938
480,-121.375,39.875,-239.5625,-0.4482422,-0.3754883,-0.01660156,0.222168,-0.2441406,-0.1875
484,-132.1875,23.8125,-256.1875,-0.3974609,-0.4921875,-0.009277344,0.234375,-0.2319336,-0.1918945
488,-148.25,31.0625,-264.125,-0.2773438,-0.6435547,0.1713867,0.2485352,-0.203125,-0.1958008
492,-156.8125,53.3125,-263.9375,-0.3974609,-0.9272461,0.2402344,0.2592773,-0.1733398,-0.1987305
496,-154.25,80.6875,-269.25,-0.4326172,-1.059082,0.4018555,0.269043,-0.1518555,-0.1972656
500,-147.875,108.25,-264.8125,-0.7543945,-1.237793,0.390625,0.2783203,-0.1196289,-0.1928711
504,-135.75,81,-265.5625,-1.219238,-1.144531,0.1713867,0.2866211,-0.08837891,-0.1850586
508,-141.0625,13,-267.875,-1.366211,-0.9853516,0.09033203,0.2890625,-0.06835938,-0.1821289
512,-148.0625,-30.6875,-272.5625,-0.7504883,-1.070801,0.3173828,0.2890625,-0.03564453,-0.1821289
516,-153.5625,23.625,-268.875,-0.05664063,-1.354492,0.7138672,0.2841797,-0.004394531,-0.1806641
520,-142.125,139.125,-254.5,-0.04492188,-1.67334,0.7944336,0.2817383,0.01757813,-0.1738281
524,-117.5625,199.625,-252,-0.8857422,-1.812988,0.5058594,0.2807617,0.04736328,-0.1547852
528,-90.0625,160.9375,-258.25,-1.769531,-1.805176,0.2368164,0.2792969,0.07617188,-0.1333008
532,-71.25,94.5625,-247.4375,-1.67627,-1.766602,0.3671875,0.2749023,0.09130859,-0.1225586
536,-61.25,87.4375,-222.8125,-1.137695,-1.572266,0.5249023,0.2651367,0.1137695,-0.112793
540,-58.1875,117.4375,-206.375,-1.168945,-1.501953,0.5288086,0.2558594,0.1337891,-0.1005859
545,-38.5,115.9375,-198.8125,-1.75,-1.537109,0.4868164,0.2485352,0.1450195,-0.09082031
549,-10.625,87,-177.5,-2.211426,-1.537109,0.590332,0.2392578,0.1611328,-0.08154297
553,10.75,54.875,-124.5,-2.494141,-1.358398,0.625,0.2319336,0.1762695,-0.07470703
557,11.9375,19.1875,-56.3125,-2.583008,-0.9775391,0.5869141,0.2246094,0.1801758,-0.07080078
561,4.875,-19.375,0,-2.443848,-0.8613281,0.5405273,0.2236328,0.1835938,-0.07177734
565,5.0625,-42.25,46.25,-2.013672,-0.9619141,0.5869141,0.2236328,0.1826172,-0.07324219
569,18.125,-30.8125,79.6875,-1.529297,-1.059082,0.6484375,0.2270508,0.1787109,-0.07763672
573,30.375,0.625,108,-1.285156,-1.020508,0.590332,0.2319336,0.1713867,-0.08007813
577,40.8125,24.9375,126.5625,-1.285156,-1.036133,0.4521484,0.2412109,0.1625977,-0.08300781
581,50.625,29.375,137.6875,-1.447754,-1.020508,0.3330078,0.2460938,0.1538086,-0.08300781
585,53.75,17.25,156.625,-1.610352,-1.078613,0.2133789,0.2558594,0.1425781,-0.08544922
589,50.625,-6.625,181.4375,-1.727051,-1.121582,0.125,0.2651367,0.1264648,-0.08691406
593,47.3125,-33,204.25,-1.699707,-1.222656,0.1098633,0.269043,0.1152344,-0.08984375
597,46.375,-48.0625,230.6875,-1.48291,-1.436035,0.2021484,0.2792969,0.09619141,-0.09667969
601,52.3125,-48.375,252.1875,-1.32373,-1.525391,0.2402344,0.2890625,0.07373047,-0.1035156
605,57.375,-51.375,260.8125,-1.227051,-1.428223,0.2290039,0.2949219,0.05615234,-0.1074219
609,56.375,-62.75,265.25,-1.261719,-1.412598,0.1904297,0.3007813,0.02880859,-0.1166992
613,63.125,-77.625,268.6875,-1.129883,-1.424316,0.2290039,0.3056641,0.002441406,-0.1235352
617,69.3125,-82.5625,270.0625,-0.9790039,-1.428223,0.2944336,0.3081055,-0.01708984,-0.1318359
621,73.9375,-73,275.9375,-0.8588867,-1.327148,0.3481445,0.3081055,-0.04833984,-0.1386719
625,78.5,-68.4375,279,-0.8510742,-1.265137,0.3095703,0.3046875,-0.078125,-0.1455078
629,79.4375,-52.125,280.125,-0.6376953,-1.179688,0.4018555,0.3032227,-0.09814453,-0.1508789
633,76.6875,-30.8125,291.6875,-0.7075195,-1.129395,0.3364258,0.2949219,-0.1293945,-0.15625
637,76.0625,-38.0625,290.1875,-0.7929688,-0.9541016,0.2211914,0.2866211,-0.1606445,-0.15625
641,80.3125,-64.0625,272.3125,-0.715332,-0.9506836,0.2211914,0.2783203,-0.1791992,-0.1577148
645,91.5,-56.1875,256.75,-0.4404297,-0.9311523,0.4018555,0.2651367,-0.2055664,-0.1606445
649,92.625,-38,263.8125,-0.5795898,-0.8261719,0.3173828,0.2509766,-0.2304688,-0.1606445
653,98.75,-50.1875,255.5625,-0.746582,-0.7211914,0.144043,0.2412109,-0.2480469,-0.1577148
657,97.6875,-75.0625,250.1875,-0.5449219,-0.3754883,0.05957031,0.222168,-0.2719727,-0.1547852
661,87.9375,-100.625,233,-0.5952148,-0.3754883,-0.03222656,0.2055664,-0.2905273,-0.15625
665,95,-127.5,212.9375,-0.3588867,-0.3989258,-0.02441406,0.1904297,-0.3032227,-0.15625
669,93.875,-109.9375,222.3125,0.2451172,-0.1850586,0.07128906,0.1674805,-0.3193359,-0.15625
674,75.8125,-45.125,230.8125,0.7797852,0.121582,0.1982422,0.1474609,-0.3344727,-0.1523438
678,67.25,8.3125,221.3125,0.7954102,0.2299805,0.06738281,0.1318359,-0.3442383,-0.1494141
682,56.3125,25.1875,189.625,0.7836914,0.5371094,-0.06689453,0.1142578,-0.3544922,-0.1416016
686,41.75,16.4375,156.6875,0.8222656,0.6147461,-0.1708984,0.09863281,-0.3618164,-0.137207
690,30.375,-8.875,117.125,0.9462891,0.7041016,-0.2246094,0.09277344,-0.3657227,-0.1347656
694,17.875,-33.0625,67.0625,1.19043,0.8598633,-0.1860352,0.08056641,-0.3691406,-0.1303711
698,4,-38.0625,17,1.399902,0.8867188,-0.0859375,0.07373047,-0.3691406,-0.1318359
702,-11.125,-11.9375,-21.1875,1.516113,0.8671875,0.07910156,0.07373047,-0.3681641,-0.1318359
706,-22.1875,26.125,-58.75,1.376465,0.7856445,0.140625,0.07617188,-0.3681641,-0.1347656
710,-25.4375,48.5,-101.4375,1.035645,0.6733398,0.1171875,0.08447266,-0.3657227,-0.1357422
714,-29.375,55.3125,-136.8125,0.6791992,0.5878906,0.05566406,0.09375,-0.3632813,-0.1347656
718,-36.9375,47.125,-164.5,0.3999023,0.5214844,-0.01660156,0.1079102,-0.359375,-0.137207
722,-46.8125,30.0625,-185.125,0.2373047,0.4633789,-0.06298828,0.125,-0.3491211,-0.1386719
726,-60.5,17.5,-200.125,0.2333984,0.3466797,-0.05126953,0.1367188,-0.3432617,-0.1416016
730,-74.375,14.5,-217.4375,0.2646484,0.2265625,-0.01660156,0.1557617,-0.3305664,-0.1469727
734,-84.4375,23.125,-243.625,0.2875977,0.08642578,0.06347656,0.1723633,-0.3168945,-0.1523438
738,-98.0625,42.125,-258.0625,0.1054688,-0.1230469,0.1367188,0.1855469,-0.3066406,-0.15625
742,-103.6875,53.5,-262.875,-0.2001953,-0.3364258,0.1132813,0.2070313,-0.2841797,-0.1591797
746,-112.25,48.875,-263.3125,-0.4750977,-0.4257813,0.08251953,0.2260742,-0.2607422,-0.1630859
750,-113.6875,30.6875,-269.3125,-0.7348633,-0.519043,0.105957,0.2402344,-0.2441406,-0.1674805
754,-118.25,1.25,-268.9375,-0.8588867,-0.6005859,0.1289063,0.253418,-0.2192383,-0.168457
758,-115.75,-19.5625,-280.75,-0.6806641,-0.6787109,0.2749023,0.2641602,-0.1918945,-0.1738281
762,-118.5625,3.375,-272.375,-0.3588867,-0.7368164,0.4018555,0.2700195,-0.171875,-0.1782227
766,-133.5625,65,-254.4375,-0.328125,-0.8066406,0.4365234,0.2792969,-0.140625,-0.1821289
770,-140.8125,106.5625,-239.4375,-0.746582,-1.016602,0.2983398,0.2880859,-0.1118164,-0.1738281
774,-128.9375,77.5625,-246,-1.28125,-1.167969,0.1328125,0.2939453,-0.09326172,-0.1699219
778,-113.1875,-2.3125,-267.4375,-1.389648,-1.08252,0.09423828,0.2973633,-0.06298828,-0.1630859
782,-111.125,-68.3125,-277.1875,-0.9907227,-1.043945,0.1787109,0.2949219,-0.03076172,-0.1645508
786,-124.4375,-91.25,-276.875,-0.4946289,-0.9892578,0.2250977,0.2890625,-0.01074219,-0.1699219
790,-146.9375,-49,-276.125,0.140625,-1.11377,0.4404297,0.2807617,0.02148438,-0.1738281
794,-160.9375,40.375,-277.375,0.004882813,-1.537109,0.4750977,0.2734375,0.05273438,-0.168457
798,-157.625,79.875,-274.8125,-0.5834961,-1.809082,0.2709961,0.2675781,0.07617188,-0.1616211
803,-140.4375,52.8125,-296.875,-1.12207,-2.084961,0.1904297,0.2583008,0.1035156,-0.1484375
807,-103.4375,-0.375,-318.0625,-1.319824,-2.283203,0.3251953,0.2436523,0.1323242,-0.137207
811,-70.1875,-10.5625,-308.875,-1.184082,-2.209473,0.7021484,0.230957,0.1523438,-0.1333008
815,-50.8125,39.8125,-258.5625,-1.351074,-2.01123,0.9829102,0.2094727,0.1762695,-0.1303711
819,-43,86.6875,-170.3125,-1.870117,-1.785645,1.071289,0.1962891,0.1923828,-0.1235352
823,-31.5,89.1875,-83.5625,-2.315918,-1.479004,0.9907227,0.1938477,0.2001953,-0.1157227
827,-25.8125,38.75,-20.8125,-2.494141,-1.125488,0.9638672,0.1879883,0.2050781,-0.1088867
831,-19.5,-20.25,21.9375,-2.191895,-1.125488,1.098145,0.1889648,0.2050781,-0.1088867
835,3.0625,-40.875,58.375,-1.618164,-1.350586,1.22168,0.1914063,0.2036133,-0.1088867
839,40.4375,-26.625,79.4375,-1.199707,-1.397461,1.098145,0.1938477,0.2001953,-0.1113281
843,67.25,8.5,94.875,-0.9946289,-1.253418,0.8828125,0.2011719,0.1923828,-0.1157227
847,74.875,46.375,118.875,-1.037109,-1.144531,0.605957,0.2055664,0.1860352,-0.1196289
851,71.1875,64.9375,147.75,-1.257813,-1.160156,0.3828125,0.2163086,0.1748047,-0.1196289
855,67.9375,54.0625,166.125,-1.486328,-1.245605,0.3364258,0.2285156,0.1611328,-0.1210938
859,73.25,31.125,193.6875,-1.583496,-1.537109,0.3520508,0.234375,0.1523438,-0.1210938
863,84.0625,7.1875,221.5625,-1.463379,-1.61084,0.3481445,0.2475586,0.1337891,-0.1264648
867,86.875,-6.0625,245.125,-1.273438,-1.603027,0.3251953,0.2592773,0.1123047,-0.1289063
871,87.1875,-11.9375,266.375,-1.12207,-1.661621,0.3212891,0.2700195,0.09765625,-0.1347656
875,86.4375,-9.4375,281.25,-0.9287109,-1.576172,0.375,0.2792969,0.06982422,-0.1401367
879,82.75,1.6875,293.4375,-0.8706055,-1.576172,0.390625,0.2890625,0.04003906,-0.1425781
883,86.25,1.9375,299.25,-0.8974609,-1.505859,0.3671875,0.2949219,0.01757813,-0.144043
887,88.5,-2.6875,301.9375,-0.8125,-1.362305,0.3598633,0.3022461,-0.01464844,-0.1484375
891,84.875,-1.875,306.75,-0.730957,-1.237793,0.3442383,0.3046875,-0.04589844,-0.1494141
895,84.0625,-6.125,302.625,-0.7543945,-1.22998,0.3095703,0.3032227,-0.06933594,-0.1508789
899,81.75,-11.25,303.0625,-0.7075195,-1.094238,0.3095703,0.3007813,-0.1044922,-0.1508789
903,74.5,1.6875,309.75,-0.6376953,-1.105957,0.3520508,0.2963867,-0.1357422,-0.1508789
907,71.4375,8.5,323.625,-0.6303711,-0.9194336,0.2480469,0.2890625,-0.1567383,-0.1508789
911,65.3125,1,320.1875,-0.7114258,-0.8300781,0.1289063,0.2792969,-0.1879883,-0.1484375
915,59.1875,-14.375,310.5,-0.5795898,-0.6821289,0.1518555,0.2651367,-0.2207031,-0.144043
919,51.3125,-7.375,312.375,-0.5449219,-0.7172852,0.1557617,0.2558594,-0.2368164,-0.144043
923,47.8125,-5.5,308.125,-0.4868164,-0.5737305,0.1479492,0.2353516,-0.265625,-0.1416016
927,44.375,-11.9375,309,-0.4907227,-0.503418,0.09814453,0.2177734,-0.2880859,-0.1386719
932,43.875,-34.875,292.25,-0.5756836,-0.3911133,0.001953125,0.2021484,-0.3017578,-0.1401367
936,52.1875,-72.75,266.5,-0.4404297,-0.371582,-0.009277344,0.1782227,-0.3217773,-0.1386719
940,58.5,-104.25,247.625,-0.246582,-0.2006836,-0.06689453,0.1547852,-0.3369141,-0.1386719
944,50.875,-110.75,247.9375,0.2568359,0.07861328,-0.03613281,0.1376953,-0.3457031,-0.137207
948,35.25,-88.1875,246.4375,0.7177734,0.1835938,0.04785156,0.1118164,-0.3569336,-0.1357422
952,31.625,-43.4375,227.125,1.113281,0.3120117,0.125,0.08886719,-0.3666992,-0.1347656
956,27.5625,-4.5625,197.1875,1.39209,0.5605469,0.01367188,0.07373047,-0.3691406,-0.1318359
960,18.0625,11.0625,138.25,1.508301,0.7548828,-0.02832031,0.05712891,-0.3730469,-0.1303711
964,11.375,9.8125,66.8125,1.539551,0.8598633,-0.07861328,0.04492188,-0.3754883,-0.1289063
968,-2.375,6.75,4.75,1.469727,0.855957,0.02099609,0.04248047,-0.3754883,-0.1264648
972,-12.5625,9.4375,-45.8125,1.279785,0.7509766,0.125,0.04394531,-0.3769531,-0.1303711
976,-16.4375,15.3125,-84.4375,1.02002,0.6381836,0.2060547,0.04980469,-0.3745117,-0.1289063
980,-16.1875,24.4375,-115.6875,0.8110352,0.5913086,0.2402344,0.05712891,-0.3745117,-0.1303711
984,-20,36.4375,-135.75,0.5708008,0.5527344,0.1865234,0.06884766,-0.3706055,-0.1333008
988,-25.75,36,-152.875,0.3378906,0.5332031,0.08251953,0.08447266,-0.3666992,-0.1347656
992,-33.5625,20.0625,-174.5,0.2138672,0.4868164,0.01367188,0.09375,-0.3642578,-0.137207
996,-39.9375,7.3125,-201.3125,0.2685547,0.3818359,0.06347656,0.1118164,-0.3554688,-0.1401367
1000,-46.875,14.8125,-224.6875,0.2875977,0.2338867,0.144043,0.1308594,-0.3442383,-0.1401367
1004,-53.75,34.125,-234.5625,0.2216797,0.121582,0.144043,0.1425781,-0.3393555,-0.1425781
1008,-64.625,53.875,-238.5625,0.07861328,0.02441406,0.1171875,0.1665039,-0.3242188,-0.1469727
1012,-75.75,65.75,-248.25,-0.05664063,-0.08789063,0.1367188,0.1855469,-0.3081055,-0.1494141
1016,-71.0625,73.6875,-272.3125,-0.3125,-0.4067383,0.1865234,0.2011719,-0.296875,-0.1508789
1020,-63.375,77.6875,-276.3125,-0.5102539,-0.5268555,0.1713867,0.222168,-0.2744141,-0.1508789
1024,-66.4375,90.5625,-263.8125,-0.5488281,-0.4882813,0.1635742,0.2426758,-0.2529297,-0.1484375
1028,-74.8125,98.375,-250.625,-0.699707,-0.4960938,0.04052734,0.2519531,-0.2368164,-0.1469727
1032,-78.1875,75.6875,-260.1875,-0.8666992,-0.5541992,-0.04394531,0.2700195,-0.2158203,-0.144043
1036,-76.8125,61.5,-280.0625,-0.7890625,-0.7290039,0.1020508,0.2856445,-0.1879883,-0.137207
1040,-66.1875,59.1875,-292.4375,-0.6342773,-0.8999023,0.2094727,0.2915039,-0.1694336,-0.1357422
1044,-63.0625,119.5,-294,-0.4790039,-1.078613,0.425293,0.3022461,-0.1357422,-0.1289063
1048,-55.5625,167.625,-267.375,-1.087402,-1.265137,0.1328125,0.3105469,-0.1069336,-0.1196289
1052,-46.4375,116.125,-259.8125,-1.858398,-1.062988,-0.2592773,0.3154297,-0.08837891,-0.1074219
1056,-45.5625,0,-273.625,-1.862305,-0.9116211,-0.3129883,0.3173828,-0.05810547,-0.09667969
1061,-55.375,-81.6875,-287.0625,-1.199707,-0.8300781,-0.1591797,0.3164063,-0.02832031,-0.1020508
1065,-76.5,-79.6875,-294.6875,-0.3666992,-0.9350586,0.1518555,0.3139648,-0.009277344,-0.105957
1069,-91.0625,0.6875,-294.75,-0.07617188,-1.308105,0.3598633,0.3046875,0.02246094,-0.1113281
1073,-87.5625,81.125,-289.6875,-0.4946289,-1.657715,0.355957,0.2939453,0.05371094,-0.1044922
1077,-72.5625,103.625,-284.875,-1.351074,-1.789551,0.2172852,0.2900391,0.07373047,-0.09228516
1081,-57.8125,62.5625,-272.875,-1.854492,-1.809082,0.1904297,0.2807617,0.1000977,-0.08154297
1085,-43,21.125,-261.4375,-1.79248,-1.645996,0.2094727,0.2675781,0.125,-0.07470703
1089,-35.1875,5.125,-233.8125,-1.734375,-1.591309,0.1904297,0.2592773,0.1401367,-0.07177734
1093,-29.5625,1.75,-193.5,-1.757813,-1.354492,0.2944336,0.2460938,0.1577148,-0.06933594
1097,-32.1875,3.3125,-140,-1.858398,-1.308105,0.5058594,0.2329102,0.1723633,-0.06787109
1101,-26.25,8.875,-68,-1.893555,-1.408691,0.7211914,0.2294922,0.1787109,-0.06640625
1105,-7.125,9.625,-5.9375,-1.885742,-1.300293,0.7480469,0.2260742,0.1826172,-0.06103516
1109,8.5,-4,29.6875,-1.804199,-1.086426,0.6098633,0.2260742,0.1801758,-0.06103516
1113,19.125,-21.375,46.8125,-1.680176,-1.020508,0.4980469,0.2285156,0.1811523,-0.06396484
1117,32.125,-33.875,63.25,-1.571777,-1.074707,0.4599609,0.2319336,0.1738281,-0.06787109
1121,45.75,-24.375,84,-1.37793,-1.207031,0.4980469,0.2353516,0.1699219,-0.07080078
1125,56.5625,9.5625,119.0625,-1.300781,-1.203125,0.4521484,0.237793,0.1650391,-0.07763672
1129,57.75,34.5,156.5625,-1.424316,-1.253418,0.3212891,0.2485352,0.1538086,-0.07861328
1133,55.625,37.1875,190.625,-1.544922,-1.1875,0.1748047,0.2558594,0.1376953,-0.08007813
1137,49.6875,18.6875,211.6875,-1.629883,-1.253418,0.09423828,0.2666016,0.1264648,-0.08007813
1141,56.25,-11.5625,217.75,-1.610352,-1.45166,0.09423828,0.2773438,0.1064453,-0.08300781
1145,67.6875,-25.9375,237.125,-1.40918,-1.513672,0.1289063,0.2880859,0.08642578,-0.08691406
1149,60.9375,-17,267.6875,-1.223145,-1.37793,0.1479492,0.2939453,0.06982422,-0.08837891
1153,47.9375,-6.625,294.6875,-1.15332,-1.334961,0.125,0.3046875,0.04150391,-0.09521484
1157,44.9375,-15,301.5625,-1.203613,-1.370117,0.08642578,0.3115234,0.01123047,-0.09521484
1161,51.8125,-37.1875,288.4375,-1.125977,-1.319336,0.1020508,0.3164063,-0.01074219,-0.09765625
1165,60.25,-51.8125,282.375,-1.025391,-1.334961,0.1367188,0.3154297,-0.03955078,-0.105957
1169,58.375,-45,291.6875,-0.831543,-1.133301,0.1787109,0.3154297,-0.07177734,-0.1113281
1173,48.3125,-27.3125,307.9375,-0.7231445,-1.024414,0.1748047,0.3139648,-0.09179688,-0.1142578
1177,41.375,-19.6875,317.1875,-0.796875,-0.9775391,0.105957,0.309082,-0.1245117,-0.1166992
1181,39,-35.5625,305.25,-0.831543,-0.8300781,0.06347656,0.3007813,-0.1582031,-0.1181641
1185,45.75,-61.875,279.375,-0.8237305,-0.8842773,0.05175781,0.2949219,-0.1767578,-0.1196289
1190,52.9375,-66.25,269.6875,-0.7504883,-0.8535156,0.1328125,0.2807617,-0.203125,-0.125
1194,49.5625,-60,283.5625,-0.5834961,-0.6513672,0.1289063,0.2651367,-0.2304688,-0.1289063
1198,38.625,-41,295,-0.5063477,-0.5620117,0.1328125,0.2558594,-0.2456055,-0.1303711
1202,34.1875,-37,294.25,-0.4711914,-0.4882813,0.125,0.2353516,-0.2719727,-0.1289063
1206,38.9375,-51.4375,273.125,-0.4868164,-0.4335938,0.09423828,0.215332,-0.2919922,-0.1333008
1210,47.9375,-66.0625,246.5,-0.4169922,-0.3598633,0.1132813,0.203125,-0.3066406,-0.1303711
1214,54.375,-77.6875,240.5,-0.2734375,-0.2783203,0.07128906,0.1806641,-0.3232422,-0.1303711
1218,54.625,-75.375,239.1875,-0.02978516,-0.1035156,0.09814453,0.1567383,-0.3369141,-0.1318359
1222,48.9375,-66.1875,239.75,0.2490234,0.05517578,0.09033203,0.1416016,-0.3466797,-0.1289063
1226,41.8125,-52.1875,230,0.5048828,0.2338867,0.05175781,0.1210938,-0.3554688,-0.1264648
1230,38.5,-56.75,196.4375,0.7216797,0.5913086,-0.06298828,0.09960938,-0.3657227,-0.1264648
1234,29.5,-67.8125,151.25,1.012207,0.6420898,-0.1054688,0.08544922,-0.3681641,-0.125
1238,19.4375,-53.6875,105.75,1.411621,0.7158203,0.02490234,0.06982422,-0.3730469,-0.1210938
1242,6.9375,-24.9375,64.25,1.527832,0.8286133,0.07519531,0.06152344,-0.3769531,-0.1225586
1246,-4.375,-4.9375,14.25,1.43457,0.8286133,0.1289063,0.05712891,-0.3779297,-0.1225586
1250,-8.0625,10.625,-37.5625,1.244629,0.7509766,0.2250977,0.05712891,-0.3754883,-0.1235352
1254,-8.375,22,-79,0.9580078,0.6845703,0.2368164,0.06152344,-0.3745117,-0.1264648
1258,-7.625,25.5,-113.375,0.659668,0.6420898,0.2329102,0.06884766,-0.3745117,-0.125
1262,-9.1875,25.0625,-139.625,0.4038086,0.5683594,0.2021484,0.08203125,-0.3706055,-0.1235352
1266,-11.125,19.8125,-149.8125,0.2104492,0.4868164,0.1289063,0.09521484,-0.3657227,-0.125
1270,-18.8125,10.3125,-161.6875,0.190918,0.5566406,0.07910156,0.1044922,-0.3618164,-0.125
1274,-26.625,9.0625,-183.4375,0.2294922,0.3857422,0.1171875,0.1225586,-0.3569336,-0.1279297
1278,-30.3125,20.0625,-200.4375,0.2607422,0.315918,0.1713867,0.1367188,-0.3466797,-0.1303711
1282,-36.125,38,-210.75,0.190918,0.1757813,0.1289063,0.1523438,-0.3393555,-0.1318359
1286,-47.6875,48.8125,-214.3125,0.03173828,0.15625,0.02490234,0.1699219,-0.3291016,-0.1318359
1290,-64.6875,49.4375,-220.875,-0.09130859,0.04736328,-0.01318359,0.1904297,-0.3168945,-0.1347656
1294,-68.5,50.8125,-249.5625,-0.05273438,-0.1616211,0.144043,0.199707,-0.3056641,-0.1347656
1298,-54.8125,78.0625,-280.5,-0.09521484,-0.484375,0.2905273,0.2202148,-0.2841797,-0.137207
1302,-42.0625,116.375,-284.3125,-0.4013672,-0.6005859,0.1943359,0.2412109,-0.2617188,-0.1318359
1306,-48.125,118.5,-269.875,-1.025391,-0.4335938,-0.09375,0.2558594,-0.2456055,-0.1279297
1310,-62.9375,68.25,-256.375,-1.300781,-0.4179688,-0.2207031,0.2734375,-0.2216797,-0.1235352
1314,-75.8125,22,-254.25,-0.8974609,-0.4140625,-0.04736328,0.2841797,-0.1967773,-0.1196289
1319,-74.875,39.3125,-292.75,-0.1381836,-0.4765625,0.2597656,0.2924805,-0.1791992,-0.1225586
1323,-86.4375,125.125,-346.0625,0.1484375,-0.5073242,0.375,0.3022461,-0.1469727,-0.1157227
1327,-104,237.4375,-384.5625,-0.1342773,-1.05127,0.2827148,0.3154297,-0.1069336,-0.1020508
1331,-90.1875,301.6875,-367.9375,-1.114746,-1.945313,-0.07080078,0.3212891,-0.07958984,-0.08300781
1335,-31.0625,274.75,-291.5,-2.226563,-2.271484,-0.309082,0.3271484,-0.04052734,-0.05273438
1339,18.375,125.125,-252.5625,-3.083008,-1.416504,-0.5864258,0.3222656,-0.01171875,-0.02978516
1343,38.25,-71,-248,-2.625977,-0.9658203,-0.5322266,0.3198242,0.004882813,-0.02441406
1347,37.1875,-180.25,-241.125,-1.447754,-0.7250977,-0.2436523,0.3154297,0.03027344,-0.03515625
1351,13.875,-171.125,-230.6875,-0.1728516,-0.5307617,0.07519531,0.3056641,0.05517578,-0.05273438
1355,-30.75,-60.5,-230.1875,0.5551758,-0.6513672,0.3671875,0.2983398,0.06640625,-0.0625
1359,-62.625,101.625,-240.0625,0.3691406,-1.319336,0.4599609,0.2900391,0.08886719,-0.0625
1363,-42.25,197.5,-220.375,-0.8007813,-1.90625,0.2060547,0.2807617,0.1123047,-0.04492188
1367,-11.5625,168.125,-200.5625,-2.005859,-1.773926,-0.109375,0.2724609,0.1225586,-0.03271484
1371,17,47,-175.5625,-2.59082,-1.618652,-0.2592773,0.2592773,0.1401367,-0.02050781
1375,36.625,-68.3125,-146.25,-2.164551,-1.276855,-0.1977539,0.2519531,0.1547852,-0.02294922
1379,32.4375,-105.4375,-121.125,-1.475098,-1.102051,-0.02832031,0.2460938,0.1625977,-0.02832031
1383,16.625,-70.5,-89.5625,-1.037109,-1.040039,0.1787109,0.2368164,0.1713867,-0.03808594
1387,-4.5625,-11.25,-51.625,-1.087402,-1.036133,0.3017578,0.2319336,0.1762695,-0.03955078
1391,-15.6875,29.5,-14.5,-1.366211,-1.164063,0.355957,0.230957,0.1787109,-0.03808594
1395,-5.875,33.4375,19.9375,-1.687988,-1.331055,0.3173828,0.230957,0.1801758,-0.03662109
1399,14.125,11.0625,49.5625,-1.831543,-1.29248,0.2094727,0.2319336,0.1772461,-0.03662109
1403,27.125,-16.875,81.3125,-1.757813,-1.175781,0.1518555,0.2353516,0.1738281,-0.03515625
1407,31,-36.6875,106.625,-1.610352,-1.125488,0.1171875,0.2412109,0.1660156,-0.04052734
1411,31.25,-43.1875,123.5625,-1.475098,-1.226563,0.1479492,0.2475586,0.1586914,-0.04638672
1415,38.1875,-30.75,150.75,-1.389648,-1.34668,0.2021484,0.2543945,0.1513672,-0.04882813
1419,40.5625,-18.375,181.0625,-1.501953,-1.370117,0.1713867,0.2617188,0.1347656,-0.05419922
1423,43.375,-23.75,214.1875,-1.583496,-1.416504,0.09423828,0.2734375,0.1186523,-0.05957031
1427,44.25,-40.75,238.6875,-1.567871,-1.416504,0.04443359,0.2807617,0.1035156,-0.06103516
1431,51.4375,-64.0625,246.1875,-1.467285,-1.467285,0.05175781,0.2924805,0.08251953,-0.06933594
1435,55.8125,-71.375,257,-1.315918,-1.428223,0.125,0.2983398,0.05859375,-0.07861328
1439,57.125,-62.4375,274.75,-1.187988,-1.533203,0.2094727,0.3032227,0.04150391,-0.08447266
1443,66.5625,-52.5,290.5,-1.184082,-1.513672,0.159668,0.3129883,0.01025391,-0.09228516
1448,64,-51.125,310.4375,-1.172852,-1.370117,0.1289063,0.3154297,-0.02197266,-0.1020508
1452,55.75,-61.5,326.75,-1.157227,-1.233887,0.02880859,0.3188477,-0.04296875,-0.1044922
1456,49.4375,-91.1875,332.4375,-1.184082,-1.22998,-0.02832031,0.3154297,-0.078125,-0.1098633
1460,50.125,-130.75,332.5625,-1.106934,-1.195313,-0.04736328,0.309082,-0.1132813,-0.1225586
1464,60.6875,-166.4375,329.9375,-0.9130859,-1.304199,-0.005371094,0.3046875,-0.1357422,-0.1318359
1468,75.75,-168.125,323.75,-0.5292969,-1.331055,0.1826172,0.2880859,-0.1704102,-0.144043
1472,86.375,-129.1875,344.3125,-0.362793,-1.280762,0.2636719,0.269043,-0.203125,-0.1538086
1476,78.8125,-81.9375,366.625,-0.3085938,-0.9970703,0.2558594,0.2558594,-0.2255859,-0.1591797
1480,69.5,-70.0625,360.6875,-0.3354492,-0.7524414,0.1210938,0.2329102,-0.2568359,-0.1616211
1484,73.375,-86.1875,334.125,-0.3320313,-0.7485352,-0.001464844,0.2080078,-0.2841797,-0.1630859
1488,81,-105.3125,307,-0.04492188,-0.5073242,-0.04394531,0.1879883,-0.3017578,-0.1616211
1492,76.25,-118.125,286.4375,0.2104492,-0.3325195,-0.1015625,0.1606445,-0.3193359,-0.1630859
1496,71.5625,-119,265.75,0.5473633,-0.1811523,-0.1362305,0.1342773,-0.3369141,-0.1606445
1500,62.9375,-101.0625,238.875,1.027832,0.140625,-0.1362305,0.1142578,-0.3466797,-0.1591797
1504,45.1875,-63.25,202.1875,1.388184,0.3583984,-0.005371094,0.09033203,-0.3544922,-0.1577148
1508,32.125,-12.25,161.375,1.612793,0.4907227,0.05957031,0.07128906,-0.3618164,-0.1547852
1512,18.5,23.1875,112.3125,1.582031,0.6884766,-0.009277344,0.06298828,-0.3632813,-0.1508789
1516,7.25,28.5,54.25,1.419434,0.7392578,-0.109375,0.05566406,-0.3657227,-0.1523438
1520,-4.0625,17.6875,-6.5,1.322266,0.8364258,-0.09765625,0.05322266,-0.3657227,-0.1484375
1524,-17.25,15.3125,-55.375,1.310547,0.7705078,0.009765625,0.05566406,-0.3666992,-0.1508789
1528,-27.1875,29.875,-96.5625,1.209961,0.7119141,0.1289063,0.06298828,-0.3657227,-0.1523438
1532,-32.1875,48.0625,-134.75,0.9736328,0.5952148,0.1865234,0.07617188,-0.3603516,-0.1523438
1536,-33.375,67.3125,-164.3125,0.6870117,0.4946289,0.2133789,0.08447266,-0.3579102,-0.1547852
1540,-31.6875,77.875,-191.1875,0.4155273,0.3662109,0.1826172,0.1044922,-0.3520508,-0.1547852
1544,-27.875,73.125,-215.875,0.1870117,0.3193359,0.07910156,0.1235352,-0.3432617,-0.1577148
1548,-36.6875,59.9375,-236.8125,0.05908203,0.3544922,-0.02050781,0.1367188,-0.3378906,-0.1547852
1552,-54.625,48.8125,-264.8125,0.05126953,0.3232422,0.04785156,0.1591797,-0.3232422,-0.15625
1556,-70.625,60.4375,-273.125,-0.06054688,-0.02197266,0.1098633,0.1855469,-0.3056641,-0.1606445
1560,-75.375,79.5,-255.4375,-0.2041016,-0.2978516,0.2021484,0.1987305,-0.2919922,-0.1591797
1564,-68.8125,99.0625,-230.375,-0.4594727,-0.4296875,0.1826172,0.2202148,-0.2744141,-0.1606445
1568,-66,90.5625,-216.3125,-0.7929688,-0.3095703,0.01708984,0.234375,-0.2543945,-0.1547852
1572,-67.6875,49.1875,-233.8125,-0.9477539,-0.2275391,-0.05517578,0.2451172,-0.2392578,-0.1547852
1577,-74.75,31.6875,-261.25,-0.6069336,-0.340332,0.2866211,0.2592773,-0.2192383,-0.1577148
1581,-65.375,85.375,-262.0625,-0.5756836,-0.9311523,0.5556641,0.2758789,-0.1943359,-0.1538086
1585,-42.5625,136.875,-215.25,-1.091309,-0.9467773,0.3212891,0.2832031,-0.1767578,-0.1494141
1589,-48.3125,113.9375,-177.75,-1.583496,-0.3989258,-0.09765625,0.2939453,-0.1567383,-0.1416016
1593,-72.9375,35.75,-172.75,-1.575684,-0.1655273,-0.3129883,0.3022461,-0.1357422,-0.1303711
1597,-95,-16.25,-189.6875,-0.8935547,-0.2587891,-0.04736328,0.3056641,-0.1245117,-0.1333008
1601,-99.3125,48.625,-219.1875,0.03173828,-0.5854492,0.5175781,0.3081055,-0.1005859,-0.1347656
1605,-83.9375,181.625,-230.8125,-0.1030273,-1.098145,0.5751953,0.3105469,-0.07568359,-0.125
1609,-59.25,270.5,-228.5,-0.8857422,-1.183594,0.144043,0.3188477,-0.05957031,-0.105957
1613,-48.625,255.5,-222.375,-1.928223,-1.105957,-0.2861328,0.3212891,-0.03320313,-0.08154297
1617,-44,149.625,-202.6875,-2.556152,-1.000977,-0.4130859,0.3198242,-0.01074219,-0.05859375
1621,-38.4375,6,-180.625,-2.490234,-0.9116211,-0.359375,0.3188477,0.002441406,-0.05029297
1625,-25.125,-101.875,-172.75,-1.57959,-0.7524414,-0.1362305,0.3139648,0.02001953,-0.05273438
1629,-27.5,-102.875,-172.1875,-0.4633789,-0.6552734,0.2172852,0.3105469,0.04150391,-0.0625
1633,-38.25,-4.0625,-170,0.01269531,-0.7368164,0.4521484,0.3046875,0.04980469,-0.06640625
1637,-49.3125,90.875,-162.625,-0.5527344,-0.9428711,0.3095703,0.2983398,0.06884766,-0.0625
1641,-46.25,100.5625,-160.9375,-1.37793,-1.109863,0.09423828,0.2915039,0.08496094,-0.04736328
1645,-27.9375,45.6875,-148.4375,-1.819824,-1.323242,0.07128906,0.2890625,0.09375,-0.04492188
1649,-8.5,-15,-120,-1.761719,-1.175781,0.1328125,0.2807617,0.1064453,-0.03955078
1653,-1.5625,-38.75,-99,-1.374023,-1.016602,0.2172852,0.2783203,0.1152344,-0.04199219
1657,-2.6875,-20.375,-80.4375,-1.246094,-0.9389648,0.2709961,0.2724609,0.1210938,-0.04345703
1661,-9.6875,1.75,-55.25,-1.486328,-0.9619141,0.2749023,0.269043,0.1289063,-0.04492188
1665,-11.0625,-1.1875,-21.375,-1.831543,-1.055176,0.2368164,0.2651367,0.1347656,-0.04345703
1669,-9,-31.25,18.375,-2.021484,-1.036133,0.1865234,0.2666016,0.1337891,-0.04199219
1673,-5.1875,-75.9375,52.6875,-1.947754,-0.9541016,0.1210938,0.269043,0.1289063,-0.04638672
1677,-2.4375,-117.125,72.125,-1.687988,-0.8920898,0.1171875,0.2700195,0.125,-0.05419922
1681,0.625,-129.875,86.25,-1.28125,-0.8535156,0.2094727,0.2724609,0.1201172,-0.0625
1685,3.5,-113.375,96.3125,-1.056641,-0.9116211,0.3330078,0.2773438,0.1123047,-0.07080078
1689,15.3125,-76.625,107.625,-0.9711914,-1.074707,0.4941406,0.2783203,0.1035156,-0.08300781
1693,33.625,-35.375,122.9375,-1.11084,-1.191406,0.5288086,0.2792969,0.09863281,-0.08447266
1697,50.625,-12.9375,146.0625,-1.358887,-1.199219,0.4365234,0.2866211,0.08496094,-0.09082031
1701,60.9375,-23.1875,165,-1.610352,-1.195313,0.2558594,0.2924805,0.06884766,-0.09521484
1706,68.5625,-50.25,182.75,-1.625977,-1.171875,0.1557617,0.2973633,0.05859375,-0.1005859
1710,70.625,-68.5,196.9375,-1.479004,-1.148438,0.1479492,0.2998047,0.03759766,-0.1074219
1714,76.5625,-66.6875,206.4375,-1.327637,-1.257324,0.2211914,0.3046875,0.01611328,-0.1142578
1718,84.4375,-49.0625,227.6875,-1.211426,-1.288574,0.2866211,0.3071289,0,-0.1210938
1722,86.5,-35.625,247.75,-1.246094,-1.171875,0.1982422,0.3105469,-0.02587891,-0.1264648
1726,82.625,-34.125,256.3125,-1.161133,-1.036133,0.1674805,0.309082,-0.05322266,-0.1318359
1730,78.0625,-28.75,264.8125,-1.07959,-1.074707,0.1865234,0.3081055,-0.07324219,-0.1318359
1734,75.3125,-17.6875,281.375,-1.052734,-1.008789,0.1518555,0.3071289,-0.1020508,-0.1357422
1738,65.25,-17.1875,298.625,-0.9907227,-0.8574219,0.07910156,0.2998047,-0.1333008,-0.1386719
1742,53.9375,-16.3125,308.6875,-0.8046875,-0.7407227,0.105957,0.2939453,-0.1542969,-0.137207
1746,45.8125,-6.875,307.6875,-0.6108398,-0.7719727,0.1713867,0.2841797,-0.1855469,-0.137207
1750,42.875,9.625,303.625,-0.6147461,-0.7016602,0.159668,0.2724609,-0.2143555,-0.1357422
1754,40.875,9.1875,290.875,-0.6455078,-0.5927734,0.1098633,0.2626953,-0.2329102,-0.1347656
1758,36.5625,-3.1875,290.75,-0.7192383,-0.6201172,0.005859375,0.2460938,-0.2558594,-0.1318359
1762,37.8125,-23.125,285.375,-0.6225586,-0.5737305,-0.02832031,0.2285156,-0.2807617,-0.1318359
1766,40,-40.3125,274.125,-0.3862305,-0.4296875,-0.04003906,0.215332,-0.2929688,-0.1318359
1770,35.375,-53.25,260.5,-0.2387695,-0.3173828,-0.04736328,0.1928711,-0.3120117,-0.1289063
1774,34.875,-59.9375,247.125,0.1054688,-0.1733398,0.04443359,0.1723633,-0.328125,-0.1318359
1778,29.8125,-51.9375,232.25,0.3730469,0.02832031,0.1171875,0.1567383,-0.3369141,-0.1318359
1782,29.5625,-38.625,205.0625,0.7216797,0.140625,0.2021484,0.1357422,-0.3466797,-0.1303711
1786,29.75,-19.1875,175.0625,0.8842773,0.3662109,0.1982422,0.1176758,-0.3554688,-0.1279297
1790,21.875,-14.375,138.3125,0.9658203,0.5913086,0.1289063,0.1069336,-0.3618164,-0.1279297
1794,11.5625,-21.4375,94.5625,1.089844,0.7119141,0.1328125,0.09521484,-0.3657227,-0.1264648
1798,2.0625,-28.8125,54,1.194336,0.7236328,0.159668,0.08691406,-0.3681641,-0.1235352
1802,-6.1875,-30.6875,7.8125,1.217773,0.7856445,0.1787109,0.08447266,-0.3691406,-0.1264648
1806,-12.125,-37.3125,-47.6875,1.078125,0.793457,0.1674805,0.08300781,-0.3691406,-0.1279297
1810,-12,-43.25,-106.9375,0.9423828,0.7001953,0.2250977,0.08789063,-0.3681641,-0.1289063
1814,-13.5625,-23.5625,-148.1875,0.8535156,0.5913086,0.3671875,0.09521484,-0.3642578,-0.1318359
1818,-11.3125,14.9375,-169.625,0.574707,0.3623047,0.4135742,0.1079102,-0.359375,-0.1318359
1822,-1.25,41.4375,-178.6875,0.2216797,0.2963867,0.2905273,0.1259766,-0.3520508,-0.1318359
1826,-1,41.625,-183.6875,-0.07226563,0.3583984,0.07910156,0.1367188,-0.3466797,-0.1318359
1830,-12.25,19.5,-194.5625,-0.1845703,0.4165039,-0.05126953,0.1547852,-0.3369141,-0.1303711
1835,-29.6875,3,-214.0625,-0.08398438,0.3818359,0.04052734,0.1713867,-0.3291016,-0.1318359
1839,-41.3125,19.6875,-233.625,-0.09130859,0.04003906,0.2636719,0.184082,-0.3193359,-0.1333008
1843,-37.5625,39.125,-232.25,-0.2661133,-0.1616211,0.2211914,0.2021484,-0.3017578,-0.1347656
1847,-38.125,39.1875,-229.3125,-0.4672852,-0.1035156,0.07519531,0.21875,-0.2866211,-0.137207
1851,-50.9375,28.125,-230.375,-0.4868164,-0.06054688,0.02099609,0.230957,-0.2729492,-0.1347656
1855,-66.9375,23,-236.625,-0.4672852,-0.1772461,0.05957031,0.2460938,-0.2558594,-0.137207
1859,-74,26.875,-247,-0.5141602,-0.387207,0.1171875,0.2602539,-0.2329102,-0.137207
1863,-73.1875,32.625,-262.375,-0.5566406,-0.3833008,0.2133789,0.269043,-0.2182617,-0.1386719
1867,-61.1875,50,-262.3125,-0.5449219,-0.7524414,0.2749023,0.2807617,-0.1933594,-0.137207
1871,-59.5625,109.3125,-255.25,-0.4633789,-0.8300781,0.3945313,0.2939453,-0.1645508,-0.1347656
1875,-53.6875,152.875,-237.3125,-0.9248047,-0.8959961,0.1210938,0.3007813,-0.1479492,-0.1279297
1879,-51.1875,128.0625,-243.0625,-1.471191,-0.8300781,-0.1323242,0.3105469,-0.1220703,-0.112793
1883,-47.1875,46.375,-248,-1.719238,-0.8764648,-0.2436523,0.3164063,-0.09716797,-0.1044922
1887,-45.3125,-7.875,-241.6875,-0.9946289,-0.8496094,0.04785156,0.3154297,-0.07958984,-0.1035156
1891,-52.6875,55.75,-225.375,-0.3588867,-0.9194336,0.3828125,0.3164063,-0.05322266,-0.1005859
1895,-49.875,136.6875,-205.625,-0.8085938,-1.140625,0.2060547,0.3164063,-0.02929688,-0.09082031
1899,-39.1875,136.0625,-192.3125,-1.668457,-1.086426,-0.1435547,0.3188477,-0.015625,-0.08154297
1903,-36.5625,51.4375,-195.0625,-2.106445,-0.9428711,-0.3515625,0.3173828,0.004882813,-0.06640625
1907,-39.75,-17.3125,-203.125,-1.618164,-0.9580078,-0.06298828,0.3105469,0.02636719,-0.06640625
1911,-32.375,8.375,-193.375,-1.242188,-1.207031,0.3330078,0.309082,0.04003906,-0.06396484
1915,-23.6875,51.8125,-154.375,-1.560059,-1.191406,0.2944336,0.3022461,0.05761719,-0.0625
1919,-18.375,37.375,-126.4375,-2.005859,-0.9892578,0.1132813,0.2983398,0.06982422,-0.05566406
1923,-15.8125,-6.5625,-106.75,-1.924316,-0.8574219,0.1635742,0.2949219,0.07861328,-0.05273438
1927,-18.3125,-24.9375,-87.125,-1.70752,-0.7563477,0.3134766,0.2915039,0.08886719,-0.05419922
1931,-19.6875,-23.5,-68.3125,-1.684082,-0.7524414,0.4750977,0.2866211,0.09619141,-0.05566406
1935,-13.0625,-18.5625,-42.5,-1.839355,-0.9038086,0.5673828,0.2841797,0.1000977,-0.05712891
1939,4.625,-16.4375,-5.875,-1.943848,-1.004883,0.6020508,0.2841797,0.1010742,-0.05957031
1943,21.3125,-6.5625,33.125,-1.908691,-1.004883,0.6518555,0.2817383,0.1010742,-0.05957031
1947,34.375,7.9375,74.5,-1.95166,-1.012695,0.5405273,0.2841797,0.09863281,-0.0625
1951,41.125,1.75,119.25,-1.959473,-0.9116211,0.3134766,0.2880859,0.08886719,-0.0625
1955,39.75,-16.625,148,-1.723145,-0.7094727,0.2172852,0.2939453,0.07617188,-0.0625
1959,37.6875,-24.75,156.5625,-1.498047,-0.7290039,0.2636719,0.2963867,0.06738281,-0.06542969
1964,41.6875,-20.0625,165.1875,-1.455566,-0.8378906,0.3056641,0.3046875,0.05126953,-0.06933594
1968,49.5,-22.9375,174.75,-1.544922,-0.8959961,0.2905273,0.3081055,0.03369141,-0.07324219
1972,58.4375,-33.625,184.9375,-1.571777,-0.9428711,0.2402344,0.3115234,0.02392578,-0.07861328
1976,69.1875,-33.6875,197.8125,-1.447754,-0.9931641,0.2480469,0.3154297,0.001464844,-0.08154297
1980,75.875,-21.4375,214.75,-1.381836,-0.9541016,0.2250977,0.3173828,-0.01953125,-0.08984375
1984,74.5,-11.625,229.875,-1.40918,-0.8647461,0.1557617,0.3198242,-0.03710938,-0.08691406
1988,71.25,-19,244.75,-1.475098,-0.8144531,0.01367188,0.3212891,-0.06054688,-0.09082031
1992,66.25,-42.25,244.8125,-1.447754,-0.8027344,-0.02441406,0.3188477,-0.08935547,-0.09375
1996,64.6875,-53,248,-1.219238,-0.8144531,0.04785156,0.3173828,-0.1069336,-0.09667969
2000,62,-38.25,258.75,-1.083496,-0.8300781,0.09033203,0.3129883,-0.1318359,-0.1020508
2004,53.5,-23.8125,277,-1.044922,-0.7016602,0.02099609,0.3056641,-0.1591797,-0.1020508
2008,41,-26.625,282.0625,-1.063965,-0.5927734,-0.04003906,0.2973633,-0.1791992,-0.1020508
2012,35.8125,-44.625,270.4375,-1.083496,-0.6474609,-0.07080078,0.2856445,-0.2070313,-0.1044922
2016,37.4375,-57.375,266.0625,-0.8745117,-0.6201172,0.01367188,0.2709961,-0.2329102,-0.1074219
2020,33.8125,-49.9375,268.25,-0.7504883,-0.6240234,0.05175781,0.2602539,-0.2470703,-0.1113281
2024,30,-33.5,282.75,-0.6108398,-0.484375,0.04052734,0.2436523,-0.2680664,-0.1113281
2028,23.125,-24.375,284.75,-0.4907227,-0.340332,0.02490234,0.2236328,-0.2919922,-0.1113281
2032,18.1875,-21.375,273.375,-0.3901367,-0.2666016,0.02099609,0.2104492,-0.3066406,-0.1113281
2036,19.375,-30.125,255.3125,-0.2851563,-0.1967773,-0.001464844,0.1904297,-0.3232422,-0.1098633
2040,18,-31.75,235.5,-0.1225586,-0.1616211,0.05566406,0.1674805,-0.3369141,-0.112793
2044,18,-30.3125,219.3125,0.06298828,-0.006347656,0.07128906,0.1557617,-0.3457031,-0.112793
2048,5.875,-30.8125,208.5625,0.1987305,0.1796875,0.03662109,0.1367188,-0.3569336,-0.112793
2052,-6.9375,-32.125,195.9375,0.3999023,0.2265625,0.09033203,0.1152344,-0.3632813,-0.1142578
2056,-10.75,-37.4375,174.3125,0.6791992,0.3041992,0.1748047,0.1035156,-0.3681641,-0.1142578
2060,-10.125,-36.125,137.5,0.9970703,0.4516602,0.2172852,0.08691406,-0.3730469,-0.1166992
2064,-10.5625,-30.9375,88.4375,1.248535,0.5722656,0.2597656,0.07470703,-0.3745117,-0.1196289
2068,-9.8125,-16.4375,37,1.384277,0.6147461,0.3173828,0.06982422,-0.3745117,-0.1196289
2072,-9.25,-0.4375,-12.6875,1.29541,0.6030273,0.355957,0.06640625,-0.3754883,-0.1196289
2076,-5.3125,4.125,-59.375,1.089844,0.5644531,0.3212891,0.06884766,-0.3745117,-0.1210938
2080,-0.5,8.125,-100.4375,0.9501953,0.5488281,0.3173828,0.07226563,-0.3730469,-0.1210938
2084,-0.4375,13.8125,-134.75,0.7875977,0.5527344,0.2636719,0.08447266,-0.3691406,-0.1210938
2088,0.5625,16.0625,-166.125,0.59375,0.4829102,0.2060547,0.09960938,-0.3666992,-0.1210938
2093,-1.0625,19.1875,-188.3125,0.4506836,0.3974609,0.144043,0.1103516,-0.3642578,-0.1196289
2097,-6.5,25.125,-204.625,0.3574219,0.3310547,0.1171875,0.128418,-0.3554688,-0.1210938
2101,-14.375,35.625,-220.4375,0.1791992,0.1835938,0.09033203,0.1484375,-0.3442383,-0.1196289
2105,-19.6875,44.875,-231.3125,0.02050781,0.04003906,0.08642578,0.1616211,-0.3408203,-0.1196289
2109,-23.875,47.5,-235.6875,-0.2231445,-0.06054688,0.02490234,0.1821289,-0.3266602,-0.1210938
2113,-34.125,30.625,-234.5,-0.4633789,-0.04150391,-0.128418,0.2021484,-0.3120117,-0.1166992
2117,-50.5,-7.9375,-248.125,-0.5332031,0.0009765625,-0.2285156,0.2128906,-0.2993164,-0.1181641
2121,-64.75,-41.375,-276,-0.3393555,-0.1538086,-0.109375,0.2319336,-0.2792969,-0.1264648
2125,-70.5,-35.5,-298.75,-0.06445313,-0.3520508,0.125,0.2475586,-0.2543945,-0.1318359
2129,-76.875,24.3125,-320.25,-0.1264648,-1.148438,0.4326172,0.2568359,-0.2368164,-0.1357422
2133,-57.625,106.125,-301.0625,-0.5332031,-1.102051,0.3828125,0.2758789,-0.2094727,-0.1347656
2137,-57.4375,123.875,-261.0625,-1.347168,-0.7329102,-0.04003906,0.2890625,-0.1806641,-0.1264648
2141,-80.3125,61.125,-247.1875,-1.734375,-0.4960938,-0.2631836,0.2973633,-0.1630859,-0.1225586
2145,-96,-38.4375,-269.125,-1.614258,-0.6044922,-0.1591797,0.3071289,-0.1357422,-0.1196289
2149,-86.375,-98.3125,-304.625,-0.78125,-0.9775391,0.3520508,0.3056641,-0.1054688,-0.1279297
2153,-67.625,9.1875,-322,0.1054688,-1.397461,1.094727,0.309082,-0.08300781,-0.1347656
2157,-31.5625,165,-292.25,-0.4633789,-1.777832,0.9135742,0.3105469,-0.05078125,-0.1279297
2161,3.375,215.875,-268.9375,-1.777344,-1.525391,0.2709961,0.3139648,-0.02050781,-0.1088867
2165,13.0625,133.3125,-246.4375,-2.668457,-1.296387,-0.1899414,0.3139648,-0.0004882813,-0.09375
2169,10.5,10.25,-221.1875,-2.544434,-1.004883,-0.2363281,0.3105469,0.02246094,-0.08447266
2173,-8.125,-64.0625,-198.25,-1.723145,-0.7641602,-0.07470703,0.3056641,0.04248047,-0.08544922
2177,-27.1875,-60.8125,-183.75,-0.9750977,-0.7910156,0.2211914,0.3007813,0.05517578,-0.08984375
2181,-31.4375,3.9375,-175.75,-0.9208984,-0.9506836,0.4672852,0.2924805,0.07519531,-0.08984375
2185,-32.3125,45.125,-147.125,-1.556152,-1.125488,0.5522461,0.2856445,0.08984375,-0.08691406
2189,-17.3125,35.5625,-103.875,-2.110352,-1.323242,0.5791016,0.2832031,0.09863281,-0.08447266
2193,4.375,3.5,-54.375,-2.145508,-1.199219,0.5366211,0.2783203,0.1049805,-0.08154297
2197,16.9375,-11.3125,-21.5625,-1.908691,-0.8999023,0.4560547,0.2758789,0.1113281,-0.08154297
2201,13.375,-1.0625,9.5625,-1.746094,-0.7211914,0.4829102,0.2749023,0.1074219,-0.08154297
2205,9.0625,17.1875,47.9375,-1.831543,-0.8842773,0.5522461,0.2758789,0.1074219,-0.08154297
2209,14.6875,20.25,90.625,-1.908691,-0.9233398,0.5869141,0.2807617,0.1010742,-0.08300781
2213,23.9375,6.4375,117.5,-1.901367,-0.9077148,0.5483398,0.2832031,0.09521484,-0.08007813
2217,35.0625,-12.1875,133.25,-1.87793,-0.9116211,0.5097656,0.2880859,0.08398438,-0.08447266
2222,46.5625,-37.0625,147.5,-1.847168,-0.9697266,0.4560547,0.2939453,0.06982422,-0.08837891
2226,58.25,-38.5625,166.8125,-1.595215,-0.9970703,0.4941406,0.2973633,0.06005859,-0.08984375
2230,59.4375,-17.625,196.875,-1.509766,-1.05127,0.4790039,0.3032227,0.04248047,-0.09667969
2234,58.625,-5.75,228.875,-1.595215,-1.074707,0.3710938,0.3081055,0.02001953,-0.1005859
2238,59.8125,-14.25,248,-1.517578,-1.121582,0.2866211,0.3129883,0.002441406,-0.1020508
2242,65.625,-12.25,255,-1.347168,-1.102051,0.2866211,0.3154297,-0.0234375,-0.1035156
2246,67.625,-12.6875,257.9375,-1.436035,-1.11377,0.2211914,0.3173828,-0.05175781,-0.1074219
2250,66.875,-26.875,273.9375,-1.467285,-1.066895,0.09814453,0.3188477,-0.07080078,-0.1098633
2254,58.25,-34.6875,292.5,-1.114746,-1.016602,0.125,0.3154297,-0.1020508,-0.112793
2258,55.125,-19,302.4375,-0.8706055,-0.9619141,0.1635742,0.3081055,-0.1318359,-0.1142578
2262,62.0625,-22.4375,280.5,-0.9633789,-0.8764648,0.09423828,0.3046875,-0.1542969,-0.112793
2266,66.6875,-37.625,267.3125,-0.9829102,-0.9311523,0.1713867,0.2949219,-0.1845703,-0.1157227
2270,68.1875,-34.125,283.6875,-0.9052734,-0.9428711,0.1865234,0.2817383,-0.2094727,-0.1166992
2274,56.4375,-8.0625,310.6875,-0.6416016,-0.7602539,0.2749023,0.2724609,-0.2280273,-0.1157227
2278,43.8125,4,332.8125,-0.6572266,-0.6318359,0.1171875,0.2558594,-0.2558594,-0.1157227
2282,39.0625,-13,320.5625,-0.5756836,-0.5229492,0.03271484,0.234375,-0.2817383,-0.112793
2286,44.5625,-38.125,294.375,-0.328125,-0.4101563,-0.001464844,0.2202148,-0.296875,-0.1074219
2290,43.5,-47.375,270.3125,-0.1689453,-0.2548828,-0.001464844,0.1987305,-0.3193359,-0.1088867
2294,40.625,-38.3125,256.75,0.05126953,-0.2548828,0.07910156,0.1723633,-0.3344727,-0.1088867
2298,36.3125,-25.125,257.375,0.05517578,-0.04150391,-0.03613281,0.1616211,-0.3466797,-0.1088867
2302,24.0625,-37.5625,239.625,0.190918,0.1484375,-0.1166992,0.1367188,-0.3579102,-0.105957
2306,20.9375,-51.4375,206.625,0.4775391,0.1953125,-0.07470703,0.1152344,-0.3666992,-0.1044922
2310,15.9375,-52.125,177.9375,0.8110352,0.3740234,-0.04394531,0.1020508,-0.371582,-0.1044922
2314,8.5,-47.5,145.6875,1.117188,0.5253906,-0.01660156,0.08447266,-0.3754883,-0.1035156
2318,1.0625,-34.75,104.75,1.481445,0.5800781,0.08642578,0.06884766,-0.3818359,-0.1044922
2322,0.3125,-9.6875,50.125,1.678711,0.6616211,0.1826172,0.06298828,-0.3803711,-0.1020508
2326,1.6875,15.625,-13.125,1.597656,0.6577148,0.2211914,0.05957031,-0.3818359,-0.1044922
2330,7.25,28.875,-71.875,1.283691,0.6108398,0.1865234,0.06396484,-0.3803711,-0.1044922
2334,10.9375,35,-121.0625,1.023926,0.5410156,0.1943359,0.06982422,-0.3793945,-0.1035156
2338,13.25,41.5625,-155.125,0.7568359,0.4790039,0.1748047,0.08300781,-0.3769531,-0.09912109
2342,10.4375,43.0625,-180.875,0.4619141,0.4594727,0.07910156,0.1010742,-0.3730469,-0.09765625
2346,3.375,36.25,-194.3125,0.2724609,0.3740234,0.01367188,0.112793,-0.3666992,-0.09912109
2351,-9.1875,27.375,-204.5,0.2216797,0.3662109,-0.04003906,0.1333008,-0.3603516,-0.09667969
2355,-16.6875,19.75,-227.25,0.2607422,0.2070313,-0.01318359,0.1523438,-0.3520508,-0.09667969
2359,-20.1875,25.3125,-253.0625,0.2529297,0.08251953,0.03271484,0.1650391,-0.3432617,-0.09765625
2363,-28.1875,40.1875,-261.25,0.05126953,-0.08007813,-0.009277344,0.1879883,-0.3266602,-0.09765625
2367,-44.875,47.625,-257.5625,-0.2231445,-0.1191406,-0.08984375,0.2094727,-0.3105469,-0.09912109
2371,-64.375,45.6875,-253.8125,-0.4052734,-0.2587891,-0.05517578,0.2236328,-0.2983398,-0.09765625
2375,-78.3125,36.875,-257.5,-0.5488281,-0.07617188,-0.0859375,0.2412109,-0.2792969,-0.09912109
2379,-79.6875,13.9375,-261.375,-0.6186523,-0.5966797,0.02490234,0.2583008,-0.2558594,-0.1020508
2383,-63.5625,21.5,-283.25,-0.3320313,-0.8183594,0.3212891,0.269043,-0.2392578,-0.1035156
2387,-32.375,46.0625,-323.5,-0.5644531,-0.9931641,0.2944336,0.2841797,-0.2128906,-0.1035156
2391,-22.3125,50.3125,-328.125,-1.021484,-1.040039,0.2021484,0.2973633,-0.1821289,-0.1005859
2395,-40.375,43,-294.5,-1.351074,-0.9775391,0.05957031,0.3071289,-0.1591797,-0.09667969
2399,-77.9375,15.1875,-257.1875,-1.335449,-0.7602539,-0.09375,0.3129883,-0.1308594,-0.09375
2403,-112.875,-10.8125,-255.5,-1.017578,-0.8183594,-0.05908203,0.3173828,-0.1030273,-0.09667969
2407,-109.5625,12.125,-291.5,-0.4404297,-1.358398,0.4633789,0.3188477,-0.08203125,-0.09521484
2411,-41.3125,106.6875,-349.6875,-0.8237305,-1.933594,0.7099609,0.3198242,-0.05078125,-0.09228516
2415,9.1875,127.375,-351.625,-2.067871,-1.789551,0.3095703,0.3173828,-0.01318359,-0.07861328
2419,8.25,47.0625,-307.375,-2.88916,-1.509766,-0.01660156,0.3154297,0.01269531,-0.07177734
2423,-16,-40.1875,-253.125,-2.300293,-1.148438,0.04443359,0.3056641,0.04150391,-0.06787109
2427,-35.3125,-47.25,-228.8125,-1.498047,-1.066895,0.2441406,0.2983398,0.06494141,-0.07324219
2431,-23.3125,14.9375,-211.5,-1.381836,-1.203125,0.4829102,0.2915039,0.08007813,-0.07177734
2435,-11.6875,45,-179.75,-2.214844,-1.086426,0.3671875,0.2841797,0.09863281,-0.06787109
2439,-0.1875,6.8125,-143.375,-2.710938,-1.133301,0.3789063,0.2773438,0.1137695,-0.06542969
2443,4.5,-20.6875,-63.9375,-2.513672,-0.9658203,0.4750977,0.2734375,0.1210938,-0.06542969
2447,-14.8125,-14.0625,23.5625,-2.083496,-0.6474609,0.4521484,0.2724609,0.1235352,-0.06787109
2451,-26.125,-10.625,70.25,-1.862305,-0.5737305,0.4326172,0.2724609,0.1201172,-0.06640625
2455,-17.6875,-23.1875,79,-1.730469,-0.7368164,0.5673828,0.2758789,0.1152344,-0.06640625
2459,7.8125,-24.1875,80.8125,-1.57959,-0.9077148,0.8022461,0.2792969,0.1074219,-0.07080078
2463,36.1875,-0.0625,104.8125,-1.567871,-1.062988,0.8173828,0.2832031,0.09863281,-0.07177734
2467,51.875,27,148.75,-1.65332,-0.9892578,0.5634766,0.2866211,0.09130859,-0.07324219
2471,48.9375,30.6875,188.25,-1.757813,-0.8647461,0.3251953,0.2939453,0.07861328,-0.07324219
2475,42.4375,15.1875,210.1875,-1.761719,-0.8574219,0.2021484,0.3007813,0.05517578,-0.06933594
2480,43,-6.875,217.1875,-1.757813,-0.9541016,0.1635742,0.3071289,0.04248047,-0.07324219
2484,49.4375,-26.5,222.875,-1.691895,-1.070801,0.1982422,0.3115234,0.02148438,-0.07763672
2488,57,-28.0625,234.75,-1.65332,-1.175781,0.2675781,0.3164063,-0.003417969,-0.08154297
2492,62.9375,-17.8125,260.125,-1.65332,-1.1875,0.2290039,0.3198242,-0.01953125,-0.08300781
2496,51.75,-5.125,304.0625,-1.618164,-1.066895,0.1518555,0.3198242,-0.05078125,-0.08544922
2500,41.3125,-12.625,323.8125,-1.629883,-0.9931641,0.01367188,0.3198242,-0.08300781,-0.08837891
2504,42,-41.9375,312.375,-1.509766,-0.9892578,0.05175781,0.3188477,-0.1069336,-0.08837891
2508,51.125,-54.0625,312.1875,-1.285156,-0.9853516,0.05957031,0.3115234,-0.1396484,-0.09228516
2512,39.625,-40.3125,330.8125,-1.033203,-0.7753906,0.05957031,0.3032227,-0.171875,-0.09765625
2516,20.75,-41.5625,352.0625,-1.048828,-0.7016602,-0.06298828,0.2924805,-0.1943359,-0.09912109
2520,6.3125,-62.5,351.0625,-1.009766,-0.7133789,-0.0859375,0.2758789,-0.2280273,-0.1035156
2524,0.5,-90,341.4375,-0.9365234,-0.7211914,-0.1015625,0.2558594,-0.2558594,-0.1113281
2528,3.75,-111.4375,336.25,-0.7578125,-0.8496094,-0.04394531,0.2402344,-0.2729492,-0.1142578
2532,11.375,-103.875,328.5,-0.3706055,-0.7753906,0.140625,0.2138672,-0.2993164,-0.1225586
2536,21.6875,-78.125,325.3125,-0.215332,-0.6630859,0.1020508,0.1879883,-0.3208008,-0.125
2540,26.5,-65.5,304.875,-0.07617188,-0.4335938,0.01708984,0.1689453,-0.3305664,-0.1279297
2544,25.0625,-76.5,272.8125,0.05908203,-0.2431641,-0.07470703,0.1425781,-0.3466797,-0.1303711
2548,22.5625,-87.625,244.875,0.3227539,-0.2314453,-0.07861328,0.1152344,-0.3579102,-0.1289063
2552,16,-81.5625,225.4375,0.7719727,-0.03759766,-0.02050781,0.09960938,-0.3632813,-0.1289063
2556,5.5625,-66.1875,200.3125,1.128418,0.09814453,0.01708984,0.07617188,-0.3706055,-0.1303711
2560,1.6875,-49.625,152.125,1.438477,0.2456055,0.04443359,0.05712891,-0.371582,-0.1289063
2564,-0.8125,-29.8125,91.3125,1.632324,0.3544922,0.1787109,0.04638672,-0.3754883,-0.1303711
2568,1.9375,-11.75,31.375,1.608887,0.3857422,0.2211914,0.0390625,-0.3754883,-0.1318359
2572,4.0625,1.625,-30.75,1.484863,0.4321289,0.2441406,0.03808594,-0.3754883,-0.1303711
2576,5.875,9.25,-84.25,1.291504,0.4321289,0.2250977,0.04150391,-0.3754883,-0.1303711
2580,8.5625,15.6875,-129.5625,1.066406,0.4052734,0.2250977,0.04980469,-0.3745117,-0.1303711
2584,9.5,21.375,-164.4375,0.8300781,0.4204102,0.1635742,0.06640625,-0.3730469,-0.1289063
2588,5.6875,24.75,-192.6875,0.7021484,0.4321289,0.1132813,0.07617188,-0.3706055,-0.1264648
2592,-4.875,30.3125,-218.3125,0.59375,0.4086914,0.07910156,0.09521484,-0.3642578,-0.1279297
2596,-13.625,38.5,-245.1875,0.4814453,0.2807617,0.08642578,0.1186523,-0.3569336,-0.1235352
2600,-17.0625,53.8125,-264.6875,0.3149414,0.02050781,0.159668,0.1333008,-0.3520508,-0.1264648
2604,-17.0625,75.875,-270.9375,0.05517578,-0.1074219,0.1748047,0.1582031,-0.3378906,-0.1264648
2609,-18.375,78.9375,-273.25,-0.4326172,-0.2202148,0.03271484,0.1855469,-0.3232422,-0.1235352
2613,-17.0625,41.625,-286.125,-0.699707,-0.1889648,-0.1435547,0.1987305,-0.3105469,-0.1210938
2617,-30.875,1.625,-299.375,-0.5371094,-0.08007813,-0.112793,0.222168,-0.2905273,-0.1225586
2621,-46.875,-8.25,-313.125,-0.2929688,-0.2431641,0.009765625,0.2402344,-0.2680664,-0.125
2625,-50.3125,17.6875,-315.4375,-0.1845703,-0.6240234,0.2021484,0.253418,-0.2495117,-0.125
2629,-53.5,62.5,-293.9375,-0.296875,-0.6787109,0.2329102,0.2709961,-0.2246094,-0.1264648
2633,-61.9375,114.3125,-269.25,-0.5605469,-1.008789,0.2866211,0.2866211,-0.1958008,-0.1225586
2637,-50.875,124,-253.875,-1.149414,-1.000977,0.02099609,0.2949219,-0.1782227,-0.1142578
2641,-50.625,63,-276.125,-1.428223,-0.7563477,-0.1630859,0.3071289,-0.1518555,-0.1074219
2645,-66.5,-5.3125,-288.625,-1.289063,-0.7524414,-0.1362305,0.3139648,-0.1220703,-0.1044922
2649,-90.5,-28.25,-285.25,-0.6884766,-0.8881836,0.125,0.3164063,-0.09960938,-0.1044922
2653,-98.375,53.1875,-290.5625,-0.1225586,-1.334961,0.6328125,0.3173828,-0.06835938,-0.105957
2657,-66.125,150.875,-293.8125,-0.9750977,-1.812988,0.4941406,0.3188477,-0.03710938,-0.09521484
2661,-29.4375,136.6875,-303.5625,-2.261719,-1.723633,0.144043,0.3173828,-0.01708984,-0.08447266
2665,-15.75,34.25,-284.1875,-2.955078,-1.48291,-0.05126953,0.3129883,0.01513672,-0.07177734
2669,-34.3125,-58,-239.75,-2.408691,-1.125488,0.1020508,0.3071289,0.04248047,-0.07080078
2673,-45.8125,-66.875,-212.6875,-1.552246,-1.133301,0.3710938,0.2998047,0.05615234,-0.07470703
2677,-36.75,-8.4375,-185.5,-1.331543,-1.179688,0.5522461,0.2915039,0.07763672,-0.07763672
2681,-25.25,45,-150.8125,-1.928223,-1.05127,0.4941406,0.2841797,0.09521484,-0.07763672
2685,-17.875,42.875,-92.8125,-2.71875,-0.9467773,0.3251953,0.2817383,0.1035156,-0.07080078
2689,-23.8125,-10,-21.5,-2.966797,-0.7563477,0.2558594,0.2792969,0.1088867,-0.06640625
2693,-36.375,-57.3125,42.3125,-2.432129,-0.5776367,0.3017578,0.2783203,0.1088867,-0.06933594
2697,-40.125,-73.25,73.125,-1.79248,-0.5966797,0.4521484,0.2807617,0.1064453,-0.07080078
2701,-25.75,-52.625,85.4375,-1.347168,-0.6591797,0.6557617,0.2817383,0.09863281,-0.07617188
2705,-5.625,-20.8125,92.75,-1.28125,-0.6860352,0.7368164,0.2856445,0.09130859,-0.07617188
2709,12.1875,-0.5,102.8125,-1.424316,-0.7563477,0.6713867,0.2880859,0.08642578,-0.08007813
2713,26.1875,8.9375,122.25,-1.587402,-0.7871094,0.5288086,0.2924805,0.07617188,-0.08007813
2717,30.4375,11.125,150.625,-1.70752,-0.7949219,0.3710938,0.2973633,0.0625,-0.08007813
2721,27.1875,2.8125,177,-1.773438,-0.7446289,0.2172852,0.3032227,0.05273438,-0.08007813
2725,16.875,-17.375,193.25,-1.79248,-0.7832031,0.1748047,0.3081055,0.03369141,-0.08154297
2729,18.3125,-40.1875,204.5,-1.815918,-1.043945,0.2250977,0.3129883,0.01367188,-0.08544922
2733,28.5625,-46.4375,224.8125,-1.533203,-1.171875,0.3598633,0.3139648,0.001464844,-0.08984375
2738,31.5625,-21.5625,253.125,-1.315918,-1.164063,0.4287109,0.3173828,-0.0234375,-0.09375
2742,35.4375,-3.625,272.25,-1.339355,-1.117676,0.355957,0.3188477,-0.05175781,-0.09667969
2746,36.3125,-8.0625,278.5625,-1.366211,-1.02832,0.2709961,0.3173828,-0.06933594,-0.09765625
2750,38.125,-25.75,277.875,-1.327637,-0.9697266,0.1943359,0.3164063,-0.09960938,-0.09912109
2754,36.6875,-38.375,273.625,-1.215332,-0.9580078,0.2133789,0.3115234,-0.1293945,-0.1035156
2758,41.9375,-41.375,272.75,-1.20752,-1.004883,0.2402344,0.3071289,-0.1479492,-0.1035156
2762,44.8125,-42.75,287.25,-1.063965,-0.8574219,0.159668,0.2983398,-0.1767578,-0.1074219
2766,33.25,-40.5625,298.8125,-0.8046875,-0.6938477,0.144043,0.2856445,-0.2070313,-0.1098633
2770,34,-39.8125,290.75,-0.730957,-0.6821289,0.105957,0.2773438,-0.2216797,-0.1113281
2774,32.4375,-53.3125,275.125,-0.6884766,-0.4882813,0.02099609,0.2592773,-0.2504883,-0.1142578
2778,26.625,-73.3125,261,-0.5683594,-0.4140625,0.01708984,0.2436523,-0.2729492,-0.1166992
2782,23.5625,-76.8125,249.1875,-0.4443359,-0.421875,0.08251953,0.2294922,-0.2856445,-0.1196289
2786,24.625,-67.0625,243.0625,-0.3393555,-0.3676758,0.1289063,0.2094727,-0.3041992,-0.1196289
2790,23.625,-56.375,241.5625,-0.4633789,-0.3095703,0.125,0.1904297,-0.3193359,-0.125
2794,21.125,-64.5,239.8125,-0.4868164,-0.1655273,0.02880859,0.1757813,-0.3291016,-0.1264648
2798,22.5,-75.625,227.75,-0.230957,-0.09179688,0.04785156,0.1547852,-0.3408203,-0.1289063
2802,19.3125,-75.6875,212.1875,-0.002441406,0.04394531,0.05957031,0.1318359,-0.3491211,-0.1279297
2806,11,-83.25,201.375,0.1484375,0.1601563,0.01367188,0.1186523,-0.3579102,-0.1289063
2810,1.75,-93.6875,183.25,0.4194336,0.2226563,0.01708984,0.09619141,-0.3642578,-0.1303711
2814,-9.4375,-89.625,165.875,0.9038086,0.3896484,0.09423828,0.07861328,-0.3666992,-0.1333008
2818,-26.9375,-61.3125,146.125,1.353516,0.4360352,0.1826172,0.06640625,-0.3706055,-0.1347656
2822,-30,-34.6875,96.1875,1.52002,0.3544922,0.2636719,0.05078125,-0.3706055,-0.1386719
2826,-8.25,-17.1875,22.125,1.539551,0.3310547,0.3598633,0.04394531,-0.3706055,-0.1401367
2830,6.1875,4.1875,-39.8125,1.368652,0.4399414,0.3828125,0.04248047,-0.3730469,-0.1386719
2834,11.6875,22.0625,-85.875,0.9931641,0.4013672,0.3520508,0.04736328,-0.371582,-0.1401367
2838,16.25,28.125,-122.1875,0.6362305,0.3896484,0.3671875,0.05810547,-0.371582,-0.1386719
2842,21.5,28.1875,-146.8125,0.3188477,0.3427734,0.3710938,0.06884766,-0.3691406,-0.137207
2846,21.4375,22.5,-157.3125,0.06689453,0.4086914,0.2480469,0.08056641,-0.3691406,-0.1347656
2850,9,5.0625,-162.375,-0.03320313,0.4633789,0.1748047,0.09765625,-0.3632813,-0.1333008
2854,0.5625,-10.125,-183.25,0.02441406,0.4013672,0.2519531,0.1079102,-0.3603516,-0.1303711
2858,5.5,-5.8125,-210.9375,0.07861328,0.2226563,0.4135742,0.125,-0.3520508,-0.1318359
2862,19.0625,19.4375,-228.5,0.03173828,0.06689453,0.4907227,0.144043,-0.3442383,-0.1303711
2867,29.5625,50.6875,-227.75,-0.1303711,-0.002441406,0.4213867,0.1557617,-0.3378906,-0.1303711
2871,31.6875,65.5,-216.625,-0.362793,0.05908203,0.2211914,0.1782227,-0.328125,-0.1235352
2875,20.6875,64,-219.9375,-0.5141602,0.1601563,0.159668,0.1962891,-0.3144531,-0.1210938
2879,19.6875,47.6875,-227.8125,-0.7231445,0.02832031,0.06347656,0.2094727,-0.3056641,-0.1157227
2883,20.5,30.1875,-235.125,-0.7192383,0.05517578,0.05566406,0.2270508,-0.2919922,-0.112793
2887,9.625,13.1875,-236,-0.6767578,0.121582,-0.04394531,0.2412109,-0.2729492,-0.1098633
2891,-10.3125,-1.6875,-233.625,-0.5756836,0.1640625,-0.1054688,0.253418,-0.2617188,-0.1044922
2895,-37.125,8.4375,-234.625,-0.3706055,0.05517578,0.02490234,0.2666016,-0.2407227,-0.1088867
2899,-44.5,44.875,-242.3125,-0.3823242,-0.3637695,0.1518555,0.2807617,-0.2192383,-0.1098633
2903,-29.4375,73.0625,-257.6875,-0.4829102,-0.5620117,0.2675781,0.2880859,-0.2055664,-0.1074219
2907,0.1875,105,-291.625,-0.6806641,-0.8920898,0.2480469,0.2998047,-0.1767578,-0.1005859
2911,17.375,113.5625,-294.4375,-1.133789,-0.8183594,0.05957031,0.3129883,-0.1479492,-0.08837891
2915,12.5625,83.3125,-288.3125,-1.35498,-0.7016602,-0.112793,0.3164063,-0.1293945,-0.08154297
2919,7.0625,43.4375,-291.3125,-1.029297,-0.7949219,0.01367188,0.3212891,-0.1020508,-0.07470703
2923,15.625,88.9375,-317.3125,-0.2041016,-1.117676,0.4482422,0.3237305,-0.06835938,-0.06933594
2927,39.625,189.8125,-340.5625,-0.3125,-1.459473,0.3212891,0.3261719,-0.04833984,-0.05957031
2931,72.375,220.5,-372.25,-1.114746,-1.739258,-0.06298828,0.3237305,-0.009277344,-0.03955078
2935,95.375,183.5625,-384.6875,-1.804199,-1.638184,-0.3745117,0.3154297,0.03027344,-0.01757813
2939,81.4375,106.0625,-349.0625,-2.214844,-1.412598,-0.5283203,0.3071289,0.05371094,-0.006835938
2943,54.125,18.6875,-283.25,-2.156738,-1.195313,-0.4594727,0.2924805,0.08886719,-0.002441406
2947,27.5625,-31.8125,-241.6875,-1.544922,-1.117676,-0.1899414,0.2807617,0.1123047,-0.005371094
2951,22.6875,-13,-223.5625,-1.215332,-1.370117,0.07128906,0.2724609,0.1274414,-0.005371094
2955,25.8125,30,-195.375,-1.401367,-1.393555,0.2060547,0.2602539,0.1435547,-0.005371094
2959,29.1875,54.625,-155.6875,-1.847168,-1.463379,0.1982422,0.25,0.1611328,-0.00390625
2963,35.9375,48.3125,-93.875,-2.199707,-1.338867,0.105957,0.2436523,0.1674805,-0.002441406
2967,34.9375,20.625,-30,-2.20752,-1.105957,0.05566406,0.237793,0.1748047,-0.002441406
2971,27.4375,4.6875,21.8125,-1.885742,-0.8803711,0.1132813,0.2368164,0.1738281,-0.00390625
2975,23.875,5.0625,50.125,-1.637695,-0.8959961,0.1865234,0.2392578,0.1738281,-0.00390625
2979,30.75,15.6875,65.5625,-1.525391,-0.9970703,0.2749023,0.2426758,0.1699219,-0.005371094
2983,38.875,21.875,80.5,-1.614258,-1.000977,0.2558594,0.2485352,0.1625977,-0.00390625
2987,44.625,19.75,103.875,-1.727051,-1.129395,0.2133789,0.25,0.1586914,-0.00390625
2991,49.375,21.8125,137.9375,-1.75,-1.249512,0.2172852,0.2583008,0.1489258,-0.009277344
2996,50.0625,23.9375,178.125,-1.815918,-1.1875,0.140625,0.2651367,0.1386719,-0.01074219
3000,47.1875,17.4375,204.875,-1.839355,-1.319336,0.1289063,0.2734375,0.1264648,-0.01074219
3004,58.4375,-1.1875,219.5625,-1.897461,-1.381836,0.08642578,0.2841797,0.1074219,-0.01367188
3008,60.875,-13.0625,236,-1.742188,-1.443848,0.1635742,0.2949219,0.08642578,-0.01611328
3012,63.4375,7.25,269.625,-1.541016,-1.501953,0.1748047,0.3007813,0.07275391,-0.02050781
3016,52,36.3125,308.5,-1.467285,-1.22998,0.06738281,0.3115234,0.04394531,-0.02441406
3020,39.9375,20.125,321.1875,-1.591309,-1.222656,-0.07080078,0.3212891,0.01025391,-0.02050781
3024,51.625,-38.4375,298.3125,-1.544922,-1.203125,-0.1591797,0.3237305,-0.009277344,-0.02148438
3028,57.375,-94.9375,276.5625,-1.137695,-0.9389648,-0.1245117,0.328125,-0.04052734,-0.02734375
3032,49.8125,-87.9375,283.0625,-0.7192383,-1.117676,0.06347656,0.3271484,-0.07080078,-0.04052734
3036,45.4375,-29.5,305,-0.4052734,-1.066895,0.2480469,0.328125,-0.08935547,-0.04492188
3040,36.9375,2.8125,324.25,-0.7036133,-0.8881836,0.04785156,0.3222656,-0.1279297,-0.04492188
3044,27.1875,-2.4375,314.0625,-0.8666992,-0.9892578,0.01708984,0.3164063,-0.1582031,-0.04638672
3048,32.125,-34.9375,322,-0.9633789,-0.8725586,-0.1166992,0.3071289,-0.1782227,-0.04638672
3052,23.5,-74,332.0625,-0.8935547,-0.9077148,-0.2128906,0.2949219,-0.2104492,-0.05029297
3056,28.3125,-122.75,331.875,-0.5834961,-0.8881836,-0.2397461,0.2773438,-0.2416992,-0.05566406
3060,36.125,-146.875,330.5625,-0.1342773,-0.8300781,-0.1977539,0.2626953,-0.2607422,-0.06396484
3064,42.875,-142.125,310.875,0.4194336,-0.5229492,-0.109375,0.2412109,-0.2880859,-0.07177734
3068,40.4375,-115.0625,289.6875,0.8032227,-0.2314453,-0.06298828,0.21875,-0.3105469,-0.07763672
3072,30.875,-72.6875,267.0625,1.186523,0.05126953,-0.04394531,0.2021484,-0.3242188,-0.08154297
3076,21.125,-33.625,232.625,1.461914,0.3505859,-0.02832031,0.1821289,-0.3393555,-0.08007813
3080,8.25,-7.875,181.4375,1.527832,0.5761719,-0.05517578,0.1616211,-0.3505859,-0.08007813
3084,-2.1875,-8.4375,115.8125,1.523926,0.6186523,-0.05126953,0.1523438,-0.3554688,-0.08154297
3088,-5.375,-18.4375,41.875,1.52002,0.6108398,0.05566406,0.1450195,-0.359375,-0.08154297
3092,-2.375,-20.375,-36.25,1.531738,0.5952148,0.1982422,0.1416016,-0.3603516,-0.08300781
3096,1.8125,-6.125,-108.1875,1.368652,0.5488281,0.3364258,0.1450195,-0.359375,-0.08544922
3100,4.25,14.875,-158.5,1.05127,0.4282227,0.3671875,0.1582031,-0.3530273,-0.08300781
3104,10.1875,28.9375,-190.0625,0.644043,0.2768555,0.3095703,0.1738281,-0.3442383,-0.08154297
3108,12.375,23.5625,-210.4375,0.3149414,0.3427734,0.1904297,0.1831055,-0.3369141,-0.07861328
3112,9.125,5.875,-236,0.1484375,0.2924805,0.1098633,0.2011719,-0.3232422,-0.07763672
3116,4.5,-5.625,-258.8125,0.1674805,0.2070313,0.1518555,0.2202148,-0.3066406,-0.07763672
3120,-1.5625,8.1875,-284.375,0.2758789,0.04736328,0.2827148,0.2319336,-0.2944336,-0.08007813
3125,-2.4375,43.6875,-292.9375,0.125,-0.1967773,0.3251953,0.2509766,-0.2719727,-0.07617188
3129,-6.5625,68,-292.375,-0.1533203,-0.2392578,0.1943359,0.2724609,-0.2495117,-0.07177734
3133,-12.5,64.3125,-290.875,-0.4790039,-0.3286133,0.04443359,0.2817383,-0.2319336,-0.06787109
3137,-20.6875,47.0625,-289.875,-0.7231445,-0.4296875,0.09033203,0.2973633,-0.2045898,-0.0625
3141,-20.875,21.5,-281.5,-0.9477539,-0.6318359,0.1098633,0.3056641,-0.1757813,-0.06103516
3145,-18.4375,8.125,-276.375,-0.7851563,-0.5463867,0.1787109,0.3154297,-0.1567383,-0.06103516
3149,-30.0625,23.375,-267.8125,-0.6806641,-0.5229492,0.2368164,0.3212891,-0.1279297,-0.05859375
3153,-29.8125,33.375,-266.4375,-0.7773438,-0.6669922,0.1982422,0.324707,-0.1005859,-0.05712891
3157,-32.8125,39.875,-261.75,-0.7695313,-0.5893555,0.1826172,0.328125,-0.08300781,-0.05175781
3161,-41.5,55.6875,-255.25,-0.7929688,-0.7290039,0.2094727,0.3295898,-0.0546875,-0.04638672
3165,-39.0625,52.875,-247.1875,-1.103027,-0.8417969,0.1132813,0.3261719,-0.02685547,-0.04345703
3169,-33.1875,13.9375,-259.4375,-1.269531,-0.8920898,0.07519531,0.324707,-0.01171875,-0.03808594
3173,-23.9375,-46.4375,-279.3125,-1.261719,-0.8300781,0.01367188,0.3198242,0.01757813,-0.03808594
3177,-34.9375,-92.5,-284.375,-0.8549805,-0.7792969,0.1171875,0.3105469,0.04492188,-0.04199219
3181,-56.125,-38.375,-288.625,-0.02978516,-1.020508,0.5327148,0.3046875,0.06396484,-0.04638672
3185,-55.1875,87.3125,-284.375,-0.3745117,-1.67334,0.5942383,0.2924805,0.09130859,-0.04345703
3189,-36.25,141.25,-268,-1.393555,-1.727539,0.3330078,0.2807617,0.1186523,-0.02978516
3193,-18,103.5625,-243.9375,-2.315918,-1.743164,0.1328125,0.269043,0.1347656,-0.02148438
3197,-1.5,5.25,-198.9375,-2.660645,-1.544922,0.03662109,0.2558594,0.1547852,-0.01220703
3201,-1.875,-69.25,-160.4375,-2.083496,-1.15625,0.144043,0.2436523,0.1699219,-0.01074219
3205,-7.6875,-60.4375,-138,-1.486328,-1.140625,0.375,0.2368164,0.1787109,-0.01464844
3209,-13,-10.625,-101.75,-1.521484,-1.040039,0.4980469,0.2270508,0.1860352,-0.01904297
3213,-20,17.8125,-61.1875,-1.862305,-1.109863,0.5751953,0.2211914,0.1938477,-0.01464844
3217,-11.1875,20.1875,-10.875,-2.060059,-1.237793,0.6518555,0.2202148,0.1962891,-0.01464844
3221,5,18.375,34.5625,-2.04834,-1.21875,0.640625,0.2211914,0.1972656,-0.01367188
3225,17.875,10.25,71.1875,-2.029297,-1.121582,0.4980469,0.222168,0.1914063,-0.01074219
3229,25.1875,-3.4375,100.5625,-1.978516,-1.105957,0.4057617,0.2260742,0.1884766,-0.01367188
3233,30.1875,-19.5,128.8125,-1.874023,-1.066895,0.3520508,0.2329102,0.1811523,-0.01757813
3237,27.5625,-22.9375,160.3125,-1.691895,-1.098145,0.3598633,0.2451172,0.1699219,-0.02050781
3241,29.25,-14.5,189.5625,-1.552246,-1.226563,0.3867188,0.2509766,0.1601563,-0.02148438
3245,33.3125,-8.25,212.5,-1.505859,-1.237793,0.3789063,0.2641602,0.1435547,-0.02587891
3249,35.1875,-7.8125,232.5,-1.436035,-1.214844,0.3481445,0.2758789,0.1225586,-0.02832031
3254,39.8125,-13.1875,243.75,-1.389648,-1.276855,0.3291016,0.2841797,0.1088867,-0.03515625
3258,43,-20,256.8125,-1.312012,-1.179688,0.2749023,0.2939453,0.08740234,-0.03515625
3262,38.8125,-12.125,269.1875,-1.187988,-1.249512,0.3212891,0.3056641,0.06005859,-0.03955078
3266,41.0625,-9.75,286,-1.157227,-1.125488,0.2329102,0.3129883,0.04248047,-0.04199219
3270,35.625,-15,293.25,-1.091309,-1.078613,0.1674805,0.3212891,0.01025391,-0.04736328
3274,34,-24.875,288.3125,-0.9711914,-1.032227,0.1865234,0.324707,-0.01953125,-0.05029297
3278,33,-22.5625,291.125,-0.8935547,-1.004883,0.1713867,0.3271484,-0.03955078,-0.05273438
3282,25.5625,-20.5,292.5,-0.8588867,-0.9506836,0.1557617,0.328125,-0.07080078,-0.05566406
3286,24.0625,-23.875,289.9375,-0.8588867,-0.9116211,0.1171875,0.3261719,-0.1020508,-0.05859375
3290,26.625,-39.3125,276.0625,-0.8276367,-0.9736328,0.1171875,0.3212891,-0.1220703,-0.05859375
3294,47.6875,-51.8125,253.0625,-0.6533203,-0.9619141,0.1674805,0.3188477,-0.1494141,-0.06396484
3298,51.5,-35,247.875,-0.3125,-0.6474609,0.2749023,0.3071289,-0.1743164,-0.06787109
3302,35.875,23.4375,279.875,-0.2001953,-0.5229492,0.2749023,0.2998047,-0.1918945,-0.06787109
3306,18.1875,65.5625,293.875,-0.3666992,-0.4335938,0.1943359,0.2880859,-0.2192383,-0.06103516
3310,22.5625,41.0625,273.125,-0.7617188,-0.4570313,-0.04003906,0.2758789,-0.2441406,-0.05859375
3314,25.5625,-28.875,256.3125,-0.9399414,-0.4140625,-0.1782227,0.2666016,-0.2617188,-0.05419922
3318,22.1875,-109.6875,254.25,-0.7929688,-0.3056641,-0.2861328,0.2485352,-0.2817383,-0.05712891
3322,15.75,-162.5625,251.9375,-0.1611328,-0.2314453,-0.1782227,0.2294922,-0.3032227,-0.06640625
3326,16.3125,-155.9375,246.0625,0.5976563,-0.08789063,-0.02050781,0.215332,-0.3129883,-0.07324219
3330,7.0625,-91.6875,227.6875,1.419434,0.2963867,0.2021484,0.1948242,-0.3291016,-0.08007813
3334,-5.25,-9.6875,189.375,1.73291,0.5839844,0.2709961,0.1748047,-0.3417969,-0.08300781
3338,-11.75,48,134.8125,1.582031,0.6342773,0.2368164,0.1665039,-0.3466797,-0.08154297
3342,-11.4375,47.625,71.0625,1.22168,0.6962891,0.1020508,0.1567383,-0.3544922,-0.08154297
3346,-11.8125,14.875,8.1875,1.035645,0.7119141,0.1171875,0.1523438,-0.3554688,-0.08007813
3350,-13.75,-8.9375,-41.75,0.9970703,0.6694336,0.1982422,0.1547852,-0.3544922,-0.08154297
3354,-12.75,-11.9375,-86.1875,0.9501953,0.5991211,0.2983398,0.1591797,-0.3505859,-0.08447266
3358,-10.4375,4.5,-119.75,0.8378906,0.5449219,0.3520508,0.1674805,-0.3457031,-0.08544922
3362,-8.9375,21.1875,-147.125,0.578125,0.4555664,0.2675781,0.1738281,-0.3408203,-0.08447266
3366,-4.6875,17.25,-177.25,0.3496094,0.4477539,0.09814453,0.1879883,-0.3330078,-0.08447266
3370,-13.0625,6.5625,-202.625,0.2915039,0.4282227,0.05175781,0.203125,-0.3208008,-0.08544922
3374,-20.875,4.25,-228.25,0.3266602,0.253418,0.09423828,0.2138672,-0.3120117,-0.08544922
3378,-24.1875,24.375,-251.0625,0.3227539,0.05908203,0.1674805,0.230957,-0.2944336,-0.08544922
3383,-33.8125,54.0625,-256.6875,0.1171875,-0.03369141,0.140625,0.2485352,-0.2753906,-0.08447266
3387,-38.8125,61.5,-264.9375,-0.1884766,-0.1889648,0.02490234,0.2592773,-0.2607422,-0.08447266
3391,-39.5625,42.8125,-285.625,-0.4091797,-0.2548828,-0.04003906,0.2758789,-0.2392578,-0.08300781
3395,-46.625,33.625,-304.6875,-0.3862305,-0.3950195,0.06738281,0.2900391,-0.2104492,-0.07861328
3399,-54.8125,64.125,-291.375,-0.2348633,-0.5424805,0.1943359,0.3007813,-0.1904297,-0.08007813
3403,-68.9375,138.8125,-262.5,-0.3588867,-0.7407227,0.2094727,0.3115234,-0.1606445,-0.07324219
3407,-69.875,171.5,-236,-0.9790039,-0.8496094,-0.06689453,0.3188477,-0.1333008,-0.05712891
3411,-55.25,107.6875,-249.125,-1.62207,-0.8378906,-0.3208008,0.324707,-0.1181641,-0.04736328
3415,-41.5,-11.5625,-280.3125,-1.606445,-0.7602539,-0.309082,0.3271484,-0.08935547,-0.04052734
3419,-49.4375,-56.5,-297.375,-0.7075195,-0.7250977,0.1289063,0.3271484,-0.05810547,-0.04492188
3423,-61.875,36.75,-286.875,-0.06835938,-1.086426,0.5214844,0.328125,-0.03710938,-0.04492188
3427,-59.3125,138.125,-253.375,-0.8549805,-1.300293,0.1865234,0.3237305,-0.009277344,-0.03662109
3431,-59.625,114.8125,-232.9375,-1.812012,-1.086426,-0.2167969,0.3198242,0.01611328,-0.02148438
3435,-65.5625,1.125,-232.3125,-2.141602,-1.086426,-0.3168945,0.3164063,0.03125,-0.01367188
3439,-51,-114.25,-265.8125,-1.486328,-1.183594,-0.05126953,0.309082,0.05517578,-0.01464844
3443,-42.4375,-98.8125,-295.1875,-0.3935547,-1.280762,0.5366211,0.2973633,0.08398438,-0.02441406
3447,-29.125,56.0625,-287.5,-0.2192383,-1.739258,0.9443359,0.2880859,0.1010742,-0.02587891
3451,0.0625,205.5,-251.875,-1.366211,-2.049805,0.640625,0.2724609,0.1264648,-0.01220703
3455,30.5,227.75,-178,-3.020996,-1.941406,0.02880859,0.2602539,0.1474609,0.004882813
3459,35.5625,124.875,-88.625,-3.908691,-1.164063,-0.4746094,0.2519531,0.1547852,0.01464844
3463,7.4375,-10.0625,-24,-3.61377,-0.6318359,-0.5209961,0.2460938,0.1611328,0.01708984
3467,-23.125,-92.6875,26.25,-2.753906,-0.565918,-0.1669922,0.2475586,0.1611328,0.01318359
3471,-39.1875,-105.6875,67.75,-1.967285,-0.7055664,0.3017578,0.2485352,0.1601563,0.01318359
3475,-33.9375,-69.5625,105.1875,-1.525391,-0.9541016,0.6557617,0.2543945,0.1523438,0.004882813
3479,-14.125,-24.125,133.375,-1.432129,-1.024414,0.7368164,0.2617188,0.1411133,0.002441406
3483,11.625,-4.25,145.0625,-1.544922,-1.036133,0.5712891,0.2700195,0.1337891,0.002441406
3487,32.25,-12.125,147.9375,-1.753906,-1.036133,0.3481445,0.2773438,0.1225586,0
3491,40.125,-32.3125,164.5625,-1.870117,-0.9814453,0.1748047,0.2856445,0.1074219,-0.00390625
3495,33.3125,-37.4375,198.5,-1.796387,-1.105957,0.1367188,0.2890625,0.09619141,-0.008300781
3499,32.1875,-23.1875,230.75,-1.691895,-1.374023,0.1826172,0.2983398,0.07861328,-0.01220703
3503,36.5,3.875,267.875,-1.552246,-1.315918,0.1865234,0.309082,0.05371094,-0.01464844
3507,32.125,16.4375,282.9375,-1.560059,-1.272949,0.105957,0.3154297,0.03515625,-0.01757813
3512,26.8125,2.4375,295.3125,-1.665039,-1.207031,-0.02832031,0.3198242,0.006347656,-0.01904297
3516,18.125,-31.6875,306.0625,-1.610352,-1.210938,-0.09375,0.3271484,-0.02441406,-0.01904297
3520,9.875,-50.75,320,-1.335449,-1.183594,-0.009277344,0.3295898,-0.04931641,-0.02050781
3524,4.25,-50,338.125,-1.083496,-1.164063,0.05175781,0.328125,-0.08056641,-0.03125
3528,4.625,-52.375,332.5625,-0.9750977,-1.055176,0.03662109,0.324707,-0.1166992,-0.03662109
3532,5.75,-67.9375,323.875,-0.8896484,-0.9311523,0.01708984,0.3212891,-0.1396484,-0.03808594
3536,-0.6875,-65.4375,324.625,-0.6845703,-0.9467773,0.1557617,0.3115234,-0.1733398,-0.04736328
3540,4.1875,-22.8125,324.3125,-0.3901367,-0.9970703,0.3867188,0.2973633,-0.203125,-0.05175781
3544,4.3125,36.375,339.1875,-0.4248047,-0.8222656,0.3789063,0.2880859,-0.2255859,-0.05273438
3548,-2.25,52.25,353.5,-0.7695313,-0.6630859,0.1367188,0.2700195,-0.2529297,-0.04882813
3552,-7.0625,6.8125,358.5625,-0.878418,-0.5151367,-0.109375,0.2485352,-0.2866211,-0.04345703
3556,-6.8125,-62.0625,348.5,-0.6225586,-0.4765625,-0.2246094,0.230957,-0.3032227,-0.04492188
3560,-2.125,-121,324.125,-0.04882813,-0.2822266,-0.2900391,0.2080078,-0.3256836,-0.05175781
3564,-6.5625,-133.625,296.75,0.7641602,-0.1347656,-0.07080078,0.1796875,-0.3457031,-0.05957031
3568,-5.875,-88.125,277.9375,1.306641,-0.03369141,0.159668,0.1606445,-0.3554688,-0.0625
3572,-11,-24.9375,252.8125,1.508301,0.1992188,0.2441406,0.1357422,-0.3666992,-0.06542969
3576,-15,4.375,209.5625,1.388184,0.3935547,0.1479492,0.1118164,-0.3745117,-0.06640625
3580,-13.25,-16.125,139.375,1.16748,0.4829102,0.005859375,0.09960938,-0.3779297,-0.06933594
3584,-14,-61.5,64.0625,1.13623,0.5991211,-0.02832031,0.08789063,-0.3833008,-0.06933594
3588,-17.25,-76.1875,3.875,1.384277,0.5800781,0.1210938,0.08300781,-0.3803711,-0.07470703
3592,-15.5625,-50.625,-46.8125,1.531738,0.5371094,0.340332,0.08447266,-0.3833008,-0.07861328
3596,-7.3125,3.3125,-89.375,1.372559,0.4516602,0.4829102,0.08789063,-0.3803711,-0.08007813
3600,5.75,45.375,-129.25,0.9311523,0.3896484,0.4287109,0.09863281,-0.3793945,-0.08007813
3604,21.25,58.1875,-157.4375,0.4350586,0.3662109,0.2749023,0.109375,-0.3769531,-0.07617188
3608,19.5625,42.625,-170.3125,0.1054688,0.4829102,0.08642578,0.125,-0.3706055,-0.07177734
3612,7.0625,13,-185.5625,0.07861328,0.5058594,0.001953125,0.1416016,-0.3632813,-0.07080078
3616,-2.3125,0,-207.6875,0.2333984,0.3701172,0.105957,0.1523438,-0.3579102,-0.07080078
3620,-4.25,16.5625,-231.375,0.3496094,0.1835938,0.2441406,0.1713867,-0.3481445,-0.06787109
3624,0.1875,40.25,-257.375,0.2568359,0.09814453,0.2172852,0.1904297,-0.3330078,-0.06933594
3628,-4.875,49.75,-271.4375,-0.05664063,0.04736328,0.05566406,0.2070313,-0.3208008,-0.06787109
3632,-19.25,30.9375,-271.25,-0.3745117,0.03222656,-0.08203125,0.2294922,-0.3032227,-0.06640625
3636,-44.5,17.875,-260.6875,-0.2661133,-0.06835938,0.02099609,0.2475586,-0.2832031,-0.06640625
3641,-62.6875,56.4375,-240.8125,-0.1069336,-0.2666016,0.1904297,0.2568359,-0.2680664,-0.06640625
3645,-58.0625,83.9375,-252.3125,-0.3320313,-0.4453125,0.09033203,0.2709961,-0.2495117,-0.06396484
3649,-39.9375,57.75,-290.75,-0.7695313,-0.4414063,-0.05908203,0.2880859,-0.2231445,-0.06103516
3653,-31.25,12.9375,-323.4375,-0.6572266,-0.5268555,0.04785156,0.2963867,-0.2045898,-0.06103516
3657,-34.6875,28.6875,-329.3125,-0.5024414,-0.6552734,0.2211914,0.3081055,-0.1704102,-0.05957031
3661,-42.125,100.3125,-304,-0.3320313,-0.9350586,0.4521484,0.3188477,-0.1396484,-0.05566406
3665,-33.9375,191.3125,-274.6875,-0.9594727,-1.265137,0.2636719,0.324707,-0.1181641,-0.04492188
3669,-11.25,168.0625,-265.5,-2.017578,-1.121582,-0.2397461,0.3271484,-0.08935547,-0.02734375
3673,-4.875,28.3125,-279.625,-2.552246,-0.8222656,-0.4863281,0.3295898,-0.06054688,-0.01367188
3677,-17.25,-105.9375,-288.5,-1.881836,-0.6435547,-0.3051758,0.3271484,-0.04052734,-0.01367188
3681,-43.5,-137.5,-285.125,-0.7617188,-0.7290039,0.08642578,0.3271484,-0.01171875,-0.02587891
3685,-53.5625,-20.375,-285.4375,0.1171875,-1.125488,0.5791016,0.3198242,0.01757813,-0.03515625
3689,-41.3125,114.75,-271.5625,-0.5722656,-1.498535,0.4482422,0.3139648,0.03759766,-0.02832031
3693,-17.3125,138.25,-268.6875,-1.75,-1.572266,0.105957,0.3032227,0.06396484,-0.01367188
3697,0.8125,62.9375,-248.5625,-2.416504,-1.455566,-0.0859375,0.2949219,0.09130859,-0.00390625
3701,-0.9375,-27,-208.9375,-2.20752,-1.125488,-0.1245117,0.2880859,0.1049805,-0.002441406
3705,-17.125,-77.6875,-180.25,-1.575684,-0.8842773,-0.03613281,0.2749023,0.1235352,-0.00390625
3709,-34.375,-76.875,-161.3125,-1.037109,-0.8686523,0.2094727,0.269043,0.1386719,-0.008300781
3713,-41.75,-41.0625,-148.75,-0.862793,-0.9892578,0.4790039,0.2617188,0.1459961,-0.01074219
3717,-25.6875,4.125,-139.875,-1.041016,-1.253418,0.6943359,0.25,0.1577148,-0.01074219
3721,-2.625,35.125,-111.125,-1.40918,-1.276855,0.6713867,0.2436523,0.1699219,-0.008300781
3725,15.9375,34.0625,-72.6875,-1.699707,-1.094238,0.4287109,0.2392578,0.1738281,-0.00390625
3729,16.3125,5.5625,-40.1875,-1.769531,-0.7602539,0.2172852,0.2353516,0.1801758,-0.00390625
3733,7.8125,-25.125,-20.5,-1.62207,-0.6669922,0.1674805,0.2319336,0.1826172,-0.006835938
3737,2.3125,-27.5625,3.3125,-1.370117,-0.7792969,0.2905273,0.2329102,0.1826172,-0.008300781
3741,4,-5,31.625,-1.273438,-0.8803711,0.3710938,0.2329102,0.1811523,-0.006835938
3745,12.4375,18.1875,56.6875,-1.351074,-1.020508,0.4057617,0.2353516,0.1772461,-0.006835938
3749,28.5,36.75,84.1875,-1.393555,-1.047363,0.3442383,0.2392578,0.1738281,-0.008300781
3753,31.4375,47.5,113.0625,-1.494141,-0.9194336,0.1982422,0.2436523,0.1689453,-0.008300781
3757,28.6875,44.5625,136.6875,-1.599121,-0.9194336,0.1171875,0.2519531,0.1577148,-0.008300781
3761,25.9375,29.375,157.625,-1.730469,-0.9619141,0.07519531,0.2583008,0.1513672,-0.006835938
3765,21.5625,-2.125,177.8125,-1.839355,-1.040039,0.06347656,0.2675781,0.1362305,-0.006835938
3770,25.125,-35.375,198.1875,-1.727051,-1.210938,0.1020508,0.2773438,0.1201172,-0.009277344
3774,38.75,-24.625,217.9375,-1.223145,-1.22998,0.2827148,0.2856445,0.1064453,-0.01464844
3778,34.875,8.6875,237.6875,-1.187988,-1.105957,0.3017578,0.2949219,0.08740234,-0.01757813
3782,30.8125,23.125,252.4375,-1.475098,-1.175781,0.2021484,0.3056641,0.06396484,-0.02050781
3786,27.875,4.5,268.3125,-1.715332,-1.140625,0.08642578,0.3115234,0.04736328,-0.01904297
3790,27.5,-28.25,282.4375,-1.734375,-1.222656,0.03662109,0.3188477,0.01855469,-0.02050781
3794,32.3125,-52.125,293.125,-1.443848,-1.140625,0.07128906,0.3237305,-0.01074219,-0.02587891
3798,27.9375,-49.5625,304,-1.056641,-0.9506836,0.1171875,0.328125,-0.03173828,-0.03125
3802,23.0625,-16.4375,304.125,-0.7734375,-0.9814453,0.2827148,0.328125,-0.06445313,-0.03515625
3806,33.5625,43.6875,301,-0.7270508,-1.078613,0.390625,0.3261719,-0.09570313,-0.03662109
3810,33.125,94.75,314.125,-0.9399414,-0.7832031,0.2675781,0.324707,-0.1181641,-0.03369141
3814,27.3125,87.8125,314.5,-1.498047,-0.8339844,-0.03613281,0.3198242,-0.1494141,-0.02050781
3818,35.1875,12.375,296.625,-1.753906,-0.7910156,-0.2514648,0.3105469,-0.1806641,-0.01464844
3822,17.3125,-68.3125,305.1875,-1.509766,-0.5620117,-0.3051758,0.3022461,-0.1992188,-0.01611328
3826,-11.4375,-121.875,336.9375,-1.063965,-0.6860352,-0.2822266,0.2866211,-0.2280273,-0.02441406
3830,-18.25,-150.3125,347.4375,-0.4169922,-0.7680664,-0.128418,0.2700195,-0.2592773,-0.03662109
3834,-18,-138.3125,349.75,0.2529297,-0.6708984,0.02880859,0.2519531,-0.2768555,-0.04492188
3838,-18.25,-102.875,333.125,0.7099609,-0.4921875,0.1674805,0.2285156,-0.3056641,-0.05419922
3842,-7.0625,-59.5,290,0.9814453,-0.2744141,0.2441406,0.2055664,-0.3266602,-0.0625
3846,1.75,-25.3125,242,1.047363,0.004882813,0.2290039,0.1879883,-0.3369141,-0.06542969
3850,0.875,-4.375,201.75,0.9580078,0.1293945,0.1635742,0.1674805,-0.3505859,-0.06640625
3854,2.5625,-5.125,154.1875,0.8691406,0.2651367,0.08251953,0.1508789,-0.3579102,-0.06542969
3858,0,-27.875,107.5,0.8222656,0.4399414,-0.02050781,0.144043,-0.3632813,-0.06396484
3862,-7.5625,-47.0625,62.6875,0.9389648,0.5253906,0.04052734,0.1342773,-0.3681641,-0.06787109
3866,-11,-42.9375,20.5625,1.144043,0.5488281,0.1826172,0.128418,-0.3681641,-0.06542969
3870,-12.875,-6.3125,-12.875,1.279785,0.5605469,0.340332,0.128418,-0.3706055,-0.07080078
3874,-11,28.5625,-52,1.039551,0.5566406,0.3212891,0.1293945,-0.3691406,-0.07177734
3878,1.25,40.5625,-98.875,0.7680664,0.5058594,0.2597656,0.1391602,-0.3642578,-0.07177734
3882,6.875,42.6875,-135.75,0.4970703,0.5058594,0.2172852,0.1450195,-0.3632813,-0.06933594
3886,7.9375,38.1875,-159.0625,0.3071289,0.4711914,0.125,0.1591797,-0.3554688,-0.06787109
3890,2.4375,27.25,-176.0625,0.2104492,0.4868164,0.04052734,0.1738281,-0.3466797,-0.06542969
3894,-5.6875,14.6875,-196.75,0.1870117,0.3701172,0.03271484,0.1806641,-0.3408203,-0.06542969
3899,-7.0625,8.375,-228.4375,0.2451172,0.269043,0.09814453,0.199707,-0.3266602,-0.06396484
3903,-7.9375,17.0625,-256.125,0.1948242,0.1367188,0.140625,0.21875,-0.3120117,-0.06396484
3907,-13.125,27.8125,-271.1875,0.05126953,0.02441406,0.1020508,0.230957,-0.296875,-0.06396484
3911,-22.3125,30.1875,-279.6875,-0.1572266,-0.08007813,0.05175781,0.25,-0.2768555,-0.05859375
3915,-33.25,28.3125,-275.75,-0.4052734,-0.2045898,0.01708984,0.269043,-0.2543945,-0.0625
3919,-50.0625,31.9375,-263.75,-0.4711914,-0.2783203,0.05175781,0.2783203,-0.2382813,-0.05957031
3923,-53.4375,35.5,-260.4375,-0.6186523,-0.534668,0.08251953,0.2915039,-0.2143555,-0.06103516
3927,-45.8125,31.4375,-278.875,-0.6845703,-0.6318359,0.1557617,0.3046875,-0.1894531,-0.05957031
3931,-35.3125,29.5,-285.5,-0.9672852,-0.8066406,0.09423828,0.309082,-0.1704102,-0.05859375
3935,-44.5,13.6875,-253,-1.339355,-0.6748047,-0.05126953,0.3198242,-0.1420898,-0.05712891
3939,-78.1875,-25.1875,-209.125,-1.556152,-0.550293,-0.2324219,0.324707,-0.1157227,-0.05566406
3943,-120.1875,-74.3125,-171.75,-1.308105,-0.3793945,-0.2822266,0.3261719,-0.1020508,-0.0625
3947,-152.625,-47.3125,-170.375,-0.2387695,-0.6396484,0.3710938,0.3261719,-0.08203125,-0.06933594
3951,-123.625,96,-200,-0.1499023,-1.331055,0.8408203,0.328125,-0.06298828,-0.06640625
3955,-62.125,147.1875,-234.875,-1.40918,-1.312012,0.3056641,0.3271484,-0.04589844,-0.05712891
3959,-40.5625,61.625,-263,-2.319824,-0.9658203,-0.1206055,0.324707,-0.01953125,-0.04492188
3963,-50.75,-48.25,-258.375,-2.040527,-0.8027344,-0.1015625,0.3212891,0.006347656,-0.04199219
3967,-73.6875,-82.5,-243,-1.106934,-0.7680664,0.2172852,0.3164063,0.02246094,-0.04492188
3971,-72.8125,2.5,-230.0625,-0.3510742,-1.117676,0.7211914,0.309082,0.04980469,-0.05029297
3975,-49.6875,109,-212,-0.9907227,-1.280762,0.5712891,0.3007813,0.07128906,-0.03955078
3979,-30.1875,112,-193.75,-2.118164,-1.191406,0.2290039,0.2973633,0.08642578,-0.03271484
3983,-28.6875,32.4375,-160.625,-2.618164,-1.012695,0.05957031,0.2890625,0.1025391,-0.01904297
3987,-40.625,-47.125,-116.6875,-2.29248,-0.8574219,0.144043,0.2807617,0.1152344,-0.02050781
3991,-52.1875,-78.8125,-86.4375,-1.703613,-0.6977539,0.2983398,0.2792969,0.1210938,-0.01904297
3995,-54.4375,-76.875,-67.875,-1.420898,-0.7446289,0.4287109,0.2724609,0.1289063,-0.02441406
3999,-45.8125,-53.25,-43.0625,-1.436035,-0.8222656,0.5751953,0.269043,0.1337891,-0.02587891
4003,-35.875,-41,-11.8125,-1.641602,-0.8457031,0.5791016,0.2700195,0.1362305,-0.02978516
4007,-19.625,-39.25,19.3125,-1.567871,-0.9233398,0.659668,0.2675781,0.1362305,-0.02978516
4011,0.25,-22.8125,48,-1.335449,-0.9038086,0.7060547,0.2700195,0.1337891,-0.03369141
4015,19.625,5.875,69.5,-1.227051,-0.8378906,0.6518555,0.2709961,0.1298828,-0.03515625
4019,33.125,22.5625,83.1875,-1.35498,-0.7524414,0.4829102,0.2734375,0.1264648,-0.03369141
4023,41.8125,16.5,94.8125,-1.541016,-0.7485352,0.3251953,0.2807617,0.1162109,-0.03662109
4028,40.0625,-6.3125,109.6875,-1.661133,-0.6977539,0.2749023,0.2832031,0.1088867,-0.03369141
4032,39.5625,-25.5625,127.75,-1.672363,-0.8764648,0.3017578,0.2890625,0.1000977,-0.03955078
4036,47.375,-30.5625,147.5,-1.591309,-0.9736328,0.425293,0.2949219,0.08496094,-0.04492188
4040,61.125,-22.875,169.25,-1.529297,-1.102051,0.4560547,0.2998047,0.07519531,-0.04736328
4044,68.4375,-6.1875,196.9375,-1.443848,-1.036133,0.4907227,0.3046875,0.05761719,-0.05273438
4048,68.0625,10.0625,223.8125,-1.439941,-0.9619141,0.4521484,0.3129883,0.03759766,-0.05712891
4052,70.875,7.8125,236.1875,-1.599121,-1.020508,0.3520508,0.3173828,0.02001953,-0.05566406
4056,78.9375,-14.4375,239.125,-1.618164,-0.9892578,0.2944336,0.3212891,-0.004394531,-0.05859375
4060,81.3125,-26.6875,249.75,-1.413086,-0.9541016,0.3442383,0.324707,-0.03076172,-0.0625
4064,78.0625,-10.3125,272.0625,-1.23877,-0.9658203,0.3789063,0.3261719,-0.04833984,-0.06542969
4068,74.0625,5,287.5625,-1.195801,-0.8647461,0.3637695,0.328125,-0.078125,-0.06542969
4072,71.625,5.75,295.125,-1.296875,-0.8613281,0.2133789,0.3237305,-0.1083984,-0.06640625
4076,64.9375,-19.75,290.625,-1.362793,-0.7753906,0.144043,0.3173828,-0.1308594,-0.06542969
4080,71.1875,-55.6875,278.8125,-1.319824,-0.8803711,0.07910156,0.3139648,-0.1606445,-0.06640625
4084,66.25,-69,294.1875,-1.114746,-0.8144531,0.09423828,0.3032227,-0.1904297,-0.07177734
4088,52.5,-73.5625,319.5,-0.8818359,-0.7250977,0.04443359,0.2924805,-0.2104492,-0.07470703
4092,47.4375,-71.4375,324.1875,-0.6611328,-0.7446289,0.009765625,0.2773438,-0.2392578,-0.07763672
4096,43.5,-72.75,317.5,-0.4985352,-0.5737305,-0.01318359,0.2568359,-0.2680664,-0.08154297
4100,41.5625,-77.375,306.8125,-0.3745117,-0.5463867,-0.1015625,0.2412109,-0.2841797,-0.08300781
4104,35.8125,-79.375,296.0625,-0.1533203,-0.371582,-0.109375,0.2202148,-0.3066406,-0.08447266
4108,30.25,-72.5625,283,0.04345703,-0.3442383,-0.05908203,0.1948242,-0.3266602,-0.08837891
4112,23.6875,-61.625,277.5625,0.3378906,-0.1616211,-0.04736328,0.1806641,-0.3378906,-0.08837891
4116,12.625,-43,261.4375,0.6479492,0.0009765625,-0.03613281,0.1547852,-0.3520508,-0.08544922
4120,3.6875,-33.8125,225.9375,0.8110352,0.1914063,-0.05517578,0.1318359,-0.3632813,-0.09082031
4124,-6.5625,-39.5,178.125,0.9155273,0.3081055,-0.05517578,0.1176758,-0.3706055,-0.09082031
4128,-13.1875,-48.1875,134.8125,1.16748,0.3310547,0.01708984,0.1010742,-0.3754883,-0.09228516
4132,-13.8125,-43.875,87.125,1.42334,0.4516602,0.09423828,0.08886719,-0.3769531,-0.09521484
4136,-14.625,-31.0625,26.875,1.500488,0.5605469,0.1674805,0.08300781,-0.3793945,-0.09667969
4140,-8,-18.8125,-37.0625,1.353516,0.4907227,0.2675781,0.08056641,-0.3779297,-0.09912109
4144,1.75,-3.5,-87.8125,1.159668,0.4946289,0.355957,0.08886719,-0.3779297,-0.09912109
4148,9.1875,22.75,-127,0.9272461,0.4750977,0.4135742,0.09521484,-0.3745117,-0.09765625
4152,17.75,46.625,-157.125,0.5820313,0.4282227,0.4404297,0.1079102,-0.3691406,-0.09765625
4157,27.125,57.6875,-170.0625,0.190918,0.3662109,0.3212891,0.1235352,-0.3666992,-0.09375
4161,28.375,45.4375,-175.1875,-0.06054688,0.4594727,0.1367188,0.1357422,-0.3618164,-0.09228516
4165,16.125,18.0625,-184.75,-0.04882813,0.5292969,0.02880859,0.1533203,-0.3530273,-0.08544922
4169,3.0625,3.625,-203,0.1132813,0.4243164,0.07910156,0.1713867,-0.3442383,-0.08691406
4173,0.75,22.75,-227.8125,0.3305664,0.2148438,0.2709961,0.1806641,-0.3378906,-0.08544922
4177,4.5,63.4375,-244.4375,0.2875977,0.06689453,0.2597656,0.199707,-0.3217773,-0.08447266
4181,5,90.0625,-254.3125,0.02050781,-0.01806641,0.1289063,0.2202148,-0.3056641,-0.07861328
4185,-0.75,84.6875,-263.0625,-0.3706055,-0.05273438,-0.05126953,0.234375,-0.296875,-0.07324219
4189,-17.1875,55.1875,-267.875,-0.6884766,-0.06054688,-0.1630859,0.253418,-0.2768555,-0.06787109
4193,-35.5625,23.125,-259.625,-0.746582,-0.1499023,-0.07861328,0.2700195,-0.2519531,-0.06542969
4197,-47.375,19.625,-257,-0.5683594,-0.3520508,0.09033203,0.2817383,-0.2368164,-0.06640625
4201,-40,28.125,-268,-0.5605469,-0.4375,0.06347656,0.2939453,-0.2143555,-0.06787109
4205,-44.25,19.8125,-281.875,-0.715332,-0.324707,-0.05517578,0.3056641,-0.1879883,-0.06542969
4209,-62.5625,-6.625,-286.375,-0.7929688,-0.4570313,-0.1206055,0.3129883,-0.1669922,-0.06542969
4213,-77.25,-2.1875,-277.875,-0.362793,-0.6279297,0.09814453,0.3173828,-0.1381836,-0.06787109
4217,-90.75,68.875,-269.6875,-0.2080078,-0.9155273,0.2944336,0.3261719,-0.1083984,-0.06787109
4221,-62.875,131.375,-290.875,-0.3320313,-1.370117,0.3789063,0.3261719,-0.08691406,-0.06103516
4225,-17.125,186.375,-326.375,-0.8857422,-1.614746,0.2636719,0.3295898,-0.05566406,-0.04638672
4229,11.75,163.5,-337.625,-1.932129,-1.513672,-0.1821289,0.3261719,-0.02050781,-0.02441406
4233,8.8125,53.5625,-320.875,-2.478516,-1.152344,-0.4438477,0.3222656,0.002441406,-0.01611328
4237,-15.875,-65.8125,-293.6875,-2.005859,-0.9697266,-0.359375,0.3129883,0.03613281,-0.01220703
4241,-33.25,-45.875,-289.3125,-0.5795898,-1.121582,0.2749023,0.3056641,0.06396484,-0.01904297
4245,-38.3125,53.5,-268.5,-0.7543945,-1.300293,0.2060547,0.2983398,0.08398438,-0.01904297
4249,-42.5,80.75,-269.0625,-1.490234,-1.276855,-0.009277344,0.2856445,0.1074219,-0.009277344
4253,-38.25,39.1875,-259.5625,-2.071777,-1.42041,-0.112793,0.2709961,0.1298828,-0.001464844
4257,-40.25,-25.125,-213,-2.087402,-1.210938,-0.05126953,0.2617188,0.1459961,0.004882813
4261,-39.5625,-83.8125,-161.4375,-1.723145,-1.102051,-0.01660156,0.2485352,0.1625977,0.002441406
4265,-45.4375,-122.25,-150.6875,-1.067871,-0.7368164,0.1289063,0.2392578,0.1738281,-0.001464844
4269,-51.375,-106.9375,-164.75,-0.5683594,-0.7949219,0.4521484,0.2329102,0.1811523,-0.00390625
4273,-47.4375,-43,-173.375,-0.715332,-1.136719,0.8330078,0.2236328,0.1938477,-0.006835938
4277,-30,16.5,-133.75,-1.463379,-1.509766,0.9750977,0.2080078,0.2036133,-0.002441406
4281,-8.75,22.9375,-50.9375,-2.110352,-1.521484,0.7558594,0.203125,0.2075195,-0.002441406
4286,3.4375,-25.5,8.4375,-2.160645,-1.121582,0.4560547,0.2011719,0.2114258,-0.001464844
4290,8.8125,-58.75,34.75,-1.606445,-1.040039,0.4711914,0.203125,0.2084961,-0.002441406
4294,14.4375,-30.8125,68.25,-1.087402,-1.040039,0.5058594,0.2070313,0.2060547,-0.005371094
4298,14.0625,19.0625,95.9375,-0.9555664,-1.070801,0.4907227,0.2119141,0.2026367,-0.008300781
4302,25.375,54.375,120.125,-1.056641,-1.21875,0.3481445,0.2202148,0.1948242,-0.009277344
4306,32.5625,65.6875,142.375,-1.211426,-1.08252,0.2094727,0.2260742,0.1899414,-0.008300781
4310,30.6875,48.5625,157.5625,-1.362793,-0.9892578,0.02099609,0.2353516,0.1787109,-0.006835938
4314,25.4375,15.3125,163,-1.494141,-0.9814453,-0.03222656,0.2475586,0.1650391,-0.006835938
4318,23.1875,-16.5625,174.3125,-1.467285,-1.125488,0.05957031,0.2519531,0.1577148,-0.008300781
4322,26.75,-20.25,193.8125,-1.358887,-1.304199,0.2094727,0.2651367,0.1425781,-0.01074219
4326,28.8125,-15.125,222.125,-1.366211,-1.389648,0.2636719,0.2773438,0.1225586,-0.01220703
4330,35.25,-13.75,245.6875,-1.401367,-1.416504,0.2519531,0.2817383,0.1088867,-0.01904297
4334,35.5,-23.5625,264.8125,-1.475098,-1.323242,0.1674805,0.2963867,0.08740234,-0.02148438
4338,32.5625,-49.75,275.3125,-1.533203,-1.296387,0.125,0.3081055,0.06103516,-0.02734375
4342,38.5,-68.75,289.875,-1.385742,-1.334961,0.1787109,0.3139648,0.04248047,-0.03125
4346,45.3125,-60.9375,304.625,-1.001953,-1.253418,0.2944336,0.3222656,0.01123047,-0.04052734
4350,40.25,-29.75,313.6875,-0.9399414,-1.066895,0.3442383,0.324707,-0.02197266,-0.04736328
4354,37.875,-19.4375,325.125,-1.180664,-1.117676,0.2329102,0.328125,-0.04199219,-0.05029297
4358,37.625,-37.375,326.875,-1.165039,-0.9194336,0.1289063,0.3271484,-0.078125,-0.05273438
4362,30.4375,-63.8125,323.8125,-1.060547,-0.8300781,0.06347656,0.324707,-0.1118164,-0.05859375
4366,31.5625,-76.5625,306.125,-0.9052734,-0.8574219,0.1635742,0.3212891,-0.1342773,-0.06396484
4370,37.75,-72.125,302.6875,-0.746582,-0.7792969,0.1904297,0.309082,-0.1655273,-0.07080078
4374,37.75,-43,309.25,-0.5410156,-0.7641602,0.2827148,0.2973633,-0.1967773,-0.07470703
4378,38.5625,-23.9375,316.0625,-0.5644531,-0.5620117,0.1635742,0.2900391,-0.2158203,-0.07470703
4382,35.5625,-29.6875,302.25,-0.7075195,-0.484375,0.01708984,0.2734375,-0.2441406,-0.07617188
4386,34.375,-64.8125,288.9375,-0.6069336,-0.355957,-0.1245117,0.2558594,-0.2705078,-0.07861328
4390,30.0625,-92.125,269.1875,-0.3706055,-0.3208008,-0.112793,0.2436523,-0.2866211,-0.08154297
4394,30.125,-94.375,251.9375,-0.06835938,-0.2587891,-0.02832031,0.222168,-0.3056641,-0.08300781
4398,26.0625,-66.5625,253.3125,0.08642578,-0.1655273,0.005859375,0.203125,-0.3242188,-0.08691406
4402,10.875,-44.25,260.0625,0.09375,0.121582,-0.128418,0.1879883,-0.3330078,-0.08544922
4406,-9.5625,-51.375,252.875,0.1054688,0.2807617,-0.2978516,0.1650391,-0.3505859,-0.08984375
4410,-31.6875,-74.375,223.25,0.206543,0.3623047,-0.2670898,0.1416016,-0.3579102,-0.09521484
4415,-33.5,-101.3125,187.375,0.4467773,0.2299805,-0.1362305,0.1269531,-0.3632813,-0.09912109
4419,-27,-93.9375,158,0.8769531,0.2924805,0.1098633,0.1069336,-0.3691406,-0.1044922
4423,-24.8125,-58.5625,132.1875,1.186523,0.3974609,0.2519531,0.09130859,-0.3730469,-0.1098633
4427,-23.0625,-14.375,101.125,1.337891,0.4907227,0.3481445,0.08300781,-0.3754883,-0.1113281
4431,-20.6875,12.9375,57.625,1.229492,0.5488281,0.3364258,0.07373047,-0.3745117,-0.1142578
4435,-13.5,19.5625,5.875,1.078125,0.5566406,0.3212891,0.07226563,-0.3754883,-0.1157227
4439,-8.125,13.75,-46.125,0.9350586,0.5683594,0.3710938,0.07373047,-0.3754883,-0.1181641
4443,-2.0625,14.375,-90.375,0.8183594,0.5214844,0.4326172,0.07861328,-0.3745117,-0.1166992
4447,5.875,25.4375,-119.25,0.675293,0.4711914,0.4633789,0.08789063,-0.371582,-0.1166992
4451,12.625,43.875,-138.6875,0.5239258,0.4555664,0.4482422,0.09765625,-0.3706055,-0.1142578
4455,15.125,55,-153.0625,0.3110352,0.4790039,0.3364258,0.1118164,-0.3666992,-0.112793
4459,13.625,56.75,-173.25,0.1713867,0.4438477,0.3291016,0.128418,-0.359375,-0.1088867
4463,15.0625,51.75,-192.3125,0.05126953,0.3466797,0.2519531,0.1401367,-0.3569336,-0.105957
4467,12,46.875,-208.75,0.04345703,0.3271484,0.2021484,0.1591797,-0.3466797,-0.1044922
4471,7.25,44.8125,-226,0.04345703,0.237793,0.2021484,0.1782227,-0.3344727,-0.09912109
4475,4.625,51.625,-236.5,-0.006347656,0.1098633,0.1748047,0.1904297,-0.3266602,-0.09521484
4479,0.3125,54.875,-245.375,-0.1459961,0.07470703,0.1171875,0.2104492,-0.3120117,-0.09521484
4483,-3.3125,52.25,-264.25,-0.3242188,-0.006347656,0.144043,0.230957,-0.2954102,-0.09082031
4487,-5.125,55.1875,-272.125,-0.4633789,-0.1538086,0.159668,0.2436523,-0.2792969,-0.08984375
4491,-4.8125,59.3125,-265.5,-0.6611328,-0.2392578,0.07910156,0.2617188,-0.2592773,-0.08544922
4495,-17.8125,38,-256.25,-1.009766,-0.05273438,-0.1669922,0.2773438,-0.2382813,-0.08154297
4499,-40.0625,-19.375,-261.875,-1.060547,0.004882813,-0.3208008,0.2856445,-0.2216797,-0.08300781
4503,-62.75,-32.625,-269.375,-0.4594727,-0.1459961,0.07128906,0.2963867,-0.1958008,-0.08691406
4507,-74.125,33.5625,-254.875,-0.2661133,-0.5966797,0.3637695,0.3081055,-0.1694336,-0.08837891
4511,-78.5,103.6875,-227.6875,-0.6225586,-0.9814453,0.3364258,0.3139648,-0.1518555,-0.08447266
4515,-79,144.5625,-206.5,-1.12207,-0.8300781,0.2441406,0.3198242,-0.1279297,-0.07617188
4519,-62.3125,103.9375,-216.0625,-1.738281,-0.7792969,-0.07470703,0.324707,-0.1030273,-0.06396484
4523,-58.25,14.125,-231.125,-1.79248,-0.5927734,-0.1743164,0.3261719,-0.09082031,-0.05566406
4527,-74,-52.3125,-235.1875,-1.25,-0.5307617,-0.06298828,0.328125,-0.06445313,-0.05859375
4531,-88.25,-41.1875,-234.5625,-0.3046875,-0.6630859,0.3056641,0.3271484,-0.03710938,-0.06396484
4535,-91.125,70.25,-227.875,0.07470703,-1.012695,0.6713867,0.324707,-0.01953125,-0.0625
4539,-66.4375,135.9375,-225.5,-0.7929688,-1.408691,0.4174805,0.3212891,0.001464844,-0.05419922
4544,-28.6875,105.8125,-243.875,-1.490234,-1.381836,0.2172852,0.3164063,0.02636719,-0.03662109
4548,-10,50.9375,-251.625,-1.471191,-1.245605,0.1367188,0.3105469,0.04248047,-0.02978516
4552,-15.8125,31.25,-245.3125,-1.172852,-1.094238,0.09423828,0.3032227,0.06884766,-0.02294922
4556,-22.5,27.9375,-238,-1.125977,-1.167969,0.01708984,0.2939453,0.09228516,-0.02050781
4560,-29.125,26.5,-227.1875,-1.215332,-1.183594,0.04052734,0.2866211,0.1074219,-0.01757813
4564,-31.375,29.8125,-204.5625,-1.319824,-1.304199,0.1748047,0.2734375,0.1264648,-0.01367188
4568,-28.8125,32.8125,-170.1875,-1.471191,-1.312012,0.2558594,0.2617188,0.1411133,-0.008300781
4572,-23.3125,27,-138.1875,-1.567871,-1.21875,0.2636719,0.2558594,0.1523438,-0.00390625
4576,-18.0625,9.5,-111.5,-1.649414,-0.9736328,0.1518555,0.2485352,0.1635742,-0.001464844
4580,-21.8125,-14.6875,-87.4375,-1.544922,-0.8144531,0.1557617,0.2426758,0.1699219,0.0009765625
4584,-31.1875,-28.6875,-62.8125,-1.358887,-0.7133789,0.2133789,0.2392578,0.1738281,0.002441406
4588,-38.375,-31.5,-41.4375,-1.129883,-0.7719727,0.3056641,0.234375,0.1787109,0.00390625
4592,-34.9375,-23.5625,-28.25,-0.8974609,-0.8144531,0.3789063,0.2329102,0.1811523,0.002441406
4596,-21.6875,-7,-23.8125,-0.7734375,-0.8959961,0.4326172,0.2294922,0.1811523,0.004882813
4600,1.5,5.9375,-27.875,-0.7890625,-0.9272461,0.3520508,0.2294922,0.1811523,0.006347656
4604,14.875,12.375,-27.5,-0.8354492,-0.8261719,0.2094727,0.2270508,0.1850586,0.00390625
4608,16.25,12.5,-21.0625,-0.8706055,-0.7832031,0.06347656,0.2236328,0.1875,0.004882813
4612,8.8125,7.5625,-8,-0.9287109,-0.7641602,-0.02441406,0.2260742,0.1884766,0.00390625
4616,-0.0625,1,8.75,-0.8818359,-0.7792969,-0.03613281,0.2260742,0.1875,0.002441406
4620,-5.3125,-4.0625,18.4375,-0.7617188,-0.8105469,-0.02050781,0.2246094,0.1875,0.006347656
4624,-4.9375,-7.625,20.5625,-0.6650391,-0.8647461,0.02099609,0.2260742,0.1860352,0.00390625
4628,-3,-10.0625,18.125,-0.5991211,-0.8300781,0.02880859,0.2270508,0.1850586,0.002441406
4632,-5.6875,-11.5,18.1875,-0.5644531,-0.8222656,0.02880859,0.2285156,0.1835938,0.004882813
4636,-6.3125,-15.125,16.4375,-0.5683594,-0.8261719,0.05566406,0.2294922,0.1811523,0.002441406
4640,-6.6875,-18.5625,15.0625,-0.5175781,-0.8261719,0.09814453,0.2329102,0.1811523,0.0009765625
4644,-6.3125,-19.125,13.4375,-0.4985352,-0.8378906,0.1132813,0.234375,0.1811523,0.002441406
4648,-6.0625,-24.9375,9.5625,-0.5141602,-0.7910156,0.09033203,0.2329102,0.1801758,0
4652,-8.25,-30.3125,7.125,-0.4633789,-0.8300781,0.144043,0.2329102,0.1787109,-0.001464844
4656,-6.625,-28,7.1875,-0.4130859,-0.8725586,0.1557617,0.2353516,0.1801758,-0.001464844
4660,-4.25,-21.75,4.875,-0.3862305,-0.8496094,0.1982422,0.234375,0.1787109,-0.002441406
4664,-1.1875,-13,3.0625,-0.3974609,-0.8764648,0.2021484,0.2368164,0.1787109,-0.00390625
4668,3.3125,-7.125,2.375,-0.4555664,-0.8574219,0.1635742,0.2353516,0.1772461,-0.002441406
4673,2.9375,-7.875,1.25,-0.4868164,-0.8027344,0.1171875,0.234375,0.1772461,-0.005371094
