Packet number,Gyroscope X (deg/s),Gyroscope Y (deg/s),Gyroscope Z (deg/s),Accelerometer X (g),Accelerometer Y (g),Accelerometer Z (g),Magnetometer X (G),Magnetometer Y (G),Magnetometer Z (G)
2,4.3125,3.3125,-3.1875,0.8574219,0.5175781,0.1210938,-0.3173828,-0.1220703,-0.04052734
6,0.9375,0.4375,-1.0625,0.8535156,0.5019531,0.1171875,-0.3188477,-0.1206055,-0.04199219
10,0.0625,-1.375,-0.1875,0.8842773,0.4907227,0.1132813,-0.3188477,-0.1220703,-0.04052734
14,-0.125,-0.125,0.25,0.8881836,0.4829102,0.09033203,-0.3173828,-0.1230469,-0.04199219
18,1.9375,1.9375,0.4375,0.8881836,0.4672852,0.08642578,-0.3173828,-0.1230469,-0.04199219
22,4.5,3.4375,-0.0625,0.8769531,0.4555664,0.08251953,-0.3173828,-0.1220703,-0.04199219
26,6.375,3.9375,0.8125,0.8730469,0.4750977,0.09423828,-0.3198242,-0.1220703,-0.04199219
30,5.8125,4.875,3.375,0.8881836,0.5058594,0.1020508,-0.3173828,-0.1230469,-0.04199219
34,4.4375,4.5,4.5625,0.8613281,0.4985352,0.09814453,-0.3188477,-0.1206055,-0.04345703
38,2.75,3.375,4.75,0.8730469,0.5019531,0.09814453,-0.3188477,-0.1220703,-0.04199219
42,1.0625,1.1875,5.5625,0.8769531,0.4711914,0.09814453,-0.3173828,-0.1196289,-0.04199219
46,-1.8125,-3.3125,7.9375,0.9350586,0.4516602,0.1132813,-0.3173828,-0.1196289,-0.04345703
50,-7.5,-7.5,17.1875,1.012207,0.4516602,0.1479492,-0.3198242,-0.1196289,-0.04345703
54,-11.125,-10.375,28.625,1.05127,0.4125977,0.1518555,-0.3188477,-0.1166992,-0.04052734
58,-12.3125,-8.25,39.3125,1.113281,0.4125977,0.1557617,-0.3198242,-0.1132813,-0.04052734
62,-13.6875,-0.1875,44.375,1.105469,0.3896484,0.159668,-0.3198242,-0.1108398,-0.04052734
66,-14.125,7.5625,44.8125,1.0625,0.3935547,0.159668,-0.3198242,-0.1069336,-0.04199219
70,-17.1875,12.5625,49.5,1.055176,0.4165039,0.1787109,-0.3222656,-0.1030273,-0.04199219
74,-22.1875,12.125,56.875,0.9970703,0.3779297,0.1787109,-0.3222656,-0.09814453,-0.04199219
78,-26.375,11,63.1875,1.047363,0.3818359,0.1557617,-0.324707,-0.09326172,-0.04345703
83,-28.3125,9.4375,71.5,1.043457,0.2924805,0.144043,-0.324707,-0.08544922,-0.04638672
87,-27.5,11.1875,77.9375,1.159668,0.3193359,0.1865234,-0.324707,-0.07958984,-0.04736328
91,-34.4375,18.0625,86.3125,1.225586,0.3310547,0.2094727,-0.324707,-0.07080078,-0.04736328
95,-37.9375,21.4375,90.625,1.22168,0.2338867,0.1904297,-0.3256836,-0.06298828,-0.05029297
99,-37.0625,21.0625,98.8125,1.248535,0.1914063,0.1713867,-0.3271484,-0.05712891,-0.05273438
103,-34.1875,21.6875,109.25,1.29541,0.1367188,0.1748047,-0.324707,-0.04589844,-0.05566406
107,-30.25,25.625,114.4375,1.330078,0.1254883,0.1982422,-0.3256836,-0.03320313,-0.05566406
111,-31.25,27.0625,115.125,1.388184,0.1679688,0.2290039,-0.3256836,-0.02441406,-0.05859375
115,-41.6875,28.8125,121.5625,1.477539,0.1953125,0.2636719,-0.324707,-0.01318359,-0.0625
119,-45.9375,27.1875,139,1.469727,0.05517578,0.2402344,-0.3232422,-0.0004882813,-0.0625
123,-38.6875,27.6875,150.5625,1.461914,-0.02197266,0.2211914,-0.3208008,0.01025391,-0.06542969
127,-30.125,29.5,157.5,1.48877,-0.04882813,0.2021484,-0.3198242,0.02734375,-0.06640625
131,-24.3125,30.8125,165.5,1.516113,-0.01806641,0.2402344,-0.3125,0.04248047,-0.06933594
135,-27.3125,40.875,164.875,1.616699,0.07861328,0.2866211,-0.3105469,0.05273438,-0.06933594
139,-31.75,42.3125,178.6875,1.512207,-0.06054688,0.2558594,-0.3032227,0.06738281,-0.07324219
143,-24.3125,36.0625,195.3125,1.461914,-0.1616211,0.2402344,-0.2973633,0.08886719,-0.07617188
147,-16.5,35.125,204.375,1.52002,-0.09570313,0.2519531,-0.2915039,0.1000977,-0.07861328
151,-15.3125,42.6875,209.625,1.582031,-0.04882813,0.2636719,-0.2817383,0.1186523,-0.08154297
155,-16.4375,53.0625,216.9375,1.597656,-0.06445313,0.2636719,-0.2709961,0.1386719,-0.08544922
159,-15,55.875,230.75,1.407715,-0.1420898,0.2250977,-0.2617188,0.1513672,-0.08691406
163,-7.9375,51.5,242.25,1.372559,-0.09570313,0.2368164,-0.2460938,0.1699219,-0.09082031
167,-4.625,54.8125,245.6875,1.345703,-0.06054688,0.2597656,-0.2294922,0.1884766,-0.09375
171,-2.75,60.8125,245.9375,1.244629,-0.06835938,0.2441406,-0.2163086,0.1987305,-0.09912109
175,1.375,59.8125,245.625,1.147949,-0.06054688,0.2480469,-0.1962891,0.2148438,-0.1005859
179,4.1875,62.8125,247,1.047363,-0.04882813,0.2250977,-0.1757813,0.2299805,-0.1044922
183,7,61.875,249.875,0.9462891,-0.03369141,0.2133789,-0.1616211,0.2387695,-0.1098633
187,10.9375,64.375,246.6875,0.8959961,-0.006347656,0.2172852,-0.1391602,0.2475586,-0.1113281
191,13.8125,73.9375,232.6875,0.7294922,0.0009765625,0.2021484,-0.1137695,0.2563477,-0.1181641
195,12.25,71.0625,222.3125,0.5708008,0.03613281,0.2133789,-0.09716797,0.2597656,-0.1210938
199,7.375,64.0625,213.5625,0.3769531,0.02050781,0.2094727,-0.07568359,0.2651367,-0.1235352
203,4.75,58.3125,195.875,0.3188477,-0.01416016,0.2172852,-0.05322266,0.2700195,-0.125
207,6.4375,65.5,182.5,0.206543,-0.04882813,0.2094727,-0.04003906,0.2709961,-0.1264648
212,3.125,62.125,174.3125,0.0009765625,-0.01416016,0.2094727,-0.02246094,0.2724609,-0.1289063
216,3.5,53.3125,172.125,-0.2583008,-0.07617188,0.1904297,-0.001953125,0.2724609,-0.1303711
220,0.8125,44.4375,150.1875,-0.4404297,0.02050781,0.1865234,0.009277344,0.2700195,-0.1289063
224,2.9375,40.4375,117.75,-0.6303711,-0.01806641,0.1982422,0.0234375,0.2700195,-0.1303711
228,0.4375,36.0625,83.0625,-0.7890625,-0.002441406,0.2060547,0.03564453,0.2675781,-0.1303711
232,-1.875,26,55.25,-0.9672852,-0.03369141,0.2094727,0.04052734,0.2675781,-0.1303711
236,-6.125,5.75,25.25,-1.060547,-0.03369141,0.2368164,0.04638672,0.2661133,-0.1303711
240,-14.5625,-14.9375,-6.375,-0.9790039,-0.03759766,0.2558594,0.04736328,0.2675781,-0.1279297
244,-22.125,-25.875,-36.125,-0.8125,-0.1347656,0.2788086,0.04492188,0.2651367,-0.1264648
248,-25.5625,-29.6875,-69.125,-0.6342773,-0.2275391,0.2905273,0.0390625,0.2685547,-0.125
252,-29.8125,-31.6875,-94.125,-0.4672852,-0.2822266,0.2983398,0.03173828,0.2700195,-0.1225586
256,-39.1875,-43,-108.625,-0.3046875,-0.324707,0.3017578,0.02587891,0.2739258,-0.1225586
260,-45.875,-47.25,-106.5625,-0.09912109,-0.4296875,0.2519531,0.01269531,0.2749023,-0.1166992
264,-38.5,-36.3125,-113.5,-0.006347656,-0.4648438,0.2368164,0,0.2763672,-0.112793
268,-31.5625,-30.625,-134.5,0.01269531,-0.4140625,0.2211914,-0.0078125,0.2773438,-0.1098633
272,-31,-26.375,-150.375,0.1171875,-0.3754883,0.1557617,-0.02099609,0.2773438,-0.105957
276,-29.25,-24.125,-146.75,0.1518555,-0.3208008,0.1367188,-0.03662109,0.2773438,-0.1020508
280,-19.25,-32.8125,-163.9375,0.1171875,-0.4414063,0.1479492,-0.04736328,0.2788086,-0.09912109
284,-0.3125,-25.0625,-185.1875,0.2412109,-0.387207,0.105957,-0.06494141,0.2749023,-0.09912109
288,14.25,-24.75,-194.3125,0.2568359,-0.3056641,0.105957,-0.08203125,0.2724609,-0.09765625
292,20.4375,-30.6875,-210.125,0.3378906,-0.1655273,0.1367188,-0.09619141,0.2675781,-0.09765625
296,12.0625,-52.25,-217.875,0.3496094,-0.08398438,0.140625,-0.1186523,0.2597656,-0.09912109
300,2.625,-81.875,-212.9375,0.5009766,-0.1230469,0.105957,-0.1376953,0.2509766,-0.09765625
304,-0.5,-97.875,-214.4375,0.7412109,-0.1420898,0.1210938,-0.1508789,0.2451172,-0.09375
308,0.0625,-92.4375,-216.4375,1.047363,-0.08398438,0.1674805,-0.1723633,0.2348633,-0.08691406
312,-3.125,-72.25,-234.125,1.186523,-0.06054688,0.1904297,-0.1914063,0.2236328,-0.08007813
316,-11.125,-72.875,-232.3125,1.082031,-0.08398438,0.1210938,-0.2045898,0.2124023,-0.07763672
320,-17,-95.1875,-219.125,1.155762,-0.1347656,0.04785156,-0.2236328,0.1972656,-0.07080078
324,-7,-97.875,-197.8125,1.330078,-0.2666016,0.04052734,-0.2402344,0.1835938,-0.0625
328,15.625,-80.625,-187,1.442383,-0.2822266,0.04052734,-0.2495117,0.1738281,-0.05859375
332,42.0625,-42.75,-193.125,1.430664,-0.08789063,0.05957031,-0.2626953,0.1586914,-0.05419922
336,37.9375,-21.4375,-221.875,1.163574,0.3271484,0.07910156,-0.2744141,0.1401367,-0.05419922
341,11.9375,-47.75,-229.5625,1.082031,0.3193359,0.07519531,-0.2817383,0.1274414,-0.05273438
345,3.625,-60.25,-220.9375,1.407715,0.1484375,0.07910156,-0.293457,0.1074219,-0.04736328
349,15.875,-43.3125,-217.3125,1.546875,0.06298828,0.09423828,-0.3032227,0.08496094,-0.04492188
353,35,-22.125,-213.8125,1.484863,0.1293945,0.08642578,-0.309082,0.07128906,-0.04199219
357,42.625,-19.5,-208,1.260254,0.3349609,0.06738281,-0.3139648,0.05126953,-0.04052734
361,30.9375,-42.8125,-208.875,1.233398,0.5214844,0.08642578,-0.3188477,0.03027344,-0.03955078
365,2.5,-67.625,-210.3125,1.458008,0.6069336,0.08642578,-0.3222656,0.01611328,-0.03515625
369,-23,-77.375,-201.8125,1.872559,0.3583984,0.09423828,-0.324707,-0.006835938,-0.02734375
373,-21.5625,-57.75,-181.125,2.202148,0.02050781,0.1098633,-0.328125,-0.02587891,-0.02148438
377,-4.4375,-25.5625,-145.5625,2.248535,-0.1577148,0.1098633,-0.328125,-0.03564453,-0.01611328
381,12.0625,-2.375,-114,2.058594,-0.2548828,0.125,-0.328125,-0.05078125,-0.01611328
385,19.0625,4.25,-87.4375,1.938477,-0.2431641,0.1748047,-0.3271484,-0.05957031,-0.01757813
389,15.4375,3.4375,-56.875,1.922852,-0.2939453,0.2866211,-0.3256836,-0.06689453,-0.01611328
393,12.25,2.4375,-19.6875,1.950195,-0.3481445,0.375,-0.3256836,-0.07177734,-0.01757813
397,7.8125,6.625,19.375,1.888184,-0.2626953,0.409668,-0.324707,-0.07177734,-0.01904297
401,-3.1875,9.3125,50.3125,1.686523,-0.1655273,0.3671875,-0.3256836,-0.07080078,-0.01904297
405,-11.875,9.75,67.5,1.585938,-0.1191406,0.2749023,-0.3271484,-0.06298828,-0.02148438
409,-18.5,11.875,82.125,1.546875,-0.06054688,0.2172852,-0.3256836,-0.05712891,-0.02050781
413,-27.75,12.625,91.375,1.566406,-0.02978516,0.1635742,-0.3271484,-0.05175781,-0.02050781
417,-32.5625,9.25,112.25,1.601563,-0.06054688,0.1132813,-0.3256836,-0.04199219,-0.02294922
421,-32.25,8.625,135.1875,1.702148,-0.04541016,0.06347656,-0.3271484,-0.02587891,-0.02148438
425,-32.875,11.875,156.125,1.779785,-0.01806641,0.05566406,-0.3271484,-0.01806641,-0.02294922
429,-29.125,23.6875,168.8125,1.830078,-0.02197266,0.05566406,-0.3256836,-0.0004882813,-0.02148438
433,-22.375,30.125,180,1.779785,0.0009765625,0.04052734,-0.3232422,0.01611328,-0.02734375
437,-20.1875,28.3125,195.6875,1.830078,0.04736328,0.02880859,-0.3208008,0.03027344,-0.02832031
441,-12.5,31.4375,217.0625,1.89209,-0.06445313,0.02880859,-0.3164063,0.04736328,-0.02978516
445,-0.5625,38.875,237.8125,1.822266,0.02832031,0.04052734,-0.3081055,0.06982422,-0.03369141
449,7.0625,44.0625,248.1875,1.768066,0.04394531,0.05175781,-0.3032227,0.08496094,-0.03662109
453,14.8125,58.6875,245.75,1.752441,0.1098633,0.07910156,-0.2924805,0.1088867,-0.04199219
457,12,68.4375,243.75,1.589844,0.1640625,0.07910156,-0.2817383,0.1313477,-0.04736328
461,13.25,60.5625,257.0625,1.473633,0.04394531,0.06347656,-0.2709961,0.1435547,-0.05273438
465,18.9375,53.3125,268.5,1.442383,0.04736328,0.07128906,-0.2553711,0.1660156,-0.05859375
470,17.625,53.8125,276.375,1.415527,0.1601563,0.1020508,-0.2363281,0.1860352,-0.0625
474,19.125,57.125,273.9375,1.299316,0.07080078,0.1020508,-0.2236328,0.2001953,-0.06787109
478,27.8125,71.25,264.4375,1.330078,0.05908203,0.1171875,-0.2045898,0.2172852,-0.07324219
482,36.9375,90.625,258.125,1.163574,0.05126953,0.09033203,-0.1806641,0.2314453,-0.08300781
486,31.0625,85,253.125,0.9116211,0.2148438,0.09033203,-0.1650391,0.2397461,-0.08544922
490,15.6875,61.5625,262.75,0.6870117,0.09423828,0.06738281,-0.1401367,0.2509766,-0.09375
494,15.1875,48.8125,256.25,0.7333984,0.08251953,0.1098633,-0.1162109,0.262207,-0.1005859
498,22.125,64.375,241,0.7451172,0.008789063,0.105957,-0.09960938,0.2675781,-0.1005859
502,31.8125,86,215.375,0.5356445,0.05126953,0.105957,-0.07470703,0.2739258,-0.105957
506,35.875,94.5,197.125,0.2915039,0.06298828,0.07910156,-0.05322266,0.2739258,-0.112793
510,31.125,87.5,185,0.09033203,0.1254883,0.1132813,-0.0390625,0.2749023,-0.1166992
514,19.5625,71.75,180.125,-0.2348633,0.08251953,0.1171875,-0.01757813,0.2739258,-0.1166992
518,11.9375,45,164.125,-0.4829102,0.08251953,0.125,0.0009765625,0.2749023,-0.1196289
522,3.3125,31.8125,136.4375,-0.6108398,0.06689453,0.1518555,0.01269531,0.2724609,-0.1225586
526,1.875,22.8125,105.4375,-0.715332,0.03222656,0.1826172,0.0234375,0.2709961,-0.1225586
530,3,17.625,74.25,-0.8276367,-0.006347656,0.2172852,0.03564453,0.2685547,-0.1235352
534,4,11.9375,42.8125,-0.9091797,0.0009765625,0.2441406,0.0390625,0.2700195,-0.1225586
538,2.8125,3.875,9.8125,-0.9477539,-0.01806641,0.2944336,0.04150391,0.2700195,-0.125
542,-0.25,-4.6875,-23.3125,-0.9091797,-0.04541016,0.2983398,0.04248047,0.2685547,-0.1235352
546,-6.3125,-11.3125,-58.75,-0.8046875,-0.06445313,0.3173828,0.0390625,0.2685547,-0.1225586
550,-13.5,-18.625,-90.625,-0.6806641,-0.1420898,0.2866211,0.03320313,0.2700195,-0.1225586
554,-18.4375,-28.9375,-114.8125,-0.5214844,-0.2314453,0.2441406,0.0234375,0.2724609,-0.1196289
558,-19.6875,-33.0625,-134.125,-0.3203125,-0.2705078,0.2329102,0.01513672,0.2739258,-0.1196289
562,-17.75,-31.8125,-151.6875,-0.2001953,-0.2783203,0.2060547,0,0.2763672,-0.1181641
566,-13.1875,-32.3125,-169.625,-0.09521484,-0.2939453,0.1787109,-0.01757813,0.2763672,-0.1166992
570,-9.1875,-35.125,-181.125,-0.02587891,-0.2744141,0.1328125,-0.02832031,0.2749023,-0.1142578
574,-2.1875,-37.9375,-190.75,0.08251953,-0.2705078,0.1210938,-0.04492188,0.2749023,-0.1113281
578,8.125,-37.3125,-202.75,0.1674805,-0.2666016,0.08642578,-0.06640625,0.2709961,-0.112793
582,17.4375,-47.1875,-212.8125,0.2490234,-0.1928711,0.1020508,-0.08056641,0.2675781,-0.1113281
586,14.0625,-66.875,-215.5,0.4077148,-0.1113281,0.1328125,-0.1020508,0.2612305,-0.1098633
590,6.125,-83.5625,-205.6875,0.6557617,-0.1308594,0.1328125,-0.1220703,0.2539063,-0.1088867
594,10.75,-80.25,-208.75,0.8769531,-0.1928711,0.1479492,-0.1367188,0.2475586,-0.1074219
599,20.75,-62.3125,-218.4375,1.008301,-0.2124023,0.144043,-0.1567383,0.2397461,-0.1035156
603,28.375,-61.125,-220.625,0.9931641,-0.1967773,0.1098633,-0.1772461,0.2275391,-0.1035156
607,28.375,-67.375,-206.4375,1.089844,-0.1694336,0.1020508,-0.1899414,0.2197266,-0.1005859
611,32,-71.375,-195.3125,1.035645,-0.1733398,0.08251953,-0.206543,0.2060547,-0.09912109
615,38.4375,-71.8125,-197.625,1.043457,-0.09570313,0.06738281,-0.2236328,0.1923828,-0.09667969
619,47.6875,-58.375,-208.625,1.101563,-0.03369141,0.08642578,-0.2329102,0.1835938,-0.09521484
623,64.9375,-40.1875,-226.75,1.027832,0.0009765625,0.09033203,-0.2485352,0.1635742,-0.09228516
627,69.5,-52.125,-241.4375,0.8417969,0.2573242,0.1020508,-0.2626953,0.1435547,-0.09228516
631,54,-85.375,-239.75,1.066406,0.3818359,0.2094727,-0.2724609,0.1298828,-0.09082031
635,29.8125,-84.25,-240.5625,1.430664,0.4633789,0.2597656,-0.2866211,0.1098633,-0.08691406
639,15,-66.5625,-264.75,1.810547,0.5566406,0.3671875,-0.2973633,0.08398438,-0.08007813
643,-0.875,-38.5,-263.0625,1.787598,0.3974609,0.2441406,-0.3032227,0.06738281,-0.07861328
647,-0.3125,-36.9375,-247.9375,1.461914,0.253418,0.125,-0.3115234,0.04003906,-0.07177734
651,-10.875,-68.9375,-242.375,1.326172,0.4985352,0.02880859,-0.3188477,0.01757813,-0.06787109
655,-35.3125,-107.375,-231.375,1.582031,0.4360352,0.01708984,-0.3198242,0.002441406,-0.0625
659,-36.25,-117.0625,-217.1875,2.120605,0.1176758,0.159668,-0.3232422,-0.02050781,-0.04638672
663,-10.75,-79.4375,-188.9375,2.643555,-0.1694336,0.3481445,-0.3256836,-0.04052734,-0.04052734
667,16.375,-22.25,-143.3125,2.65918,-0.1811523,0.4599609,-0.324707,-0.0546875,-0.03662109
671,28.875,18.625,-104.5625,2.322266,-0.2470703,0.4521484,-0.3256836,-0.06689453,-0.03369141
675,32.5625,25.1875,-68.25,2.089844,-0.3056641,0.4790039,-0.3232422,-0.07568359,-0.03808594
679,24.875,20.125,-17.125,2.035156,-0.2705078,0.5097656,-0.324707,-0.08056641,-0.03808594
683,13.5625,14,29.625,1.876465,-0.2084961,0.4868164,-0.324707,-0.08056641,-0.04052734
687,0.5625,11.4375,60.75,1.768066,-0.09960938,0.4365234,-0.324707,-0.07421875,-0.04052734
691,-11.3125,12.375,80.5625,1.647949,-0.06054688,0.355957,-0.3256836,-0.07080078,-0.04199219
695,-19.625,10.1875,94.0625,1.612793,-0.01806641,0.3095703,-0.3271484,-0.06445313,-0.04492188
699,-28.25,7.625,113.0625,1.663574,-0.01416016,0.2749023,-0.3256836,-0.0546875,-0.04492188
703,-31.3125,10.5625,137.375,1.771973,-0.04150391,0.2329102,-0.3271484,-0.04443359,-0.04345703
707,-26.625,19.4375,157,1.810547,-0.04541016,0.1865234,-0.324707,-0.02832031,-0.04638672
711,-22.875,27.1875,174.75,1.837891,0.05908203,0.1748047,-0.3232422,-0.01318359,-0.05029297
715,-21.75,31.125,194.875,1.783691,0.09423828,0.1518555,-0.3232422,0,-0.05029297
719,-16.6875,32.25,212.3125,1.702148,0.140625,0.1518555,-0.3173828,0.01855469,-0.05273438
723,-18.8125,30.625,222.75,1.647949,0.2495117,0.159668,-0.3164063,0.04150391,-0.05419922
728,-23,33.5,226.125,1.582031,0.2338867,0.1674805,-0.3105469,0.05761719,-0.05859375
732,-24.3125,36.5625,223.875,1.5625,0.237793,0.1713867,-0.3032227,0.07861328,-0.05957031
736,-29.125,37.5,222.9375,1.531738,0.237793,0.1479492,-0.293457,0.1000977,-0.06396484
740,-30,29.25,235,1.512207,0.07470703,0.1098633,-0.2875977,0.1152344,-0.06396484
744,-23.3125,31.1875,250.625,1.52002,0.1137695,0.1132813,-0.2744141,0.1347656,-0.06396484
748,-21.1875,36.75,249,1.430664,0.1796875,0.1210938,-0.2602539,0.1586914,-0.06640625
752,-21.6875,34,247.75,1.306641,0.1098633,0.1132813,-0.2485352,0.1699219,-0.06640625
756,-16.125,33.0625,248.9375,1.260254,0.05517578,0.125,-0.2329102,0.1923828,-0.06933594
760,-6.375,48.375,241.625,1.275879,0.04394531,0.1367188,-0.215332,0.2084961,-0.07324219
764,-1.3125,59.875,231.1875,1.070313,0.09033203,0.1210938,-0.2021484,0.2172852,-0.07324219
768,-0.5,55.9375,230.8125,0.9311523,0.03613281,0.1098633,-0.1816406,0.2314453,-0.07617188
772,8.5625,64.75,224.8125,0.9736328,-0.05664063,0.1098633,-0.1601563,0.2426758,-0.08300781
776,13.8125,81,223.375,0.8149414,0.07080078,0.1289063,-0.1459961,0.25,-0.08544922
780,8.625,78.4375,221.3125,0.4775391,0.07861328,0.1020508,-0.1259766,0.2587891,-0.09228516
784,0,58.6875,210.0625,0.3339844,0.08642578,0.1098633,-0.1044922,0.2661133,-0.09375
788,-6.625,43.1875,194.625,0.2255859,-0.006347656,0.125,-0.08886719,0.2685547,-0.09667969
792,-5.9375,35.25,176.25,0.3457031,-0.1538086,0.1518555,-0.06982422,0.2763672,-0.09765625
796,1.75,42.875,161.75,0.3149414,-0.2470703,0.1787109,-0.05419922,0.2773438,-0.09667969
800,3.6875,58.625,147.375,0.206543,-0.1772461,0.1518555,-0.04248047,0.2773438,-0.09912109
804,0,51.4375,136,-0.03320313,-0.2666016,0.144043,-0.02832031,0.2797852,-0.1005859
808,-3.8125,34.25,131.5,-0.1611328,-0.3286133,0.1479492,-0.01416016,0.2797852,-0.09912109
812,-9.1875,19.3125,122.625,-0.1459961,-0.355957,0.1674805,-0.003417969,0.28125,-0.09912109
816,-15.875,10.5625,107.75,-0.1611328,-0.3793945,0.2172852,0.008300781,0.2797852,-0.09912109
820,-14.4375,17.8125,96.1875,-0.1962891,-0.5620117,0.1904297,0.01757813,0.28125,-0.09667969
824,0.375,31,79.4375,-0.296875,-0.5581055,0.1635742,0.02490234,0.28125,-0.09912109
828,14.125,35.5625,67.4375,-0.5488281,-0.5541992,0.144043,0.03417969,0.2773438,-0.09765625
832,17.8125,28.75,51.6875,-0.6689453,-0.3793945,0.1904297,0.04150391,0.2773438,-0.09765625
836,11.5625,17.8125,30.1875,-0.7851563,-0.2783203,0.2709961,0.04248047,0.2773438,-0.09765625
840,-1.6875,5.375,1.3125,-0.8198242,-0.2431641,0.3017578,0.04736328,0.2763672,-0.1020508
844,-13.125,-8.5625,-31.1875,-0.7426758,-0.2783203,0.3017578,0.04394531,0.2749023,-0.09912109
848,-20.875,-19.6875,-58.5625,-0.5795898,-0.371582,0.2827148,0.04150391,0.2749023,-0.09912109
852,-27.625,-28.6875,-76.375,-0.3666992,-0.4492188,0.2597656,0.03662109,0.2773438,-0.09912109
857,-29.0625,-35.1875,-88.5625,-0.1689453,-0.5776367,0.2329102,0.02734375,0.28125,-0.09521484
861,-25.1875,-30.3125,-92.9375,0.008789063,-0.6240234,0.2133789,0.02001953,0.28125,-0.09082031
865,-12.5625,-12.6875,-98.9375,0.01269531,-0.6318359,0.1635742,0.009277344,0.28125,-0.08984375
869,3.8125,4.875,-116,-0.05273438,-0.5424805,0.1210938,0,0.2822266,-0.08984375
873,15.5,13.375,-133.6875,-0.1650391,-0.4179688,0.105957,-0.006835938,0.2836914,-0.08984375
877,19.875,5.5625,-152.625,-0.2426758,-0.2548828,0.09033203,-0.02246094,0.2836914,-0.09082031
881,14.5,-13.1875,-172.4375,-0.2231445,-0.1152344,0.09814453,-0.03759766,0.2822266,-0.08984375
885,6.4375,-34.3125,-186.0625,-0.1069336,-0.09960938,0.07910156,-0.04833984,0.2797852,-0.09228516
889,4.0625,-49.25,-199.125,0.03564453,-0.1269531,0.04785156,-0.06884766,0.2763672,-0.09521484
893,10.3125,-54.875,-214.5625,0.2255859,-0.1269531,0.04443359,-0.08886719,0.2724609,-0.09228516
897,21.375,-46.6875,-230.125,0.4892578,-0.1381836,0.05175781,-0.1044922,0.2661133,-0.08984375
901,30.9375,-40.1875,-244.0625,0.5898438,-0.09570313,0.05175781,-0.1269531,0.2597656,-0.08984375
905,33.625,-51,-240.875,0.6635742,-0.09960938,0.04785156,-0.1484375,0.2475586,-0.08984375
909,28.6875,-70.1875,-234.3125,0.7836914,0.004882813,0.06738281,-0.1640625,0.2387695,-0.09228516
913,22.4375,-82,-231.75,0.9814453,-0.02587891,0.1132813,-0.1855469,0.2260742,-0.08691406
917,24.5,-70.75,-239.5625,1.275879,-0.06445313,0.159668,-0.2045898,0.2124023,-0.08447266
921,42.1875,-36.5625,-242.375,1.310547,-0.1420898,0.1518555,-0.2172852,0.2011719,-0.08154297
925,40.1875,-52.8125,-241.375,0.8730469,0.1367188,0.09423828,-0.2363281,0.1826172,-0.08154297
929,15.0625,-111.6875,-219.0625,0.9462891,0.253418,0.08251953,-0.2509766,0.1635742,-0.07861328
933,-12.4375,-156.9375,-201.875,1.275879,0.2416992,0.08642578,-0.2617188,0.1523438,-0.07470703
937,-24.375,-155.25,-191.5,1.845703,0.05908203,0.1132813,-0.2758789,0.1362305,-0.05712891
941,-1.625,-92.0625,-194.625,2.124512,-0.2202148,0.1557617,-0.2866211,0.1201172,-0.04345703
945,41.5625,-7.375,-204.6875,1.96582,-0.2666016,0.1518555,-0.293457,0.1074219,-0.03808594
949,67.375,40.875,-215.8125,1.442383,0.1333008,0.105957,-0.3007813,0.08886719,-0.04345703
953,45.5,7.375,-220.5,0.9350586,0.4125977,0.04052734,-0.309082,0.06738281,-0.04736328
957,18.1875,-57.5625,-201.5,1.159668,0.3041992,0.05957031,-0.3125,0.05273438,-0.04736328
961,17.6875,-63.75,-191.75,1.670898,0.121582,0.1518555,-0.3198242,0.03369141,-0.04345703
965,39.5625,-27.875,-181.8125,1.856934,0.07861328,0.2675781,-0.3198242,0.01269531,-0.03808594
969,52.625,-0.25,-169.375,1.674805,0.253418,0.3251953,-0.3232422,0.001464844,-0.03662109
973,48.8125,3.875,-160.9375,1.500488,0.4438477,0.3173828,-0.324707,-0.01708984,-0.03955078
977,18.375,-18,-156.3125,1.458008,0.5913086,0.3134766,-0.3271484,-0.03173828,-0.03955078
981,-21.1875,-48.25,-140.9375,1.702148,0.3427734,0.3520508,-0.3256836,-0.04443359,-0.03808594
986,-38.625,-61,-98,2.035156,0.01269531,0.3867188,-0.324707,-0.05810547,-0.03271484
990,-32.3125,-38.0625,-49.75,2.236816,-0.2241211,0.3710938,-0.324707,-0.06445313,-0.02587891
994,-13.6875,-2.0625,-20.6875,2.0625,-0.3208008,0.3017578,-0.3271484,-0.06689453,-0.02294922
998,0.8125,17.875,-3.4375,1.826172,-0.2548828,0.2636719,-0.324707,-0.06835938,-0.02587891
1002,-6.25,10.5,24.625,1.612793,-0.1230469,0.2133789,-0.3256836,-0.06689453,-0.02734375
1006,-19.9375,-7.0625,54.5,1.5625,-0.07617188,0.2060547,-0.3271484,-0.06591797,-0.02441406
1010,-30.1875,-13.3125,76.9375,1.589844,-0.03369141,0.2133789,-0.3256836,-0.05810547,-0.02441406
1014,-38,-5.9375,90.5,1.605469,-0.01416016,0.1943359,-0.3271484,-0.04931641,-0.02441406
1018,-39.9375,3.5625,97.75,1.59375,-0.05664063,0.1289063,-0.3271484,-0.04589844,-0.02441406
1022,-34.0625,10.9375,110.375,1.647949,-0.1347656,0.07910156,-0.328125,-0.03173828,-0.02441406
1026,-22.8125,24.5625,127.3125,1.725586,-0.1381836,0.06347656,-0.328125,-0.02197266,-0.02734375
1030,-15.75,32.8125,144.5,1.702148,-0.02978516,0.05566406,-0.3256836,-0.01318359,-0.02832031
1034,-17.3125,30.4375,165.0625,1.678711,0.03613281,0.05566406,-0.324707,0.00390625,-0.02978516
1038,-14.9375,34.375,178.875,1.702148,0.06298828,0.07128906,-0.3208008,0.02001953,-0.03271484
1042,-8.1875,43.9375,185.375,1.655762,0.05908203,0.06738281,-0.3173828,0.03369141,-0.03662109
1046,1.875,53.0625,190.0625,1.620605,0.05517578,0.05957031,-0.3139648,0.04980469,-0.04199219
1050,7.625,61.5,196.375,1.492676,0.140625,0.09423828,-0.3066406,0.06982422,-0.04882813
1054,1.3125,58.5,203.375,1.322266,0.237793,0.1020508,-0.3017578,0.08251953,-0.05029297
1058,-8.1875,48.875,202.5,1.209961,0.2148438,0.1020508,-0.293457,0.1010742,-0.05566406
1062,-15.8125,37.8125,203.5,1.217773,0.1757813,0.125,-0.2841797,0.1186523,-0.05957031
1066,-17.6875,36.0625,200.4375,1.279785,0.09033203,0.140625,-0.2783203,0.1323242,-0.06103516
1070,-8.25,42.0625,203.5625,1.241211,-0.05273438,0.105957,-0.2675781,0.1499023,-0.06396484
1074,5.4375,51.875,203.625,1.202148,-0.02978516,0.1210938,-0.2543945,0.1674805,-0.06787109
1078,12.9375,62.4375,197.25,1.09375,0.03613281,0.1367188,-0.2426758,0.1762695,-0.07177734
1082,8.875,61.625,186.375,0.8769531,0.1523438,0.1328125,-0.2294922,0.1914063,-0.07763672
1086,-6.875,44.875,181,0.8183594,0.1333008,0.144043,-0.2163086,0.2050781,-0.08154297
1090,-17.625,32.75,174.875,0.8032227,0.0009765625,0.1328125,-0.206543,0.2114258,-0.08447266
1094,-12.75,26.9375,175.5,0.8300781,-0.1694336,0.1210938,-0.1914063,0.2226563,-0.08447266
1098,-3.9375,22.375,171.5,0.8300781,-0.2353516,0.105957,-0.1782227,0.2348633,-0.08447266
1102,7.8125,31.0625,167.0625,0.9155273,-0.2705078,0.140625,-0.1674805,0.2387695,-0.08691406
1106,22.25,56.25,154.5625,0.8339844,-0.3173828,0.1328125,-0.1533203,0.2460938,-0.08837891
1110,37.375,81.1875,136.625,0.6791992,-0.2822266,0.125,-0.1391602,0.2524414,-0.09667969
1115,46.125,94.5,123.5,0.4658203,-0.2705078,0.09033203,-0.128418,0.2548828,-0.1005859
1119,49.0625,95.6875,122.75,0.2797852,-0.1967773,0.09423828,-0.1152344,0.2573242,-0.1088867
1123,50.1875,85.6875,117.875,0.02050781,-0.2744141,0.05566406,-0.1020508,0.2597656,-0.1157227
1127,52.125,63.4375,105.6875,-0.1767578,-0.2626953,0.05566406,-0.09228516,0.262207,-0.1235352
1131,49,44.9375,86.6875,-0.296875,-0.1889648,0.1210938,-0.08056641,0.2597656,-0.1289063
1135,30.125,25.125,71.0625,-0.3242188,-0.06054688,0.1787109,-0.07226563,0.2612305,-0.1347656
1139,10.4375,7.1875,61.5,-0.3666992,-0.1499023,0.2480469,-0.06738281,0.262207,-0.1357422
1143,3.8125,-2.125,45.8125,-0.347168,-0.2626953,0.2709961,-0.06298828,0.2651367,-0.137207
1147,4.3125,-4.5,25.5625,-0.3320313,-0.3017578,0.2983398,-0.05810547,0.2636719,-0.1386719
1151,1.25,-8.8125,11,-0.347168,-0.3325195,0.3330078,-0.05908203,0.2636719,-0.1347656
1155,1.25,-15.5625,-5.1875,-0.3393555,-0.3481445,0.340332,-0.05664063,0.2651367,-0.137207
1159,-1.625,-18.375,-27.75,-0.2734375,-0.3134766,0.3481445,-0.05908203,0.2651367,-0.1357422
1163,-7.125,-21.375,-52.5,-0.246582,-0.340332,0.3481445,-0.06152344,0.262207,-0.1357422
1167,-10.75,-34.125,-72.875,-0.2080078,-0.3637695,0.3442383,-0.06884766,0.262207,-0.1347656
1171,-18.375,-51.875,-83.875,-0.04101563,-0.3793945,0.3637695,-0.07568359,0.2636719,-0.1333008
1175,-22.8125,-57.8125,-85.5,0.1132813,-0.4375,0.3520508,-0.08398438,0.2587891,-0.1303711
1179,-16.75,-50,-94.6875,0.2333984,-0.4765625,0.3442383,-0.09619141,0.2587891,-0.1279297
1183,-7.75,-32.0625,-108.25,0.2875977,-0.4609375,0.3134766,-0.1054688,0.2563477,-0.1225586
1187,3.9375,-14,-122.25,0.2607422,-0.4067383,0.2788086,-0.112793,0.2548828,-0.1235352
1191,9.125,-7.4375,-132.6875,0.2255859,-0.3134766,0.2709961,-0.1235352,0.2509766,-0.1235352
1195,8,-13.75,-138.5,0.1791992,-0.2861328,0.2329102,-0.1367188,0.2451172,-0.1210938
1199,10.125,-31.375,-140.9375,0.2104492,-0.3017578,0.2021484,-0.1435547,0.2412109,-0.1210938
1203,15.6875,-46.5,-145.5625,0.2954102,-0.2705078,0.1943359,-0.1567383,0.2338867,-0.1225586
1207,16.8125,-58.5,-156.9375,0.4389648,-0.1420898,0.2060547,-0.1723633,0.2250977,-0.1210938
1211,5.625,-74.375,-172.5625,0.5859375,0.03613281,0.2480469,-0.1816406,0.2197266,-0.1166992
1215,-19.875,-97.375,-174.0625,0.7836914,0.02832031,0.2519531,-0.1962891,0.2099609,-0.1142578
1219,-38.8125,-118,-159.8125,1.016113,-0.1772461,0.2021484,-0.2114258,0.2026367,-0.1035156
1223,-31.5625,-110.3125,-145,1.26416,-0.4101563,0.159668,-0.2197266,0.1914063,-0.09375
1227,-2.8125,-72.5625,-134.3125,1.357422,-0.5073242,0.1518555,-0.234375,0.1835938,-0.08691406
1231,29.875,-27.8125,-135.5625,1.16748,-0.3442383,0.1132813,-0.2426758,0.1738281,-0.08300781
1235,38,-19.375,-148.25,0.8457031,-0.04150391,0.08251953,-0.2485352,0.1660156,-0.08300781
1239,16,-51.0625,-160.1875,0.6674805,0.2416992,0.06738281,-0.2578125,0.1538086,-0.08300781
1244,-6.5625,-90.375,-163.875,0.8769531,0.1333008,0.05566406,-0.2685547,0.1401367,-0.07617188
1248,-3.875,-89.75,-160.8125,1.248535,-0.06445313,0.07519531,-0.2758789,0.1298828,-0.07177734
1252,25.9375,-50.0625,-163.1875,1.430664,-0.2006836,0.09033203,-0.2851563,0.1176758,-0.06396484
1256,63.3125,-5.5,-175.1875,1.302734,-0.02587891,0.06738281,-0.2924805,0.1000977,-0.06396484
1260,61.8125,0.6875,-199.625,0.9736328,0.5214844,0.05175781,-0.2983398,0.08886719,-0.06542969
1264,11.5,-56.5625,-215.1875,0.9970703,0.777832,0.03271484,-0.3081055,0.06884766,-0.06640625
1268,-30.375,-106.125,-201.5,1.5625,0.3935547,0.07128906,-0.3139648,0.04882813,-0.05859375
1272,-26,-92.1875,-185.9375,2.19043,-0.02197266,0.09814453,-0.3164063,0.03515625,-0.05029297
1276,17.625,-27.9375,-167.375,2.353027,-0.2431641,0.1132813,-0.3208008,0.01855469,-0.04199219
1280,66.375,51.8125,-150.5,2.283203,-0.2392578,0.1328125,-0.3232422,0.001464844,-0.04345703
1284,102.4375,104.125,-144.875,1.802734,-0.06835938,0.1132813,-0.324707,-0.008300781,-0.04882813
1288,93.25,85.0625,-120.4375,1.241211,0.15625,0.159668,-0.324707,-0.02441406,-0.06103516
1292,62.75,21,-75.375,1.097656,0.1953125,0.2788086,-0.3232422,-0.03710938,-0.06640625
1296,36.875,-24.0625,-42.0625,1.372559,0.15625,0.4443359,-0.324707,-0.04052734,-0.06787109
1300,23.9375,-24.375,-24.8125,1.651855,0.05908203,0.590332,-0.3232422,-0.04443359,-0.06396484
1304,14.8125,-0.5,-12.5,1.725586,0.09423828,0.6484375,-0.3232422,-0.04931641,-0.0625
1308,-1.4375,17.4375,1.375,1.5625,0.07080078,0.605957,-0.324707,-0.046875,-0.06396484
1312,-13.6875,13.875,21.875,1.426758,0.004882813,0.5366211,-0.3232422,-0.04931641,-0.06542969
1316,-28.3125,3.3125,39.25,1.407715,0.05517578,0.4672852,-0.3232422,-0.04443359,-0.06542969
1320,-51.0625,-16.875,58.125,1.496582,0.08251953,0.4482422,-0.3232422,-0.03955078,-0.06396484
1324,-72.125,-34.625,86.9375,1.670898,0.02441406,0.4174805,-0.3232422,-0.03320313,-0.06396484
1328,-80.0625,-35.4375,114.75,1.856934,-0.07226563,0.3789063,-0.3256836,-0.0234375,-0.05859375
1332,-77.0625,-17.125,136.4375,1.915039,-0.08007813,0.3173828,-0.324707,-0.01318359,-0.05712891
1336,-75.1875,-2.625,151,1.864746,-0.04882813,0.2290039,-0.324707,0.001464844,-0.05419922
1340,-76.6875,0.375,172.3125,1.779785,-0.09570313,0.1479492,-0.3198242,0.01757813,-0.05273438
1344,-67.6875,0,195.6875,1.783691,-0.2314453,0.09814453,-0.3173828,0.03271484,-0.05273438
1348,-49.0625,11.4375,215.9375,1.856934,-0.1928711,0.09033203,-0.3125,0.04980469,-0.05029297
1352,-34.875,34.375,221.75,1.899902,-0.07617188,0.1289063,-0.3066406,0.07519531,-0.04638672
1356,-23.8125,61.25,225.5625,1.806641,-0.07617188,0.125,-0.2998047,0.08740234,-0.05175781
1360,-12.9375,80.625,234.625,1.605469,-0.02978516,0.1098633,-0.2890625,0.1088867,-0.05859375
1364,-12.9375,70.6875,243.8125,1.306641,0.09033203,0.07519531,-0.2768555,0.1313477,-0.06542969
1368,-15.875,56.9375,254.9375,1.271973,0.03613281,0.07519531,-0.2685547,0.1459961,-0.06933594
1373,-10.5625,52.625,251,1.225586,-0.002441406,0.07910156,-0.253418,0.1650391,-0.07324219
1377,0,62.3125,245.3125,1.202148,-0.01025391,0.07519531,-0.2329102,0.1850586,-0.07861328
1381,7.1875,71.9375,235.5,1.155762,0.02050781,0.07519531,-0.2246094,0.1972656,-0.08007813
1385,8.4375,72.5,224.9375,1.023926,0.09814453,0.1098633,-0.203125,0.2124023,-0.08544922
1389,-0.5,66.4375,227.6875,0.9775391,0.02832031,0.1020508,-0.1855469,0.2250977,-0.09082031
1393,1.3125,56.875,237.4375,0.8417969,-0.1308594,0.05957031,-0.1733398,0.2348633,-0.09228516
1397,11.625,53.25,240.4375,0.7602539,-0.1347656,0.04785156,-0.1518555,0.2451172,-0.09667969
1401,17.5625,55.4375,224.1875,0.7719727,-0.04541016,0.07910156,-0.128418,0.2539063,-0.1020508
1405,24.5625,75.3125,204.375,0.7490234,-0.1191406,0.09423828,-0.112793,0.2587891,-0.105957
1409,34.875,88.3125,190.25,0.5976563,-0.1152344,0.1020508,-0.09228516,0.2661133,-0.1098633
1413,28.5625,84.0625,191,0.4233398,-0.01806641,0.1367188,-0.07226563,0.2685547,-0.1157227
1417,17.0625,73.8125,191.6875,0.206543,-0.02978516,0.1328125,-0.05810547,0.2700195,-0.1181641
1421,12.5625,61.0625,185,0.03173828,-0.1191406,0.125,-0.04003906,0.2724609,-0.1210938
1425,20.1875,58.1875,163.0625,-0.1225586,-0.1772461,0.125,-0.02001953,0.2739258,-0.125
1429,25.375,63,125.875,-0.1962891,-0.08007813,0.1826172,-0.01025391,0.2724609,-0.1289063
1433,25.75,66.0625,102.8125,-0.3706055,-0.1230469,0.1787109,0.002441406,0.2700195,-0.1303711
1437,20.3125,51.5625,91.625,-0.6225586,-0.1381836,0.2133789,0.01513672,0.2685547,-0.1333008
1441,9.8125,28.5,80.0625,-0.7851563,-0.1113281,0.2519531,0.02246094,0.2700195,-0.1347656
1445,3.625,11.6875,52.75,-0.831543,-0.1772461,0.2983398,0.02978516,0.2675781,-0.1347656
1449,2.0625,3.875,16.625,-0.7543945,-0.1420898,0.3481445,0.03417969,0.2651367,-0.1357422
1453,-3.4375,3.375,-16,-0.7075195,-0.1616211,0.375,0.03320313,0.2675781,-0.1333008
1457,-10.5,-1.375,-44.8125,-0.6923828,-0.2045898,0.355957,0.03320313,0.2661133,-0.1347656
1461,-19,-10.6875,-69.5,-0.5952148,-0.2509766,0.3364258,0.02832031,0.2685547,-0.1333008
1465,-25,-21.875,-91.0625,-0.4521484,-0.324707,0.3095703,0.02148438,0.2685547,-0.1303711
1469,-27.875,-25.625,-104.375,-0.2583008,-0.4296875,0.2827148,0.01416016,0.2709961,-0.1279297
1473,-20.0625,-18.375,-116.9375,-0.1381836,-0.4882813,0.2133789,0.0009765625,0.2739258,-0.1264648
1477,-4.5,-5.0625,-137.25,-0.1303711,-0.4414063,0.1943359,-0.006835938,0.2724609,-0.1235352
1481,5.375,-2,-156.625,-0.1225586,-0.3520508,0.1826172,-0.01855469,0.2739258,-0.125
1485,5.6875,-15.375,-168.5,-0.1611328,-0.2470703,0.1635742,-0.03662109,0.2709961,-0.1235352
1489,-1.8125,-41.875,-173.1875,-0.08398438,-0.2124023,0.1713867,-0.04833984,0.2709961,-0.125
1493,-5.1875,-67,-175.25,0.06298828,-0.2587891,0.1289063,-0.06396484,0.2675781,-0.1225586
1497,-4.625,-86.125,-175.5625,0.3417969,-0.2666016,0.1557617,-0.08544922,0.2661133,-0.1196289
1502,-1.125,-91,-179.8125,0.6635742,-0.2939453,0.2060547,-0.09716797,0.262207,-0.1181641
1506,-3.8125,-71,-186.9375,1.02002,-0.2006836,0.2749023,-0.1176758,0.2573242,-0.1142578
1510,-6.0625,-49.9375,-191.5,0.8652344,-0.3056641,0.2290039,-0.1352539,0.25,-0.1098633
1514,-4.8125,-57.5,-186.1875,0.6791992,-0.3056641,0.1367188,-0.1484375,0.2436523,-0.1074219
1518,-8.5625,-84.9375,-179.375,0.7568359,-0.2783203,0.125,-0.1640625,0.2363281,-0.1044922
1522,-4.25,-92.3125,-163,0.9311523,-0.3754883,0.08251953,-0.1806641,0.2260742,-0.09667969
1526,10.9375,-80.5,-170.9375,1.085938,-0.2045898,0.1328125,-0.1923828,0.2197266,-0.09375
1530,18.9375,-42.125,-195.5625,1.175293,-0.08007813,0.1943359,-0.2080078,0.2099609,-0.09082031
1534,17.375,-37.1875,-215.0625,0.8183594,-0.01806641,0.159668,-0.2236328,0.1938477,-0.08837891
1538,-2.8125,-80.625,-211,0.8769531,0.140625,0.1289063,-0.2329102,0.1850586,-0.08544922
1542,-17.9375,-103.0625,-193.6875,1.179199,0.0009765625,0.140625,-0.2495117,0.1689453,-0.07861328
1546,-7.875,-92.1875,-186.125,1.403809,-0.1420898,0.1518555,-0.2617188,0.15625,-0.07080078
1550,16.1875,-56.125,-191.9375,1.52002,-0.04541016,0.1787109,-0.2685547,0.1435547,-0.06542969
1554,24,-25.125,-217,1.233398,0.2338867,0.1289063,-0.2807617,0.125,-0.06396484
1558,3.125,-47.0625,-223.9375,0.9970703,0.4165039,0.07128906,-0.2900391,0.1035156,-0.05859375
1562,-24.25,-89.4375,-214.5,1.198242,0.4243164,0.07128906,-0.2983398,0.08984375,-0.05419922
1566,-35.0625,-96.4375,-205.75,1.605469,0.2573242,0.09814453,-0.3056641,0.07275391,-0.04736328
1570,-22.6875,-72,-198.25,1.783691,0.1098633,0.1132813,-0.3125,0.05371094,-0.03662109
1574,-5.5625,-45.9375,-196.75,1.698242,0.1796875,0.08642578,-0.3173828,0.04003906,-0.03271484
1578,-20.6875,-53.8125,-193.0625,1.663574,0.3583984,0.08251953,-0.3208008,0.02148438,-0.02832031
1582,-49.4375,-67.1875,-173.9375,1.89209,0.105957,0.09033203,-0.3232422,0.001464844,-0.02294922
1586,-54.9375,-61.25,-138.5,2.225098,-0.2939453,0.1171875,-0.3271484,-0.008300781,-0.01611328
1590,-33.0625,-28.5625,-94.9375,2.294922,-0.581543,0.1367188,-0.3271484,-0.02197266,-0.01220703
1594,-2.5625,3.125,-65.1875,2.02002,-0.5737305,0.1132813,-0.3256836,-0.03076172,-0.009277344
1598,17.0625,13.25,-40.8125,1.783691,-0.4570313,0.1865234,-0.3271484,-0.03173828,-0.008300781
1602,23.5625,19.625,-20.4375,1.736816,-0.2822266,0.2709961,-0.3271484,-0.03710938,-0.01074219
1606,14.5625,22.9375,-2.5,1.632324,-0.1499023,0.3095703,-0.3256836,-0.03808594,-0.01367188
1610,-4.0625,10.75,23.5625,1.527832,-0.09960938,0.2636719,-0.328125,-0.03808594,-0.01367188
1614,-18.9375,-1.1875,48.5625,1.504395,-0.1230469,0.1826172,-0.3271484,-0.03710938,-0.01464844
1618,-23,-2.625,69.875,1.531738,-0.1733398,0.09814453,-0.3271484,-0.02929688,-0.01464844
1622,-15,3.25,83.375,1.554688,-0.2084961,0.05175781,-0.3271484,-0.02441406,-0.01464844
1626,-5.8125,15.8125,95.125,1.601563,-0.1772461,0.05566406,-0.3256836,-0.015625,-0.01464844
1631,1.6875,25.8125,105.3125,1.616699,-0.1113281,0.06738281,-0.3271484,-0.005859375,-0.01611328
1635,-1.5625,30.5,121.0625,1.644043,-0.01416016,0.09033203,-0.324707,-0.0004882813,-0.01611328
1639,-5.625,29.9375,139.875,1.63623,-0.06835938,0.06347656,-0.3232422,0.01367188,-0.02148438
1643,-6,25.9375,161.6875,1.655762,-0.04541016,0.03271484,-0.3198242,0.02734375,-0.02441406
1647,-2.5,26.1875,177.75,1.717773,-0.09960938,0.02880859,-0.3173828,0.04003906,-0.02587891
1651,9.5625,39.8125,185.9375,1.837891,-0.08789063,0.05566406,-0.3125,0.05761719,-0.03125
1655,15.3125,54.75,193.875,1.826172,-0.02197266,0.07519531,-0.3066406,0.07617188,-0.03369141
1659,14.875,61.4375,205.5625,1.678711,0.01660156,0.04785156,-0.2998047,0.08984375,-0.03955078
1663,10.25,51.8125,224.6875,1.558594,0.02832031,0.06347656,-0.293457,0.1074219,-0.04492188
1667,8.125,44.125,234.625,1.512207,-0.04882813,0.06738281,-0.2817383,0.1298828,-0.04882813
1671,13.625,48.625,238,1.481445,-0.04882813,0.08642578,-0.2724609,0.1435547,-0.05273438
1675,18.375,63.875,229.9375,1.504395,-0.02197266,0.1171875,-0.2592773,0.1611328,-0.05712891
1679,15.6875,78.375,216.5625,1.330078,0.04736328,0.1098633,-0.2436523,0.1811523,-0.06542969
1683,9.8125,72.875,222.6875,1.194336,-0.04150391,0.08251953,-0.2319336,0.1899414,-0.07080078
1687,4.25,53.5625,238.1875,1.151855,-0.09570313,0.1132813,-0.215332,0.2060547,-0.07617188
1691,5.75,56.4375,238.125,1.182617,-0.1113281,0.1328125,-0.1948242,0.2211914,-0.07763672
1695,13.9375,81.3125,223.125,1.260254,-0.07226563,0.1826172,-0.1831055,0.2275391,-0.08154297
1699,19.4375,117,201.625,1.097656,-0.06835938,0.1557617,-0.1625977,0.2412109,-0.08984375
1703,10.8125,119.8125,194,0.7797852,0.06298828,0.144043,-0.1425781,0.2485352,-0.09912109
1707,-6.3125,90.1875,203.1875,0.609375,-0.04150391,0.1328125,-0.1293945,0.2563477,-0.1005859
1711,-20.4375,55.375,213.5625,0.6054688,-0.09960938,0.1826172,-0.109375,0.2612305,-0.1005859
1715,-24.4375,48.8125,222.6875,0.6674805,-0.2431641,0.1943359,-0.08642578,0.2709961,-0.1044922
1719,-5.875,64.375,220.375,0.3808594,-0.2587891,0.1210938,-0.06884766,0.2739258,-0.1035156
1723,8.5,74.6875,208.375,0.03564453,-0.03369141,0.105957,-0.04736328,0.2763672,-0.105957
1727,14.875,83,179.9375,-0.2583008,0.07080078,0.09423828,-0.02832031,0.2773438,-0.1088867
1731,14.25,78.3125,149.25,-0.6728516,0.1835938,0.08642578,-0.01513672,0.2797852,-0.1074219
1735,3.125,49.875,123,-0.9672852,0.2416992,0.1367188,0.0009765625,0.2763672,-0.1098633
1739,-12.125,17.5,95.875,-1.029297,0.2070313,0.1787109,0.01269531,0.2763672,-0.1088867
1743,-17.1875,0.625,61.1875,-0.9365234,0.05908203,0.2021484,0.01904297,0.2773438,-0.1113281
1747,-9.8125,0.125,22.125,-0.8085938,-0.07226563,0.2211914,0.0234375,0.2763672,-0.1098633
1751,-3.9375,4.375,-9.625,-0.746582,-0.1191406,0.2211914,0.02490234,0.2763672,-0.1074219
1755,-4.5,-0.125,-41.25,-0.7426758,-0.1035156,0.2329102,0.02490234,0.2773438,-0.1074219
1760,-13,-12.25,-73.5,-0.6728516,-0.1381836,0.2368164,0.01904297,0.2773438,-0.1074219
1764,-22.8125,-28.625,-97.3125,-0.4790039,-0.2124023,0.2402344,0.009277344,0.2773438,-0.105957
1768,-28.5,-35.125,-116.8125,-0.2734375,-0.3520508,0.2211914,0.002441406,0.2797852,-0.1020508
1772,-24.125,-32.4375,-131.5625,-0.1499023,-0.387207,0.1865234,-0.01171875,0.28125,-0.09912109
1776,-16.6875,-23.5625,-153.9375,-0.08007813,-0.3481445,0.1826172,-0.02246094,0.2797852,-0.09667969
1780,-13.3125,-24.6875,-175.125,-0.02978516,-0.3095703,0.1635742,-0.03515625,0.28125,-0.09375
1784,-14.375,-37.8125,-178.5625,0.07861328,-0.3442383,0.1479492,-0.05224609,0.2788086,-0.09082031
1788,-12.125,-49.5625,-178.5625,0.2177734,-0.3676758,0.1328125,-0.07226563,0.2763672,-0.09082031
1792,-7.125,-55.3125,-185.4375,0.3535156,-0.2939453,0.144043,-0.08398438,0.2749023,-0.08837891
1796,-9.3125,-52.5,-194.75,0.4541016,-0.2124023,0.144043,-0.1044922,0.2700195,-0.08691406
1800,-11.1875,-61.5625,-198.625,0.4389648,-0.1616211,0.1289063,-0.1220703,0.262207,-0.08447266
1804,-24.75,-76.9375,-206.125,0.5976563,-0.06445313,0.1557617,-0.1352539,0.2563477,-0.07861328
1808,-31.875,-80.1875,-211.375,0.9462891,-0.2431641,0.1479492,-0.1542969,0.2485352,-0.07470703
1812,-3.4375,-38.25,-216.8125,1.446289,-0.6552734,0.2021484,-0.1772461,0.2387695,-0.06542969
1816,41.6875,42.5,-228.625,1.5625,-0.6201172,0.1865234,-0.1889648,0.2285156,-0.06787109
1820,76.25,80.8125,-226.6875,1.012207,-0.550293,0.1865234,-0.2045898,0.2148438,-0.07470703
1824,66.1875,50.5625,-214.3125,0.527832,0.05908203,0.2597656,-0.2197266,0.1972656,-0.08544922
1828,15,-33.1875,-205.0625,0.3535156,0.2495117,0.2944336,-0.2304688,0.1875,-0.08837891
1832,-23.8125,-70.4375,-215.25,0.9814453,0.171875,0.3212891,-0.2446289,0.1723633,-0.08544922
1836,-23.9375,-47.375,-226.125,1.318359,-0.2275391,0.2402344,-0.2578125,0.15625,-0.07470703
1840,11.4375,-5.6875,-222.25,1.349609,-0.3754883,0.1826172,-0.2685547,0.1425781,-0.07470703
1844,40.75,12,-213.625,0.8574219,-0.1113281,0.08251953,-0.2792969,0.1225586,-0.07617188
1848,19.9375,-61.5625,-210.5625,0.5200195,0.5683594,0.08642578,-0.2915039,0.1025391,-0.07763672
1852,-28.625,-125.4375,-208.25,1.124512,0.6381836,0.2250977,-0.2983398,0.09130859,-0.06933594
1856,-50.1875,-120.5625,-218.375,1.76416,0.3701172,0.3056641,-0.3081055,0.07275391,-0.05566406
1860,-37.0625,-79.1875,-208.5625,2.039063,0.04394531,0.2827148,-0.3149414,0.05273438,-0.04638672
1864,-9.625,-28.8125,-190.75,1.895996,0.07080078,0.2133789,-0.3164063,0.03759766,-0.04052734
1868,0.875,-19.9375,-177.5625,1.461914,0.2612305,0.06738281,-0.3208008,0.02001953,-0.03808594
1872,-8.1875,-49.4375,-163.375,1.357422,0.4165039,0.001953125,-0.324707,0.001464844,-0.03515625
1876,-28.6875,-71,-157.9375,1.713867,0.3081055,0.08251953,-0.3256836,-0.009277344,-0.03125
1880,-25.6875,-58.75,-137.1875,2.124512,-0.04541016,0.1674805,-0.3271484,-0.02441406,-0.02294922
1884,-2.8125,-17.125,-106,2.260254,-0.2939453,0.2133789,-0.3271484,-0.03710938,-0.01904297
1889,23.8125,22.3125,-67.1875,2.027832,-0.3017578,0.1943359,-0.3256836,-0.04443359,-0.02050781
1893,36.375,31.0625,-37.25,1.674805,-0.1889648,0.1635742,-0.3271484,-0.05078125,-0.02294922
1897,28.75,17.6875,-13.75,1.508301,-0.07617188,0.2172852,-0.3271484,-0.0546875,-0.02587891
1901,15.75,6.3125,3.375,1.535645,-0.04541016,0.3598633,-0.3271484,-0.0546875,-0.02441406
1905,2.9375,5.3125,20.5,1.550781,-0.08398438,0.3828125,-0.3271484,-0.05322266,-0.02734375
1909,-8.9375,0.4375,37.625,1.539551,-0.1152344,0.3364258,-0.3271484,-0.05078125,-0.02832031
1913,-15.25,-4.75,61.5625,1.578125,-0.2045898,0.2519531,-0.3271484,-0.046875,-0.02734375
1917,-12.0625,-1.125,81.9375,1.612793,-0.1811523,0.1982422,-0.328125,-0.04052734,-0.02734375
1921,-10.5,0.75,100.9375,1.597656,-0.1308594,0.2094727,-0.3271484,-0.02929688,-0.02734375
1925,-12.125,2.4375,116.6875,1.620605,-0.08398438,0.1943359,-0.3271484,-0.02197266,-0.02441406
1929,-10.9375,8.1875,127.1875,1.659668,-0.08007813,0.1635742,-0.3256836,-0.009277344,-0.02832031
1933,-9.0625,15.1875,142.375,1.659668,-0.07226563,0.1328125,-0.324707,0.002441406,-0.02832031
1937,-10.5625,10.25,162.75,1.535645,0.01269531,0.105957,-0.3208008,0.01123047,-0.02832031
1941,-18.1875,-3.3125,178.375,1.585938,0.03222656,0.1098633,-0.3198242,0.03125,-0.02978516
1945,-15.1875,-0.875,191.6875,1.748535,-0.06835938,0.125,-0.3139648,0.04980469,-0.02832031
1949,-2,24.75,194.9375,1.818359,-0.1381836,0.1098633,-0.3125,0.0625,-0.02832031
1953,12.1875,45.6875,201.625,1.666992,-0.07617188,0.04052734,-0.3056641,0.08007813,-0.03271484
1957,6.625,34.625,216.8125,1.407715,0.08251953,0.02099609,-0.2958984,0.1000977,-0.03515625
1961,-3.6875,11,227.8125,1.318359,0.05126953,0.04785156,-0.2915039,0.1123047,-0.03662109
1965,-14.1875,-8.6875,229.125,1.376465,0.05126953,0.09814453,-0.2807617,0.1323242,-0.03808594
1969,-14.5625,-10.5625,236.6875,1.512207,-0.1616211,0.09814453,-0.2675781,0.1538086,-0.03808594
1973,2.625,3.4375,240.375,1.52002,-0.2900391,0.06347656,-0.2592773,0.1660156,-0.03662109
1977,25.125,26.875,243.0625,1.438477,-0.2202148,0.06738281,-0.2426758,0.1875,-0.03662109
1981,31,38,240.125,1.252441,-0.002441406,0.06738281,-0.2255859,0.2050781,-0.04052734
1985,25.0625,29.9375,240.25,1.113281,-0.07617188,0.06347656,-0.2128906,0.2138672,-0.04638672
1989,23.0625,23.4375,243.3125,1.179199,-0.1113281,0.105957,-0.1923828,0.2314453,-0.05029297
1993,24.625,23.625,248.25,0.9736328,-0.1889648,0.09814453,-0.1708984,0.2436523,-0.05419922
1997,29.5625,24.8125,242.125,0.8613281,-0.09960938,0.105957,-0.1567383,0.2524414,-0.05419922
2001,31.875,28.625,229.125,0.7529297,-0.1152344,0.1098633,-0.1342773,0.262207,-0.06103516
2005,33.4375,30.1875,215.75,0.6171875,-0.07226563,0.1289063,-0.1137695,0.2700195,-0.06542969
2009,26.125,25.25,205.25,0.5317383,-0.01416016,0.2021484,-0.09863281,0.2739258,-0.06787109
2013,19.5,21.1875,191.875,0.3574219,-0.09960938,0.2172852,-0.07958984,0.2763672,-0.07324219
2018,13.125,8.4375,188.375,0.2607422,-0.1577148,0.2290039,-0.06152344,0.2797852,-0.07470703
2022,6.6875,5.3125,184.4375,0.1674805,-0.1347656,0.2368164,-0.04833984,0.2836914,-0.07470703
2026,10.0625,18.375,174.625,-0.04492188,-0.2163086,0.2211914,-0.03076172,0.2836914,-0.08007813
2030,21.5625,37.25,146.5625,-0.28125,0.1914063,0.2329102,-0.01171875,0.28125,-0.08007813
2034,30.125,49.0625,119.625,-0.6767578,-0.02197266,0.1904297,-0.003417969,0.2836914,-0.08154297
2038,30.6875,42.5625,85.125,-1.103027,0.07080078,0.2021484,0.006835938,0.2822266,-0.08447266
2042,17.25,14.75,52,-1.296875,0.1796875,0.2329102,0.01660156,0.2836914,-0.08984375
2046,-0.125,-14.875,12.0625,-1.157227,0.1640625,0.2709961,0.01904297,0.28125,-0.08837891
2050,-12.3125,-23,-30.8125,-0.8706055,0.04003906,0.2827148,0.01904297,0.28125,-0.08984375
2054,-22,-29.8125,-71.5,-0.6225586,-0.06445313,0.2788086,0.01416016,0.2822266,-0.08447266
2058,-34.5,-36.8125,-97.25,-0.347168,-0.2084961,0.2519531,0.008300781,0.2851563,-0.08300781
2062,-41.6875,-43.6875,-111.375,-0.04492188,-0.4257813,0.2021484,-0.003417969,0.2851563,-0.08007813
2066,-37.375,-38.1875,-112.75,0.1518555,-0.6357422,0.1518555,-0.01416016,0.2851563,-0.07617188
2070,-18.9375,-19.125,-119.4375,0.2177734,-0.6630859,0.1210938,-0.0234375,0.2851563,-0.07470703
2074,-4.3125,1.4375,-133.1875,0.159668,-0.5385742,0.1210938,-0.03515625,0.2861328,-0.07324219
2078,0.625,3.0625,-150.125,0.03173828,-0.3950195,0.1171875,-0.04980469,0.2836914,-0.07324219
2082,-6.625,-10.625,-162.1875,0.02832031,-0.2939453,0.125,-0.06054688,0.28125,-0.07080078
2086,-12.0625,-26.1875,-175.8125,0.1015625,-0.324707,0.1020508,-0.07568359,0.2763672,-0.06933594
2090,-6.75,-27.5625,-183.75,0.2954102,-0.3911133,0.09033203,-0.09472656,0.2749023,-0.06787109
2094,7.75,-13.125,-187.875,0.4892578,-0.371582,0.1171875,-0.1054688,0.2700195,-0.06542969
2098,20.75,4.75,-207.0625,0.4931641,-0.2509766,0.140625,-0.1245117,0.2651367,-0.06787109
2102,21.5,-0.75,-210.6875,0.4272461,-0.2163086,0.125,-0.1435547,0.2539063,-0.07080078
2106,20.1875,-22.25,-202.3125,0.4658203,-0.1733398,0.1132813,-0.1542969,0.2485352,-0.06787109
2110,17.5,-46.4375,-197.1875,0.609375,-0.1420898,0.1289063,-0.1748047,0.2373047,-0.06933594
2114,8,-78.1875,-186.375,0.6831055,-0.1074219,0.09814453,-0.1889648,0.2275391,-0.06640625
2118,-4.875,-102.4375,-178.5625,1.213867,-0.04882813,0.1518555,-0.2006836,0.2197266,-0.0625
2122,-5.3125,-43.9375,-205.6875,1.984863,-0.08007813,0.2636719,-0.2163086,0.2099609,-0.05566406
2126,30.25,28.5,-205.6875,1.644043,-0.6938477,0.1865234,-0.2319336,0.1923828,-0.05419922
2130,71.6875,51.6875,-181.9375,1.225586,-0.4921875,0.09814453,-0.2412109,0.1826172,-0.05859375
2134,63.9375,2.25,-164.875,0.5009766,0.04003906,0.03662109,-0.2519531,0.1674805,-0.06542969
2138,15.25,-93.875,-141.5625,0.7177734,0.2612305,0.1289063,-0.2626953,0.15625,-0.06542969
2142,-24.9375,-105.3125,-157.0625,1.63623,0.3120117,0.3442383,-0.2675781,0.1474609,-0.05859375
2147,-29.125,-52.1875,-183.25,1.802734,-0.2124023,0.2983398,-0.2783203,0.1337891,-0.05029297
2151,1.875,-9.5625,-179.4375,1.694336,-0.3833008,0.2211914,-0.2866211,0.1152344,-0.04736328
2155,27.875,15.625,-170.75,1.357422,-0.1928711,0.159668,-0.2924805,0.1049805,-0.04736328
2159,33.625,10.375,-170,0.9853516,0.1020508,0.1020508,-0.3007813,0.08984375,-0.05029297
2163,9,-36.1875,-173.3125,0.8613281,0.3857422,0.09814453,-0.3056641,0.07373047,-0.04882813
2167,-14.875,-63.8125,-179.6875,1.330078,0.2768555,0.1904297,-0.309082,0.0625,-0.04638672
2171,-13.0625,-42.1875,-179.4375,1.72168,0.09033203,0.2519531,-0.3149414,0.04492188,-0.04052734
2175,3.6875,-12.9375,-171.1875,1.63623,0.07080078,0.2329102,-0.3198242,0.02734375,-0.03955078
2179,6.25,-11.6875,-158.125,1.399902,0.1523438,0.1748047,-0.3222656,0.01513672,-0.03662109
2183,-4.5625,-29.5625,-146.3125,1.399902,0.1992188,0.1020508,-0.324707,0,-0.03515625
2187,-16.1875,-40.375,-123.5625,1.63623,0.1020508,0.1557617,-0.3271484,-0.01464844,-0.03271484
2191,-25.375,-46.8125,-93.625,1.72168,-0.006347656,0.2402344,-0.328125,-0.02050781,-0.02978516
2195,-32.4375,-44.875,-64.375,1.849121,-0.09179688,0.2250977,-0.3256836,-0.02929688,-0.02050781
2199,-22.9375,-22.5,-42.4375,1.903809,-0.3676758,0.1826172,-0.3271484,-0.03466797,-0.02050781
2203,9.1875,19.0625,-29.875,1.899902,-0.5112305,0.1479492,-0.3271484,-0.03808594,-0.01904297
2207,28.375,40.5625,-11.9375,1.558594,-0.3286133,0.1132813,-0.3271484,-0.03808594,-0.02294922
2211,17.6875,14.1875,16.125,1.291504,-0.1230469,0.1557617,-0.328125,-0.04052734,-0.02441406
2215,-7.125,-11.75,39.6875,1.481445,-0.01806641,0.2519531,-0.3256836,-0.03955078,-0.02441406
2219,-24.6875,-12.75,62.375,1.628418,-0.1113281,0.2480469,-0.3271484,-0.03466797,-0.02734375
2223,-25.8125,-3.1875,76.8125,1.620605,-0.2163086,0.1518555,-0.3256836,-0.02587891,-0.02294922
2227,-22.375,2.875,95.0625,1.59375,-0.2431641,0.08642578,-0.328125,-0.02197266,-0.02441406
2231,-15.8125,4.4375,111.5,1.612793,-0.2470703,0.04785156,-0.3256836,-0.01074219,-0.02441406
2235,-10.4375,7.1875,130.0625,1.698242,-0.2392578,0.05566406,-0.324707,0,-0.02441406
2239,-8.0625,11.75,148.4375,1.736816,-0.1577148,0.06347656,-0.3222656,0.01123047,-0.02441406
2243,-9.5625,20.25,161.875,1.806641,-0.06445313,0.09423828,-0.3208008,0.02490234,-0.02294922
2247,-13.4375,20.125,182.4375,1.713867,-0.06835938,0.08251953,-0.3164063,0.04394531,-0.02832031
2251,-11.5625,23.4375,191.875,1.713867,-0.06054688,0.05957031,-0.3125,0.05517578,-0.02734375
2255,-1.875,28,203,1.748535,-0.1499023,0.05566406,-0.309082,0.07373047,-0.03125
2259,14.375,46.75,213.875,1.806641,-0.1420898,0.07128906,-0.2998047,0.09375,-0.03369141
2263,22.125,61.125,219.3125,1.702148,0.01269531,0.1098633,-0.293457,0.1064453,-0.03808594
2267,10.1875,57.8125,226.8125,1.380371,0.09814453,0.1098633,-0.2807617,0.1264648,-0.04492188
2271,-1,27.9375,238.8125,1.341797,0.01269531,0.140625,-0.2709961,0.1474609,-0.04736328
2276,0.9375,29,241.5625,1.492676,-0.1113281,0.159668,-0.2617188,0.1601563,-0.05029297
2280,11.25,38.0625,239.6875,1.543457,-0.1230469,0.1787109,-0.2460938,0.1801758,-0.05566406
2284,12.9375,46.9375,245.6875,1.574219,-0.1577148,0.1943359,-0.2294922,0.1962891,-0.05859375
2288,18.5,55.9375,252,1.481445,-0.1499023,0.1865234,-0.2172852,0.2084961,-0.06103516
2292,6.0625,46.0625,262.6875,1.26416,-0.06445313,0.1713867,-0.1972656,0.2250977,-0.06640625
2296,-4.4375,34.25,279.25,1.124512,-0.1420898,0.159668,-0.1723633,0.2397461,-0.06933594
2300,11.1875,47.3125,275.1875,0.9814453,-0.2353516,0.08642578,-0.1567383,0.2485352,-0.07080078
2304,32.125,73.1875,261.75,0.8999023,-0.08789063,0.07519531,-0.1303711,0.2612305,-0.07470703
2308,44.0625,93.0625,245.875,0.5976563,0.02441406,0.04785156,-0.1054688,0.2675781,-0.08300781
2312,39,84.25,236.1875,0.2646484,0.1445313,0.02880859,-0.08886719,0.2724609,-0.08691406
2316,28.125,60.8125,232.8125,0.09033203,0.1601563,0.07519531,-0.06396484,0.2773438,-0.09375
2320,22.875,52.1875,214.0625,-0.02978516,0.1254883,0.1020508,-0.04150391,0.2797852,-0.09765625
2324,23.1875,47.875,187.125,-0.1884766,0.09814453,0.1132813,-0.02685547,0.2797852,-0.09765625
2328,23.6875,42.6875,161.9375,-0.4130859,0.09033203,0.1020508,-0.006835938,0.2797852,-0.1020508
2332,19.25,34.3125,132.875,-0.5644531,0.237793,0.144043,0.006835938,0.2797852,-0.105957
2336,9.625,21,100.75,-0.8046875,0.1875,0.1674805,0.01757813,0.2773438,-0.105957
2340,-0.5625,3.9375,63.9375,-0.8935547,0.1875,0.1943359,0.02587891,0.2749023,-0.1088867
2344,-8.125,-4.9375,24.875,-0.8510742,0.1098633,0.2172852,0.03173828,0.2749023,-0.1074219
2348,-9.9375,-8.375,-11.875,-0.7734375,0.02050781,0.2133789,0.03076172,0.2763672,-0.1074219
2352,-11,-8.875,-45,-0.699707,-0.02197266,0.2094727,0.02734375,0.2773438,-0.1074219
2356,-15.9375,-15.25,-76.3125,-0.6069336,-0.04541016,0.2172852,0.0234375,0.2763672,-0.1044922
2360,-24,-23.625,-102.6875,-0.4594727,-0.1733398,0.1982422,0.01904297,0.2797852,-0.1035156
2364,-26.3125,-29.9375,-121.4375,-0.2773438,-0.3134766,0.1787109,0.006835938,0.2797852,-0.1005859
2368,-19.9375,-25.6875,-135.6875,-0.1108398,-0.3793945,0.1557617,-0.004394531,0.2797852,-0.09667969
2372,-8.4375,-12.4375,-154.0625,-0.08007813,-0.3833008,0.144043,-0.01611328,0.2822266,-0.09521484
2376,4.6875,-8.625,-174.375,-0.1572266,-0.2900391,0.105957,-0.03173828,0.28125,-0.09521484
2380,4.375,-21.125,-191.8125,-0.1264648,-0.1230469,0.105957,-0.04833984,0.2763672,-0.09228516
2384,-3.625,-35.5625,-206.125,-0.01025391,-0.09179688,0.09814453,-0.06298828,0.2763672,-0.09521484
2388,-4.3125,-49.4375,-220.5625,0.190918,-0.1074219,0.1020508,-0.08544922,0.2724609,-0.09228516
2392,0.3125,-50.4375,-230.1875,0.4350586,-0.1889648,0.09814453,-0.1079102,0.2661133,-0.09082031
2396,5.9375,-60.9375,-232.3125,0.4233398,-0.09960938,0.1020508,-0.1220703,0.2612305,-0.08984375
2400,-18.8125,-103.5,-219.375,0.574707,0.1176758,0.125,-0.1450195,0.2509766,-0.08691406
2405,-49.8125,-137.4375,-213.3125,0.8920898,0.05517578,0.1328125,-0.1650391,0.2436523,-0.07617188
2409,-60.625,-115.9375,-230.8125,1.322266,-0.1420898,0.1943359,-0.1791992,0.2363281,-0.06933594
2413,-37.375,-67.5625,-239.125,1.500488,-0.4726563,0.125,-0.199707,0.2211914,-0.05712891
2417,5.875,-22.5,-234.5,1.372559,-0.4101563,0.125,-0.2172852,0.2084961,-0.05175781
2421,12.1875,-33.3125,-226.125,0.7758789,0.08251953,0.05957031,-0.2304688,0.1972656,-0.05175781
2425,-48.3125,-135.8125,-193.8125,0.7412109,0.4282227,-0.01660156,-0.2460938,0.1787109,-0.04638672
2429,-95.0625,-159.4375,-195.125,1.791016,0.1953125,0.1171875,-0.2578125,0.1650391,-0.02734375
2433,-80.6875,-76.1875,-224.0625,2.279297,-0.3134766,0.1289063,-0.2661133,0.1538086,-0.01757813
2437,-23.5625,13.5,-230.9375,2.042969,-0.5927734,0.07910156,-0.2792969,0.1347656,-0.009277344
2441,27.5,58.375,-223.25,1.477539,-0.3364258,-0.01660156,-0.2915039,0.1123047,-0.01464844
2445,43.4375,52.6875,-215.0625,0.9423828,0.07470703,-0.06689453,-0.2973633,0.1010742,-0.01757813
2449,14.1875,-17.875,-213.75,0.6791992,0.5800781,-0.07080078,-0.3066406,0.07861328,-0.02148438
2453,-33.3125,-85.0625,-204.6875,1.388184,0.5136719,0.07519531,-0.3115234,0.06005859,-0.01757813
2457,-47,-65.9375,-204.125,2.132324,0.21875,0.2094727,-0.3149414,0.04492188,-0.01074219
2461,-28.875,-9.8125,-193.375,2.275391,-0.1269531,0.1635742,-0.3208008,0.02636719,-0.00390625
2465,2.4375,27.6875,-165.5,2.008301,-0.2431641,0.05566406,-0.324707,0.006347656,-0.005371094
2469,16.4375,30.125,-149.375,1.644043,-0.01025391,-0.02832031,-0.3256836,-0.004394531,-0.006835938
2473,-1.3125,-4.1875,-121.9375,1.644043,-0.04541016,-0.001464844,-0.3271484,-0.01953125,-0.009277344
2477,-11.375,-28.125,-87,1.918945,-0.2470703,0.1210938,-0.3271484,-0.02929688,-0.008300781
2481,-13.1875,-24.9375,-49.9375,2.209961,-0.3442383,0.2250977,-0.328125,-0.03466797,-0.005371094
2485,-11.5625,-2.625,-8.75,2.174805,-0.484375,0.2211914,-0.328125,-0.04052734,-0.005371094
2489,1.8125,13.125,25.25,1.938477,-0.5854492,0.1132813,-0.328125,-0.03955078,-0.00390625
2493,15.5625,21.5,51.1875,1.736816,-0.484375,0.08251953,-0.328125,-0.03710938,-0.002441406
2497,20.3125,25.375,67.4375,1.605469,-0.3325195,0.1328125,-0.3256836,-0.02929688,-0.008300781
2501,13.0625,25.9375,79,1.585938,-0.1772461,0.1865234,-0.3271484,-0.02197266,-0.009277344
2505,-0.5,21.375,93.6875,1.601563,-0.1772461,0.1865234,-0.328125,-0.015625,-0.01367188
2509,-7.75,17.375,115.375,1.694336,-0.2470703,0.1367188,-0.3256836,-0.005859375,-0.01464844
2513,-6.4375,18.9375,138.3125,1.717773,-0.2353516,0.07128906,-0.3232422,0.007324219,-0.01611328
2517,-3.25,19.875,156.6875,1.698242,-0.2124023,0.02880859,-0.3232422,0.01611328,-0.01464844
2521,1.4375,19.25,174.0625,1.709961,-0.2045898,0.02099609,-0.3198242,0.03369141,-0.01904297
2525,11,30.75,186.625,1.725586,-0.1694336,0.01367188,-0.3139648,0.04882813,-0.02148438
2529,19,44.6875,190.3125,1.644043,-0.04150391,0.04052734,-0.3115234,0.06103516,-0.02148438
2534,19,49.5625,194.25,1.570313,-0.01806641,0.05175781,-0.3041992,0.08007813,-0.02978516
2538,18.375,50.5,203.5,1.535645,0.0009765625,0.07128906,-0.2958984,0.09619141,-0.03515625
2542,16.5,53.375,211.125,1.48877,0.01269531,0.07128906,-0.2915039,0.1113281,-0.03808594
2546,14.5,47.375,218.5625,1.384277,0.004882813,0.04785156,-0.2807617,0.1289063,-0.04492188
2550,10.9375,44.875,218.75,1.481445,0.0009765625,0.07519531,-0.2685547,0.1499023,-0.05029297
2554,16.4375,57.0625,224,1.527832,-0.1035156,0.07519531,-0.2592773,0.1625977,-0.05273438
2558,26.5,66.75,228.4375,1.39209,-0.1152344,0.06738281,-0.2460938,0.1787109,-0.05859375
2562,34.75,76.0625,234.25,1.372559,-0.09570313,0.09814453,-0.2280273,0.1972656,-0.06787109
2566,33.8125,79.4375,232.375,1.209961,0.03222656,0.125,-0.2163086,0.2060547,-0.07177734
2570,25.1875,78.75,233.625,1.089844,0.06298828,0.144043,-0.1972656,0.2236328,-0.07861328
2574,15,69.1875,228,0.9423828,0.03613281,0.159668,-0.1772461,0.2324219,-0.08691406
2578,9.5625,52.1875,234.8125,0.8730469,-0.08007813,0.159668,-0.1640625,0.2412109,-0.08984375
2582,9.4375,48.5625,235.75,0.9350586,-0.1381836,0.1674805,-0.1401367,0.25,-0.09375
2586,17.8125,56.625,234,0.8730469,-0.1889648,0.159668,-0.1186523,0.2597656,-0.09765625
2590,26.875,75.4375,224.75,0.7875977,-0.1308594,0.1674805,-0.1010742,0.2636719,-0.1005859
2594,29.375,80.4375,212,0.559082,-0.06445313,0.1713867,-0.08056641,0.2700195,-0.105957
2598,23.125,78.375,203.6875,0.3149414,-0.03369141,0.1748047,-0.05810547,0.2724609,-0.1098633
2602,19.3125,70.375,193.1875,0.06298828,-0.08007813,0.1479492,-0.04492188,0.2724609,-0.1142578
2606,23,64.125,178.0625,-0.1650391,-0.1035156,0.1289063,-0.02490234,0.2749023,-0.1166992
2610,23.375,52.1875,164.1875,-0.4907227,-0.1538086,0.09033203,-0.004394531,0.2739258,-0.1196289
2614,29.25,30.875,140.6875,-0.715332,-0.08007813,0.06347656,0.005859375,0.2724609,-0.1210938
2618,33.3125,6.0625,110.6875,-1.083496,-0.03759766,0.02099609,0.02001953,0.2724609,-0.125
2622,36.25,-28.5,68.1875,-1.168945,0.1757813,0.1367188,0.02832031,0.2685547,-0.1303711
2626,6.375,-43.875,36.5,-1.001953,0.4282227,0.2905273,0.03173828,0.2700195,-0.1303711
2630,-18.9375,-51.5,0.3125,-0.9711914,0.21875,0.3056641,0.03417969,0.2685547,-0.1303711
2634,-23.125,-49,-45.6875,-0.796875,0.03222656,0.3212891,0.03173828,0.2685547,-0.1279297
2638,-24.625,-41.0625,-85.9375,-0.6147461,-0.03369141,0.3212891,0.02490234,0.2724609,-0.1279297
2642,-31.6875,-43.8125,-110.375,-0.4521484,-0.1191406,0.3017578,0.01513672,0.2724609,-0.1235352
2646,-37.375,-50.5625,-123.4375,-0.2387695,-0.2666016,0.2675781,0.0009765625,0.2763672,-0.1225586
2650,-37.25,-47.3125,-134.6875,-0.02587891,-0.355957,0.2250977,-0.009277344,0.2763672,-0.1196289
2654,-28.5625,-35.5,-151.1875,0.04736328,-0.4140625,0.1787109,-0.02099609,0.2763672,-0.1157227
2658,-22.5625,-34.125,-162.5,0.1015625,-0.3676758,0.1557617,-0.0390625,0.2749023,-0.1113281
2663,-22.875,-34.9375,-170.9375,0.1557617,-0.2978516,0.159668,-0.04833984,0.2739258,-0.1074219
2667,-23.875,-40.25,-181.3125,0.2138672,-0.2861328,0.1518555,-0.06738281,0.2724609,-0.105957
2671,-21.875,-45.875,-182.4375,0.3149414,-0.3364258,0.1367188,-0.08398438,0.2700195,-0.1035156
2675,-15,-52.9375,-180.125,0.3691406,-0.3442383,0.08642578,-0.09716797,0.2661133,-0.1005859
2679,-9.9375,-70.75,-177,0.3339844,-0.2241211,0.06347656,-0.1162109,0.2612305,-0.09667969
2683,-25.1875,-100.5,-180.5,0.4467773,0.02050781,0.1171875,-0.1352539,0.2539063,-0.09228516
2687,-58.5625,-129.4375,-184.0625,0.6870117,0.07470703,0.1210938,-0.1474609,0.2509766,-0.08447266
2691,-82,-145,-186.1875,1.085938,-0.1230469,0.09033203,-0.1665039,0.2436523,-0.07324219
2695,-87.125,-135.5625,-179.875,1.299316,-0.3286133,0.02490234,-0.1831055,0.2373047,-0.05712891
2699,-62,-101.875,-165.625,1.48877,-0.581543,0.04052734,-0.1923828,0.2299805,-0.04882813
2703,-31.25,-68.1875,-152.25,1.318359,-0.4726563,-0.01318359,-0.206543,0.21875,-0.03808594
2707,-20.375,-53.875,-155.75,0.9541016,-0.1347656,-0.03613281,-0.2172852,0.2075195,-0.03125
2711,-41.375,-74.25,-169.6875,0.9462891,0.1098633,-0.05517578,-0.2280273,0.2001953,-0.02734375
2715,-62.5625,-79.3125,-189.4375,1.19043,0.09423828,-0.05517578,-0.2387695,0.1899414,-0.01904297
2719,-69.6875,-66.5625,-208.5625,1.484863,-0.1347656,-0.08984375,-0.2519531,0.1738281,-0.006835938
2723,-44.1875,-37.375,-200.0625,1.659668,-0.4804688,-0.1323242,-0.2602539,0.1611328,-0.001464844
2727,-0.75,0.75,-191.625,1.601563,-0.3793945,-0.109375,-0.2724609,0.1435547,0.002441406
2731,22.75,28.625,-197.625,1.310547,-0.04541016,-0.09375,-0.2817383,0.1274414,0
2735,-1.75,2.0625,-212.4375,1.047363,0.4750977,-0.08203125,-0.2875977,0.1137695,-0.001464844
2739,-46.6875,-41.875,-208.125,1.345703,0.2416992,-0.07470703,-0.2973633,0.09619141,0
2743,-57.5,-48.375,-200.4375,1.818359,-0.1308594,-0.08984375,-0.3041992,0.07617188,0.0078125
2747,-32.75,-16,-184.5,2.058594,-0.3637695,-0.09765625,-0.309082,0.06396484,0.01074219
2751,-0.375,16.75,-157.1875,1.814453,-0.3911133,-0.0859375,-0.3149414,0.04638672,0.01074219
2755,16.875,18.625,-140.875,1.492676,-0.1811523,-0.1054688,-0.3188477,0.03125,0.009277344
2759,9.0625,6.5625,-133.3125,1.426758,-0.04882813,-0.06298828,-0.3208008,0.02392578,0.01171875
2763,-6.9375,-11.9375,-120.625,1.546875,-0.1191406,0.04052734,-0.3232422,0.008789063,0.0078125
2767,-11.3125,-16.25,-101.1875,1.794922,-0.3286133,0.125,-0.3232422,-0.001953125,0.009277344
2771,-4.25,-5.1875,-68.8125,1.926758,-0.4726563,0.1787109,-0.324707,-0.006835938,0.01171875
2775,1.625,4.5,-33.8125,1.89209,-0.4726563,0.1748047,-0.3232422,-0.015625,0.01074219
2779,-1.625,2.4375,0.125,1.830078,-0.4453125,0.125,-0.324707,-0.015625,0.01074219
2783,-6.625,-4,27.25,1.845703,-0.4609375,0.1020508,-0.324707,-0.01708984,0.01318359
2787,-7.25,-0.8125,57.375,1.942383,-0.5112305,0.06738281,-0.324707,-0.01318359,0.01074219
2792,4.1875,12.625,84.3125,1.984863,-0.565918,0.03662109,-0.3232422,-0.004394531,0.01318359
2796,19.125,36.1875,101.25,2.008301,-0.4414063,0.009765625,-0.3222656,-0.0004882813,0.009277344
2800,23.6875,46.5625,121.6875,1.849121,-0.3676758,-0.03222656,-0.3222656,0.008789063,0.004882813
2804,18.875,36.9375,144,1.73291,-0.2202148,-0.02832031,-0.3208008,0.02392578,0.0009765625
2808,-8.25,7.625,172.6875,1.647949,-0.07226563,-0.03222656,-0.3198242,0.03369141,-0.001464844
2812,-23.6875,-13.1875,194,1.783691,-0.2006836,-0.04394531,-0.3149414,0.05273438,0.0009765625
2816,-21.9375,-12.9375,206.1875,1.938477,-0.3208008,-0.06689453,-0.3081055,0.07275391,0.002441406
2820,3.125,2.5,230.5,1.996582,-0.5112305,-0.1245117,-0.3032227,0.08496094,0.002441406
2824,38.8125,27.0625,240.9375,1.810547,-0.3325195,-0.1782227,-0.2924805,0.1074219,0
2828,57.625,39.375,240.125,1.558594,-0.1035156,-0.1552734,-0.2807617,0.1313477,-0.005371094
2832,58.4375,43.4375,236.125,1.523926,0.1445313,-0.1054688,-0.2724609,0.1450195,-0.008300781
2836,50.3125,50.8125,234.875,1.399902,0.140625,-0.05517578,-0.2592773,0.1650391,-0.01757813
2840,46.8125,47.5625,228.5,1.279785,0.05517578,-0.07861328,-0.2470703,0.1826172,-0.02441406
2844,54.4375,45.5,229.4375,1.237305,-0.03369141,-0.07470703,-0.2353516,0.1938477,-0.02832031
2848,63.6875,54.625,226.125,1.310547,-0.01025391,-0.04394531,-0.21875,0.2099609,-0.03662109
2852,72.375,74.1875,215.1875,1.237305,0.0009765625,-0.03222656,-0.199707,0.2236328,-0.04638672
2856,77.5,87.75,209.25,1.074219,0.07470703,-0.03613281,-0.1889648,0.2324219,-0.05273438
2860,60.5625,76.4375,215.9375,0.8417969,0.1875,0.01367188,-0.1699219,0.2426758,-0.06787109
2864,42.75,61.1875,220,0.7333984,0.1098633,0.04052734,-0.1484375,0.25,-0.07324219
2868,35.875,48.125,214.4375,0.6479492,0.02832031,0.04443359,-0.1352539,0.2563477,-0.07861328
2872,35.1875,48.625,199.5,0.6132813,-0.01416016,0.08251953,-0.1162109,0.2651367,-0.08447266
2876,34.625,53,177.375,0.5317383,-0.02587891,0.09423828,-0.09619141,0.2685547,-0.08984375
2880,33.25,52.375,166.9375,0.4892578,-0.08789063,0.1098633,-0.08300781,0.2724609,-0.09375
2884,25.375,48.1875,175.25,0.3691406,-0.1074219,0.1367188,-0.06738281,0.2749023,-0.1005859
2888,19.5625,38,174.0625,0.1635742,-0.1733398,0.144043,-0.04736328,0.2749023,-0.1035156
2892,16.625,32.5625,157.25,0.07080078,-0.1772461,0.1787109,-0.03759766,0.2797852,-0.105957
2896,16.5625,37,126.9375,-0.01416016,-0.2124023,0.2172852,-0.0234375,0.2773438,-0.105957
2900,17.9375,42.75,107.75,-0.1303711,-0.355957,0.2133789,-0.0078125,0.2797852,-0.1088867
2904,22.6875,37.875,96.4375,-0.4287109,-0.3833008,0.2021484,-0.003417969,0.2763672,-0.1113281
2908,20.9375,21.375,86.5625,-0.6069336,-0.324707,0.2172852,0.008300781,0.2763672,-0.1088867
2912,17.9375,5.4375,76.75,-0.6689453,-0.3325195,0.2749023,0.01757813,0.2749023,-0.1142578
2916,17.5625,2.3125,46.1875,-0.6650391,-0.2822266,0.3520508,0.02001953,0.2749023,-0.1166992
2921,16.1875,8.625,15.1875,-0.6225586,-0.2006836,0.4213867,0.02490234,0.2739258,-0.1166992
2925,10.0625,12.375,-14.75,-0.6923828,-0.1889648,0.4404297,0.02587891,0.2724609,-0.1196289
2929,-3.5,-1.4375,-42.25,-0.7036133,-0.1420898,0.4326172,0.02490234,0.2724609,-0.1196289
2933,-20.375,-20,-63.625,-0.5566406,-0.2045898,0.409668,0.01904297,0.2739258,-0.1166992
2937,-32.8125,-32.125,-81.75,-0.328125,-0.3056641,0.3671875,0.01416016,0.2749023,-0.1166992
2941,-35.375,-27.6875,-94.9375,-0.1342773,-0.4453125,0.2983398,0.004394531,0.2773438,-0.1142578
2945,-25.0625,-11.9375,-110.5,-0.05664063,-0.5073242,0.2250977,-0.004394531,0.2773438,-0.1098633
2949,-9.1875,3.375,-126.875,-0.1108398,-0.4726563,0.1713867,-0.01513672,0.2788086,-0.1074219
2953,1.9375,5.4375,-148.9375,-0.215332,-0.3095703,0.1328125,-0.02587891,0.2788086,-0.105957
2957,-1.8125,-10.25,-167.125,-0.1923828,-0.1381836,0.1210938,-0.04003906,0.2773438,-0.105957
2961,-16.4375,-39.5,-178.8125,-0.1147461,-0.06054688,0.1367188,-0.05566406,0.2749023,-0.1035156
2965,-29.375,-64.0625,-187.125,0.1132813,-0.08398438,0.1367188,-0.06982422,0.2739258,-0.1020508
2969,-33.875,-72.125,-195.8125,0.3613281,-0.1347656,0.1098633,-0.09033203,0.2700195,-0.09667969
2973,-24,-65.875,-202.1875,0.5708008,-0.2587891,0.08251953,-0.109375,0.2661133,-0.09228516
2977,-11.5625,-63.125,-206.0625,0.6210938,-0.1499023,0.06738281,-0.1220703,0.2597656,-0.08544922
2981,-17.6875,-71,-199.9375,0.7255859,0.008789063,0.07519531,-0.1435547,0.2509766,-0.08691406
2985,-20.9375,-75.625,-196.5,0.8071289,-0.1230469,0.04443359,-0.1625977,0.2426758,-0.07763672
2989,-12.625,-68.6875,-209.5,0.9038086,-0.05273438,0.02880859,-0.1748047,0.2373047,-0.07470703
2993,-7,-60,-218.9375,1.089844,-0.05664063,0.02880859,-0.1923828,0.2236328,-0.06933594
2997,-4.125,-50.75,-222.9375,1.09375,-0.03759766,0.02099609,-0.2114258,0.2114258,-0.06542969
3001,-5.25,-62.0625,-218.4375,1.043457,0.0009765625,0.005859375,-0.222168,0.2026367,-0.06103516
3005,-12.75,-79.875,-208,1.182617,0.004882813,0.02099609,-0.237793,0.1860352,-0.05859375
3009,-11.75,-76.625,-211.125,1.504395,-0.02197266,0.09814453,-0.2519531,0.1699219,-0.04736328
3013,2.3125,-36.375,-226.6875,1.725586,-0.06835938,0.1674805,-0.2617188,0.1586914,-0.04638672
3017,20.9375,3.1875,-238.6875,1.516113,-0.01025391,0.1367188,-0.2744141,0.1386719,-0.04492188
3021,10.6875,-16.625,-238.5,1.155762,0.2963867,0.04052734,-0.2875977,0.1176758,-0.04492188
3025,-37.625,-84.375,-218.5,1.241211,0.4399414,-0.01318359,-0.293457,0.1035156,-0.04199219
3029,-79.9375,-131,-189.9375,1.814453,0.1484375,-0.08203125,-0.3056641,0.08398438,-0.02978516
3033,-80,-117,-166.5625,2.353027,-0.2822266,-0.05126953,-0.3105469,0.06738281,-0.01367188
3037,-47.125,-51.5,-152.375,2.515625,-0.5229492,-0.04394531,-0.3125,0.05615234,-0.006835938
3041,-4.6875,13,-141.125,2.144043,-0.4765625,-0.05517578,-0.3173828,0.04394531,-0.00390625
3045,6.9375,22.8125,-127.3125,1.628418,-0.2084961,-0.1166992,-0.3198242,0.02880859,-0.00390625
3050,-14,-19.375,-98.1875,1.43457,-0.1772461,-0.1245117,-0.3208008,0.01855469,-0.005371094
3054,-24.375,-47.1875,-65.125,1.756348,-0.3676758,-0.04003906,-0.3232422,0.01269531,0
3058,-11.0625,-30.5,-38.625,1.996582,-0.5737305,0.04052734,-0.3232422,0.00390625,0.0009765625
3062,12.8125,2.5625,-18.8125,2.012207,-0.6123047,0.05566406,-0.3222656,0.001464844,0.00390625
3066,31.4375,29.0625,-1,1.806641,-0.5385742,0.06738281,-0.3232422,0.002441406,0.0009765625
3070,36.0625,34.3125,21.75,1.632324,-0.3989258,0.1132813,-0.3222656,0.002441406,-0.002441406
3074,28.25,26,45.1875,1.469727,-0.3017578,0.1674805,-0.3232422,0.00390625,-0.00390625
3078,17.75,13.625,63.1875,1.450195,-0.2431641,0.1865234,-0.3232422,0.01025391,-0.008300781
3082,6.8125,17.25,70.3125,1.601563,-0.1538086,0.2480469,-0.3208008,0.01757813,-0.009277344
3086,-1.0625,31.125,76.9375,1.659668,-0.2587891,0.1904297,-0.3198242,0.02148438,-0.009277344
3090,2.25,39.625,91.875,1.659668,-0.3134766,0.125,-0.3198242,0.03027344,-0.01367188
3094,2.125,41.375,114.0625,1.647949,-0.3095703,0.08642578,-0.3173828,0.03857422,-0.01757813
3098,3.3125,30.625,138.75,1.597656,-0.2900391,0.06738281,-0.3149414,0.04736328,-0.02050781
3102,4.9375,32.375,155,1.740723,-0.2045898,0.06738281,-0.3125,0.06005859,-0.02148438
3106,7.3125,47.5,162.875,1.810547,-0.2124023,0.105957,-0.3066406,0.07763672,-0.02734375
3110,14.4375,68,168.5625,1.818359,-0.1967773,0.1132813,-0.3007813,0.08740234,-0.03125
3114,21.125,83.125,179.875,1.729004,-0.1889648,0.07128906,-0.2949219,0.1035156,-0.03808594
3118,12,67.375,204.75,1.395996,-0.03759766,0.03271484,-0.2851563,0.1201172,-0.04638672
3122,-5.75,33.1875,229.625,1.271973,-0.002441406,0.05175781,-0.2768555,0.1337891,-0.05175781
3126,-16.8125,18.6875,229.3125,1.39209,-0.03759766,0.1210938,-0.2651367,0.1523438,-0.05175781
3130,-13.375,27.5,225.9375,1.461914,-0.2124023,0.1020508,-0.2519531,0.1713867,-0.05273438
3134,0.125,54.25,218.75,1.531738,-0.2124023,0.1098633,-0.2412109,0.1835938,-0.05273438
3138,15.6875,79,216.625,1.279785,-0.2392578,0.05175781,-0.2255859,0.2001953,-0.05957031
3142,20.5625,66.625,228.9375,1.043457,-0.1230469,0.02099609,-0.2080078,0.2138672,-0.06640625
3146,11.8125,49.1875,241.1875,1.070313,-0.006347656,0.08642578,-0.1972656,0.2226563,-0.07080078
3150,7.625,51.9375,236,1.097656,-0.1074219,0.1098633,-0.1748047,0.2363281,-0.07470703
3154,15.75,65.5,220.6875,0.9775391,-0.1850586,0.08642578,-0.1542969,0.2475586,-0.07763672
3158,22.5625,71.3125,213.625,0.8535156,-0.1655273,0.07128906,-0.1401367,0.2524414,-0.08154297
3162,20.8125,62.75,217.25,0.7719727,-0.1269531,0.08251953,-0.1186523,0.262207,-0.08837891
3166,13.5,51.1875,222.0625,0.5976563,-0.1035156,0.09033203,-0.09619141,0.2685547,-0.09228516
3170,4.1875,40.75,216,0.5976563,-0.1113281,0.09814453,-0.08398438,0.2724609,-0.09375
3174,8.625,43.875,199,0.5820313,-0.2431641,0.1210938,-0.06054688,0.2763672,-0.09667969
3179,21,60,188.25,0.5668945,-0.371582,0.1132813,-0.04150391,0.2788086,-0.09765625
3183,34.25,65.625,184.75,0.3110352,-0.340332,0.08642578,-0.02929688,0.2797852,-0.1020508
3187,28.75,37.0625,187.25,-0.1728516,-0.1928711,0.09423828,-0.009277344,0.2788086,-0.105957
3191,6.0625,-12.4375,183.0625,-0.3354492,0.04394531,0.1557617,0.01074219,0.2788086,-0.1098633
3195,-6.6875,-39.5625,166.125,-0.328125,-0.1459961,0.1826172,0.02001953,0.2763672,-0.1098633
3199,-3.1875,-26.0625,139.75,-0.1845703,-0.2705078,0.2827148,0.03662109,0.2739258,-0.1088867
3203,14.8125,6.5,108,-0.2387695,-0.3520508,0.3212891,0.04736328,0.2749023,-0.1098633
3207,35.4375,44.4375,79.3125,-0.4091797,-0.2392578,0.3173828,0.0546875,0.2700195,-0.1098633
3211,39.6875,52.1875,57.5,-0.8857422,-0.09570313,0.3095703,0.06298828,0.2675781,-0.1142578
3215,26.0625,28.25,32.3125,-1.165039,0.06689453,0.3598633,0.06884766,0.2661133,-0.1166992
3219,5.0625,-3.5625,-1.9375,-1.099121,0.1020508,0.375,0.07128906,0.2651367,-0.1181641
3223,-11.375,-15.5625,-44.0625,-0.8549805,0.01660156,0.3979492,0.06982422,0.2651367,-0.1157227
3227,-23,-18.625,-76.6875,-0.6572266,-0.09570313,0.3789063,0.06542969,0.2675781,-0.1142578
3231,-28.625,-18.9375,-100.0625,-0.4790039,-0.2392578,0.3251953,0.05712891,0.2700195,-0.1142578
3235,-22.6875,-12.25,-116.6875,-0.3164063,-0.3989258,0.2519531,0.04736328,0.2724609,-0.1113281
3239,-10.1875,-0.5,-131.0625,-0.2387695,-0.387207,0.1826172,0.03564453,0.2724609,-0.1113281
3243,1.375,10,-151.5625,-0.28125,-0.3134766,0.125,0.02490234,0.2749023,-0.1098633
3247,7.25,6.25,-173.875,-0.3164063,-0.1420898,0.09423828,0.01074219,0.2788086,-0.1098633
3251,-0.5625,-7.9375,-197.6875,-0.3203125,-0.006347656,0.07519531,-0.006835938,0.2773438,-0.1113281
3255,-6.25,-30.6875,-212.0625,-0.1689453,-0.07226563,0.04443359,-0.01855469,0.2763672,-0.1088867
3259,1.75,-47.5625,-219.8125,0.1132813,-0.1967773,0.009765625,-0.04248047,0.2773438,-0.1074219
3263,17.625,-47.9375,-229.625,0.3847656,-0.1616211,0.03662109,-0.06396484,0.2724609,-0.1074219
3267,29.5,-38.125,-242.8125,0.5395508,-0.06835938,0.07910156,-0.08056641,0.2685547,-0.1044922
3271,24.875,-46.1875,-258.0625,0.4853516,0.1098633,0.125,-0.1044922,0.2612305,-0.1088867
3275,1.6875,-86.5,-257.25,0.5356445,0.1875,0.1171875,-0.1293945,0.2524414,-0.105957
3279,-24.5,-125.1875,-251.9375,0.8300781,0.09033203,0.09814453,-0.1450195,0.2460938,-0.1035156
3283,-22.25,-122.4375,-246.3125,1.411621,-0.2202148,0.1020508,-0.1723633,0.2363281,-0.09228516
3287,11.8125,-62.75,-246.3125,1.748535,-0.2705078,0.1748047,-0.1938477,0.2211914,-0.08544922
3291,25.5,-18.9375,-266.25,1.256348,0.171875,0.1748047,-0.2055664,0.2099609,-0.08544922
3295,-21.1875,-76.5625,-274.125,0.8730469,0.5332031,0.105957,-0.2255859,0.1938477,-0.08300781
3299,-87.5,-165.6875,-240.875,1.403809,0.3193359,0.03662109,-0.2485352,0.1738281,-0.07080078
3303,-97.75,-168.625,-198.3125,2.298828,-0.3754883,0.04443359,-0.2568359,0.1625977,-0.05859375
3308,-44.625,-78.9375,-182.9375,2.612793,-0.7641602,0.06347656,-0.2700195,0.1474609,-0.04052734
3312,24.625,30.5625,-189.5,2.225098,-0.6357422,0.09033203,-0.2807617,0.1313477,-0.03662109
3316,62.375,79.6875,-194.25,1.364746,-0.3364258,0.03271484,-0.2851563,0.1186523,-0.04199219
3320,55.8125,39.0625,-188.625,0.6132813,0.105957,-0.02050781,-0.2958984,0.09863281,-0.04882813
3324,9.9375,-58.875,-178.75,0.7060547,0.3081055,0.05957031,-0.3032227,0.08105469,-0.05273438
3328,-18.375,-95.9375,-160.125,1.500488,-0.01806641,0.2060547,-0.3066406,0.07128906,-0.04638672
3332,1.3125,-56.8125,-151.6875,1.922852,-0.3017578,0.3095703,-0.3125,0.05615234,-0.03955078
3336,34.0625,3.875,-151.25,1.814453,-0.1616211,0.2944336,-0.3164063,0.04248047,-0.03515625
3340,47.0625,35.5625,-157.4375,1.403809,0.05126953,0.2211914,-0.3188477,0.03125,-0.03515625
3344,40.5,20.9375,-162.8125,1.198242,0.1992188,0.1826172,-0.3222656,0.01611328,-0.04199219
3348,10,-23.5625,-150,1.411621,0.2226563,0.2402344,-0.3232422,-0.001953125,-0.04199219
3352,-15.875,-51.125,-107.5,1.926758,-0.05273438,0.3710938,-0.324707,-0.01074219,-0.03808594
3356,-14.0625,-32.9375,-64.625,2.225098,-0.2626953,0.4326172,-0.3256836,-0.01806641,-0.03369141
3360,0.1875,5.5,-36.6875,2.128418,-0.2861328,0.409668,-0.3256836,-0.02587891,-0.03125
3364,10.75,30.5625,-18.0625,1.86084,-0.2978516,0.3173828,-0.3271484,-0.02587891,-0.03369141
3368,19.5625,45.0625,-5,1.748535,-0.2822266,0.2983398,-0.3256836,-0.02685547,-0.03955078
3372,7.875,35.8125,20.375,1.469727,-0.1191406,0.2905273,-0.3256836,-0.02929688,-0.03955078
3376,-17.875,4.6875,49.125,1.461914,-0.02197266,0.3710938,-0.3256836,-0.02832031,-0.04492188
3380,-40.25,-4.875,72.9375,1.651855,-0.1113281,0.3671875,-0.324707,-0.01953125,-0.04492188
3384,-44.3125,3.125,92.4375,1.729004,-0.1967773,0.3173828,-0.3222656,-0.01171875,-0.04345703
3388,-43.6875,14.3125,109.9375,1.748535,-0.2353516,0.2368164,-0.324707,-0.004394531,-0.04345703
3392,-38.3125,23.625,127.625,1.775879,-0.2587891,0.1826172,-0.3222656,0.006347656,-0.04638672
3396,-33.25,30.875,149.5,1.73291,-0.2314453,0.144043,-0.3208008,0.02001953,-0.04638672
3400,-32.8125,28.375,166.75,1.717773,-0.1772461,0.1328125,-0.3198242,0.03271484,-0.04638672
3404,-34.875,23.1875,183.875,1.768066,-0.1230469,0.144043,-0.3139648,0.04980469,-0.05029297
3408,-39.5,21.875,201.4375,1.783691,-0.1152344,0.1367188,-0.3066406,0.06738281,-0.05175781
3412,-39.8125,17.125,223.25,1.702148,-0.1459961,0.08251953,-0.3017578,0.08251953,-0.05029297
3416,-37.9375,7.75,240,1.659668,-0.1694336,0.04443359,-0.293457,0.1035156,-0.05175781
3420,-26.1875,13.375,248.3125,1.709961,-0.2045898,0.02490234,-0.2817383,0.1264648,-0.05175781
3424,-11,26.1875,251.375,1.647949,-0.1967773,0.02490234,-0.2734375,0.1386719,-0.04882813
3428,2.25,36.625,247.9375,1.616699,-0.1035156,0.01367188,-0.2602539,0.1611328,-0.05273438
3432,4.25,39.3125,254.4375,1.512207,-0.04882813,0.02490234,-0.2426758,0.1801758,-0.05712891
3437,7.9375,41.9375,259.0625,1.48877,-0.07617188,0.04443359,-0.2304688,0.1938477,-0.05957031
3441,20.125,55.4375,255.1875,1.415527,-0.07617188,0.04052734,-0.2128906,0.2114258,-0.06542969
3445,28.6875,65.625,249.875,1.345703,-0.04882813,0.03662109,-0.1899414,0.2250977,-0.07080078
3449,31.8125,75.4375,249.125,1.194336,0.01269531,0.03662109,-0.1772461,0.2363281,-0.07617188
3453,29.3125,78.5625,253.5625,0.9736328,0.09423828,0.02880859,-0.1542969,0.2475586,-0.08154297
3457,17,62.5,256.75,0.675293,0.171875,0.03271484,-0.1303711,0.2587891,-0.08984375
3461,8.75,45.6875,254.375,0.5048828,0.07080078,0.03271484,-0.1113281,0.2651367,-0.08984375
3465,17.625,39.875,238.25,0.4506836,-0.04541016,0.04443359,-0.08789063,0.2709961,-0.09228516
3469,32.1875,56.375,220.0625,0.5161133,-0.03369141,0.07519531,-0.06494141,0.2763672,-0.1005859
3473,37.875,72.25,196.125,0.2177734,0.1293945,0.09423828,-0.04980469,0.2773438,-0.1020508
3477,28.125,58.5625,184.6875,-0.09130859,0.08251953,0.105957,-0.02929688,0.2788086,-0.1074219
3481,15.125,30.375,171.25,-0.1533203,0.07080078,0.159668,-0.01171875,0.2788086,-0.1088867
3485,2.5625,13.5,162.625,-0.1342773,-0.1347656,0.1826172,0.0009765625,0.2788086,-0.1088867
3489,4.875,7.9375,149.75,-0.2543945,-0.2470703,0.1518555,0.01757813,0.2773438,-0.1098633
3493,12.4375,11.875,114.3125,-0.28125,-0.2202148,0.1904297,0.03173828,0.2739258,-0.1113281
3497,14.6875,22.0625,86.75,-0.4365234,-0.2587891,0.1943359,0.03808594,0.2724609,-0.112793
3501,16.875,16.5625,70.5,-0.6806641,-0.2587891,0.2133789,0.04638672,0.2724609,-0.1142578
3505,8.875,-6.25,65,-0.878418,-0.1733398,0.3134766,0.0546875,0.2700195,-0.1157227
3509,0.625,-22.5,44.125,-0.8007813,-0.1616211,0.3520508,0.05566406,0.2685547,-0.1166992
3513,-2,-16.9375,10.1875,-0.7387695,-0.2275391,0.4057617,0.05957031,0.2661133,-0.1166992
3517,-2.9375,-9.6875,-19,-0.746582,-0.2587891,0.390625,0.05810547,0.2675781,-0.1166992
3521,-9.25,-17.0625,-46.375,-0.715332,-0.2509766,0.409668,0.05566406,0.2700195,-0.1166992
3525,-21.25,-30.1875,-69.75,-0.5292969,-0.3095703,0.4287109,0.04980469,0.2700195,-0.1157227
3529,-36.4375,-43.5,-88.375,-0.3203125,-0.3833008,0.4174805,0.04150391,0.2724609,-0.1142578
3533,-51.1875,-52.8125,-93.25,-0.04492188,-0.5151367,0.3867188,0.03564453,0.2739258,-0.1113281
3537,-48.4375,-44.625,-94.8125,0.1210938,-0.6938477,0.3212891,0.02587891,0.2763672,-0.105957
3541,-33,-24.1875,-98.8125,0.1015625,-0.6938477,0.2402344,0.01513672,0.2788086,-0.1020508
3545,-18.625,-8.6875,-108.0625,-0.06445313,-0.503418,0.2021484,0.008300781,0.2797852,-0.1005859
3549,-16.1875,-8.1875,-126.5625,-0.1611328,-0.340332,0.2021484,-0.004394531,0.28125,-0.09667969
3553,-21.25,-13.9375,-146.8125,-0.2231445,-0.2241211,0.1748047,-0.01757813,0.28125,-0.09667969
3557,-29.125,-29.0625,-164.3125,-0.2080078,-0.1347656,0.1479492,-0.02685547,0.2797852,-0.09228516
3561,-35.9375,-43.9375,-170.5,-0.08007813,-0.1269531,0.1171875,-0.04492188,0.28125,-0.08984375
3566,-35.1875,-51.875,-174.75,0.1054688,-0.2084961,0.08251953,-0.06298828,0.2788086,-0.08544922
3570,-19.6875,-36.25,-192.0625,0.3769531,-0.1308594,0.08642578,-0.07470703,0.2763672,-0.08300781
3574,-7.375,-17,-206.1875,0.3886719,-0.1850586,0.09423828,-0.09375,0.2724609,-0.08007813
3578,3.9375,-20.25,-218.125,0.2954102,-0.04882813,0.05957031,-0.1137695,0.2651367,-0.07763672
3582,-3.125,-56.75,-219.8125,0.2836914,0.09033203,0.07128906,-0.128418,0.2612305,-0.07617188
3586,-18.3125,-68.9375,-248.5,0.9892578,0.2226563,0.1713867,-0.1484375,0.25,-0.07324219
3590,-14.6875,-27.75,-289.1875,1.430664,-0.04882813,0.1289063,-0.1733398,0.2387695,-0.06787109
3594,4.3125,4.375,-322.5625,1.179199,-0.09570313,0.09423828,-0.1914063,0.2285156,-0.06640625
3598,-12.0625,-35.6875,-298.8125,1.074219,0.140625,0.04052734,-0.215332,0.2084961,-0.06396484
3602,-24.5,-77.125,-260,1.291504,-0.1074219,0.02490234,-0.2363281,0.1860352,-0.05859375
3606,-1.375,-66.1875,-244.875,1.612793,-0.2163086,0.05566406,-0.2485352,0.1748047,-0.05273438
3610,27.25,-30.1875,-239.6875,1.608887,-0.07617188,0.1367188,-0.2636719,0.15625,-0.05029297
3614,38.9375,2.0625,-253.125,1.516113,0.269043,0.1904297,-0.2783203,0.1337891,-0.04882813
3618,20.6875,-11.125,-273.6875,1.012207,0.5605469,0.08251953,-0.2866211,0.1186523,-0.05029297
3622,-24.9375,-88.0625,-261.625,1.198242,0.6381836,-0.001464844,-0.2998047,0.09375,-0.04736328
3626,-52.125,-118.3125,-235.6875,1.888184,0.2768555,0.005859375,-0.3081055,0.06982422,-0.03955078
3630,-29.8125,-81.4375,-219.25,2.349121,-0.1499023,0.1020508,-0.3125,0.05615234,-0.02734375
3634,16.6875,-16.4375,-196.375,2.322266,-0.3017578,0.1865234,-0.3198242,0.03369141,-0.02294922
3638,61.0625,31.125,-178.9375,1.942383,-0.2314453,0.1748047,-0.3222656,0.01513672,-0.02441406
3642,95.375,55.5625,-182.5,1.608887,0.08251953,0.1518555,-0.324707,0.00390625,-0.02832031
3646,61.9375,35.8125,-174,1.376465,0.7197266,0.1557617,-0.3271484,-0.01708984,-0.03369141
3650,0.75,-18.625,-141.3125,1.411621,0.4672852,0.2290039,-0.324707,-0.03076172,-0.03662109
3654,-21.5,-49.125,-116.875,1.756348,0.008789063,0.2983398,-0.3271484,-0.04296875,-0.03369141
3658,-22.5,-40,-82.1875,2.054688,-0.09570313,0.3671875,-0.328125,-0.0546875,-0.02978516
3662,-18.6875,-14.8125,-45.0625,1.996582,-0.2163086,0.3364258,-0.3256836,-0.06201172,-0.02587891
3666,-9.375,3,-23.4375,1.748535,-0.2353516,0.2172852,-0.3271484,-0.06201172,-0.02441406
3670,-7.25,4.4375,-6.5625,1.558594,-0.2124023,0.125,-0.328125,-0.06445313,-0.02587891
3674,-8.4375,-2.25,12.0625,1.527832,-0.1850586,0.1132813,-0.3256836,-0.06445313,-0.02587891
3678,-12.8125,-4.4375,33.25,1.585938,-0.1308594,0.144043,-0.324707,-0.06201172,-0.02441406
3682,-16.5625,-3.6875,49.6875,1.605469,-0.09960938,0.1748047,-0.3271484,-0.05810547,-0.02734375
3686,-23.375,-1.6875,70.8125,1.620605,-0.04882813,0.1518555,-0.3271484,-0.05175781,-0.02294922
3690,-27,2.1875,87.8125,1.640137,-0.04541016,0.125,-0.3256836,-0.046875,-0.02587891
3695,-27.125,7.5,102.3125,1.647949,-0.07226563,0.07128906,-0.328125,-0.03808594,-0.02294922
3699,-20.75,15.375,119,1.717773,-0.1191406,0.07128906,-0.3271484,-0.02685547,-0.02441406
3703,-8.625,31,130.0625,1.76416,-0.1191406,0.06738281,-0.324707,-0.01953125,-0.02734375
3707,4.6875,46.125,145.875,1.76416,-0.1152344,0.06738281,-0.3256836,-0.005859375,-0.02978516
3711,14.75,56.5625,162.3125,1.725586,0.01660156,0.08251953,-0.3208008,0.008789063,-0.03662109
3715,6.5625,59.375,178.25,1.578125,0.2148438,0.1098633,-0.3208008,0.02001953,-0.04052734
3719,-10.1875,40.375,188.4375,1.469727,0.300293,0.140625,-0.3164063,0.04003906,-0.04638672
3723,-23.25,31.3125,192.6875,1.500488,0.1914063,0.1289063,-0.3115234,0.05859375,-0.04882813
3727,-19.75,23.1875,204.25,1.481445,0.0009765625,0.09033203,-0.3081055,0.07275391,-0.05029297
3731,-9,14.4375,223.875,1.535645,-0.06054688,0.08642578,-0.3007813,0.08984375,-0.05175781
3735,-1.375,27.875,233.0625,1.744629,0.1367188,0.1635742,-0.2875977,0.1137695,-0.05273438
3739,-1.4375,47.9375,233.9375,1.558594,0.06298828,0.1289063,-0.2817383,0.1264648,-0.05566406
3743,7.5625,53.1875,236.5,1.361328,0.01269531,0.08642578,-0.2700195,0.1474609,-0.05957031
3747,9.5625,43.125,239.0625,1.182617,0.03222656,0.07519531,-0.2543945,0.1660156,-0.0625
3751,11.5625,35.875,240.8125,1.268066,0.03613281,0.1171875,-0.2426758,0.1801758,-0.06933594
3755,7.875,34.1875,244,1.287598,0.02832031,0.159668,-0.2255859,0.1972656,-0.07080078
3759,9.75,34.8125,249.6875,1.26416,-0.06835938,0.1479492,-0.2080078,0.2138672,-0.07324219
3763,16.3125,46.5625,255.25,1.302734,-0.1459961,0.159668,-0.1938477,0.2226563,-0.07763672
3767,36.625,72.0625,252.3125,1.159668,-0.1772461,0.125,-0.1733398,0.2373047,-0.08300781
3771,47.25,87.6875,244.125,0.9501953,-0.04150391,0.1098633,-0.1474609,0.2485352,-0.09082031
3775,44.5,87.3125,228.6875,0.7797852,0.09814453,0.144043,-0.1318359,0.2539063,-0.09765625
3779,29,82.125,221.0625,0.6948242,0.1176758,0.1748047,-0.1079102,0.262207,-0.1044922
3783,16.0625,63.1875,219.75,0.659668,-0.07226563,0.2368164,-0.08789063,0.2661133,-0.1098633
3787,6.6875,40.5,233.125,0.6289063,-0.1850586,0.2866211,-0.07226563,0.2700195,-0.112793
3791,9.6875,41,246,0.59375,-0.2939453,0.2250977,-0.04736328,0.2739258,-0.1142578
3795,27.8125,62.75,238.75,0.3925781,-0.2470703,0.1713867,-0.0234375,0.2763672,-0.1166992
3799,37.125,83.125,212.75,0.09375,-0.06445313,0.1713867,-0.009277344,0.2749023,-0.1166992
3803,32.25,87.375,192,-0.2851563,-0.02587891,0.144043,0.01513672,0.2724609,-0.1235352
3807,19.875,68.375,177.9375,-0.5332031,0.1445313,0.1904297,0.03662109,0.2685547,-0.125
3811,7.25,23.75,163.25,-1.141602,0.140625,0.1171875,0.04882813,0.2675781,-0.1279297
3815,-1.125,-4.5,131.875,-1.118652,0.15625,0.1826172,0.06298828,0.2651367,-0.1264648
3819,3.3125,3.5,77.125,-1.009766,0.09423828,0.2250977,0.07226563,0.2612305,-0.1264648
3824,16.8125,23.8125,23.25,-0.9985352,-0.006347656,0.2021484,0.07714844,0.2597656,-0.1264648
3828,29.25,34.875,-17.3125,-1.044922,0.0009765625,0.1748047,0.07958984,0.2587891,-0.1289063
3832,25,21.5625,-53.9375,-1.087402,0.04736328,0.1865234,0.07714844,0.2573242,-0.1289063
3836,4.375,-14.5,-81.25,-0.9130859,0.05126953,0.2480469,0.07470703,0.2597656,-0.1318359
3840,-20.625,-43.5,-100.6875,-0.5488281,-0.09179688,0.2788086,0.06396484,0.2612305,-0.1333008
3844,-30.8125,-46.1875,-115.6875,-0.215332,-0.2978516,0.2441406,0.05322266,0.262207,-0.1289063
3848,-22.5625,-28.375,-135.3125,-0.1030273,-0.4140625,0.2172852,0.04492188,0.2685547,-0.1279297
3852,-20.625,-33.0625,-154.8125,-0.08007813,-0.355957,0.2368164,0.03076172,0.2700195,-0.1279297
3856,-27.3125,-45.375,-157.9375,0.008789063,-0.3911133,0.2402344,0.01416016,0.2724609,-0.125
3860,-34.25,-59.1875,-162.4375,0.2294922,-0.4375,0.2519531,0.002441406,0.2763672,-0.1196289
3864,-32.9375,-58.0625,-159.0625,0.3071289,-0.581543,0.2329102,-0.01513672,0.2763672,-0.1166992
3868,-17.875,-46.375,-166.3125,0.3266602,-0.5776367,0.1865234,-0.03076172,0.2763672,-0.1142578
3872,-0.375,-31,-176.625,0.3110352,-0.5151367,0.1748047,-0.04394531,0.2739258,-0.112793
3876,15.125,-18.125,-190.5625,0.2607422,-0.4257813,0.1635742,-0.06054688,0.2709961,-0.1113281
3880,17.25,-35.875,-195.1875,0.1015625,-0.2275391,0.1518555,-0.08056641,0.2685547,-0.112793
3884,-7.125,-81.9375,-182.6875,0.1518555,-0.05273438,0.1826172,-0.09472656,0.2651367,-0.1142578
3888,-27.8125,-118.375,-168.8125,0.4155273,-0.2084961,0.1367188,-0.112793,0.2597656,-0.1074219
3892,-21.8125,-109.25,-175,0.8920898,-0.2978516,0.1982422,-0.128418,0.2539063,-0.1020508
3896,-1.75,-51.125,-209.75,1.089844,-0.2900391,0.2133789,-0.1425781,0.2485352,-0.09667969
3900,5.6875,-39,-226.8125,0.9311523,-0.2084961,0.1674805,-0.1625977,0.2397461,-0.09375
3904,-8.875,-67,-209.0625,0.8881836,-0.09179688,0.1557617,-0.1831055,0.2275391,-0.09082031
3908,-35.875,-113,-177.75,1.244629,-0.1459961,0.1557617,-0.1948242,0.2211914,-0.08544922
3912,-38.3125,-96.6875,-168.3125,1.841797,-0.387207,0.1865234,-0.2104492,0.2084961,-0.07763672
3916,-5.1875,-28.4375,-183.9375,1.779785,-0.6123047,0.1982422,-0.2246094,0.1987305,-0.06933594
3920,38.8125,22.4375,-200.9375,1.430664,-0.421875,0.1674805,-0.2329102,0.1884766,-0.06933594
3924,54.3125,34,-207,0.9389648,-0.1230469,0.1367188,-0.2460938,0.1738281,-0.07324219
3928,37.5,-12.375,-191.8125,0.5395508,0.1835938,0.09814453,-0.2568359,0.1547852,-0.07763672
3932,0.1875,-71.25,-181.125,0.7216797,0.4125977,0.1367188,-0.2651367,0.1459961,-0.07470703
3936,-26.6875,-99.125,-173.9375,1.171387,0.1367188,0.1367188,-0.2768555,0.1313477,-0.06933594
3940,-10.8125,-71.875,-180.75,1.612793,-0.04882813,0.1674805,-0.2875977,0.1162109,-0.05957031
3944,20.375,-22,-203.125,1.469727,0.0009765625,0.09814453,-0.2924805,0.1049805,-0.05566406
3948,31.125,-20.875,-213.375,1.027832,0.3041992,0.001953125,-0.2998047,0.08496094,-0.05566406
3953,5.5625,-67.4375,-210.625,0.9580078,0.5566406,-0.03222656,-0.309082,0.06396484,-0.05273438
3957,-24.3125,-106.4375,-200.125,1.48877,0.4125977,0.03271484,-0.3125,0.04882813,-0.04492188
3961,-32.5625,-92.5625,-194.1875,2.155273,0.2226563,0.1674805,-0.3188477,0.03125,-0.03515625
3965,-33,-54.8125,-172.1875,2.248535,0.03613281,0.1904297,-0.3198242,0.01367188,-0.02734375
3969,-42.0625,-53.25,-133.375,1.954102,-0.06445313,0.08251953,-0.324707,0.00390625,-0.02294922
3973,-47.625,-59.25,-102.4375,1.996582,-0.2392578,0.02880859,-0.324707,-0.01074219,-0.01757813
3977,-30.3125,-41.625,-71.1875,2.097168,-0.6435547,0.02490234,-0.324707,-0.01806641,-0.01220703
3981,2.6875,-13.1875,-43.5625,2.046875,-0.7250977,0.1020508,-0.3271484,-0.0234375,-0.006835938
3985,26.375,14.9375,-17.125,1.915039,-0.5620117,0.2172852,-0.324707,-0.02832031,-0.009277344
3989,32.1875,26.3125,2.8125,1.651855,-0.355957,0.2788086,-0.3256836,-0.02832031,-0.01220703
3993,15.375,15.375,24.4375,1.42334,-0.1811523,0.3017578,-0.328125,-0.02685547,-0.01220703
3997,-8.6875,-0.8125,44.3125,1.411621,-0.1347656,0.3134766,-0.328125,-0.02441406,-0.01464844
4001,-22.0625,-2.5,58.4375,1.504395,-0.2275391,0.2519531,-0.3271484,-0.01953125,-0.01464844
4005,-21.375,4.1875,71.1875,1.574219,-0.3095703,0.1826172,-0.3256836,-0.01464844,-0.01367188
4009,-12.875,16.5,86.4375,1.655762,-0.3637695,0.09814453,-0.3256836,-0.006835938,-0.01464844
4013,1.75,32.75,102.1875,1.771973,-0.402832,0.04443359,-0.324707,0.00390625,-0.01611328
4017,14.625,44.25,120.875,1.713867,-0.2822266,0.01367188,-0.3222656,0.01025391,-0.01904297
4021,7.3125,34.8125,146.8125,1.601563,-0.09960938,0.02880859,-0.3208008,0.02148438,-0.02294922
4025,-3.6875,22.6875,167.9375,1.601563,-0.06835938,0.04443359,-0.3188477,0.04003906,-0.02587891
4029,-10.8125,19.0625,182,1.616699,-0.05664063,0.05566406,-0.3149414,0.04980469,-0.02832031
4033,-9.5625,26.125,188.375,1.659668,-0.1191406,0.04785156,-0.309082,0.06738281,-0.02978516
4037,0.9375,40,189.6875,1.558594,-0.1577148,0.04443359,-0.3032227,0.08496094,-0.03271484
4041,5.1875,38.5,195.3125,1.484863,-0.06835938,0.05957031,-0.2973633,0.09619141,-0.03369141
4045,-5.8125,27.3125,209.3125,1.458008,-0.02587891,0.06738281,-0.2900391,0.1162109,-0.03808594
4049,-7.375,24.625,220.125,1.527832,-0.1347656,0.08642578,-0.2768555,0.1323242,-0.04052734
4053,1.6875,38.375,220.875,1.481445,-0.1694336,0.07128906,-0.2709961,0.1489258,-0.04199219
4057,12.3125,44.25,222,1.341797,-0.1459961,0.02880859,-0.2578125,0.1660156,-0.04492188
4061,19.8125,43,224.5625,1.225586,-0.1499023,0.04052734,-0.2426758,0.1835938,-0.05029297
4065,18.5625,38.5625,222.625,1.213867,-0.03369141,0.07128906,-0.2304688,0.1948242,-0.05419922
4069,12,33.3125,224.125,1.147949,-0.08789063,0.08251953,-0.215332,0.2099609,-0.05712891
4073,14.6875,34.8125,222.1875,1.194336,-0.1928711,0.09814453,-0.1972656,0.2226563,-0.06103516
4077,20.625,40.125,220.6875,1.155762,-0.2202148,0.09814453,-0.1855469,0.2314453,-0.06542969
4082,30.75,48.4375,226.625,1.078125,-0.2705078,0.1020508,-0.1650391,0.2436523,-0.06787109
4086,33,53.9375,223,0.9541016,-0.1616211,0.1132813,-0.1450195,0.2539063,-0.07470703
4090,33.625,53.125,221.75,0.6713867,-0.1967773,0.07519531,-0.1293945,0.2597656,-0.07861328
4094,28.0625,42.25,214.3125,0.6479492,-0.1152344,0.1328125,-0.1103516,0.2651367,-0.08544922
4098,23.25,39.25,209.5625,0.6171875,-0.2202148,0.1557617,-0.08789063,0.2724609,-0.08837891
4102,27.5625,42,202,0.5859375,-0.2939453,0.159668,-0.07324219,0.2749023,-0.09228516
4106,28,44.625,191,0.4853516,-0.2353516,0.1826172,-0.05419922,0.2773438,-0.09521484
4110,24.1875,42.4375,189.5,0.3769531,-0.2783203,0.1826172,-0.03515625,0.2788086,-0.1005859
4114,20.9375,37.875,179.875,0.2138672,-0.2431641,0.2060547,-0.02099609,0.2788086,-0.1020508
4118,8.1875,26.1875,170.3125,0.09765625,-0.2006836,0.2368164,-0.004394531,0.2797852,-0.1035156
4122,-6.125,10.5,160.875,0.02441406,-0.2470703,0.2558594,0.01269531,0.2773438,-0.1044922
4126,-2.25,16.25,140.5625,0.03173828,-0.3793945,0.2597656,0.02490234,0.2788086,-0.1044922
4130,9.625,38.4375,120.5625,-0.07226563,-0.402832,0.2558594,0.03662109,0.2763672,-0.1035156
4134,20.25,43.875,112.4375,-0.3862305,-0.3833008,0.2060547,0.04980469,0.2739258,-0.105957
4138,28.0625,41.625,96.1875,-0.5874023,-0.2626953,0.2290039,0.05810547,0.2709961,-0.1074219
4142,26.375,36.875,70.6875,-0.6884766,-0.1269531,0.2441406,0.06787109,0.2675781,-0.1088867
4146,23.125,28.75,40.875,-0.8237305,-0.08007813,0.2636719,0.07373047,0.2661133,-0.1113281
4150,11.5625,17.625,9.9375,-0.8393555,-0.03759766,0.3017578,0.07617188,0.2651367,-0.1098633
4154,-3,2,-18.875,-0.796875,-0.09960938,0.3291016,0.07714844,0.2651367,-0.1142578
4158,-15.5625,-10.625,-45.1875,-0.5874023,-0.1889648,0.3251953,0.07226563,0.2661133,-0.1113281
4162,-24.3125,-13.875,-71.125,-0.3974609,-0.324707,0.3095703,0.07128906,0.2675781,-0.1113281
4166,-27.875,-18.5,-87.3125,-0.2348633,-0.4726563,0.2905273,0.06298828,0.2700195,-0.1088867
4170,-27.75,-18.125,-93.5,-0.05273438,-0.6279297,0.2597656,0.0546875,0.2709961,-0.105957
4174,-18.125,-11.3125,-97.3125,0.004882813,-0.7094727,0.2329102,0.04736328,0.2749023,-0.1035156
4178,-10.25,-5.6875,-107.875,-0.01416016,-0.6357422,0.2290039,0.03808594,0.2763672,-0.1005859
4182,-10.6875,-9.25,-116.0625,-0.01806641,-0.6123047,0.2133789,0.02734375,0.2773438,-0.1005859
4186,-11.375,-13.0625,-122.25,-0.002441406,-0.6044922,0.2021484,0.01904297,0.2797852,-0.09912109
4190,-7.0625,-16.125,-131.6875,-0.002441406,-0.6123047,0.1865234,0.004394531,0.28125,-0.09765625
4194,1.3125,-14.3125,-142.5625,0.08642578,-0.6044922,0.1748047,-0.0078125,0.2822266,-0.09765625
4198,7.875,-12.25,-154.6875,0.1518555,-0.5268555,0.1943359,-0.01611328,0.28125,-0.09521484
4202,6.8125,-15.25,-167,0.140625,-0.4609375,0.2250977,-0.03417969,0.2797852,-0.1005859
4206,-3.6875,-30.75,-171.375,0.2294922,-0.4296875,0.2290039,-0.05078125,0.2797852,-0.09667969
4211,-13.0625,-46.875,-165.5625,0.3535156,-0.5268555,0.2402344,-0.06152344,0.2749023,-0.09667969
4215,-8.0625,-46.625,-162.25,0.5898438,-0.6435547,0.2329102,-0.078125,0.2739258,-0.09375
4219,5.5625,-30.375,-165.3125,0.7529297,-0.6201172,0.2558594,-0.09375,0.2700195,-0.09228516
4223,14.1875,-13.1875,-170.5,0.8032227,-0.5698242,0.2597656,-0.1069336,0.2651367,-0.09228516
4227,19.25,-2.25,-173.5,0.7294922,-0.503418,0.2519531,-0.1210938,0.2597656,-0.09375
4231,10.0625,-18.375,-170.9375,0.5239258,-0.3754883,0.2133789,-0.1376953,0.2524414,-0.09375
4235,-9.1875,-55.5625,-159.5625,0.6171875,-0.3833008,0.1865234,-0.1484375,0.2475586,-0.09228516
4239,-12.1875,-68.5,-149.875,0.9116211,-0.5620117,0.1787109,-0.1625977,0.2412109,-0.08691406
4243,7.3125,-42.375,-152.6875,1.155762,-0.6162109,0.2094727,-0.1782227,0.2324219,-0.08300781
4247,35.75,2.3125,-164.75,1.082031,-0.5966797,0.1826172,-0.1865234,0.2260742,-0.08544922
4251,60,27.125,-171.1875,0.7954102,-0.4804688,0.1289063,-0.2006836,0.2163086,-0.08837891
4255,63.5,8.4375,-169.75,0.4506836,-0.2045898,0.1171875,-0.2128906,0.2050781,-0.09375
4259,30.75,-54.0625,-169.9375,0.3378906,0.1367188,0.125,-0.2197266,0.1948242,-0.09521484
4263,-10.9375,-108.6875,-164.3125,0.7451172,0.1137695,0.1826172,-0.234375,0.1835938,-0.09082031
4267,-25.1875,-108.5625,-173,1.209961,-0.1152344,0.2211914,-0.2470703,0.1699219,-0.08007813
4271,-2.5,-60.625,-190.0625,1.508301,-0.3208008,0.2368164,-0.253418,0.1625977,-0.07617188
4275,36.25,0.9375,-196.6875,1.426758,-0.3754883,0.2133789,-0.2661133,0.1435547,-0.07177734
4279,67.6875,29.8125,-196.625,1.016113,-0.1811523,0.1132813,-0.2758789,0.1274414,-0.07617188
4283,77.8125,16.875,-203.5,0.7993164,0.1098633,0.06738281,-0.2841797,0.1137695,-0.08007813
4287,69.5,-7,-207.8125,0.7915039,0.3193359,0.06738281,-0.2915039,0.09521484,-0.08447266
4291,58.1875,-32.375,-209.3125,0.9311523,0.4165039,0.1132813,-0.2998047,0.07373047,-0.08544922
4295,50.5,-46,-212,1.186523,0.4013672,0.1982422,-0.3032227,0.05761719,-0.08544922
4299,53.6875,-38.25,-211,1.43457,0.3818359,0.2675781,-0.3115234,0.03613281,-0.07861328
4303,55.125,-23.125,-203.625,1.523926,0.4711914,0.3095703,-0.3149414,0.01611328,-0.08007813
4307,42.0625,-21.625,-192.375,1.539551,0.5175781,0.3095703,-0.3198242,0.00390625,-0.07617188
4311,26.125,-28.0625,-171.75,1.558594,0.4477539,0.3017578,-0.3208008,-0.01708984,-0.07617188
4315,14.8125,-35.1875,-150.0625,1.616699,0.3193359,0.2905273,-0.3208008,-0.03564453,-0.07324219
4319,13.1875,-33.0625,-125.3125,1.663574,0.1601563,0.2636719,-0.3232422,-0.04443359,-0.07080078
4323,24.1875,-19.8125,-103.8125,1.644043,0.03613281,0.2597656,-0.3222656,-0.05566406,-0.06787109
4327,39.8125,-1.8125,-86.75,1.5625,0.02441406,0.2866211,-0.3232422,-0.06591797,-0.06640625
4331,54.125,15,-75.6875,1.430664,0.06689453,0.3481445,-0.3232422,-0.07177734,-0.06542969
4335,63.75,30.75,-68.4375,1.341797,0.1098633,0.3828125,-0.3222656,-0.078125,-0.06640625
4340,61.5,37.875,-61.875,1.159668,0.2456055,0.4287109,-0.3198242,-0.08837891,-0.07177734
4344,47.5,30.3125,-47.0625,1.05127,0.4013672,0.4560547,-0.3173828,-0.09326172,-0.07470703
4348,28.1875,19.6875,-39.75,1.008301,0.3974609,0.4750977,-0.3164063,-0.09814453,-0.07617188
4352,12.1875,11.375,-37.5,1.008301,0.4086914,0.4326172,-0.3173828,-0.1020508,-0.07763672
4356,0.625,3.1875,-32.6875,1.043457,0.3505859,0.390625,-0.3149414,-0.1054688,-0.07763672
4360,-6.0625,0,-24.5625,1.113281,0.3466797,0.3364258,-0.3149414,-0.1069336,-0.07861328
4364,-13.5625,-0.5625,-14,1.128418,0.3583984,0.2866211,-0.3164063,-0.109375,-0.07861328
4368,-16,0.1875,-4.0625,1.124512,0.3041992,0.2211914,-0.3149414,-0.1083984,-0.07861328
4372,-12.9375,4.25,5.875,1.147949,0.3193359,0.1943359,-0.3149414,-0.1118164,-0.07861328
4376,-9.375,8.875,13.625,1.082031,0.3081055,0.1557617,-0.3149414,-0.109375,-0.07763672
4380,-3.4375,11.5625,20,1.039551,0.3041992,0.1367188,-0.3149414,-0.1069336,-0.07861328
