Packet number,Gyroscope X (deg/s),Gyroscope Y (deg/s),Gyroscope Z (deg/s),Accelerometer X (g),Accelerometer Y (g),Accelerometer Z (g),Magnetometer X (G),Magnetometer Y (G),Magnetometer Z (G)
2,6.8125,-0.1875,0,0.9116211,0.1796875,0.2788086,-0.331543,-0.02197266,-0.05273438
6,4.8125,-1.0625,-1.5,0.9116211,0.1757813,0.2709961,-0.331543,-0.02197266,-0.05273438
10,0.6875,-3,-0.5625,0.9272461,0.1796875,0.2866211,-0.331543,-0.02197266,-0.05419922
14,-4.5625,-5.5,1.8125,0.9350586,0.15625,0.3017578,-0.3330078,-0.02441406,-0.05175781
18,-7.8125,-5.8125,4.25,0.9814453,0.1333008,0.2983398,-0.3305664,-0.02197266,-0.05175781
22,-11.625,-5.4375,9.125,1.000488,0.1098633,0.3056641,-0.3330078,-0.02197266,-0.05029297
26,-14.0625,-6.0625,13.25,0.9814453,0.1020508,0.2983398,-0.331543,-0.02197266,-0.05029297
30,-15.5625,-6.25,14.375,0.9931641,0.1020508,0.3017578,-0.331543,-0.02050781,-0.05273438
34,-21.5,-7.9375,17.375,0.9970703,0.121582,0.3251953,-0.331543,-0.01708984,-0.05029297
38,-28.875,-8.375,21.625,1.023926,0.09033203,0.3520508,-0.3330078,-0.01708984,-0.04882813
42,-39.9375,-8.8125,28.25,1.02002,0.1137695,0.375,-0.3330078,-0.01074219,-0.04638672
46,-55.625,-13,37.375,1.031738,0.1020508,0.409668,-0.331543,-0.01074219,-0.04492188
50,-68.875,-14.0625,44.875,1.074219,0.03222656,0.4213867,-0.331543,-0.005859375,-0.04199219
54,-75.9375,-11.125,50.875,1.078125,-0.01416016,0.390625,-0.331543,-0.001953125,-0.04052734
58,-81.9375,-9.125,57.4375,1.070313,-0.01806641,0.3637695,-0.3295898,0.001464844,-0.04052734
62,-85.625,-6.8125,61.9375,1.066406,-0.05664063,0.355957,-0.3271484,0.01025391,-0.03955078
66,-86.5,-2.3125,64,1.078125,-0.08789063,0.3442383,-0.328125,0.01611328,-0.03662109
70,-92.1875,-2.375,68.25,1.059082,-0.09960938,0.3520508,-0.328125,0.02148438,-0.03369141
74,-97.4375,-3.9375,76.4375,1.109375,-0.1811523,0.355957,-0.3256836,0.02880859,-0.03271484
78,-94.1875,3.25,83.0625,1.194336,-0.2666016,0.3520508,-0.3256836,0.03857422,-0.03125
82,-87,11.3125,84.8125,1.16748,-0.3286133,0.3173828,-0.3222656,0.04492188,-0.02978516
86,-82.3125,13.5,91.625,1.163574,-0.3364258,0.2944336,-0.3208008,0.05126953,-0.02832031
90,-78.75,13.4375,104.8125,1.175293,-0.4257813,0.2866211,-0.3188477,0.0625,-0.02734375
94,-66.3125,15.75,115,1.241211,-0.4804688,0.2827148,-0.3164063,0.06884766,-0.02734375
98,-55.5,21.9375,123,1.248535,-0.484375,0.2749023,-0.3115234,0.08105469,-0.02587891
102,-44.6875,27.625,131.3125,1.268066,-0.503418,0.2597656,-0.3066406,0.09228516,-0.02587891
106,-41.875,29.4375,141.4375,1.19043,-0.5268555,0.2480469,-0.3032227,0.1010742,-0.03125
110,-39.0625,26.375,151.3125,1.233398,-0.5,0.2675781,-0.2958984,0.1162109,-0.02978516
115,-44,26,155.6875,1.213867,-0.5,0.2709961,-0.2890625,0.1274414,-0.03125
119,-47.875,21.3125,161.4375,1.22168,-0.5776367,0.2597656,-0.2827148,0.1362305,-0.03125
123,-44.5625,16.4375,175.1875,1.244629,-0.7172852,0.2290039,-0.2724609,0.1523438,-0.02832031
127,-29.4375,16.125,188.6875,1.22168,-0.7792969,0.1943359,-0.2626953,0.1674805,-0.02978516
131,-12.8125,17.4375,194.125,1.229492,-0.7133789,0.2060547,-0.253418,0.1762695,-0.02978516
135,-5.5,22.75,191.25,1.26416,-0.5854492,0.2480469,-0.2402344,0.1923828,-0.03125
139,-4.1875,27.875,188.125,1.19043,-0.6044922,0.2402344,-0.2280273,0.2050781,-0.03271484
143,-0.875,28.5,192.625,1.070313,-0.5966797,0.2094727,-0.2172852,0.2148438,-0.03369141
147,-3.75,18.8125,201.0625,1.074219,-0.6279297,0.2250977,-0.2045898,0.2260742,-0.03515625
151,-4.0625,17.4375,205.625,1.121094,-0.5893555,0.2636719,-0.1855469,0.2397461,-0.03515625
155,-1.375,26.5,198.8125,1.105469,-0.5854492,0.2827148,-0.1772461,0.2460938,-0.03955078
159,1.8125,28.4375,194.4375,0.9462891,-0.6279297,0.2636719,-0.1582031,0.2573242,-0.04199219
163,-1.75,24.9375,194.625,0.9462891,-0.6005859,0.2944336,-0.1401367,0.2636719,-0.04199219
167,4.8125,27.5,196.375,0.8300781,-0.7016602,0.2636719,-0.1269531,0.2685547,-0.04199219
171,21.875,29.8125,198.625,0.8261719,-0.7680664,0.2519531,-0.109375,0.2763672,-0.04492188
175,36,37.25,198,0.7719727,-0.5737305,0.2709961,-0.08886719,0.2836914,-0.04882813
179,37.25,44.125,194.8125,0.7138672,-0.5385742,0.2675781,-0.07714844,0.2836914,-0.05273438
183,28.1875,39.5625,190.125,0.5512695,-0.4570313,0.2866211,-0.05664063,0.2885742,-0.05859375
187,10.5,32.0625,188.6875,0.5473633,-0.4648438,0.3173828,-0.03662109,0.2900391,-0.0625
191,-4.9375,22.75,193.1875,0.5317383,-0.6860352,0.3134766,-0.02490234,0.2910156,-0.06396484
195,-1.625,22,192.5625,0.4658203,-0.7524414,0.2983398,-0.003417969,0.2910156,-0.0625
199,4,25.0625,196.75,0.4467773,-0.7211914,0.2675781,0.01513672,0.2885742,-0.06542969
203,7.5625,23.125,200.125,0.2875977,-0.6474609,0.2709961,0.02832031,0.2875977,-0.06542969
207,11.9375,26.75,192.625,0.2646484,-0.5927734,0.2441406,0.04980469,0.2822266,-0.06542969
211,16.625,29.25,188.5,0.1289063,-0.5927734,0.2441406,0.06884766,0.2788086,-0.06640625
215,26.9375,29.3125,188.9375,0.004882813,-0.4960938,0.2250977,0.08203125,0.2749023,-0.06640625
219,33.8125,30.625,187.75,-0.1499023,-0.3325195,0.2021484,0.09863281,0.2709961,-0.06933594
223,43.375,31,179.625,-0.328125,-0.1499023,0.159668,0.1152344,0.2612305,-0.07177734
227,49.25,28.625,155.9375,-0.5605469,0.105957,0.1635742,0.128418,0.2573242,-0.07470703
231,49.8125,27.8125,132.3125,-0.7578125,0.2651367,0.1518555,0.1416016,0.2485352,-0.07861328
235,50.0625,18.875,94.75,-0.8046875,0.5175781,0.1635742,0.1547852,0.2426758,-0.08544922
239,45.375,13.75,56.9375,-0.8935547,0.5410156,0.1904297,0.1606445,0.2387695,-0.08544922
244,32.6875,5.75,16.25,-0.9091797,0.5991211,0.2329102,0.1630859,0.2348633,-0.08984375
248,10.6875,-5.25,-25.875,-0.8046875,0.5410156,0.3095703,0.1630859,0.2363281,-0.09082031
252,-16.625,-13.8125,-59.0625,-0.6342773,0.2963867,0.3442383,0.1606445,0.2363281,-0.08837891
256,-38.5,-20.9375,-84.0625,-0.4868164,0.06298828,0.390625,0.1533203,0.2397461,-0.08984375
260,-62.1875,-25.5625,-97.9375,-0.28125,-0.2744141,0.3867188,0.1459961,0.2451172,-0.08544922
264,-67.875,-23,-92.5,-0.1572266,-0.6938477,0.3212891,0.1416016,0.2475586,-0.08300781
268,-41.6875,-10.8125,-84.9375,-0.2734375,-1.405273,0.1943359,0.1308594,0.2539063,-0.07861328
272,-5.25,0.0625,-103.4375,-0.2270508,-0.7016602,0.1904297,0.1235352,0.2587891,-0.07617188
276,4.6875,3.25,-116.5,-0.2504883,-0.4765625,0.2636719,0.1176758,0.262207,-0.07763672
280,-14.3125,-8,-121.1875,-0.2851563,-0.3637695,0.2675781,0.1044922,0.2661133,-0.07617188
284,-36.8125,-21.5625,-125.625,-0.2426758,-0.3481445,0.2788086,0.09277344,0.2709961,-0.07324219
288,-46.5625,-24.875,-130.625,-0.1108398,-0.421875,0.2519531,0.08447266,0.2763672,-0.06933594
292,-36.4375,-23.375,-139,-0.1459961,-0.5151367,0.1713867,0.07226563,0.2788086,-0.06542969
296,-15.5625,-22.0625,-156.1875,-0.1069336,-0.4609375,0.1479492,0.05712891,0.2836914,-0.06396484
300,-0.5,-21.0625,-166.0625,-0.02587891,-0.4179688,0.1367188,0.04736328,0.2851563,-0.06103516
304,4.8125,-25.9375,-177.625,-0.006347656,-0.3017578,0.1518555,0.02832031,0.2900391,-0.06103516
308,4.125,-33.6875,-189.1875,0.1015625,-0.3056641,0.1635742,0.009277344,0.2885742,-0.06103516
312,9.25,-35.5,-206.4375,0.2758789,-0.4101563,0.1635742,-0.001953125,0.2900391,-0.06103516
316,25.5,-33,-222.25,0.3457031,-0.453125,0.1674805,-0.0234375,0.2900391,-0.0625
320,24.5625,-38.1875,-244.4375,0.4580078,-0.2587891,0.2329102,-0.04833984,0.2885742,-0.06542969
324,-2.5,-44.125,-262.125,0.644043,-0.1308594,0.2866211,-0.06640625,0.2851563,-0.06640625
328,-34.375,-52,-254.75,0.7216797,-0.3364258,0.2172852,-0.09033203,0.2797852,-0.06103516
332,-26.5625,-51.375,-254.8125,0.7954102,-0.5854492,0.1098633,-0.1152344,0.2709961,-0.05566406
336,4.375,-43.5,-257.8125,0.8613281,-0.6748047,0.05566406,-0.1328125,0.2651367,-0.05273438
340,38.75,-41.75,-251.4375,0.7680664,-0.519043,0.005859375,-0.1567383,0.2563477,-0.05273438
344,40.3125,-59.125,-256.6875,0.8149414,0.02441406,0.07128906,-0.1791992,0.2412109,-0.05175781
348,6.75,-81.625,-255.5,0.9970703,0.0009765625,0.144043,-0.1938477,0.2324219,-0.05175781
352,1.8125,-85.25,-257.875,1.279785,-0.2587891,0.1289063,-0.2138672,0.2138672,-0.04492188
356,34.375,-75.5,-260.5,1.42334,-0.484375,0.1210938,-0.2353516,0.1972656,-0.04052734
360,80.4375,-64.375,-258.875,1.442383,-0.4101563,0.1132813,-0.2460938,0.1860352,-0.03515625
364,82.3125,-77.375,-267.8125,1.438477,0.2070313,0.1635742,-0.2636719,0.1635742,-0.03808594
368,15.25,-106.4375,-273.4375,1.833984,0.4555664,0.2788086,-0.2807617,0.1425781,-0.03125
373,-34.4375,-107.625,-249.25,2.26416,-0.3598633,0.3710938,-0.2890625,0.1264648,-0.02587891
377,-9.875,-79.1875,-222.625,2.426758,-1.665527,0.375,-0.3007813,0.1025391,-0.01367188
381,62.8125,-23.625,-183.625,2.527344,-1.342773,0.5097656,-0.309082,0.08496094,-0.01074219
385,139.4375,21.8125,-153.625,2.066406,-1.203125,0.4135742,-0.3115234,0.07275391,-0.01074219
389,147.5625,27.75,-130.3125,1.407715,-0.340332,0.2827148,-0.3173828,0.05859375,-0.01757813
393,66.8125,-28.125,-99.1875,1.02002,-0.1035156,0.409668,-0.3198242,0.04736328,-0.02050781
397,-0.1875,-67.875,-62.375,1.496582,-0.6005859,0.6865234,-0.3222656,0.04003906,-0.02148438
401,-5.875,-51.125,-28,1.856934,-1.016602,0.8867188,-0.3222656,0.03759766,-0.01367188
405,8.8125,-9.375,-0.1875,1.791016,-0.9350586,0.871582,-0.324707,0.03369141,-0.01074219
409,1.75,10.4375,16.875,1.372559,-0.7016602,0.7290039,-0.3232422,0.03271484,-0.01074219
413,-23.3125,7.875,33.4375,1.22168,-0.6591797,0.605957,-0.324707,0.03613281,-0.009277344
417,-40.3125,6.0625,49.5625,1.314453,-0.7641602,0.590332,-0.3222656,0.04150391,-0.01074219
421,-46.375,15.75,68.5,1.426758,-0.8066406,0.5444336,-0.3222656,0.04248047,-0.009277344
425,-54.0625,24.125,88,1.415527,-0.7563477,0.4907227,-0.3198242,0.05273438,-0.01220703
429,-67.5625,27.75,108.875,1.516113,-0.7524414,0.4482422,-0.3164063,0.06005859,-0.01074219
433,-77.8125,33.8125,130.25,1.585938,-0.8417969,0.3979492,-0.3125,0.06884766,-0.009277344
437,-77.1875,38.6875,157.375,1.659668,-0.9389648,0.3291016,-0.3115234,0.08251953,-0.01367188
441,-66.9375,45.875,185.0625,1.678711,-0.9467773,0.2709961,-0.3041992,0.09619141,-0.01367188
445,-55.1875,48.75,202.75,1.682617,-0.8686523,0.2558594,-0.2983398,0.1064453,-0.01757813
449,-59.8125,46.0625,223.5,1.729004,-0.7368164,0.2709961,-0.2851563,0.1264648,-0.01757813
453,-61.75,43.75,250,1.666992,-0.8261719,0.2021484,-0.2744141,0.1459961,-0.01904297
457,-48,44.25,265.125,1.624512,-0.8339844,0.1904297,-0.2636719,0.1611328,-0.01904297
461,-23,54.625,264,1.632324,-0.7988281,0.1943359,-0.2485352,0.1835938,-0.02050781
465,-3.1875,66.8125,265.1875,1.550781,-0.6821289,0.2094727,-0.2280273,0.2011719,-0.02441406
469,3.5,66.1875,270.375,1.330078,-0.5581055,0.1557617,-0.215332,0.2148438,-0.03125
473,-13.9375,48.5,279.625,1.206055,-0.3989258,0.159668,-0.1962891,0.2324219,-0.03515625
477,-24.6875,34.125,292.1875,1.22168,-0.550293,0.1748047,-0.1699219,0.25,-0.03515625
481,-6.8125,39.875,287.5,1.244629,-0.6318359,0.1713867,-0.1557617,0.2573242,-0.03369141
485,19.75,51.0625,276.9375,1.144043,-0.6279297,0.1132813,-0.1259766,0.2700195,-0.04052734
489,31.6875,52.3125,266.3125,1.124512,-0.4921875,0.1367188,-0.1010742,0.2788086,-0.04345703
493,32.25,52.5,275.6875,0.9775391,-0.4179688,0.1210938,-0.08398438,0.2822266,-0.04736328
497,20.6875,41.3125,279.8125,0.9116211,-0.3754883,0.1289063,-0.05566406,0.2885742,-0.05273438
502,20.9375,38.5,277.875,0.7216797,-0.3598633,0.1132813,-0.02685547,0.2924805,-0.05419922
506,21,34.4375,261.9375,0.6982422,-0.3364258,0.1367188,-0.006835938,0.2910156,-0.05859375
510,23.1875,37.1875,249.125,0.6674805,-0.3364258,0.1826172,0.01757813,0.2885742,-0.06103516
514,33.4375,42.1875,244.0625,0.5551758,-0.4296875,0.1328125,0.04150391,0.2851563,-0.06542969
518,40.25,44.0625,230.75,0.4389648,-0.2509766,0.159668,0.05957031,0.2797852,-0.06640625
522,27.625,41.8125,223.5625,0.2451172,-0.09570313,0.1748047,0.08203125,0.2749023,-0.06933594
526,11.5625,30.6875,213.1875,0.06689453,-0.04541016,0.2021484,0.1035156,0.2675781,-0.07080078
530,-3.5625,24.75,203,0.03564453,-0.07617188,0.2250977,0.1176758,0.2612305,-0.07177734
534,-9.25,20.875,184.0625,-0.1108398,-0.1191406,0.2597656,0.1357422,0.2524414,-0.07080078
538,1.125,23.8125,177.625,-0.3393555,-0.1152344,0.1713867,0.1508789,0.2451172,-0.06933594
542,26.4375,22.1875,165.5,-0.4482422,0.04394531,0.1367188,0.1650391,0.2373047,-0.07080078
546,48.1875,19.5,140.1875,-0.7851563,0.3974609,0.09033203,0.1796875,0.2299805,-0.07177734
550,48,11.125,97.75,-0.9091797,0.8286133,0.1328125,0.1879883,0.2226563,-0.07617188
554,22.1875,0.0625,58.8125,-1.013672,0.9335938,0.2250977,0.1938477,0.2148438,-0.07617188
558,-6.1875,-7.3125,16.5,-1.005859,0.875,0.2250977,0.1972656,0.2138672,-0.08007813
562,-13.25,-10.9375,-35.8125,-0.9287109,0.6733398,0.2172852,0.1962891,0.2138672,-0.07861328
566,-17.375,-10.5625,-81.875,-0.730957,0.4321289,0.2480469,0.1948242,0.2163086,-0.08007813
570,-26.3125,-11.875,-111.625,-0.5449219,0.1914063,0.2983398,0.1879883,0.2226563,-0.07470703
574,-39.125,-12.625,-125.4375,-0.3935547,-0.08007813,0.2866211,0.1757813,0.2299805,-0.07617188
578,-49.125,-16.1875,-132.3125,-0.3320313,-0.2705078,0.2944336,0.1674805,0.2348633,-0.07177734
582,-52.375,-14.625,-132.5,-0.1845703,-0.46875,0.2441406,0.1567383,0.2436523,-0.06787109
586,-49.625,-13,-139.3125,-0.1611328,-0.5620117,0.2329102,0.1450195,0.25,-0.06542969
590,-39.125,-7.875,-149.375,-0.1147461,-0.340332,0.1674805,0.1357422,0.2524414,-0.05957031
594,-14.6875,-3.0625,-157.375,-0.1689453,-0.5463867,0.1020508,0.1235352,0.2612305,-0.05859375
598,5.9375,-3.3125,-174.4375,-0.2426758,-0.3754883,0.1020508,0.105957,0.2675781,-0.05712891
602,-12.6875,-16.1875,-199.5625,-0.07617188,-0.1850586,0.2021484,0.09375,0.2739258,-0.05712891
606,-40.8125,-27.5,-193.8125,0.03955078,-0.3911133,0.1674805,0.07617188,0.2797852,-0.05419922
610,-42.25,-37.9375,-184.3125,0.1210938,-0.6669922,0.08251953,0.05712891,0.2836914,-0.05175781
614,-14.875,-35.375,-185.8125,0.159668,-0.7290039,0.03271484,0.04394531,0.2885742,-0.04736328
618,23.125,-29.75,-203.6875,0.159668,-0.6201172,0.01708984,0.02246094,0.2910156,-0.04882813
622,51.3125,-26.8125,-230.0625,0.2490234,-0.3911133,0.07519531,0.002441406,0.293457,-0.05029297
626,42.25,-31.125,-253.0625,0.3149414,-0.08789063,0.1518555,-0.01416016,0.2910156,-0.05175781
631,-5.6875,-56.6875,-241.75,0.4155273,-0.06054688,0.1479492,-0.04003906,0.2900391,-0.05859375
635,-36.3125,-79.5,-225.375,0.6518555,-0.4375,0.09814453,-0.06298828,0.2885742,-0.05029297
639,-23.1875,-82.875,-218.875,0.8574219,-0.7016602,0.07519531,-0.078125,0.2836914,-0.04638672
643,-3,-72,-225.5,0.9970703,-0.5581055,0.1132813,-0.09960938,0.2797852,-0.04199219
647,10.6875,-61.4375,-238.75,0.9501953,-0.5151367,0.04052734,-0.1220703,0.2700195,-0.04052734
651,35.0625,-65.8125,-246.875,0.8842773,-0.5307617,-0.07080078,-0.1376953,0.262207,-0.03955078
655,54.8125,-80.5,-250.9375,0.8222656,-0.3208008,-0.1513672,-0.1601563,0.2539063,-0.03955078
659,38.8125,-118.3125,-252.5625,0.8378906,0.1176758,-0.1362305,-0.1816406,0.2412109,-0.03808594
663,-31.875,-158.6875,-256.6875,1.430664,0.1992188,0.07519531,-0.1972656,0.2299805,-0.03369141
667,-92.125,-149.9375,-255.75,2.333496,-0.3989258,0.3095703,-0.2163086,0.2138672,-0.02050781
671,-87.5625,-88.1875,-260.4375,2.624512,-1.15625,0.355957,-0.2353516,0.1972656,-0.001464844
675,-21.375,-37.8125,-252,2.302734,-1.665527,0.1787109,-0.2460938,0.1826172,0.004882813
679,34.75,-26.25,-219.1875,1.884277,-1.29248,0.1020508,-0.2626953,0.1625977,0.0078125
683,32.5,-35.1875,-188.1875,1.5625,-0.7211914,0.09423828,-0.2734375,0.1450195,0.009277344
687,-4.9375,-55.5625,-160.875,1.454102,-0.6162109,0.1943359,-0.2807617,0.1347656,0.01171875
691,-26.125,-61,-138.5625,1.659668,-0.9506836,0.409668,-0.2875977,0.1225586,0.01708984
695,-23.0625,-40.625,-111.125,1.864746,-1.288574,0.5869141,-0.293457,0.1098633,0.02294922
699,-10.5625,-15.5,-73.1875,1.713867,-1.334961,0.6176758,-0.2949219,0.1025391,0.02539063
703,2.0625,-2.8125,-41.875,1.411621,-1.284668,0.5327148,-0.2998047,0.09765625,0.02978516
707,13,2.625,-22.0625,1.268066,-1.171875,0.4633789,-0.2998047,0.09521484,0.02685547
711,10.6875,7.1875,-2.8125,1.252441,-1.047363,0.4672852,-0.2998047,0.09619141,0.02832031
715,-4.875,11.4375,19.6875,1.299316,-0.9194336,0.4633789,-0.3007813,0.09619141,0.02539063
719,-25.625,19.625,42.875,1.388184,-0.9233398,0.4018555,-0.2998047,0.09765625,0.02685547
723,-40,27,66.4375,1.330078,-0.9814453,0.2866211,-0.2983398,0.09863281,0.02392578
727,-42.8125,31.75,86.625,1.345703,-1.08252,0.1787109,-0.2949219,0.1064453,0.02392578
731,-36,34.875,108.0625,1.376465,-1.203125,0.1132813,-0.2915039,0.1137695,0.02392578
735,-20.875,38.375,132.375,1.43457,-1.257324,0.07910156,-0.2875977,0.1201172,0.02294922
739,-2.3125,40.875,155.5625,1.454102,-1.15625,0.08642578,-0.2817383,0.1337891,0.01855469
743,3.5625,46.875,169.375,1.512207,-0.9194336,0.140625,-0.2734375,0.1474609,0.01464844
747,-5.625,51.4375,181.0625,1.46582,-0.8222656,0.1518555,-0.2675781,0.15625,0.01074219
751,-8.125,51.6875,193.5625,1.46582,-0.8920898,0.1328125,-0.2553711,0.1713867,0.006347656
755,1.3125,53.0625,206,1.442383,-0.9775391,0.1132813,-0.2436523,0.1884766,0.002441406
760,17.875,58.5,212.6875,1.469727,-0.9428711,0.1020508,-0.2353516,0.1987305,0
764,28.5,64.8125,214.8125,1.454102,-0.8647461,0.144043,-0.21875,0.2138672,-0.005371094
768,27.125,69.5,224.1875,1.318359,-0.7211914,0.1289063,-0.2045898,0.2275391,-0.01220703
772,21.875,64,232.875,1.19043,-0.6474609,0.125,-0.1914063,0.2373047,-0.02050781
776,13.375,58.9375,233.875,1.085938,-0.5620117,0.1367188,-0.1723633,0.25,-0.02587891
780,4.25,51,234.4375,1.082031,-0.6435547,0.1518555,-0.1508789,0.2597656,-0.02978516
784,15.0625,52.1875,238.0625,1.082031,-0.8417969,0.1132813,-0.1367188,0.2651367,-0.03271484
788,42.75,60.6875,228.1875,1.0625,-0.7485352,0.125,-0.1103516,0.2739258,-0.03662109
792,63.125,72.4375,219.6875,0.9697266,-0.7250977,0.07519531,-0.09130859,0.28125,-0.04199219
796,66.0625,68.625,222.6875,0.7954102,-0.5385742,0.08642578,-0.07714844,0.2861328,-0.05175781
800,52.875,60,226.875,0.7333984,-0.340332,0.1518555,-0.05322266,0.2875977,-0.05957031
804,31.0625,54.875,221.0625,0.6831055,-0.3911133,0.1635742,-0.03076172,0.2885742,-0.06396484
808,24,50.9375,220.5,0.59375,-0.519043,0.144043,-0.01513672,0.2910156,-0.06787109
812,37.75,53.8125,212.0625,0.6054688,-0.6279297,0.140625,0.005859375,0.2900391,-0.07080078
816,55,59.375,204.4375,0.6328125,-0.5927734,0.1713867,0.02832031,0.2861328,-0.07470703
820,51.1875,64.875,200.4375,0.5395508,-0.4140625,0.2290039,0.04150391,0.2836914,-0.07861328
824,21.3125,54.6875,209.75,0.3574219,-0.3442383,0.2133789,0.06396484,0.2788086,-0.08154297
828,4.875,40.8125,220.9375,0.2216797,-0.4609375,0.1904297,0.08789063,0.2724609,-0.08447266
832,13.125,40.0625,209.8125,0.2333984,-0.4609375,0.2172852,0.09960938,0.2661133,-0.08300781
836,28.25,51.9375,194.1875,0.1635742,-0.4140625,0.2133789,0.1210938,0.2573242,-0.08447266
840,39.0625,55.5625,184.9375,-0.1108398,-0.2431641,0.1713867,0.1376953,0.2485352,-0.08544922
844,40.5625,51.3125,180.5625,-0.362793,0.02441406,0.1367188,0.1474609,0.2436523,-0.08691406
848,37.875,34.4375,173.9375,-0.6650391,0.3232422,0.08251953,0.1665039,0.2338867,-0.09082031
852,35.3125,24.4375,145.1875,-0.8007813,0.5292969,0.1171875,0.1821289,0.2226563,-0.08984375
856,34.75,19.1875,97.6875,-0.9868164,0.855957,0.1635742,0.1889648,0.2163086,-0.09082031
860,27.1875,12.0625,46.875,-1.044922,0.890625,0.1479492,0.1948242,0.2075195,-0.09228516
864,14.75,2.4375,-0.375,-1.017578,0.9492188,0.2060547,0.1948242,0.2075195,-0.09228516
868,-3.25,-6.1875,-44.3125,-0.9091797,0.824707,0.2558594,0.1972656,0.2084961,-0.09521484
872,-19.9375,-11.5,-84.0625,-0.730957,0.5292969,0.2749023,0.1928711,0.2124023,-0.09667969
876,-34.875,-15.5,-112.6875,-0.5874023,0.2456055,0.2866211,0.1865234,0.2172852,-0.09228516
880,-46.25,-18.8125,-123.9375,-0.4365234,-0.07226563,0.2558594,0.1757813,0.2250977,-0.09082031
884,-44.875,-21.4375,-132.875,-0.3823242,-0.2978516,0.2211914,0.1650391,0.2324219,-0.08837891
889,-33.6875,-19.8125,-142.5,-0.262207,-0.4609375,0.1748047,0.1547852,0.2397461,-0.08544922
893,-16.4375,-17.4375,-153.5625,-0.262207,-0.4882813,0.1518555,0.1459961,0.2460938,-0.08300781
897,-7.875,-18.6875,-171.0625,-0.2001953,-0.3676758,0.1904297,0.1308594,0.2539063,-0.08300781
901,-15.9375,-23.9375,-181.625,-0.1264648,-0.3286133,0.2094727,0.112793,0.262207,-0.08007813
905,-28.25,-36.375,-174.125,-0.09130859,-0.4609375,0.1748047,0.1020508,0.2675781,-0.08300781
909,-23.5625,-48.5,-168.75,0.004882813,-0.4882813,0.1367188,0.08447266,0.2739258,-0.07861328
913,-8.8125,-54.9375,-166.125,-0.02197266,-0.6357422,0.1132813,0.06982422,0.2773438,-0.07617188
917,-0.75,-63,-175.8125,0.08251953,-0.503418,0.1674805,0.05810547,0.2797852,-0.08007813
921,-5.875,-59.6875,-197.25,0.2529297,-0.3793945,0.2402344,0.03662109,0.2851563,-0.08007813
925,-29.3125,-63.3125,-206.1875,0.4658203,-0.5854492,0.2827148,0.01660156,0.2885742,-0.07470703
929,-50.5625,-70.4375,-184.75,0.4619141,-0.7719727,0.2368164,0.002441406,0.2875977,-0.07324219
933,-51.9375,-80.6875,-168,0.5126953,-0.9775391,0.1787109,-0.01611328,0.2875977,-0.06933594
937,-25.8125,-75.125,-162.9375,0.5708008,-1.040039,0.159668,-0.03173828,0.2885742,-0.06103516
941,15.25,-64.5625,-168.5625,0.574707,-1.016602,0.05566406,-0.04589844,0.2875977,-0.05957031
945,22.8125,-59.5,-192.0625,0.5512695,-0.3056641,0.2402344,-0.06298828,0.2885742,-0.06103516
949,-23.8125,-66.875,-202.3125,0.6132813,-0.1772461,0.2944336,-0.08300781,0.2822266,-0.06103516
953,-76.875,-81.625,-189.5,0.7451172,-0.4335938,0.2211914,-0.09619141,0.2788086,-0.05566406
957,-91.875,-90.875,-169.25,0.9077148,-0.8613281,0.1289063,-0.1137695,0.2739258,-0.04492188
961,-52.625,-76.125,-171.8125,1.012207,-1.109863,0.07128906,-0.1318359,0.2700195,-0.03125
965,13.375,-51.875,-192.0625,0.9389648,-1.004883,0.04785156,-0.1425781,0.2612305,-0.02832031
969,55.5625,-42.6875,-206.375,0.7373047,-0.5620117,0.01367188,-0.1591797,0.2548828,-0.02832031
973,30.9375,-64.625,-210.75,0.6674805,0.04736328,0.05566406,-0.1782227,0.2436523,-0.02978516
977,-36.4375,-95.625,-200.1875,0.9116211,0.121582,0.125,-0.1889648,0.2348633,-0.02734375
981,-78.875,-99.75,-209.3125,1.322266,-0.2392578,0.1328125,-0.206543,0.2236328,-0.01611328
985,-58.9375,-77.8125,-222,1.527832,-0.7832031,0.140625,-0.2197266,0.2099609,-0.00390625
989,-9.3125,-50.5,-231,1.574219,-0.8378906,0.1020508,-0.2329102,0.1987305,0.0009765625
993,21.75,-36.1875,-232.4375,1.419434,-0.4765625,0.04443359,-0.2460938,0.1826172,0.004882813
997,4.8125,-46.875,-234.0625,1.326172,-0.05664063,0.005859375,-0.2626953,0.1625977,0.009277344
1001,-59.125,-68.75,-232.75,1.543457,-0.1269531,0.005859375,-0.2709961,0.1499023,0.01171875
1005,-86.5625,-69.9375,-221.375,1.992676,-0.9775391,0.1713867,-0.2841797,0.1289063,0.02294922
1009,-46.125,-37.375,-174.75,2.310547,-1.661621,0.3330078,-0.2924805,0.1098633,0.03222656
1013,1,-4.5,-118,1.907715,-1.622559,0.2944336,-0.2958984,0.1000977,0.03369141
1018,29.5,0,-85,1.46582,-1.37793,0.2368164,-0.2998047,0.08984375,0.03369141
1022,36,-5.3125,-64.0625,1.353516,-1.257324,0.3251953,-0.3056641,0.08496094,0.03515625
1026,32.8125,-8.3125,-26.25,1.430664,-1.26123,0.4907227,-0.3017578,0.08105469,0.03613281
1030,21.3125,-2.5625,12,1.469727,-1.08252,0.6020508,-0.3056641,0.07763672,0.03369141
1034,-4.3125,7.25,43,1.454102,-0.8803711,0.5712891,-0.3032227,0.08105469,0.03222656
1038,-27.75,19,59,1.388184,-0.8686523,0.4287109,-0.3017578,0.08496094,0.03076172
1042,-35.4375,29.3125,72.5,1.341797,-0.9775391,0.2597656,-0.2998047,0.09130859,0.03222656
1046,-28.5625,34.5625,86.8125,1.333984,-1.105957,0.144043,-0.2983398,0.09765625,0.03076172
1050,-20.125,36.8125,105.8125,1.450195,-1.148438,0.1210938,-0.2973633,0.1010742,0.02832031
1054,-17.1875,38.75,133.5,1.582031,-1.1875,0.144043,-0.2915039,0.1123047,0.02539063
1058,-8.5625,50.875,158.9375,1.794922,-1.203125,0.159668,-0.2866211,0.125,0.01855469
1062,8.625,66.5625,180.5625,1.756348,-1.183594,0.1171875,-0.2817383,0.1347656,0.01708984
1066,26.375,70.375,203.5,1.682617,-1.125488,0.06738281,-0.2700195,0.1513672,0.01074219
1070,39.1875,68.6875,226,1.706055,-0.9970703,0.08251953,-0.2602539,0.1699219,0.00390625
1074,43,74.25,240.3125,1.698242,-0.8457031,0.1132813,-0.2495117,0.1826172,-0.002441406
1078,39.4375,81.25,243.6875,1.682617,-0.7211914,0.159668,-0.2353516,0.2011719,-0.01074219
1082,31.9375,81.3125,256.125,1.512207,-0.7485352,0.1748047,-0.2163086,0.2172852,-0.02050781
1086,31.5625,78.125,268.25,1.399902,-0.7407227,0.1328125,-0.2006836,0.2260742,-0.02587891
1090,29.9375,66.5625,280.1875,1.213867,-0.6318359,0.1132813,-0.1806641,0.2451172,-0.03515625
1094,27.5,59.5,282.625,1.144043,-0.5541992,0.09814453,-0.1533203,0.2573242,-0.04052734
1098,18.0625,46.3125,284.25,1.000488,-0.4492188,0.1367188,-0.1367188,0.2651367,-0.04345703
1102,-2.25,28.3125,289.1875,1.008301,-0.4765625,0.2290039,-0.1079102,0.2749023,-0.05029297
1106,-5.5,19.75,286.75,0.9931641,-0.6240234,0.2094727,-0.08056641,0.28125,-0.04882813
1110,11.25,16.0625,283.5,1.128418,-0.7094727,0.2133789,-0.06298828,0.2861328,-0.05175781
1114,27.6875,46.9375,278.8125,1.275879,-0.6044922,0.1982422,-0.03417969,0.2900391,-0.05273438
1118,35.4375,62.125,273.5,0.9462891,-0.5151367,0.140625,-0.005859375,0.2885742,-0.05957031
1122,30.875,58.25,279.5625,0.7568359,-0.4960938,0.03662109,0.01269531,0.2885742,-0.0625
1126,23.625,48.9375,282,0.6210938,-0.3950195,0.02880859,0.04150391,0.2861328,-0.06396484
1130,24.125,44.8125,272.875,0.5048828,-0.3481445,-0.005371094,0.07128906,0.2797852,-0.06787109
1134,32.375,41.3125,260.5,0.4233398,-0.3481445,-0.01318359,0.08691406,0.2739258,-0.06933594
1138,46.75,44.125,246.625,0.3188477,-0.2626953,-0.01318359,0.112793,0.2636719,-0.07324219
1142,61.8125,48.1875,226.8125,0.109375,-0.03759766,0.02490234,0.1367188,0.2524414,-0.07470703
1147,60.0625,41.3125,211.625,-0.1381836,0.1953125,0.02490234,0.1499023,0.2451172,-0.07617188
1151,52.125,28.8125,200.875,-0.347168,0.3583984,0.08642578,0.1689453,0.2338867,-0.08007813
1155,43.75,15.125,173.4375,-0.6650391,0.6655273,0.09033203,0.1855469,0.2226563,-0.08447266
1159,39.125,0.9375,126.625,-0.862793,0.987793,0.1518555,0.1938477,0.2124023,-0.08544922
1163,41.875,-9,66.625,-0.9829102,1.026855,0.1826172,0.2045898,0.2036133,-0.08984375
1167,43.8125,-10.0625,3.9375,-0.9516602,1.12793,0.2290039,0.2055664,0.2026367,-0.09375
1171,31.375,-17.25,-53.875,-1.048828,1.17041,0.2480469,0.203125,0.2011719,-0.09521484
1175,3.375,-19.25,-109.5,-0.6650391,1.092773,0.3867188,0.199707,0.2060547,-0.09912109
1179,-42.75,-9.375,-140.3125,-0.5063477,0.793457,0.409668,0.1904297,0.2124023,-0.09765625
1183,-86.6875,-17.625,-157.375,-0.4443359,0.3081055,0.3637695,0.1821289,0.2211914,-0.09521484
1187,-108.25,-21.5625,-159.75,-0.2543945,-0.2124023,0.2211914,0.1665039,0.2324219,-0.08837891
1191,-93.8125,-16.625,-159.75,-0.1923828,-0.5385742,0.1289063,0.1533203,0.2426758,-0.08007813
1195,-60.1875,-9.5,-164.625,-0.28125,-0.6513672,0.04785156,0.1425781,0.2485352,-0.07470703
1199,-32.3125,-11.9375,-188.6875,-0.2734375,-0.2822266,0.03662109,0.128418,0.2587891,-0.06933594
1203,-43.25,-21.1875,-213.6875,-0.06054688,-0.1381836,0.144043,0.109375,0.2675781,-0.06787109
1207,-71.6875,-29,-209.5625,0.02832031,-0.1655273,0.1289063,0.09521484,0.2739258,-0.06396484
1211,-84.5625,-37.0625,-208.3125,0.1132813,-0.3442383,0.04785156,0.07373047,0.2797852,-0.05859375
1215,-67.0625,-37.25,-214.0625,0.2177734,-0.5424805,-0.01318359,0.05322266,0.2861328,-0.04736328
1219,-29.375,-35.25,-224.5,0.2797852,-0.6787109,-0.05517578,0.03808594,0.2885742,-0.04199219
1223,6.8125,-38.375,-237.375,0.2915039,-0.5151367,-0.03222656,0.01416016,0.2924805,-0.04199219
1227,3.1875,-51.875,-236.4375,0.4311523,-0.2978516,0.01708984,-0.009277344,0.293457,-0.04199219
1231,-18.875,-65.1875,-231,0.574707,-0.1616211,0.05957031,-0.02490234,0.2910156,-0.04052734
1235,-40.125,-74.3125,-227.375,0.7099609,-0.3520508,-0.02832031,-0.04980469,0.2910156,-0.03808594
1239,-18.75,-75.375,-232.1875,0.8769531,-0.7172852,-0.1245117,-0.07128906,0.2861328,-0.03271484
1243,43.1875,-66.625,-241.75,1.047363,-1.094238,-0.1899414,-0.08789063,0.2822266,-0.02978516
1247,124.25,-58.375,-253.4375,1.066406,-1.040039,-0.2089844,-0.1113281,0.2763672,-0.03515625
1251,133.25,-70.75,-254.75,0.8378906,-0.1308594,-0.1669922,-0.1352539,0.2651367,-0.04638672
1255,38.625,-132,-236.1875,0.8730469,0.3779297,0.04052734,-0.1508789,0.2573242,-0.04736328
1259,-79.75,-167.125,-224.875,1.725586,-0.04150391,0.2944336,-0.1723633,0.2475586,-0.04052734
1263,-90.75,-117.125,-244.875,2.314453,-0.08007813,0.390625,-0.1923828,0.2338867,-0.02441406
1267,13.4375,-44.8125,-252.4375,2.116699,-1.587891,0.2749023,-0.2055664,0.2250977,-0.01464844
1271,86.0625,-15.1875,-263.8125,1.550781,-0.9853516,0.144043,-0.2246094,0.2075195,-0.01464844
1276,54.1875,-45.5625,-252.4375,1.229492,-0.2084961,0.1713867,-0.2426758,0.1884766,-0.01904297
1280,-52.25,-94.1875,-206.4375,1.597656,-0.4648438,0.3637695,-0.2543945,0.1762695,-0.01611328
1284,-93.5625,-91.5625,-154.75,2.213379,-1.34668,0.5595703,-0.2651367,0.1601563,-0.005371094
1288,-62.4375,-42.1875,-111.5,2.23291,-1.677246,0.5791016,-0.2734375,0.1499023,0.006347656
1292,-25,-14,-85.9375,1.686523,-1.614746,0.425293,-0.2758789,0.1435547,0.009277344
1296,-7.875,-10.375,-63.5,1.349609,-1.475098,0.3710938,-0.2807617,0.1362305,0.01318359
1300,0.75,-14.4375,-35.5,1.353516,-1.556641,0.4750977,-0.2807617,0.1298828,0.01464844
1304,12.5625,-5.8125,-0.25,1.46582,-1.560547,0.5942383,-0.2827148,0.1289063,0.01464844
1308,8.1875,4.875,34.4375,1.458008,-1.304199,0.675293,-0.2817383,0.1313477,0.01318359
1312,-13.875,17.25,66.25,1.496582,-1.1875,0.6557617,-0.2807617,0.1347656,0.01464844
1316,-28.6875,31.875,92.375,1.442383,-1.237793,0.5483398,-0.2768555,0.1386719,0.01318359
1320,-32.5,42.8125,115.5625,1.395996,-1.276855,0.3867188,-0.2734375,0.1459961,0.01074219
1324,-29.125,48.75,138.9375,1.368652,-1.300293,0.2905273,-0.2661133,0.15625,0.009277344
1328,-17.75,56.125,156.9375,1.426758,-1.342773,0.2250977,-0.2602539,0.1650391,0.006347656
1332,-2,66.25,171.0625,1.446289,-1.272949,0.1904297,-0.253418,0.1787109,0.002441406
1336,9.25,71.25,187.375,1.46582,-1.160156,0.1904297,-0.2387695,0.1923828,-0.002441406
1340,5.9375,72.5625,203.5625,1.430664,-1.012695,0.1943359,-0.2329102,0.2011719,-0.006835938
1344,3.5625,73.9375,216.25,1.52002,-1.008789,0.2021484,-0.2163086,0.2163086,-0.01367188
1348,9.3125,81.5625,226,1.550781,-1.055176,0.1904297,-0.1982422,0.2285156,-0.01904297
1352,15.5625,81.8125,243.625,1.454102,-0.9272461,0.1904297,-0.1865234,0.2397461,-0.02148438
1356,8.75,81.3125,256.6875,1.349609,-0.7329102,0.1826172,-0.1640625,0.2509766,-0.02978516
1360,-2.8125,78.25,263,1.225586,-0.6552734,0.1826172,-0.1425781,0.262207,-0.03271484
1364,-7.9375,75.0625,268.625,1.225586,-0.7563477,0.1674805,-0.1245117,0.2709961,-0.03662109
1368,-3.0625,75.5625,275.875,1.05127,-0.7250977,0.1328125,-0.09960938,0.2788086,-0.03955078
1372,12.8125,78.8125,260.1875,0.9853516,-0.6513672,0.09814453,-0.07226563,0.2851563,-0.04345703
1376,18.8125,80.3125,252.625,0.8842773,-0.6708984,0.04785156,-0.05566406,0.2885742,-0.04492188
1380,21.625,70.9375,255.75,0.8110352,-0.6513672,0.02880859,-0.02832031,0.2910156,-0.05029297
1384,19.75,64.875,262.125,0.7758789,-0.6279297,0.02099609,-0.001953125,0.2900391,-0.05273438
1388,24.25,57.625,263.125,0.6289063,-0.5698242,-0.005371094,0.01416016,0.2900391,-0.05273438
1392,34.125,57,248.0625,0.625,-0.534668,0.001953125,0.04394531,0.2861328,-0.05566406
1396,49.0625,57.375,241.4375,0.4697266,-0.484375,-0.03613281,0.06640625,0.2797852,-0.05859375
1400,62.375,53.5,223.3125,0.3574219,-0.340332,-0.04003906,0.08300781,0.2763672,-0.06396484
1405,60.8125,45.375,204.6875,0.3457031,-0.3676758,0.03271484,0.105957,0.2685547,-0.06933594
1409,59.1875,41.4375,207.9375,0.2607422,-0.4804688,0.04052734,0.1235352,0.2587891,-0.07324219
1413,65.6875,33.8125,212.1875,0.05517578,-0.3364258,-0.03613281,0.1376953,0.2509766,-0.07861328
1417,72.875,31.125,205,-0.1030273,0.04394531,-0.07470703,0.1567383,0.2397461,-0.08007813
1421,65.875,34.4375,190.1875,-0.5913086,0.3818359,-0.04736328,0.1748047,0.2275391,-0.08447266
1425,36.9375,28.5,136.3125,-0.796875,0.9414063,0.07519531,0.184082,0.21875,-0.08837891
1429,1.625,6.875,104.75,-0.9248047,1.13916,0.1210938,0.1948242,0.2124023,-0.08837891
1433,-27.0625,-11.25,73.4375,-0.9750977,1.104492,0.1943359,0.2021484,0.2060547,-0.08984375
1437,-32.4375,-19.875,28.9375,-0.9169922,0.9375,0.2519531,0.2055664,0.2026367,-0.08837891
1441,-23.8125,-18.5,-21.6875,-0.8237305,0.777832,0.2866211,0.2045898,0.2026367,-0.08544922
1445,-21.625,-15.5625,-67.375,-0.715332,0.7001953,0.3291016,0.2021484,0.2036133,-0.08837891
1449,-34.5,-15.4375,-102.9375,-0.6533203,0.5332031,0.3364258,0.2011719,0.2084961,-0.08691406
1453,-48.5625,-17.3125,-129.25,-0.4985352,0.3232422,0.3134766,0.1889648,0.2197266,-0.08300781
1457,-54.125,-16.8125,-147.1875,-0.4365234,0.1367188,0.2250977,0.1772461,0.2285156,-0.08007813
1461,-45.8125,-15.9375,-168.375,-0.3706055,0.06689453,0.1328125,0.1674805,0.2363281,-0.07470703
1465,-27,-14.375,-199.6875,-0.2929688,0.1098633,0.09423828,0.1547852,0.2451172,-0.07324219
1469,-20.75,-19.625,-230.0625,-0.2080078,0.203125,0.04443359,0.1357422,0.2548828,-0.06933594
1473,-28.5625,-33.125,-250.5,-0.03320313,0.1367188,0.02880859,0.1186523,0.2612305,-0.06787109
1477,-38.3125,-48.125,-254.5,0.190918,-0.1577148,0.03271484,0.09375,0.2724609,-0.06933594
1481,-37.3125,-60.25,-244.125,0.4116211,-0.5385742,0.005859375,0.06884766,0.2797852,-0.06542969
1485,-24.4375,-68,-227.5,0.4428711,-1.331055,-0.1401367,0.0546875,0.2836914,-0.06396484
1489,3.0625,-76.9375,-211.625,0.5820313,-0.9814453,-0.07470703,0.02832031,0.2885742,-0.06103516
1493,31.8125,-88.5625,-192.6875,0.4155273,-0.8999023,-0.1206055,0.006835938,0.2900391,-0.06396484
1497,44.4375,-113,-181.1875,0.3769531,-0.6201172,-0.109375,-0.003417969,0.2885742,-0.06542969
1501,26.6875,-137.375,-176.125,0.5048828,-0.2353516,-0.02441406,-0.02490234,0.2900391,-0.06787109
1505,-29.25,-157.4375,-174.3125,0.7993164,-0.1772461,0.07910156,-0.04248047,0.2861328,-0.06640625
1509,-53.75,-136.8125,-200.3125,1.302734,-0.5,0.2329102,-0.05664063,0.2861328,-0.06103516
1513,-29.25,-86.5,-260.1875,1.318359,-0.7910156,0.1635742,-0.07958984,0.2822266,-0.05419922
1517,7.0625,-71.3125,-293.375,1.121094,-0.8222656,0.02880859,-0.1069336,0.2763672,-0.04736328
1521,15.625,-86.6875,-286.8125,1.132324,-0.5307617,0.02880859,-0.1245117,0.2700195,-0.04736328
1525,-32.0625,-106.5625,-267.6875,1.372559,-0.2705078,0.1289063,-0.1518555,0.2563477,-0.04345703
1529,-89,-112,-255.5625,1.674805,-0.5385742,0.2290039,-0.1733398,0.2436523,-0.03271484
1534,-93.875,-88.625,-254.75,2.023926,-1.164063,0.1865234,-0.1875,0.2363281,-0.02050781
1538,-46.1875,-61,-253.25,1.946289,-1.412598,0.140625,-0.2089844,0.2197266,-0.009277344
1542,-15.875,-53.3125,-241.75,1.744629,-1.152344,0.09814453,-0.2280273,0.2050781,-0.00390625
1546,-21.8125,-60.4375,-218.625,1.659668,-0.9775391,0.1557617,-0.237793,0.1914063,0
1550,-41.375,-62.3125,-186.1875,1.73291,-1.164063,0.2827148,-0.2495117,0.1762695,0.009277344
1554,-41.9375,-51.0625,-149.375,1.802734,-1.501953,0.3789063,-0.2636719,0.1611328,0.01611328
1558,-20.5625,-36.0625,-107,1.706055,-1.731445,0.4287109,-0.2675781,0.1538086,0.01855469
1562,0.0625,-26.875,-61.625,1.531738,-1.704102,0.4633789,-0.2724609,0.1474609,0.02294922
1566,9.375,-19.9375,-20.4375,1.380371,-1.509766,0.5288086,-0.2734375,0.1411133,0.02685547
1570,9.625,-9.25,7.6875,1.268066,-1.362305,0.5405273,-0.2744141,0.1411133,0.02685547
1574,5.6875,2,28.1875,1.175293,-1.22998,0.5327148,-0.2724609,0.1425781,0.02539063
1578,-2.875,12.0625,45.25,1.124512,-1.090332,0.4672852,-0.2724609,0.1474609,0.02392578
1582,-12.625,20.4375,59.125,1.124512,-1.05127,0.425293,-0.2709961,0.1499023,0.02392578
1586,-24.5,32.1875,72,1.175293,-1.05127,0.340332,-0.2651367,0.1538086,0.02539063
1590,-34.75,38.125,93.75,1.151855,-1.136719,0.2480469,-0.2636719,0.1601563,0.02294922
1594,-35.875,40.375,116.4375,1.179199,-1.222656,0.144043,-0.2592773,0.1650391,0.02148438
1598,-26.25,43.4375,133.875,1.268066,-1.245605,0.144043,-0.2509766,0.1762695,0.01855469
1602,-19.625,51.1875,148.125,1.326172,-1.245605,0.1210938,-0.2436523,0.1850586,0.01855469
1606,-11.5,56.375,163.1875,1.341797,-1.269043,0.1132813,-0.2353516,0.1923828,0.01611328
1610,-1.8125,60.3125,177.3125,1.302734,-1.249512,0.105957,-0.2255859,0.2036133,0.01464844
1614,2.625,60,192.5625,1.337891,-1.214844,0.125,-0.2128906,0.2172852,0.006347656
1618,3.8125,61.5625,211.4375,1.283691,-1.207031,0.1132813,-0.203125,0.2250977,0.00390625
1622,15.5,63.125,220.0625,1.26416,-1.175781,0.1020508,-0.1831055,0.2387695,0
1626,30.375,68.0625,214.5625,1.283691,-1.191406,0.125,-0.168457,0.2475586,-0.006835938
1630,38,72.75,220.625,1.279785,-1.164063,0.1171875,-0.1542969,0.2563477,-0.01074219
1634,35.4375,66.4375,247.625,1.144043,-1.062988,0.1132813,-0.1342773,0.2685547,-0.02050781
1638,36.1875,58.375,258.6875,1.0625,-0.9506836,0.1098633,-0.1103516,0.2763672,-0.02441406
1642,41.6875,59.875,247.625,1.117188,-0.8920898,0.1518555,-0.09375,0.2822266,-0.02832031
1646,49.375,69.9375,227,1.279785,-1.05127,0.2094727,-0.06982422,0.2861328,-0.03515625
1650,49.5625,83.0625,231.0625,1.442383,-1.203125,0.2211914,-0.04980469,0.2900391,-0.04199219
1654,43.875,84.5,279,1.171387,-1.175781,0.05957031,-0.03076172,0.2910156,-0.04638672
1658,42,62.375,318.25,0.8652344,-0.8066406,-0.02832031,-0.001953125,0.2924805,-0.05712891
1663,43.6875,57,314.875,0.7836914,-0.4414063,-0.03613281,0.03173828,0.2875977,-0.05859375
1667,53.125,63.125,284.4375,0.6713867,-0.3286133,-0.04394531,0.05224609,0.2836914,-0.0625
1671,66,80.0625,251.875,0.7255859,-0.2744141,-0.02441406,0.07861328,0.2773438,-0.06640625
1675,69.875,82.3125,242.1875,0.3188477,-0.09960938,-0.07080078,0.1044922,0.2675781,-0.07177734
1679,42.625,56.8125,252.3125,0.1948242,0.1254883,-0.005371094,0.1210938,0.2612305,-0.07324219
1683,13.9375,36.5,260.875,0.07861328,0.2109375,0.06738281,0.1425781,0.2460938,-0.07470703
1687,12.875,34.4375,234.4375,0.01269531,0.2495117,0.07910156,0.1674805,0.2348633,-0.07763672
1691,33.1875,39.3125,194.1875,-0.1728516,0.253418,0.06738281,0.1782227,0.2250977,-0.07763672
1695,54.5625,40.9375,161.5,-0.3125,0.4633789,0.06738281,0.1972656,0.2124023,-0.07861328
1699,51.9375,37.125,127.5625,-0.5834961,0.8325195,0.08251953,0.2094727,0.1987305,-0.08154297
1703,26.75,23.3125,95.375,-0.7851563,1.104492,0.1518555,0.2128906,0.1962891,-0.08007813
1707,1.5,9.4375,46.1875,-0.831543,1.13916,0.2133789,0.2211914,0.1899414,-0.08154297
1711,-13.875,8.375,-14.4375,-0.78125,0.9643555,0.2636719,0.2236328,0.1884766,-0.07861328
1715,-21.875,9.875,-63.625,-0.7578125,0.7548828,0.2675781,0.222168,0.1884766,-0.07861328
1719,-33.3125,2.5,-94.875,-0.699707,0.5136719,0.2636719,0.2163086,0.1948242,-0.07617188
1723,-41.125,-4.625,-112.6875,-0.5952148,0.2070313,0.2519531,0.2104492,0.2036133,-0.07324219
1727,-37.1875,-7.5625,-126.4375,-0.4907227,-0.06835938,0.2094727,0.2021484,0.2099609,-0.07177734
1731,-27.0625,-8.25,-140.5,-0.4555664,-0.1538086,0.1674805,0.1928711,0.21875,-0.06933594
1735,-19.75,-6.875,-160.875,-0.4013672,-0.1035156,0.1479492,0.1796875,0.2299805,-0.0625
1739,-21.3125,-7.4375,-186.25,-0.3666992,-0.04541016,0.1367188,0.1699219,0.2363281,-0.06542969
1743,-29.6875,-16.4375,-193.8125,-0.3125,-0.1269531,0.07128906,0.1523438,0.2485352,-0.06542969
1747,-34.9375,-34.1875,-193.3125,-0.2504883,-0.1967773,0.02880859,0.1357422,0.2563477,-0.06103516
1751,-32.25,-47.0625,-196.4375,-0.1186523,-0.2744141,0.001953125,0.1225586,0.2612305,-0.05859375
1755,-21,-55,-206.5625,0.1015625,-0.3286133,0.04785156,0.1035156,0.2700195,-0.05712891
1759,-10,-47.375,-235.25,0.2836914,-0.3095703,0.1210938,0.08203125,0.2763672,-0.05859375
1763,-8.125,-38.9375,-257.5625,0.4580078,-0.4257813,0.144043,0.06640625,0.2836914,-0.05712891
1767,-7.125,-44.875,-250.0625,0.4467773,-0.6044922,0.07910156,0.04052734,0.2861328,-0.05566406
1771,-12.75,-61.6875,-238,0.4736328,-0.5620117,0.06738281,0.01513672,0.2900391,-0.05419922
1775,-18.625,-76.3125,-231.5,0.5356445,-0.5463867,0.03271484,-0.0009765625,0.2924805,-0.05273438
1779,-30.0625,-87.0625,-236,0.7954102,-0.4375,0.08251953,-0.02587891,0.2910156,-0.05029297
1783,-42.6875,-78.3125,-248.5625,0.9541016,-0.4960938,0.1020508,-0.05078125,0.2900391,-0.04638672
1787,-39.6875,-78.25,-243.5,0.9775391,-0.7753906,0.03271484,-0.06640625,0.2875977,-0.03955078
1792,-4.75,-80.625,-230.375,1.035645,-0.9970703,-0.01318359,-0.09033203,0.28125,-0.03515625
1796,28.6875,-88.875,-228.4375,0.9350586,-0.7250977,-0.06689453,-0.1137695,0.2749023,-0.03125
1800,9.5625,-96.875,-244.4375,1.117188,-0.07617188,0.09423828,-0.128418,0.2700195,-0.03125
1804,-74.5,-104.1875,-261.25,1.48877,-0.09960938,0.2558594,-0.1508789,0.2597656,-0.02441406
1808,-136.5,-89.9375,-246.4375,2.035156,-0.9389648,0.2636719,-0.1748047,0.2475586,-0.009277344
1812,-101.5,-56.125,-214,1.973145,-1.9375,0.09033203,-0.1865234,0.2373047,0
1816,-14.1875,-35.25,-200,1.543457,-1.789551,-0.08984375,-0.2045898,0.2260742,0.01074219
1820,33.8125,-37.75,-202.9375,1.155762,-1.086426,-0.1206055,-0.2172852,0.2114258,0.01318359
1824,4.9375,-58.875,-196.8125,1.198242,-0.6591797,0.08642578,-0.2270508,0.2011719,0.01318359
1828,-35.0625,-65.0625,-170.9375,1.523926,-1.036133,0.3017578,-0.2402344,0.1884766,0.02001953
1832,-25.375,-41.9375,-153.625,1.706055,-1.408691,0.4482422,-0.2485352,0.1738281,0.02685547
1836,1.3125,-15.0625,-134,1.508301,-1.381836,0.4599609,-0.2568359,0.1660156,0.02978516
1840,8.5,-11.6875,-104.625,1.186523,-1.203125,0.3867188,-0.2636719,0.1586914,0.02978516
1844,10.0625,-12.75,-88.125,1.105469,-1.195313,0.3867188,-0.2700195,0.1489258,0.03076172
1848,24.875,-5,-79.0625,1.19043,-1.304199,0.4404297,-0.2724609,0.1450195,0.03222656
1852,31.25,6.9375,-61.1875,1.302734,-1.249512,0.5058594,-0.2768555,0.1376953,0.03076172
1856,11.0625,15.5,-25.4375,1.399902,-1.164063,0.5097656,-0.2792969,0.1362305,0.02978516
1860,-19.375,18.9375,18.8125,1.353516,-1.214844,0.409668,-0.2807617,0.1323242,0.02685547
1864,-36.75,21.4375,55.875,1.314453,-1.315918,0.2636719,-0.2783203,0.1362305,0.02685547
1868,-29.375,24.1875,80.875,1.256348,-1.432129,0.1713867,-0.2768555,0.1425781,0.02832031
1872,-8.5625,31.3125,97.75,1.283691,-1.432129,0.140625,-0.2724609,0.1459961,0.02392578
1876,10.5,39.0625,114.8125,1.287598,-1.374023,0.1479492,-0.2661133,0.1538086,0.02294922
1880,30.75,48.875,128.25,1.376465,-1.354492,0.1674805,-0.2592773,0.1635742,0.01855469
1884,34.75,59.1875,145.4375,1.326172,-1.086426,0.1787109,-0.2543945,0.1723633,0.01464844
1888,15.25,56.1875,164.8125,1.252441,-0.9541016,0.1943359,-0.2436523,0.1835938,0.00390625
1892,6.875,64.1875,174.5625,1.458008,-1.062988,0.2519531,-0.2329102,0.1962891,0.0009765625
1896,16.9375,85.9375,175.375,1.570313,-1.078613,0.2749023,-0.2255859,0.2060547,-0.00390625
1900,21.75,99.9375,178.5,1.341797,-0.9619141,0.1865234,-0.2138672,0.2163086,-0.01367188
1904,8.25,87.75,201.1875,1.171387,-0.8535156,0.1289063,-0.199707,0.2275391,-0.02050781
1908,-7.9375,71.875,224.6875,1.237305,-0.8613281,0.1367188,-0.1889648,0.2387695,-0.02294922
1912,-9.25,68.375,235.5625,1.256348,-0.9736328,0.144043,-0.168457,0.25,-0.02587891
1916,5.875,66.875,243,1.182617,-0.9970703,0.105957,-0.1484375,0.262207,-0.02978516
1921,22.75,65.875,242,1.124512,-0.8647461,0.105957,-0.1318359,0.2685547,-0.03271484
1925,36.875,67.75,238.6875,1.023926,-0.7680664,0.07519531,-0.109375,0.2773438,-0.03808594
1929,31.375,61,242.0625,1.004395,-0.7172852,0.08642578,-0.08642578,0.2836914,-0.04199219
1933,25.0625,51.5625,254.25,0.8574219,-0.6435547,0.07519531,-0.06884766,0.2851563,-0.05029297
1937,20.1875,43.375,254.0625,0.8691406,-0.6977539,0.08251953,-0.04394531,0.2885742,-0.05419922
1941,31.125,45.25,246.25,0.8300781,-0.7641602,0.06347656,-0.01855469,0.2910156,-0.05712891
1945,44.9375,48.8125,235.4375,0.8803711,-0.7524414,0.1289063,-0.001953125,0.2885742,-0.06103516
1949,51.3125,64.125,224.9375,0.9892578,-0.7055664,0.1787109,0.02246094,0.2885742,-0.06542969
1953,49.75,79.8125,221.75,0.8535156,-0.6396484,0.1748047,0.04638672,0.2851563,-0.06640625
1957,50.875,91.9375,210.1875,0.9311523,-0.6787109,0.2329102,0.06054688,0.28125,-0.07470703
1961,54.6875,99.625,213.25,0.4506836,-0.7792969,0.06347656,0.08447266,0.2749023,-0.07763672
1965,53.5625,56.75,269,0.1674805,-0.7016602,-0.02050781,0.1069336,0.2651367,-0.07861328
1969,54.25,35.0625,307.75,0.1948242,-0.1538086,0.03662109,0.1259766,0.2563477,-0.08300781
1973,48,28.6875,294,-0.04882813,0.5644531,0.05175781,0.1523438,0.2397461,-0.08691406
1977,40.5625,35.5625,236.5625,-0.4868164,0.8325195,0.05175781,0.1772461,0.2236328,-0.09082031
1981,19.5,29.1875,185.375,-0.7192383,1.193848,0.09814453,0.1914063,0.2148438,-0.09228516
1985,-1.625,16.375,143.8125,-0.8935547,1.333496,0.1328125,0.2055664,0.2026367,-0.09082031
1989,-15.6875,5.0625,90.75,-0.9750977,1.372559,0.1674805,0.2138672,0.1948242,-0.09082031
1993,-17.5,2.375,25.4375,-0.9130859,1.182129,0.2021484,0.2163086,0.1923828,-0.08837891
1997,-18.125,2.5,-32.75,-0.847168,0.921875,0.2402344,0.21875,0.1938477,-0.08984375
2001,-27.0625,-2.1875,-72.8125,-0.7734375,0.6186523,0.2709961,0.2138672,0.1948242,-0.08447266
2005,-45.8125,-11.125,-99.0625,-0.6376953,0.2885742,0.2827148,0.2119141,0.1987305,-0.08300781
2009,-62.5625,-17.25,-115.0625,-0.4443359,-0.1230469,0.3056641,0.2021484,0.2075195,-0.08007813
2013,-68.8125,-22.1875,-108.875,-0.362793,-0.5151367,0.2368164,0.1928711,0.2163086,-0.07763672
2017,-58.25,-26.4375,-100.3125,-0.378418,-0.7172852,0.2329102,0.1855469,0.2211914,-0.07324219
2021,-35.625,-24.3125,-106.125,-0.362793,-0.5463867,0.140625,0.1772461,0.2285156,-0.06933594
2025,-16.0625,-17.1875,-129.625,-0.3588867,-0.3364258,0.1367188,0.1674805,0.2373047,-0.06933594
2029,-8.5,-18.875,-151.8125,-0.4169922,-0.2275391,0.1020508,0.1606445,0.2426758,-0.07080078
2033,-9,-29.5625,-163.875,-0.3823242,-0.1772461,0.08251953,0.144043,0.2509766,-0.06933594
2037,-13.875,-43.9375,-170.625,-0.2661133,-0.1655273,0.09423828,0.1293945,0.2563477,-0.06787109
2041,-15.5,-52,-176.5,-0.1069336,-0.2275391,0.1098633,0.1186523,0.2651367,-0.06787109
2045,-13.625,-53.6875,-192.75,0.05908203,-0.2783203,0.1635742,0.09960938,0.2685547,-0.06640625
2050,-11.9375,-44.9375,-216.25,0.206543,-0.3056641,0.2290039,0.07958984,0.2773438,-0.06933594
2054,-17.625,-43.5625,-232.4375,0.2373047,-0.3442383,0.2211914,0.06640625,0.2822266,-0.06640625
2058,-23.8125,-50.4375,-233.125,0.3227539,-0.4375,0.2211914,0.04150391,0.2861328,-0.06396484
2062,-24.125,-57.375,-231.3125,0.4619141,-0.5927734,0.2060547,0.01757813,0.2910156,-0.0625
2066,-13.9375,-66.3125,-211.3125,0.4814453,-0.7329102,0.1479492,0,0.2910156,-0.06103516
2070,-15.9375,-83.5625,-194.3125,0.6362305,-0.5776367,0.1865234,-0.02001953,0.2900391,-0.05859375
2074,-20.5,-70.375,-205.875,0.8574219,-0.5151367,0.2290039,-0.04003906,0.2900391,-0.05566406
2078,-10.875,-53.9375,-235.6875,0.7993164,-0.5581055,0.1674805,-0.05322266,0.2885742,-0.05273438
2082,-2.5,-57.8125,-241.6875,0.7758789,-0.6083984,0.05957031,-0.078125,0.2822266,-0.05029297
2086,-26.5,-77.8125,-226.9375,0.8652344,-0.4921875,0.05175781,-0.1010742,0.2773438,-0.04638672
2090,-54.4375,-95.875,-204.1875,1.070313,-0.6977539,0.03662109,-0.1152344,0.2739258,-0.04199219
2094,-37.5,-89.4375,-207.9375,1.279785,-0.9619141,0.05175781,-0.1352539,0.2675781,-0.03271484
2098,3.8125,-64.625,-239.1875,1.333984,-0.7680664,0.09423828,-0.1557617,0.2563477,-0.02734375
2102,13.1875,-55.4375,-263.4375,1.271973,-0.519043,0.09033203,-0.168457,0.2475586,-0.02441406
2106,-26.3125,-68.25,-247.75,1.403809,-0.4648438,0.144043,-0.1923828,0.2348633,-0.02148438
2110,-75.4375,-78.5,-214.8125,1.674805,-0.8613281,0.1748047,-0.2114258,0.2197266,-0.01367188
2114,-72.0625,-62.75,-193.1875,1.880371,-1.370117,0.1904297,-0.2211914,0.2114258,-0.00390625
2118,-34.0625,-38.125,-186.1875,1.72168,-1.459473,0.144043,-0.2353516,0.1962891,0.00390625
2122,-5.8125,-28.125,-179.5,1.473633,-1.167969,0.105957,-0.2485352,0.1835938,0.01074219
2126,-13.5,-32.875,-162.8125,1.291504,-0.9116211,0.1328125,-0.2543945,0.1738281,0.01074219
2130,-36.375,-39.75,-140.3125,1.306641,-1.024414,0.2290039,-0.2636719,0.1601563,0.01464844
2134,-38.25,-37.75,-115.4375,1.380371,-1.37793,0.3251953,-0.2700195,0.1489258,0.02148438
2138,-16.0625,-25.1875,-88.125,1.442383,-1.61084,0.4365234,-0.2734375,0.1411133,0.02392578
2142,6.0625,-9.0625,-60.8125,1.361328,-1.560547,0.4868164,-0.2792969,0.1362305,0.02978516
2146,16.125,-1.8125,-28.9375,1.256348,-1.486816,0.5214844,-0.2807617,0.1298828,0.02832031
2150,11.5,5.3125,4.375,1.268066,-1.315918,0.5288086,-0.2827148,0.1323242,0.02539063
2154,-2.375,12.875,34.25,1.268066,-1.195313,0.4829102,-0.2807617,0.1313477,0.02539063
2158,-15.25,21.125,58.5,1.260254,-1.167969,0.3867188,-0.2783203,0.1362305,0.02392578
2162,-20.5625,27.875,80.125,1.268066,-1.21875,0.2788086,-0.2783203,0.1401367,0.02392578
2166,-13.9375,35.375,97.8125,1.256348,-1.312012,0.1865234,-0.2734375,0.1474609,0.02294922
2170,-4,40.75,114.0625,1.333984,-1.331055,0.159668,-0.2661133,0.1577148,0.02001953
2174,2.8125,45.3125,140,1.353516,-1.34668,0.1289063,-0.2626953,0.1611328,0.01855469
2179,16.75,47.8125,159.9375,1.368652,-1.323242,0.1098633,-0.2553711,0.1738281,0.01318359
2183,37.9375,56.8125,171,1.442383,-1.276855,0.1367188,-0.2436523,0.1860352,0.0078125
2187,36.875,62.5,183,1.357422,-1.008789,0.159668,-0.237793,0.1962891,0.0009765625
2191,18.125,56.6875,207.9375,1.372559,-0.9619141,0.1826172,-0.2236328,0.2099609,-0.005371094
2195,16.25,59.4375,214.75,1.395996,-1.036133,0.2133789,-0.206543,0.2250977,-0.01074219
2199,21.6875,68.8125,220.625,1.484863,-1.11377,0.1982422,-0.1962891,0.2324219,-0.01464844
2203,34.4375,68.9375,239.6875,1.322266,-1.199219,0.1518555,-0.1772461,0.2436523,-0.02050781
2207,59.25,74.4375,240.1875,1.291504,-1.207031,0.09814453,-0.1557617,0.2573242,-0.03125
2211,75.5,78.3125,243.6875,1.330078,-1.000977,0.1479492,-0.1411133,0.262207,-0.03808594
2215,66.4375,80,257.0625,1.209961,-0.7407227,0.1865234,-0.1176758,0.2709961,-0.04736328
2219,46.25,74.9375,265.375,1.02002,-0.6044922,0.1713867,-0.09375,0.2788086,-0.05712891
2223,28.4375,66.0625,269.125,0.9853516,-0.5927734,0.1713867,-0.07324219,0.2822266,-0.06103516
2227,23.4375,64.8125,270.25,1.000488,-0.7133789,0.1713867,-0.04589844,0.2885742,-0.06787109
2231,38.875,65.875,274.8125,0.8652344,-0.8105469,0.08642578,-0.02001953,0.2885742,-0.07177734
2235,63.25,67.5625,264.9375,0.8417969,-0.6591797,0.09814453,-0.0009765625,0.2875977,-0.07470703
2239,77.625,74.875,254.5625,0.6362305,-0.340332,0.08642578,0.02587891,0.2851563,-0.08300781
2243,62.5625,68.9375,246.75,0.5629883,-0.1538086,0.1020508,0.0546875,0.2788086,-0.08837891
2247,47.8125,64.75,242.25,0.3769531,-0.08007813,0.1020508,0.06982422,0.2763672,-0.09228516
2251,42.6875,60.3125,225.5,0.2529297,-0.03759766,0.08251953,0.09375,0.2661133,-0.09667969
2255,33.5,52.5625,210.125,0.1445313,0.02832031,0.1367188,0.1166992,0.2573242,-0.09912109
2259,29.9375,50.5625,195,0.06689453,-0.01416016,0.1479492,0.128418,0.2509766,-0.1005859
2263,27.5625,42.875,169.75,-0.1030273,0.05908203,0.1904297,0.1459961,0.2412109,-0.1020508
2267,18.125,35.8125,152.125,-0.2231445,0.08251953,0.1982422,0.1630859,0.2324219,-0.09912109
2271,12.4375,23.875,137.1875,-0.3510742,0.05517578,0.2060547,0.1713867,0.2260742,-0.1005859
2275,15.125,20.3125,120.625,-0.4208984,0.08642578,0.2133789,0.1821289,0.2163086,-0.1035156
2279,22.5,17.5625,99,-0.5371094,0.2768555,0.2133789,0.1914063,0.2099609,-0.1035156
2283,27.125,19.125,64.625,-0.7773438,0.5878906,0.2441406,0.1972656,0.2060547,-0.1044922
2287,15.75,21.3125,21.1875,-0.7851563,0.6577148,0.2944336,0.2011719,0.2026367,-0.1044922
2291,-0.8125,11.625,-7.3125,-0.8666992,0.6499023,0.2675781,0.2011719,0.2011719,-0.1020508
2295,-11.625,3.5625,-38.9375,-0.8198242,0.5683594,0.2133789,0.2021484,0.2036133,-0.1035156
2299,-18.125,-2.6875,-76.25,-0.831543,0.5332031,0.2597656,0.1962891,0.2060547,-0.1005859
2303,-46.5625,-8.6875,-92.5625,-0.5834961,0.3310547,0.2866211,0.1914063,0.2124023,-0.09667969
2308,-59.6875,-10.4375,-117.4375,-0.4750977,-0.01025391,0.3291016,0.1865234,0.2172852,-0.09667969
2312,-60.6875,-8.9375,-127.375,-0.3164063,-0.2978516,0.2944336,0.1748047,0.2260742,-0.09228516
2316,-49.875,-5,-134.875,-0.3393555,-0.371582,0.2290039,0.1650391,0.2348633,-0.08691406
2320,-33.8125,-4.875,-149.5625,-0.4013672,-0.3364258,0.140625,0.1547852,0.2397461,-0.08300781
2324,-25.5,-11.75,-170.0625,-0.378418,-0.2045898,0.1020508,0.1425781,0.25,-0.08154297
2328,-26.625,-20,-183.3125,-0.3549805,-0.1308594,0.07128906,0.1259766,0.2573242,-0.07763672
2332,-32.75,-33.875,-197.1875,-0.2773438,-0.1035156,0.07128906,0.1142578,0.262207,-0.07861328
2336,-37.4375,-41.75,-208,-0.09912109,-0.1655273,0.08642578,0.09375,0.2709961,-0.07324219
2340,-37,-45.1875,-220.25,0.01269531,-0.2163086,0.09814453,0.07226563,0.2763672,-0.07177734
2344,-34.375,-50.3125,-224.8125,0.1518555,-0.2626953,0.09814453,0.05810547,0.28125,-0.06787109
2348,-45.4375,-59.4375,-230.3125,0.2490234,-0.2314453,0.1210938,0.03564453,0.2861328,-0.06542969
2352,-59.4375,-73.5625,-228.5625,0.4736328,-0.4453125,0.1748047,0.01171875,0.2910156,-0.05957031
2356,-62.75,-68.75,-227.5,0.8071289,-0.6513672,0.2211914,-0.005859375,0.2910156,-0.05566406
2360,-47.125,-53.625,-225.5,1.004395,-0.7792969,0.2519531,-0.02832031,0.2924805,-0.04736328
2364,-12.8125,-36,-235.5,0.9389648,-0.9506836,0.1557617,-0.05078125,0.2885742,-0.04345703
2368,-2.4375,-35.875,-238.4375,0.7294922,-0.6240234,0.09814453,-0.06738281,0.2875977,-0.04052734
2372,-35.5,-63,-228.5,0.7216797,-0.4375,0.05175781,-0.09033203,0.2822266,-0.03955078
2376,-72,-83,-210.875,0.9697266,-0.6162109,0.04052734,-0.1113281,0.2749023,-0.03125
2380,-55.75,-78.9375,-205.4375,1.179199,-1.090332,0.04052734,-0.1259766,0.2700195,-0.02587891
2384,14.6875,-45.5625,-228.625,1.302734,-1.15625,0.1098633,-0.1450195,0.2612305,-0.01757813
2388,81.3125,-19.375,-252.25,1.074219,-0.8066406,0.1020508,-0.168457,0.2509766,-0.01904297
2392,74.9375,-32.875,-260,0.8613281,-0.08789063,0.1171875,-0.1806641,0.2426758,-0.02148438
2396,-7.25,-71.625,-242.25,1.047363,0.121582,0.1943359,-0.203125,0.2275391,-0.02441406
2400,-72,-91.3125,-223.75,1.508301,-0.4257813,0.2558594,-0.2197266,0.2114258,-0.01220703
2404,-71.9375,-75.0625,-209.625,1.911133,-1.086426,0.2866211,-0.2304688,0.2001953,-0.006835938
2408,-16.0625,-34.25,-206.3125,1.872559,-1.342773,0.2133789,-0.2460938,0.1860352,0.002441406
2412,41.5625,-7.9375,-205.125,1.504395,-1.117676,0.09423828,-0.2553711,0.1699219,0.004882813
2416,53.9375,-13.375,-203.0625,1.202148,-0.6396484,0.08642578,-0.2661133,0.1586914,0.002441406
2420,-9.1875,-45.5625,-183.875,1.241211,-0.484375,0.2519531,-0.2768555,0.1411133,0.002441406
2424,-56.5,-54.3125,-149.8125,1.717773,-1.047363,0.4560547,-0.2851563,0.1264648,0.0078125
2428,-47.5625,-27.0625,-119.5,1.841797,-1.494629,0.5175781,-0.2915039,0.1186523,0.01464844
2432,-19.1875,-5.3125,-87.25,1.531738,-1.556641,0.3979492,-0.293457,0.1074219,0.01708984
2437,4.375,-2.625,-63.5625,1.299316,-1.385742,0.2675781,-0.2998047,0.1000977,0.01708984
2441,16.375,-4.3125,-40.6875,1.229492,-1.253418,0.2983398,-0.3017578,0.09619141,0.02001953
2445,11.6875,-3.0625,-11.625,1.364746,-1.15625,0.3867188,-0.3017578,0.09375,0.01855469
2449,-6.3125,2.5,24.875,1.450195,-1.117676,0.4326172,-0.3017578,0.09375,0.01708984
2453,-19.25,10.375,57.8125,1.454102,-1.136719,0.3481445,-0.2983398,0.09619141,0.01855469
2457,-20.1875,13.5625,86.5,1.407715,-1.195313,0.2250977,-0.2983398,0.1010742,0.01855469
2461,-11.125,17.3125,108.75,1.473633,-1.253418,0.1865234,-0.2949219,0.1098633,0.01708984
2465,5.5625,26.5625,133,1.484863,-1.323242,0.1904297,-0.2915039,0.1176758,0.01611328
2469,26.1875,35.25,153.125,1.527832,-1.21875,0.1674805,-0.2841797,0.1313477,0.01171875
2473,33.1875,41,171.6875,1.546875,-1.036133,0.2211914,-0.2758789,0.1435547,0.009277344
2477,22.9375,46.1875,191.875,1.554688,-0.8881836,0.2636719,-0.2700195,0.1547852,0.004882813
2481,10.3125,44.4375,211.375,1.496582,-0.8647461,0.2636719,-0.2578125,0.1723633,-0.001464844
2485,10.3125,47.125,222.375,1.492676,-0.9233398,0.2329102,-0.2460938,0.1875,-0.005371094
2489,15.25,47.375,233.625,1.419434,-0.8457031,0.2329102,-0.2329102,0.1972656,-0.009277344
2493,12.5625,52.25,240.125,1.446289,-0.7172852,0.2519531,-0.2172852,0.2148438,-0.01367188
2497,-3.25,46.6875,252,1.260254,-0.6513672,0.2060547,-0.1982422,0.2299805,-0.02050781
2501,-8,40.875,261.3125,1.318359,-0.7949219,0.1904297,-0.1831055,0.2412109,-0.02050781
2505,13.75,46.375,259.8125,1.233398,-0.8417969,0.159668,-0.1601563,0.2548828,-0.02587891
2509,25.625,48.1875,250.5,1.128418,-0.6552734,0.144043,-0.1367188,0.2661133,-0.02978516
2513,20.875,43.625,253.25,1.155762,-0.6435547,0.159668,-0.1220703,0.2709961,-0.02832031
2517,20.5,48.6875,256.125,1.163574,-0.7016602,0.1674805,-0.09716797,0.2797852,-0.03662109
2521,30.625,54.8125,253.0625,1.074219,-0.6899414,0.1557617,-0.07128906,0.2851563,-0.04052734
2525,36.875,54.25,260,0.8417969,-0.5966797,0.1020508,-0.05566406,0.2885742,-0.04345703
2529,31.1875,45.1875,256.25,0.8183594,-0.4804688,0.1210938,-0.02929688,0.2910156,-0.04882813
2533,27.3125,45.125,248.375,0.7758789,-0.4765625,0.159668,-0.001953125,0.2900391,-0.05273438
2537,17.3125,43.75,247.6875,0.7373047,-0.5307617,0.1748047,0.01269531,0.2910156,-0.05419922
2541,23.125,43.875,251.75,0.5161133,-0.5385742,0.1020508,0.04052734,0.2861328,-0.05859375
2545,38.9375,45.6875,243.5,0.4233398,-0.4570313,0.05566406,0.06542969,0.28125,-0.05957031
2549,59.625,47,231.0625,0.1713867,-0.2861328,0.01367188,0.08203125,0.2773438,-0.06396484
2553,70.4375,46.5625,219.9375,0.03564453,-0.09179688,0.001953125,0.1035156,0.2685547,-0.06933594
2557,71.5,41.75,207.8125,-0.1533203,0.1835938,0.04052734,0.125,0.2563477,-0.07324219
2561,55.1875,28.3125,193.3125,-0.4443359,0.875,0.05566406,0.1376953,0.2524414,-0.07617188
2566,27.375,18.125,161.75,-0.4946289,0.4985352,0.2060547,0.1547852,0.2426758,-0.07861328
2570,19.125,21.125,121.875,-0.5605469,0.4868164,0.2368164,0.1674805,0.2338867,-0.08007813
2574,17.875,17.25,88.125,-0.6533203,0.4399414,0.2636719,0.1757813,0.2285156,-0.08300781
2578,12.8125,13.125,61.75,-0.7075195,0.4829102,0.2749023,0.1782227,0.2236328,-0.08300781
2582,3.375,7.5625,31,-0.7543945,0.4985352,0.2597656,0.1855469,0.2211914,-0.08300781
2586,-4.5625,2.75,-1.8125,-0.7036133,0.4204102,0.2675781,0.1865234,0.2197266,-0.08447266
2590,-11.5,4.5,-38.25,-0.6806641,0.3740234,0.2480469,0.184082,0.2197266,-0.08154297
2594,-20.6875,2.5,-69.0625,-0.6225586,0.253418,0.2290039,0.1806641,0.2250977,-0.08007813
2598,-29.8125,-2.9375,-89.3125,-0.5952148,0.1137695,0.1943359,0.1772461,0.2285156,-0.07861328
2602,-32.6875,-8.875,-107.375,-0.5141602,0.0009765625,0.1518555,0.1699219,0.2324219,-0.07617188
2606,-25.5,-9.375,-128.3125,-0.4482422,-0.04541016,0.1210938,0.1582031,0.2397461,-0.07324219
2610,-19.3125,-11.6875,-152.375,-0.4287109,-0.006347656,0.1132813,0.1508789,0.2451172,-0.06933594
2614,-25.3125,-18.625,-174.375,-0.3203125,0.03222656,0.125,0.1367188,0.2539063,-0.07177734
2618,-38.8125,-29.25,-190.3125,-0.215332,-0.01806641,0.1328125,0.1176758,0.2612305,-0.06933594
2622,-49.8125,-39.125,-198.4375,-0.06054688,-0.1616211,0.1132813,0.1079102,0.2685547,-0.06542969
2626,-45,-39.9375,-215.25,0.05517578,-0.2548828,0.1098633,0.08544922,0.2749023,-0.06103516
2630,-48.75,-46.875,-228.4375,0.1367188,-0.2314453,0.1132813,0.06542969,0.28125,-0.05712891
2634,-64.625,-52.4375,-235.1875,0.3457031,-0.2163086,0.1635742,0.04980469,0.2875977,-0.05175781
2638,-87.125,-54.9375,-244,0.4736328,-0.3173828,0.140625,0.02246094,0.2910156,-0.04736328
2642,-88.125,-55.4375,-241.25,0.7333984,-0.7832031,0.09033203,-0.0009765625,0.293457,-0.03662109
2646,-53.5625,-37.875,-241,0.9311523,-1.020508,0.1020508,-0.01757813,0.2924805,-0.03125
2650,-17.1875,-24.75,-246.5625,0.7412109,-0.7871094,0.06347656,-0.04150391,0.2910156,-0.02734375
2654,-41.9375,-40,-245.3125,0.7602539,-0.3364258,0.1171875,-0.06494141,0.2861328,-0.02441406
2658,-103,-61.125,-235.125,0.9501953,-0.4375,0.1210938,-0.08300781,0.2836914,-0.01611328
2662,-111.6875,-56.375,-225.8125,1.244629,-1.059082,0.05175781,-0.1054688,0.2773438,-0.002441406
2666,-44,-27.1875,-225.125,1.302734,-1.595215,-0.02441406,-0.1245117,0.2700195,0.006347656
2670,51,-2.5625,-227.5625,1.059082,-1.334961,-0.07861328,-0.1411133,0.2636719,0.006347656
2674,64.5625,-12.3125,-232.875,0.8959961,-0.4882813,-0.001464844,-0.1591797,0.2539063,0.002441406
2678,5.3125,-45.75,-221.5625,0.9350586,-0.2705078,0.04785156,-0.1791992,0.2436523,0
2682,-35.3125,-65,-215.25,1.229492,-0.6279297,0.07128906,-0.1923828,0.2338867,0.004882813
2686,-9.4375,-48.375,-214.0625,1.438477,-1.125488,0.04785156,-0.2089844,0.21875,0.01171875
2690,56.5625,-21.6875,-215.8125,1.337891,-1.05127,0.07128906,-0.2246094,0.2060547,0.01611328
2695,63.375,-20.375,-227.875,1.229492,-0.2822266,0.1748047,-0.2353516,0.1972656,0.01171875
2699,-31,-44.9375,-207.625,1.407715,-0.1420898,0.2250977,-0.2509766,0.1787109,0.01171875
2703,-102.3125,-61.875,-170.75,1.670898,-0.8378906,0.1943359,-0.2617188,0.1650391,0.02001953
2707,-86.0625,-40.25,-145.125,1.845703,-1.548828,0.105957,-0.2675781,0.1523438,0.02685547
2711,-15.3125,-11,-121.9375,1.531738,-1.731445,-0.005371094,-0.2744141,0.1425781,0.03369141
2715,37.3125,-6.4375,-109.9375,1.179199,-1.296387,-0.005371094,-0.2807617,0.1313477,0.03369141
2719,38.8125,-19.5625,-97.75,1.13623,-0.9116211,0.1518555,-0.2841797,0.1264648,0.03369141
2723,14.625,-23.625,-80.375,1.322266,-0.8613281,0.375,-0.2866211,0.1162109,0.03515625
2727,-6,-15.1875,-58.375,1.415527,-1.036133,0.4672852,-0.2924805,0.1098633,0.03613281
2731,-11.25,-4.75,-30.6875,1.384277,-1.233887,0.4135742,-0.2924805,0.1074219,0.03613281
2735,-7.375,2.3125,-3.4375,1.337891,-1.265137,0.3251953,-0.2924805,0.1064453,0.03759766
2739,-7.5625,3.25,24.875,1.275879,-1.21875,0.2133789,-0.2915039,0.1049805,0.03759766
2743,-17.4375,-3.5625,58.3125,1.318359,-1.199219,0.144043,-0.293457,0.1074219,0.03759766
2747,-24,-4.625,93.9375,1.384277,-1.1875,0.1367188,-0.2875977,0.1152344,0.04052734
2751,-24.9375,1.25,113.8125,1.473633,-1.203125,0.125,-0.2827148,0.1210938,0.04052734
2755,-19.5625,10.5,131.8125,1.500488,-1.26123,0.08251953,-0.2817383,0.1289063,0.04052734
2759,-10.4375,17,154.625,1.539551,-1.34668,0.03662109,-0.2734375,0.1411133,0.0390625
2763,3.9375,20.875,183.125,1.52002,-1.358398,-0.01318359,-0.2636719,0.1538086,0.0390625
2767,15.125,19.875,205.9375,1.43457,-1.226563,-0.005371094,-0.2568359,0.1635742,0.03759766
2771,20.625,20.3125,219.125,1.469727,-1.140625,0.01367188,-0.2436523,0.1835938,0.03515625
2775,29.25,21.25,232.125,1.426758,-1.098145,0.04052734,-0.2280273,0.2001953,0.03369141
2779,44.4375,27.6875,237.5625,1.446289,-1.05127,0.05175781,-0.2172852,0.2084961,0.02832031
2783,59.5625,36.5625,240.875,1.395996,-0.9155273,0.06347656,-0.199707,0.2250977,0.02001953
2787,55.5,37.9375,244.625,1.279785,-0.7368164,0.06347656,-0.1791992,0.2426758,0.01171875
2791,50.1875,39.625,245.125,1.287598,-0.7719727,0.07519531,-0.1665039,0.25,0.006347656
2795,55.6875,40,251.1875,1.159668,-0.7910156,0.04443359,-0.1435547,0.2612305,-0.001464844
2799,64.125,40.875,250,1.117188,-0.7055664,0.01708984,-0.1210938,0.2709961,-0.006835938
2803,69.4375,45.0625,246.5,1.082031,-0.6005859,0.04443359,-0.1044922,0.2773438,-0.01367188
2807,65.125,43.875,242.5625,1.000488,-0.5927734,0.05566406,-0.08056641,0.2851563,-0.02148438
2811,60.6875,42.25,239.9375,1.004395,-0.6201172,0.09423828,-0.05810547,0.2885742,-0.03125
2815,58.75,45.1875,234,1.016113,-0.7211914,0.08251953,-0.04248047,0.2900391,-0.03369141
2819,75.6875,54.25,233.125,0.9658203,-0.8496094,0.04443359,-0.01855469,0.293457,-0.04052734
2824,101.8125,64.1875,229.25,0.7993164,-0.7485352,-0.01318359,0.006835938,0.2924805,-0.05273438
2828,106.5625,69.125,215.8125,0.7568359,-0.4492188,0.03662109,0.02148438,0.2900391,-0.05957031
2832,80.8125,74.1875,210.125,0.7216797,-0.3286133,0.105957,0.04394531,0.2861328,-0.06933594
2836,44.6875,67.5625,228.25,0.4814453,-0.3676758,0.09423828,0.06640625,0.2797852,-0.07617188
2840,22.5625,54.5625,239.5625,0.3535156,-0.3793945,0.1132813,0.08056641,0.2739258,-0.07861328
2844,33.1875,60.75,233,0.2797852,-0.3637695,0.07910156,0.1044922,0.2661133,-0.07861328
2848,61.125,71.9375,212.8125,0.06298828,-0.2124023,0.04443359,0.1269531,0.2548828,-0.08154297
2852,80.0625,76.1875,200.625,-0.1186523,0.03222656,0.02880859,0.1416016,0.25,-0.08300781
2856,74.8125,70.625,189.75,-0.4091797,0.3896484,0.01367188,0.1591797,0.2373047,-0.08691406
2860,47.4375,46.5,177.6875,-0.7578125,0.7895508,0.05566406,0.1757813,0.2260742,-0.09082031
2864,4.125,13.75,154.0625,-0.9672852,1.026855,0.140625,0.1879883,0.2172852,-0.09082031
2868,-32.4375,-4.25,111.0625,-0.9516602,0.9956055,0.2290039,0.1972656,0.2084961,-0.09228516
2872,-44.4375,-10.25,61.375,-0.9868164,0.777832,0.2290039,0.2080078,0.2050781,-0.08984375
2876,-36.5625,-12.0625,14.3125,-0.9594727,0.6030273,0.2094727,0.2070313,0.2026367,-0.08691406
2880,-21,-12.1875,-33,-0.9052734,0.4555664,0.2172852,0.2070313,0.2026367,-0.08544922
2884,-13.3125,-13.3125,-75.375,-0.7890625,0.3388672,0.2709961,0.203125,0.2050781,-0.08544922
2888,-22.125,-17.5625,-106.3125,-0.6689453,0.2148438,0.3212891,0.1987305,0.2084961,-0.08447266
2892,-46,-27.25,-124.875,-0.5488281,0.02441406,0.3867188,0.1904297,0.2172852,-0.08300781
2896,-68,-35.4375,-132.5625,-0.4482422,-0.1850586,0.355957,0.1782227,0.2275391,-0.07861328
2900,-75.25,-30.5,-136.5625,-0.262207,-0.2861328,0.3173828,0.1713867,0.2324219,-0.07763672
2904,-66.875,-15.875,-143.4375,-0.3125,-0.4101563,0.2211914,0.1582031,0.2426758,-0.06933594
2908,-35.4375,-8.0625,-165.25,-0.3935547,-0.3989258,0.09814453,0.1450195,0.25,-0.06640625
2912,-8.625,-2.0625,-194.6875,-0.2734375,-0.2587891,0.1171875,0.1318359,0.2548828,-0.06396484
2916,-6.8125,-2.75,-227.3125,-0.2426758,-0.07226563,0.140625,0.1152344,0.2651367,-0.06103516
2920,-19.625,-12.625,-239.75,-0.1845703,-0.09179688,0.1098633,0.09277344,0.2709961,-0.0625
2924,-26.125,-26.8125,-241.0625,-0.1147461,-0.2124023,0.06738281,0.07617188,0.2773438,-0.06103516
2928,-15.375,-35.9375,-240.6875,0.06298828,-0.2978516,0.05957031,0.05322266,0.2836914,-0.05859375
2932,-1.4375,-38.9375,-251.625,0.206543,-0.2705078,0.09423828,0.02734375,0.2875977,-0.05566406
2936,12,-38.75,-263.0625,0.3535156,-0.2861328,0.125,0.009277344,0.2900391,-0.05712891
2940,-0.9375,-50.8125,-279.875,0.4311523,0.08642578,0.2250977,-0.01611328,0.2900391,-0.05712891
2944,-67.8125,-80.625,-285.1875,0.7177734,0.140625,0.2480469,-0.04589844,0.2900391,-0.05273438
2948,-124.9375,-94.5625,-264.875,1.066406,-0.355957,0.1748047,-0.06494141,0.2875977,-0.04492188
2953,-112.1875,-85,-243.5,1.26416,-1.109863,0.1171875,-0.09130859,0.2822266,-0.02978516
2957,-54.8125,-55.5625,-235,1.291504,-1.11377,0.05566406,-0.1152344,0.2749023,-0.01464844
2961,-4.4375,-30.5625,-230.125,1.179199,-0.8496094,0.02099609,-0.1293945,0.2685547,-0.01220703
2965,6.8125,-30.125,-244.25,0.9423828,-0.2666016,0.005859375,-0.1508789,0.2597656,-0.01220703
2969,-36.3125,-57.0625,-258.5625,1.05127,-0.06445313,0.01367188,-0.1748047,0.2460938,-0.006835938
2973,-64.875,-70.375,-252,1.349609,-0.453125,0.05175781,-0.1889648,0.2363281,-0.00390625
2977,-41.125,-54.4375,-244.4375,1.566406,-0.8339844,0.105957,-0.206543,0.2211914,0.004882813
2981,18.75,-19.8125,-241,1.554688,-0.9272461,0.09033203,-0.2246094,0.2050781,0.01074219
2985,58.5,-7.1875,-251.4375,1.268066,-0.3911133,0.02099609,-0.2353516,0.1938477,0.0078125
2989,15.625,-43.8125,-260.6875,1.244629,0.07470703,0.009765625,-0.253418,0.1738281,0.0078125
2993,-40.6875,-81.1875,-244.5,1.589844,-0.2392578,0.01708984,-0.2675781,0.1538086,0.01611328
2997,-43.3125,-77.5,-228.25,1.926758,-0.7792969,0.05566406,-0.2744141,0.1411133,0.02294922
3001,4.0625,-44.4375,-211.75,1.980957,-1.090332,0.09423828,-0.2875977,0.1186523,0.02978516
3005,70.1875,-9.875,-196.5625,1.791016,-1.05127,0.1098633,-0.2958984,0.1010742,0.03369141
3009,123,10.3125,-188.4375,1.527832,-0.8222656,0.1098633,-0.3017578,0.08984375,0.03222656
3013,149.6875,16.3125,-184.0625,1.388184,-0.4648438,0.1635742,-0.3081055,0.07373047,0.02392578
3017,149.4375,9.4375,-182.3125,1.198242,-0.2548828,0.2094727,-0.3149414,0.05859375,0.01611328
3021,146.9375,-7.375,-182.875,1.175293,-0.2006836,0.2983398,-0.3173828,0.04638672,0.01318359
3025,146.0625,-17.6875,-187.875,1.233398,-0.1850586,0.3442383,-0.3222656,0.03125,0.01074219
3029,145.625,-18.8125,-189.25,1.333984,-0.1733398,0.3828125,-0.3271484,0.01269531,0.01171875
3033,148.875,-9.5625,-186.6875,1.39209,-0.1420898,0.3671875,-0.3271484,0,0.01074219
3037,134,-4.75,-172.25,1.345703,0.04003906,0.3637695,-0.3295898,-0.01708984,0.009277344
3041,105.6875,-5.75,-148.0625,1.353516,0.1333008,0.3481445,-0.3295898,-0.03320313,0.01074219
3045,72.75,-6.9375,-123.5,1.326172,0.1757813,0.3442383,-0.3305664,-0.04296875,0.01171875
3049,38.875,-12.4375,-95.3125,1.287598,0.1992188,0.3173828,-0.3295898,-0.0546875,0.01074219
3053,9,-14.0625,-68,1.291504,0.2148438,0.2905273,-0.3305664,-0.06201172,0.01171875
3057,-15.5625,-13.25,-42.5625,1.248535,0.1523438,0.2368164,-0.3305664,-0.06689453,0.01318359
3061,-23.4375,-8.375,-23.4375,1.233398,0.06689453,0.2060547,-0.328125,-0.07080078,0.01464844
3065,-16,3,-16.25,1.209961,-0.002441406,0.159668,-0.3295898,-0.07324219,0.01611328
3069,-1.5625,15.5,-13.9375,1.179199,0.0009765625,0.1328125,-0.3295898,-0.07324219,0.01318359
3073,12,25.6875,-12.8125,1.117188,0.04394531,0.1132813,-0.3305664,-0.07568359,0.01171875
3077,21.625,32.3125,-9.75,1.078125,0.1176758,0.09814453,-0.3295898,-0.07568359,0.01074219
3082,23.5,34.875,-4.125,1.031738,0.1875,0.09423828,-0.328125,-0.078125,0.0078125
