Packet number,Gyroscope X (deg/s),Gyroscope Y (deg/s),Gyroscope Z (deg/s),Accelerometer X (g),Accelerometer Y (g),Accelerometer Z (g),Magnetometer X (G),Magnetometer Y (G),Magnetometer Z (G)
1,-13.375,18.25,5.8125,0.9814453,0.004882813,0.05957031,-0.3017578,0.05371094,-0.08544922
5,11.4375,19.3125,-24.0625,1.05127,0.02441406,0.2329102,-0.3007813,0.05371094,-0.08691406
9,15.9375,17,-35.375,1.016113,0.008789063,0.1171875,-0.3032227,0.05273438,-0.08984375
13,24.875,14.75,-37.0625,1.05127,-0.04150391,0.2368164,-0.3032227,0.04882813,-0.09228516
17,32.4375,7.25,-36.875,0.9194336,-0.02197266,0.1020508,-0.3056641,0.04248047,-0.09228516
21,40.625,-45.25,-29.375,0.8417969,-0.2084961,0.08642578,-0.3041992,0.04150391,-0.09082031
25,58.375,-34.375,-32.3125,1.128418,-0.03759766,0.1289063,-0.3041992,0.03613281,-0.09082031
29,57.5625,-10,-31.6875,1.202148,-0.02197266,0.2172852,-0.309082,0.03515625,-0.08837891
33,41.8125,-15.3125,-30.875,1.043457,0.008789063,0.2060547,-0.3081055,0.03125,-0.08984375
37,42.9375,5.9375,-29.5,1.113281,0.01660156,0.144043,-0.309082,0.02636719,-0.09082031
41,35.25,7.5625,-19.4375,1.089844,0.04003906,0.159668,-0.309082,0.02392578,-0.09082031
45,19.25,0.375,-3.25,1.027832,0.02441406,0.1367188,-0.309082,0.02001953,-0.09228516
49,14.5,-10.8125,2,1.05127,0.004882813,0.1674805,-0.3081055,0.02001953,-0.09228516
53,6.75,-8.5,5,1.155762,-0.05273438,0.1982422,-0.309082,0.02001953,-0.09082031
57,1.3125,2,15.5,1.186523,-0.02587891,0.1826172,-0.309082,0.02148438,-0.09228516
61,4.125,4.625,27.5625,1.140137,-0.04882813,0.1635742,-0.309082,0.02148438,-0.09082031
65,1.625,4.75,39.5,1.117188,-0.03369141,0.144043,-0.3081055,0.02490234,-0.08984375
69,-2.75,5,47.375,1.124512,-0.01416016,0.159668,-0.3105469,0.02880859,-0.09082031
73,-6.8125,8.625,47.875,1.124512,-0.01806641,0.1674805,-0.3056641,0.03369141,-0.09375
77,-13,11.875,47.3125,1.132324,-0.01416016,0.1982422,-0.3066406,0.03759766,-0.09228516
81,-17.0625,14.5625,50.75,1.144043,-0.06054688,0.1787109,-0.3056641,0.04003906,-0.09521484
85,-20.5625,15.5,60.125,1.147949,-0.1381836,0.1748047,-0.3017578,0.04980469,-0.09521484
89,-19.75,15.0625,65.5625,1.147949,-0.1499023,0.1557617,-0.3017578,0.05371094,-0.09667969
93,-18.375,18,65,1.159668,-0.2314453,0.1479492,-0.2998047,0.05761719,-0.09667969
97,-14.875,20.125,82.8125,1.260254,-0.2939453,0.04052734,-0.2973633,0.06494141,-0.09667969
101,-12.5625,23.875,101.125,1.113281,-0.1499023,0.2172852,-0.293457,0.07373047,-0.1005859
105,-15.4375,19,85.875,1.155762,-0.2626953,0.1904297,-0.2900391,0.08007813,-0.1005859
109,-19.4375,22.5625,86.5,1.268066,-0.2900391,0.1982422,-0.2851563,0.08886719,-0.1020508
113,-17.75,24.75,93.875,1.268066,-0.371582,0.2172852,-0.2817383,0.09521484,-0.1020508
118,-14.4375,27,87.5625,1.237305,-0.5698242,0.2172852,-0.2807617,0.1010742,-0.1035156
122,-6.4375,27.625,98.0625,1.213867,-0.484375,0.1635742,-0.2744141,0.1113281,-0.105957
126,3,23.875,104.375,1.241211,-0.5307617,0.1748047,-0.2700195,0.1186523,-0.105957
130,11,26.9375,112.8125,1.318359,-0.453125,0.2094727,-0.2661133,0.125,-0.1098633
134,8,33.0625,117.5625,1.302734,-0.3364258,0.2441406,-0.2592773,0.1347656,-0.1142578
138,-2.625,32.25,122.5625,1.252441,-0.3481445,0.2558594,-0.2495117,0.1435547,-0.1142578
142,-10.375,25.3125,134.875,1.217773,-0.4335938,0.2441406,-0.2470703,0.1513672,-0.1157227
146,-12.8125,21.5625,147.125,1.252441,-0.4726563,0.2250977,-0.237793,0.1611328,-0.1196289
150,-13.125,20.9375,152.9375,1.260254,-0.4453125,0.2172852,-0.2270508,0.1738281,-0.1196289
154,-23.5625,16.6875,156.8125,1.260254,-0.4296875,0.1982422,-0.21875,0.1801758,-0.1210938
158,-27.375,12.875,172.6875,1.29541,-0.5893555,0.1635742,-0.2089844,0.1914063,-0.1210938
162,-12.8125,19.5625,183.75,1.310547,-0.7133789,0.1367188,-0.1962891,0.2026367,-0.1210938
166,4.625,29.4375,182.5,1.306641,-0.6474609,0.125,-0.1855469,0.2099609,-0.1196289
170,5.5625,27.75,185.625,1.256348,-0.4921875,0.140625,-0.1699219,0.21875,-0.125
174,-1.4375,24.3125,192.8125,1.310547,-0.5307617,0.1635742,-0.1533203,0.2299805,-0.1235352
178,-13.375,16.4375,202.8125,1.287598,-0.550293,0.1943359,-0.1425781,0.2338867,-0.1264648
182,-17.25,12.1875,221.0625,1.299316,-0.6708984,0.1713867,-0.1235352,0.2451172,-0.1264648
186,-4.6875,17,234,1.306641,-0.8535156,0.1635742,-0.1054688,0.2524414,-0.1279297
190,20,34.5625,234.0625,1.260254,-0.6787109,0.159668,-0.09130859,0.2548828,-0.1279297
194,31.4375,48.9375,230.8125,1.147949,-0.550293,0.1748047,-0.06884766,0.2587891,-0.1303711
198,24.9375,49.8125,234.25,0.9658203,-0.4257813,0.2021484,-0.04492188,0.262207,-0.1386719
202,10.25,36.8125,244.5,0.8149414,-0.3325195,0.2290039,-0.02929688,0.2636719,-0.1401367
206,0.0625,26.25,250.9375,0.7641602,-0.4375,0.2290039,-0.004394531,0.2636719,-0.1416016
210,4.5,21.1875,249.375,0.6518555,-0.4296875,0.2172852,0.01757813,0.262207,-0.1425781
214,21.4375,36.75,246.25,0.659668,-0.3989258,0.1943359,0.03662109,0.2597656,-0.1416016
218,40.9375,56.625,223.6875,0.3999023,-0.1967773,0.1787109,0.05810547,0.2548828,-0.1469727
222,47.3125,68.75,207.0625,0.109375,-0.01025391,0.1557617,0.07958984,0.2485352,-0.1494141
226,43,65.375,197.25,-0.1962891,0.1445313,0.140625,0.09277344,0.2412109,-0.1523438
230,36.6875,58,177.125,-0.4365234,0.2651367,0.1713867,0.112793,0.2338867,-0.1538086
234,35.5,50.25,141.5,-0.7075195,0.5214844,0.1557617,0.128418,0.2250977,-0.1538086
238,21.375,38.5625,106.1875,-0.9633789,0.5253906,0.2402344,0.1367188,0.2197266,-0.1547852
242,6.375,20.6875,74.5625,-1.063965,0.4711914,0.2480469,0.1459961,0.2148438,-0.15625
247,-0.8125,7.25,35.0625,-1.037109,0.3896484,0.2788086,0.1508789,0.2124023,-0.1547852
251,-8.75,-0.1875,-0.875,-0.9438477,0.2729492,0.3017578,0.1523438,0.2124023,-0.15625
255,-16,-5.375,-31.8125,-0.8085938,0.140625,0.3173828,0.1523438,0.2114258,-0.15625
259,-24.3125,-6.375,-61.1875,-0.7075195,0.04003906,0.3056641,0.1474609,0.2148438,-0.1538086
263,-31.875,-7.5625,-89.1875,-0.5644531,-0.1269531,0.2675781,0.1450195,0.2197266,-0.1508789
267,-37.125,-12.1875,-108.375,-0.4248047,-0.3017578,0.2597656,0.1367188,0.2250977,-0.1494141
271,-36.4375,-9.25,-116.375,-0.246582,-0.4570313,0.2480469,0.1259766,0.2299805,-0.1484375
275,-21,4.75,-123.75,-0.1806641,-0.5385742,0.1865234,0.1186523,0.2338867,-0.1455078
279,1.9375,19.1875,-138.75,-0.2426758,-0.3364258,0.125,0.109375,0.2436523,-0.1425781
283,10.4375,16.6875,-155.25,-0.3125,-0.2124023,0.08642578,0.09619141,0.2475586,-0.1425781
287,1.1875,1.9375,-174.625,-0.3164063,-0.09179688,0.1020508,0.08789063,0.2485352,-0.1416016
291,-16.5,-21.375,-185.75,-0.1342773,-0.09570313,0.1171875,0.07226563,0.2548828,-0.1401367
295,-24.875,-34.5,-188,0.109375,-0.2705078,0.1132813,0.05322266,0.2587891,-0.137207
299,-11.0625,-30.875,-200,0.3071289,-0.4453125,0.09033203,0.04150391,0.2636719,-0.1357422
303,12,-21.625,-227.0625,0.4853516,-0.46875,0.07128906,0.02148438,0.2651367,-0.1347656
307,19.625,-13.875,-228.25,0.5395508,-0.1850586,0.1713867,-0.0009765625,0.2636719,-0.137207
311,4.625,-18.8125,-225.1875,0.5087891,-0.1230469,0.1171875,-0.01611328,0.2661133,-0.1357422
315,-8,-39.5,-226.5625,0.4311523,-0.1577148,0.02880859,-0.0390625,0.2651367,-0.137207
319,-17.9375,-66.9375,-234.3125,0.6210938,-0.1694336,0.04443359,-0.06054688,0.2612305,-0.1333008
323,-18.1875,-67.5625,-244.5625,1.047363,-0.2939453,0.06738281,-0.07714844,0.2587891,-0.1303711
327,1.5625,-49.8125,-234.5,1.128418,-0.3793945,0.01708984,-0.1020508,0.2548828,-0.1264648
331,25.875,-34.25,-242.5625,1.082031,-0.2861328,0.03662109,-0.1220703,0.2451172,-0.1264648
335,45,-27.0625,-264.8125,1.0625,-0.02587891,0.07910156,-0.1391602,0.2397461,-0.125
339,38.1875,-34.6875,-279.75,1.055176,0.1835938,0.09423828,-0.1616211,0.2260742,-0.1289063
343,11.375,-65.8125,-275.375,1.05127,0.3662109,0.08251953,-0.1865234,0.2099609,-0.1264648
347,-32.4375,-104,-268.75,1.481445,0.3271484,0.159668,-0.199707,0.2001953,-0.1196289
351,-28.75,-82.1875,-268.5625,2.182617,-0.1499023,0.2021484,-0.222168,0.1826172,-0.1113281
355,12.25,-29.625,-268.125,2.155273,-0.3134766,0.1518555,-0.2402344,0.1625977,-0.105957
359,31.25,-17.5,-267.125,1.768066,0.05517578,0.02880859,-0.2495117,0.1489258,-0.1074219
363,4.375,-52.25,-260.75,1.717773,0.2070313,0.01708984,-0.2651367,0.1289063,-0.1044922
367,-37.1875,-77.875,-240.125,2.268066,-0.06835938,0.1171875,-0.2792969,0.1049805,-0.09912109
371,-55.5,-66.625,-179.6875,2.477051,-0.7329102,0.1943359,-0.2866211,0.09228516,-0.09228516
376,-43.4375,-38.25,-116.375,2.63623,-1.331055,0.3212891,-0.2924805,0.07861328,-0.08447266
380,-5.5,-8.6875,-71.5,2.271973,-1.580078,0.1826172,-0.2949219,0.06982422,-0.08007813
384,34.4375,6.8125,-41.25,1.853027,-1.541016,0.2250977,-0.2998047,0.06640625,-0.08154297
388,62.8125,11.375,-19.3125,1.655762,-1.401367,0.4443359,-0.2998047,0.0625,-0.08544922
392,75.9375,18.4375,-0.8125,1.698242,-1.222656,0.675293,-0.3007813,0.05859375,-0.08837891
396,70.375,33.0625,15.5,1.69043,-1.012695,0.7983398,-0.2983398,0.06005859,-0.08984375
400,37.75,35.0625,31.375,1.531738,-0.7563477,0.675293,-0.2998047,0.06005859,-0.09765625
404,-7.0625,22.8125,68.375,1.574219,-0.7211914,0.4599609,-0.2973633,0.06396484,-0.09912109
408,-23.375,14.1875,102.875,1.605469,-0.8686523,0.3173828,-0.293457,0.06738281,-0.1005859
412,-19.1875,22.375,119.5625,1.775879,-0.8881836,0.2368164,-0.2915039,0.07861328,-0.1020508
416,-11.875,30.6875,147.5625,1.787598,-0.8725586,0.1826172,-0.2841797,0.09228516,-0.1020508
420,-4.4375,36.25,172.8125,1.837891,-0.8105469,0.1557617,-0.2768555,0.1000977,-0.1035156
424,0.1875,39,198.1875,1.798828,-0.6435547,0.1289063,-0.2700195,0.1162109,-0.1088867
428,-7.5625,34.3125,215.1875,1.791016,-0.4570313,0.1713867,-0.2592773,0.1337891,-0.1098633
432,-14.625,33.25,227.875,1.818359,-0.5,0.2133789,-0.2495117,0.1459961,-0.1098633
436,-13,38.875,241,1.938477,-0.5229492,0.2636719,-0.2363281,0.1635742,-0.112793
440,-8.125,50.25,255.8125,1.868652,-0.4921875,0.2519531,-0.2197266,0.1811523,-0.1166992
444,-6.9375,49.5625,270,1.833984,-0.4335938,0.2636719,-0.2055664,0.1923828,-0.1196289
448,-10.6875,50.1875,283.8125,1.779785,-0.3950195,0.2788086,-0.1855469,0.2114258,-0.1225586
452,-7.9375,50,294.5,1.605469,-0.3911133,0.2402344,-0.1616211,0.2260742,-0.125
456,-7.1875,43.5625,302.9375,1.492676,-0.3364258,0.2368164,-0.1450195,0.2348633,-0.1279297
460,-3.4375,42.875,302.8125,1.454102,-0.2548828,0.2905273,-0.1162109,0.2460938,-0.1279297
464,4.0625,52.8125,300.125,1.384277,-0.3173828,0.2675781,-0.08789063,0.2563477,-0.1333008
468,9.125,53.375,303.625,1.182617,-0.1694336,0.2597656,-0.06884766,0.2612305,-0.1347656
472,0.4375,50.875,303.75,1.070313,-0.01806641,0.2788086,-0.04248047,0.2651367,-0.137207
476,-8.9375,42.8125,297.375,0.9350586,-0.1347656,0.2133789,-0.01171875,0.2661133,-0.1401367
480,-11.3125,38.4375,296.9375,0.8959961,-0.09179688,0.1982422,0.009277344,0.2651367,-0.1357422
484,-3.8125,45.1875,287.875,0.7641602,-0.1381836,0.1367188,0.0390625,0.2612305,-0.1386719
488,16.5625,53.875,272.8125,0.5898438,-0.1499023,0.06347656,0.06396484,0.2563477,-0.1386719
492,25.4375,55.625,255.5,0.3999023,0.06689453,0.04785156,0.08300781,0.25,-0.1401367
496,15.625,52.0625,238.625,0.2412109,0.1875,0.08251953,0.105957,0.2397461,-0.1416016
500,4.8125,46.5625,221.9375,-0.03320313,0.2148438,0.07910156,0.1308594,0.2314453,-0.1401367
505,0.25,40.625,195.375,-0.1499023,0.1640625,0.09423828,0.1425781,0.2226563,-0.1416016
509,7.0625,41.3125,170.4375,-0.3164063,0.1254883,0.1020508,0.1582031,0.2138672,-0.137207
513,8.625,41.125,152.625,-0.5605469,0.253418,0.09423828,0.1738281,0.2036133,-0.137207
517,11.9375,36,123.5,-0.847168,0.3818359,0.05566406,0.1821289,0.2001953,-0.137207
521,6.625,32.625,80.3125,-1.056641,0.5605469,0.1210938,0.1914063,0.1923828,-0.137207
525,-2.1875,21.9375,37.9375,-1.219238,0.5214844,0.1132813,0.1987305,0.1875,-0.1347656
529,-15.75,7.0625,2.1875,-1.234863,0.5019531,0.144043,0.2011719,0.1875,-0.1357422
533,-25.3125,-3.375,-33.125,-1.137695,0.3427734,0.144043,0.1987305,0.1899414,-0.1289063
537,-27.875,-8.9375,-68.125,-0.9477539,0.1679688,0.1674805,0.1938477,0.1938477,-0.1318359
541,-38.8125,-14.6875,-97.9375,-0.7114258,0.008789063,0.2329102,0.1914063,0.1962891,-0.1303711
545,-55.6875,-23,-121.0625,-0.5449219,-0.2241211,0.2290039,0.1821289,0.2026367,-0.125
549,-75.8125,-34.8125,-123.0625,-0.246582,-0.5463867,0.2368164,0.1713867,0.2148438,-0.1235352
553,-81,-33.1875,-124.25,0.05517578,-0.2314453,0.1328125,0.1640625,0.21875,-0.1181641
557,-42.625,-12.125,-105.0625,0.01660156,-1.043945,0.105957,0.1533203,0.2299805,-0.1157227
561,-13.25,9.5625,-120.1875,-0.01025391,-0.8144531,0.159668,0.1450195,0.2338867,-0.1098633
565,-3.5625,16.5625,-128.0625,-0.1533203,-0.6821289,0.1518555,0.1376953,0.2373047,-0.1113281
569,-11,7.6875,-133.3125,-0.07226563,-0.6201172,0.1713867,0.1269531,0.2436523,-0.1088867
573,-16.8125,3.6875,-128.5625,-0.09912109,-0.7016602,0.125,0.1152344,0.25,-0.1088867
577,-6.0625,2.625,-131.75,-0.08789063,-0.6860352,0.06738281,0.105957,0.2548828,-0.105957
581,14.75,11.375,-141,-0.05664063,-0.6435547,0.05566406,0.09521484,0.2587891,-0.1044922
585,37.75,20.75,-159.0625,-0.09130859,-0.5151367,0.03271484,0.08203125,0.2636719,-0.1088867
589,40,13.625,-173.8125,-0.1884766,-0.2587891,0.05175781,0.07226563,0.2651367,-0.1074219
593,11.3125,-17.625,-187.5,-0.1845703,-0.04882813,0.07128906,0.05566406,0.2685547,-0.1098633
597,-32.875,-55.1875,-191.6875,0.1328125,-0.1308594,0.1098633,0.03564453,0.2709961,-0.1113281
601,-56.25,-65.4375,-193.8125,0.5395508,-0.4453125,0.09033203,0.02246094,0.2739258,-0.1074219
605,-35.8125,-45.75,-188.375,0.7758789,-0.8647461,0.05957031,0.0009765625,0.2773438,-0.1005859
609,15,-15.5625,-190.8125,0.7294922,-0.8613281,0.01708984,-0.01757813,0.2788086,-0.1005859
613,38.0625,-11.75,-196.8125,0.4038086,-0.4453125,-0.02832031,-0.02929688,0.2763672,-0.1005859
617,11.5625,-43.9375,-206.9375,0.3378906,0.105957,0.005859375,-0.04980469,0.2724609,-0.1020508
621,-53.1875,-81,-224.5625,0.5126953,0.269043,0.02099609,-0.07226563,0.2724609,-0.09765625
625,-95.1875,-95.125,-242.8125,1.082031,-0.1074219,0.02490234,-0.08642578,0.2675781,-0.08984375
629,-70.125,-68.5625,-239.625,1.484863,-0.8686523,0.02880859,-0.1103516,0.2636719,-0.08007813
634,6.5625,-18.375,-227.125,1.574219,-1.133301,0.01367188,-0.1303711,0.2548828,-0.07470703
638,86,26.9375,-225,1.271973,-0.7524414,-0.01318359,-0.1459961,0.2485352,-0.07763672
642,115.375,28.3125,-238.3125,0.8730469,-0.02978516,-0.02441406,-0.1640625,0.2363281,-0.08447266
646,64.9375,-11.5625,-262.875,0.7451172,0.8051758,0.009765625,-0.1855469,0.2226563,-0.09082031
650,-34.0625,-85.875,-260.3125,1.140137,0.4907227,0.05957031,-0.1972656,0.2114258,-0.09375
654,-71.6875,-97.875,-244.625,1.96582,-0.3325195,0.125,-0.2197266,0.1962891,-0.07861328
658,-27.875,-47.6875,-233.8125,2.454102,-0.4296875,0.1674805,-0.2363281,0.1787109,-0.07080078
662,46.875,8.1875,-214.875,2.000488,-0.8417969,0.009765625,-0.2446289,0.1674805,-0.07080078
666,75.625,14.3125,-214.5,1.496582,-0.2978516,-0.06689453,-0.2592773,0.1499023,-0.07470703
670,35.5625,-19.6875,-206.8125,1.442383,0.03613281,0.01367188,-0.2709961,0.1313477,-0.07861328
674,-20.6875,-55.625,-176.8125,1.779785,-0.4648438,0.2250977,-0.2783203,0.1201172,-0.07617188
678,-27.6875,-47.5625,-140.4375,2.15918,-1.016602,0.355957,-0.2851563,0.1035156,-0.06933594
682,0.75,-16.125,-103.875,2.004395,-1.26123,0.3134766,-0.2915039,0.09375,-0.06640625
686,32.1875,-0.625,-75.5,1.601563,-1.21875,0.2749023,-0.2915039,0.08886719,-0.06787109
690,57.0625,3.8125,-56.8125,1.473633,-1.133301,0.3867188,-0.293457,0.08105469,-0.06640625
694,59.0625,9.75,-42.75,1.492676,-0.8686523,0.5214844,-0.2973633,0.07373047,-0.07177734
698,27.5,7.75,-19,1.500488,-0.7133789,0.6020508,-0.2998047,0.07275391,-0.07617188
702,-7.9375,4.25,11.4375,1.550781,-0.7407227,0.5136719,-0.2983398,0.07128906,-0.07324219
706,-25.5,7.125,39.25,1.558594,-0.8647461,0.2905273,-0.2983398,0.07373047,-0.07324219
710,-18.75,8.9375,68.4375,1.473633,-0.9892578,0.05175781,-0.2958984,0.07617188,-0.07470703
714,1,11.125,85.75,1.477539,-0.9506836,-0.009277344,-0.293457,0.08398438,-0.07324219
718,13.8125,15.75,103,1.543457,-0.8300781,0.009765625,-0.2900391,0.08984375,-0.07617188
722,9.3125,18.375,124,1.52002,-0.6162109,0.05175781,-0.2875977,0.09863281,-0.07470703
726,-0.5625,11.625,144.9375,1.481445,-0.5776367,0.06738281,-0.2807617,0.1098633,-0.07763672
730,-4.5,13.0625,157.375,1.582031,-0.6044922,0.07128906,-0.2734375,0.1225586,-0.08007813
734,2.1875,19,170.5625,1.620605,-0.6513672,0.06738281,-0.2685547,0.1323242,-0.08007813
738,13.875,28.25,183.0625,1.574219,-0.6591797,0.005859375,-0.2592773,0.1489258,-0.08300781
742,27.4375,30.625,192.75,1.473633,-0.6279297,-0.01660156,-0.2485352,0.1601563,-0.08691406
746,40.5625,35.4375,197.0625,1.496582,-0.5698242,0.01708984,-0.2387695,0.1689453,-0.08984375
750,49.0625,46.25,198.8125,1.612793,-0.5424805,0.1328125,-0.2270508,0.1835938,-0.09521484
754,58.9375,62.5625,196.625,1.736816,-0.6201172,0.2094727,-0.2104492,0.1948242,-0.1035156
758,77.1875,92.8125,202.75,1.756348,-0.6162109,0.2172852,-0.1982422,0.2026367,-0.1113281
763,88.8125,109.9375,209.8125,1.458008,-0.453125,0.1518555,-0.1791992,0.2124023,-0.1235352
767,50.6875,87.1875,223.25,0.9892578,-0.06445313,0.1171875,-0.1616211,0.2197266,-0.1357422
771,1,45,236.0625,0.9038086,0.0009765625,0.1904297,-0.1474609,0.2275391,-0.1401367
775,-27.5625,22.25,240.8125,0.9423828,-0.2241211,0.2519531,-0.1259766,0.2363281,-0.1416016
779,-18.1875,29.0625,220.5625,1.085938,-0.3754883,0.2983398,-0.1054688,0.2451172,-0.1401367
783,-3.5,44.8125,209.75,1.023926,-0.421875,0.2675781,-0.09375,0.2509766,-0.1425781
787,-1,40.5625,212.8125,0.9423828,-0.3754883,0.2558594,-0.07226563,0.2548828,-0.144043
791,-4.375,39.9375,213.6875,0.8378906,-0.2861328,0.2368164,-0.05078125,0.2587891,-0.1455078
795,-11.5,33.6875,211.0625,0.7719727,-0.3325195,0.1748047,-0.03759766,0.2597656,-0.1469727
799,-12.1875,25.25,208.25,0.6171875,-0.3754883,0.1518555,-0.01611328,0.262207,-0.1455078
803,-9.6875,18.375,202.3125,0.609375,-0.3754883,0.1479492,0.003417969,0.262207,-0.1469727
807,-3.125,19.5,189.5,0.6557617,-0.484375,0.1479492,0.01660156,0.2587891,-0.1455078
811,11.75,27.3125,182.1875,0.5820313,-0.4609375,0.1787109,0.03417969,0.2573242,-0.1455078
815,-1,22,180.1875,0.3652344,-0.2314453,0.1826172,0.04980469,0.2573242,-0.1469727
819,-24.875,3.5625,181.4375,0.2685547,-0.3095703,0.1982422,0.06152344,0.2524414,-0.1455078
823,-27.0625,1.0625,176.0625,0.2490234,-0.4804688,0.1674805,0.07861328,0.25,-0.144043
827,-17,5.8125,160.4375,0.2216797,-0.5463867,0.1713867,0.09277344,0.2460938,-0.1416016
831,-0.3125,20.3125,145.6875,0.125,-0.5268555,0.1635742,0.1020508,0.2412109,-0.1425781
835,10.4375,24.9375,135.4375,-0.1147461,-0.4609375,0.1367188,0.1152344,0.2373047,-0.1425781
839,15.8125,21.3125,123.375,-0.230957,-0.3793945,0.1904297,0.1269531,0.2299805,-0.144043
843,23.4375,30.5625,106,-0.3974609,-0.3056641,0.2480469,0.1357422,0.2275391,-0.144043
847,35.625,35.3125,80.25,-0.6030273,-0.1616211,0.2944336,0.1459961,0.2211914,-0.1425781
851,30.1875,38,54.875,-0.8393555,0.0009765625,0.2788086,0.1508789,0.2163086,-0.1484375
855,14.3125,24.3125,34.8125,-0.9750977,0.2148438,0.2827148,0.1567383,0.2148438,-0.1469727
859,-5.8125,7.9375,10.4375,-1.009766,0.1953125,0.2675781,0.1591797,0.2138672,-0.1469727
863,-18.8125,-3.875,-18.5,-0.9169922,0.07470703,0.2480469,0.1591797,0.2124023,-0.1455078
867,-19.5625,-7.625,-43.625,-0.7426758,-0.1381836,0.2250977,0.1567383,0.2148438,-0.144043
871,-11.6875,-3.5,-64.6875,-0.5991211,-0.1889648,0.2329102,0.1533203,0.2172852,-0.1455078
875,-11.125,-3.8125,-81.6875,-0.5102539,-0.2705078,0.2480469,0.1474609,0.2226563,-0.144043
879,-11.375,-9.375,-96.1875,-0.3935547,-0.371582,0.2402344,0.1416016,0.2236328,-0.1416016
883,-17.0625,-11.8125,-99.4375,-0.2348633,-0.4453125,0.2329102,0.1333008,0.2299805,-0.1425781
887,-12.375,-6.875,-102.3125,-0.2001953,-0.5620117,0.1713867,0.1259766,0.2338867,-0.1416016
892,7.125,5.5,-116,-0.2041016,-0.5541992,0.1098633,0.1186523,0.2387695,-0.1386719
896,20.9375,9.5,-133.3125,-0.3203125,-0.3481445,0.08642578,0.1079102,0.2426758,-0.1401367
900,9.875,-8,-142.6875,-0.3164063,-0.1967773,0.1132813,0.09619141,0.2451172,-0.1401367
904,-5,-28.4375,-153.6875,-0.215332,-0.1967773,0.1557617,0.08691406,0.25,-0.1416016
908,-24.1875,-47.3125,-168.1875,0.09375,-0.2548828,0.2250977,0.07226563,0.2548828,-0.1416016
912,-33.375,-45.3125,-165.625,0.3808594,-0.503418,0.2441406,0.0546875,0.2573242,-0.1386719
916,-9.4375,-18.3125,-178.0625,0.5317383,-0.7172852,0.1982422,0.04248047,0.262207,-0.1357422
920,28.25,3.25,-182.5625,0.4155273,-0.7641602,0.1367188,0.02587891,0.2651367,-0.137207
924,50.125,5.4375,-181.1875,0.2993164,-0.5268555,0.08642578,0.009277344,0.2636719,-0.1386719
928,34.5625,-24.875,-178.8125,0.07080078,-0.1113281,0.09423828,-0.003417969,0.2636719,-0.1401367
932,-33.8125,-91.3125,-179.25,0.2646484,0.1640625,0.1904297,-0.01855469,0.2636719,-0.1425781
936,-95.0625,-115.875,-179.5,0.9350586,-0.2470703,0.2172852,-0.0390625,0.2651367,-0.1347656
940,-74.8125,-80.25,-195,1.349609,-1.008789,0.1713867,-0.05322266,0.2651367,-0.125
944,-6.5625,-25.5625,-189.8125,1.361328,-1.26123,0.1171875,-0.07226563,0.2636719,-0.1166992
948,48.1875,-1.5,-171.0625,0.9501953,-1.024414,0.04785156,-0.09033203,0.2587891,-0.1181641
952,46.9375,-16.8125,-174.1875,0.6171875,-0.2202148,0.08642578,-0.09960938,0.2539063,-0.1225586
956,-15.125,-65.5625,-178.3125,0.6479492,0.004882813,0.1210938,-0.1176758,0.2460938,-0.1225586
960,-59.625,-88.1875,-186,1.047363,-0.2626953,0.1674805,-0.1328125,0.2426758,-0.1166992
964,-59.125,-73.8125,-192.875,1.372559,-0.6005859,0.1787109,-0.1474609,0.2397461,-0.1113281
968,-23.625,-41,-189.4375,1.403809,-0.8686523,0.1518555,-0.1650391,0.2314453,-0.1044922
972,20.4375,-17.75,-181.6875,1.22168,-0.7524414,0.08251953,-0.1816406,0.2211914,-0.09765625
976,46.4375,-12.125,-181.625,1.066406,-0.4140625,0.06347656,-0.1899414,0.2138672,-0.1005859
980,28.4375,-24.6875,-193.875,0.9853516,0.05517578,0.05957031,-0.2055664,0.2011719,-0.1035156
984,-13.6875,-49.1875,-197.25,1.147949,-0.02587891,0.08251953,-0.2172852,0.1899414,-0.1005859
988,-23.9375,-52.4375,-192.6875,1.442383,-0.4067383,0.09814453,-0.2280273,0.1801758,-0.09765625
992,1.9375,-34.125,-190.4375,1.597656,-0.6044922,0.05957031,-0.2387695,0.1660156,-0.09228516
996,31.125,-16.5,-183.4375,1.496582,-0.5,-0.001464844,-0.2543945,0.1513672,-0.09082031
1000,41.5625,-15.3125,-175.875,1.364746,-0.3095703,-0.02050781,-0.2602539,0.1411133,-0.08984375
1004,33.75,-23.5,-178,1.477539,-0.2431641,0.01367188,-0.2709961,0.1264648,-0.09082031
1008,16.875,-26,-178.9375,1.651855,-0.503418,0.07128906,-0.2783203,0.1113281,-0.09082031
1012,19.1875,-21.125,-154.5,1.942383,-0.8999023,0.1943359,-0.2817383,0.09765625,-0.09082031
1016,31.4375,-7.5625,-92.8125,1.930664,-1.160156,0.2866211,-0.2900391,0.08496094,-0.08837891
1021,45.9375,-2.0625,-45.25,1.674805,-1.144531,0.2905273,-0.2924805,0.07763672,-0.08691406
1025,56.5625,2.375,-25.6875,1.605469,-1.047363,0.3979492,-0.2949219,0.07519531,-0.09082031
1029,54.875,11.3125,-4.875,1.608887,-0.9892578,0.5405273,-0.2924805,0.07275391,-0.09228516
1033,44.375,14.375,25,1.550781,-0.8999023,0.6137695,-0.293457,0.07128906,-0.09521484
1037,21,13.3125,54.5,1.512207,-0.6860352,0.6137695,-0.2924805,0.07373047,-0.09912109
1041,-10.4375,10.625,80.9375,1.477539,-0.5385742,0.4907227,-0.2915039,0.07617188,-0.1020508
1045,-30.0625,8.9375,96.625,1.46582,-0.6083984,0.3598633,-0.2851563,0.08740234,-0.1005859
1049,-31.625,14.0625,109.625,1.535645,-0.7329102,0.2211914,-0.2841797,0.09375,-0.1020508
1053,-23.625,16.75,131.625,1.574219,-0.7832031,0.140625,-0.2807617,0.1049805,-0.1005859
1057,-14.6875,18.5,156.6875,1.597656,-0.7832031,0.105957,-0.2724609,0.1176758,-0.09912109
1061,-7.8125,22.3125,171.6875,1.601563,-0.6201172,0.1328125,-0.2661133,0.1274414,-0.1020508
1065,-11.9375,23.0625,183.0625,1.605469,-0.5151367,0.1826172,-0.2553711,0.1425781,-0.1044922
1069,-16,23.9375,198.0625,1.554688,-0.5776367,0.1518555,-0.2446289,0.15625,-0.1044922
1073,-9.125,23.125,209.1875,1.508301,-0.6083984,0.1328125,-0.2363281,0.1660156,-0.1044922
1077,-1.3125,26.5625,217.3125,1.484863,-0.565918,0.1020508,-0.222168,0.1826172,-0.1074219
1081,4,24.5625,220,1.403809,-0.534668,0.09423828,-0.2055664,0.1972656,-0.1098633
1085,17.0625,29.4375,217.8125,1.477539,-0.6123047,0.1020508,-0.1962891,0.2050781,-0.1098633
1089,33.5625,46.1875,215.75,1.492676,-0.5268555,0.105957,-0.1782227,0.2163086,-0.1142578
1093,32.1875,53.125,214.9375,1.318359,-0.3134766,0.1210938,-0.1601563,0.2250977,-0.1225586
1097,12.4375,47.6875,217.125,1.26416,-0.2392578,0.159668,-0.1484375,0.2338867,-0.125
1101,-6.25,42.6875,218.75,1.194336,-0.3286133,0.1518555,-0.128418,0.2426758,-0.1289063
1105,-7.875,40,221.75,1.082031,-0.5073242,0.07910156,-0.109375,0.25,-0.1289063
1109,-1.5625,29.5625,229.75,1.043457,-0.6005859,0.05957031,-0.09375,0.2539063,-0.1303711
1113,13.625,30,239.375,1.066406,-0.5966797,0.06738281,-0.07128906,0.2587891,-0.1318359
1117,27.25,36.6875,238.375,1.082031,-0.5463867,0.08251953,-0.04980469,0.262207,-0.1357422
1121,31.5,42.875,241.8125,0.8183594,-0.3637695,0.04785156,-0.03417969,0.2636719,-0.1386719
1125,27.8125,29.5625,241.9375,0.6982422,-0.3442383,0.06347656,-0.009277344,0.262207,-0.1425781
1129,30.875,32.0625,234.0625,0.7719727,-0.402832,0.1171875,0.01269531,0.2612305,-0.1484375
1133,42.375,41.375,227.625,0.6982422,-0.3520508,0.1674805,0.02587891,0.2573242,-0.1494141
1137,39.8125,48.25,222.375,0.5161133,-0.2084961,0.1635742,0.04980469,0.2539063,-0.1538086
1141,30.125,42.25,221.4375,0.2412109,-0.1347656,0.1518555,0.07226563,0.2460938,-0.1538086
1145,20,30.4375,210.5625,-0.01416016,0.02050781,0.140625,0.08447266,0.2412109,-0.1577148
1150,4.5,15.625,193.625,-0.1147461,0.09423828,0.1826172,0.1044922,0.2348633,-0.1591797
1154,-0.5625,14.5625,166.6875,-0.1884766,-0.006347656,0.2133789,0.1201172,0.2250977,-0.1591797
1158,12.75,24.4375,139.4375,-0.2851563,-0.08007813,0.1904297,0.1293945,0.2226563,-0.1577148
1162,25.6875,33.875,116,-0.4672852,0.02050781,0.1943359,0.1425781,0.2148438,-0.1606445
1166,24.125,31.75,91.9375,-0.6923828,0.1098633,0.2060547,0.1523438,0.2099609,-0.1630859
1170,17.875,20.875,69.3125,-0.7929688,0.2416992,0.2480469,0.1567383,0.2060547,-0.1616211
1174,6.375,15.3125,36.4375,-0.8588867,0.253418,0.2866211,0.1640625,0.2011719,-0.1616211
1178,-3.6875,11.75,-2.125,-0.9013672,0.2109375,0.3095703,0.1650391,0.2001953,-0.1616211
1182,-12.9375,4.1875,-29.3125,-0.8588867,0.07861328,0.2983398,0.1665039,0.2011719,-0.1591797
1186,-9.8125,1.875,-52.375,-0.7192383,-0.07617188,0.3095703,0.1616211,0.2050781,-0.1591797
1190,-3.75,6.0625,-79.5,-0.5952148,-0.1191406,0.3251953,0.1567383,0.2060547,-0.1577148
1194,-5.8125,4.0625,-103.25,-0.5527344,-0.1616211,0.3056641,0.1547852,0.2099609,-0.1577148
1198,-16.0625,-3.875,-119.125,-0.4130859,-0.2275391,0.2866211,0.144043,0.2148438,-0.15625
1202,-25.8125,-9.5625,-125.625,-0.3203125,-0.3364258,0.2368164,0.1342773,0.2226563,-0.1523438
1206,-21,-7.1875,-141.0625,-0.1884766,-0.4570313,0.1865234,0.1259766,0.2275391,-0.1523438
1210,-3.875,-0.125,-151.3125,-0.1572266,-0.4960938,0.1098633,0.112793,0.2348633,-0.1508789
1214,13.375,3.6875,-163.9375,-0.1459961,-0.387207,0.06347656,0.1020508,0.2387695,-0.1508789
1218,25.25,3.9375,-180.8125,-0.1069336,-0.3134766,0.05566406,0.09130859,0.2436523,-0.1508789
1222,34.6875,2.5,-203.4375,-0.03320313,-0.2314453,0.04785156,0.07470703,0.2485352,-0.1538086
1226,30.5625,-12.6875,-213.6875,0.03955078,-0.2124023,0.05175781,0.0546875,0.25,-0.15625
1230,25.4375,-29.6875,-213.75,0.2529297,-0.2939453,0.02490234,0.04248047,0.2524414,-0.15625
1234,33.9375,-36.25,-212.375,0.3769531,-0.402832,-0.02441406,0.02246094,0.2563477,-0.1591797
1238,47.6875,-39.375,-225.3125,0.5898438,-0.2939453,0.02880859,0.002441406,0.2539063,-0.1630859
1242,47.875,-37.8125,-233.6875,0.7333984,-0.2900391,0.09033203,-0.01416016,0.2539063,-0.1630859
1246,51.75,-43.4375,-239.8125,0.7568359,-0.324707,0.1020508,-0.03515625,0.25,-0.1674805
1250,52.4375,-51.9375,-237.625,0.7719727,-0.2314453,0.09033203,-0.05908203,0.2460938,-0.1713867
1254,38,-82.9375,-222.1875,0.690918,-0.1850586,0.06738281,-0.07470703,0.2387695,-0.1738281
1258,29.5625,-107.5625,-222.625,1.097656,-0.1967773,0.144043,-0.09619141,0.2314453,-0.1713867
1262,42.1875,-90.8125,-244.375,1.403809,-0.2744141,0.2368164,-0.1176758,0.2250977,-0.1713867
1266,73.3125,-58.625,-272.5625,1.306641,-0.3056641,0.1826172,-0.1352539,0.2163086,-0.1699219
1270,66,-74.5625,-271,1.089844,0.1484375,0.1904297,-0.1567383,0.2001953,-0.1728516
1274,18.25,-116.25,-248.875,1.268066,0.1367188,0.2094727,-0.1806641,0.1860352,-0.168457
1279,-7.25,-137.125,-234.875,1.543457,-0.01025391,0.2749023,-0.1948242,0.1738281,-0.1645508
1283,-22.5,-131.375,-239.75,1.984863,-0.02587891,0.4326172,-0.2163086,0.1601563,-0.1547852
1287,-34.6875,-97.875,-247.625,2.236816,-0.1616211,0.5058594,-0.234375,0.1450195,-0.144043
1291,-34.375,-69.3125,-233.5,2.054688,-0.503418,0.4365234,-0.2446289,0.1347656,-0.137207
1295,-21,-58.125,-211.5625,1.895996,-0.5927734,0.3364258,-0.2578125,0.1176758,-0.1318359
1299,-12.25,-53.9375,-193,1.760254,-0.6005859,0.3330078,-0.2709961,0.1010742,-0.1264648
1303,-17.125,-60.75,-170.625,1.802734,-0.7753906,0.4404297,-0.2768555,0.09130859,-0.1225586
1307,-13.875,-55.5,-130.875,2.008301,-1.098145,0.5634766,-0.2851563,0.07861328,-0.1166992
1311,18.25,-28.25,-86.25,2.120605,-1.401367,0.5942383,-0.2900391,0.06884766,-0.112793
1315,66,10.375,-49.8125,1.922852,-1.319336,0.6328125,-0.293457,0.0625,-0.112793
1319,94.1875,38.6875,-22.0625,1.698242,-0.9619141,0.6635742,-0.2924805,0.05615234,-0.1181641
1323,78.8125,53.375,-8.75,1.314453,-0.3676758,0.5444336,-0.2915039,0.05126953,-0.125
1327,18.6875,27.125,0.9375,0.9580078,-0.07226563,0.4057617,-0.2915039,0.04980469,-0.1279297
1331,-35.8125,-4,12.5625,1.151855,-0.2626953,0.3364258,-0.2890625,0.04882813,-0.1289063
1335,-49.6875,-3.25,31.125,1.430664,-0.6083984,0.2866211,-0.2875977,0.05371094,-0.1264648
1339,-37.25,10.625,46.5625,1.438477,-0.6591797,0.2250977,-0.2890625,0.05761719,-0.125
1343,-32.25,15.1875,63.8125,1.368652,-0.5581055,0.2060547,-0.2866211,0.0625,-0.1264648
1347,-36.1875,14.5625,79.625,1.446289,-0.5229492,0.2402344,-0.2841797,0.06982422,-0.1279297
1351,-38.1875,21.875,93.4375,1.535645,-0.5541992,0.2597656,-0.2827148,0.07617188,-0.1279297
1355,-39.25,22.5,115.375,1.430664,-0.581543,0.1904297,-0.2768555,0.08642578,-0.1264648
1359,-38.125,14,134.6875,1.473633,-0.5776367,0.2211914,-0.2709961,0.09863281,-0.1279297
1363,-39.125,14.375,155.5,1.601563,-0.5893555,0.2675781,-0.2685547,0.1074219,-0.1279297
1367,-30.5,21.6875,171.1875,1.670898,-0.6552734,0.3017578,-0.2592773,0.1210938,-0.1264648
1371,-15.375,37,181.375,1.698242,-0.6513672,0.3251953,-0.2509766,0.1362305,-0.1279297
1375,-5.0625,47.375,191,1.644043,-0.581543,0.3095703,-0.2412109,0.1450195,-0.1289063
1379,-7.9375,49.25,209.75,1.589844,-0.5,0.3017578,-0.2294922,0.1611328,-0.1333008
1383,-15.5,42.125,227.9375,1.469727,-0.4648438,0.2983398,-0.2138672,0.1772461,-0.137207
1387,-16.5,41.75,233.625,1.516113,-0.4335938,0.3134766,-0.2045898,0.1860352,-0.1357422
1391,-21.3125,54.6875,222.9375,1.500488,-0.2783203,0.3481445,-0.1865234,0.2011719,-0.1386719
1395,-33.5625,52.3125,219.875,1.275879,-0.3793945,0.2788086,-0.1674805,0.2138672,-0.1416016
1399,-32.5625,45.125,226.9375,1.341797,-0.5307617,0.2636719,-0.1542969,0.2211914,-0.1401367
1403,-19.1875,51.5,230.25,1.372559,-0.550293,0.2290039,-0.1352539,0.2314453,-0.1416016
1408,-8.5,59.4375,222.5,1.454102,-0.4140625,0.2944336,-0.1137695,0.2397461,-0.144043
1412,-20.3125,63.0625,211.8125,1.353516,-0.3095703,0.2866211,-0.09863281,0.2451172,-0.144043
1416,-37.625,52.0625,235.25,1.171387,-0.4414063,0.1787109,-0.07958984,0.2509766,-0.1455078
1420,-37.5625,37.0625,260.375,0.9697266,-0.4960938,0.08251953,-0.05664063,0.2587891,-0.144043
1424,-24.125,30.6875,270.625,0.7915039,-0.3442383,0.04052734,-0.03759766,0.2612305,-0.1425781
1428,-14.8125,33.9375,260,0.690918,-0.2431641,0.009765625,-0.01269531,0.2651367,-0.1416016
1432,2.9375,37.6875,240.1875,0.4775391,-0.2202148,-0.001464844,0.01074219,0.2636719,-0.1416016
1436,14.375,37.5625,233.6875,0.3574219,-0.1308594,-0.001464844,0.02734375,0.262207,-0.1416016
1440,7.3125,27.375,225.75,0.2373047,0.008789063,0.04443359,0.05078125,0.2563477,-0.1455078
1444,3.75,18.4375,212.625,0.09765625,-0.04882813,0.06738281,0.07128906,0.2524414,-0.1455078
1448,6.8125,20.875,195.625,0.159668,-0.1269531,0.1210938,0.08300781,0.2475586,-0.1455078
1452,21,32,175.3125,-0.01025391,-0.1538086,0.1171875,0.1010742,0.2426758,-0.1469727
1456,21.25,28.3125,155.5,-0.3393555,0.1137695,0.1210938,0.1166992,0.2324219,-0.1469727
1460,-9.6875,-2.25,127.3125,-0.6650391,0.3081055,0.1865234,0.125,0.2285156,-0.1469727
1464,-48.8125,-37.6875,100.9375,-0.6728516,0.1333008,0.2480469,0.1357422,0.2250977,-0.1469727
1468,-55.625,-47.4375,68.875,-0.5214844,-0.1381836,0.3134766,0.1416016,0.2226563,-0.1455078
1472,-48,-21.8125,55.75,-0.296875,-0.1035156,0.375,0.144043,0.2226563,-0.1425781
1476,-33.5,-2,41.125,-0.699707,-0.2548828,0.3251953,0.1459961,0.2211914,-0.1425781
1480,-15.8125,8.6875,10.125,-0.7578125,-0.05664063,0.3637695,0.1499023,0.2211914,-0.137207
1484,-26.375,9.75,-22.625,-0.8857422,0.1484375,0.3330078,0.1499023,0.2197266,-0.1357422
1488,-42.5625,-2.75,-51.6875,-0.9013672,0.105957,0.2827148,0.1459961,0.2250977,-0.1333008
1492,-57.1875,-10.375,-83.5625,-0.699707,-0.02197266,0.2441406,0.1425781,0.2285156,-0.1303711
1496,-60.625,-12.25,-105,-0.4594727,-0.2666016,0.2021484,0.1367188,0.2348633,-0.1279297
1500,-54.375,-5.0625,-118.875,-0.262207,-0.4453125,0.1479492,0.1269531,0.2412109,-0.1235352
1504,-36.4375,5.375,-127.375,-0.1650391,-0.5698242,0.09423828,0.1166992,0.2460938,-0.1166992
1508,-16.4375,18.9375,-137.1875,-0.1767578,-0.5268555,0.07128906,0.1103516,0.25,-0.1142578
1512,-1.0625,25.1875,-153.25,-0.2231445,-0.3989258,0.05175781,0.09619141,0.2548828,-0.1142578
1516,-0.125,24.25,-177,-0.2080078,-0.1694336,0.06347656,0.08056641,0.2612305,-0.1113281
1520,-19.8125,7.125,-198.6875,-0.1459961,-0.1074219,0.07910156,0.06982422,0.2651367,-0.1098633
1524,-45.3125,-13.25,-210.375,0.1445313,-0.2084961,0.07910156,0.05078125,0.2709961,-0.1074219
1528,-52.6875,-13.25,-209.625,0.4467773,-0.5307617,0.04785156,0.02978516,0.2749023,-0.1020508
1532,-22.875,5.875,-201.5,0.5976563,-0.8300781,0.02490234,0.01757813,0.2763672,-0.09765625
1537,28.875,40.8125,-203.875,0.574707,-0.8222656,-0.005371094,-0.0009765625,0.2773438,-0.09667969
1541,70.375,53.625,-214.375,0.2915039,-0.503418,-0.06689453,-0.02099609,0.2763672,-0.1020508
1545,60.6875,25,-230.1875,0.09375,0.1445313,-0.04736328,-0.03417969,0.2739258,-0.1044922
1549,-1.125,-37.0625,-250,0.3535156,0.237793,0.009765625,-0.05664063,0.2700195,-0.1088867
1553,-44.25,-62.625,-249.625,1.02002,-0.2353516,0.04052734,-0.08056641,0.2661133,-0.1044922
1557,-29.875,-48,-241.0625,1.454102,-0.3364258,0.1635742,-0.09716797,0.2636719,-0.09912109
1561,22.5625,-10.0625,-223.375,1.395996,-0.8261719,0.04785156,-0.1201172,0.2573242,-0.09667969
1565,48.6875,5.9375,-231.3125,1.271973,-0.46875,0.08642578,-0.1376953,0.2460938,-0.09912109
1569,46,0.1875,-230.9375,1.121094,-0.2626953,0.1020508,-0.1518555,0.2387695,-0.1020508
1573,26.3125,-21.375,-231.5,1.066406,-0.1269531,0.07128906,-0.1699219,0.2260742,-0.105957
1577,10.625,-42.125,-222.1875,1.171387,-0.1928711,0.04785156,-0.1889648,0.2138672,-0.1044922
1581,4.8125,-59.1875,-220.6875,1.287598,-0.1616211,0.07910156,-0.2006836,0.2060547,-0.1035156
1585,8.875,-54.125,-224.9375,1.640137,-0.1811523,0.1635742,-0.2163086,0.1899414,-0.09667969
1589,23.5,-26,-231.0625,1.605469,-0.1850586,0.1904297,-0.2329102,0.1738281,-0.09521484
1593,25.0625,-20.3125,-236.9375,1.446289,0.06689453,0.1518555,-0.2436523,0.1601563,-0.09375
1597,-4.25,-37.5625,-235.625,1.508301,0.2729492,0.1635742,-0.2568359,0.1425781,-0.09228516
1601,-51.75,-57.1875,-225.625,1.698242,0.1367188,0.1943359,-0.2700195,0.1235352,-0.08984375
1605,-76,-58.125,-213.0625,1.980957,-0.2861328,0.1904297,-0.2792969,0.1123047,-0.08447266
1609,-58.4375,-34.6875,-189.5,2.166992,-0.7407227,0.1713867,-0.2890625,0.09375,-0.07324219
1613,-27,-4.625,-160.1875,2.023926,-0.9194336,0.09423828,-0.2973633,0.08007813,-0.07177734
1617,-2.375,3.5625,-131.1875,1.814453,-0.9658203,0.09033203,-0.3007813,0.06982422,-0.06933594
1621,8.0625,-0.875,-95.1875,1.771973,-0.9814453,0.2021484,-0.3041992,0.06005859,-0.07080078
1625,6.5,-1.5625,-59.5625,1.822266,-0.9194336,0.3095703,-0.3056641,0.04980469,-0.07177734
1629,-9,-1.375,-21.625,1.802734,-0.8686523,0.375,-0.3066406,0.04736328,-0.06933594
1633,-21.75,-0.1875,14.6875,1.72168,-0.9467773,0.2983398,-0.309082,0.04882813,-0.07080078
1637,-25.8125,1.5,43.25,1.651855,-0.8842773,0.2021484,-0.309082,0.04980469,-0.07080078
1641,-25.0625,4.875,66,1.597656,-0.8535156,0.08251953,-0.3056641,0.05126953,-0.06933594
1645,-17.5625,7.5625,84.25,1.608887,-0.8496094,0.009765625,-0.3041992,0.06005859,-0.07080078
1649,-9.8125,14.4375,104.625,1.686523,-0.7485352,0.001953125,-0.2998047,0.06982422,-0.07080078
1653,-10.6875,17.375,125.875,1.644043,-0.6513672,-0.009277344,-0.2958984,0.07617188,-0.06933594
1657,-14.8125,9.5625,149.3125,1.624512,-0.6318359,-0.04394531,-0.293457,0.08740234,-0.07080078
1661,-10.125,4.8125,172.5625,1.702148,-0.6669922,-0.03222656,-0.2866211,0.1025391,-0.07177734
1666,-0.9375,11.1875,188.5,1.73291,-0.6044922,0.001953125,-0.2783203,0.1137695,-0.07080078
1670,10.75,17.125,201.25,1.740723,-0.6005859,0.01367188,-0.2709961,0.1298828,-0.07470703
1674,17.4375,19.9375,217.125,1.686523,-0.4804688,0.03271484,-0.2592773,0.1474609,-0.07470703
1678,17.0625,16.25,235.3125,1.574219,-0.371582,0.05175781,-0.2509766,0.1586914,-0.07617188
1682,16.375,14.1875,237.75,1.570313,-0.3056641,0.1132813,-0.2353516,0.1762695,-0.07763672
1686,19.625,22.8125,236.5,1.523926,-0.3173828,0.125,-0.2197266,0.1923828,-0.08300781
1690,17.6875,22.75,235.125,1.39209,-0.2548828,0.1171875,-0.2080078,0.2050781,-0.08544922
1694,9.6875,14.125,242,1.376465,-0.2744141,0.1098633,-0.1889648,0.21875,-0.08691406
1698,9.1875,9.0625,252.6875,1.380371,-0.4140625,0.09423828,-0.1699219,0.2314453,-0.09228516
1702,20.25,13.5,256.5625,1.310547,-0.421875,0.06738281,-0.1557617,0.2387695,-0.09082031
1706,26.1875,14.4375,258.9375,1.182617,-0.340332,0.03271484,-0.1318359,0.2485352,-0.09521484
1710,24.3125,12.875,252.125,1.113281,-0.2470703,0.05957031,-0.1113281,0.2597656,-0.1005859
1714,27.625,20.25,245.25,1.085938,-0.324707,0.08642578,-0.09228516,0.2612305,-0.1020508
1718,33.3125,24.625,236.5,0.9541016,-0.371582,0.03662109,-0.07226563,0.2675781,-0.1074219
1722,37.9375,23.625,237.875,0.8149414,-0.2705078,0.02880859,-0.04833984,0.2709961,-0.1113281
1726,30.6875,18,239.4375,0.7490234,-0.2509766,0.05566406,-0.03662109,0.2709961,-0.1098633
1730,30.1875,18.3125,223.75,0.7294922,-0.2241211,0.09814453,-0.01171875,0.2709961,-0.1181641
1734,32.5,24.6875,215.5,0.6210938,-0.3481445,0.09033203,0.01171875,0.2700195,-0.1196289
1738,37.6875,26.125,205.8125,0.4931641,-0.2978516,0.1098633,0.02490234,0.2685547,-0.1235352
1742,43.875,34.0625,195.625,0.4272461,-0.2939453,0.1289063,0.04492188,0.262207,-0.1289063
1746,50.25,40.4375,181.625,0.2138672,-0.2353516,0.1367188,0.06298828,0.2587891,-0.1318359
1750,57.0625,40.3125,165.25,0.07470703,-0.2548828,0.1328125,0.07714844,0.2548828,-0.1347656
1754,64.4375,40.1875,129.3125,-0.1303711,-0.1381836,0.2060547,0.09033203,0.2475586,-0.1416016
1758,58.5,29.875,103.3125,-0.4208984,-0.1499023,0.1787109,0.1035156,0.2412109,-0.1455078
1762,58.9375,21.4375,83.125,-0.5175781,-0.1733398,0.1674805,0.109375,0.2363281,-0.1508789
1766,55.5625,22.4375,73.5625,-0.3974609,0.09033203,0.2441406,0.1176758,0.2314453,-0.1538086
1770,13.125,27.5625,78.125,-0.6845703,0.2807617,0.3056641,0.1235352,0.2285156,-0.15625
1774,-1.375,16.875,44.1875,-1.005859,0.21875,0.2094727,0.128418,0.2250977,-0.1538086
1778,-10.4375,5.5625,3.75,-0.9750977,0.1757813,0.2402344,0.1318359,0.2250977,-0.1547852
1782,-17.1875,-3.4375,-29.6875,-0.8857422,0.06298828,0.2597656,0.1308594,0.2250977,-0.1523438
1786,-16.875,-4.625,-59.8125,-0.730957,-0.01806641,0.2368164,0.128418,0.2275391,-0.1538086
1790,-24.0625,-4.8125,-82.3125,-0.6186523,-0.06835938,0.2368164,0.1225586,0.2285156,-0.1523438
1795,-30.6875,-11.1875,-102.625,-0.5292969,-0.1694336,0.2021484,0.1142578,0.2338867,-0.1494141
1799,-35.125,-14.75,-118.375,-0.3549805,-0.2783203,0.1982422,0.1079102,0.2387695,-0.1469727
1803,-29.75,-9.8125,-127.375,-0.262207,-0.3833008,0.1518555,0.09619141,0.2436523,-0.1455078
1807,-18.8125,-4.8125,-140.9375,-0.230957,-0.3056641,0.1328125,0.08447266,0.25,-0.1425781
1811,-16.0625,-4.625,-160.75,-0.1533203,-0.2202148,0.1289063,0.07617188,0.2539063,-0.1401367
1815,-26.6875,-14.5625,-176.3125,-0.08398438,-0.1347656,0.1210938,0.06054688,0.2573242,-0.137207
1819,-35.8125,-19.5625,-186.4375,0.04736328,-0.1928711,0.07910156,0.04492188,0.262207,-0.1357422
1823,-25.9375,-16.25,-201.5625,0.1635742,-0.2939453,0.05957031,0.03173828,0.2651367,-0.1303711
1827,-11.5625,-11.125,-215.125,0.2646484,-0.2822266,0.04052734,0.01074219,0.2675781,-0.1318359
1831,0.875,-17,-223.125,0.2568359,-0.2392578,0.01708984,-0.0078125,0.2700195,-0.1279297
1835,-11.625,-49.0625,-226.0625,0.3847656,-0.06054688,0.02490234,-0.02490234,0.2685547,-0.1264648
1839,-46.25,-84.0625,-214,0.6289063,-0.05664063,0.01367188,-0.04736328,0.2661133,-0.1235352
1843,-70,-104.0625,-198,1.012207,-0.3481445,0.005859375,-0.06738281,0.2661133,-0.1157227
1847,-58.125,-89.125,-191.125,1.233398,-0.8105469,-0.1166992,-0.08056641,0.2636719,-0.1098633
1851,-10.25,-56.5,-191.5625,1.29541,-0.7719727,-0.02832031,-0.1010742,0.2612305,-0.1035156
1855,33.9375,-25.6875,-193.875,1.182617,-0.6435547,-0.05908203,-0.1201172,0.2539063,-0.09912109
1859,55,-27.4375,-196.5,0.9038086,-0.3598633,-0.09375,-0.1318359,0.2485352,-0.1020508
1863,33.3125,-66.8125,-203.5,0.7875977,0.1020508,-0.09375,-0.1494141,0.2397461,-0.1035156
1867,-20.9375,-116.1875,-199.3125,1.117188,0.1176758,-0.02832031,-0.1674805,0.2285156,-0.1005859
1871,-59.625,-127.5625,-204.6875,1.651855,-0.1381836,0.04443359,-0.1806641,0.2236328,-0.09375
1875,-56.375,-92.1875,-227.625,2.093262,-0.4960938,0.1132813,-0.199707,0.2124023,-0.08447266
1879,-13.5625,-25.125,-247.75,2.19043,-0.8457031,0.1098633,-0.2172852,0.1987305,-0.07177734
1883,54.75,32.375,-263.4375,1.845703,-0.8920898,0.001953125,-0.2280273,0.1860352,-0.07324219
1887,80.4375,39.625,-268.75,1.461914,-0.3017578,-0.04394531,-0.2470703,0.1635742,-0.08154297
1891,0,-21.75,-255.5,1.198242,0.3662109,-0.02832031,-0.2617188,0.1425781,-0.08447266
1895,-109.875,-102.875,-229.9375,1.620605,0.15625,0.09814453,-0.2700195,0.1274414,-0.08154297
1899,-161.8125,-123.75,-212.625,2.10498,-0.4726563,0.07519531,-0.2827148,0.1113281,-0.06542969
1903,-144.375,-91.25,-177.375,2.372559,-1.125488,0.05957031,-0.293457,0.09619141,-0.04638672
1907,-88.0625,-33.1875,-126.3125,2.225098,-1.471191,0.06347656,-0.2958984,0.08642578,-0.04052734
1911,-11.3125,15.8125,-94.875,1.876465,-1.475098,0.03662109,-0.3007813,0.07519531,-0.03515625
1915,43.5,47.875,-71.8125,1.59375,-1.105957,0.07910156,-0.3066406,0.06738281,-0.03808594
1919,60.0625,60.1875,-56.375,1.411621,-0.6748047,0.144043,-0.3066406,0.06103516,-0.04199219
1924,44.25,53.5625,-36.9375,1.291504,-0.3911133,0.1557617,-0.3066406,0.05517578,-0.05029297
1928,9.625,32.4375,-7.3125,1.213867,-0.2783203,0.105957,-0.3056641,0.05517578,-0.05419922
1932,-12.75,13.5625,10.375,1.268066,-0.4067383,0.02490234,-0.3056641,0.05273438,-0.05566406
1936,-14.0625,7.9375,30.8125,1.388184,-0.5385742,-0.009277344,-0.3081055,0.05761719,-0.05859375
1940,-1.6875,14.0625,47.9375,1.504395,-0.6162109,-0.01660156,-0.3056641,0.06005859,-0.05859375
1944,13.5625,27.4375,62.3125,1.601563,-0.5893555,0.01367188,-0.3056641,0.0625,-0.05859375
1948,23.1875,39.1875,82.3125,1.678711,-0.5385742,0.04052734,-0.3017578,0.06884766,-0.05957031
1952,17.625,43.75,108.5625,1.558594,-0.3833008,0.02490234,-0.2983398,0.07763672,-0.06542969
1956,-0.8125,25.4375,137.25,1.403809,-0.340332,-0.001464844,-0.2949219,0.08642578,-0.06933594
1960,-14.75,3.3125,153.6875,1.516113,-0.3793945,0.01708984,-0.2890625,0.09863281,-0.07080078
1964,-16.8125,4,168.1875,1.694336,-0.5385742,0.09033203,-0.2817383,0.1123047,-0.07080078
1968,-4.4375,17.875,183.625,1.775879,-0.6513672,0.09033203,-0.2758789,0.1210938,-0.07080078
1972,10,28.4375,200.1875,1.76416,-0.6396484,0.07128906,-0.2651367,0.1386719,-0.06933594
1976,20.25,38.875,215.8125,1.698242,-0.5541992,0.04052734,-0.2543945,0.1547852,-0.07861328
1980,22.25,36.6875,228.5,1.5625,-0.4570313,0.07128906,-0.2446289,0.1650391,-0.08154297
1984,16,34,233.75,1.508301,-0.3989258,0.06347656,-0.2294922,0.1826172,-0.08300781
1988,18.1875,34,234,1.550781,-0.5307617,0.09423828,-0.2114258,0.2001953,-0.08691406
1992,25.5625,41.6875,234.9375,1.477539,-0.4648438,0.07910156,-0.2021484,0.2060547,-0.09082031
1996,19.9375,35.625,245.5625,1.368652,-0.4453125,0.04785156,-0.1806641,0.2226563,-0.09667969
2000,19.0625,25.25,254.6875,1.302734,-0.4257813,0.03271484,-0.1601563,0.2324219,-0.1005859
2004,26.3125,28.1875,250.375,1.368652,-0.4375,0.06738281,-0.1459961,0.2426758,-0.1035156
2008,33.9375,37.9375,244.875,1.283691,-0.402832,0.07128906,-0.1235352,0.25,-0.1088867
2012,20.1875,33.75,240.25,1.066406,-0.1694336,0.08642578,-0.1010742,0.2573242,-0.112793
2016,-9.3125,15.25,243.5625,0.9892578,-0.1850586,0.1132813,-0.08398438,0.2597656,-0.1157227
2020,-17.375,3.8125,250.625,1.012207,-0.46875,0.09423828,-0.06298828,0.2675781,-0.1142578
2024,-8.8125,7.8125,255.25,1.140137,-0.5737305,0.1210938,-0.03759766,0.2739258,-0.1157227
2028,17.75,28.5,260.0625,1.043457,-0.6513672,0.07519531,-0.02246094,0.2724609,-0.1157227
2032,53.25,49.8125,252.4375,1.016113,-0.5581055,0.08642578,0.0009765625,0.2709961,-0.1181641
2036,81,71.9375,235.1875,0.8691406,-0.4101563,0.06347656,0.02734375,0.2675781,-0.1235352
2040,96.1875,84.5625,230.3125,0.6870117,-0.3208008,0.02099609,0.04394531,0.2612305,-0.1303711
2044,107.6875,92.125,218.0625,0.3496094,-0.04541016,-0.02050781,0.06787109,0.2548828,-0.1401367
2048,84.75,75.5,192.625,-0.1030273,0.4052734,-0.001464844,0.09130859,0.2451172,-0.1469727
2053,29.8125,49.8125,174.1875,-0.3320313,0.5683594,0.07910156,0.1010742,0.2387695,-0.1508789
2057,-16.1875,15.875,160.625,-0.6533203,0.3427734,0.07519531,0.1176758,0.2314453,-0.1508789
2061,-33.5,-5.1875,153.625,-0.765625,0.2299805,0.02490234,0.1318359,0.2250977,-0.1469727
2065,-13.25,-5.125,127.625,-0.8745117,0.09814453,0.06347656,0.1416016,0.2226563,-0.1484375
2069,19.375,14.25,88.75,-0.9594727,0.2729492,0.08251953,0.1508789,0.2172852,-0.1469727
2073,34.0625,25.5,44.75,-1.172852,0.5019531,0.1328125,0.1567383,0.2124023,-0.1494141
2077,28.4375,14,0.5,-1.405273,0.5683594,0.140625,0.1582031,0.2114258,-0.1484375
2081,8.4375,-13,-45.125,-1.289063,0.6030273,0.2172852,0.1582031,0.2084961,-0.1508789
2085,-19.375,-35.5625,-86.875,-0.9365234,0.3505859,0.2905273,0.1523438,0.2138672,-0.1523438
2089,-46.5,-49.75,-113.3125,-0.5605469,0.07470703,0.3442383,0.1450195,0.2163086,-0.1538086
2093,-61.5,-51.625,-122.1875,-0.262207,-0.355957,0.3173828,0.1342773,0.2260742,-0.1494141
2097,-40.125,-29.625,-127.875,-0.002441406,-0.7094727,0.2788086,0.1235352,0.2324219,-0.1469727
2101,-0.5625,9.5,-135.375,0.07080078,-0.4960938,0.2211914,0.1142578,0.2363281,-0.144043
2105,43.5625,36.5625,-150.3125,-0.1264648,-0.5966797,0.125,0.1020508,0.2412109,-0.1455078
2109,57.0625,37.25,-177.0625,-0.2661133,-0.1967773,0.1479492,0.09033203,0.2436523,-0.1469727
2113,33.4375,15.875,-188.1875,-0.2192383,-0.02197266,0.1904297,0.07958984,0.2460938,-0.1508789
2117,13.9375,-7.625,-195.5,-0.1533203,-0.1577148,0.1557617,0.06640625,0.25,-0.1508789
2121,16.25,-25.5,-195.9375,-0.01416016,-0.3364258,0.07519531,0.04394531,0.2539063,-0.1538086
2125,36,-34.875,-193.625,0.175293,-0.3520508,0.06347656,0.03320313,0.2548828,-0.1523438
2129,54.625,-34.5,-202.4375,0.3266602,-0.2045898,0.1098633,0.01269531,0.2563477,-0.1577148
2133,46.5625,-44.375,-222.9375,0.4506836,0.09033203,0.1982422,-0.0078125,0.2524414,-0.1606445
2137,2.5,-71.875,-230.75,0.5668945,0.05908203,0.2172852,-0.02246094,0.2539063,-0.1616211
2141,-42.3125,-117.125,-196.875,0.7138672,-0.2822266,0.159668,-0.04589844,0.2539063,-0.1591797
2145,-77.5,-164.4375,-140.75,0.9155273,-0.5,0.07128906,-0.06494141,0.2524414,-0.1508789
2149,-76.5625,-155.375,-123.375,1.558594,-0.550293,0.1943359,-0.07714844,0.2539063,-0.144043
2153,-35.125,-57.9375,-175,1.659668,-0.7753906,0.125,-0.09375,0.2524414,-0.1333008
2157,34.125,-13.0625,-195.9375,1.035645,-0.9038086,-0.02832031,-0.1113281,0.2475586,-0.1318359
2161,67.5625,-29.625,-186.3125,0.7412109,-0.4179688,-0.05126953,-0.1220703,0.2412109,-0.1318359
2165,21.25,-88.8125,-179.6875,0.6362305,0.3818359,0.05957031,-0.1411133,0.2338867,-0.1347656
2169,-60.8125,-135.625,-183.3125,1.330078,0.1835938,0.1826172,-0.1582031,0.2260742,-0.1264648
2173,-90.8125,-110.9375,-203,1.958008,-0.3833008,0.2480469,-0.1708984,0.2211914,-0.1166992
2177,-56.5625,-57.375,-220.1875,2.112793,-0.8764648,0.2094727,-0.1889648,0.2099609,-0.105957
2182,-0.8125,-20.125,-211.9375,1.752441,-0.9350586,0.02880859,-0.2055664,0.1987305,-0.09912109
2186,24.625,-24.5625,-200.625,1.368652,-0.4609375,-0.03222656,-0.2172852,0.1899414,-0.1005859
2190,11.125,-44.4375,-204.1875,1.361328,-0.1381836,-0.02050781,-0.2294922,0.1748047,-0.09765625
2194,-26.375,-56.8125,-208.375,1.72168,-0.2006836,0.09033203,-0.2446289,0.1601563,-0.09228516
2198,-43.75,-46.1875,-192.375,1.980957,-0.6821289,0.1865234,-0.253418,0.1499023,-0.09082031
2202,-26.3125,-23.0625,-166.6875,2.03125,-1.024414,0.1943359,-0.2636719,0.1362305,-0.08447266
2206,2.75,-4.9375,-137.1875,1.752441,-1.105957,0.1132813,-0.2724609,0.1225586,-0.08300781
2210,28.0625,-2.625,-115.8125,1.481445,-0.9775391,0.09814453,-0.2768555,0.1162109,-0.08447266
2214,32.75,-4.5625,-100.6875,1.43457,-0.8881836,0.2636719,-0.2807617,0.1064453,-0.08544922
2218,26.125,-5.25,-80.3125,1.492676,-0.9233398,0.4174805,-0.2866211,0.09765625,-0.08447266
2222,15.6875,-0.125,-54.0625,1.605469,-0.9892578,0.5136719,-0.2866211,0.09130859,-0.08544922
2226,1.25,7.625,-16.4375,1.570313,-0.9892578,0.4560547,-0.2900391,0.08740234,-0.08691406
2230,-15.5,4.875,18.9375,1.43457,-0.9194336,0.3671875,-0.2900391,0.08740234,-0.08691406
2234,-31.375,1.4375,44.375,1.454102,-0.9194336,0.2597656,-0.2900391,0.08984375,-0.08447266
2238,-35.25,3.3125,67.9375,1.500488,-1.012695,0.159668,-0.2866211,0.09375,-0.08544922
2242,-22.9375,11.6875,86.625,1.527832,-1.040039,0.08642578,-0.2827148,0.1010742,-0.08300781
2246,-9.3125,20.0625,104.6875,1.566406,-1.032227,0.05566406,-0.2807617,0.1074219,-0.08300781
2250,1.8125,25.8125,126.625,1.59375,-0.9931641,0.07519531,-0.2734375,0.1176758,-0.08691406
2254,6.1875,30.125,150.1875,1.678711,-0.8686523,0.105957,-0.2675781,0.1289063,-0.08837891
2258,4.875,33.0625,171.5,1.682617,-0.7910156,0.1367188,-0.2636719,0.1376953,-0.09082031
2262,-0.5,32.875,189.5625,1.709961,-0.7563477,0.140625,-0.2519531,0.1499023,-0.09521484
2266,-0.5,31.5,209.375,1.674805,-0.7871094,0.1098633,-0.2402344,0.1660156,-0.09667969
2270,10.75,32.3125,221.1875,1.709961,-0.8222656,0.09033203,-0.2304688,0.1772461,-0.09667969
2274,17.25,34.5,232.75,1.69043,-0.7055664,0.1132813,-0.2138672,0.1948242,-0.1020508
2278,17.375,33.4375,243.5,1.5625,-0.5966797,0.09814453,-0.1972656,0.2075195,-0.1044922
2282,14.3125,30.1875,238.0625,1.368652,-0.4179688,0.09033203,-0.1831055,0.2148438,-0.1088867
2286,6.6875,22.875,225.625,1.209961,-0.324707,0.08251953,-0.1640625,0.2299805,-0.112793
2290,-15.8125,0.75,225.625,1.233398,-0.2861328,0.1367188,-0.1450195,0.2397461,-0.112793
2294,-35.125,-5.9375,230.1875,1.407715,-0.4257813,0.1518555,-0.1318359,0.2436523,-0.1113281
2298,-43.6875,-7.125,242.625,1.345703,-0.565918,0.1020508,-0.112793,0.2539063,-0.1074219
2302,-42.3125,-11.5625,250.5625,1.302734,-0.6005859,0.02880859,-0.08886719,0.262207,-0.105957
2306,-29.25,-9.0625,244.125,1.341797,-0.7133789,-0.04394531,-0.07568359,0.2661133,-0.1035156
2311,6.8125,8.75,251.5,1.256348,-0.8535156,-0.09375,-0.05224609,0.2724609,-0.1035156
2315,55.8125,29.1875,244.5,0.9814453,-0.6123047,-0.1435547,-0.02929688,0.2739258,-0.105957
2319,76.75,38.5,238.75,0.8071289,-0.2939453,-0.109375,-0.01025391,0.2724609,-0.1113281
2323,74.5625,36.875,226.125,0.6210938,-0.006347656,-0.01660156,0.01074219,0.2709961,-0.1210938
2327,58.25,26.4375,223.5,0.3496094,0.04003906,0.01708984,0.03320313,0.2661133,-0.1289063
2331,44.875,12.0625,211.4375,0.2646484,0.09033203,0.09423828,0.04736328,0.262207,-0.1318359
2335,38.875,17.0625,188.6875,0.2333984,0.09033203,0.1674805,0.06787109,0.2573242,-0.1357422
2339,34.1875,21.25,168,0.02441406,0.09423828,0.1826172,0.08447266,0.25,-0.1386719
2343,27.9375,21.8125,149.4375,-0.09912109,0.1333008,0.1904297,0.09375,0.2475586,-0.1416016
2347,21.1875,25.75,125.6875,-0.2270508,0.09814453,0.2329102,0.1079102,0.2412109,-0.1425781
2351,18.1875,30.625,101.5625,-0.4013672,0.121582,0.2368164,0.1186523,0.2363281,-0.144043
2355,13.625,35.5,75.4375,-0.5834961,0.2338867,0.2558594,0.1269531,0.2324219,-0.144043
2359,4.75,31.6875,48.25,-0.8007813,0.2109375,0.2133789,0.1318359,0.2285156,-0.1455078
2363,-4.9375,16.0625,17.9375,-0.9399414,0.3193359,0.2021484,0.1357422,0.2260742,-0.1416016
2367,-17.1875,3.9375,-13.375,-0.9399414,0.2416992,0.2329102,0.1342773,0.2285156,-0.1416016
2371,-21,0.4375,-39.8125,-0.8085938,0.09814453,0.2441406,0.1357422,0.2260742,-0.1401367
2375,-15.6875,7.8125,-68.5,-0.7114258,-0.01806641,0.2133789,0.1293945,0.2324219,-0.1386719
2379,-5.875,10.875,-91.25,-0.6923828,-0.09960938,0.1826172,0.1269531,0.2338867,-0.1357422
2383,-3.1875,5.3125,-120.25,-0.5605469,0.0009765625,0.1943359,0.1176758,0.2387695,-0.1357422
2387,-13.375,0.6875,-141.75,-0.3125,-0.1347656,0.2290039,0.105957,0.2451172,-0.1357422
2391,-12.25,5.4375,-153.3125,-0.1030273,-0.3793945,0.1943359,0.09863281,0.25,-0.1347656
2395,8.9375,19.0625,-161.125,0.008789063,-0.5581055,0.1479492,0.08447266,0.2539063,-0.1333008
2399,38.1875,28.9375,-173.3125,-0.002441406,-0.4804688,0.08251953,0.06982422,0.2573242,-0.1333008
2403,53.125,22.6875,-186.625,-0.06835938,-0.2939453,0.06738281,0.05957031,0.2597656,-0.1347656
2407,32.8125,-1.25,-193.4375,-0.06445313,0.06298828,0.105957,0.04492188,0.2597656,-0.1386719
2411,-14,-47.1875,-199.6875,0.03955078,0.08251953,0.1098633,0.02490234,0.2636719,-0.1386719
2415,-54.125,-77.5625,-203.4375,0.527832,-0.1694336,0.1367188,0.01269531,0.2636719,-0.137207
2419,-52.9375,-69.125,-198,1.043457,-0.7250977,0.159668,-0.01025391,0.2685547,-0.1318359
2423,-4.0625,-23,-202.5625,1.159668,-0.9272461,0.1557617,-0.03173828,0.2685547,-0.1264648
2427,22.5,-2.9375,-217.375,0.7294922,-0.4257813,0.1132813,-0.04394531,0.2661133,-0.1279297
2431,-6.125,-28.6875,-219.5625,0.6831055,-0.1152344,0.1098633,-0.06152344,0.262207,-0.1279297
2435,-42.25,-57.5625,-209.6875,0.7294922,-0.2587891,0.05175781,-0.08544922,0.2587891,-0.1225586
2440,-45.25,-75.75,-190.75,1.016113,-0.5966797,0.04052734,-0.09863281,0.2548828,-0.1181641
2444,-10,-58.625,-181.75,1.268066,-0.7641602,0.09033203,-0.1186523,0.25,-0.1113281
2448,43.3125,-16.5,-199.6875,1.279785,-0.5385742,0.125,-0.1352539,0.2436523,-0.1098633
2452,57.4375,2.0625,-235.6875,1.016113,-0.002441406,0.09033203,-0.1459961,0.2387695,-0.1157227
2456,21.5625,-24.3125,-248.3125,0.8959961,0.1601563,0.04443359,-0.1665039,0.2236328,-0.1166992
2460,-33.8125,-70.0625,-242.625,1.271973,0.02441406,0.005859375,-0.1865234,0.2099609,-0.1157227
2464,-51.25,-78.4375,-223.875,1.876465,-0.6708984,0.01708984,-0.2006836,0.2036133,-0.1088867
2468,-1.1875,-46.6875,-206,2.132324,-1.121582,0.06347656,-0.21875,0.1899414,-0.09912109
2472,73.3125,10.5625,-211,2.035156,-0.8686523,0.1020508,-0.2319336,0.1762695,-0.09912109
2476,105.625,32.1875,-220.25,1.450195,-0.3911133,-0.001464844,-0.2412109,0.1611328,-0.1044922
2480,68.625,-7.25,-204.9375,1.151855,0.07080078,-0.02832031,-0.2509766,0.1425781,-0.1142578
2484,14.75,-54.375,-178.9375,1.430664,-0.1191406,0.1210938,-0.2626953,0.1274414,-0.112793
2488,0.9375,-49.8125,-152.8125,1.946289,-0.4960938,0.3828125,-0.2685547,0.1152344,-0.1074219
2492,3.4375,-19.75,-133.375,1.915039,-0.6162109,0.4711914,-0.2768555,0.1025391,-0.105957
2496,-8.6875,-10.1875,-112.0625,1.605469,-0.5463867,0.375,-0.2807617,0.09130859,-0.1035156
2500,-26,-18.6875,-91.1875,1.395996,-0.6860352,0.2636719,-0.2851563,0.08642578,-0.1020508
2504,-21.4375,-23.4375,-71.375,1.473633,-1.020508,0.2519531,-0.2890625,0.07861328,-0.1005859
2508,4.9375,-15,-46.1875,1.523926,-1.207031,0.3291016,-0.2924805,0.07617188,-0.09667969
2512,30.1875,-7.625,-23.25,1.48877,-1.160156,0.4326172,-0.293457,0.07373047,-0.09765625
2516,40.25,0.3125,3.0625,1.52002,-0.9931641,0.4790039,-0.2924805,0.06884766,-0.09765625
2520,30.5625,12.8125,19.375,1.477539,-0.7055664,0.4711914,-0.293457,0.06884766,-0.09912109
2524,-1.75,11.9375,36.8125,1.291504,-0.5581055,0.340332,-0.2915039,0.07275391,-0.1020508
2528,-28.1875,-0.5625,61.5625,1.349609,-0.6977539,0.2558594,-0.2924805,0.07519531,-0.1020508
2532,-32.1875,0,84.1875,1.411621,-0.8417969,0.1557617,-0.2875977,0.08251953,-0.1005859
2536,-22.5,2,100.6875,1.407715,-0.8842773,0.1020508,-0.2841797,0.08886719,-0.1020508
2540,-10.8125,7.5625,116.75,1.531738,-0.8457031,0.105957,-0.2817383,0.09863281,-0.09765625
2544,-2.375,14.6875,135.0625,1.589844,-0.8183594,0.1328125,-0.2744141,0.1098633,-0.1005859
2548,4.25,26.6875,147.9375,1.644043,-0.7524414,0.1557617,-0.2709961,0.1176758,-0.1005859
2552,4.375,30.6875,162.8125,1.570313,-0.6977539,0.144043,-0.2636719,0.1298828,-0.1035156
2556,-0.5,27.0625,183.75,1.670898,-0.7172852,0.1557617,-0.2519531,0.1435547,-0.105957
2560,-0.875,26.4375,208.3125,1.740723,-0.7871094,0.159668,-0.2470703,0.1538086,-0.1088867
2564,6.9375,33.8125,219,1.76416,-0.7446289,0.1713867,-0.2329102,0.1674805,-0.1088867
2569,16.8125,49.0625,221.75,1.783691,-0.7172852,0.1674805,-0.215332,0.1850586,-0.1142578
2573,5.625,47.6875,234.5625,1.585938,-0.5307617,0.1748047,-0.2045898,0.1938477,-0.1166992
2577,-17.3125,30.625,257.625,1.52002,-0.5307617,0.1904297,-0.1865234,0.2084961,-0.1210938
2581,-18.875,24.9375,265,1.504395,-0.6669922,0.159668,-0.1665039,0.2236328,-0.1196289
2585,-5.4375,33.9375,262.8125,1.566406,-0.6708984,0.1748047,-0.1533203,0.2299805,-0.1225586
2589,13.6875,44.9375,260.75,1.484863,-0.6821289,0.144043,-0.128418,0.2426758,-0.1235352
2593,26.5625,57.125,257.375,1.364746,-0.4414063,0.140625,-0.1054688,0.25,-0.1289063
2597,11.625,50.5,263,1.198242,-0.3173828,0.1132813,-0.08642578,0.2563477,-0.1333008
2601,1.125,39.5625,264.9375,1.194336,-0.3754883,0.1367188,-0.06396484,0.2612305,-0.1357422
2605,17.375,47.3125,264.875,1.163574,-0.5854492,0.05175781,-0.03759766,0.262207,-0.137207
2609,48.6875,63.3125,254.75,1.151855,-0.4375,0.02880859,-0.02099609,0.2636719,-0.1416016
2613,42.9375,58.125,258.3125,0.9389648,-0.1347656,0.01708984,0.004394531,0.2597656,-0.144043
2617,0.8125,25.3125,269.125,0.8457031,-0.04150391,0.09814453,0.02978516,0.2573242,-0.1494141
2621,-30.625,-5.1875,299.5625,0.6982422,-0.2978516,0.02880859,0.04736328,0.2548828,-0.1484375
2625,-12.1875,-11.4375,294.875,0.6518555,-0.3754883,0.02880859,0.07470703,0.2485352,-0.1469727
2629,15.6875,12.0625,272.125,0.5239258,-0.1655273,0.06738281,0.09863281,0.2412109,-0.1484375
2633,38.8125,25.1875,248.8125,0.2373047,-0.05664063,0.04785156,0.1152344,0.2338867,-0.1523438
2637,48.3125,32.0625,230.5625,0.008789063,0.2226563,0.09423828,0.1342773,0.2211914,-0.1538086
2641,28.375,20.1875,215.625,-0.3588867,0.5136719,0.1713867,0.1547852,0.2084961,-0.15625
2645,4.1875,7.4375,193.375,-0.6069336,0.7001953,0.2480469,0.1689453,0.2001953,-0.15625
2649,-8,4.75,147.5625,-0.7387695,0.7470703,0.3173828,0.1821289,0.1914063,-0.1577148
2653,-9.6875,16.0625,97.8125,-0.9208984,0.6811523,0.3017578,0.1928711,0.1826172,-0.1547852
2657,-6.3125,18.25,50.3125,-1.099121,0.7275391,0.2866211,0.1962891,0.1801758,-0.1547852
2661,-9.75,14.625,2.4375,-1.145508,0.7314453,0.2944336,0.1987305,0.1762695,-0.1538086
2665,-16.0625,8.9375,-42.9375,-1.060547,0.5800781,0.2944336,0.199707,0.1772461,-0.1523438
2669,-19.375,10.1875,-90.25,-0.862793,0.3857422,0.2983398,0.1962891,0.1811523,-0.1508789
2673,-25.1875,7.0625,-126.5625,-0.7192383,0.1875,0.2749023,0.1889648,0.1884766,-0.1469727
2677,-26.25,8.9375,-147.8125,-0.4633789,-0.1035156,0.2480469,0.1782227,0.1987305,-0.144043
2681,-16.375,13.25,-157.9375,-0.347168,-0.3520508,0.2021484,0.1723633,0.2036133,-0.1455078
2685,6.5625,20.5625,-170.0625,-0.2773438,-0.4257813,0.1557617,0.1582031,0.2138672,-0.1425781
2689,21.5625,25.125,-191.6875,-0.230957,-0.2666016,0.1748047,0.1450195,0.2211914,-0.1416016
2693,12.5,14.9375,-206.4375,-0.2543945,-0.1152344,0.1713867,0.1342773,0.2285156,-0.1416016
2698,-7.9375,-2.9375,-215.625,-0.1108398,-0.1113281,0.1635742,0.1176758,0.2348633,-0.1401367
2702,-15.9375,-11.9375,-219.5625,0.1132813,-0.324707,0.1210938,0.09765625,0.2460938,-0.137207
2706,-7.5,-12.125,-226.625,0.3266602,-0.4414063,0.1171875,0.08447266,0.2524414,-0.137207
2710,7,-1.8125,-241.75,0.4853516,-0.4492188,0.1171875,0.06542969,0.2548828,-0.137207
2714,18.25,-1.75,-247.625,0.5048828,-0.5463867,0.04785156,0.04052734,0.2612305,-0.1386719
2718,9.0625,-22,-241.3125,0.5126953,-0.2241211,0.125,0.02832031,0.2636719,-0.137207
2722,-38.375,-55.625,-238.875,0.6054688,-0.09960938,0.08251953,0.003417969,0.2651367,-0.1357422
2726,-87.1875,-84.375,-226.0625,0.9155273,-0.3989258,0.03662109,-0.02246094,0.2675781,-0.1289063
2730,-79.5625,-75.625,-223.75,1.198242,-0.8686523,-0.02441406,-0.03759766,0.2685547,-0.1225586
2734,-14,-28.75,-233.375,1.419434,-1.152344,-0.01660156,-0.05908203,0.2700195,-0.1157227
2738,58.625,12.8125,-243.25,1.082031,-0.8842773,-0.02832031,-0.08203125,0.2612305,-0.1157227
2742,67.9375,0,-249.5,0.7680664,-0.2241211,0.009765625,-0.09619141,0.2563477,-0.1196289
2746,9.0625,-41.75,-246.375,0.8730469,0.171875,0.08251953,-0.1186523,0.2460938,-0.1225586
2750,-39.0625,-75.3125,-232.8125,1.260254,-0.2861328,0.07519531,-0.1401367,0.2373047,-0.1196289
2754,-20.4375,-64.0625,-219.0625,1.589844,-0.8378906,0.1635742,-0.1567383,0.2324219,-0.1142578
2758,37.125,-16.9375,-224.5,1.682617,-0.7016602,0.1787109,-0.1733398,0.2197266,-0.1088867
2762,57.1875,-0.1875,-246.625,1.237305,-0.1850586,0.09033203,-0.1923828,0.2060547,-0.1113281
2766,21.125,-26.6875,-245.375,1.175293,0.1020508,0.05175781,-0.203125,0.1962891,-0.1142578
2770,-40.125,-67.9375,-230.0625,1.302734,0.1293945,0.09423828,-0.222168,0.1772461,-0.112793
2774,-83.4375,-88.1875,-212.375,1.616699,-0.2392578,0.1098633,-0.237793,0.1650391,-0.1020508
2778,-83.875,-85.8125,-193.0625,1.779785,-0.6123047,0.09814453,-0.2485352,0.15625,-0.09375
2782,-47.125,-61.625,-179,1.872559,-0.8105469,0.09423828,-0.2617188,0.1425781,-0.08154297
2786,-9.875,-32.3125,-168.0625,1.802734,-0.6552734,0.08642578,-0.2700195,0.1298828,-0.07617188
2790,3.375,-19.8125,-164.8125,1.550781,-0.6201172,0.07910156,-0.2758789,0.1210938,-0.07470703
2794,3.8125,-24.375,-155.3125,1.717773,-0.8066406,0.2441406,-0.2841797,0.1049805,-0.07470703
2798,-3.5,-16.9375,-117.375,1.950195,-0.9853516,0.3945313,-0.2915039,0.09375,-0.07177734
2802,-12.25,-3.5,-74.1875,1.895996,-1.164063,0.340332,-0.2924805,0.08740234,-0.07080078
2806,-1.125,4.875,-38.6875,1.706055,-1.397461,0.1943359,-0.293457,0.08105469,-0.07080078
2810,20.1875,11.5,-8.9375,1.59375,-1.366211,0.1328125,-0.2958984,0.07861328,-0.07177734
2814,26,11.125,21.5,1.543457,-1.109863,0.1904297,-0.2949219,0.07617188,-0.07177734
2818,6.75,6.375,51,1.492676,-0.8959961,0.1943359,-0.2949219,0.08105469,-0.07470703
2822,-15,4.4375,74.0625,1.558594,-0.8613281,0.1787109,-0.2924805,0.08642578,-0.07324219
2827,-25.75,5.125,98.25,1.496582,-0.9580078,0.04785156,-0.2900391,0.09130859,-0.07470703
2831,-16.8125,6,118.875,1.523926,-1.004883,-0.02832031,-0.2875977,0.1035156,-0.07324219
2835,-0.5625,14.1875,132.6875,1.566406,-0.9658203,-0.03613281,-0.2807617,0.1113281,-0.07177734
2839,12.125,21.75,146.125,1.624512,-0.9116211,-0.04003906,-0.2758789,0.1201172,-0.07470703
2843,29.375,32.6875,160.125,1.72168,-0.9233398,-0.005371094,-0.2661133,0.1323242,-0.07763672
2847,41.5625,42,178.75,1.702148,-0.7832031,-0.001464844,-0.2578125,0.1450195,-0.08300781
2851,38.1875,41.5625,196.375,1.628418,-0.5854492,0.005859375,-0.2509766,0.1538086,-0.08447266
2855,28.625,32.25,212.5625,1.601563,-0.5268555,0.05566406,-0.2387695,0.1699219,-0.09228516
2859,25.8125,30.5,224.6875,1.601563,-0.5385742,0.07128906,-0.2236328,0.1860352,-0.09521484
2863,25.4375,31.625,229.9375,1.597656,-0.4414063,0.1020508,-0.2128906,0.1938477,-0.09912109
2867,23.8125,33.25,234.625,1.504395,-0.4335938,0.1132813,-0.1948242,0.2084961,-0.1044922
2871,24.3125,36.75,231.9375,1.458008,-0.4414063,0.1098633,-0.1772461,0.2211914,-0.1088867
2875,25.1875,40.3125,229.375,1.419434,-0.3598633,0.1171875,-0.1625977,0.2275391,-0.1113281
2879,14.25,38,235.25,1.299316,-0.3442383,0.1098633,-0.1425781,0.2363281,-0.1157227
2883,14.25,28.5625,241.4375,1.163574,-0.4067383,0.09033203,-0.1220703,0.2460938,-0.1196289
2887,20.375,30.4375,233.875,1.213867,-0.3442383,0.1328125,-0.1079102,0.2509766,-0.1225586
2891,17.125,33.5625,225.8125,1.066406,-0.2509766,0.1210938,-0.08398438,0.2573242,-0.1279297
2895,1.9375,25.625,220.875,1.070313,-0.2705078,0.159668,-0.06494141,0.2612305,-0.1279297
2899,4.875,26.4375,222.6875,0.9272461,-0.4453125,0.09033203,-0.04980469,0.262207,-0.1303711
2903,15.5625,24.4375,222.8125,0.9311523,-0.4765625,0.07519531,-0.02832031,0.2661133,-0.1318359
2907,34.8125,35.125,221.4375,0.8378906,-0.4492188,0.05566406,-0.006835938,0.2636719,-0.1347656
2911,43.875,42.75,215.125,0.7490234,-0.2705078,0.08251953,0.006835938,0.2651367,-0.137207
2915,38.3125,44.5,209.3125,0.5708008,-0.2314453,0.09033203,0.02832031,0.2597656,-0.1425781
2919,25.75,36.5625,201.75,0.3652344,-0.1191406,0.1132813,0.04882813,0.2563477,-0.1469727
2923,6.5625,22.375,195.375,0.2529297,-0.1811523,0.1210938,0.06298828,0.2524414,-0.1469727
2927,-1.5,10.1875,188.9375,0.1054688,-0.2509766,0.09814453,0.07958984,0.2485352,-0.1484375
2931,0,2.8125,177.875,0.1484375,-0.3520508,0.1367188,0.09619141,0.2412109,-0.1469727
2935,16.25,15,164.25,0.1674805,-0.484375,0.1518555,0.1069336,0.2373047,-0.1484375
2939,43.75,43.6875,160.25,0.07080078,-0.402832,0.144043,0.1210938,0.2314453,-0.1508789
2943,57.8125,54.25,154.25,-0.4443359,-0.1459961,0.08251953,0.1367188,0.2211914,-0.1538086
2947,45.5,43.875,148.75,-0.8354492,0.1796875,0.05175781,0.1459961,0.2148438,-0.1538086
2951,20.625,17.9375,125.375,-1.044922,0.3662109,0.1328125,0.1582031,0.2060547,-0.1547852
2956,1.875,1.125,78.875,-1.037109,0.5449219,0.2368164,0.1665039,0.2011719,-0.1577148
2960,-12.875,-2.4375,26.9375,-0.9750977,0.5136719,0.2866211,0.1713867,0.1972656,-0.1591797
2964,-20.3125,-1.4375,-15.625,-0.847168,0.3349609,0.3056641,0.1723633,0.1987305,-0.15625
2968,-16.4375,0.875,-48.4375,-0.7270508,0.1333008,0.2749023,0.1665039,0.2011719,-0.1538086
2972,-14,1.5625,-79.9375,-0.6342773,0.07861328,0.2636719,0.1665039,0.2050781,-0.1523438
2976,-22.375,-6.0625,-103.4375,-0.5371094,-0.01025391,0.2749023,0.1591797,0.2075195,-0.1508789
2980,-33.375,-13.75,-118.8125,-0.3974609,-0.2084961,0.2636719,0.1523438,0.2163086,-0.1494141
2984,-27.125,-10.5625,-134.3125,-0.2734375,-0.355957,0.2329102,0.144043,0.21875,-0.1494141
2988,-8.5,1.9375,-148.125,-0.2387695,-0.3989258,0.2133789,0.1318359,0.2275391,-0.1455078
2992,11.5625,8.125,-165.625,-0.2890625,-0.2861328,0.1904297,0.1186523,0.2348633,-0.1484375
2996,20.9375,7.75,-187.3125,-0.28125,-0.1074219,0.1982422,0.109375,0.2387695,-0.1469727
3000,17.0625,-2.25,-211.5625,-0.2387695,0.004882813,0.1943359,0.09277344,0.2451172,-0.1455078
3004,4.75,-18.625,-228.75,-0.1147461,0.03613281,0.1904297,0.07373047,0.25,-0.1484375
3008,-13.0625,-34.75,-239.6875,0.109375,-0.006347656,0.1787109,0.05712891,0.2509766,-0.1484375
3012,-24.5625,-51.375,-241.5625,0.3496094,-0.1889648,0.1479492,0.03564453,0.2612305,-0.1455078
3016,-27.0625,-59.125,-239,0.5859375,-0.2900391,0.1328125,0.009277344,0.2636719,-0.1425781
3020,-33.375,-67.3125,-232.8125,0.8183594,-0.371582,0.1289063,-0.005859375,0.2636719,-0.1386719
3024,-24.6875,-47.625,-238.125,1.117188,-0.4804688,0.1210938,-0.02832031,0.2651367,-0.1357422
3028,-6.625,-20.6875,-257.25,1.035645,-0.5385742,0.1171875,-0.05224609,0.2612305,-0.1333008
3032,-0.375,-34.375,-254.625,0.9077148,-0.453125,-0.04003906,-0.06884766,0.2573242,-0.1318359
3036,0.8125,-51.625,-239.9375,1.008301,-0.371582,-0.04394531,-0.09228516,0.2524414,-0.1318359
3040,-25,-86.0625,-228.0625,0.9501953,-0.1381836,-0.07470703,-0.1152344,0.2475586,-0.1264648
3044,-50.4375,-105.75,-223.625,1.500488,-0.2314453,0.02880859,-0.1293945,0.2436523,-0.1196289
3048,-27.8125,-59.875,-253.4375,1.876465,-0.565918,0.1020508,-0.1533203,0.2363281,-0.1113281
3052,31.375,-0.4375,-282.0625,1.744629,-0.7094727,0.06347656,-0.1733398,0.2211914,-0.1098633
3056,71.5,12.0625,-278.25,1.357422,-0.3911133,-0.01660156,-0.1889648,0.2084961,-0.1142578
3060,56.6875,-19.5625,-268.375,1.13623,0.1835938,-0.02441406,-0.2089844,0.1899414,-0.1166992
3064,-26.125,-80.625,-259.9375,1.357422,0.4165039,0.005859375,-0.2270508,0.1723633,-0.1157227
3068,-78.5625,-109.625,-238.125,1.942383,-0.2783203,0.07910156,-0.2402344,0.1625977,-0.105957
3072,-61.4375,-83.75,-216.6875,2.430664,-0.8222656,0.1787109,-0.2543945,0.1459961,-0.09521484
3076,-12.0625,-26.875,-193.875,2.372559,-0.9697266,0.1674805,-0.2685547,0.1289063,-0.08691406
3080,24.6875,4.3125,-180,1.872559,-0.8496094,0.04052734,-0.2734375,0.1186523,-0.08691406
3085,42.1875,2.3125,-165.4375,1.582031,-0.7133789,0.02880859,-0.2827148,0.1010742,-0.08837891
3089,36.8125,-9.5625,-146.9375,1.570313,-0.7016602,0.1674805,-0.2875977,0.08740234,-0.08984375
3093,17.25,-24.4375,-116.25,1.682617,-0.8417969,0.4018555,-0.2924805,0.07861328,-0.08691406
3097,-0.3125,-25,-71.75,1.888184,-0.9970703,0.5942383,-0.2949219,0.06884766,-0.08984375
3101,-8.125,-5.4375,-28.625,1.872559,-1.102051,0.6210938,-0.2983398,0.06494141,-0.08691406
3105,-10.0625,5.125,0.25,1.659668,-1.105957,0.4907227,-0.2998047,0.0625,-0.08837891
3109,-17.0625,7.75,29.75,1.616699,-1.062988,0.3828125,-0.2983398,0.06396484,-0.08691406
3113,-23.5625,9.1875,60,1.616699,-1.036133,0.2709961,-0.2973633,0.06640625,-0.08544922
3117,-23.4375,12.5625,86.3125,1.640137,-0.9697266,0.1674805,-0.2958984,0.07128906,-0.08544922
3121,-25.0625,13.6875,109.75,1.686523,-0.9389648,0.1020508,-0.2924805,0.08007813,-0.08837891
3125,-22.0625,17.3125,135.0625,1.787598,-0.9736328,0.1020508,-0.2851563,0.09228516,-0.08691406
3129,-9,27.75,162.75,1.853027,-0.9580078,0.09033203,-0.2841797,0.1025391,-0.08691406
3133,8.5,42.875,182.375,1.864746,-0.8574219,0.07910156,-0.2724609,0.1137695,-0.09228516
3137,19.0625,55.6875,194.1875,1.798828,-0.6977539,0.07519531,-0.2661133,0.1323242,-0.09667969
3141,12.125,52.1875,209.75,1.725586,-0.5268555,0.1020508,-0.2553711,0.1425781,-0.1005859
3145,-7.9375,41.625,227.75,1.702148,-0.4414063,0.1210938,-0.2446289,0.1586914,-0.1035156
3149,-26.5,29.5625,248.375,1.647949,-0.4960938,0.09423828,-0.2294922,0.1772461,-0.105957
3153,-29.875,18.9375,262.4375,1.666992,-0.5737305,0.06347656,-0.2172852,0.1884766,-0.105957
3157,-19.6875,24.1875,265.0625,1.698242,-0.6044922,0.07519531,-0.1972656,0.2060547,-0.105957
3161,0.25,33.125,270.0625,1.5625,-0.6513672,0.01708984,-0.1757813,0.2211914,-0.1074219
3165,21.6875,34.625,276,1.492676,-0.5581055,0.009765625,-0.1591797,0.2299805,-0.1113281
3169,30.5,35.6875,277.75,1.357422,-0.3325195,0.01367188,-0.1376953,0.2426758,-0.1142578
3173,27.6875,33.75,274.5625,1.380371,-0.2314453,0.09814453,-0.1113281,0.2524414,-0.1181641
3177,32.0625,50.125,259.4375,1.337891,-0.2548828,0.1210938,-0.09619141,0.2548828,-0.1225586
3181,43.4375,61.5625,250.0625,1.225586,-0.2084961,0.1289063,-0.06982422,0.2612305,-0.1289063
3185,36.5,68.625,236.625,1.26416,-0.1035156,0.1982422,-0.04492188,0.2636719,-0.1333008
3189,27.375,83.8125,237.6875,1.109375,-0.1733398,0.1367188,-0.02929688,0.2636719,-0.137207
3193,32.3125,74.875,249.4375,0.7641602,-0.3208008,0.001953125,-0.004394531,0.2636719,-0.1425781
3197,33.1875,59.5625,257.5,0.6674805,-0.1035156,0.009765625,0.02246094,0.2597656,-0.1455078
3201,28.125,53.0625,254.0625,0.527832,0.004882813,0.01367188,0.0390625,0.2587891,-0.1455078
3205,27,50.6875,229.625,0.3769531,0.1020508,0.05566406,0.06298828,0.25,-0.1484375
3209,27.6875,51.125,212.625,0.1713867,0.05908203,0.01367188,0.08544922,0.2436523,-0.1508789
3214,19.6875,34.75,199.375,-0.01806641,0.1640625,0.04443359,0.09765625,0.2387695,-0.1547852
3218,8.6875,26,182.4375,-0.1728516,0.21875,0.09033203,0.1166992,0.2338867,-0.1538086
3222,0.375,19.625,155.1875,-0.3242188,0.1953125,0.125,0.1308594,0.2260742,-0.1523438
3226,2.625,18.9375,128.25,-0.5253906,0.1523438,0.140625,0.1391602,0.2211914,-0.1538086
3230,2,18.625,101.9375,-0.6376953,0.1796875,0.1787109,0.1499023,0.2138672,-0.1538086
3234,2.5625,17.6875,68.875,-0.8432617,0.2299805,0.2021484,0.1582031,0.2084961,-0.1523438
3238,-4.125,10.3125,36.25,-1.005859,0.2768555,0.2060547,0.1630859,0.2084961,-0.1508789
3242,-17.6875,-6.5,4.75,-1.048828,0.237793,0.2441406,0.1630859,0.2050781,-0.1508789
3246,-31.8125,-19.4375,-22.625,-0.9091797,0.09033203,0.3095703,0.1640625,0.2075195,-0.1484375
3250,-31.0625,-18.6875,-53.125,-0.7929688,-0.1191406,0.3173828,0.1616211,0.2084961,-0.1484375
3254,-28.125,-16.4375,-79.6875,-0.6264648,-0.2124023,0.3442383,0.1567383,0.2138672,-0.1469727
3258,-29.25,-17.875,-100.9375,-0.5527344,-0.340332,0.3520508,0.1474609,0.21875,-0.1455078
3262,-33.625,-19.5,-110.9375,-0.328125,-0.4414063,0.355957,0.1401367,0.2211914,-0.1455078
3266,-30.8125,-14.625,-111.6875,-0.246582,-0.5620117,0.2905273,0.1308594,0.2299805,-0.1401367
3270,-9.5625,1.4375,-126,-0.1611328,-0.5854492,0.2250977,0.1210938,0.2363281,-0.1401367
3274,18.8125,19.5625,-146.0625,-0.2080078,-0.4765625,0.144043,0.112793,0.2387695,-0.1386719
3278,34.625,24.9375,-169,-0.2890625,-0.2548828,0.09814453,0.1020508,0.2426758,-0.1416016
3282,24.5625,5.625,-179.375,-0.2734375,-0.09179688,0.09033203,0.08691406,0.2485352,-0.144043
3286,8.6875,-16.75,-184.75,-0.1459961,-0.09179688,0.08251953,0.07714844,0.2509766,-0.144043
3290,6.9375,-24.1875,-197.6875,0.07470703,-0.1850586,0.07128906,0.05957031,0.2548828,-0.144043
3294,15.875,-28.9375,-211.5,0.206543,-0.2783203,0.07128906,0.0390625,0.2587891,-0.1425781
3298,27.25,-33.875,-215.1875,0.4428711,-0.3208008,0.1132813,0.02490234,0.2612305,-0.144043
3302,29.5625,-35.8125,-215.9375,0.5200195,-0.2744141,0.1020508,0.004394531,0.2612305,-0.1484375
3306,11.625,-61.0625,-208.75,0.4931641,-0.1538086,0.09814453,-0.01611328,0.2597656,-0.1484375
3310,-11.8125,-88.75,-205.3125,0.7451172,-0.2548828,0.1020508,-0.03076172,0.2587891,-0.1469727
3314,-18.125,-100.6875,-203.6875,1.082031,-0.550293,0.1479492,-0.05224609,0.2587891,-0.1425781
3318,-3.5625,-84.1875,-194.625,1.39209,-0.7485352,0.2094727,-0.07470703,0.2563477,-0.1416016
3322,20.0625,-58.4375,-178.9375,1.241211,-0.8222656,0.1787109,-0.08789063,0.2509766,-0.137207
3326,52.625,-40.6875,-175.625,1.027832,-0.7016602,0.144043,-0.1044922,0.2460938,-0.1386719
3330,57.625,-49.9375,-177.625,0.8378906,-0.324707,0.1098633,-0.1210938,0.2373047,-0.1425781
3334,30.625,-71.0625,-178.125,0.8881836,-0.1035156,0.09814453,-0.1318359,0.2314453,-0.1416016
3338,-6.625,-98.0625,-188.3125,1.059082,-0.09570313,0.1328125,-0.1494141,0.2226563,-0.1386719
3343,-21.75,-95.5,-199.9375,1.523926,-0.4101563,0.1635742,-0.168457,0.2148438,-0.1318359
3347,-0.1875,-60,-212.875,1.666992,-0.519043,0.1713867,-0.1806641,0.2075195,-0.1279297
3351,13.125,-44.3125,-223.875,1.430664,-0.3637695,0.09423828,-0.1982422,0.1962891,-0.1264648
3355,-2.5625,-55.625,-223.9375,1.430664,-0.2124023,0.07128906,-0.2138672,0.1801758,-0.1225586
3359,-34.75,-74.125,-215.8125,1.597656,-0.3056641,0.07519531,-0.2255859,0.1738281,-0.1210938
3363,-47.875,-71.8125,-194.5625,1.942383,-0.6591797,0.1289063,-0.2426758,0.1577148,-0.1074219
3367,-23.25,-45.875,-173.625,2.000488,-0.9814453,0.1748047,-0.2543945,0.1459961,-0.1020508
3371,5.75,-19.375,-154.25,1.814453,-0.7871094,0.1748047,-0.2617188,0.1347656,-0.1020508
3375,-9.8125,-19.6875,-139.8125,1.527832,-0.5463867,0.1367188,-0.2661133,0.1235352,-0.09912109
3379,-45.875,-33.0625,-115.5625,1.531738,-0.7832031,0.1289063,-0.2744141,0.1123047,-0.09521484
3383,-49.625,-34.5,-86.3125,1.644043,-1.21875,0.1713867,-0.2807617,0.1064453,-0.09228516
3387,-18.375,-18.0625,-57.125,1.686523,-1.548828,0.2250977,-0.2827148,0.1010742,-0.08837891
3391,18.9375,-5.3125,-21.25,1.620605,-1.521484,0.3095703,-0.2841797,0.09765625,-0.08691406
3395,35.75,2.375,14.3125,1.605469,-1.315918,0.4018555,-0.2866211,0.09765625,-0.08544922
3399,33.75,11.375,42.6875,1.632324,-1.090332,0.4790039,-0.2851563,0.09765625,-0.08837891
3403,20.0625,19.0625,66.125,1.585938,-0.9853516,0.5097656,-0.2817383,0.1025391,-0.09082031
3407,3.375,26.5625,88.0625,1.624512,-0.9580078,0.4711914,-0.2783203,0.1064453,-0.09375
3411,-6.9375,33.125,109.25,1.698242,-0.9931641,0.4213867,-0.2734375,0.1137695,-0.09765625
3415,-12.125,43.4375,132.25,1.748535,-1.066895,0.3134766,-0.2661133,0.125,-0.1005859
3419,-3.6875,50.3125,162.75,1.756348,-1.121582,0.1982422,-0.2626953,0.1323242,-0.1020508
3423,12.5,55.0625,185.5,1.744629,-1.032227,0.140625,-0.2519531,0.1459961,-0.1044922
3427,18.4375,61.9375,198.3125,1.872559,-0.8535156,0.1826172,-0.2387695,0.1586914,-0.1098633
3431,9.9375,71.5,213.6875,1.958008,-0.7211914,0.2368164,-0.2294922,0.1699219,-0.1142578
3435,-3.875,75.125,234,1.833984,-0.6318359,0.1982422,-0.215332,0.1850586,-0.1210938
3439,-16.4375,64.125,258.75,1.69043,-0.6083984,0.1210938,-0.1948242,0.2011719,-0.1235352
3443,-18.875,56.125,273.3125,1.659668,-0.5893555,0.1132813,-0.1782227,0.2099609,-0.125
3447,-12.5,57.5,273.6875,1.644043,-0.581543,0.09814453,-0.1582031,0.2250977,-0.1289063
3451,-10.1875,57.6875,270.25,1.624512,-0.5151367,0.08251953,-0.1328125,0.2387695,-0.1318359
3455,-3,61.3125,277.125,1.558594,-0.534668,0.07519531,-0.1152344,0.2412109,-0.1318359
3459,4.25,62,279.5625,1.430664,-0.46875,0.05957031,-0.09130859,0.2509766,-0.1357422
3463,9.3125,59,293,1.237305,-0.3793945,0.04785156,-0.06396484,0.2587891,-0.1401367
3467,18.125,58.375,298.3125,1.124512,-0.2939453,0.009765625,-0.04492188,0.2612305,-0.1425781
3472,34,63.375,285.25,0.9272461,-0.1347656,0.009765625,-0.01513672,0.2612305,-0.1455078
3476,37.375,65.75,264.8125,0.8574219,-0.006347656,0.04052734,0.01171875,0.2597656,-0.1494141
3480,31.375,63.1875,253.25,0.7216797,-0.01025391,0.03271484,0.03173828,0.2573242,-0.1508789
3484,30,58.625,254,0.5708008,-0.02197266,0.03662109,0.05566406,0.2509766,-0.1547852
3488,20.5,46.5,248.4375,0.3886719,0.1254883,0.05566406,0.07958984,0.2436523,-0.15625
3492,7.4375,37.8125,235.1875,0.2333984,0.1293945,0.07128906,0.09521484,0.2387695,-0.1591797
3496,16.3125,40.625,205.6875,0.09033203,0.06689453,0.06347656,0.1152344,0.2299805,-0.1606445
3500,32.25,50.3125,172.625,-0.01416016,0.1176758,0.09423828,0.1357422,0.2197266,-0.1591797
3504,33.1875,52.125,154.3125,-0.3588867,0.2729492,0.06738281,0.144043,0.2124023,-0.1606445
3508,24.4375,32.25,146.1875,-0.8085938,0.4204102,0.07519531,0.1591797,0.2050781,-0.1591797
3512,6.25,14.125,115.125,-0.8354492,0.4907227,0.1328125,0.1689453,0.1948242,-0.1606445
3516,-5.375,2.125,77,-0.9013672,0.5175781,0.1826172,0.1748047,0.1938477,-0.1591797
3520,-11.875,-0.4375,34.875,-0.9248047,0.5292969,0.2519531,0.1772461,0.1899414,-0.1606445
3524,-21.5625,-1.375,-8.8125,-0.9985352,0.4946289,0.2558594,0.1821289,0.1884766,-0.1591797
3528,-30.25,-7.3125,-47.1875,-0.9438477,0.3310547,0.2519531,0.1806641,0.1899414,-0.1591797
3532,-34.1875,-11.4375,-80.0625,-0.8393555,0.15625,0.2250977,0.1748047,0.1962891,-0.1577148
3536,-36,-16.6875,-107.375,-0.6845703,0.0009765625,0.2094727,0.1665039,0.2036133,-0.1538086
3540,-40.625,-24.3125,-128.5625,-0.5253906,-0.1577148,0.2290039,0.1606445,0.2060547,-0.1538086
3544,-41.5625,-25.5,-139.5,-0.296875,-0.3911133,0.2480469,0.1508789,0.2172852,-0.1508789
3548,-25.625,-14.1875,-149.125,-0.1689453,-0.5268555,0.2290039,0.1376953,0.2250977,-0.1469727
3552,-6.625,-2,-162.1875,-0.1572266,-0.4765625,0.2250977,0.1308594,0.2299805,-0.144043
3556,0.8125,0.9375,-179.6875,-0.1342773,-0.3442383,0.2290039,0.1166992,0.2363281,-0.1484375
3560,-3.0625,-1.125,-192.8125,-0.08789063,-0.2861328,0.2172852,0.09863281,0.2451172,-0.1455078
3564,-9.6875,-8.125,-201.25,-0.03710938,-0.2783203,0.1982422,0.08789063,0.2475586,-0.1425781
3568,-14.5,-17.125,-208.375,0.07470703,-0.2978516,0.159668,0.06884766,0.2539063,-0.1425781
3572,-19.0625,-29.1875,-207.25,0.1831055,-0.3637695,0.1367188,0.04736328,0.2587891,-0.1425781
3576,-20.625,-36.25,-208.625,0.4272461,-0.4257813,0.159668,0.03662109,0.2612305,-0.1401367
3580,-21,-32.8125,-223.25,0.6362305,-0.4257813,0.1674805,0.01513672,0.2636719,-0.1347656
3584,-19.9375,-26.0625,-232.25,0.8183594,-0.581543,0.1674805,-0.0078125,0.2661133,-0.1333008
3588,-8.3125,-19.8125,-223.25,0.8613281,-0.8222656,0.09814453,-0.0234375,0.2661133,-0.1318359
3592,14.8125,-18.8125,-210.375,0.8496094,-0.8496094,0.05957031,-0.04394531,0.2651367,-0.1303711
3596,22.3125,-20.9375,-205.6875,0.7954102,-0.519043,0.09814453,-0.06298828,0.2597656,-0.1318359
3601,-7.625,-45.6875,-216.625,0.7836914,-0.2744141,0.08642578,-0.07568359,0.2573242,-0.1318359
3605,-32.3125,-63.6875,-214.8125,1.059082,-0.4921875,0.1328125,-0.09863281,0.2524414,-0.1289063
3609,-27.0625,-55.125,-207.0625,1.291504,-0.7753906,0.1635742,-0.1176758,0.2485352,-0.1225586
3613,8,-30.9375,-197.375,1.314453,-0.9350586,0.144043,-0.1303711,0.2436523,-0.1196289
3617,34.0625,-17.75,-192,1.078125,-0.5966797,0.105957,-0.1474609,0.2348633,-0.1196289
3621,29.3125,-23.4375,-192.625,1.059082,-0.3364258,0.144043,-0.1650391,0.2250977,-0.1225586
3625,11.25,-33.625,-199.625,1.023926,-0.2353516,0.1635742,-0.1748047,0.2172852,-0.1210938
3629,0.75,-40.5625,-198.625,1.19043,-0.355957,0.1713867,-0.1899414,0.2060547,-0.1166992
3633,11.3125,-33,-197.5625,1.252441,-0.4296875,0.1748047,-0.206543,0.1948242,-0.112793
3637,32.3125,-19.8125,-199.875,1.260254,-0.355957,0.1748047,-0.2163086,0.1850586,-0.1142578
3641,45.9375,-10.9375,-208.5,1.151855,-0.1381836,0.1210938,-0.2294922,0.1699219,-0.1157227
3645,24.1875,-29.8125,-218.4375,1.13623,0.2456055,0.08251953,-0.2436523,0.1538086,-0.1166992
3649,-23.8125,-56.5,-210.5625,1.411621,-0.05664063,0.105957,-0.2495117,0.1401367,-0.1142578
3653,-18.3125,-55,-194.8125,1.740723,-0.6162109,0.07128906,-0.2636719,0.1264648,-0.1098633
3657,43,-18.5625,-183.875,1.915039,-1.020508,0.04785156,-0.2758789,0.1088867,-0.1044922
3661,118.9375,18.6875,-172.375,1.686523,-0.9233398,0.04785156,-0.2783203,0.09765625,-0.1088867
3665,160.75,28.625,-155.1875,1.477539,-0.5151367,0.1713867,-0.2851563,0.07861328,-0.1142578
3669,127.625,9,-134.625,1.43457,-0.02197266,0.5019531,-0.2875977,0.06005859,-0.1225586
3673,49.4375,-18.3125,-99.25,1.601563,-0.01416016,0.7172852,-0.2915039,0.04980469,-0.1235352
3677,-13.5,-29.875,-65.875,1.725586,-0.4179688,0.7099609,-0.2949219,0.04150391,-0.1225586
3681,-31.8125,-25.625,-28.9375,1.729004,-0.8803711,0.5830078,-0.2973633,0.03759766,-0.1196289
3685,-14,-12.8125,2.9375,1.69043,-1.105957,0.5058594,-0.2983398,0.03613281,-0.1196289
3689,9.4375,2.1875,29.4375,1.694336,-1.05127,0.5249023,-0.2983398,0.03613281,-0.1196289
3693,12.5625,14.3125,55.9375,1.709961,-0.7832031,0.5751953,-0.2958984,0.04003906,-0.1181641
3697,-11.25,15.4375,85.1875,1.63623,-0.550293,0.5673828,-0.2958984,0.04394531,-0.1196289
3701,-40.25,10,110.3125,1.63623,-0.534668,0.4907227,-0.2915039,0.05371094,-0.1210938
3705,-63.125,2.75,134,1.628418,-0.6318359,0.4057617,-0.2900391,0.06738281,-0.1196289
3709,-74.625,-3.75,158.0625,1.787598,-0.7524414,0.3291016,-0.2851563,0.07763672,-0.1157227
3713,-73.4375,-0.3125,188.125,1.961914,-0.8959961,0.2866211,-0.2792969,0.09375,-0.1142578
3717,-55.1875,11.875,221.6875,2.078125,-1.008789,0.2211914,-0.2709961,0.1123047,-0.1113281
3721,-29,28.3125,239.8125,2.108887,-0.8144531,0.1982422,-0.2626953,0.1264648,-0.1098633
3725,-22.9375,37.375,258.75,2.054688,-0.6552734,0.1787109,-0.2495117,0.1459961,-0.1113281
3730,-22.125,33.6875,281.25,1.911133,-0.534668,0.140625,-0.2304688,0.1689453,-0.112793
3734,-20.625,32.25,294.8125,1.89209,-0.503418,0.1210938,-0.2197266,0.1811523,-0.1157227
3738,-13.75,34.375,305.5,1.845703,-0.503418,0.1132813,-0.1972656,0.2011719,-0.1142578
3742,0.0625,42.0625,308.0625,1.771973,-0.4804688,0.105957,-0.1733398,0.21875,-0.1181641
3746,9.5,50.375,308.4375,1.694336,-0.3325195,0.08642578,-0.1557617,0.2299805,-0.1225586
3750,3.5625,43.625,316.1875,1.430664,-0.2202148,0.04443359,-0.1293945,0.2426758,-0.1235352
3754,2.125,37.375,323.9375,1.407715,-0.2861328,0.04052734,-0.09960938,0.2524414,-0.1289063
3758,15.75,38.5,318.3125,1.244629,-0.2124023,0.02099609,-0.07958984,0.2573242,-0.1289063
3762,21.0625,40.875,307.5,1.217773,-0.08007813,0.06347656,-0.05078125,0.262207,-0.1333008
3766,25.625,46.6875,300.3125,1.117188,-0.1811523,0.04052734,-0.02099609,0.2636719,-0.1357422
3770,38.1875,50.125,294.1875,0.9697266,-0.09960938,0.03662109,-0.0009765625,0.2636719,-0.1401367
3774,35.5,51.5,287.8125,0.8842773,0.04736328,0.07519531,0.02734375,0.2597656,-0.144043
3778,31.625,51,277.25,0.5976563,0.08642578,0.03662109,0.0546875,0.2563477,-0.1455078
3782,29.75,46,269.3125,0.3999023,0.1098633,0.02880859,0.07226563,0.2475586,-0.1494141
3786,27.3125,39.5625,247.5,0.2529297,0.21875,0.06347656,0.09863281,0.2387695,-0.1508789
3790,28.75,43.9375,226.5,0.1210938,0.171875,0.06347656,0.1201172,0.2299805,-0.1523438
3794,36.625,49.6875,196.375,-0.1108398,0.300293,0.06738281,0.1318359,0.2226563,-0.1547852
3798,32.75,48.3125,168.5625,-0.3745117,0.05908203,0.1479492,0.1508789,0.2138672,-0.15625
3802,13.4375,30.1875,137.3125,-0.6650391,0.5292969,0.1787109,0.1640625,0.2050781,-0.15625
3806,-8.0625,13.3125,107.6875,-0.8706055,0.5683594,0.1982422,0.1713867,0.1972656,-0.15625
3810,-24.1875,1.25,67.75,-0.9477539,0.5136719,0.2368164,0.1782227,0.1923828,-0.1538086
3814,-26.875,-0.5,26,-0.9477539,0.3974609,0.2519531,0.1831055,0.1923828,-0.1523438
3818,-20.6875,6.25,-16.375,-0.9169922,0.2963867,0.2788086,0.184082,0.1914063,-0.1523438
3822,-14.4375,10.625,-50.625,-0.9555664,0.1835938,0.2441406,0.1831055,0.1938477,-0.1494141
3826,-12.375,8.0625,-81,-0.9287109,0.1523438,0.2290039,0.1796875,0.1987305,-0.1469727
3830,-17.8125,0.8125,-108.9375,-0.831543,0.1020508,0.2094727,0.1748047,0.2011719,-0.1469727
3834,-26.0625,-8.0625,-132.125,-0.6650391,-0.02587891,0.1943359,0.1630859,0.2075195,-0.144043
3838,-27.5625,-11,-150.25,-0.4672852,-0.1459961,0.1904297,0.1533203,0.21875,-0.144043
3842,-23.5,-9,-171.8125,-0.3085938,-0.2163086,0.1713867,0.144043,0.2250977,-0.1416016
3846,-17.875,-7.0625,-185.5625,-0.1806641,-0.2939453,0.140625,0.128418,0.2324219,-0.1401367
3850,-5.5625,-5.4375,-195.625,-0.07617188,-0.371582,0.105957,0.1118164,0.2397461,-0.1386719
3854,9.375,-5.9375,-199.5625,-0.002441406,-0.3637695,0.07128906,0.09960938,0.2460938,-0.1357422
3859,22.5625,-9.875,-207.6875,0.04345703,-0.2861328,0.04785156,0.08203125,0.2509766,-0.1386719
3863,19.875,-20.375,-218.375,0.1289063,-0.09960938,0.09423828,0.06396484,0.2573242,-0.1386719
3867,-5.5625,-44.3125,-232.3125,0.2026367,0.06298828,0.09814453,0.04980469,0.2612305,-0.1401367
3871,-40,-71.375,-236.0625,0.4155273,-0.05664063,0.07519531,0.02490234,0.2636719,-0.1386719
3875,-52.9375,-82.875,-227.3125,0.8574219,-0.4101563,0.09423828,-0.001953125,0.2661133,-0.1333008
3879,-26.625,-57.5625,-227.4375,0.8920898,-1.070801,-0.08984375,-0.01513672,0.2675781,-0.1289063
3883,30.875,-37.625,-207.6875,0.9077148,-0.8535156,-0.04003906,-0.03759766,0.2661133,-0.1279297
3887,68.3125,-21.1875,-215.3125,0.9931641,-0.371582,0.06738281,-0.05664063,0.2636719,-0.1318359
3891,51.6875,-22.75,-245.1875,0.6557617,0.2148438,0.05566406,-0.07128906,0.2587891,-0.1347656
3895,-17.25,-79.8125,-253.5,0.7060547,0.269043,0.05175781,-0.09228516,0.2524414,-0.1357422
3899,-58.8125,-107.5625,-243.875,1.29541,-0.3134766,0.08642578,-0.1176758,0.2460938,-0.1279297
3903,-27.75,-90.125,-226.25,1.651855,-0.9350586,0.1289063,-0.1342773,0.2412109,-0.1225586
3907,49.1875,-45.75,-214.125,1.628418,-0.9658203,0.1289063,-0.1557617,0.2299805,-0.1166992
3911,90.1875,-24,-227.5625,1.353516,-0.1733398,0.1289063,-0.1748047,0.2163086,-0.1210938
3915,33.75,-46.4375,-260.125,1.213867,0.5566406,0.1518555,-0.1865234,0.2075195,-0.1235352
3919,-71.5,-93.5625,-262.3125,1.655762,0.1757813,0.1674805,-0.206543,0.1914063,-0.1196289
3923,-112.3125,-95.75,-238.6875,2.268066,-0.7602539,0.1982422,-0.2280273,0.1787109,-0.1044922
3927,-78.375,-55.4375,-201.125,2.480957,-1.241699,0.2290039,-0.237793,0.1674805,-0.09521484
3931,-6.6875,-9.375,-176.625,2.0625,-1.323242,0.009765625,-0.2509766,0.1538086,-0.09082031
3935,41.1875,4.3125,-164.5625,1.461914,-0.9077148,-0.112793,-0.2592773,0.1425781,-0.08837891
3939,50.625,-18.25,-149.1875,1.202148,-0.6162109,-0.0859375,-0.2661133,0.1323242,-0.09082031
3943,49.5625,-37.5625,-138.3125,1.299316,-0.6123047,0.08251953,-0.2734375,0.1201172,-0.09082031
3947,48.8125,-33.0625,-129.625,1.632324,-0.6513672,0.3828125,-0.2817383,0.1049805,-0.08984375
3951,39.25,-8.625,-113.8125,1.833984,-0.6630859,0.5556641,-0.2827148,0.09863281,-0.09082031
3955,17.375,10.9375,-92.4375,1.725586,-0.7641602,0.5405273,-0.2890625,0.08496094,-0.09228516
3959,-2.8125,13.875,-64.3125,1.554688,-0.9116211,0.3828125,-0.2915039,0.07861328,-0.09228516
3963,-11.8125,5.1875,-26.875,1.508301,-1.08252,0.2905273,-0.2915039,0.07617188,-0.09667969
3967,-13,-2.0625,14.3125,1.632324,-1.144531,0.3017578,-0.2924805,0.07519531,-0.09521484
3971,-15.375,-1.875,53.4375,1.72168,-1.144531,0.3212891,-0.2915039,0.07617188,-0.09375
3975,-16.6875,5.9375,85.5,1.798828,-1.094238,0.3134766,-0.2900391,0.08251953,-0.09375
3979,-20.5,16.6875,112.8125,1.775879,-1.02832,0.2519531,-0.2875977,0.09130859,-0.09228516
3983,-23.8125,20.6875,140.25,1.706055,-1.008789,0.1826172,-0.2817383,0.1010742,-0.09228516
3988,-25.875,16.5,166.4375,1.73291,-1.012695,0.140625,-0.2768555,0.1098633,-0.09228516
3992,-26.875,20.5625,188.5625,1.992676,-0.9814453,0.1943359,-0.2700195,0.1264648,-0.09228516
3996,-22.125,31.5,215,2.042969,-1.02832,0.125,-0.2578125,0.1425781,-0.09521484
4000,-16.625,33.6875,244.1875,2.054688,-0.8920898,0.06738281,-0.2485352,0.15625,-0.09667969
4004,-21.375,33.625,274.5625,2.03125,-0.8144531,0.02490234,-0.2329102,0.1748047,-0.09912109
4008,-18.375,29.1875,295,1.918945,-0.7524414,0.02099609,-0.2138672,0.1948242,-0.09912109
4012,-1.125,34.25,304.25,1.872559,-0.7563477,0.01708984,-0.1982422,0.2084961,-0.09912109
4016,25.875,45.375,306.4375,1.736816,-0.6787109,0.001953125,-0.1733398,0.2250977,-0.1035156
4020,49.0625,61,300.3125,1.663574,-0.5,0.02490234,-0.1459961,0.2387695,-0.1098633
4024,56.625,68,303.375,1.411621,-0.2822266,0.01367188,-0.128418,0.2426758,-0.1157227
4028,40,54.5625,301.75,1.186523,-0.01416016,0.02490234,-0.1010742,0.2539063,-0.1235352
4032,16.625,39.625,298.1875,1.171387,-0.06835938,0.08642578,-0.07128906,0.2612305,-0.1264648
4036,11.9375,36.9375,285.4375,1.101563,-0.1616211,0.1020508,-0.05322266,0.2636719,-0.1303711
4040,15.875,36.25,278.0625,1.078125,-0.2431641,0.1020508,-0.02490234,0.2651367,-0.1347656
4044,17.375,37.125,274.625,0.9423828,-0.1420898,0.07910156,0.0009765625,0.2651367,-0.137207
4048,11.5,32.4375,270.5,0.8881836,-0.1655273,0.07519531,0.01904297,0.2636719,-0.137207
4052,12.5625,33.875,257.5625,0.9077148,-0.1889648,0.1132813,0.04394531,0.2587891,-0.1401367
4056,22.5,41.375,256.6875,0.7373047,-0.2509766,0.08642578,0.06884766,0.2539063,-0.1425781
4060,34,43.5625,248.25,0.6289063,-0.2124023,0.06738281,0.08691406,0.2485352,-0.1425781
4064,56.5,59.3125,229.1875,0.5239258,-0.1811523,0.04785156,0.1069336,0.2387695,-0.1469727
4068,76.625,76.0625,205.5,0.3149414,-0.006347656,0.05566406,0.128418,0.2275391,-0.1494141
4072,69,74.5,185.875,-0.02197266,0.2265625,0.06738281,0.1450195,0.21875,-0.1547852
4076,34,56.25,182.125,-0.4326172,0.5292969,0.1210938,0.1591797,0.2075195,-0.1547852
4080,-4.6875,28.375,155.375,-0.6376953,0.5488281,0.2172852,0.1757813,0.1972656,-0.1547852
4084,-21.3125,14.9375,120,-0.8085938,0.4165039,0.1943359,0.1821289,0.1914063,-0.1523438
4088,-8.6875,20.6875,80.25,-0.8393555,0.2924805,0.1713867,0.1914063,0.1860352,-0.1523438
4092,18.75,37,30.875,-0.9829102,0.2265625,0.140625,0.1962891,0.1826172,-0.1508789
4096,44.9375,47.5625,-18.8125,-1.125977,0.3349609,0.1289063,0.1987305,0.1801758,-0.1494141
4100,36,44.75,-49.3125,-1.145508,0.6069336,0.1787109,0.1972656,0.1801758,-0.1494141
4104,-4.4375,17.0625,-70.1875,-1.32373,0.5332031,0.1787109,0.1962891,0.1835938,-0.1494141
4108,-33.9375,-13.5625,-103.625,-1.063965,0.3349609,0.1748047,0.1914063,0.1850586,-0.1469727
4112,-52.75,-26.625,-132.3125,-0.7504883,0.06689453,0.1904297,0.184082,0.1938477,-0.1455078
4117,-59.1875,-31.5,-144.375,-0.4829102,-0.2509766,0.1713867,0.1723633,0.2036133,-0.1425781
4121,-44.875,-23.625,-149.8125,-0.3203125,-0.4648438,0.1171875,0.1616211,0.2124023,-0.1401367
4125,-16.4375,-9.0625,-159.0625,-0.2734375,-0.4765625,0.03662109,0.1499023,0.2211914,-0.1357422
4129,5.3125,-4,-179.25,-0.2851563,-0.1772461,0.07128906,0.1367188,0.2285156,-0.1357422
4133,-6.5625,-14.625,-195.875,-0.2270508,-0.04882813,0.06347656,0.125,0.2373047,-0.1357422
4137,-22.9375,-28.625,-208.1875,-0.1186523,-0.06054688,0.05566406,0.1079102,0.2451172,-0.1347656
4141,-26.125,-33.75,-222.875,0.03564453,-0.1499023,0.009765625,0.08789063,0.2524414,-0.1333008
4145,-14.125,-34.5,-234.25,0.1367188,-0.2202148,-0.02050781,0.07226563,0.2548828,-0.1333008
4149,6.8125,-34.25,-243,0.2529297,-0.2314453,-0.05517578,0.04882813,0.2636719,-0.1303711
4153,24.5,-28.4375,-266.25,0.3769531,-0.006347656,-0.001464844,0.02490234,0.2661133,-0.1333008
4157,7.1875,-51.375,-286,0.3535156,0.2070313,0.01367188,0.008300781,0.2661133,-0.1333008
4161,-35.3125,-85.6875,-289.5625,0.7099609,0.2416992,0.02880859,-0.02001953,0.2675781,-0.1303711
4165,-63.6875,-104.25,-296.9375,1.151855,-0.2202148,0.02490234,-0.05078125,0.2685547,-0.1235352
4169,-45.375,-93.1875,-280.0625,1.566406,-0.7016602,0.06738281,-0.07128906,0.2651367,-0.1181641
4173,-6.6875,-58.5,-256.5,1.663574,-0.8920898,0.04785156,-0.09716797,0.2597656,-0.1113281
4177,40.25,-30.625,-238.125,1.492676,-0.7910156,0.005859375,-0.1210938,0.25,-0.1098633
4181,68,-24.125,-235.0625,1.182617,-0.4453125,-0.04394531,-0.1367188,0.2426758,-0.1113281
4185,60.25,-55,-231.8125,0.9423828,-0.08007813,-0.07470703,-0.1567383,0.2314453,-0.1157227
4189,23.8125,-99.75,-232.5625,1.117188,0.140625,-0.03613281,-0.1757813,0.2172852,-0.1157227
4193,-24.8125,-131,-234.9375,1.578125,0.07861328,0.05566406,-0.1923828,0.2099609,-0.1113281
4197,-41.6875,-118.9375,-230,2.089844,-0.4375,0.144043,-0.2114258,0.1948242,-0.09521484
4201,-4.5625,-66.375,-227.1875,2.26416,-0.7949219,0.1982422,-0.2270508,0.1811523,-0.09082031
4205,54.1875,-4.0625,-235,2.093262,-0.6899414,0.1674805,-0.2402344,0.1713867,-0.08837891
4209,73.0625,18.8125,-242.9375,1.655762,-0.2548828,0.05957031,-0.253418,0.1513672,-0.09082031
4213,34.75,-15.4375,-233.8125,1.399902,0.04736328,-0.009277344,-0.2661133,0.1274414,-0.09521484
4217,-17,-55.9375,-214.875,1.694336,-0.2392578,0.005859375,-0.2724609,0.1176758,-0.09228516
4221,-24.6875,-58.1875,-190.625,2.066406,-0.8027344,0.09814453,-0.2827148,0.09619141,-0.08544922
4225,8.375,-30.1875,-153.875,2.225098,-1.117676,0.2675781,-0.293457,0.08398438,-0.08154297
4229,38.1875,2.9375,-109.6875,2.0625,-1.02832,0.3828125,-0.2949219,0.07275391,-0.08300781
4233,43.9375,17.875,-81.0625,1.72168,-0.8574219,0.3671875,-0.2983398,0.0625,-0.08691406
4237,31.1875,12.875,-57.9375,1.539551,-0.8144531,0.3520508,-0.2998047,0.05517578,-0.08984375
4241,18.3125,0.125,-24.5,1.512207,-0.9506836,0.409668,-0.3007813,0.05273438,-0.08984375
4246,12.5625,-3.1875,8.9375,1.663574,-0.9467773,0.5214844,-0.3007813,0.04980469,-0.08984375
4250,1.125,3.1875,40.8125,1.72168,-0.8378906,0.5595703,-0.3007813,0.05126953,-0.09082031
4254,-17.4375,14.4375,67.6875,1.717773,-0.7407227,0.4443359,-0.2998047,0.05517578,-0.08984375
4258,-30.25,21,85.75,1.682617,-0.7641602,0.3134766,-0.2998047,0.0625,-0.09228516
4262,-33.375,25.25,108.0625,1.678711,-0.8881836,0.1904297,-0.2958984,0.07275391,-0.09375
4266,-20.25,28,135.9375,1.72168,-0.9619141,0.1289063,-0.293457,0.08105469,-0.09228516
4270,-1.75,39.375,160.6875,1.837891,-0.9077148,0.1479492,-0.2866211,0.09228516,-0.09521484
4274,7.3125,52.375,178.125,1.833984,-0.6748047,0.1557617,-0.2768555,0.1074219,-0.09912109
4278,2.125,58.6875,195.5,1.775879,-0.5698242,0.140625,-0.2700195,0.1176758,-0.1020508
4282,-2,60.4375,212.75,1.72168,-0.5229492,0.140625,-0.2592773,0.1362305,-0.1074219
4286,-1.125,57.25,229.9375,1.589844,-0.4882813,0.1328125,-0.2460938,0.1523438,-0.112793
4290,-7,49.4375,241.5625,1.535645,-0.3520508,0.1328125,-0.234375,0.1635742,-0.1157227
4294,-12.875,42.9375,247,1.523926,-0.3095703,0.1748047,-0.21875,0.1801758,-0.1181641
4298,-15.5625,42.9375,244.6875,1.543457,-0.3793945,0.1865234,-0.2006836,0.1962891,-0.1210938
4302,-15.8125,43.6875,246.125,1.504395,-0.3637695,0.1787109,-0.1889648,0.2075195,-0.1225586
4306,-13,44.9375,257.3125,1.426758,-0.4296875,0.144043,-0.168457,0.2226563,-0.125
4310,-2.9375,44.75,261.0625,1.345703,-0.4140625,0.1020508,-0.1450195,0.2324219,-0.1264648
4314,4.875,49.4375,258.9375,1.326172,-0.324707,0.105957,-0.1293945,0.2397461,-0.125
4318,5.3125,49.75,254.75,1.19043,-0.1733398,0.1132813,-0.1054688,0.2485352,-0.1318359
4322,-12.0625,42.0625,249.4375,1.113281,-0.1694336,0.1098633,-0.08203125,0.2563477,-0.1333008
4326,-14.25,34.5625,250.8125,1.031738,-0.3637695,0.06347656,-0.06494141,0.2612305,-0.1333008
4330,-6.0625,27.5625,249.25,1.089844,-0.4570313,0.05566406,-0.04394531,0.2651367,-0.1333008
4334,13.3125,38.25,260.1875,1.113281,-0.503418,0.05566406,-0.01757813,0.2651367,-0.1357422
4338,30.875,53.625,255.125,0.9970703,-0.4067383,0.01367188,0,0.2651367,-0.1386719
4342,39.125,58.5625,247.6875,0.7680664,-0.2705078,-0.009277344,0.02490234,0.2612305,-0.1416016
4346,48,69.75,239.9375,0.6982422,-0.2392578,0.01708984,0.04736328,0.2573242,-0.1455078
4350,61.5,83.375,224.3125,0.4467773,-0.2045898,-0.04003906,0.06396484,0.2509766,-0.1484375
4354,71.75,84.125,216.1875,0.2255859,-0.1308594,-0.0859375,0.08789063,0.2436523,-0.1538086
4358,78,83.4375,199.5,0.1367188,-0.02978516,-0.03222656,0.1079102,0.2338867,-0.1577148
4362,72.4375,86,182.875,-0.1499023,0.1445313,-0.02441406,0.1235352,0.2250977,-0.1616211
4366,47.625,66.4375,167.9375,-0.3862305,0.253418,0.01367188,0.1416016,0.2138672,-0.1616211
4370,27.6875,47.125,148.5,-0.6303711,0.1992188,0.005859375,0.1557617,0.2050781,-0.1645508
4375,11,32.25,121.9375,-0.6728516,0.1757813,0.08642578,0.1650391,0.2001953,-0.1616211
4379,3.5625,20.75,86.6875,-0.765625,0.1875,0.1518555,0.1738281,0.1914063,-0.1630859
4383,-1.4375,17.1875,58.0625,-0.8007813,0.09423828,0.1826172,0.1796875,0.1875,-0.1616211
4387,0.75,11.6875,32.4375,-0.8588867,0.04003906,0.2172852,0.1821289,0.1860352,-0.1616211
4391,3.375,9.75,6.6875,-0.8588867,0.04394531,0.2597656,0.1865234,0.1826172,-0.1630859
4395,0.75,8.625,-21.0625,-0.8818359,0.06689453,0.3017578,0.1865234,0.1850586,-0.1616211
4399,-5.25,3.8125,-44.75,-0.9091797,0.02441406,0.2788086,0.184082,0.1860352,-0.1616211
4403,-12.125,-7.0625,-72.125,-0.8818359,0.004882813,0.2675781,0.1806641,0.1899414,-0.1606445
4407,-22.625,-18.3125,-98.5625,-0.715332,-0.07617188,0.2905273,0.1738281,0.1948242,-0.1591797
4411,-36.5625,-32.8125,-120.25,-0.5605469,-0.2124023,0.3095703,0.1689453,0.2001953,-0.15625
4415,-47.1875,-40.25,-128.6875,-0.3320313,-0.421875,0.2749023,0.1591797,0.2075195,-0.1577148
4419,-39.9375,-33.1875,-131.5625,-0.1381836,-0.6123047,0.2480469,0.1450195,0.2163086,-0.1547852
4423,-15.625,-14.25,-138,-0.09521484,-0.8027344,0.2519531,0.1376953,0.2211914,-0.1523438
4427,18.5625,2.125,-150.3125,-0.1420898,-0.6708984,0.1518555,0.1235352,0.2299805,-0.1523438
4431,44.75,9.375,-160.8125,-0.2192383,-0.4648438,0.1289063,0.1118164,0.2324219,-0.1547852
4435,50.5,-0.3125,-176.125,-0.296875,-0.2666016,0.1098633,0.1035156,0.2373047,-0.15625
4439,43,-19.8125,-184.1875,-0.2387695,-0.1694336,0.1020508,0.08691406,0.2397461,-0.1616211
4443,35.3125,-39.4375,-191.9375,-0.1342773,-0.1499023,0.09423828,0.06982422,0.2436523,-0.1630859
4447,31.0625,-51.75,-204.6875,0.05908203,-0.1230469,0.1289063,0.05712891,0.2460938,-0.1645508
4451,28.0625,-55.75,-228.0625,0.2685547,-0.1152344,0.1787109,0.03808594,0.2475586,-0.1674805
4455,25.75,-57.4375,-245.1875,0.4580078,-0.2241211,0.1865234,0.01269531,0.2485352,-0.1713867
4459,21.5,-65.875,-247.3125,0.6210938,-0.2939453,0.1904297,-0.001953125,0.2485352,-0.1713867
4463,11.25,-77,-234.5625,0.7602539,-0.3520508,0.2133789,-0.02832031,0.25,-0.1738281
4467,9.25,-79.9375,-227.0625,0.9697266,-0.4375,0.2094727,-0.05078125,0.2451172,-0.1728516
4471,29,-61.1875,-230.6875,1.023926,-0.550293,0.1635742,-0.06494141,0.2426758,-0.1699219
4475,41.75,-66.5,-236.0625,0.7915039,-0.2861328,0.1171875,-0.08886719,0.2363281,-0.1713867
4479,10.375,-103.125,-225.875,0.9194336,-0.04150391,0.1367188,-0.109375,0.2285156,-0.1713867
4483,-29.8125,-138.6875,-206.9375,1.151855,-0.1889648,0.1328125,-0.1269531,0.2250977,-0.1674805
4487,-38.5625,-141.3125,-189.4375,1.554688,-0.4765625,0.2094727,-0.1484375,0.2163086,-0.1577148
4491,-0.4375,-93.8125,-194.3125,1.814453,-0.6708984,0.2866211,-0.1674805,0.2099609,-0.1484375
4495,62.75,-21.25,-221.3125,1.740723,-0.6474609,0.2788086,-0.1806641,0.2001953,-0.1455078
4499,106.375,10.0625,-235.4375,1.194336,-0.3208008,0.1674805,-0.1972656,0.1835938,-0.1508789
4504,90.5625,-24.25,-226.75,0.7954102,0.2226563,0.08251953,-0.2104492,0.1660156,-0.1577148
4508,40.125,-83.5625,-209.875,0.9077148,0.4013672,0.09423828,-0.2211914,0.1513672,-0.15625
4512,8.5,-115.0625,-207.5,1.333984,0.1875,0.1826172,-0.2353516,0.1376953,-0.1523438
4516,7.9375,-97.5,-230.4375,1.954102,0.07470703,0.3828125,-0.2509766,0.1210938,-0.1425781
4520,18.3125,-56.5625,-243.5625,2.132324,-0.06054688,0.5175781,-0.2602539,0.1098633,-0.1401367
4524,12.5,-33.5625,-218.5625,2.03125,-0.06835938,0.5405273,-0.2734375,0.08740234,-0.1357422
4528,-7.8125,-30,-189.125,1.833984,-0.1381836,0.4326172,-0.2817383,0.06982422,-0.1333008
4532,-36.3125,-42.25,-164,1.717773,-0.2744141,0.3291016,-0.2866211,0.0625,-0.1318359
4536,-49.5,-53.875,-132.3125,1.73291,-0.6748047,0.3330078,-0.293457,0.04736328,-0.125
4540,-38.4375,-53.1875,-91.375,1.818359,-1.000977,0.5019531,-0.2973633,0.03759766,-0.1225586
4544,-20.625,-38.6875,-50.0625,1.868652,-1.036133,0.6176758,-0.3007813,0.03369141,-0.1157227
4548,-7.0625,-14.25,-22.3125,1.845703,-0.9350586,0.6982422,-0.2998047,0.03027344,-0.1113281
4552,-5.6875,7.625,-5.125,1.694336,-0.8417969,0.6826172,-0.3032227,0.02880859,-0.112793
4556,-14.125,17.0625,18.375,1.582031,-0.7641602,0.5522461,-0.2998047,0.02880859,-0.112793
4560,-25.75,17.375,46.5625,1.446289,-0.6977539,0.4057617,-0.2998047,0.03125,-0.1142578
4564,-33.875,14.875,65.9375,1.403809,-0.6240234,0.2905273,-0.2973633,0.03613281,-0.1166992
4568,-40.3125,10.4375,79.375,1.407715,-0.6044922,0.2094727,-0.2973633,0.04394531,-0.1157227
4572,-43.6875,7.9375,94.5,1.52002,-0.6357422,0.2133789,-0.2949219,0.05273438,-0.1166992
4576,-42.25,12.4375,116.9375,1.655762,-0.6630859,0.2368164,-0.2915039,0.0625,-0.1142578
4580,-38.5625,20.25,139.25,1.674805,-0.6318359,0.2211914,-0.2890625,0.06982422,-0.1157227
4584,-36.5625,25.625,158,1.678711,-0.6005859,0.1826172,-0.2827148,0.08496094,-0.1166992
4588,-29.75,31.875,171.6875,1.702148,-0.6357422,0.159668,-0.2744141,0.1025391,-0.1142578
4592,-18.375,34.5,186,1.674805,-0.6240234,0.1479492,-0.2700195,0.1113281,-0.1181641
4596,-19.3125,33.5,203.25,1.752441,-0.503418,0.2211914,-0.2592773,0.1274414,-0.1196289
4600,-24.8125,30.875,222.375,1.72168,-0.519043,0.2250977,-0.2495117,0.1450195,-0.1210938
4604,-24.5625,30.0625,242.6875,1.791016,-0.565918,0.2402344,-0.2387695,0.1586914,-0.1210938
4608,-14.75,35.5625,255.875,1.748535,-0.5581055,0.2133789,-0.2197266,0.1762695,-0.1196289
4612,-12.0625,39.875,264.1875,1.706055,-0.4609375,0.2060547,-0.203125,0.1923828,-0.1264648
4616,-8.6875,38.5625,277.1875,1.620605,-0.5112305,0.1982422,-0.1899414,0.2036133,-0.1279297
4620,-2.125,39.75,282.6875,1.628418,-0.4414063,0.1904297,-0.1674805,0.21875,-0.1303711
4624,0.25,41.5625,287.6875,1.543457,-0.402832,0.1635742,-0.1425781,0.2324219,-0.1318359
4628,-0.9375,35.0625,302.375,1.438477,-0.4101563,0.1479492,-0.1259766,0.2412109,-0.1347656
4633,-0.8125,30.875,304.8125,1.372559,-0.3017578,0.1713867,-0.09863281,0.25,-0.1357422
4637,-6,30.0625,298.8125,1.395996,-0.3325195,0.1518555,-0.07226563,0.2573242,-0.137207
4641,8.75,41.625,300.875,1.46582,-0.484375,0.1748047,-0.04980469,0.2587891,-0.1386719
4645,37.5625,72.6875,296.9375,1.364746,-0.4179688,0.1210938,-0.02099609,0.262207,-0.1416016
4649,56.6875,88.4375,297.9375,1.085938,-0.2392578,0.05566406,0.005859375,0.2597656,-0.1469727
4653,56.5,84.125,305.1875,0.8071289,-0.06835938,-0.009277344,0.02832031,0.2587891,-0.1508789
4657,57.5625,78.875,308,0.6713867,-0.02197266,-0.03222656,0.05957031,0.25,-0.1577148
4661,62.25,78.4375,296.3125,0.5317383,0.121582,-0.01660156,0.09033203,0.2373047,-0.1606445
4665,71,87.875,280.875,0.3652344,0.1445313,-0.04003906,0.109375,0.2299805,-0.1645508
4669,88.375,92.8125,263.4375,0.109375,0.1914063,-0.1015625,0.1342773,0.2163086,-0.1674805
4673,98.375,98.1875,237.25,-0.1303711,0.5449219,-0.1054688,0.1591797,0.1987305,-0.1699219
4677,93,91.3125,198.8125,-0.6264648,0.6381836,-0.1245117,0.1713867,0.1875,-0.1738281
4681,70.375,69.25,161.1875,-0.9013672,0.8364258,-0.08984375,0.1889648,0.1713867,-0.175293
4685,38.625,41.6875,120.3125,-1.118652,0.9492188,-0.05908203,0.2021484,0.1586914,-0.1767578
4689,1.125,7.5,77.8125,-1.319824,0.9760742,-0.04003906,0.2070313,0.1538086,-0.1738281
4693,-28.25,-24.25,33.0625,-1.227051,0.7739258,0.03271484,0.2094727,0.1489258,-0.175293
4697,-37,-35.4375,-12.625,-1.013672,0.4633789,0.1098633,0.2104492,0.1489258,-0.1738281
4701,-29.4375,-29.9375,-53.9375,-0.8510742,0.269043,0.1787109,0.2094727,0.1538086,-0.1738281
4705,-26,-25.375,-93.1875,-0.7617188,0.1875,0.2636719,0.2021484,0.15625,-0.175293
4709,-36.125,-32.125,-121.75,-0.730957,0.07861328,0.2827148,0.1948242,0.1650391,-0.1738281
4713,-51,-42.875,-142.875,-0.5371094,-0.09179688,0.2983398,0.1889648,0.1723633,-0.1738281
4717,-59.125,-44.3125,-150.4375,-0.3510742,-0.2202148,0.2905273,0.1772461,0.1850586,-0.1713867
4721,-54.875,-40.125,-160.3125,-0.296875,-0.3325195,0.2329102,0.1640625,0.1962891,-0.1699219
4725,-36.1875,-32.3125,-182.0625,-0.2890625,-0.3095703,0.1748047,0.1533203,0.2036133,-0.168457
4729,-26.4375,-34.5625,-208.875,-0.2504883,-0.1538086,0.1557617,0.1367188,0.2163086,-0.1660156
4733,-28,-39,-226.6875,-0.1264648,-0.1191406,0.1328125,0.1176758,0.2260742,-0.1630859
4737,-25.875,-47.5625,-235.625,0.0009765625,-0.2202148,0.09814453,0.105957,0.2324219,-0.1630859
4741,-17.8125,-54.375,-234.625,0.1289063,-0.3095703,0.08642578,0.08203125,0.2412109,-0.1616211
4745,-7.8125,-60.3125,-235.3125,0.2915039,-0.2900391,0.1020508,0.05810547,0.2460938,-0.1606445
4749,3.25,-59.0625,-247.75,0.4272461,-0.2509766,0.1210938,0.04248047,0.25,-0.1606445
4753,3.375,-57.75,-260.6875,0.6362305,-0.2241211,0.1518555,0.01757813,0.2524414,-0.1630859
4757,-1.375,-61.125,-260.3125,0.7373047,-0.2822266,0.1328125,-0.0078125,0.2548828,-0.1591797
4762,0.6875,-68.75,-248.625,0.8535156,-0.453125,0.09423828,-0.02490234,0.2563477,-0.1577148
4766,12.6875,-72.625,-232.4375,0.9619141,-0.4804688,0.07128906,-0.04833984,0.2524414,-0.1577148
4770,16.1875,-75.625,-239.25,1.105469,-0.1928711,0.1748047,-0.07128906,0.2460938,-0.1547852
4774,-10.75,-85.375,-260.75,1.039551,0.105957,0.1479492,-0.08886719,0.2451172,-0.1547852
4778,-56.875,-105.375,-267.25,1.29541,0.02441406,0.140625,-0.1137695,0.2363281,-0.1508789
4782,-66.75,-103.8125,-260.8125,1.543457,-0.4335938,0.125,-0.1401367,0.2299805,-0.1386719
4786,-27.1875,-76.375,-248.0625,1.736816,-0.8496094,0.1132813,-0.1567383,0.2236328,-0.1318359
4790,35.75,-42.625,-232.9375,1.589844,-0.6821289,0.09033203,-0.1772461,0.2124023,-0.1279297
4794,68,-20.375,-250.375,1.512207,-0.1308594,0.1289063,-0.1972656,0.1987305,-0.1303711
4798,29.25,-36.125,-287.5625,1.237305,0.4750977,0.06738281,-0.2080078,0.1850586,-0.1318359
4802,-39.6875,-86.4375,-280.25,1.644043,0.08642578,0.07128906,-0.2270508,0.1660156,-0.1264648
4806,-54.125,-83.375,-252.625,2.140137,-0.4921875,0.1518555,-0.2485352,0.1459961,-0.1181641
4810,-10.25,-41.5625,-235.25,2.337402,-0.9775391,0.1557617,-0.2592773,0.1347656,-0.1113281
4814,53.1875,1.5,-217.0625,2.10498,-1.016602,0.1328125,-0.2700195,0.1162109,-0.1098633
4818,70.9375,6,-193.1875,1.802734,-0.7524414,0.1557617,-0.2783203,0.09228516,-0.112793
4822,44,-21.75,-152.125,1.651855,-0.7407227,0.2441406,-0.2827148,0.08251953,-0.1142578
4826,14.625,-51.375,-104.3125,1.826172,-0.9892578,0.4790039,-0.2900391,0.07128906,-0.1142578
4830,1.625,-47.625,-45.5,2.147949,-1.288574,0.7827148,-0.293457,0.06103516,-0.1074219
4834,10,-18.3125,3.25,2.120605,-1.412598,0.890625,-0.293457,0.06005859,-0.105957
4838,24.5625,10.5,34,1.903809,-1.280762,0.8369141,-0.2949219,0.0625,-0.105957
4842,20.875,27.375,57.375,1.736816,-1.004883,0.7211914,-0.2924805,0.06396484,-0.1074219
4846,1.125,27.9375,84.75,1.59375,-0.8300781,0.5712891,-0.2900391,0.06738281,-0.1113281
4850,-15.125,26.125,111.1875,1.616699,-0.7832031,0.4287109,-0.2851563,0.07861328,-0.1142578
4854,-23.0625,30,130.4375,1.69043,-0.7407227,0.3364258,-0.2827148,0.08740234,-0.112793
4858,-27.375,37.5,146.625,1.768066,-0.7602539,0.2827148,-0.2768555,0.09619141,-0.1142578
4862,-29,42.9375,167,1.845703,-0.7910156,0.2368164,-0.2700195,0.1098633,-0.1181641
4866,-25.3125,46,194.875,1.946289,-0.8417969,0.1826172,-0.2617188,0.1264648,-0.1196289
4870,-16.75,48.1875,228.1875,1.96582,-0.8105469,0.1635742,-0.2519531,0.1376953,-0.1225586
4874,-6.375,50.75,253.6875,1.888184,-0.6630859,0.140625,-0.237793,0.15625,-0.1264648
4878,-2.0625,51.5,263.25,1.853027,-0.5,0.159668,-0.21875,0.1738281,-0.125
4882,-4,52.4375,269.375,1.826172,-0.371582,0.2060547,-0.2080078,0.1850586,-0.1318359
4886,-24.6875,45.0625,277.4375,1.736816,-0.2978516,0.2133789,-0.1865234,0.2011719,-0.1333008
4891,-41.4375,27.375,302.3125,1.628418,-0.4570313,0.1748047,-0.1650391,0.2197266,-0.1347656
4895,-33.875,20.375,313.75,1.63623,-0.5112305,0.159668,-0.1459961,0.2285156,-0.1333008
4899,-14.0625,43.0625,300.9375,1.744629,-0.4921875,0.1826172,-0.1201172,0.2426758,-0.1333008
4903,15.625,67.625,290.625,1.48877,-0.5112305,0.1367188,-0.09375,0.2509766,-0.1357422
4907,42.6875,87.125,289.6875,1.469727,-0.4492188,0.09814453,-0.07324219,0.2548828,-0.1401367
4911,51.3125,95.125,297.75,1.117188,-0.1577148,0.07519531,-0.04394531,0.2573242,-0.1484375
4915,36.4375,82.75,307.1875,1.012207,0.02050781,0.06738281,-0.01269531,0.2587891,-0.1538086
4919,26.8125,68.5,306.6875,0.7490234,-0.01025391,0.02099609,0.006835938,0.2573242,-0.1577148
4923,31.625,61.1875,298.9375,0.7758789,-0.03369141,0.04443359,0.03662109,0.2524414,-0.1577148
4927,35,66.1875,282.625,0.659668,0.01269531,0.04443359,0.06640625,0.2451172,-0.1616211
4931,41.6875,67.0625,270.125,0.4619141,0.02441406,0.01367188,0.08300781,0.2397461,-0.1630859
4935,47.1875,64.75,259.1875,0.3305664,0.03613281,0.005859375,0.109375,0.2275391,-0.1645508
4939,57.3125,67.9375,247.625,0.1635742,0.1137695,-0.001464844,0.1333008,0.2163086,-0.1674805
4943,66.375,71.625,228.8125,-0.02197266,0.1992188,-0.01318359,0.1484375,0.2036133,-0.1699219
4947,67.375,71.625,203.5625,-0.4091797,0.3779297,-0.07080078,0.1674805,0.1914063,-0.1738281
4951,56.875,53.75,176.4375,-0.7851563,0.4790039,-0.109375,0.184082,0.1762695,-0.175293
4955,36.375,28.0625,152.5,-0.9985352,0.7001953,-0.05126953,0.1938477,0.1674805,-0.1738281
4959,10.375,5.25,117.3125,-1.118652,0.7705078,0.02880859,0.203125,0.1577148,-0.1738281
4963,-4.125,-10.125,68.875,-1.161133,0.7353516,0.1098633,0.2104492,0.1489258,-0.175293
4967,-12.375,-12.1875,11,-1.07959,0.7197266,0.2250977,0.2119141,0.1459961,-0.1767578
4971,-22.1875,-8.75,-41.875,-1.021484,0.5839844,0.2749023,0.2104492,0.1474609,-0.1767578
4975,-32.75,-13.125,-84,-0.9365234,0.4243164,0.2905273,0.2045898,0.1547852,-0.175293
4979,-50.125,-20.125,-115.0625,-0.8125,0.2768555,0.3017578,0.2021484,0.1601563,-0.1738281
4983,-66.5625,-31.6875,-140.125,-0.6494141,0.03613281,0.2675781,0.1938477,0.1713867,-0.1713867
4987,-71.9375,-36.8125,-152.1875,-0.4594727,-0.2124023,0.2290039,0.1821289,0.1835938,-0.1660156
4991,-59.125,-32.4375,-158.375,-0.3125,-0.3520508,0.1865234,0.1738281,0.1914063,-0.1660156
4995,-34.75,-20,-171.6875,-0.2387695,-0.2900391,0.1518555,0.1606445,0.2036133,-0.1660156
4999,-11.125,-6.125,-199.875,-0.230957,-0.1381836,0.1210938,0.1450195,0.2138672,-0.1616211
5003,1.8125,-5.25,-229.125,-0.2661133,-0.01806641,0.08642578,0.1318359,0.2197266,-0.1630859
5007,0.4375,-22.4375,-247.5625,-0.2270508,0.09423828,0.05175781,0.1142578,0.2285156,-0.1591797
5011,-9.125,-45.3125,-257.625,-0.06054688,0.1137695,0.04443359,0.09033203,0.2363281,-0.1606445
5015,-22.375,-71.6875,-267.0625,0.1713867,0.08251953,0.05957031,0.07470703,0.2436523,-0.1591797
5020,-37,-89.875,-269.75,0.4970703,-0.04541016,0.09033203,0.04736328,0.2509766,-0.1577148
5024,-35.875,-88.3125,-269.125,0.8378906,-0.2392578,0.09033203,0.01904297,0.2573242,-0.1538086
5028,-11.5,-63.125,-280.5625,0.9814453,-0.2900391,0.1020508,0.0009765625,0.2573242,-0.1538086
5032,4.1875,-45.125,-301.1875,0.8574219,-0.1074219,0.04443359,-0.02685547,0.2573242,-0.1508789
5036,-16.9375,-69.1875,-308.625,0.7993164,0.1992188,0.009765625,-0.05664063,0.2548828,-0.1494141
5040,-59.75,-104.875,-305.6875,1.132324,0.1333008,-0.02441406,-0.07568359,0.2524414,-0.1455078
5044,-69.6875,-114.6875,-301.25,1.450195,-0.1928711,-0.02050781,-0.1069336,0.2475586,-0.1347656
5048,-51.375,-98,-297.6875,1.744629,-0.3095703,0.05957031,-0.1352539,0.2387695,-0.125
5052,-47.5,-74.8125,-304.75,1.915039,-0.2084961,0.08642578,-0.1567383,0.2299805,-0.1166992
5056,-31.375,-50.4375,-300.75,1.938477,-0.4960938,0.04443359,-0.1806641,0.2172852,-0.1113281
5060,13.5625,-22.3125,-291.875,1.903809,-0.6044922,0.08251953,-0.2045898,0.2001953,-0.105957
5064,58.6875,2.5,-287.125,1.783691,-0.402832,0.01367188,-0.2163086,0.1875,-0.1044922
5068,78.5625,5.6875,-287.6875,1.539551,0.06689453,-0.04003906,-0.2363281,0.1660156,-0.1098633
5072,32.5625,-36.5,-297.9375,1.539551,0.5332031,0.001953125,-0.253418,0.1411133,-0.112793
5076,-32.875,-78.125,-279.25,1.996582,0.1484375,0.1020508,-0.2636719,0.1235352,-0.1074219
5080,-58.0625,-84.4375,-242.75,2.465332,-0.4765625,0.2250977,-0.2768555,0.1025391,-0.1020508
5084,-45.625,-54.3125,-190.375,2.60498,-0.9194336,0.2519531,-0.2900391,0.08398438,-0.09082031
5088,-16.875,-19.1875,-154.6875,2.356934,-1.020508,0.1557617,-0.293457,0.07373047,-0.08837891
5092,10.375,-3.75,-127.1875,1.969238,-1.144531,0.07128906,-0.2983398,0.06005859,-0.08691406
5096,30.125,-4.75,-92.5625,1.814453,-1.167969,0.159668,-0.3041992,0.04882813,-0.08691406
5100,35.125,-10.5,-50.875,1.760254,-1.160156,0.375,-0.3056641,0.04394531,-0.08691406
5104,33.5625,-11.25,-9.8125,1.756348,-1.105957,0.5595703,-0.3066406,0.03857422,-0.08837891
5108,22.125,-4.9375,21.375,1.779785,-0.9116211,0.675293,-0.3056641,0.03857422,-0.08691406
5112,1,9.125,44.5625,1.744629,-0.8222656,0.6289063,-0.3056641,0.04003906,-0.08837891
5116,-19.5,13.9375,68.375,1.574219,-0.8144531,0.4326172,-0.3041992,0.04638672,-0.09082031
5120,-25.4375,12.8125,92.8125,1.546875,-0.8457031,0.2480469,-0.3017578,0.05371094,-0.09082031
5124,-18.9375,15.3125,112.3125,1.550781,-0.8339844,0.1328125,-0.2998047,0.06005859,-0.08544922
5128,-4.5625,20.25,127.25,1.605469,-0.8183594,0.07910156,-0.2949219,0.07275391,-0.09082031
5132,11.875,30.0625,143.6875,1.694336,-0.7563477,0.07910156,-0.2890625,0.08398438,-0.09082031
5136,22.6875,40.625,158.5,1.73291,-0.6279297,0.1171875,-0.2841797,0.09130859,-0.09375
5140,17,48.5625,175.8125,1.725586,-0.4296875,0.1171875,-0.2768555,0.1064453,-0.09912109
5144,2.125,43.375,194.625,1.663574,-0.4067383,0.1098633,-0.2661133,0.1210938,-0.1044922
5149,-4.75,36.375,210.5,1.709961,-0.4648438,0.105957,-0.2602539,0.1313477,-0.105957
5153,-3.6875,36.5,227.625,1.810547,-0.5229492,0.1020508,-0.2485352,0.1499023,-0.1098633
5157,7.625,38,248.1875,1.725586,-0.5541992,0.07128906,-0.2329102,0.1674805,-0.1113281
5161,20.25,43.0625,258.5,1.740723,-0.4570313,0.08642578,-0.2197266,0.1772461,-0.1166992
5165,26.0625,54.5625,259.3125,1.663574,-0.2939453,0.125,-0.203125,0.1948242,-0.1210938
5169,24.125,60.1875,255.9375,1.504395,-0.2509766,0.1289063,-0.1816406,0.2114258,-0.1264648
5173,15.8125,51.25,262.625,1.361328,-0.2861328,0.1289063,-0.1674805,0.21875,-0.1289063
5177,14.5625,40.625,273.9375,1.333984,-0.371582,0.1328125,-0.1450195,0.2299805,-0.1347656
5181,20.375,45,276.5,1.380371,-0.3911133,0.1674805,-0.1210938,0.2387695,-0.1386719
5185,36.5,56.5625,273.75,1.233398,-0.3754883,0.1289063,-0.1030273,0.2451172,-0.144043
5189,45.9375,66.9375,261.5,1.186523,-0.2822266,0.140625,-0.07714844,0.2509766,-0.1494141
5193,52.1875,76.1875,250.1875,1.027832,-0.2431641,0.1210938,-0.05224609,0.2509766,-0.1547852
5197,41,69.6875,245.3125,0.9501953,-0.2045898,0.144043,-0.03515625,0.2524414,-0.1606445
5201,24.5,57.3125,245.9375,0.8378906,-0.1733398,0.1557617,-0.01171875,0.2524414,-0.1630859
5205,0.5625,38.9375,251.375,0.8378906,-0.2822266,0.1865234,0.01171875,0.2509766,-0.1645508
5209,-1.3125,31,259.75,0.8803711,-0.519043,0.1787109,0.03076172,0.2475586,-0.1645508
5213,27.75,50.5625,261.375,0.9194336,-0.6669922,0.1557617,0.05224609,0.2436523,-0.1699219
5217,61.6875,78.25,246.75,0.7680664,-0.421875,0.1367188,0.07861328,0.2348633,-0.1713867
5221,74.0625,94.5625,242.9375,0.4619141,-0.2084961,0.05957031,0.09521484,0.2285156,-0.175293
5225,63.875,85.875,224.9375,0.2294922,0.04394531,0.125,0.1176758,0.2163086,-0.1782227
5229,35.25,70.375,216,-0.01025391,0.1020508,0.140625,0.1391602,0.2050781,-0.1806641
5233,0.9375,44.5625,206.4375,-0.1767578,0.1098633,0.1904297,0.1508789,0.1972656,-0.1782227
5237,-26,22.0625,201.6875,-0.2426758,-0.05273438,0.1982422,0.1713867,0.1850586,-0.1796875
5241,-26.8125,16.25,188.5625,-0.2773438,-0.1381836,0.1982422,0.184082,0.1748047,-0.175293
5245,-1.375,32.4375,169.625,-0.4169922,-0.1772461,0.1210938,0.1928711,0.1689453,-0.175293
5249,32.5625,46.625,138.8125,-0.5644531,0.07861328,0.1132813,0.2045898,0.1577148,-0.1728516
5253,40.375,41.375,106.375,-1.009766,0.4052734,0.1171875,0.2128906,0.1474609,-0.1713867
5257,13.5625,16.75,70,-1.261719,0.6420898,0.2094727,0.2202148,0.1401367,-0.1699219
5261,-29.5625,-13,42.4375,-1.246094,0.5878906,0.3291016,0.2260742,0.1376953,-0.1699219
5265,-45.125,-23.5625,16.75,-1.063965,0.2612305,0.3291016,0.2246094,0.1362305,-0.1699219
5269,-19.9375,-8.875,-15.375,-0.9052734,-0.01806641,0.2558594,0.2246094,0.1362305,-0.1699219
5273,19.0625,13.125,-55.8125,-0.878418,-0.01416016,0.2402344,0.222168,0.1401367,-0.1699219
5278,19.5625,12.75,-87.375,-0.8896484,0.1293945,0.2866211,0.2202148,0.1411133,-0.168457
5282,-17.625,-12.9375,-108.1875,-0.796875,0.1098633,0.355957,0.2163086,0.1489258,-0.168457
5286,-64.625,-39.8125,-112.8125,-0.5332031,-0.1772461,0.355957,0.2080078,0.1577148,-0.1713867
5290,-86.0625,-48.5625,-110.5625,-0.3085938,-0.534668,0.2827148,0.2011719,0.1689453,-0.1674805
5294,-75.625,-40.6875,-109.875,-0.1767578,-0.7524414,0.2368164,0.1914063,0.1738281,-0.1645508
5298,-59.0625,-27.9375,-115.5,-0.1572266,-0.7172852,0.2250977,0.184082,0.1860352,-0.1616211
