Packet number,Gyroscope X (deg/s),Gyroscope Y (deg/s),Gyroscope Z (deg/s),Accelerometer X (g),Accelerometer Y (g),Accelerometer Z (g),Magnetometer X (G),Magnetometer Y (G),Magnetometer Z (G)
0,-7.125,3.3125,2.0625,0.9697266,-0.3989258,0.09423828,-0.2104492,0.1577148,-0.1713867
4,-3.375,0.5625,-4.8125,1.008301,-0.402832,0.05566406,-0.2104492,0.1601563,-0.1699219
8,7,-6.125,-17.25,1.132324,-0.3520508,0.04052734,-0.2114258,0.1586914,-0.1738281
12,18.1875,-13.3125,-30.75,1.275879,-0.1850586,0.009765625,-0.2128906,0.1577148,-0.1699219
16,15.375,-7.8125,-42.4375,1.415527,-0.02978516,0.04785156,-0.215332,0.1547852,-0.1728516
20,-2.625,8.5625,-48,1.702148,0.1333008,-0.04003906,-0.2163086,0.1499023,-0.1728516
24,-25.5,24.9375,-55,1.845703,0.2573242,-0.09765625,-0.2211914,0.1459961,-0.1738281
28,-45.375,38.9375,-68.6875,1.961914,0.2456055,-0.1166992,-0.2211914,0.1459961,-0.175293
32,-51.5625,45.25,-83.875,1.973145,0.1875,-0.1630859,-0.2246094,0.1425781,-0.175293
36,-52.1875,42.5,-102.875,1.958008,0.1953125,-0.1899414,-0.2270508,0.1401367,-0.1782227
40,-50.4375,37.5625,-123.4375,1.926758,0.03613281,-0.1821289,-0.2294922,0.1347656,-0.1767578
44,-41.9375,25.8125,-136,1.868652,-0.08398438,-0.1743164,-0.234375,0.1274414,-0.1767578
48,-33.6875,10.625,-148.0625,1.868652,-0.1035156,-0.1513672,-0.2412109,0.1201172,-0.1767578
52,-33,2.1875,-158.875,1.984863,-0.1191406,-0.04736328,-0.2460938,0.1113281,-0.1738281
56,-40.75,5.0625,-172.5625,2.027832,-0.1499023,0.01708984,-0.2519531,0.1010742,-0.175293
60,-51.5625,10.1875,-183.25,2.016113,-0.2548828,0.05566406,-0.2592773,0.08984375,-0.175293
64,-60.25,13.5,-193.5,1.954102,-0.3793945,0.09423828,-0.2651367,0.08007813,-0.1728516
68,-61.5,12.9375,-202.875,1.864746,-0.4921875,0.140625,-0.2734375,0.06494141,-0.1738281
72,-59,10.625,-210.0625,1.787598,-0.7446289,0.1943359,-0.2792969,0.04980469,-0.1728516
76,-33.75,-12.9375,-207.4375,1.543457,-0.8535156,0.1479492,-0.2841797,0.04150391,-0.1713867
80,-7.375,-43.5625,-218.75,1.73291,-0.6279297,0.2172852,-0.2915039,0.02392578,-0.1699219
84,-2.75,-51.125,-228.5,1.958008,-0.4765625,0.2441406,-0.2958984,0.001464844,-0.1674805
88,-19.625,-41.0625,-226.25,2.124512,-0.4067383,0.3291016,-0.2998047,-0.01318359,-0.1630859
92,-41.75,-14.375,-222.5625,2.108887,-0.371582,0.425293,-0.3056641,-0.03564453,-0.1606445
96,-57.9375,16.75,-218.4375,1.922852,-0.453125,0.4174805,-0.3041992,-0.05566406,-0.1606445
100,-64.4375,34.3125,-211.8125,1.694336,-0.5424805,0.3637695,-0.3041992,-0.06689453,-0.1616211
104,-59.75,48.4375,-219.3125,1.508301,-0.7055664,0.2827148,-0.2983398,-0.08447266,-0.1660156
108,-53.625,54.6875,-220.5,1.217773,-0.8183594,0.1865234,-0.2958984,-0.1030273,-0.1713867
112,-43.6875,51.0625,-204.625,0.9194336,-0.8725586,0.1557617,-0.2875977,-0.1157227,-0.1767578
116,-41.75,52.6875,-190.3125,0.7719727,-0.7524414,0.1826172,-0.2827148,-0.1333008,-0.1796875
120,-46.5,59.6875,-168.9375,0.5473633,-0.7329102,0.1674805,-0.2734375,-0.1469727,-0.1875
125,-52.1875,63.9375,-151.375,0.3032227,-0.6860352,0.1098633,-0.2685547,-0.1542969,-0.1928711
129,-46.25,61.625,-139.1875,0.1328125,-0.7680664,0.07128906,-0.2602539,-0.1669922,-0.199707
133,-29.875,55.25,-133.3125,-0.09521484,-0.7524414,0.09423828,-0.2509766,-0.1757813,-0.2055664
137,-19.3125,50.6875,-121.5625,-0.3007813,-0.6938477,0.1289063,-0.2436523,-0.1791992,-0.2080078
141,-15.125,45.875,-104.625,-0.4594727,-0.6787109,0.1098633,-0.2353516,-0.1894531,-0.2133789
145,-10.6875,40.1875,-78.4375,-0.6303711,-0.6669922,0.07128906,-0.2319336,-0.1958008,-0.2177734
149,-2.375,28.4375,-48.5625,-0.7387695,-0.6630859,0.02099609,-0.2270508,-0.1992188,-0.21875
153,10.4375,9.5,-24.1875,-0.8237305,-0.5268555,0.02099609,-0.2236328,-0.203125,-0.2202148
157,20.6875,-6.75,-3.125,-0.7773438,-0.4414063,0.02490234,-0.2236328,-0.203125,-0.21875
161,26.6875,-18.1875,17.125,-0.6962891,-0.340332,0.05957031,-0.2236328,-0.203125,-0.21875
165,29.125,-21.0625,35.4375,-0.5371094,-0.2548828,0.07519531,-0.2270508,-0.2045898,-0.2148438
169,27.4375,-19.5,52,-0.4790039,-0.1811523,0.04052734,-0.2280273,-0.203125,-0.2133789
173,27.0625,-25.4375,67.9375,-0.4594727,-0.2084961,-0.02832031,-0.2294922,-0.2016602,-0.2119141
177,32.875,-43.4375,85.375,-0.4130859,-0.2202148,-0.1054688,-0.237793,-0.1982422,-0.206543
181,38.6875,-62.75,103.6875,-0.1884766,-0.1459961,-0.07861328,-0.2446289,-0.1918945,-0.2011719
185,36.1875,-67,115.5625,0.08642578,0.01269531,0.009765625,-0.2495117,-0.1879883,-0.1958008
189,24.3125,-48.6875,123.5,0.3808594,0.07861328,0.1171875,-0.2568359,-0.1791992,-0.1918945
193,1.5,-21.5625,130,0.5317383,0.1333008,0.1826172,-0.2626953,-0.1679688,-0.1850586
197,-22,4.4375,144.4375,0.5009766,-0.02197266,0.1367188,-0.2685547,-0.1606445,-0.1865234
201,-31.25,5.5,161.1875,0.3652344,-0.1381836,0.06738281,-0.2724609,-0.1469727,-0.1865234
205,-26.5625,-8.5,167.6875,0.4467773,-0.2202148,0.03271484,-0.2783203,-0.1293945,-0.1904297
209,-20.25,-22.5,164.4375,0.644043,-0.1420898,0.05566406,-0.2807617,-0.1206055,-0.1889648
213,-20.25,-15.25,151.5625,1.008301,-0.2241211,0.1132813,-0.2841797,-0.1054688,-0.1865234
217,-32.9375,-2.1875,157.375,0.9501953,-0.2470703,0.1132813,-0.2890625,-0.08837891,-0.1865234
221,-42.5,-10.5625,174,0.8652344,-0.3286133,0.09033203,-0.2890625,-0.07568359,-0.1875
225,-34.4375,-24.8125,172.75,0.9311523,-0.4648438,0.1020508,-0.2900391,-0.05810547,-0.1850586
229,-27.8125,-33.0625,169.3125,1.113281,-0.581543,0.1713867,-0.293457,-0.04199219,-0.1835938
233,-27.125,-27.875,170.375,1.260254,-0.6708984,0.1865234,-0.2924805,-0.02832031,-0.1806641
237,-24.625,-23.6875,178.1875,1.229492,-0.6787109,0.1713867,-0.2949219,-0.01171875,-0.1782227
241,-14.75,-35.9375,186.8125,1.140137,-0.7055664,0.08642578,-0.2915039,0.006347656,-0.175293
245,-3.375,-51.4375,186.6875,1.306641,-0.6552734,0.08251953,-0.2915039,0.01855469,-0.1728516
249,-3.5,-48.4375,183.9375,1.512207,-0.5424805,0.159668,-0.2890625,0.03613281,-0.1674805
254,-9.375,-35.8125,179.0625,1.651855,-0.4960938,0.2250977,-0.2841797,0.05371094,-0.1630859
258,-18.8125,-15.625,171,1.72168,-0.6787109,0.2749023,-0.2817383,0.06640625,-0.1616211
262,-21.875,-1.9375,170.6875,1.523926,-0.7407227,0.2133789,-0.2744141,0.08251953,-0.1591797
266,-20.125,-3,170.0625,1.337891,-0.8881836,0.105957,-0.2700195,0.09863281,-0.15625
270,-3.9375,-21.8125,178.125,1.318359,-0.9931641,0.07128906,-0.2636719,0.1088867,-0.15625
274,9.8125,-38.3125,179.6875,1.570313,-0.6860352,0.1132813,-0.253418,0.1235352,-0.1547852
278,2.375,-22.875,158.125,1.884277,-0.4609375,0.2441406,-0.2470703,0.1347656,-0.1523438
282,-22.125,3.4375,148.8125,1.868652,-0.503418,0.2866211,-0.2402344,0.1450195,-0.1494141
286,-39.5625,19.9375,147,1.771973,-0.7250977,0.2709961,-0.2319336,0.1577148,-0.1494141
290,-32.9375,21.3125,155.875,1.605469,-0.6005859,0.159668,-0.2197266,0.1689453,-0.1469727
294,-16.875,-9.125,142.9375,1.570313,-0.340332,0.04443359,-0.2138672,0.1762695,-0.1469727
298,9.3125,-33.125,101.9375,1.806641,-0.1269531,0.1328125,-0.2055664,0.1860352,-0.144043
302,32.75,-37.25,66.25,2.322266,0.15625,0.3017578,-0.2006836,0.1899414,-0.1416016
306,22,-5,49.375,2.477051,0.4052734,0.390625,-0.1982422,0.1923828,-0.144043
310,6.5,16.1875,43.3125,2.356934,0.5913086,0.3056641,-0.1962891,0.1938477,-0.1455078
314,11.75,8.125,17.625,2.213379,0.5839844,0.1674805,-0.1914063,0.1948242,-0.1455078
318,28.625,-12.25,-10.375,2.260254,0.5800781,0.1289063,-0.1938477,0.1962891,-0.1455078
322,35.25,-19.3125,-40.75,2.422852,0.7080078,0.144043,-0.1923828,0.1938477,-0.1469727
326,12.875,0.625,-68.1875,2.515625,0.7158203,0.2597656,-0.1982422,0.1875,-0.1484375
330,-14.0625,32.75,-81.625,2.380371,0.4052734,0.3134766,-0.2006836,0.1850586,-0.1494141
334,-24.4375,51.0625,-93.5625,2.082031,0.1679688,0.2441406,-0.2045898,0.1801758,-0.1523438
338,-20.4375,50.1875,-107.875,1.888184,-0.06054688,0.2094727,-0.2104492,0.1762695,-0.1538086
342,-11.0625,44.6875,-118.4375,1.802734,-0.1381836,0.1518555,-0.2138672,0.1723633,-0.1523438
346,-2.6875,33.9375,-130.5,1.783691,-0.1230469,0.144043,-0.2211914,0.1635742,-0.1577148
350,3.5625,28.5625,-149.375,1.864746,-0.1347656,0.1826172,-0.2270508,0.1538086,-0.1577148
354,1.25,30.8125,-161.8125,1.915039,-0.1772461,0.1787109,-0.2319336,0.1459961,-0.1606445
358,-3,34.25,-173.875,1.907715,-0.2900391,0.1787109,-0.2412109,0.1362305,-0.1645508
362,-0.1875,31.8125,-185.1875,1.771973,-0.4960938,0.09033203,-0.2495117,0.1201172,-0.168457
366,24.6875,2.875,-182.625,1.558594,-0.6787109,-0.009277344,-0.2543945,0.1098633,-0.168457
370,51.5625,-35.1875,-190.25,1.655762,-0.3754883,0.05566406,-0.2626953,0.09228516,-0.1713867
374,51.625,-45.4375,-209.4375,1.973145,-0.1850586,0.1748047,-0.2709961,0.07373047,-0.1699219
378,25.0625,-22.3125,-211.1875,2.174805,-0.2202148,0.2558594,-0.2783203,0.06103516,-0.1660156
383,-0.4375,4.5,-212.5625,1.942383,-0.4453125,0.1713867,-0.2851563,0.04150391,-0.1674805
387,-2.625,-0.75,-213.75,1.597656,-0.5893555,-0.005371094,-0.2900391,0.02001953,-0.168457
391,30.0625,-22.0625,-202.125,1.442383,-0.9194336,0.01367188,-0.293457,0.004882813,-0.1674805
395,43.875,-47.8125,-202.75,1.527832,-0.6899414,0.08642578,-0.2973633,-0.01318359,-0.168457
399,25.125,-35.125,-194.0625,1.670898,-0.4414063,0.159668,-0.3032227,-0.03808594,-0.1630859
403,-3.25,-13.3125,-182.25,1.539551,-0.4765625,0.1289063,-0.3032227,-0.04833984,-0.1616211
407,-13.1875,-0.625,-181,1.26416,-0.581543,0.03662109,-0.3041992,-0.06689453,-0.1616211
411,-13,-9.5,-183.75,1.004395,-0.534668,-0.03222656,-0.3032227,-0.08447266,-0.1606445
415,-16.5625,-11.6875,-178.5625,0.9697266,-0.421875,0.1020508,-0.2983398,-0.09570313,-0.1591797
419,-47.125,14.4375,-171.1875,0.8032227,-0.2392578,0.2441406,-0.2973633,-0.1132813,-0.1616211
423,-77.0625,44.75,-156.75,0.6362305,-0.4765625,0.2944336,-0.293457,-0.1269531,-0.1645508
427,-78.8125,71.0625,-147.5,0.4467773,-0.6669922,0.3212891,-0.2875977,-0.1333008,-0.1674805
431,-70.3125,80.5,-135.75,0.159668,-0.6279297,0.2983398,-0.2817383,-0.1430664,-0.175293
435,-66.3125,79.3125,-124.875,-0.02197266,-0.5698242,0.2519531,-0.2744141,-0.1494141,-0.1865234
439,-57.75,75.625,-111,-0.1884766,-0.6474609,0.2329102,-0.2675781,-0.1567383,-0.1918945
443,-47.5,68,-91.125,-0.3203125,-0.6123047,0.2172852,-0.2602539,-0.1630859,-0.199707
447,-36.1875,61.25,-73.125,-0.4443359,-0.6123047,0.1635742,-0.253418,-0.1679688,-0.2080078
451,-20.25,40.0625,-50.8125,-0.6728516,-0.6083984,0.07128906,-0.2495117,-0.1694336,-0.2109375
455,2.4375,9.6875,-30.75,-0.746582,-0.5893555,0.04443359,-0.2446289,-0.171875,-0.2133789
459,20.3125,-14.625,-9.8125,-0.6030273,-0.3989258,0.08251953,-0.2446289,-0.1743164,-0.2133789
463,22,-22.25,8.4375,-0.4208984,-0.2392578,0.1479492,-0.2470703,-0.1767578,-0.2109375
467,21.25,-17.1875,22.4375,-0.296875,-0.2163086,0.1674805,-0.2470703,-0.1757813,-0.2094727
471,22.3125,-14,37.3125,-0.296875,-0.2353516,0.1171875,-0.2485352,-0.1743164,-0.2080078
475,29.125,-24.4375,53.75,-0.296875,-0.2509766,0.02490234,-0.2519531,-0.1757813,-0.206543
479,40.125,-43.9375,69.625,-0.2270508,-0.1928711,-0.03222656,-0.2553711,-0.1704102,-0.2011719
483,46.5,-60.8125,85.5,-0.01806641,-0.04541016,0.01708984,-0.2617188,-0.1669922,-0.1972656
487,40.1875,-60.75,92.1875,0.2875977,0.004882813,0.1132813,-0.2651367,-0.1621094,-0.1918945
491,35.375,-49.875,104.0625,0.4272461,-0.03369141,0.159668,-0.2734375,-0.1557617,-0.1850586
495,33.8125,-42.5625,108.5625,0.4311523,-0.07226563,0.140625,-0.2768555,-0.1494141,-0.1782227
499,40.5,-44.0625,113.1875,0.4892578,-0.1035156,0.1479492,-0.2792969,-0.1420898,-0.1767578
503,42.0625,-36.5625,116.4375,0.6289063,-0.03759766,0.2133789,-0.2841797,-0.1333008,-0.1728516
507,30.625,-13.1875,119.0625,0.6870117,-0.01416016,0.2290039,-0.2900391,-0.1245117,-0.1699219
512,24.125,-10.0625,126.375,0.5087891,-0.2163086,0.09423828,-0.2915039,-0.1196289,-0.1674805
516,40.125,-26.625,128.4375,0.5668945,-0.4609375,0.03271484,-0.2958984,-0.1083984,-0.1660156
520,63.75,-38.75,126.1875,0.6362305,-0.4101563,0.04052734,-0.2983398,-0.09716797,-0.1616211
524,59.875,-37.125,136.3125,0.8842773,-0.3520508,0.09033203,-0.3007813,-0.08935547,-0.1591797
528,45.25,-13.75,146.0625,1.074219,-0.2626953,0.105957,-0.3066406,-0.08056641,-0.1523438
532,26.5,-7.125,152.4375,1.059082,-0.3950195,-0.01318359,-0.3056641,-0.06835938,-0.1538086
536,21.75,-12.625,164.125,1.070313,-0.4414063,0.02490234,-0.3066406,-0.05566406,-0.1523438
540,22.1875,-16.6875,167.9375,1.113281,-0.5463867,-0.009277344,-0.309082,-0.03955078,-0.1523438
544,25.1875,-24.4375,178.5,1.287598,-0.550293,0.02490234,-0.3081055,-0.0234375,-0.1494141
548,19.5,-15.75,180.9375,1.48877,-0.421875,0.06738281,-0.3066406,-0.01074219,-0.1508789
552,1.6875,-2.6875,181.75,1.616699,-0.484375,0.08642578,-0.3041992,0.00390625,-0.1494141
556,5.5,1.5625,184.5,1.484863,-0.7524414,0.02490234,-0.3007813,0.02246094,-0.1469727
560,21,-9.375,184.8125,1.411621,-0.8222656,0.01367188,-0.2973633,0.03515625,-0.1484375
564,38.3125,-26.125,195.875,1.523926,-0.6748047,-0.0859375,-0.2915039,0.05126953,-0.1455078
568,43.4375,-28.125,189.625,1.802734,-0.402832,-0.01660156,-0.2851563,0.06738281,-0.1455078
572,25.5625,-11.8125,181.8125,1.977051,-0.1499023,-0.001464844,-0.2817383,0.08007813,-0.144043
576,0,13.8125,167.3125,1.973145,-0.3017578,0.02490234,-0.2744141,0.09375,-0.1416016
580,-5.625,21.4375,160.3125,1.666992,-0.4453125,-0.04394531,-0.2661133,0.1074219,-0.1469727
584,3.25,0.75,159.5,1.531738,-0.5581055,-0.1245117,-0.2626953,0.1176758,-0.1469727
588,17.75,-17.9375,157.3125,1.640137,-0.4648438,-0.08203125,-0.2543945,0.1313477,-0.144043
592,31.5,-30.3125,144.25,1.768066,-0.2705078,-0.06689453,-0.2446289,0.1401367,-0.144043
596,32.0625,-26.25,128.8125,1.950195,-0.1074219,-0.02832031,-0.2387695,0.1489258,-0.1425781
600,22.3125,-18.375,115.375,1.984863,0.05517578,-0.005371094,-0.2329102,0.15625,-0.1455078
604,19.4375,-13.75,107.9375,2.008301,0.01660156,-0.07080078,-0.2270508,0.1611328,-0.1425781
608,19.3125,-15.375,97.625,2.108887,0.3041992,-0.005371094,-0.2246094,0.1674805,-0.144043
612,19.1875,-11.8125,79.625,2.15918,0.4360352,-0.0859375,-0.21875,0.1738281,-0.1425781
616,18.375,-10.0625,46.375,2.298828,0.6772461,-0.1015625,-0.215332,0.1772461,-0.144043
620,11.375,0.375,6.3125,2.426758,0.8632813,-0.1206055,-0.2114258,0.1772461,-0.144043
624,-6.625,16.625,-23.1875,2.484863,0.875,-0.1206055,-0.2114258,0.1762695,-0.1455078
628,-27.875,30.3125,-53,2.450195,0.7856445,-0.1166992,-0.2138672,0.1772461,-0.1455078
632,-41.375,46.5,-83.4375,2.372559,0.4790039,-0.06689453,-0.2163086,0.1738281,-0.1455078
636,-50,56.25,-103.5,2.155273,0.2070313,-0.07470703,-0.2197266,0.1689453,-0.1469727
641,-45.4375,53.0625,-119.625,1.996582,-0.03369141,-0.1015625,-0.2255859,0.1635742,-0.1484375
645,-32.0625,38.75,-137.125,1.880371,-0.1733398,-0.1323242,-0.2294922,0.1577148,-0.1484375
649,-20.75,21.9375,-148.8125,1.89209,-0.2626953,-0.06689453,-0.2353516,0.1489258,-0.1508789
653,-13.25,11.5,-152.375,1.938477,-0.324707,0.01367188,-0.2446289,0.1362305,-0.1494141
657,-8.1875,5.75,-161.9375,2.004395,-0.2084961,0.04052734,-0.2509766,0.1323242,-0.1494141
661,-10.6875,10.125,-182.25,2.074219,-0.1655273,0.1020508,-0.2578125,0.1162109,-0.1494141
665,-19.6875,23.25,-198.125,2.023926,-0.2392578,0.1020508,-0.2661133,0.1025391,-0.1538086
669,-31,31.875,-206.8125,1.833984,-0.3598633,0.06347656,-0.2724609,0.09130859,-0.1523438
673,-29.8125,25.625,-210.5625,1.663574,-0.5385742,-0.01660156,-0.2807617,0.07519531,-0.1547852
677,-22.625,11.875,-212.5,1.550781,-0.6630859,0.03271484,-0.2875977,0.05761719,-0.1577148
681,-15.375,-0.125,-210.625,1.473633,-0.6708984,0.08642578,-0.2900391,0.04248047,-0.1577148
685,-10.125,-5.8125,-207.125,1.484863,-0.6899414,0.1479492,-0.2958984,0.02392578,-0.15625
689,-7.3125,-3.8125,-204.25,1.442383,-0.6591797,0.1904297,-0.3017578,0.002441406,-0.15625
693,-9.5,2.0625,-202.125,1.364746,-0.6318359,0.1865234,-0.3017578,-0.008300781,-0.1577148
697,-10.5,4.3125,-195.625,1.22168,-0.6044922,0.1518555,-0.3056641,-0.02685547,-0.15625
701,-9,2.8125,-187.4375,1.147949,-0.5927734,0.140625,-0.3066406,-0.046875,-0.1577148
705,-10.3125,5.3125,-178.5,1.121094,-0.4804688,0.1479492,-0.3056641,-0.05810547,-0.1577148
709,-21.9375,15.375,-170.875,1.05127,-0.3911133,0.1635742,-0.3041992,-0.07568359,-0.1577148
713,-32.625,28.125,-162.125,0.9423828,-0.4414063,0.159668,-0.3007813,-0.09082031,-0.1591797
717,-31.75,29.9375,-147.6875,0.7216797,-0.46875,0.1098633,-0.3007813,-0.1005859,-0.1630859
721,-23.5625,21.6875,-138.375,0.6557617,-0.4067383,0.1020508,-0.2949219,-0.1142578,-0.1660156
725,-14.875,14.0625,-136,0.574707,-0.2939453,0.08642578,-0.2915039,-0.1269531,-0.1660156
729,-14.125,9.8125,-128,0.4970703,-0.2587891,0.1020508,-0.2890625,-0.1342773,-0.1674805
733,-16.0625,5.5625,-109.25,0.4541016,-0.2314453,0.09814453,-0.2841797,-0.1455078,-0.1699219
737,-23.625,7.3125,-96.375,0.4116211,-0.1538086,0.1518555,-0.2817383,-0.1533203,-0.1713867
741,-21,8.8125,-91.6875,0.2490234,-0.2314453,0.159668,-0.2783203,-0.1582031,-0.1699219
745,-16.9375,14.625,-82.3125,0.140625,-0.3017578,0.2290039,-0.2768555,-0.1655273,-0.1728516
749,-23.4375,30.0625,-67.3125,-0.02978516,-0.355957,0.3095703,-0.2709961,-0.1733398,-0.1767578
753,-17.9375,45,-58.1875,-0.2080078,-0.5229492,0.2749023,-0.2675781,-0.1743164,-0.1767578
757,-8.9375,53.5625,-43.375,-0.4711914,-0.5737305,0.1713867,-0.2651367,-0.1791992,-0.1821289
761,-1.8125,41.75,-14.5625,-0.6884766,-0.519043,0.05566406,-0.2592773,-0.1821289,-0.1865234
765,8.625,17.375,10.5,-0.7695313,-0.4882813,-0.01660156,-0.2568359,-0.1806641,-0.1904297
770,22.8125,-12.3125,30,-0.7075195,-0.4296875,-0.01318359,-0.2578125,-0.1806641,-0.1865234
774,32.8125,-31.25,44.8125,-0.5253906,-0.3637695,0.05566406,-0.2602539,-0.1791992,-0.1850586
778,36.375,-38.125,63.875,-0.328125,-0.3637695,0.07519531,-0.2636719,-0.1767578,-0.1850586
782,40.4375,-42.6875,85.25,-0.1420898,-0.3208008,0.08251953,-0.2675781,-0.1757813,-0.1796875
786,45.875,-48.25,100.75,0.03955078,-0.2587891,0.07128906,-0.2744141,-0.1655273,-0.1728516
790,48.6875,-50.1875,110.625,0.2373047,-0.1850586,0.1098633,-0.2768555,-0.1645508,-0.1674805
794,44.375,-39.125,118.5,0.4736328,-0.06835938,0.1748047,-0.2841797,-0.1557617,-0.1630859
798,29.3125,-16.75,123.5,0.6674805,-0.02978516,0.2172852,-0.2900391,-0.1445313,-0.1606445
802,17.1875,2.75,129.5,0.644043,-0.1074219,0.1289063,-0.2915039,-0.1381836,-0.1591797
806,14.25,2.125,136.125,0.6132813,-0.1655273,0.05957031,-0.2949219,-0.1269531,-0.1577148
810,14.5625,-1.375,142.125,0.7412109,-0.2084961,0.08251953,-0.2983398,-0.1132813,-0.1591797
814,9.625,9.1875,148.875,0.8959961,-0.2006836,0.1132813,-0.3007813,-0.1044922,-0.1591797
818,1.0625,16.25,155.5,0.8920898,-0.2509766,0.03662109,-0.2998047,-0.08935547,-0.1606445
822,1,5.375,162.8125,0.8222656,-0.3017578,-0.04394531,-0.3017578,-0.07324219,-0.1616211
826,5.5,-14.0625,164.875,0.8999023,-0.355957,-0.009277344,-0.3032227,-0.06298828,-0.1591797
830,12.125,-21.8125,164,1.09375,-0.4101563,0.04052734,-0.3041992,-0.046875,-0.1591797
834,2.5,-9.9375,167.1875,1.260254,-0.421875,0.1748047,-0.3056641,-0.03076172,-0.1577148
838,-14.1875,9.3125,177.75,1.26416,-0.4101563,0.1210938,-0.3032227,-0.02197266,-0.15625
842,-33.8125,11.1875,183.625,1.043457,-0.3520508,0.02490234,-0.3007813,-0.0004882813,-0.15625
846,-38.5,0.0625,175.6875,1.09375,-0.6318359,0.03271484,-0.2973633,0.01855469,-0.1577148
850,-17.0625,-22.3125,167.625,1.047363,-0.8613281,-0.128418,-0.2949219,0.03125,-0.1577148
854,6.875,-58.1875,168.3125,1.209961,-0.7832031,-0.1206055,-0.293457,0.04638672,-0.1523438
858,13.0625,-66.625,168.3125,1.512207,-0.6977539,0.03662109,-0.2890625,0.0625,-0.1455078
862,5.125,-56.75,178.0625,1.686523,-0.7407227,0.1787109,-0.2851563,0.07373047,-0.1425781
866,12,-50.75,181.5,1.725586,-0.9155273,0.1748047,-0.2807617,0.09130859,-0.1386719
870,38,-56.875,184,1.849121,-0.8686523,0.09423828,-0.2768555,0.1035156,-0.1357422
874,49.9375,-56.625,173.4375,2.054688,-0.2275391,0.09814453,-0.2685547,0.1162109,-0.1333008
878,34,-28.75,147.9375,2.194336,-0.08398438,0.1132813,-0.2602539,0.1264648,-0.1303711
882,7.9375,0.125,139.0625,2.042969,-0.1616211,0.1020508,-0.2543945,0.1411133,-0.1303711
886,-10.8125,23.1875,134.6875,1.86084,-0.371582,0.1132813,-0.2485352,0.1435547,-0.1289063
890,-15.25,30.8125,132.625,1.663574,-0.565918,0.05566406,-0.2402344,0.15625,-0.1289063
894,-2.1875,18.6875,129,1.477539,-0.6938477,0.001953125,-0.2319336,0.1635742,-0.1318359
899,29.5625,-12.3125,112.875,1.322266,-0.6162109,-0.08203125,-0.2270508,0.1699219,-0.1303711
903,63.625,-43.375,94.3125,1.430664,-0.402832,-0.128418,-0.21875,0.1772461,-0.1318359
907,84.3125,-56.625,82.9375,1.69043,0.07080078,-0.2055664,-0.2138672,0.1826172,-0.1333008
911,68.125,-55.4375,62.625,1.96582,0.6884766,-0.2939453,-0.2138672,0.1826172,-0.1347656
915,36.1875,-32.5,39.375,2.217285,0.7973633,-0.2783203,-0.2104492,0.1835938,-0.1333008
919,5.125,-4.25,24.75,2.229004,0.6655273,-0.2978516,-0.2114258,0.1835938,-0.137207
923,-7,0.875,10.3125,2.012207,0.5566406,-0.4130859,-0.2104492,0.1884766,-0.1347656
927,-1.0625,-14.1875,-14.5625,2.089844,0.4907227,-0.3012695,-0.2104492,0.1860352,-0.1347656
931,-6.25,0.75,-54.4375,2.229004,0.5058594,-0.06689453,-0.2104492,0.1835938,-0.1347656
935,-34.25,37.25,-78.625,2.120605,0.3388672,0.06347656,-0.2128906,0.1826172,-0.1333008
939,-54.8125,67.5,-87.25,1.837891,-0.02197266,-0.005371094,-0.2172852,0.1787109,-0.1347656
943,-59.1875,74.375,-85.5625,1.612793,-0.2124023,-0.1015625,-0.2211914,0.1748047,-0.1357422
947,-48.4375,62.625,-91.25,1.523926,-0.2744141,-0.1591797,-0.2197266,0.1723633,-0.1357422
951,-33.1875,47.8125,-103.625,1.578125,-0.2392578,-0.1166992,-0.2270508,0.1674805,-0.137207
955,-27.125,43.4375,-115.0625,1.709961,-0.08789063,-0.03222656,-0.2294922,0.1601563,-0.1416016
959,-35.1875,50.375,-127,1.818359,0.05517578,-0.01318359,-0.2353516,0.1538086,-0.1425781
963,-46.4375,59.5,-139.375,1.833984,-0.06054688,-0.04736328,-0.2412109,0.1474609,-0.144043
967,-46.1875,53.5,-148.9375,1.76416,-0.1733398,-0.06298828,-0.2470703,0.1362305,-0.1455078
971,-37.25,41.5,-161.8125,1.818359,-0.340332,-0.02441406,-0.2519531,0.1298828,-0.1469727
975,-30.25,34.375,-169.875,1.841797,-0.3833008,0.1020508,-0.2592773,0.1162109,-0.1494141
979,-24.6875,30.125,-173.3125,1.833984,-0.3950195,0.1635742,-0.2651367,0.1049805,-0.1494141
983,-15.1875,21.5,-181.9375,1.830078,-0.4414063,0.1635742,-0.2709961,0.09619141,-0.1523438
987,2.5,15.875,-199.75,1.884277,-0.519043,0.1787109,-0.2768555,0.08007813,-0.1538086
991,13.625,14.5625,-207.375,1.791016,-0.534668,0.159668,-0.2851563,0.06005859,-0.1577148
995,10.25,11.25,-202.0625,1.663574,-0.5073242,0.1289063,-0.2915039,0.04882813,-0.1577148
999,9,7.6875,-195.625,1.550781,-0.5073242,0.08251953,-0.2949219,0.03027344,-0.1591797
1003,6.125,0.3125,-194.6875,1.458008,-0.46875,0.04785156,-0.2998047,0.007324219,-0.1606445
1007,6.3125,-7.3125,-195.625,1.438477,-0.4960938,0.03662109,-0.3017578,-0.003417969,-0.1606445
1011,6.8125,-11.4375,-198.0625,1.395996,-0.5,0.09814453,-0.3041992,-0.02197266,-0.15625
1015,6.5625,-14.875,-193.5625,1.29541,-0.4726563,0.125,-0.3066406,-0.04199219,-0.1577148
1019,8.4375,-20.6875,-185.75,1.209961,-0.534668,0.1210938,-0.3056641,-0.05712891,-0.1547852
1023,11.9375,-26.4375,-178.0625,1.244629,-0.3056641,0.1713867,-0.3066406,-0.07421875,-0.1547852
1028,0.5,-19.875,-180.5,1.225586,-0.1772461,0.2402344,-0.3032227,-0.09326172,-0.1547852
1032,-7,-12.5,-181.625,1.004395,-0.2275391,0.2133789,-0.3007813,-0.1054688,-0.1523438
1036,-3.75,-18.875,-171.4375,0.8378906,-0.3598633,0.159668,-0.2998047,-0.1230469,-0.1523438
1040,2.5,-29.3125,-164.0625,0.8691406,-0.2548828,0.1982422,-0.2958984,-0.1367188,-0.1484375
1044,-7.9375,-16.8125,-162.125,0.9853516,-0.2548828,0.3095703,-0.293457,-0.1508789,-0.1455078
1048,-30.625,16.6875,-149.375,0.8222656,-0.2241211,0.3789063,-0.2900391,-0.1645508,-0.1469727
1052,-57.75,52.9375,-132.0625,0.5356445,-0.2900391,0.355957,-0.2817383,-0.1757813,-0.1508789
1056,-65.3125,76.1875,-116.625,0.2026367,-0.6005859,0.2866211,-0.2783203,-0.1806641,-0.15625
1060,-59.3125,89.8125,-100.3125,-0.09521484,-0.7172852,0.2290039,-0.2700195,-0.1894531,-0.1674805
1064,-46.4375,91.5625,-84.0625,-0.3901367,-0.8339844,0.1713867,-0.2617188,-0.1943359,-0.1738281
1068,-27.25,76.625,-59.9375,-0.7695313,-0.8959961,0.03271484,-0.2568359,-0.1967773,-0.1806641
1072,-4.3125,45.8125,-32.5625,-1.044922,-0.8535156,0.02099609,-0.2485352,-0.2006836,-0.1889648
1076,18.5,8.0625,-4.5625,-1.025391,-0.7792969,-0.03222656,-0.2470703,-0.203125,-0.1918945
1080,39.625,-23.6875,23.125,-0.8198242,-0.6552734,-0.001464844,-0.2460938,-0.203125,-0.1904297
1084,44.75,-32.4375,46.625,-0.5795898,-0.4492188,0.09814453,-0.2470703,-0.203125,-0.1835938
1088,42.4375,-25.875,64.875,-0.3862305,-0.3833008,0.1674805,-0.2519531,-0.1982422,-0.1821289
1092,46.6875,-19.3125,75.25,-0.3510742,-0.3676758,0.07128906,-0.2568359,-0.1982422,-0.1782227
1096,55.6875,-29.5625,86.3125,-0.3549805,-0.3833008,-0.04003906,-0.2592773,-0.1933594,-0.1738281
1100,66,-49.8125,105,-0.2192383,-0.371582,-0.112793,-0.2651367,-0.1879883,-0.168457
1104,70.5625,-64.1875,121.875,0.05126953,-0.2666016,-0.08203125,-0.2700195,-0.1845703,-0.1630859
1108,65.625,-60.75,140.9375,0.3652344,-0.1850586,0.01708984,-0.2792969,-0.1757813,-0.15625
1112,50.5,-35.875,148.4375,0.6948242,-0.1113281,0.1635742,-0.2866211,-0.1645508,-0.1484375
1116,38.4375,-4.75,144.1875,0.7529297,-0.1850586,0.1367188,-0.2915039,-0.1567383,-0.1469727
1120,32.8125,6.1875,150.4375,0.625,-0.3481445,0.03662109,-0.2949219,-0.1469727,-0.1469727
1124,34.0625,0.125,165.0625,0.6557617,-0.3637695,0.03662109,-0.3007813,-0.1308594,-0.144043
1128,34.6875,-2.25,179,0.7954102,-0.3134766,0.001953125,-0.3032227,-0.1206055,-0.1401367
1132,24.5,0.25,180.875,1.004395,-0.2470703,0.02490234,-0.3066406,-0.1030273,-0.1455078
1136,23.4375,3.375,181.8125,1.140137,-0.4492188,-0.03613281,-0.3105469,-0.08691406,-0.1425781
1140,18.75,3.9375,186.4375,1.163574,-0.355957,0.05566406,-0.309082,-0.07324219,-0.1425781
1144,12.4375,12.125,189.375,1.206055,-0.4375,0.1020508,-0.3105469,-0.05566406,-0.1425781
1148,4.5,17.75,196.875,1.299316,-0.5541992,0.08251953,-0.3115234,-0.03710938,-0.1455078
1152,9.9375,8.6875,204.375,1.302734,-0.6708984,-0.07861328,-0.309082,-0.02441406,-0.1425781
1157,19,-8.9375,206,1.430664,-0.5073242,0.001953125,-0.3041992,-0.004394531,-0.1455078
1161,18.875,-5.1875,200.5,1.578125,-0.4414063,0.04785156,-0.3041992,0.01367188,-0.1455078
1165,7.4375,5.6875,199.875,1.616699,-0.503418,0.05957031,-0.3017578,0.02880859,-0.1425781
1169,5.75,-0.125,202.3125,1.582031,-0.4726563,-0.04736328,-0.293457,0.04736328,-0.1455078
1173,9.3125,-9.25,195.375,1.644043,-0.5698242,-0.08203125,-0.2866211,0.06494141,-0.144043
1177,18.75,-25.0625,189.875,1.698242,-0.503418,-0.07080078,-0.2851563,0.07763672,-0.1425781
1181,20.4375,-28.625,180,1.872559,-0.4882813,0.04052734,-0.2758789,0.09375,-0.1425781
1185,6.8125,-10.75,173.1875,2.03125,-0.402832,0.1904297,-0.2685547,0.1074219,-0.1386719
1189,-14.4375,22.4375,171.375,2.02002,-0.4570313,0.2060547,-0.2626953,0.1186523,-0.1401367
1193,-26.6875,37.875,163.0625,1.771973,-0.46875,0.125,-0.2543945,0.1337891,-0.1416016
1197,-20.5625,31.8125,155.6875,1.477539,-0.6044922,-0.02050781,-0.2436523,0.1450195,-0.1425781
1201,6.125,-5.75,148.1875,1.283691,-0.7407227,-0.1362305,-0.234375,0.1538086,-0.1416016
1205,44.625,-46.4375,137.5625,1.512207,-0.6279297,-0.1435547,-0.2270508,0.1635742,-0.1416016
1209,67.375,-61.125,117.5,1.791016,-0.2783203,-0.0859375,-0.2211914,0.1699219,-0.1401367
1213,47.0625,-36.375,100,2.112793,0.07470703,0.07519531,-0.215332,0.1748047,-0.1401367
1217,4.4375,13.875,92.6875,2.074219,0.08642578,0.1020508,-0.2104492,0.1787109,-0.1416016
1221,-15.125,30.125,94.9375,1.713867,-0.09179688,-0.09375,-0.2055664,0.1860352,-0.1425781
1225,-1.0625,12.125,77.625,1.585938,-0.1191406,-0.1821289,-0.2006836,0.1899414,-0.1425781
1229,20.75,-12.0625,54.0625,1.702148,0.05517578,-0.1708984,-0.1938477,0.1948242,-0.144043
1233,37.5,-21,21.25,1.930664,0.1835938,-0.09375,-0.1938477,0.1948242,-0.144043
1237,37,-14.4375,-8.0625,2.058594,0.3505859,-0.05126953,-0.1938477,0.1948242,-0.1425781
1241,28.0625,-0.9375,-32.875,2.140137,0.3271484,-0.05908203,-0.1948242,0.1914063,-0.1469727
1245,18.75,17,-64.9375,2.15918,0.3193359,-0.02441406,-0.199707,0.1899414,-0.1494141
1249,10,39.125,-98.5,2.093262,0.2573242,0.01367188,-0.2006836,0.1875,-0.1508789
1253,-4.9375,56.9375,-115,1.911133,0.07861328,0.009765625,-0.203125,0.1801758,-0.1547852
1257,-9.75,60.8125,-119.625,1.717773,-0.1538086,-0.06298828,-0.2114258,0.1723633,-0.1577148
1261,-1.9375,44.9375,-120.5,1.589844,-0.2509766,-0.0859375,-0.2128906,0.1660156,-0.1606445
1265,15.625,23.125,-127.125,1.605469,-0.2470703,-0.05908203,-0.21875,0.1586914,-0.1645508
1269,32.875,6.25,-144.4375,1.698242,-0.1230469,0.01367188,-0.2270508,0.1459961,-0.1660156
1273,30.5,2.4375,-156.875,1.86084,0.04736328,0.1020508,-0.2319336,0.1386719,-0.168457
1277,16.125,10.25,-164.9375,1.969238,0.08251953,0.1098633,-0.237793,0.1264648,-0.1699219
1281,-0.0625,14.375,-179.5,1.980957,0.01660156,0.07910156,-0.2485352,0.1123047,-0.1713867
1286,-7.4375,16.25,-190.75,1.96582,-0.1420898,0.06347656,-0.253418,0.1025391,-0.1728516
1290,-13.4375,10.875,-198.3125,1.895996,-0.2275391,0.09423828,-0.2602539,0.08642578,-0.175293
1294,-14.5,5.9375,-202.625,1.872559,-0.3017578,0.1020508,-0.2685547,0.06982422,-0.1738281
1298,-20.4375,3.375,-207.5625,1.853027,-0.387207,0.125,-0.2744141,0.06005859,-0.1728516
1302,-20.75,-0.8125,-207.1875,1.806641,-0.421875,0.144043,-0.2807617,0.04150391,-0.175293
1306,-23.8125,-0.3125,-211.1875,1.802734,-0.503418,0.2250977,-0.2866211,0.02246094,-0.1738281
1310,-19.8125,0.875,-215.75,1.686523,-0.4882813,0.2172852,-0.2900391,0.01123047,-0.175293
1314,-16.125,-4.3125,-218,1.659668,-0.5463867,0.1982422,-0.293457,-0.006835938,-0.175293
1318,-20.5625,-2.4375,-221.25,1.616699,-0.519043,0.2558594,-0.2949219,-0.02832031,-0.1738281
1322,-27.8125,7,-213.1875,1.496582,-0.6630859,0.2749023,-0.2949219,-0.04199219,-0.1738281
1326,-23.4375,8.5,-198.75,1.291504,-0.7719727,0.2290039,-0.2973633,-0.06054688,-0.1738281
1330,-1.875,-6.375,-190.3125,1.074219,-0.5112305,0.1713867,-0.2949219,-0.078125,-0.1767578
1334,17,-25.1875,-186.375,1.047363,-0.3989258,0.1210938,-0.2924805,-0.09082031,-0.175293
1338,9.125,-23.9375,-187,1.101563,-0.2666016,0.1713867,-0.2924805,-0.109375,-0.1738281
1342,-14.3125,-6.8125,-177.0625,1.016113,-0.2202148,0.1787109,-0.2890625,-0.1254883,-0.1728516
1346,-35,7.8125,-156.75,0.8574219,-0.3173828,0.1328125,-0.2841797,-0.1381836,-0.1713867
1350,-44.875,12.5,-140.5625,0.6948242,-0.2822266,0.125,-0.2792969,-0.1494141,-0.1728516
1354,-50.375,16,-133.1875,0.6015625,-0.2626953,0.1518555,-0.2758789,-0.1591797,-0.175293
1358,-59.375,27.9375,-128.9375,0.5239258,-0.2783203,0.2094727,-0.2724609,-0.1645508,-0.1767578
1362,-59,42.6875,-123.1875,0.3613281,-0.387207,0.2290039,-0.2636719,-0.1743164,-0.1821289
1366,-56.125,50.5,-115,0.1674805,-0.402832,0.2172852,-0.2592773,-0.1806641,-0.1889648
1370,-51.75,52,-99.375,-0.002441406,-0.4492188,0.1943359,-0.2543945,-0.1855469,-0.1928711
1374,-43.625,46.5,-86.6875,-0.1884766,-0.4648438,0.144043,-0.2460938,-0.1918945,-0.199707
1378,-26.25,30.4375,-74.0625,-0.3666992,-0.534668,0.1171875,-0.2412109,-0.1943359,-0.2041016
1382,-10.5625,15.25,-57.8125,-0.4365234,-0.4960938,0.1479492,-0.237793,-0.1982422,-0.2080078
1386,-0.625,1.5,-31.875,-0.4594727,-0.4335938,0.1557617,-0.2353516,-0.2006836,-0.206543
1390,5.25,-7.5,-8.1875,-0.4521484,-0.355957,0.1787109,-0.234375,-0.2016602,-0.206543
1394,12.25,-10.9375,12.0625,-0.3862305,-0.3017578,0.1787109,-0.234375,-0.2016602,-0.206543
1398,14.6875,-11.875,28.9375,-0.3203125,-0.2084961,0.1826172,-0.2353516,-0.2045898,-0.2041016
1402,18.5,-12.125,41.5625,-0.2348633,-0.1928711,0.1518555,-0.2363281,-0.1992188,-0.206543
1406,26.125,-20.1875,55,-0.2426758,-0.1811523,0.105957,-0.237793,-0.1992188,-0.2011719
1410,37.4375,-35.5625,70.125,-0.1572266,-0.1694336,0.09033203,-0.2446289,-0.1958008,-0.1987305
1415,45.625,-46.8125,85.875,-0.03320313,-0.07226563,0.08251953,-0.2509766,-0.1943359,-0.1958008
1419,45.875,-51.625,97.8125,0.1367188,0.008789063,0.09423828,-0.253418,-0.1894531,-0.1889648
1423,43.6875,-47.25,103.125,0.3417969,0.04394531,0.1518555,-0.2602539,-0.1821289,-0.1850586
1427,36,-33.5625,104.25,0.4853516,0.01660156,0.1787109,-0.2661133,-0.1767578,-0.1782227
1431,29.5,-21.25,115.4375,0.4892578,-0.08789063,0.1674805,-0.2700195,-0.171875,-0.175293
1435,29.5625,-18,129.125,0.4467773,-0.2006836,0.1098633,-0.2744141,-0.1621094,-0.1728516
1439,34.625,-23.375,140.5,0.5087891,-0.1381836,0.09423828,-0.2807617,-0.1533203,-0.1728516
1443,33.1875,-21.3125,145.25,0.6635742,-0.01025391,0.09033203,-0.2841797,-0.1430664,-0.168457
1447,18.3125,-5.625,141.125,0.8920898,-0.02978516,0.1210938,-0.2900391,-0.1308594,-0.1674805
1451,5.1875,9.3125,146.5,0.8769531,-0.1733398,0.08642578,-0.293457,-0.1166992,-0.1660156
1455,1.875,4.75,158.9375,0.7451172,-0.3598633,0.03271484,-0.2949219,-0.1083984,-0.1645508
1459,10.75,-7.4375,169.75,0.7602539,-0.4179688,0.03662109,-0.2973633,-0.09326172,-0.1660156
1463,16.0625,-14.625,177.375,0.8999023,-0.3520508,0.07519531,-0.2998047,-0.07714844,-0.1660156
1467,8.875,-10.25,177.75,1.124512,-0.3442383,0.09033203,-0.3007813,-0.06689453,-0.1645508
1471,18.4375,-12.9375,177.0625,1.206055,-0.4726563,0.001953125,-0.3007813,-0.05078125,-0.1616211
1475,13.375,-11.5625,176.6875,1.345703,-0.2666016,0.09033203,-0.3007813,-0.03076172,-0.1606445
1479,-3.5,3.4375,178.625,1.403809,-0.3520508,0.1982422,-0.3007813,-0.02050781,-0.1616211
1483,-15.625,18.3125,184.875,1.411621,-0.3911133,0.2329102,-0.2983398,-0.003417969,-0.1616211
1487,-8.5,15.5,180.0625,1.438477,-0.5424805,0.159668,-0.2949219,0.01513672,-0.1630859
1491,13.75,3.3125,164.0625,1.46582,-0.5737305,0.07910156,-0.2924805,0.02490234,-0.1630859
1495,24.875,-6.5625,158.5625,1.566406,-0.565918,0.144043,-0.2875977,0.04003906,-0.1630859
1499,20,1.0625,163.1875,1.632324,-0.5385742,0.1904297,-0.2827148,0.05273438,-0.1645508
1503,12.0625,4.75,175.5,1.578125,-0.4804688,0.1132813,-0.2783203,0.06396484,-0.1645508
1507,16.375,-7.1875,176.125,1.539551,-0.3833008,0.001953125,-0.2734375,0.07861328,-0.1660156
1511,16.125,-14.5,160.5625,1.655762,-0.2666016,0.03271484,-0.2675781,0.09228516,-0.1645508
1515,8.0625,-10.5,152.5625,1.686523,-0.2978516,0.1210938,-0.2617188,0.1025391,-0.1616211
1519,-1.5625,-5.875,145.25,1.686523,-0.4453125,0.1518555,-0.253418,0.1137695,-0.1616211
1523,3.625,-6.875,144.0625,1.663574,-0.5073242,0.1865234,-0.2470703,0.1264648,-0.1630859
1527,6.375,-2.9375,140.9375,1.659668,-0.4335938,0.1748047,-0.2412109,0.1323242,-0.1616211
1531,11.0625,-3.8125,136.5,1.570313,-0.402832,0.105957,-0.234375,0.1425781,-0.1591797
1535,29.1875,-20.4375,128.75,1.531738,-0.2626953,-0.02832031,-0.2255859,0.1513672,-0.1606445
1539,45.5625,-40.1875,104.0625,1.717773,0.04003906,0.009765625,-0.222168,0.15625,-0.1616211
1544,39.1875,-29.8125,83.8125,1.950195,0.2226563,0.1132813,-0.21875,0.1601563,-0.1616211
1548,18.75,-10.375,71.8125,1.992676,0.2070313,0.1367188,-0.215332,0.1635742,-0.1606445
1552,12.125,0.6875,58.125,1.961914,0.2573242,0.1098633,-0.2128906,0.1660156,-0.1616211
1556,12.25,4.75,38.625,1.915039,0.2416992,0.06347656,-0.2080078,0.1713867,-0.1616211
1560,18.3125,0.625,17.125,1.864746,0.2963867,0.009765625,-0.206543,0.1713867,-0.1630859
1564,23.5625,-5.375,-7.25,1.89209,0.3232422,-0.02050781,-0.2055664,0.1713867,-0.1630859
1568,23.875,-8.375,-31,1.918945,0.3857422,-0.02441406,-0.206543,0.1699219,-0.1645508
1572,16.0625,-6.4375,-52.375,1.973145,0.4086914,-0.01660156,-0.2114258,0.1674805,-0.1630859
1576,1.875,5.4375,-69.6875,2.000488,0.3935547,0.04052734,-0.2138672,0.1625977,-0.1674805
1580,-11.375,13.75,-86.875,1.977051,0.315918,0.03662109,-0.2163086,0.1586914,-0.168457
1584,-20.625,20.625,-105.25,1.950195,0.1293945,0.04443359,-0.2211914,0.1513672,-0.168457
1588,-21.3125,21.9375,-115.1875,1.89209,0.01269531,-0.005371094,-0.2246094,0.1489258,-0.1674805
1592,-22.0625,18.25,-131.25,1.922852,-0.02197266,0.02880859,-0.2319336,0.1401367,-0.168457
1596,-20.4375,18.1875,-149,1.930664,-0.03759766,0.02099609,-0.2387695,0.1323242,-0.1674805
1600,-25.25,18.3125,-163.75,1.961914,-0.1113281,-0.001464844,-0.2426758,0.1235352,-0.168457
1604,-28.375,19.6875,-177.25,1.980957,-0.1850586,0.02099609,-0.2495117,0.1113281,-0.1699219
1608,-32.75,23.375,-187.6875,1.96582,-0.3095703,0.02880859,-0.2578125,0.09863281,-0.1699219
1612,-33.8125,24.0625,-192.5,1.845703,-0.46875,0.07910156,-0.2626953,0.08984375,-0.1699219
1616,-23.3125,13.3125,-193.125,1.674805,-0.5737305,0.02490234,-0.2685547,0.07373047,-0.1699219
1620,-5.6875,-9.4375,-199.8125,1.659668,-0.6083984,0.03662109,-0.2758789,0.05859375,-0.1728516
1624,5.125,-22,-206.6875,1.779785,-0.4960938,0.1132813,-0.2817383,0.04638672,-0.1713867
1628,2.5,-19.25,-210.375,1.868652,-0.4648438,0.1748047,-0.2890625,0.02734375,-0.1699219
1632,-5.5625,-7.1875,-211.375,1.86084,-0.4257813,0.1982422,-0.293457,0.006347656,-0.1699219
1636,-19.0625,8.5625,-212.1875,1.740723,-0.4726563,0.1635742,-0.2958984,-0.008300781,-0.1699219
1640,-20.5625,10.5625,-206.625,1.516113,-0.5737305,0.1098633,-0.2973633,-0.02587891,-0.1713867
1644,-13,1.125,-202.0625,1.384277,-0.5268555,0.09423828,-0.2998047,-0.04296875,-0.1713867
1648,-10.25,-5.875,-203.75,1.361328,-0.4067383,0.105957,-0.2973633,-0.05810547,-0.1728516
1652,-16.5,-4.625,-200,1.302734,-0.371582,0.140625,-0.2973633,-0.07568359,-0.1699219
1656,-25.5625,0.25,-192.25,1.217773,-0.3754883,0.1713867,-0.2958984,-0.09570313,-0.168457
1660,-31.4375,5.1875,-181.9375,1.101563,-0.4140625,0.1787109,-0.2924805,-0.1044922,-0.1728516
1664,-28.875,3.375,-173,0.9423828,-0.4609375,0.1674805,-0.2900391,-0.1220703,-0.1728516
1668,-22.0625,-5.3125,-168.1875,0.8496094,-0.3598633,0.1865234,-0.2841797,-0.1342773,-0.1738281
1673,-21.5625,-5.1875,-167.375,0.7680664,-0.324707,0.2441406,-0.2817383,-0.1455078,-0.1728516
1677,-20.875,-4.625,-158.0625,0.5859375,-0.3833008,0.2133789,-0.2734375,-0.1606445,-0.1738281
1681,-17.1875,-8.375,-143.5625,0.4350586,-0.3598633,0.2172852,-0.2700195,-0.1743164,-0.175293
1685,-18.1875,-7.125,-134.9375,0.2915039,-0.3325195,0.2211914,-0.2685547,-0.1791992,-0.175293
1689,-21.75,-3.625,-122.625,0.175293,-0.3442383,0.2519531,-0.2617188,-0.1918945,-0.1738281
1693,-34.4375,10.125,-106.0625,0.08251953,-0.3989258,0.3330078,-0.2578125,-0.2006836,-0.1767578
1697,-41.3125,28.8125,-86,-0.1069336,-0.519043,0.3291016,-0.2543945,-0.203125,-0.1782227
1701,-36.3125,40.5625,-65.0625,-0.3164063,-0.6201172,0.3017578,-0.2470703,-0.2080078,-0.1835938
1705,-21.25,37.5,-44.625,-0.6147461,-0.6318359,0.1787109,-0.2412109,-0.2128906,-0.1875
1709,1.8125,13,-27.625,-0.7734375,-0.6357422,0.03662109,-0.2426758,-0.2119141,-0.1904297
1713,26.125,-19,-8.8125,-0.7890625,-0.534668,0.05175781,-0.2402344,-0.2158203,-0.1889648
1717,38.0625,-35.6875,14.4375,-0.6225586,-0.4101563,0.1171875,-0.2426758,-0.2158203,-0.1850586
1721,38.5,-35.25,37.9375,-0.4521484,-0.3134766,0.159668,-0.2426758,-0.2167969,-0.1806641
1725,36.875,-30.5625,57,-0.3745117,-0.2666016,0.1328125,-0.2460938,-0.2143555,-0.1767578
1729,42.9375,-35.3125,73.625,-0.3125,-0.2666016,0.05957031,-0.2519531,-0.2119141,-0.1728516
1733,51.5625,-47.9375,88.0625,-0.1884766,-0.2084961,0.02490234,-0.2553711,-0.2080078,-0.1699219
1737,57.9375,-57.5625,101.125,0.02441406,-0.1616211,0.04443359,-0.2617188,-0.2055664,-0.1630859
1741,60.6875,-57.8125,112.5,0.2138672,-0.1035156,0.06738281,-0.2685547,-0.1967773,-0.1547852
1745,58.25,-51.5625,121.125,0.4077148,-0.07226563,0.125,-0.2734375,-0.1918945,-0.1484375
1749,53.875,-30.6875,129.375,0.6289063,-0.006347656,0.159668,-0.2807617,-0.1821289,-0.144043
1753,35.125,-5.75,136.875,0.7529297,0.05908203,0.1713867,-0.2866211,-0.1733398,-0.1416016
1757,15.4375,24,141.25,0.8300781,-0.1035156,0.1674805,-0.2915039,-0.1630859,-0.1401367
1761,6.375,32.75,155.125,0.6982422,-0.1191406,0.07128906,-0.2949219,-0.1508789,-0.1386719
1765,3.5625,29.75,160.5,0.7294922,-0.2822266,0.04443359,-0.2983398,-0.1357422,-0.144043
1769,10.125,23.625,165.5625,0.7680664,-0.3056641,0.03662109,-0.3017578,-0.1245117,-0.144043
1773,18.75,17.3125,171.0625,0.8652344,-0.3481445,-0.05126953,-0.3041992,-0.109375,-0.1469727
1777,17.25,13.4375,171.8125,1.035645,-0.1889648,-0.02050781,-0.3056641,-0.09423828,-0.1484375
1781,8.75,13.8125,175.25,1.109375,-0.2861328,-0.07470703,-0.3066406,-0.08203125,-0.1469727
1785,6.1875,8.625,178.75,1.186523,-0.4179688,-0.02050781,-0.3066406,-0.06445313,-0.1508789
1789,7.25,9.9375,182.1875,1.225586,-0.4804688,0.04443359,-0.3081055,-0.04589844,-0.1508789
1793,13.5625,0.9375,194.5625,1.182617,-0.5541992,-0.03613281,-0.3041992,-0.03466797,-0.1494141
1797,21.5,-16.6875,192.25,1.364746,-0.4101563,-0.05517578,-0.3056641,-0.015625,-0.1538086
1802,24.125,-19.875,182.0625,1.612793,-0.371582,0.001953125,-0.3032227,0.001464844,-0.1494141
1806,14.5625,-9.6875,180.8125,1.717773,-0.4960938,0.07519531,-0.3007813,0.01123047,-0.1469727
1810,14,-2.6875,189.875,1.620605,-0.4960938,0.05566406,-0.2958984,0.03027344,-0.1469727
1814,21.6875,-9.125,186.1875,1.612793,-0.3208008,0.02099609,-0.2900391,0.04882813,-0.1469727
1818,26.9375,-13.6875,172.5,1.73291,-0.2353516,-0.009277344,-0.2890625,0.05859375,-0.1469727
1822,18.75,-6.375,159.5625,1.876465,-0.1577148,0.009765625,-0.2841797,0.07373047,-0.1469727
1826,-6.4375,12.25,151.75,1.876465,-0.1772461,0.1020508,-0.2783203,0.08496094,-0.1455078
1830,-14.75,16.125,155.3125,1.72168,-0.3754883,0.07128906,-0.2734375,0.09619141,-0.1484375
1834,-4.6875,10.3125,154.125,1.73291,-0.3442383,0.09814453,-0.2651367,0.1088867,-0.1469727
1838,4.3125,5.5,146.4375,1.775879,-0.1499023,0.07910156,-0.2568359,0.1225586,-0.1469727
1842,8.4375,5,126.375,1.845703,0.06298828,0.01367188,-0.2519531,0.1274414,-0.1469727
1846,5.375,6.1875,103.25,1.791016,0.140625,-0.07470703,-0.2436523,0.1401367,-0.1484375
1850,-2.8125,8.8125,81.625,1.810547,0.2495117,-0.04003906,-0.2402344,0.1459961,-0.1508789
1854,-24.5625,23.625,72.5625,1.822266,0.2299805,0.03271484,-0.237793,0.1513672,-0.1494141
1858,-46.4375,38.125,68.875,1.771973,0.08251953,0.1210938,-0.2294922,0.15625,-0.1484375
1862,-40.9375,36.6875,61.875,1.601563,-0.1772461,0.05566406,-0.2236328,0.1625977,-0.1508789
1866,-12.5,7.125,46.375,1.512207,-0.1928711,0.05566406,-0.2197266,0.1660156,-0.1484375
1870,24.9375,-25.5,25,1.713867,0.01660156,0.05566406,-0.2172852,0.1674805,-0.1484375
1874,34.8125,-31.9375,-0.1875,2.116699,0.3120117,0.1635742,-0.21875,0.1689453,-0.1494141
1878,17.875,-7,-18,2.376465,0.6303711,0.2060547,-0.2197266,0.1674805,-0.1469727
1882,-10.1875,25.125,-38.8125,2.356934,0.5488281,0.1826172,-0.222168,0.1650391,-0.1494141
1886,-22.9375,47.75,-65,2.19043,0.3427734,0.1020508,-0.2236328,0.1625977,-0.1494141
1890,-29.1875,55.875,-83.4375,2.035156,0.1293945,0.05175781,-0.2236328,0.1611328,-0.1508789
1894,-26.875,55.125,-98.75,1.864746,-0.02978516,0.03271484,-0.2280273,0.15625,-0.1547852
1898,-16.6875,42.3125,-110.9375,1.702148,-0.1733398,-0.009277344,-0.2304688,0.1499023,-0.1577148
1902,-1.125,22.25,-122.75,1.659668,-0.1850586,-0.005371094,-0.234375,0.1435547,-0.1577148
1906,7.1875,8.6875,-136.625,1.713867,-0.1850586,0.04443359,-0.2412109,0.1347656,-0.1616211
1910,9.125,5.25,-149,1.779785,-0.1733398,0.1171875,-0.2509766,0.1225586,-0.1616211
1914,4.6875,7.875,-160.75,1.802734,-0.1772461,0.1289063,-0.2543945,0.1137695,-0.1616211
1918,0.375,10.0625,-170.75,1.783691,-0.2626953,0.1098633,-0.2617188,0.1000977,-0.1616211
1922,-2.25,6.375,-181.125,1.740723,-0.4067383,0.08251953,-0.2700195,0.08642578,-0.1645508
1926,4.875,-3.25,-183.8125,1.73291,-0.5581055,0.07519531,-0.2744141,0.07519531,-0.1660156
1931,4,-7.75,-185.5625,1.783691,-0.4726563,0.1210938,-0.2827148,0.05761719,-0.1645508
1935,0.375,-3.8125,-189.3125,1.845703,-0.4492188,0.1787109,-0.2866211,0.04003906,-0.1645508
1939,-3.1875,4.375,-189.0625,1.76416,-0.4804688,0.2172852,-0.2890625,0.02880859,-0.1645508
1943,0.5,10.3125,-188.3125,1.674805,-0.340332,0.1787109,-0.2949219,0.01123047,-0.1645508
1947,-1.4375,14.3125,-198.5625,1.582031,-0.2939453,0.125,-0.2973633,-0.006835938,-0.1674805
1951,-0.1875,16.125,-201.5625,1.481445,-0.4067383,0.06347656,-0.2973633,-0.01953125,-0.1674805
1955,1.875,10.3125,-198.25,1.337891,-0.3950195,0.02880859,-0.2998047,-0.03955078,-0.1699219
1959,2.0625,7.0625,-198.875,1.283691,-0.3481445,0.04785156,-0.2983398,-0.05957031,-0.1699219
1963,0.4375,3.125,-196.375,1.16748,-0.3134766,0.02099609,-0.2973633,-0.07080078,-0.1713867
1967,-1.75,1,-192.1875,1.101563,-0.3754883,0.02099609,-0.2958984,-0.09082031,-0.1713867
1971,-6.9375,-2.4375,-183.1875,0.9658203,-0.2705078,0.04052734,-0.2924805,-0.109375,-0.1713867
1975,-13.8125,-2,-177.5,0.9619141,-0.2939453,0.09423828,-0.2900391,-0.1196289,-0.1728516
1979,-21.375,9.375,-173.25,0.8691406,-0.2626953,0.1557617,-0.2875977,-0.1357422,-0.1713867
1983,-28.5625,15.875,-161.4375,0.6054688,-0.2744141,0.09814453,-0.2817383,-0.1494141,-0.1738281
1987,-31.125,10.625,-152.5,0.4736328,-0.324707,0.1098633,-0.2744141,-0.1591797,-0.1767578
1991,-33.25,10.625,-143.625,0.4155273,-0.3134766,0.1635742,-0.2700195,-0.1694336,-0.175293
1995,-36.375,18.4375,-130.5625,0.3227539,-0.3793945,0.2519531,-0.2636719,-0.1806641,-0.1782227
1999,-40.5625,33.25,-113.875,0.159668,-0.4257813,0.3056641,-0.2592773,-0.1879883,-0.1806641
2003,-39.5,43.0625,-90.75,-0.1069336,-0.4726563,0.2866211,-0.253418,-0.1943359,-0.1865234
2007,-29,34.1875,-73.25,-0.3354492,-0.4960938,0.2021484,-0.2460938,-0.1992188,-0.1918945
2011,-4.6875,11.75,-65.125,-0.4482422,-0.534668,0.1904297,-0.2446289,-0.203125,-0.1928711
2015,20.9375,-7.6875,-56.6875,-0.5332031,-0.5151367,0.2060547,-0.2412109,-0.2070313,-0.1943359
2019,31.8125,-17.4375,-35,-0.5253906,-0.4140625,0.2250977,-0.2363281,-0.2119141,-0.1943359
2023,31.1875,-16.5,-6,-0.4521484,-0.3134766,0.2368164,-0.2387695,-0.2143555,-0.1904297
2027,27.125,-9.0625,18.1875,-0.3862305,-0.1928711,0.2133789,-0.237793,-0.2167969,-0.1889648
2031,22.375,-3.6875,35.0625,-0.3549805,-0.1420898,0.1635742,-0.2402344,-0.2143555,-0.1850586
2035,22.4375,-5,49.1875,-0.3549805,-0.1928711,0.105957,-0.2436523,-0.2143555,-0.1850586
2039,30.0625,-17.6875,66.9375,-0.347168,-0.1967773,0.02490234,-0.2470703,-0.2104492,-0.1835938
2043,35.6875,-31.75,83.4375,-0.2270508,-0.1230469,0.01367188,-0.2519531,-0.2070313,-0.1796875
2047,39.8125,-43,97.5,-0.05273438,-0.1074219,0.03271484,-0.2543945,-0.203125,-0.1738281
2051,44.1875,-47.3125,108.4375,0.1791992,-0.08789063,0.06738281,-0.2617188,-0.1967773,-0.1699219
2055,43.4375,-43.125,116.75,0.3959961,-0.02978516,0.144043,-0.2685547,-0.1870117,-0.1660156
2060,38.9375,-28.875,127.6875,0.5473633,0.01660156,0.1557617,-0.2724609,-0.1831055,-0.1616211
2064,25.3125,-9.75,133.5,0.625,0.09423828,0.1557617,-0.2807617,-0.1743164,-0.1591797
2068,13.625,4.625,137.25,0.6479492,0.04394531,0.1098633,-0.2841797,-0.1630859,-0.1591797
2072,4.6875,14.875,140.25,0.690918,-0.1655273,0.06738281,-0.2875977,-0.1542969,-0.1577148
2076,6,13.9375,153.9375,0.690918,-0.2705078,0.02880859,-0.2900391,-0.140625,-0.1577148
2080,8.375,6.875,163.5625,0.7568359,-0.2006836,0.05566406,-0.2958984,-0.1245117,-0.1591797
2084,3.375,9.0625,164.3125,0.8881836,-0.1499023,0.1289063,-0.2973633,-0.1157227,-0.1591797
2088,-9.875,23.1875,166.6875,0.9775391,-0.2470703,0.159668,-0.2998047,-0.09960938,-0.1616211
2092,-13.5625,26.6875,173.625,0.9350586,-0.4570313,0.02490234,-0.3007813,-0.08300781,-0.1616211
2096,-1.4375,1.3125,178.6875,0.9116211,-0.5112305,-0.009277344,-0.3007813,-0.07080078,-0.1645508
2100,12.375,-17.9375,180.4375,1.074219,-0.5268555,0.07128906,-0.3017578,-0.05078125,-0.1645508
2104,12.125,-17.9375,187.0625,1.291504,-0.5581055,0.2060547,-0.3032227,-0.03466797,-0.1616211
2108,4.0625,1.125,198.0625,1.504395,-0.4960938,0.2519531,-0.3032227,-0.02050781,-0.1606445
2112,-11.6875,17.5,203.375,1.5625,-0.3056641,0.1713867,-0.2998047,-0.0004882813,-0.1591797
2116,-24.375,27.375,189.6875,1.566406,-0.3286133,0.1674805,-0.2949219,0.01757813,-0.1630859
2120,-25.125,26.25,180.25,1.384277,-0.4765625,0.105957,-0.2915039,0.03027344,-0.1630859
2124,-26.9375,17.9375,181.1875,1.345703,-0.6977539,0.1289063,-0.2875977,0.04638672,-0.1660156
2128,-19.6875,6.75,186.5,1.39209,-0.8647461,0.1557617,-0.2783203,0.06640625,-0.1660156
2132,-0.1875,-7.3125,194.125,1.496582,-0.8686523,0.08251953,-0.2744141,0.07519531,-0.1660156
2136,10,-21.625,184.875,1.628418,-0.5581055,0.1479492,-0.2661133,0.09375,-0.1616211
2140,9.0625,-11.875,169.1875,1.756348,-0.5307617,0.1826172,-0.2592773,0.1074219,-0.1630859
2144,-3,-3.9375,167.5,1.69043,-0.5581055,0.1943359,-0.253418,0.1162109,-0.1630859
2148,2.9375,-5.625,165.9375,1.601563,-0.6396484,0.07910156,-0.2436523,0.1289063,-0.1606445
2152,12.3125,-23.5625,158.9375,1.628418,-0.5424805,0.06347656,-0.2353516,0.1425781,-0.1616211
2156,25.875,-32.375,150.3125,1.802734,-0.5073242,0.09423828,-0.2294922,0.1489258,-0.1606445
2160,29.625,-33.25,138.75,1.888184,-0.3134766,0.1674805,-0.2236328,0.1586914,-0.1591797
2164,35.5625,-26.8125,126.5625,1.980957,-0.2045898,0.1635742,-0.2163086,0.1660156,-0.1591797
2168,41.4375,-29.1875,108.5,2.042969,0.1333008,0.08251953,-0.2104492,0.1699219,-0.1591797
2172,39.375,-23.625,79.25,2.206055,0.3505859,0.04785156,-0.2045898,0.1748047,-0.1591797
2176,26.6875,-9.9375,55.0625,2.244629,0.4633789,0.03271484,-0.2021484,0.1801758,-0.1606445
2180,18.9375,-2.3125,35.375,2.182617,0.4204102,-0.03613281,-0.1982422,0.1787109,-0.1606445
2184,20.9375,-7.75,12.0625,2.13623,0.4868164,-0.08984375,-0.1962891,0.1811523,-0.1616211
2189,20.875,-12,-18.5625,2.182617,0.5410156,-0.1015625,-0.1982422,0.1787109,-0.1630859
2193,11.125,-3.9375,-48.25,2.248535,0.5292969,-0.02441406,-0.2006836,0.1772461,-0.1630859
2197,-11.4375,18.5,-69.0625,2.23291,0.4399414,0.08251953,-0.203125,0.1723633,-0.1630859
2201,-33.4375,44.6875,-84.375,2.116699,0.2768555,0.08642578,-0.2080078,0.1699219,-0.1630859
2205,-41.1875,58.5625,-100.625,1.950195,0.08251953,0.03662109,-0.2089844,0.1660156,-0.1645508
2209,-41.875,59,-116.0625,1.818359,-0.02587891,-0.01660156,-0.2128906,0.1625977,-0.1674805
2213,-37.625,52.1875,-129.0625,1.709961,-0.1655273,-0.009277344,-0.2197266,0.15625,-0.1674805
2217,-25.3125,35.75,-138.0625,1.659668,-0.2626953,-0.04736328,-0.222168,0.1513672,-0.1699219
2221,-12.375,16.8125,-149.875,1.748535,-0.2548828,0.02099609,-0.2294922,0.1425781,-0.1713867
2225,-8.5,9,-161.9375,1.849121,-0.1616211,0.05175781,-0.237793,0.1323242,-0.168457
2229,-11.4375,7.5,-175.6875,1.899902,-0.2392578,0.08251953,-0.2426758,0.1225586,-0.1713867
2233,-11.625,3.8125,-187.375,1.915039,-0.3364258,0.06347656,-0.2519531,0.1113281,-0.1699219
2237,-10.375,-3.5,-195.6875,1.911133,-0.4296875,0.09033203,-0.2617188,0.09228516,-0.1699219
2241,-11.0625,-5.625,-200.6875,1.926758,-0.4648438,0.140625,-0.2675781,0.08496094,-0.1713867
2245,-10.9375,-4.6875,-204,1.872559,-0.5307617,0.1518555,-0.2724609,0.06738281,-0.1713867
2249,-10.25,-8.5,-208.125,1.814453,-0.5073242,0.1367188,-0.2817383,0.04882813,-0.1699219
2253,-13.6875,-6.25,-213.5,1.826172,-0.5463867,0.1865234,-0.2866211,0.03613281,-0.1699219
2257,-15.9375,-0.5,-212.3125,1.736816,-0.6162109,0.1865234,-0.2900391,0.01757813,-0.1674805
2261,-8.8125,-6.9375,-207.75,1.5625,-0.6201172,0.1367188,-0.2958984,-0.001953125,-0.1699219
2265,3.0625,-22.375,-212.0625,1.454102,-0.5385742,0.1210938,-0.2983398,-0.01708984,-0.1699219
2269,9.5,-35.5,-214.1875,1.48877,-0.4492188,0.1367188,-0.3007813,-0.03466797,-0.1660156
2273,2,-31,-215.75,1.546875,-0.421875,0.2094727,-0.3007813,-0.05957031,-0.1630859
2277,-14.875,-14.8125,-209.25,1.438477,-0.3598633,0.2172852,-0.3032227,-0.07324219,-0.1606445
2281,-32,-1.0625,-196.625,1.287598,-0.4609375,0.2060547,-0.3017578,-0.09082031,-0.1616211
2285,-41.9375,9.8125,-184.4375,1.082031,-0.503418,0.1904297,-0.2973633,-0.1108398,-0.1630859
2289,-39.3125,9.3125,-179.75,0.8417969,-0.5854492,0.1713867,-0.2949219,-0.1181641,-0.1645508
2293,-29.375,6,-176.8125,0.609375,-0.5927734,0.1787109,-0.2900391,-0.1342773,-0.1660156
2297,-26.125,0.3125,-165.8125,0.4311523,-0.6240234,0.1748047,-0.2841797,-0.1508789,-0.1674805
2301,-24.0625,-0.5625,-148.8125,0.3305664,-0.5737305,0.2402344,-0.2817383,-0.1582031,-0.1660156
2305,-33.9375,13.8125,-130.6875,0.3149414,-0.4921875,0.3251953,-0.2744141,-0.171875,-0.168457
2309,-48.125,40.6875,-110.9375,0.1635742,-0.484375,0.3637695,-0.2685547,-0.1806641,-0.1713867
2313,-56.3125,62.625,-92.1875,-0.1069336,-0.5385742,0.3095703,-0.2651367,-0.1855469,-0.175293
2318,-46.8125,60.75,-72.9375,-0.4208984,-0.6240234,0.2060547,-0.2592773,-0.1894531,-0.1835938
2322,-26.5,40.9375,-57.9375,-0.5214844,-0.6435547,0.1479492,-0.2519531,-0.1918945,-0.1904297
2326,-5.5625,23,-41.5625,-0.5527344,-0.5,0.1826172,-0.2509766,-0.1943359,-0.1904297
2330,1.125,20.625,-20.75,-0.4672852,-0.3637695,0.2290039,-0.2485352,-0.1958008,-0.1958008
2334,-3,28,3.0625,-0.4594727,-0.2431641,0.2133789,-0.2460938,-0.1982422,-0.1928711
2338,-4.5,27.625,25.9375,-0.4946289,-0.2470703,0.1328125,-0.2436523,-0.1992188,-0.1987305
2342,7.375,13.5,39.6875,-0.5214844,-0.1967773,0.005859375,-0.2446289,-0.1958008,-0.1987305
2346,24.8125,-15.625,41.4375,-0.4594727,-0.1538086,-0.04394531,-0.2460938,-0.1918945,-0.1972656
2350,37.1875,-34.8125,49.9375,-0.3203125,-0.1499023,-0.02832031,-0.2485352,-0.1904297,-0.1958008
2354,40.75,-50.375,69.875,-0.1806641,-0.1381836,-0.01318359,-0.2509766,-0.1904297,-0.1889648
2358,44.1875,-60.9375,90.1875,0.01269531,-0.05273438,0.03271484,-0.2592773,-0.1845703,-0.1865234
2362,45.8125,-65,101.9375,0.2607422,-0.02978516,0.09423828,-0.2636719,-0.1806641,-0.1796875
2366,49,-59.75,110.875,0.4892578,0.04394531,0.1289063,-0.2709961,-0.1733398,-0.1738281
2370,40.1875,-47,114.5,0.675293,0.1992188,0.2133789,-0.2768555,-0.1679688,-0.1674805
2374,27.5625,-20.5625,114.25,0.7836914,0.1098633,0.2675781,-0.2817383,-0.1591797,-0.1616211
2378,16.0625,0.3125,117.8125,0.6831055,0.02050781,0.1943359,-0.2851563,-0.1508789,-0.1616211
2382,14.1875,6.8125,126.375,0.6015625,-0.1577148,0.07519531,-0.2890625,-0.1396484,-0.1606445
2386,14.5,-1.0625,139.8125,0.5820313,-0.2124023,0.02099609,-0.2915039,-0.1333008,-0.1616211
2390,13.5625,-5.3125,150.5625,0.7255859,-0.2470703,0.09033203,-0.2958984,-0.1196289,-0.1591797
2394,6.75,6.1875,159.0625,0.8339844,-0.1850586,0.125,-0.2998047,-0.1069336,-0.1606445
2398,-3.5625,12.6875,163.875,0.8261719,-0.2548828,0.08642578,-0.2998047,-0.09570313,-0.1616211
2402,-2.5625,8.4375,166.375,0.8261719,-0.4101563,0.06738281,-0.3017578,-0.078125,-0.1630859
2406,6.125,-3,168.4375,0.8730469,-0.5307617,0.04052734,-0.3032227,-0.06201172,-0.1630859
2410,12.25,-12.3125,173.3125,1.004395,-0.5966797,0.06347656,-0.3032227,-0.05078125,-0.1606445
2414,15.9375,-16.5,187.4375,1.082031,-0.4726563,0.03271484,-0.3032227,-0.03466797,-0.1591797
2418,9.3125,-19.625,187.3125,1.268066,-0.3364258,0.09033203,-0.3017578,-0.01708984,-0.1591797
2422,5.0625,-11.375,181.5,1.415527,-0.5112305,0.1171875,-0.3007813,-0.003417969,-0.1577148
2426,0.4375,-4.4375,179.1875,1.376465,-0.6513672,0.144043,-0.2983398,0.01513672,-0.15625
2430,6.5625,-7.25,181.875,1.322266,-0.7407227,0.1132813,-0.2949219,0.03125,-0.15625
2434,20.4375,-21.0625,189.125,1.330078,-0.7949219,0.04052734,-0.2915039,0.04150391,-0.15625
2438,29.9375,-33.375,188.5625,1.508301,-0.581543,0.02490234,-0.2875977,0.05859375,-0.1538086
2442,32.8125,-30.625,176.25,1.744629,-0.5581055,0.07519531,-0.2827148,0.07519531,-0.1508789
2447,18.75,-8.9375,171.4375,1.830078,-0.4921875,0.1748047,-0.2768555,0.08496094,-0.1538086
2451,2,9.9375,176,1.748535,-0.5385742,0.1132813,-0.2700195,0.09863281,-0.1494141
2455,2,8.1875,174.0625,1.554688,-0.6513672,0.02880859,-0.2602539,0.1123047,-0.1508789
2459,26.1875,-19.5625,169.8125,1.52002,-0.6005859,-0.07861328,-0.2543945,0.1225586,-0.1494141
2463,42.0625,-39.25,153.1875,1.69043,-0.5,-0.005371094,-0.2446289,0.1347656,-0.1508789
2467,51.6875,-36.9375,142.25,1.942383,-0.402832,0.05566406,-0.2387695,0.1425781,-0.1494141
2471,30.6875,-11.75,131.6875,2.074219,-0.07617188,0.125,-0.2353516,0.1499023,-0.1494141
2475,-3.25,24.4375,126.3125,2.02002,0.06689453,0.1098633,-0.2270508,0.1577148,-0.1508789
2479,-31.375,44.625,114.25,1.740723,-0.04541016,0.01708984,-0.21875,0.1689453,-0.1538086
2483,-32.625,38.0625,98.6875,1.516113,-0.2202148,-0.05908203,-0.2128906,0.1723633,-0.1523438
2487,-19.75,18.6875,79.4375,1.461914,-0.3481445,-0.009277344,-0.206543,0.1826172,-0.1538086
2491,-5,3.1875,62.6875,1.484863,-0.2431641,0.02880859,-0.2006836,0.1875,-0.1523438
2495,-2.875,-5.6875,47.5625,1.523926,-0.002441406,-0.005371094,-0.1962891,0.1875,-0.1508789
2499,-3.875,-12.375,27.625,1.484863,0.07861328,-0.04736328,-0.1948242,0.1914063,-0.1508789
2503,1.75,-27.8125,11.9375,1.543457,0.1254883,-0.112793,-0.1938477,0.1923828,-0.1508789
2507,7.5625,-34.5,4,1.830078,0.1445313,-0.02832031,-0.1938477,0.1938477,-0.1469727
2511,9.5,-32.375,-9.75,1.969238,0.2768555,0.01367188,-0.1962891,0.1923828,-0.1455078
2515,4.5625,-19.125,-32.9375,2.372559,0.5644531,0.1210938,-0.1982422,0.1899414,-0.1455078
2519,-19.4375,12.75,-58.4375,2.480957,0.5991211,0.1865234,-0.199707,0.1884766,-0.144043
2523,-39.8125,49.5625,-82.875,2.554688,0.5136719,0.1518555,-0.2021484,0.1835938,-0.1469727
2527,-57.1875,74.9375,-106.4375,2.364746,0.4013672,0.06347656,-0.206543,0.1826172,-0.1455078
2531,-56.5625,76.25,-127.8125,2.240723,0.1333008,-0.04003906,-0.2114258,0.1787109,-0.1469727
2535,-40.8125,61.875,-147.9375,2.163086,-0.07617188,-0.06689453,-0.21875,0.1713867,-0.1494141
2539,-23.6875,42.8125,-165.4375,2.178711,-0.1577148,-0.04003906,-0.2246094,0.1650391,-0.1494141
2543,-13.375,29.6875,-181.6875,2.260254,-0.2124023,0.005859375,-0.2294922,0.1538086,-0.1538086
2547,-8.3125,23.5625,-197.8125,2.302734,-0.2900391,0.04052734,-0.2402344,0.1411133,-0.1538086
2551,-3.1875,20.1875,-212.375,2.302734,-0.4101563,0.04052734,-0.2509766,0.125,-0.15625
2555,-0.125,20.125,-228.625,2.283203,-0.4648438,0.02880859,-0.2578125,0.1152344,-0.15625
2559,-4.875,21.4375,-238.1875,2.178711,-0.5620117,0.01367188,-0.2700195,0.09619141,-0.1591797
2563,-8.5625,22,-243,2.027832,-0.7641602,-0.02050781,-0.2783203,0.07617188,-0.1616211
2567,-7.125,15.0625,-240.25,1.872559,-0.9155273,-0.02441406,-0.2827148,0.06005859,-0.1630859
2571,-7.5625,7.8125,-237.4375,1.771973,-0.9038086,0.02880859,-0.2890625,0.03857422,-0.1630859
2576,-12.3125,10.4375,-235.375,1.686523,-0.8725586,0.105957,-0.2949219,0.01513672,-0.1660156
2580,-16.625,14.4375,-227.625,1.550781,-0.9233398,0.1171875,-0.2998047,0,-0.1674805
2584,-20.9375,15.75,-220.9375,1.39209,-0.8842773,0.1479492,-0.2998047,-0.01953125,-0.1645508
2588,-25.125,18.8125,-212.0625,1.241211,-0.9619141,0.1328125,-0.2998047,-0.04052734,-0.168457
2592,-26.5625,22.6875,-197.9375,1.132324,-0.9389648,0.1787109,-0.2983398,-0.05322266,-0.168457
2596,-31.4375,31.4375,-187.3125,1.031738,-0.8881836,0.2021484,-0.2983398,-0.07324219,-0.1713867
2600,-37.1875,43,-173.5625,0.8769531,-0.8222656,0.2250977,-0.2949219,-0.08691406,-0.1738281
2604,-34.9375,48.3125,-164.6875,0.6362305,-0.8183594,0.1865234,-0.2900391,-0.09570313,-0.1782227
2608,-25.3125,49.375,-159.125,0.4194336,-0.7446289,0.159668,-0.2866211,-0.1108398,-0.1835938
2612,-2.9375,31.6875,-150.5625,0.1367188,-0.7211914,0.04052734,-0.2807617,-0.1245117,-0.1875
2616,17.1875,-1.9375,-146.6875,-0.06054688,-0.402832,-0.009277344,-0.2758789,-0.1333008,-0.1889648
2620,30.4375,-30.375,-146.375,-0.002441406,-0.2587891,0.06738281,-0.2734375,-0.1469727,-0.1904297
2624,20.3125,-33.875,-132.125,0.1289063,-0.2744141,0.2290039,-0.2709961,-0.1606445,-0.1850586
2628,-1.875,-11.8125,-103.9375,0.1831055,-0.2861328,0.355957,-0.2661133,-0.171875,-0.1796875
2632,-21.375,14.5625,-76.6875,0.03955078,-0.3208008,0.3520508,-0.2675781,-0.1757813,-0.1821289
2636,-26.125,27.8125,-58.5625,-0.1689453,-0.3911133,0.2866211,-0.2617188,-0.1831055,-0.1850586
2640,-12.0625,24.625,-51.75,-0.4287109,-0.5,0.1943359,-0.2578125,-0.1845703,-0.1865234
2644,6.875,13.375,-39.875,-0.5371094,-0.5385742,0.1674805,-0.253418,-0.1879883,-0.1889648
2648,16.1875,6.1875,-14.25,-0.5332031,-0.484375,0.1557617,-0.2519531,-0.1918945,-0.1889648
2652,18.25,2.9375,11.625,-0.5644531,-0.3676758,0.1289063,-0.2509766,-0.1918945,-0.1889648
2656,24.75,-8.25,32.1875,-0.5874023,-0.371582,0.04785156,-0.253418,-0.1933594,-0.1904297
2660,36.5,-24,50.875,-0.4907227,-0.3208008,0.001953125,-0.253418,-0.1904297,-0.1850586
2664,45,-40.5625,69.4375,-0.3320313,-0.2392578,-0.01318359,-0.2578125,-0.1904297,-0.1835938
2668,53.25,-55.125,85.25,-0.1381836,-0.1616211,-0.001464844,-0.2651367,-0.1845703,-0.1782227
2672,59.875,-63.25,96.3125,0.09033203,-0.05273438,0.04443359,-0.2724609,-0.1791992,-0.1713867
2676,60.25,-67,104,0.2607422,0.03222656,0.06347656,-0.2744141,-0.1743164,-0.1645508
2680,60.8125,-63.75,106.25,0.4350586,0.04736328,0.09423828,-0.2817383,-0.1679688,-0.15625
2684,57.75,-50.875,109.125,0.6289063,0.06298828,0.1674805,-0.2875977,-0.1591797,-0.1494141
2688,50.5,-24.5625,110.1875,0.7680664,0.06298828,0.1865234,-0.2924805,-0.1557617,-0.1469727
2692,37.875,-2.875,116.4375,0.7797852,0.1020508,0.1635742,-0.2958984,-0.1455078,-0.1416016
2696,32.5625,10.8125,107.625,0.7138672,-0.01025391,0.05175781,-0.2983398,-0.1367188,-0.1425781
2700,38.4375,0.25,98.0625,0.5239258,-0.04541016,-0.0859375,-0.2998047,-0.1293945,-0.1416016
2705,38.3125,-13.0625,97.375,0.6479492,-0.08398438,-0.08984375,-0.3032227,-0.1230469,-0.1416016
2709,19.5625,-2.9375,109.8125,0.8339844,-0.01025391,-0.01660156,-0.3066406,-0.1142578,-0.1386719
2713,-11.6875,17.125,122.875,0.9116211,-0.1347656,0.005859375,-0.3056641,-0.1044922,-0.1386719
2717,-18.5625,14.1875,137.25,0.7060547,-0.4570313,-0.1362305,-0.3066406,-0.09423828,-0.1425781
2721,-1.125,-26.6875,149.125,0.675293,-0.6821289,-0.1435547,-0.309082,-0.07568359,-0.1416016
2725,37.6875,-59,153.625,1.02002,-0.6708984,-0.04736328,-0.3115234,-0.06689453,-0.1386719
2729,43.4375,-57.4375,161.25,1.376465,-0.3095703,0.04052734,-0.3139648,-0.05322266,-0.1318359
2733,20.875,-35.5625,169.125,1.585938,-0.1269531,0.08251953,-0.3164063,-0.03564453,-0.1279297
2737,0.4375,-19.375,171.5,1.570313,-0.2626953,0.07519531,-0.3173828,-0.02441406,-0.1264648
2741,8.25,-18.8125,172.5,1.527832,-0.5966797,0.08642578,-0.3149414,-0.006835938,-0.125
2745,29.875,-22.5,177.4375,1.59375,-0.6396484,0.06738281,-0.3139648,0.01123047,-0.1235352
2749,44,-22.375,180.375,1.682617,-0.3989258,-0.02050781,-0.3105469,0.02148438,-0.1225586
2753,41.3125,-12.5,170.3125,1.744629,-0.2275391,-0.05517578,-0.3066406,0.03759766,-0.1181641
2757,29.875,-5.9375,168.75,1.608887,-0.2861328,-0.1206055,-0.3032227,0.05273438,-0.1196289
2761,30.25,-8.625,166.5,1.605469,-0.4648438,-0.1206055,-0.2973633,0.06396484,-0.1196289
2765,38.1875,-18.1875,165.25,1.608887,-0.4804688,-0.109375,-0.2915039,0.07861328,-0.1210938
2769,41.0625,-15.75,160.0625,1.76416,-0.4648438,-0.02832031,-0.2851563,0.09130859,-0.1181641
2773,35.75,-2.25,156.8125,1.756348,-0.421875,-0.001464844,-0.2817383,0.09863281,-0.1225586
2777,32.875,4.8125,154.0625,1.597656,-0.421875,-0.1015625,-0.2734375,0.1123047,-0.1210938
2781,41.4375,-5.4375,150.0625,1.512207,-0.3325195,-0.2363281,-0.2651367,0.1235352,-0.1225586
2785,46.9375,-19.6875,134.5625,1.585938,-0.1499023,-0.2207031,-0.2617188,0.1323242,-0.1235352
2789,43,-11.75,121.5625,1.768066,-0.1499023,-0.112793,-0.2519531,0.1411133,-0.1235352
2793,28.8125,2.9375,114.0625,1.725586,-0.1191406,-0.06298828,-0.2470703,0.1489258,-0.1235352
2797,14.625,19.375,108.25,1.69043,-0.1967773,-0.03613281,-0.2412109,0.1547852,-0.1279297
2801,8.375,28.6875,103.625,1.5625,-0.2626953,-0.06689453,-0.234375,0.1625977,-0.1289063
2805,14.8125,26.0625,102.1875,1.461914,-0.2783203,-0.2055664,-0.2270508,0.1689453,-0.1318359
2809,24.75,5.4375,94.5,1.473633,0.09033203,-0.2705078,-0.2236328,0.1748047,-0.1347656
2813,24.4375,-2.0625,68.875,1.73291,0.2729492,-0.1938477,-0.21875,0.1801758,-0.1333008
2817,14.125,3.375,47.1875,1.868652,0.3974609,-0.1513672,-0.2138672,0.1835938,-0.1347656
2821,6.8125,5.8125,26.9375,1.984863,0.3935547,-0.1782227,-0.2114258,0.1850586,-0.1347656
2825,-3,14.5625,3.25,2.166992,0.5410156,-0.1323242,-0.2104492,0.1850586,-0.1357422
2829,-25.5,31.8125,-21.125,2.248535,0.6381836,-0.1513672,-0.2089844,0.1860352,-0.1357422
2834,-36.0625,35.3125,-49.6875,2.163086,0.4516602,-0.1743164,-0.2080078,0.1850586,-0.1357422
2838,-27.125,28.75,-79.5,2.217285,0.284668,-0.1206055,-0.2138672,0.1811523,-0.1386719
2842,-29,34.375,-103.875,2.322266,0.2299805,-0.03222656,-0.2163086,0.1762695,-0.1386719
2846,-41.4375,50.625,-120.9375,2.268066,0.1137695,-0.01660156,-0.2197266,0.1699219,-0.1386719
2850,-43.5625,54.25,-135.3125,2.074219,-0.07617188,-0.07080078,-0.2280273,0.1635742,-0.1386719
2854,-30.1875,37.5,-156.8125,1.977051,-0.2314453,-0.1552734,-0.2353516,0.1547852,-0.1401367
2858,-18.0625,26.25,-176.5,2.082031,-0.2084961,-0.07080078,-0.2412109,0.1474609,-0.1416016
2862,-25.6875,29.8125,-191,2.097168,-0.2744141,-0.04003906,-0.2495117,0.1347656,-0.144043
2866,-33.3125,37.625,-196.375,2.058594,-0.4335938,-0.02441406,-0.2592773,0.1201172,-0.1425781
2870,-36.6875,39.75,-199.875,1.950195,-0.5581055,-0.04736328,-0.2651367,0.1113281,-0.144043
2874,-30.3125,34.8125,-206.125,1.918945,-0.6669922,-0.01318359,-0.2744141,0.09619141,-0.1494141
2878,-23.1875,30.875,-213.75,1.856934,-0.6748047,-0.01660156,-0.2807617,0.07763672,-0.1494141
2882,-19.9375,24,-219.75,1.748535,-0.7602539,-0.005371094,-0.2841797,0.06396484,-0.1508789
2886,-2.0625,2.125,-217.9375,1.585938,-0.8066406,-0.06689453,-0.2915039,0.04492188,-0.1538086
2890,7.625,-18.25,-221.6875,1.794922,-0.5,0.09423828,-0.2973633,0.02392578,-0.1523438
2894,-1.375,-3,-229.9375,1.926758,-0.550293,0.1826172,-0.3017578,0.007324219,-0.1538086
2898,-23.9375,26.9375,-228.9375,1.86084,-0.5927734,0.1865234,-0.3041992,-0.01318359,-0.1508789
2902,-35.4375,44.1875,-218.375,1.554688,-0.7211914,0.1132813,-0.3041992,-0.03320313,-0.1547852
2906,-35.375,47.375,-212.75,1.302734,-0.7832031,0.06738281,-0.3032227,-0.04931641,-0.1577148
2910,-22.3125,37.0625,-208.3125,1.13623,-0.7949219,0.05175781,-0.3007813,-0.06689453,-0.1630859
2914,-19.5,38.125,-207.25,1.117188,-0.7133789,0.1713867,-0.2973633,-0.08837891,-0.1674805
2918,-29.75,57.5,-196.875,1.016113,-0.7641602,0.1943359,-0.293457,-0.09960938,-0.1728516
2922,-40.625,74.3125,-172.75,0.7333984,-0.7485352,0.140625,-0.2890625,-0.1166992,-0.1767578
2926,-40.6875,76.8125,-146.8125,0.4541016,-0.6938477,0.06738281,-0.2792969,-0.1308594,-0.1850586
2930,-29.1875,60.25,-132.5,0.206543,-0.565918,0.02490234,-0.2758789,-0.1367188,-0.1904297
2934,-9.625,36.4375,-134.5,0.09033203,-0.581543,0.05957031,-0.2685547,-0.1494141,-0.1958008
2938,9.0625,22.1875,-132.3125,-0.01025391,-0.6123047,0.1367188,-0.2617188,-0.1606445,-0.1972656
2942,12.875,21.6875,-115.4375,-0.1030273,-0.5541992,0.1518555,-0.2592773,-0.1679688,-0.1987305
2946,6.625,25.875,-90.625,-0.2080078,-0.5307617,0.1098633,-0.253418,-0.1767578,-0.199707
2950,4.125,26.0625,-63.3125,-0.3901367,-0.4882813,0.06738281,-0.2485352,-0.1831055,-0.2011719
2954,12,16.1875,-45.9375,-0.5141602,-0.453125,0.02099609,-0.2460938,-0.1879883,-0.2026367
2958,23.5,4,-32.1875,-0.5449219,-0.3637695,0.009765625,-0.2436523,-0.1904297,-0.2026367
2963,28,-5.625,-16.5,-0.5141602,-0.2392578,0.02880859,-0.2426758,-0.1933594,-0.2011719
2967,26.3125,-7.8125,1.3125,-0.4594727,-0.2045898,0.04785156,-0.2426758,-0.1958008,-0.199707
2971,23.875,-5.5625,19.4375,-0.4633789,-0.1694336,0.03662109,-0.2436523,-0.1967773,-0.199707
2975,22.75,-11.5625,37.8125,-0.4711914,-0.1889648,-0.02050781,-0.2446289,-0.1958008,-0.1958008
2979,24.9375,-23.5,57.1875,-0.4287109,-0.1694336,-0.06298828,-0.2470703,-0.1967773,-0.1943359
2983,28.375,-39.5625,74.6875,-0.296875,-0.1733398,-0.07080078,-0.2509766,-0.1933594,-0.1918945
2987,35.625,-55.5625,90.6875,-0.1381836,-0.1459961,-0.04003906,-0.2568359,-0.1845703,-0.1889648
2991,41.5,-67.6875,101.5,0.03955078,-0.1308594,0.001953125,-0.2626953,-0.1821289,-0.1821289
2995,51.1875,-72.9375,109.8125,0.2568359,-0.1308594,0.09033203,-0.2685547,-0.1757813,-0.175293
2999,57.0625,-67.375,113.8125,0.4272461,-0.03369141,0.1328125,-0.2768555,-0.1679688,-0.1674805
3003,51.75,-53.8125,117.6875,0.6015625,-0.02978516,0.1748047,-0.2817383,-0.1606445,-0.1630859
3007,45.0625,-33.25,124.6875,0.7333984,-0.08007813,0.159668,-0.2875977,-0.1542969,-0.15625
3011,35.1875,-18.125,133.875,0.7412109,-0.02587891,0.105957,-0.2924805,-0.1430664,-0.1538086
3015,25,-10.75,142.625,0.7568359,-0.1074219,0.07910156,-0.293457,-0.1333008,-0.1508789
3019,18.5,-3.75,148.125,0.8417969,-0.1811523,0.09814453,-0.3007813,-0.1206055,-0.1523438
3023,15.125,4,155.125,0.9736328,-0.2275391,0.07519531,-0.3032227,-0.1069336,-0.1508789
3027,-1.25,15.1875,160.375,1.109375,-0.06054688,0.1367188,-0.3032227,-0.09814453,-0.1484375
3031,-16.3125,28.125,162.0625,1.055176,-0.2509766,0.07128906,-0.3041992,-0.07958984,-0.1523438
3035,-18.8125,19.8125,168,0.9272461,-0.3481445,0.02880859,-0.3066406,-0.06445313,-0.1547852
3039,-15.9375,5.25,177.1875,1.035645,-0.46875,0.09033203,-0.3041992,-0.05175781,-0.1538086
3043,-14.25,2.3125,187.4375,1.299316,-0.355957,0.1479492,-0.3056641,-0.03466797,-0.1547852
3047,-34.0625,18.25,186.5,1.531738,-0.1694336,0.2749023,-0.3032227,-0.01464844,-0.15625
3051,-54.375,46.6875,176.1875,1.46582,-0.2861328,0.2558594,-0.3007813,-0.0004882813,-0.1577148
3055,-68.9375,49.75,173.8125,1.202148,-0.4492188,0.1713867,-0.2958984,0.01855469,-0.1606445
3059,-52.5625,19.375,176,1.05127,-0.9389648,0.08642578,-0.2915039,0.03613281,-0.1630859
3063,4.6875,-21.4375,181.875,1.22168,-1.121582,0.05957031,-0.2866211,0.05126953,-0.1630859
3067,31.5625,-40.6875,181,1.523926,-0.6513672,0.1713867,-0.2817383,0.06640625,-0.1606445
3071,16.75,-22.75,181.4375,1.748535,-0.421875,0.1865234,-0.2768555,0.08105469,-0.15625
3075,-0.6875,-9.0625,179.75,1.597656,-0.3950195,0.09033203,-0.2734375,0.09130859,-0.15625
3079,-0.5625,-14.9375,172.25,1.523926,-0.4726563,0.03271484,-0.2626953,0.1064453,-0.1547852
3083,9.6875,-26.5625,163.8125,1.608887,-0.4179688,0.02880859,-0.2553711,0.1225586,-0.1547852
3087,6.5,-18.4375,154.1875,1.837891,-0.2939453,0.1635742,-0.2509766,0.1298828,-0.1523438
3092,-11.5625,5.5625,154.0625,1.830078,-0.2744141,0.1982422,-0.2412109,0.1401367,-0.1508789
3096,-24.9375,20.6875,147.375,1.72168,-0.3134766,0.2060547,-0.2329102,0.1538086,-0.1484375
3100,-18.625,18.4375,136.3125,1.539551,-0.5,0.09033203,-0.2255859,0.1601563,-0.1508789
3104,1.1875,-4.75,127.5625,1.508301,-0.4804688,0.04785156,-0.2172852,0.1699219,-0.1494141
3108,18,-23.875,112.5625,1.624512,-0.3095703,0.09423828,-0.2089844,0.1772461,-0.1508789
3112,23.9375,-24.6875,95.75,1.771973,-0.1694336,0.1289063,-0.206543,0.1811523,-0.1494141
3116,17.0625,-18,85.1875,1.791016,-0.02197266,0.1020508,-0.2006836,0.1860352,-0.1508789
3120,8.4375,-8.6875,69.875,1.826172,0.04003906,0.1210938,-0.1948242,0.1899414,-0.1494141
3124,3.875,-1.0625,55.75,1.810547,0.03222656,0.09423828,-0.1914063,0.1948242,-0.1484375
3128,2.25,-1.0625,37.8125,1.775879,0.09033203,0.09423828,-0.1875,0.1972656,-0.1484375
3132,4.8125,-4.5625,15.375,1.779785,0.1137695,0.07519531,-0.1865234,0.1987305,-0.1484375
3136,9.375,-10.1875,-9.4375,1.810547,0.105957,0.08251953,-0.1889648,0.1987305,-0.1494141
3140,10.875,-10.1875,-26.6875,2.016113,0.1601563,0.1289063,-0.1889648,0.1972656,-0.1494141
3144,-0.1875,6.3125,-42.6875,2.155273,0.284668,0.1982422,-0.1914063,0.1948242,-0.1494141
3148,-14.5,24.875,-64.9375,2.151367,0.3232422,0.1518555,-0.1899414,0.1938477,-0.1494141
3152,-12.9375,25.375,-93.1875,2.046875,0.1098633,0.04785156,-0.1962891,0.1884766,-0.1508789
3156,0.625,14.0625,-114.8125,2.085938,0.04394531,0.01367188,-0.2021484,0.1850586,-0.1523438
3160,7.625,4.75,-137.9375,2.182617,0.008789063,-0.001464844,-0.2055664,0.1772461,-0.1508789
3164,4.8125,3.5625,-161.375,2.275391,-0.03369141,0.01708984,-0.2163086,0.1674805,-0.1547852
3168,-3.4375,7.9375,-177.0625,2.26416,-0.1655273,0.005859375,-0.2270508,0.1547852,-0.1538086
3172,-8.75,9.6875,-191.8125,2.229004,-0.2275391,-0.02832031,-0.234375,0.1489258,-0.1538086
3176,-14,12.25,-208.9375,2.206055,-0.3793945,-0.02441406,-0.2460938,0.1323242,-0.1547852
3180,-17.75,12.75,-220.625,2.10498,-0.5776367,-0.03222656,-0.2543945,0.1152344,-0.1547852
3184,-18.8125,10.125,-227.25,2.035156,-0.7368164,0.001953125,-0.2651367,0.1049805,-0.1577148
3188,-25.3125,12.0625,-224.5,1.837891,-1.207031,-0.02441406,-0.2758789,0.08740234,-0.1577148
3192,-21.0625,6.5,-220.125,1.702148,-0.8183594,-0.01318359,-0.2817383,0.06640625,-0.1577148
3196,-7.75,-23.5625,-220.9375,1.481445,-0.7949219,-0.07470703,-0.2900391,0.05517578,-0.1577148
3200,4.5,-52.5,-232.625,1.670898,-0.6513672,0.07519531,-0.2949219,0.03125,-0.1538086
3204,-7.8125,-41.75,-238.75,1.872559,-0.5737305,0.2519531,-0.3017578,0.008789063,-0.1508789
3208,-29.9375,-7,-236.4375,1.884277,-0.6435547,0.2905273,-0.3056641,-0.004394531,-0.1469727
3212,-52.0625,29.5,-223.125,1.706055,-0.7329102,0.2675781,-0.3081055,-0.02587891,-0.1469727
3216,-66.6875,54.5625,-206.375,1.415527,-0.9077148,0.2133789,-0.3081055,-0.04589844,-0.1523438
3221,-64.8125,63.3125,-189.75,1.097656,-0.9467773,0.1787109,-0.3056641,-0.05810547,-0.15625
3225,-52.3125,64,-182.25,0.8999023,-0.9272461,0.1748047,-0.3032227,-0.07177734,-0.1630859
3229,-38.8125,62.4375,-180.5,0.7294922,-0.8496094,0.1328125,-0.2973633,-0.08837891,-0.168457
3233,-30.3125,62.25,-173.9375,0.5668945,-0.7524414,0.125,-0.2924805,-0.09960938,-0.1728516
3237,-22.4375,57.625,-157.9375,0.3613281,-0.7753906,0.105957,-0.2851563,-0.1157227,-0.1782227
3241,-11.5625,49.75,-143.25,0.1557617,-0.6474609,0.09814453,-0.2807617,-0.1269531,-0.1835938
3245,-8.875,44.25,-128.6875,0.1445313,-0.4882813,0.140625,-0.2783203,-0.1342773,-0.1865234
3249,-21.9375,60.6875,-118,0.1132813,-0.4067383,0.1826172,-0.2700195,-0.1469727,-0.1928711
3253,-27.6875,72.625,-94.125,-0.1650391,-0.5581055,0.07128906,-0.2626953,-0.1557617,-0.1987305
3257,-22.75,65.625,-70.3125,-0.4248047,-0.5581055,0.02490234,-0.2592773,-0.1591797,-0.2041016
3261,-4,43.625,-56,-0.5566406,-0.4960938,-0.02441406,-0.253418,-0.1630859,-0.2094727
3265,15.8125,15.8125,-51.5625,-0.6572266,-0.387207,-0.04003906,-0.2495117,-0.1679688,-0.2094727
3269,23.5625,-6.5,-38.375,-0.6611328,-0.324707,0.01708984,-0.2470703,-0.1704102,-0.2109375
3273,25.4375,-15.1875,-17,-0.5874023,-0.3520508,0.07519531,-0.2470703,-0.1782227,-0.2094727
3277,27.3125,-18.375,10,-0.5371094,-0.2822266,0.07128906,-0.2470703,-0.1757813,-0.2041016
3281,28.5625,-24.9375,32.75,-0.5102539,-0.1772461,0.01708984,-0.2485352,-0.1782227,-0.2055664
3285,32.9375,-37.1875,48.3125,-0.4248047,-0.1308594,-0.009277344,-0.2519531,-0.1767578,-0.2026367
3289,38.75,-51.4375,59.0625,-0.2890625,-0.1074219,-0.03222656,-0.2568359,-0.1733398,-0.1987305
3293,42.9375,-62.4375,71.5625,-0.1225586,-0.07617188,0.009765625,-0.2592773,-0.1704102,-0.1918945
3297,45.875,-70.6875,84.25,0.04345703,-0.03369141,0.03271484,-0.2651367,-0.1669922,-0.1850586
3301,45.8125,-71.875,94.25,0.2490234,0.02050781,0.07910156,-0.2724609,-0.1630859,-0.1782227
3305,41.0625,-63.4375,102,0.4116211,0.05126953,0.1518555,-0.2758789,-0.1557617,-0.1713867
3309,33.5,-44.875,108.25,0.5820313,-0.002441406,0.2094727,-0.2841797,-0.1508789,-0.1645508
3313,26.5625,-22.875,117.4375,0.6328125,-0.08007813,0.2094727,-0.2866211,-0.140625,-0.1616211
3317,19.75,-5.5625,126.9375,0.675293,-0.07617188,0.1865234,-0.2924805,-0.1333008,-0.1616211
3321,7.8125,11.6875,135.5,0.7060547,-0.07226563,0.1787109,-0.293457,-0.1230469,-0.1616211
3325,-6.0625,28.5625,142.8125,0.6948242,-0.1420898,0.1479492,-0.2973633,-0.1083984,-0.1616211
3329,-15.5625,31.125,149.5,0.578125,-0.3598633,0.02490234,-0.2983398,-0.09716797,-0.1630859
3333,-3.1875,7.3125,157.9375,0.5161133,-0.6201172,-0.07080078,-0.2998047,-0.08447266,-0.1660156
3337,22.9375,-23.9375,164.125,0.6674805,-0.5385742,-0.05908203,-0.3017578,-0.07080078,-0.1645508
3341,24.5,-27.5,164.375,0.9541016,-0.3325195,0.04785156,-0.3017578,-0.05810547,-0.1616211
3345,11.375,-14.5625,170.25,1.101563,-0.421875,0.07519531,-0.3032227,-0.04199219,-0.1616211
3350,7.5,-8.75,168.4375,1.09375,-0.5776367,0.04785156,-0.3032227,-0.02685547,-0.1606445
3354,26.5,-18.75,166.9375,1.175293,-0.6821289,-0.009277344,-0.3017578,-0.01708984,-0.1591797
3358,40.5,-26.5,161.5,1.256348,-0.6552734,0.04052734,-0.3007813,-0.001953125,-0.1591797
3362,44.6875,-25.625,165.9375,1.376465,-0.5541992,0.07128906,-0.2973633,0.01269531,-0.15625
3366,30.125,-10.3125,175.9375,1.597656,-0.4882813,0.1557617,-0.2973633,0.02246094,-0.1547852
3370,16.6875,9.3125,175.75,1.624512,-0.581543,0.1328125,-0.2924805,0.03857422,-0.1547852
3374,20.5625,6.9375,175.4375,1.496582,-0.5966797,0.04443359,-0.2866211,0.05371094,-0.1591797
3378,24.75,-4.9375,169.125,1.450195,-0.6669922,0.02099609,-0.2827148,0.06494141,-0.15625
3382,31.1875,-18.0625,174.375,1.473633,-0.8105469,0.01367188,-0.2758789,0.07763672,-0.1577148
3386,38.4375,-29.8125,187.75,1.698242,-0.5,0.03662109,-0.2700195,0.09228516,-0.15625
3390,20.4375,-15.625,172.125,1.938477,-0.1538086,0.1943359,-0.2661133,0.1010742,-0.1547852
3394,-7.8125,12.3125,160.375,1.918945,-0.2861328,0.2133789,-0.2592773,0.1162109,-0.1547852
3398,-19.75,25.625,151.9375,1.686523,-0.6005859,0.2133789,-0.2485352,0.1289063,-0.15625
3402,-6.75,13.8125,153.625,1.438477,-0.7949219,0.1171875,-0.2426758,0.1376953,-0.15625
3406,25.9375,-20,156.5625,1.477539,-0.7094727,0.02880859,-0.2329102,0.1489258,-0.15625
3410,48,-42.5,141.4375,1.768066,-0.3173828,0.1132813,-0.2246094,0.1586914,-0.1577148
3414,40,-24.3125,124.1875,2.039063,0.004882813,0.2290039,-0.2211914,0.1625977,-0.15625
3418,20.4375,-4.4375,109.3125,2.027832,0.09033203,0.2133789,-0.2138672,0.1689453,-0.15625
3422,19.6875,2.4375,88.0625,1.96582,0.05517578,0.1210938,-0.2055664,0.1748047,-0.1547852
3426,21.5,1.3125,68.1875,2.03125,0.1640625,0.1210938,-0.2045898,0.1801758,-0.1577148
3430,18.1875,8.5625,47.625,2.093262,0.2148438,0.144043,-0.1982422,0.1811523,-0.15625
3434,15.6875,16.6875,26.8125,2.0625,0.2729492,0.1132813,-0.1962891,0.1835938,-0.1606445
3438,15.0625,17.75,1.6875,2.016113,0.3310547,0.04052734,-0.1948242,0.1826172,-0.1630859
3442,19.25,13.875,-26.6875,2.004395,0.2885742,-0.009277344,-0.1938477,0.1835938,-0.1630859
3446,24.875,7,-54.6875,1.961914,0.3120117,-0.02832031,-0.1972656,0.1787109,-0.1660156
3450,22.1875,2.8125,-80.625,2.066406,0.3388672,0.04443359,-0.1982422,0.1748047,-0.1674805
3454,6.9375,19,-100.25,2.202148,0.3701172,0.140625,-0.203125,0.1699219,-0.1699219
3458,-15.1875,42.6875,-118.0625,2.174805,0.2807617,0.1289063,-0.2104492,0.1625977,-0.1738281
3462,-25.5,52.5,-133.75,2.000488,-0.02197266,0.05957031,-0.2114258,0.1586914,-0.1728516
3466,-19.375,45.0625,-145.5625,1.856934,-0.1811523,0.02490234,-0.2197266,0.1489258,-0.1767578
3470,-13.875,33.4375,-155.625,1.856934,-0.2275391,0.05957031,-0.2255859,0.1411133,-0.1767578
3474,-9.6875,24.3125,-166.375,1.884277,-0.2548828,0.07128906,-0.2319336,0.1323242,-0.1782227
3479,-4.5,14.25,-181.25,1.922852,-0.2626953,0.07910156,-0.2387695,0.1201172,-0.1782227
3483,-2.9375,8.6875,-194.5625,1.973145,-0.3208008,0.105957,-0.2460938,0.1064453,-0.1796875
3487,-3.6875,5.5,-204.875,1.950195,-0.3481445,0.09423828,-0.253418,0.09619141,-0.1821289
3491,-2.1875,-4.25,-210.0625,1.903809,-0.5,0.07128906,-0.2626953,0.07861328,-0.1835938
3495,-0.4375,-13.75,-217.5625,1.884277,-0.5307617,0.105957,-0.2709961,0.06005859,-0.1806641
3499,1.1875,-18.9375,-219.3125,1.89209,-0.6357422,0.1289063,-0.2744141,0.04638672,-0.1821289
3503,1.0625,-23.25,-220.9375,1.783691,-0.5,0.1518555,-0.2827148,0.02880859,-0.1796875
3507,0.3125,-26.875,-223.375,1.760254,-0.5737305,0.125,-0.2875977,0.006347656,-0.175293
3511,-2.125,-27.75,-226.0625,1.748535,-0.5698242,0.1635742,-0.2915039,-0.006835938,-0.175293
3515,-9.75,-22.125,-222.5625,1.670898,-0.6162109,0.2172852,-0.2958984,-0.02832031,-0.1728516
3519,-17.125,-13,-214.6875,1.442383,-0.6787109,0.1674805,-0.2973633,-0.04931641,-0.1728516
3523,-21.75,-15.8125,-200.625,1.241211,-0.6396484,0.1289063,-0.2983398,-0.06054688,-0.1728516
3527,-18.375,-20.75,-199.5625,1.117188,-0.6708984,0.1289063,-0.2958984,-0.07958984,-0.1699219
3531,-13.1875,-26.375,-194.875,0.9814453,-0.6474609,0.1557617,-0.2949219,-0.09814453,-0.1674805
3535,-18.625,-26.875,-184.625,0.8769531,-0.5893555,0.2060547,-0.293457,-0.109375,-0.168457
3539,-23.75,-14.4375,-174.3125,0.7993164,-0.5698242,0.3095703,-0.2900391,-0.1254883,-0.1674805
3543,-29.875,2.5,-167.8125,0.59375,-0.5268555,0.2709961,-0.2851563,-0.1420898,-0.168457
3547,-27.625,5.8125,-156.3125,0.3149414,-0.6513672,0.1787109,-0.2817383,-0.1518555,-0.1630859
3551,-16.125,-4.25,-140.8125,0.1557617,-0.5581055,0.1787109,-0.2768555,-0.1630859,-0.168457
3555,-14.0625,-4.3125,-128.5625,0.1328125,-0.4492188,0.2480469,-0.2734375,-0.1733398,-0.168457
3559,-18.875,7.625,-108.4375,0.05126953,-0.4179688,0.2944336,-0.2700195,-0.1831055,-0.168457
3563,-25.625,22.6875,-92.0625,-0.09521484,-0.3950195,0.3291016,-0.2636719,-0.1879883,-0.1728516
3567,-27.5625,41.75,-76,-0.2543945,-0.4296875,0.3173828,-0.2592773,-0.1958008,-0.1738281
3571,-25,48.5625,-57.6875,-0.5253906,-0.5151367,0.2060547,-0.2568359,-0.1992188,-0.1767578
3575,-11,39.4375,-37.8125,-0.7114258,-0.4765625,0.09423828,-0.2509766,-0.203125,-0.1835938
3579,3.625,14.3125,-14.9375,-0.831543,-0.5,0.06347656,-0.2485352,-0.2045898,-0.1865234
3583,15.8125,-7.5625,8.25,-0.7734375,-0.4101563,0.07519531,-0.2485352,-0.2055664,-0.1850586
3587,21.5,-19.625,30.5625,-0.6186523,-0.3481445,0.144043,-0.2509766,-0.2045898,-0.1850586
3591,24.3125,-22.1875,49.8125,-0.4672852,-0.3134766,0.1518555,-0.253418,-0.2016602,-0.1821289
3595,28.0625,-24,68.8125,-0.3706055,-0.2587891,0.08642578,-0.2543945,-0.2006836,-0.1767578
3599,29.5,-29.9375,87.625,-0.1845703,-0.2275391,0.05957031,-0.2592773,-0.1958008,-0.1767578
3603,30.9375,-36,105.8125,-0.03320313,-0.2045898,0.05175781,-0.2636719,-0.1879883,-0.1728516
3608,33.3125,-42.3125,119.5,0.1484375,-0.1538086,0.08642578,-0.2675781,-0.1821289,-0.1674805
3612,35.125,-38.5625,124.375,0.3808594,-0.1381836,0.1518555,-0.2758789,-0.1743164,-0.1645508
3616,34.8125,-26.9375,128.1875,0.5473633,-0.1113281,0.1904297,-0.2827148,-0.1645508,-0.1606445
3620,27.375,-7.75,136.75,0.6635742,-0.1733398,0.1904297,-0.2851563,-0.1567383,-0.15625
3624,19.125,5.3125,151.25,0.6791992,-0.1967773,0.1367188,-0.2900391,-0.1455078,-0.15625
3628,10.625,11.875,163.0625,0.7680664,-0.09179688,0.1210938,-0.293457,-0.1293945,-0.1547852
3632,-0.4375,23,161.9375,0.8691406,-0.2084961,0.1367188,-0.2949219,-0.1230469,-0.15625
3636,1.875,23.3125,165.9375,0.7875977,-0.3637695,0.06347656,-0.2983398,-0.1044922,-0.1591797
3640,10.3125,9.25,172.4375,0.8110352,-0.4648438,0.01708984,-0.2998047,-0.08935547,-0.1606445
3644,16.9375,-3.125,180.5625,0.9853516,-0.4067383,0.04443359,-0.3032227,-0.07568359,-0.1606445
3648,9.25,-0.3125,187,1.159668,-0.2705078,0.04443359,-0.3041992,-0.06054688,-0.1591797
3652,-2.25,-1.1875,188.375,1.314453,-0.2163086,0.06347656,-0.3032227,-0.04052734,-0.1591797
3656,-6.5625,7.8125,179.125,1.419434,-0.4453125,0.1367188,-0.3032227,-0.02929688,-0.1616211
3660,-7.375,8.3125,181.9375,1.330078,-0.5,0.1674805,-0.3017578,-0.01318359,-0.1606445
3664,3.25,0,190.1875,1.361328,-0.6591797,0.1098633,-0.2998047,0.006347656,-0.1616211
3668,11.0625,-12.875,190.125,1.446289,-0.4067383,0.08642578,-0.2949219,0.01855469,-0.1591797
3672,15.1875,-18,177.5625,1.578125,-0.3793945,0.1020508,-0.2915039,0.03369141,-0.1591797
3676,5.8125,-6.3125,168.125,1.713867,-0.4067383,0.1826172,-0.2875977,0.05273438,-0.1577148
3680,-12.4375,14.1875,164.3125,1.725586,-0.5966797,0.2480469,-0.2827148,0.06103516,-0.1591797
3684,-8.8125,17,169.3125,1.531738,-0.8535156,0.1748047,-0.2768555,0.07763672,-0.1577148
3688,11.375,0.625,174,1.477539,-0.8417969,0.1132813,-0.2685547,0.09130859,-0.1606445
3692,30.25,-14.75,165.3125,1.59375,-0.6513672,0.1328125,-0.2651367,0.1010742,-0.1591797
3696,47.0625,-17.625,149.5625,1.72168,-0.5698242,0.09033203,-0.2553711,0.1123047,-0.1591797
3700,51.125,-11.625,132.25,1.86084,-0.355957,0.1328125,-0.2495117,0.1225586,-0.1591797
3704,39.5,7.8125,126.125,1.930664,-0.2163086,0.1518555,-0.2470703,0.1289063,-0.1616211
3708,25.5625,27.6875,125.9375,1.802734,-0.1499023,0.09033203,-0.2387695,0.1362305,-0.1645508
3712,13.4375,28.6875,116.3125,1.686523,-0.04882813,0.04785156,-0.2294922,0.1435547,-0.1674805
3716,9.5625,28.125,103.0625,1.694336,-0.09960938,0.05957031,-0.2246094,0.1499023,-0.1674805
3720,1.75,28.4375,91.1875,1.69043,-0.1308594,0.1171875,-0.2163086,0.15625,-0.1713867
3724,4.1875,29.1875,85.5625,1.605469,-0.2666016,0.140625,-0.2114258,0.1611328,-0.1713867
3728,14.25,14.5625,82.0625,1.496582,-0.1420898,0.07519531,-0.206543,0.1635742,-0.1728516
3732,30.6875,-9,67.0625,1.543457,-0.02197266,0.01708984,-0.2006836,0.1689453,-0.175293
3737,45.875,-30.75,43.6875,1.647949,0.1601563,0.01708984,-0.1972656,0.1699219,-0.175293
3741,52.6875,-39.3125,17,1.794922,0.284668,0.05566406,-0.1962891,0.1689453,-0.1767578
3745,47.375,-36.875,-1.875,2.000488,0.4086914,0.05566406,-0.199707,0.1699219,-0.1767578
3749,26,-18.3125,-18.4375,2.124512,0.5371094,0.1289063,-0.199707,0.1674805,-0.1782227
3753,-1.125,10.5,-37.625,2.198242,0.5214844,0.1748047,-0.2006836,0.1635742,-0.1782227
3757,-19.875,33.75,-60.6875,2.089844,0.3427734,0.1020508,-0.2055664,0.1611328,-0.1796875
3761,-27.375,40.3125,-83.0625,1.98877,0.2495117,0.05566406,-0.206543,0.1577148,-0.1806641
3765,-33.1875,43.9375,-103.9375,1.98877,0.1835938,0.02880859,-0.2089844,0.15625,-0.1806641
3769,-37.8125,48.1875,-120.9375,1.984863,0.05517578,0.02880859,-0.2138672,0.1499023,-0.1821289
3773,-39.625,46.75,-133.4375,1.950195,-0.01025391,0.009765625,-0.2172852,0.1435547,-0.1806641
3777,-36.9375,36.875,-147.5,1.969238,-0.06054688,-0.03222656,-0.2211914,0.1386719,-0.1835938
3781,-31.25,24.75,-167,2.03125,-0.1381836,-0.02832031,-0.2294922,0.1313477,-0.1865234
3785,-19.3125,8.5,-185.6875,1.958008,-0.1811523,-0.06689453,-0.2353516,0.1176758,-0.1865234
3789,-3.3125,-16.6875,-192.5625,1.748535,-0.3017578,-0.1591797,-0.2436523,0.1088867,-0.1865234
3793,15.5625,-64.125,-197,1.601563,-0.2978516,-0.2705078,-0.253418,0.09228516,-0.1850586
3797,31.5,-113.1875,-210.5625,1.856934,-0.2861328,-0.2705078,-0.2661133,0.07763672,-0.1782227
3801,21.5,-127.75,-227.875,2.318359,-0.2392578,-0.03613281,-0.2758789,0.06396484,-0.1713867
3805,-18.75,-88,-236.125,2.574219,-0.2163086,0.2441406,-0.2866211,0.04150391,-0.1630859
3809,-72.8125,-26.8125,-223.75,2.384277,-0.5229492,0.3598633,-0.2973633,0.02148438,-0.1577148
3813,-98.625,14.0625,-206.6875,1.992676,-0.7871094,0.2788086,-0.3007813,0.01025391,-0.1547852
3817,-94,20.6875,-209.625,1.72168,-1.012695,0.2021484,-0.3032227,-0.005859375,-0.1577148
3821,-60.4375,8.25,-224.25,1.376465,-1.121582,0.1748047,-0.3032227,-0.02441406,-0.1577148
3825,-29.25,-14.8125,-221.6875,1.186523,-1.133301,0.2211914,-0.3056641,-0.03808594,-0.1538086
3829,-13.125,-24.25,-210.25,1.19043,-0.9736328,0.2944336,-0.3041992,-0.05810547,-0.1547852
3833,-4.375,-22.8125,-194.625,1.194336,-0.7563477,0.3056641,-0.3066406,-0.078125,-0.1538086
3837,-9.9375,-10.1875,-184.875,1.186523,-0.5698242,0.340332,-0.3056641,-0.09179688,-0.1508789
3841,-14.875,13.6875,-175.3125,1.023926,-0.6748047,0.340332,-0.3032227,-0.1083984,-0.1538086
3845,-12.25,21.625,-161.125,0.7099609,-0.6279297,0.2675781,-0.2998047,-0.1254883,-0.1538086
3849,-8.375,22.1875,-147.4375,0.578125,-0.6083984,0.2749023,-0.2949219,-0.1333008,-0.15625
3853,-14.0625,30.125,-135.8125,0.4775391,-0.46875,0.2905273,-0.2915039,-0.1455078,-0.1577148
3857,-6.0625,39.8125,-124.6875,0.2490234,-0.6005859,0.1982422,-0.2827148,-0.1591797,-0.1616211
3861,-0.8125,30.0625,-107.375,0.01269531,-0.4140625,0.159668,-0.2792969,-0.1669922,-0.1630859
3866,-2.75,29,-92.375,0.05126953,-0.3325195,0.2329102,-0.2734375,-0.1733398,-0.1674805
3870,-7.25,38.9375,-84.75,-0.1147461,-0.2900391,0.2441406,-0.2685547,-0.1845703,-0.1713867
3874,-1.25,41.5625,-74.5,-0.328125,-0.387207,0.1943359,-0.2651367,-0.1870117,-0.1713867
3878,2.3125,34.375,-59.625,-0.5102539,-0.2939453,0.1635742,-0.2617188,-0.1943359,-0.1767578
3882,5,24.6875,-43.25,-0.6342773,-0.3017578,0.1098633,-0.2578125,-0.1992188,-0.1767578
3886,11.875,11.1875,-21.5,-0.6455078,-0.3017578,0.08642578,-0.2543945,-0.2006836,-0.1796875
3890,13.5625,0.5625,-1.125,-0.6342773,-0.2006836,0.125,-0.253418,-0.203125,-0.1782227
3894,19.6875,-2.5625,20.1875,-0.5371094,-0.2783203,0.1674805,-0.2519531,-0.2016602,-0.175293
3898,22.4375,-9.625,39.3125,-0.6108398,-0.1459961,0.1020508,-0.2543945,-0.2006836,-0.175293
3902,26.9375,-23.625,57,-0.4672852,-0.1694336,0.06347656,-0.2592773,-0.2006836,-0.175293
3906,30.75,-36,73.5625,-0.3007813,-0.1577148,0.05566406,-0.2617188,-0.1967773,-0.1699219
3910,35.75,-43,91.375,-0.1225586,-0.1381836,0.05175781,-0.2651367,-0.1918945,-0.1674805
3914,37.8125,-49.5625,108.5,0.05517578,-0.1074219,0.07519531,-0.2709961,-0.1855469,-0.1606445
3918,39.25,-49.25,120.1875,0.2758789,-0.06445313,0.1210938,-0.2783203,-0.1782227,-0.1577148
3922,41.625,-42.3125,127.0625,0.4541016,-0.05664063,0.1479492,-0.2827148,-0.171875,-0.1538086
3926,41.5,-26.9375,134.3125,0.6831055,-0.03369141,0.1904297,-0.2900391,-0.1591797,-0.1455078
3930,28.0625,1.625,138.5625,0.8378906,0.04736328,0.2636719,-0.293457,-0.1469727,-0.1455078
3934,16.5,30.5625,139.6875,0.7568359,-0.08007813,0.1943359,-0.2973633,-0.1381836,-0.1455078
3938,17.625,34,141.6875,0.5356445,-0.2822266,0.07128906,-0.2983398,-0.1254883,-0.1469727
3942,32.3125,13.5,147.375,0.5126953,-0.3989258,-0.009277344,-0.3007813,-0.1157227,-0.1484375
3946,35.6875,4.1875,162.875,0.8378906,-0.3442383,0.1020508,-0.3017578,-0.1044922,-0.1494141
3950,17.3125,30.875,183,1.16748,-0.2392578,0.2636719,-0.3056641,-0.08935547,-0.1484375
3954,-13.1875,68.6875,203.625,1.128418,-0.2705078,0.2368164,-0.3066406,-0.07080078,-0.1547852
3958,-25.875,72.4375,216.875,0.8803711,-0.4140625,0.1289063,-0.3056641,-0.05712891,-0.1577148
3962,-19.3125,51.25,216.9375,0.7993164,-0.5893555,0.04785156,-0.3007813,-0.03466797,-0.1660156
3966,-3.875,23.0625,211,0.9853516,-0.6357422,0.02490234,-0.2983398,-0.01318359,-0.1674805
3970,-11.1875,11.4375,209.25,1.213867,-0.3754883,0.09033203,-0.2958984,0.001464844,-0.1699219
3974,-23.375,16.9375,201.875,1.364746,-0.4804688,0.1904297,-0.2915039,0.02001953,-0.1713867
3978,-22.375,21.125,199.0625,1.337891,-0.7094727,0.2368164,-0.2841797,0.04150391,-0.1713867
3982,-16.0625,20.9375,194.0625,1.283691,-0.8027344,0.2094727,-0.2807617,0.05371094,-0.1728516
3986,-3.0625,2.5625,194.1875,1.287598,-0.9116211,0.1132813,-0.2709961,0.07275391,-0.1728516
3990,7.1875,-15.25,187.3125,1.516113,-0.7290039,0.1635742,-0.2661133,0.08740234,-0.1728516
3995,6,-7.75,175.875,1.666992,-0.6240234,0.2788086,-0.2602539,0.09765625,-0.1713867
3999,-9,17.375,168.875,1.725586,-0.503418,0.3095703,-0.253418,0.1113281,-0.1699219
4003,-25,36.5,156.4375,1.628418,-0.7719727,0.2211914,-0.2426758,0.125,-0.1713867
4007,-20.0625,26,150.25,1.403809,-0.9580078,0.08251953,-0.2353516,0.1337891,-0.1738281
4011,-2.125,-4.75,148.875,1.341797,-1.055176,0.06347656,-0.2270508,0.1450195,-0.1713867
4015,25.5,-31.3125,147.3125,1.504395,-0.9467773,0.105957,-0.21875,0.1547852,-0.1728516
4019,42.75,-39.6875,139.4375,1.748535,-0.6083984,0.1713867,-0.2128906,0.1611328,-0.1699219
4023,39.6875,-28.3125,126.0625,1.926758,-0.3911133,0.2021484,-0.206543,0.1689453,-0.1713867
4027,28.6875,-3.125,111.5,1.980957,-0.2241211,0.2133789,-0.199707,0.1723633,-0.1713867
4031,11.6875,17.625,100.5625,1.830078,-0.2744141,0.1787109,-0.1948242,0.1772461,-0.175293
4035,6.25,24.8125,94.8125,1.713867,-0.3598633,0.1132813,-0.1865234,0.1826172,-0.1738281
4039,11.0625,14.1875,93.625,1.59375,-0.2084961,-0.04003906,-0.1782227,0.1875,-0.1767578
4043,12.3125,-9.5625,77.75,1.59375,-0.07226563,-0.02441406,-0.1748047,0.1899414,-0.175293
4047,21.8125,-22.9375,55.3125,1.674805,-0.1074219,0.02880859,-0.1699219,0.1938477,-0.1767578
4051,30.25,-32.5,39.1875,1.779785,-0.09570313,0.01708984,-0.168457,0.1962891,-0.1767578
4055,33.125,-40.75,21.125,1.911133,0.1601563,-0.01318359,-0.1665039,0.1938477,-0.1782227
4059,27.1875,-40.25,-9.4375,2.101074,0.300293,0.03271484,-0.1674805,0.1948242,-0.1782227
4063,15.0625,-20.3125,-43.9375,2.256348,0.315918,0.1171875,-0.1699219,0.1923828,-0.1782227
4067,-2.6875,9.9375,-69.75,2.275391,0.203125,0.1210938,-0.1748047,0.1884766,-0.1782227
4071,-19.375,34.875,-87.3125,2.186523,0.03222656,0.08642578,-0.1791992,0.1860352,-0.1796875
4075,-22.625,43.4375,-106.125,2.042969,-0.1694336,-0.01318359,-0.1831055,0.1811523,-0.1782227
4079,-14.5,34.3125,-120.8125,1.775879,-0.3598633,-0.04394531,-0.1865234,0.1762695,-0.1806641
4083,13.0625,-8.1875,-127.9375,1.616699,-0.4726563,-0.2553711,-0.1938477,0.1713867,-0.1821289
4087,43.4375,-69.25,-150.25,1.872559,-0.1420898,-0.3476563,-0.203125,0.1611328,-0.1821289
4091,51.6875,-101.375,-193.4375,2.298828,0.06298828,-0.1977539,-0.2138672,0.1538086,-0.1782227
4095,33.1875,-81.6875,-223.0625,2.63623,-0.06445313,0.02099609,-0.2304688,0.1376953,-0.175293
4099,-7.6875,-42.4375,-218.5,2.519531,-0.2509766,0.04785156,-0.2460938,0.1186523,-0.1713867
4103,-30.4375,-26.25,-211,2.206055,-0.5966797,-0.09765625,-0.2519531,0.1074219,-0.1728516
4107,-28.375,-43.5,-210.625,1.96582,-0.7680664,-0.2055664,-0.2651367,0.09228516,-0.1674805
4111,-25.25,-68.3125,-222.75,2.03125,-0.7485352,-0.1474609,-0.2768555,0.07519531,-0.1616211
4115,-31.375,-68.6875,-241.1875,2.023926,-0.6708984,0.01367188,-0.2817383,0.06396484,-0.1577148
4119,-41.0625,-63.25,-246.1875,1.958008,-0.8803711,0.05957031,-0.2958984,0.04150391,-0.1523438
4124,-55.9375,-57,-238.125,1.845703,-0.9194336,0.1479492,-0.3041992,0.02001953,-0.144043
4128,-68.0625,-47.75,-225.4375,1.748535,-1.024414,0.1748047,-0.3056641,0.006347656,-0.1401367
4132,-72.375,-40.375,-220.625,1.624512,-0.9931641,0.2172852,-0.3125,-0.01171875,-0.1357422
4136,-75.375,-30.625,-220.9375,1.535645,-1.024414,0.2827148,-0.3149414,-0.03466797,-0.1303711
4140,-71.625,-17.125,-220.375,1.349609,-1.000977,0.2905273,-0.3164063,-0.046875,-0.1303711
4144,-66.6875,-8.6875,-220.9375,1.124512,-1.004883,0.2675781,-0.3173828,-0.06689453,-0.1279297
4148,-60.6875,-3,-208.125,0.9350586,-0.9506836,0.2558594,-0.3125,-0.08837891,-0.1289063
4152,-64.125,5.3125,-195.3125,0.7915039,-0.8027344,0.3056641,-0.3125,-0.1005859,-0.1289063
4156,-58.625,12.0625,-185.8125,0.59375,-0.8261719,0.2905273,-0.3081055,-0.1166992,-0.1303711
4160,-49.8125,16.0625,-175.0625,0.4814453,-0.6821289,0.2944336,-0.3017578,-0.1333008,-0.1333008
4164,-49.0625,27.125,-162.3125,0.4311523,-0.6162109,0.3481445,-0.2998047,-0.1445313,-0.1347656
4168,-46.625,40.3125,-146.625,0.2490234,-0.5698242,0.2905273,-0.2949219,-0.1567383,-0.1401367
4172,-42.0625,46.6875,-132.0625,0.1015625,-0.4726563,0.2709961,-0.2875977,-0.1669922,-0.1455078
4176,-35.1875,52,-119.125,-0.02978516,-0.3950195,0.2211914,-0.2827148,-0.1743164,-0.1494141
4180,-31.4375,59.1875,-106.125,-0.2041016,-0.3911133,0.2290039,-0.2768555,-0.1845703,-0.1577148
4184,-26.5,60.4375,-86.8125,-0.3745117,-0.3911133,0.1787109,-0.2675781,-0.1918945,-0.1630859
4188,-16.8125,51.625,-63.1875,-0.5292969,-0.4067383,0.140625,-0.2661133,-0.1982422,-0.1645508
4192,-6.4375,38,-38.3125,-0.6806641,-0.2861328,0.09814453,-0.2592773,-0.1992188,-0.1728516
4196,0.0625,21.4375,-22,-0.6455078,-0.1694336,0.04052734,-0.2578125,-0.203125,-0.1738281
4200,6.75,10.5625,-5.5,-0.6147461,-0.1035156,0.03662109,-0.2543945,-0.2045898,-0.1738281
4204,9.5625,0.0625,12.75,-0.6303711,-0.1191406,0.03271484,-0.2543945,-0.203125,-0.1767578
4208,18.3125,-17.625,33.125,-0.6030273,-0.07617188,-0.02441406,-0.2553711,-0.2006836,-0.1738281
4212,25.125,-37.8125,50.375,-0.3935547,-0.05273438,-0.01660156,-0.2592773,-0.1992188,-0.1713867
4216,29.4375,-47.5625,66.625,-0.1884766,0.04003906,0.009765625,-0.2626953,-0.1967773,-0.1674805
4220,30.3125,-53,79.375,0.02050781,0.1020508,0.03662109,-0.2675781,-0.1933594,-0.1591797
4224,31.5625,-55.4375,89.6875,0.206543,0.1020508,0.07128906,-0.2724609,-0.1894531,-0.15625
4228,35.375,-49.6875,96.625,0.3925781,0.1875,0.1171875,-0.2783203,-0.1821289,-0.1523438
4232,29.6875,-37.3125,99.875,0.4697266,0.2109375,0.1713867,-0.2841797,-0.1757813,-0.144043
4236,25.1875,-21.5625,106.1875,0.5395508,0.1254883,0.1865234,-0.2890625,-0.1669922,-0.144043
4240,19.9375,-7.125,113.4375,0.5898438,0.09814453,0.140625,-0.2924805,-0.1591797,-0.1386719
4244,13.1875,3.8125,116.4375,0.578125,0.0009765625,0.1479492,-0.2973633,-0.1479492,-0.1416016
4248,15.0625,5.6875,126.25,0.5009766,-0.1577148,0.09033203,-0.2998047,-0.140625,-0.1416016
4253,18.9375,-1.25,138.375,0.543457,-0.2314453,0.1171875,-0.3032227,-0.1293945,-0.1386719
4257,25.1875,-3.375,142.5,0.6948242,-0.1420898,0.1210938,-0.3056641,-0.1142578,-0.1401367
4261,18.375,7.8125,145.0625,0.8842773,-0.1074219,0.1865234,-0.3066406,-0.109375,-0.1386719
4265,10.0625,24.3125,149.5625,0.8920898,-0.1538086,0.1479492,-0.309082,-0.09423828,-0.1357422
4269,7.3125,26.5625,153.5,0.8261719,-0.2705078,0.09814453,-0.3105469,-0.07958984,-0.1401367
4273,4.25,23.875,160.375,0.8222656,-0.3442383,0.1098633,-0.3105469,-0.06835938,-0.1425781
4277,2.5,22.375,168.625,0.9194336,-0.4609375,0.105957,-0.309082,-0.05175781,-0.1455078
4281,1.3125,22.8125,172.5625,1.066406,-0.4335938,0.08642578,-0.3066406,-0.03564453,-0.1494141
4285,-1.4375,20.1875,176.6875,1.09375,-0.4101563,0.09814453,-0.3081055,-0.0234375,-0.1484375
4289,-3.9375,22.25,173.1875,1.171387,-0.453125,0.159668,-0.3056641,-0.006835938,-0.1494141
4293,-11.4375,32.8125,168.6875,1.233398,-0.519043,0.2211914,-0.3032227,0.01025391,-0.1523438
4297,-22.1875,41,165.125,1.186523,-0.09179688,0.1982422,-0.2983398,0.02392578,-0.15625
4301,-18.875,31.0625,175.5625,1.144043,-0.7055664,0.03662109,-0.293457,0.03759766,-0.1606445
4305,-14.6875,14.3125,172.9375,1.179199,-0.7016602,0.06738281,-0.2866211,0.05615234,-0.1606445
4309,-12.625,8,164.25,1.260254,-0.7910156,0.1479492,-0.2807617,0.06738281,-0.1616211
4313,-7.4375,9.5,160,1.337891,-0.8920898,0.140625,-0.2758789,0.08251953,-0.1616211
4317,-4.5625,3.875,166,1.333984,-0.8574219,0.05566406,-0.2675781,0.09765625,-0.1591797
4321,-0.1875,-7.1875,171.8125,1.376465,-0.8027344,0.07128906,-0.2636719,0.1049805,-0.1616211
4325,5.75,-18.5,170.875,1.42334,-0.8066406,0.07128906,-0.253418,0.1201172,-0.1577148
4329,19.25,-30.8125,165.3125,1.589844,-0.8457031,0.05566406,-0.2460938,0.1313477,-0.1591797
4333,24.6875,-33.875,157.6875,1.736816,-0.6318359,0.1020508,-0.2402344,0.1401367,-0.1547852
4337,24.75,-22.5,145.8125,1.942383,-0.4375,0.08642578,-0.2329102,0.1523438,-0.15625
4341,5.5,-0.8125,131.8125,1.938477,-0.2202148,0.1557617,-0.2246094,0.1601563,-0.15625
4345,-12.5625,26.125,114.5,1.872559,-0.2783203,0.1518555,-0.2172852,0.1660156,-0.1547852
4349,-18.6875,35.875,99.9375,1.663574,-0.4375,0.09814453,-0.2104492,0.1748047,-0.15625
4353,-15.5625,31.1875,91.5625,1.500488,-0.5385742,0.07910156,-0.2006836,0.1801758,-0.15625
4357,-9.0625,16.75,98.875,1.415527,-0.6162109,0.04443359,-0.1962891,0.1850586,-0.1577148
4361,-3.25,2.375,99.875,1.473633,-0.4453125,0.1020508,-0.1899414,0.1923828,-0.1577148
4365,8.0625,-1.25,80.0625,1.546875,-0.3676758,0.1479492,-0.1816406,0.1987305,-0.15625
4369,15.125,-5.75,63.1875,1.48877,-0.2939453,0.1171875,-0.1772461,0.2011719,-0.1577148
4373,22.4375,-16.6875,53.25,1.496582,-0.2202148,0.06738281,-0.1757813,0.2026367,-0.1577148
4377,27.125,-26.0625,40.6875,1.523926,-0.09570313,0.04443359,-0.1708984,0.2050781,-0.1577148
4382,24.875,-31,28.3125,1.574219,-0.03369141,0.04443359,-0.1708984,0.2036133,-0.1547852
4386,21.6875,-29,13.0625,1.585938,0.0009765625,0.05175781,-0.1708984,0.2060547,-0.1577148
4390,14.375,-22.625,-1.6875,1.585938,-0.01416016,0.08251953,-0.1708984,0.2050781,-0.1577148
4394,4.0625,-9.8125,-15.1875,1.554688,-0.08007813,0.125,-0.1708984,0.2036133,-0.15625
4398,-6.6875,6.5,-25.8125,1.415527,-0.1577148,0.1635742,-0.1748047,0.2036133,-0.1591797
4402,-19.6875,21.5625,-33.3125,1.306641,-0.2822266,0.1904297,-0.1733398,0.2011719,-0.1577148
4406,-30.8125,37.375,-35.9375,1.16748,-0.421875,0.1943359,-0.1757813,0.2001953,-0.15625
4410,-37,47.375,-33.625,1.035645,-0.5424805,0.1787109,-0.1757813,0.2026367,-0.1577148
4414,-37,49,-31.3125,0.8769531,-0.6279297,0.140625,-0.1782227,0.1987305,-0.1577148
4418,-29.625,43.8125,-32.25,0.7529297,-0.6860352,0.125,-0.1782227,0.1987305,-0.1577148
4422,-20.125,33.8125,-36.125,0.6674805,-0.7172852,0.105957,-0.1791992,0.2011719,-0.1577148
4426,-10.125,22.125,-38.125,0.6132813,-0.7407227,0.09033203,-0.1806641,0.1962891,-0.1577148
4430,-2.875,11.4375,-39.125,0.5898438,-0.7290039,0.09814453,-0.1831055,0.1972656,-0.1606445
4434,0.4375,3.4375,-38.3125,0.5820313,-0.7172852,0.1098633,-0.1831055,0.1938477,-0.1606445
4438,1.8125,-1.1875,-37.625,0.5976563,-0.7211914,0.1098633,-0.1865234,0.1923828,-0.1606445
4442,5.75,-2.75,-36.5,0.6401367,-0.8027344,0.105957,-0.1875,0.1899414,-0.1591797
4446,11.3125,-1.125,-32.3125,0.6132813,-0.7563477,0.1098633,-0.1889648,0.1884766,-0.1616211
4450,6.625,-4.875,-27.3125,0.578125,-0.7055664,0.08251953,-0.1938477,0.1850586,-0.1606445
4454,3.875,-6.9375,-21,0.5898438,-0.7563477,0.08642578,-0.1938477,0.1860352,-0.1630859
4458,2.4375,-10.375,-14.375,0.559082,-0.7055664,0.09033203,-0.1972656,0.1826172,-0.1606445
4462,1.75,-15.3125,-12.5625,0.5708008,-0.7250977,0.1098633,-0.1972656,0.1826172,-0.1616211
