Packet number,Gyroscope X (deg/s),Gyroscope Y (deg/s),Gyroscope Z (deg/s),Accelerometer X (g),Accelerometer Y (g),Accelerometer Z (g),Magnetometer X (G),Magnetometer Y (G),Magnetometer Z (G)
2,-2.8125,-1.75,-0.875,-0.3393555,0.9179688,0.1328125,0.05322266,-0.3520508,-0.1738281
6,-2.9375,-1.6875,-2.3125,-0.3320313,0.9140625,0.1367188,0.05224609,-0.3544922,-0.1738281
10,-2.75,-2.6875,-1.25,-0.3393555,0.9257813,0.1289063,0.05224609,-0.3505859,-0.1738281
14,-2.875,-3.9375,-0.75,-0.3432617,0.9179688,0.1479492,0.05078125,-0.3520508,-0.175293
18,-3.875,-6.0625,-0.3125,-0.3393555,0.9335938,0.1367188,0.05224609,-0.3530273,-0.1738281
22,-3.375,-6.9375,0.0625,-0.3125,0.9140625,0.1479492,0.05224609,-0.3544922,-0.1738281
26,-2.625,-5.875,1.0625,-0.2890625,0.9140625,0.1367188,0.05224609,-0.3530273,-0.1767578
30,-2.625,-2.6875,-10.0625,-0.2119141,0.953125,0.1289063,0.04980469,-0.3530273,-0.175293
34,4.75,4.625,-21.125,-0.3510742,0.8168945,0.1210938,0.05078125,-0.3530273,-0.175293
38,8.5625,3.5625,-10.875,-0.3164063,0.9492188,0.1289063,0.0546875,-0.3530273,-0.1767578
42,3.1875,4.375,-12,-0.3320313,0.9604492,0.1289063,0.05566406,-0.3544922,-0.1738281
46,0.9375,4.9375,-11.125,-0.3666992,0.9335938,0.140625,0.05810547,-0.3520508,-0.1738281
50,0.75,3.8125,-10,-0.4091797,0.9257813,0.1518555,0.05712891,-0.3520508,-0.1767578
54,-0.625,-0.5625,-5.3125,-0.4365234,0.9492188,0.140625,0.05810547,-0.3530273,-0.1738281
58,-2.5,-4.9375,2.3125,-0.4052734,0.9414063,0.1557617,0.05712891,-0.3520508,-0.1738281
62,-2.3125,-5.6875,9.6875,-0.3974609,0.90625,0.1289063,0.05566406,-0.3520508,-0.175293
66,-2.0625,-1.375,18.0625,-0.3823242,0.921875,0.1479492,0.05566406,-0.3520508,-0.175293
70,-4.375,3.625,19,-0.4052734,0.90625,0.144043,0.05566406,-0.3520508,-0.1767578
74,-7.4375,7.0625,18.625,-0.4946289,0.9760742,0.144043,0.05322266,-0.3505859,-0.1738281
78,-15,4.8125,16.1875,-0.5795898,0.9643555,0.1557617,0.0546875,-0.3520508,-0.175293
82,-19,3.8125,8.4375,-0.6342773,0.9296875,0.1713867,0.05224609,-0.3505859,-0.1782227
86,-16.9375,2.8125,-3.5,-0.7348633,0.8051758,0.1865234,0.05078125,-0.3491211,-0.1782227
90,-6.6875,0.3125,-21.1875,-0.8935547,0.7895508,0.1943359,0.05322266,-0.3481445,-0.1796875
94,-0.0625,-7.4375,-34.5625,-1.071777,0.9140625,0.2060547,0.05322266,-0.3491211,-0.1806641
98,-4,-28.5,-37.75,-1.211426,0.9643555,0.2441406,0.05566406,-0.3481445,-0.1806641
102,-5.75,-48.1875,-33.8125,-1.273438,0.9799805,0.2866211,0.05712891,-0.3481445,-0.1821289
106,-7.4375,-51,-46.1875,-1.211426,1.015137,0.3251953,0.05810547,-0.3466797,-0.1806641
111,-12.6875,-41.375,-58.0625,-1.219238,1.104492,0.340332,0.05957031,-0.3466797,-0.1850586
115,-18.4375,-33.3125,-69.9375,-1.253906,1.124023,0.3671875,0.06298828,-0.3442383,-0.1875
119,-22.6875,-26.75,-81.625,-1.289063,1.17041,0.3789063,0.06640625,-0.3432617,-0.1889648
123,-27.5625,-18.6875,-93.25,-1.289063,1.213379,0.3789063,0.07226563,-0.3417969,-0.1904297
127,-29.25,-16.5,-105.3125,-1.32373,1.217285,0.355957,0.08056641,-0.3378906,-0.1928711
131,-27.5625,-18.6875,-113.9375,-1.312012,1.251953,0.3364258,0.08447266,-0.3344727,-0.1943359
135,-28,-20.75,-123.0625,-1.227051,1.349121,0.340332,0.09277344,-0.328125,-0.199707
139,-32.75,-15.5,-136.6875,-1.083496,1.368652,0.3212891,0.1020508,-0.3232422,-0.2026367
143,-33,-5.4375,-149.8125,-1.013672,1.36084,0.2983398,0.1118164,-0.3193359,-0.206543
147,-32.0625,-1.5,-159.5625,-0.9868164,1.399902,0.2905273,0.1210938,-0.3144531,-0.2080078
151,-30.75,-3.4375,-161.625,-0.9326172,1.388184,0.2866211,0.1342773,-0.3032227,-0.2119141
155,-28,-1.875,-158.6875,-0.8276367,1.341309,0.2827148,0.144043,-0.2983398,-0.2133789
159,-27.0625,4,-160.25,-0.7695313,1.356934,0.2944336,0.1557617,-0.2919922,-0.2163086
163,-26.5625,5,-166,-0.7270508,1.345215,0.3056641,0.1665039,-0.2783203,-0.21875
167,-28,-0.6875,-166.75,-0.6962891,1.372559,0.2944336,0.1757813,-0.2719727,-0.2202148
171,-29.1875,-9.3125,-161.625,-0.6342773,1.287109,0.2749023,0.1865234,-0.2617188,-0.2216797
175,-29.5625,-22.375,-155,-0.6030273,1.178223,0.2402344,0.1948242,-0.2495117,-0.2246094
179,-25.375,-33.125,-147,-0.4482422,1.057617,0.2172852,0.1962891,-0.2416992,-0.2270508
183,-22.75,-30.8125,-140.0625,-0.2734375,0.9682617,0.1943359,0.2055664,-0.2319336,-0.2299805
187,-22.6875,-13.75,-136.5,-0.1884766,0.9492188,0.1826172,0.2094727,-0.2207031,-0.2324219
191,-23.3125,0.3125,-141.5625,-0.2700195,0.8286133,0.1479492,0.215332,-0.2119141,-0.2338867
195,-19.9375,-1.4375,-141.375,-0.378418,0.7392578,0.159668,0.222168,-0.2006836,-0.2338867
199,-16.8125,-9.8125,-137.0625,-0.3862305,0.6303711,0.1635742,0.2270508,-0.1894531,-0.2368164
203,-12.5,-19.5,-128.0625,-0.347168,0.5761719,0.1865234,0.230957,-0.1831055,-0.2368164
207,-10.75,-27.375,-116.5625,-0.2890625,0.5332031,0.1674805,0.2329102,-0.1733398,-0.237793
211,-9.375,-32.0625,-105.375,-0.2231445,0.4829102,0.1904297,0.234375,-0.1630859,-0.2421875
215,-9,-33.0625,-98.125,-0.1611328,0.3740234,0.1713867,0.2353516,-0.1557617,-0.2421875
219,-9.125,-31.6875,-92.8125,-0.07226563,0.269043,0.1748047,0.237793,-0.1508789,-0.2436523
223,-7.9375,-26.4375,-90,0.004882813,0.21875,0.1748047,0.2368164,-0.1420898,-0.2460938
227,-7.0625,-22.625,-82.625,-0.002441406,0.21875,0.1713867,0.237793,-0.1381836,-0.25
231,-7.3125,-26.75,-70,0.03955078,0.1293945,0.1557617,0.2392578,-0.1293945,-0.2490234
235,-8.8125,-23.5,-53.0625,0.1210938,0.08642578,0.1943359,0.2368164,-0.1245117,-0.2529297
240,-9.9375,-11.375,-44.3125,0.1367188,-0.02197266,0.1904297,0.2353516,-0.1220703,-0.2529297
244,-9.0625,-1.25,-37.25,0.09375,-0.05664063,0.1635742,0.2368164,-0.1196289,-0.2529297
248,-5.1875,4.6875,-29,0.07861328,-0.1230469,0.1635742,0.2368164,-0.1142578,-0.2543945
252,1.8125,11.625,-17.6875,0.09765625,-0.1772461,0.1479492,0.2353516,-0.1118164,-0.2543945
256,7.8125,19.0625,-4.6875,0.09033203,-0.1459961,0.1518555,0.2392578,-0.1118164,-0.2529297
260,13.125,28.125,7.8125,0.08251953,-0.1577148,0.1674805,0.2392578,-0.1132813,-0.25
264,17.375,40.5,18.25,0.03564453,-0.1074219,0.1713867,0.2412109,-0.1142578,-0.2490234
268,19.1875,57.1875,26.9375,0.004882813,-0.06835938,0.1674805,0.2426758,-0.1166992,-0.2460938
272,20.9375,73.375,32.0625,-0.1225586,-0.05664063,0.1674805,0.2475586,-0.1220703,-0.2392578
276,24.25,79.0625,40.125,-0.246582,-0.02197266,0.1479492,0.2509766,-0.1230469,-0.2368164
280,28.125,80.75,50.1875,-0.296875,0.05517578,0.140625,0.2543945,-0.1293945,-0.2285156
284,28.75,89.5,61.0625,-0.3745117,0.1333008,0.1635742,0.2592773,-0.1342773,-0.2246094
288,24.375,91.125,64.875,-0.4985352,0.1875,0.1787109,0.2617188,-0.140625,-0.2177734
292,20.875,89.8125,69.5625,-0.5756836,0.2416992,0.1518555,0.2641602,-0.1469727,-0.2109375
296,17.9375,82.3125,75.5625,-0.7192383,0.2612305,0.1328125,0.269043,-0.1542969,-0.199707
300,15.125,62.4375,80.4375,-0.8393555,0.284668,0.105957,0.2700195,-0.1606445,-0.1972656
304,14.9375,44.1875,83.3125,-0.78125,0.300293,0.1132813,0.269043,-0.1669922,-0.1918945
308,12.6875,37.5625,85.625,-0.7192383,0.3818359,0.1171875,0.2700195,-0.1767578,-0.1889648
312,8.6875,32.6875,90.125,-0.7231445,0.3740234,0.09423828,0.269043,-0.1806641,-0.1850586
316,10.5,26.375,94.0625,-0.7192383,0.3740234,0.08642578,0.2641602,-0.1904297,-0.1835938
320,9.8125,17.875,98.25,-0.715332,0.4555664,0.06738281,0.2626953,-0.1967773,-0.1806641
324,11.5,4.5625,101.8125,-0.7231445,0.4750977,0.05566406,0.2592773,-0.203125,-0.1796875
328,11.875,-2.0625,104.875,-0.5683594,0.5097656,0.06738281,0.2543945,-0.2119141,-0.1782227
332,14.25,18.5625,105.4375,-0.4482422,0.5371094,0.05957031,0.2519531,-0.2231445,-0.1782227
336,12.8125,39,101,-0.5141602,0.6108398,0.05175781,0.25,-0.2294922,-0.1767578
340,10.9375,38.9375,105.125,-0.6572266,0.6694336,0.04052734,0.2451172,-0.2368164,-0.1713867
344,10.6875,19.1875,110.4375,-0.8007813,0.6845703,0.03271484,0.2426758,-0.2456055,-0.1713867
348,13,-10.75,114.125,-0.7617188,0.7119141,0.02490234,0.2368164,-0.2529297,-0.168457
352,19.5625,-2.5,119,-0.4326172,0.8051758,0.07519531,0.2285156,-0.2592773,-0.168457
356,15,22.25,115.0625,-0.362793,0.9375,0.09033203,0.2211914,-0.2695313,-0.1660156
360,9.1875,36.25,119.125,-0.4829102,1.026855,0.07910156,0.21875,-0.2768555,-0.1645508
364,2.8125,26.25,132.375,-0.7231445,0.9414063,0.04052734,0.2104492,-0.2856445,-0.1630859
369,6,-2.1875,133.5,-0.831543,0.9140625,-0.005371094,0.2021484,-0.2944336,-0.1606445
373,12.1875,-7.4375,132.8125,-0.5214844,0.9799805,-0.01318359,0.1948242,-0.2993164,-0.1606445
377,12,11.125,125.6875,-0.4672852,1.084961,0.02490234,0.1855469,-0.3105469,-0.1591797
381,9.125,13.4375,125.8125,-0.5566406,1.162598,0.02099609,0.1748047,-0.3154297,-0.1577148
385,4.6875,-0.0625,136.9375,-0.5795898,1.135742,0.04785156,0.1699219,-0.3193359,-0.15625
389,8.8125,3.125,140.9375,-0.5913086,1.015137,0.02099609,0.1582031,-0.3291016,-0.1547852
393,14,9.6875,130.75,-0.5874023,1.124023,0.03271484,0.1484375,-0.3330078,-0.15625
397,14.25,15.125,126.4375,-0.6303711,1.279297,0.07519531,0.1401367,-0.3393555,-0.1538086
401,6.25,7.8125,122.25,-0.7426758,1.399902,0.105957,0.128418,-0.3457031,-0.1508789
405,-0.1875,-13.3125,125,-0.730957,1.310547,0.1171875,0.1201172,-0.3481445,-0.1508789
409,1,-16,127.1875,-0.5952148,1.209473,0.08642578,0.112793,-0.3530273,-0.1523438
413,2.9375,6.25,119.25,-0.4594727,1.225098,0.05175781,0.09863281,-0.3554688,-0.1508789
417,2.1875,26.5,113.9375,-0.6572266,1.283203,0.07128906,0.09033203,-0.3579102,-0.1523438
421,0,22.0625,110.625,-0.8818359,1.291016,0.07519531,0.08056641,-0.3603516,-0.1494141
425,-3,3.5625,106.625,-0.9985352,1.197754,0.09033203,0.07128906,-0.3632813,-0.1494141
429,1.4375,0.1875,101,-0.9672852,1.146973,0.1098633,0.06396484,-0.3642578,-0.1484375
433,-0.6875,7.0625,89.1875,-1.029297,1.193848,0.1328125,0.05566406,-0.3642578,-0.1484375
437,-1.8125,13.0625,79.3125,-1.129883,1.197754,0.1826172,0.05078125,-0.3657227,-0.1484375
441,-6.125,20.875,68.8125,-1.253906,1.182129,0.1674805,0.04248047,-0.3681641,-0.1494141
445,-9.4375,22.625,51.0625,-1.439941,1.217285,0.1289063,0.0390625,-0.3691406,-0.1484375
449,-12.375,17.5,33.125,-1.587402,1.081055,0.09033203,0.03808594,-0.3681641,-0.1484375
453,-8.75,10.5,16.1875,-1.684082,1.081055,0.08251953,0.03320313,-0.3666992,-0.1523438
457,-8.8125,4.875,-3.25,-1.773438,1.166504,0.08251953,0.03320313,-0.3681641,-0.1508789
461,-9.9375,-7.4375,-23.9375,-1.905273,1.221191,0.08642578,0.03417969,-0.3657227,-0.1523438
465,-13.0625,-31.8125,-46.875,-1.885742,1.240234,0.04785156,0.0390625,-0.3657227,-0.1523438
469,-16.375,-44.0625,-68.6875,-1.691895,1.263672,0.005859375,0.04052734,-0.3666992,-0.1538086
473,-17.1875,-46.125,-87.5,-1.57959,1.267578,-0.02441406,0.04492188,-0.3642578,-0.1547852
477,-16,-46.875,-104.25,-1.455566,1.251953,-0.04394531,0.04980469,-0.3632813,-0.1577148
481,-12.75,-37.0625,-119.4375,-1.319824,1.283203,-0.05126953,0.05566406,-0.3603516,-0.1606445
485,-10.3125,-22.5,-136.5625,-1.312012,1.317871,-0.06298828,0.06640625,-0.359375,-0.1606445
489,-5.5625,-18.9375,-151.875,-1.385742,1.364746,-0.04394531,0.07861328,-0.3554688,-0.1645508
493,-4.0625,-27,-168.1875,-1.362793,1.49707,-0.03613281,0.08691406,-0.3530273,-0.1660156
498,-4.125,-33.8125,-177.6875,-1.257813,1.531738,0.005859375,0.1010742,-0.3481445,-0.1674805
502,-4.6875,-37.1875,-185.6875,-1.125977,1.547363,0.03662109,0.1142578,-0.3432617,-0.168457
506,-3.875,-34.3125,-190.6875,-0.9711914,1.562988,0.04785156,0.125,-0.3354492,-0.168457
510,-6,-29.375,-194.5625,-0.8745117,1.562988,0.05566406,0.1401367,-0.3305664,-0.1728516
514,-5.9375,-24.8125,-198.3125,-0.7578125,1.531738,0.08642578,0.1533203,-0.3193359,-0.175293
518,-3.3125,-16.5625,-201.0625,-0.6494141,1.458008,0.105957,0.1650391,-0.3120117,-0.175293
522,-1.875,-7.625,-197.875,-0.5605469,1.422852,0.1289063,0.1806641,-0.3017578,-0.1782227
526,-0.5625,-4.625,-191.625,-0.5488281,1.388184,0.159668,0.1928711,-0.2905273,-0.1782227
530,-1,-8.75,-181.75,-0.4868164,1.345215,0.1826172,0.2021484,-0.2817383,-0.1767578
534,-3,-8.125,-175.0625,-0.3862305,1.275391,0.2021484,0.2138672,-0.2705078,-0.1782227
538,-7.5625,-5.375,-170.75,-0.362793,1.205566,0.2060547,0.2246094,-0.2568359,-0.1796875
542,-11.875,-4.5625,-166.875,-0.3745117,1.120117,0.2368164,0.2319336,-0.2504883,-0.1806641
546,-18.0625,-12.625,-160.5,-0.3935547,0.9995117,0.2060547,0.2402344,-0.2358398,-0.1806641
550,-19.1875,-24.9375,-151.875,-0.3510742,0.8710938,0.1826172,0.2485352,-0.2231445,-0.1850586
554,-20.25,-29.75,-143.6875,-0.3007813,0.7973633,0.159668,0.2509766,-0.2158203,-0.1865234
558,-22.125,-33.9375,-136.0625,-0.328125,0.7275391,0.1289063,0.2568359,-0.203125,-0.1889648
562,-21.4375,-43.3125,-124.75,-0.3125,0.5175781,0.140625,0.2602539,-0.1894531,-0.1928711
566,-18.4375,-45.625,-114.3125,-0.1845703,0.4360352,0.140625,0.2617188,-0.1821289,-0.1958008
570,-19.0625,-29.8125,-107.1875,-0.07617188,0.4790039,0.1635742,0.2641602,-0.1733398,-0.199707
574,-25.625,-10.5625,-105.8125,-0.1303711,0.3779297,0.1787109,0.2651367,-0.1606445,-0.2041016
578,-23.5625,-7.3125,-98.9375,-0.1728516,0.2148438,0.1713867,0.2675781,-0.1542969,-0.2041016
582,-19.625,-11.625,-86.875,-0.1728516,0.1601563,0.1904297,0.2700195,-0.1455078,-0.2041016
586,-19.9375,-13.9375,-77.25,-0.1225586,0.140625,0.1674805,0.2709961,-0.1357422,-0.206543
590,-20.75,-18.3125,-66.375,-0.1147461,0.09814453,0.1635742,0.2709961,-0.1293945,-0.2080078
594,-20.9375,-25.25,-54.5625,-0.07617188,0.01269531,0.1713867,0.2709961,-0.1245117,-0.2094727
598,-23.3125,-38,-46.5625,-0.01806641,0.02050781,0.1557617,0.2700195,-0.1166992,-0.2119141
602,-25.9375,-46.125,-30.625,0.1289063,-0.08398438,0.1132813,0.2700195,-0.1142578,-0.2148438
606,-24.375,-43.125,-13.75,0.2915039,-0.1191406,0.08251953,0.2675781,-0.1118164,-0.21875
610,-21.875,-26.3125,2.0625,0.4428711,-0.1967773,0.03271484,0.2641602,-0.1083984,-0.2216797
614,-10.75,6.5,16.1875,0.4775391,-0.3017578,0.02099609,0.2651367,-0.1083984,-0.2246094
618,-3.25,37.3125,24.8125,0.2954102,-0.2470703,-0.001464844,0.2641602,-0.109375,-0.2231445
622,4.375,50.6875,37.4375,0.1171875,-0.2241211,-0.005371094,0.2666016,-0.1118164,-0.2177734
627,10.5625,56.875,51.4375,0.0009765625,-0.1616211,-0.005371094,0.2700195,-0.1142578,-0.2148438
631,18.9375,65.25,64.1875,-0.06054688,-0.1074219,0.009765625,0.2724609,-0.1206055,-0.2119141
635,23.25,78.8125,73.6875,-0.1845703,0.01269531,0.02490234,0.2758789,-0.1279297,-0.2041016
639,21.5625,79.125,77.0625,-0.4130859,0.1333008,0.04443359,0.2749023,-0.1318359,-0.1972656
643,16.5,56.1875,79.4375,-0.5371094,0.2109375,0.07128906,0.2783203,-0.140625,-0.1918945
647,14.8125,30.8125,91.4375,-0.4946289,0.1992188,0.07128906,0.2783203,-0.1494141,-0.1889648
651,15.3125,27.0625,101.0625,-0.2851563,0.3193359,0.07128906,0.2773438,-0.1557617,-0.1865234
655,13.875,45.5625,110.5625,-0.2387695,0.3505859,0.08642578,0.2734375,-0.1645508,-0.1835938
659,11.5,56.6875,114.4375,-0.4633789,0.3974609,0.04052734,0.2724609,-0.1757813,-0.1796875
663,8.875,40.8125,112.6875,-0.746582,0.4052734,0.01367188,0.2724609,-0.1831055,-0.1738281
667,12.25,4.875,113.6875,-0.7617188,0.5019531,0.009765625,0.2709961,-0.1933594,-0.1728516
671,14.75,-7.3125,124.3125,-0.4985352,0.6030273,0.07128906,0.2641602,-0.2045898,-0.1738281
675,11.375,5.9375,128.25,-0.3549805,0.6884766,0.1098633,0.2626953,-0.2128906,-0.1713867
679,10.1875,29.4375,135.6875,-0.4130859,0.7158203,0.1171875,0.2558594,-0.2246094,-0.168457
683,7.1875,30.625,142.1875,-0.7348633,0.7275391,0.05566406,0.25,-0.2358398,-0.168457
687,8.375,-10.75,140.4375,-1.091309,0.809082,0.02880859,0.2460938,-0.2431641,-0.1660156
691,7.625,-75.6875,145.5,-0.9672852,0.9682617,0.07519531,0.234375,-0.2529297,-0.168457
695,5.625,-109,162.1875,-0.4287109,0.9838867,0.1210938,0.2236328,-0.2680664,-0.175293
699,10.0625,-61.8125,171.625,0.07470703,0.9682617,0.2021484,0.2119141,-0.2744141,-0.1796875
703,3.5625,14,161.8125,-0.006347656,1.166504,0.1674805,0.199707,-0.2841797,-0.1796875
707,-6.625,39.875,155.25,-0.7114258,1.186035,0.09814453,0.1889648,-0.2954102,-0.1782227
711,-10.125,-23.4375,161.1875,-1.292969,1.12793,0.05566406,0.1806641,-0.2993164,-0.1782227
715,-0.8125,-101.8125,166.5,-1.071777,1.100586,0.06738281,0.1665039,-0.3081055,-0.1806641
719,12.625,-99.3125,165.9375,-0.3862305,1.034668,0.1367188,0.1484375,-0.3168945,-0.1850586
723,17.6875,-50.3125,139.0625,-0.1264648,1.248047,0.1479492,0.1376953,-0.3217773,-0.1865234
727,18.875,-0.875,136.5625,-0.3320313,1.333496,0.1674805,0.1235352,-0.3305664,-0.1850586
731,15.125,1.25,144.5625,-0.8164063,1.251953,0.1557617,0.112793,-0.3354492,-0.1835938
735,24.875,-40.4375,142.0625,-1.075684,1.178223,0.1557617,0.1035156,-0.3393555,-0.1821289
739,32.6875,-51.9375,139.25,-0.5605469,1.298828,0.1943359,0.09033203,-0.3432617,-0.1821289
743,34.4375,-13.375,126.4375,-0.378418,1.388184,0.2866211,0.07470703,-0.3491211,-0.1796875
747,30.8125,18.5625,120.3125,-0.4907227,1.473633,0.2709961,0.06787109,-0.3530273,-0.1767578
751,26.0625,27.8125,123.875,-0.7114258,1.418945,0.2636719,0.05810547,-0.3554688,-0.1728516
756,26.5625,13.625,128.25,-1.106934,1.314453,0.2060547,0.04638672,-0.359375,-0.1713867
760,26,-29.75,114.9375,-1.161133,1.298828,0.2290039,0.04052734,-0.359375,-0.1674805
764,26.3125,-42.5,105.5625,-0.8198242,1.279297,0.2636719,0.02832031,-0.3603516,-0.1674805
768,23,-35.4375,87.9375,-0.7075195,1.302734,0.3173828,0.01660156,-0.3632813,-0.1660156
772,19.3125,-12.6875,78,-0.5605469,1.294922,0.3364258,0.01171875,-0.3642578,-0.1616211
776,16.1875,16.6875,80.5625,-0.5952148,1.20166,0.3330078,0.004394531,-0.3657227,-0.1616211
780,16,44.9375,77.4375,-0.8510742,1.146973,0.3095703,-0.004394531,-0.3657227,-0.1591797
784,13.6875,54.5,66.0625,-1.184082,1.12793,0.2749023,-0.005859375,-0.3657227,-0.1577148
788,14.5625,46.9375,48.875,-1.467285,1.182129,0.2788086,-0.009277344,-0.3642578,-0.1538086
792,11.3125,32.5625,27.375,-1.583496,1.189941,0.2866211,-0.01025391,-0.3657227,-0.1538086
796,7.375,22.875,4.25,-1.583496,1.275391,0.2905273,-0.01269531,-0.3666992,-0.15625
800,-1,16.8125,-17.0625,-1.595215,1.314453,0.2905273,-0.009277344,-0.3681641,-0.1538086
804,-7.875,6,-40.375,-1.649414,1.302734,0.2558594,-0.006835938,-0.3666992,-0.15625
808,-12.875,-12.6875,-57.4375,-1.614258,1.291016,0.1865234,-0.005859375,-0.3657227,-0.1547852
812,-15.1875,-22.5,-73.75,-1.471191,1.251953,0.1479492,-0.001953125,-0.3666992,-0.1577148
816,-15.125,-15.25,-91.8125,-1.366211,1.248047,0.1020508,0.005859375,-0.3657227,-0.1591797
820,-11.625,-5.875,-112.125,-1.393555,1.259766,0.09814453,0.01074219,-0.3657227,-0.1606445
824,-7.9375,-5.3125,-128.6875,-1.428223,1.32959,0.1210938,0.02246094,-0.3642578,-0.1616211
828,-6.0625,-10.3125,-144.9375,-1.389648,1.418945,0.1674805,0.03417969,-0.3632813,-0.1645508
832,-7.1875,-13.3125,-162.0625,-1.304199,1.559082,0.1943359,0.04394531,-0.3618164,-0.1645508
836,-10.0625,-14.1875,-179.5625,-1.219238,1.664063,0.2290039,0.05810547,-0.359375,-0.1660156
840,-13.5,-18.375,-191.75,-1.149414,1.737793,0.2290039,0.07617188,-0.3554688,-0.1674805
844,-19.25,-24.8125,-193.625,-1.005859,1.737793,0.2368164,0.08544922,-0.3505859,-0.1699219
848,-21.9375,-28.375,-197.625,-0.8896484,1.706543,0.2250977,0.1010742,-0.3457031,-0.1713867
852,-24.125,-25.1875,-202.0625,-0.8046875,1.694824,0.2060547,0.1176758,-0.3378906,-0.1767578
856,-26.5,-29.4375,-207.375,-0.7773438,1.660156,0.1982422,0.1293945,-0.3305664,-0.175293
860,-27.8125,-39.3125,-206.625,-0.6572266,1.586426,0.1865234,0.1450195,-0.3208008,-0.1821289
864,-28.6875,-39.25,-200.1875,-0.4711914,1.562988,0.1826172,0.1567383,-0.3095703,-0.1865234
868,-30.9375,-29.1875,-196.625,-0.3666992,1.504395,0.1826172,0.1674805,-0.3032227,-0.1875
872,-32.625,-18.875,-196.6875,-0.4130859,1.395996,0.1826172,0.1821289,-0.2905273,-0.1928711
876,-33.3125,-13.9375,-198.1875,-0.3320313,1.302734,0.1904297,0.1938477,-0.2768555,-0.1987305
880,-33.0625,-0.125,-195.875,-0.2270508,1.205566,0.1982422,0.2021484,-0.2695313,-0.1958008
885,-32.375,17.4375,-194.0625,-0.2001953,1.12793,0.1787109,0.2138672,-0.2529297,-0.2011719
889,-28.125,39.4375,-183.3125,-0.230957,0.9838867,0.1367188,0.2294922,-0.2368164,-0.1987305
893,-18.75,61.3125,-164.9375,-0.3432617,0.7626953,0.06738281,0.2368164,-0.2270508,-0.1987305
897,1.75,63.8125,-143.3125,-0.7387695,0.5683594,0.03662109,0.2475586,-0.2158203,-0.1972656
901,13.0625,20.6875,-140.125,-1.052734,0.7548828,0.01367188,0.2558594,-0.203125,-0.1918945
905,6.125,-46.3125,-142.9375,-0.9516602,0.8325195,0.07519531,0.2583008,-0.1967773,-0.1889648
909,-11.875,-84.25,-153.3125,-0.4248047,0.8984375,0.1171875,0.2602539,-0.1821289,-0.1943359
913,-31.4375,-78.875,-161.4375,0.05126953,0.7236328,0.1210938,0.2617188,-0.1694336,-0.2041016
917,-37.125,-52.6875,-157.25,0.2685547,0.5136719,0.1328125,0.2651367,-0.1591797,-0.2080078
921,-34.75,-36.4375,-131.8125,0.3417969,0.284668,0.1328125,0.2666016,-0.1430664,-0.2109375
925,-26.1875,-29.5,-104.6875,0.3769531,0.1367188,0.1210938,0.2675781,-0.1308594,-0.2148438
929,-21.8125,-21.625,-84.1875,0.4077148,0.07080078,0.1210938,0.2666016,-0.1245117,-0.2177734
933,-18,-13.4375,-72.75,0.4233398,0.004882813,0.1171875,0.2666016,-0.1166992,-0.21875
937,-18.75,-9.375,-59.6875,0.3847656,-0.002441406,0.1098633,0.2666016,-0.109375,-0.2177734
941,-22.4375,-16.8125,-43.3125,0.4272461,-0.1499023,0.09033203,0.2675781,-0.1030273,-0.2216797
945,-15.5,-6.875,-18.75,0.5629883,-0.3442383,0.07128906,0.2666016,-0.1005859,-0.2216797
949,-6.0625,10.5,1.1875,0.5395508,-0.3208008,0.05957031,0.2666016,-0.09960938,-0.2231445
953,-1.1875,17,20.1875,0.3999023,-0.3056641,0.07128906,0.2675781,-0.09814453,-0.2202148
957,3.5,21,33.75,0.4038086,-0.3017578,0.07128906,0.269043,-0.1020508,-0.2177734
961,10.625,39.8125,49.625,0.4116211,-0.2783203,0.05175781,0.2700195,-0.1054688,-0.2163086
965,22.25,66.25,67.0625,0.3266602,-0.2124023,0.05957031,0.269043,-0.109375,-0.2148438
969,27.4375,88.6875,81.4375,0.1289063,-0.06054688,0.07128906,0.2724609,-0.1166992,-0.2080078
973,28.875,96.3125,94.3125,-0.1264648,0.04394531,0.09423828,0.2773438,-0.1269531,-0.199707
977,27,86.0625,106.3125,-0.378418,0.1953125,0.09814453,0.2792969,-0.1318359,-0.1918945
981,19.75,63.8125,113.5625,-0.5644531,0.3232422,0.1328125,0.2792969,-0.1430664,-0.1875
985,10.375,29,112.5,-0.6147461,0.4321289,0.1557617,0.2783203,-0.1567383,-0.1796875
989,0,4.75,115.75,-0.5175781,0.5136719,0.140625,0.2783203,-0.1621094,-0.1806641
993,-6.9375,-9.5625,125.625,-0.5449219,0.4907227,0.08642578,0.2734375,-0.1733398,-0.1796875
997,-8.3125,-30.5,129.4375,-0.6225586,0.4399414,0.03271484,0.2700195,-0.1831055,-0.1835938
1001,-4.625,-43.5625,132.75,-0.4594727,0.3740234,-0.02050781,0.2641602,-0.1918945,-0.1850586
1005,9.3125,-26.8125,142.1875,-0.2890625,0.3818359,0.005859375,0.2568359,-0.2016602,-0.1865234
1009,18.75,-0.0625,147.25,-0.3354492,0.5527344,0.04443359,0.25,-0.2143555,-0.1889648
1014,22.4375,16.9375,151.0625,-0.4365234,0.6577148,0.04785156,0.2451172,-0.2231445,-0.1875
1018,28.375,31.75,152.6875,-0.6884766,0.7973633,0.06738281,0.2392578,-0.2368164,-0.1850586
1022,25.9375,25.875,151.625,-0.8198242,0.8598633,0.08642578,0.230957,-0.2504883,-0.1806641
1026,27.1875,19.875,147.125,-0.7504883,0.8867188,0.1132813,0.2260742,-0.2583008,-0.1782227
1030,28.0625,25.75,147,-0.7504883,0.9838867,0.1020508,0.21875,-0.2705078,-0.1738281
1034,27.5,21.8125,152.0625,-0.9907227,1.081055,0.09033203,0.2094727,-0.2807617,-0.1728516
1038,22.375,-10.625,147.9375,-1.095215,1.04248,0.1210938,0.203125,-0.2866211,-0.1699219
1042,21.0625,-31.6875,142.5,-0.8896484,1.030762,0.1328125,0.1914063,-0.2993164,-0.168457
1046,18.9375,-31.625,130.375,-0.7075195,1.174316,0.140625,0.1782227,-0.3081055,-0.1699219
1050,15.9375,-18.25,124.625,-0.5913086,1.217285,0.1289063,0.1713867,-0.3144531,-0.1699219
1054,15.875,-2.1875,126.8125,-0.5605469,1.174316,0.1713867,0.1616211,-0.3208008,-0.168457
1058,10.625,15.25,128.8125,-0.5605469,1.178223,0.144043,0.1508789,-0.3266602,-0.1674805
1062,9.4375,28.5,123.5625,-0.6806641,1.209473,0.125,0.1459961,-0.3320313,-0.1660156
1066,2.125,39.25,112.6875,-0.765625,1.287109,0.08251953,0.1357422,-0.3369141,-0.1645508
1070,0.1875,39.8125,105.3125,-0.8745117,1.182129,0.1171875,0.1269531,-0.3417969,-0.1630859
1074,2.25,35.0625,107.125,-0.8237305,1.283203,0.1328125,0.1225586,-0.3442383,-0.1616211
1078,0.6875,27.625,115.5625,-0.8007813,1.287109,0.1557617,0.112793,-0.3505859,-0.1606445
1082,-1.8125,11.4375,117.5,-0.8164063,1.259766,0.1328125,0.1044922,-0.3530273,-0.1591797
1086,-3.125,-9.8125,111.25,-0.7543945,1.217285,0.1367188,0.09619141,-0.3530273,-0.1591797
1090,-4.375,-21.4375,110.25,-0.6342773,1.193848,0.06347656,0.08544922,-0.3554688,-0.1591797
1094,3.5625,-18.6875,104.375,-0.5102539,1.146973,0.08251953,0.07470703,-0.359375,-0.1591797
1098,8.125,-6.5625,104.0625,-0.378418,1.240234,0.1132813,0.06884766,-0.3603516,-0.15625
1102,8.5625,7.75,114.375,-0.3354492,1.259766,0.1748047,0.05957031,-0.3632813,-0.15625
1106,5.0625,24.125,125.625,-0.5102539,1.162598,0.1328125,0.04980469,-0.3642578,-0.1577148
1110,6.375,24.75,112.875,-0.8164063,1.162598,0.125,0.04052734,-0.3657227,-0.1538086
1114,2.375,14.6875,97.9375,-0.9438477,1.158691,0.09814453,0.03173828,-0.3666992,-0.1538086
1118,6.375,13.25,91.125,-0.9091797,1.13916,0.125,0.02490234,-0.3681641,-0.1547852
1122,8.9375,22.4375,89.4375,-1.118652,1.112305,0.125,0.02001953,-0.3681641,-0.1547852
1126,10.8125,22.875,79.4375,-1.405273,1.135742,0.1328125,0.01074219,-0.3691406,-0.1523438
1130,6.5,14.1875,59.5,-1.730469,1.154785,0.125,0.006835938,-0.3691406,-0.1484375
1134,7.5,-7.875,39.8125,-1.963379,1.09668,0.1171875,0.002441406,-0.3691406,-0.1508789
1138,9.75,-25.5,10.0625,-2.036621,1.221191,0.1171875,-0.003417969,-0.3706055,-0.1484375
1143,4.875,-41,-22.375,-2.017578,1.345215,0.1210938,-0.0009765625,-0.3706055,-0.1469727
1147,-3.8125,-55.6875,-53.3125,-1.87793,1.372559,0.1479492,0,-0.3691406,-0.1484375
1151,-7.75,-58.1875,-75.5,-1.614258,1.364746,0.1787109,0.0009765625,-0.3681641,-0.1469727
1155,-11.9375,-48.25,-92.0625,-1.436035,1.422852,0.1826172,0.006835938,-0.3706055,-0.1508789
1159,-15.1875,-36.375,-112.875,-1.416992,1.426758,0.1787109,0.01269531,-0.3691406,-0.1508789
1163,-17.1875,-34.5625,-130.9375,-1.370117,1.485352,0.1826172,0.0234375,-0.3691406,-0.1538086
1167,-20.25,-33.0625,-147.6875,-1.273438,1.531738,0.1787109,0.03417969,-0.3681641,-0.1547852
1171,-24.25,-32.0625,-165.0625,-1.215332,1.597656,0.1826172,0.04248047,-0.3666992,-0.1577148
1175,-28.125,-35.25,-178.8125,-1.157227,1.664063,0.1787109,0.05712891,-0.3618164,-0.1616211
1179,-31.6875,-37.375,-188.3125,-1.052734,1.671875,0.1674805,0.07226563,-0.3579102,-0.1645508
1183,-31.875,-32.625,-194.75,-0.9516602,1.683105,0.159668,0.08203125,-0.3544922,-0.1674805
1187,-32.6875,-27.4375,-200.625,-0.9013672,1.625,0.1557617,0.1010742,-0.3481445,-0.1713867
1191,-29.6875,-22.8125,-204.8125,-0.862793,1.617188,0.1518555,0.1152344,-0.3393555,-0.1767578
1195,-28.4375,-23.25,-211.5,-0.8198242,1.652344,0.1748047,0.1269531,-0.3320313,-0.1806641
1199,-29.125,-29.0625,-211.6875,-0.7543945,1.644531,0.2021484,0.144043,-0.3217773,-0.1821289
1203,-33.1875,-40.25,-210.5,-0.6186523,1.625,0.2480469,0.1582031,-0.3105469,-0.1875
1207,-37.125,-40.375,-199.3125,-0.3666992,1.539551,0.2558594,0.1674805,-0.3032227,-0.1904297
1211,-39.125,-30.4375,-192.75,-0.230957,1.446289,0.2749023,0.1796875,-0.2905273,-0.1972656
1215,-42.625,-27.375,-188.3125,-0.2192383,1.426758,0.2983398,0.1928711,-0.2753906,-0.1987305
1219,-47.625,-38.5,-177.125,-0.2426758,1.294922,0.2944336,0.199707,-0.2670898,-0.2041016
1223,-49.4375,-46.1875,-159.75,-0.2387695,1.186035,0.2983398,0.2080078,-0.2519531,-0.2080078
1227,-53.8125,-41.0625,-155,-0.1728516,1.049805,0.3056641,0.2138672,-0.2382813,-0.2163086
1231,-59.5625,-18,-149.5625,-0.06054688,0.9375,0.2675781,0.2177734,-0.2280273,-0.2177734
1235,-59,15.25,-145.0625,-0.1030273,0.793457,0.2709961,0.2260742,-0.2143555,-0.2231445
1239,-57.1875,28.25,-145.625,-0.3862305,0.7314453,0.1904297,0.2319336,-0.2006836,-0.2231445
1243,-54.25,9,-139.3125,-0.5332031,0.6577148,0.1518555,0.237793,-0.1918945,-0.2231445
1247,-54,-23.125,-123.5,-0.4985352,0.5488281,0.144043,0.2426758,-0.1757813,-0.2246094
1251,-49.3125,-47.125,-107.9375,-0.3046875,0.4438477,0.1479492,0.2460938,-0.1655273,-0.2285156
1255,-50.875,-54.6875,-96.5,-0.1264648,0.4282227,0.140625,0.2451172,-0.1557617,-0.2324219
1259,-56.125,-51.625,-93.625,-0.03710938,0.3271484,0.140625,0.2451172,-0.1455078,-0.237793
1263,-61.375,-54.125,-98.125,0.1132813,0.2573242,0.1171875,0.2436523,-0.1333008,-0.2436523
1267,-67.4375,-60.8125,-91.6875,0.2875977,0.1679688,0.05566406,0.2426758,-0.1245117,-0.2446289
1272,-68.875,-67.9375,-67.125,0.4389648,0.04736328,-0.001464844,0.2402344,-0.1157227,-0.2543945
1276,-63.4375,-67.6875,-36,0.5820313,-0.1616211,-0.0859375,0.2353516,-0.1054688,-0.2597656
1280,-52.9375,-55.125,-11.375,0.644043,-0.2705078,-0.1401367,0.2319336,-0.1020508,-0.2626953
1284,-39.6875,-30.5,3.125,0.7641602,-0.4492188,-0.1743164,0.2270508,-0.09570313,-0.2666016
1288,-23.5625,16.375,11.25,0.8149414,-0.5620117,-0.1591797,0.2285156,-0.09423828,-0.269043
1292,-3.8125,59.5,20.0625,0.5161133,-0.4726563,-0.1977539,0.230957,-0.09423828,-0.2651367
1296,13.4375,66.625,36.25,0.1713867,-0.4101563,-0.1474609,0.2329102,-0.09570313,-0.2626953
1300,28,59.0625,55.875,0.03955078,-0.3208008,-0.09765625,0.2368164,-0.09960938,-0.2568359
1304,36.125,63.4375,70.6875,0.02050781,-0.1694336,-0.02441406,0.2402344,-0.1054688,-0.2558594
1308,40,78.125,77.0625,-0.1030273,-0.06445313,0.02880859,0.2436523,-0.1142578,-0.2475586
1312,41.6875,83.9375,79.875,-0.296875,0.02832031,0.06347656,0.2460938,-0.1230469,-0.2392578
1316,41.625,78.5625,84.5,-0.4829102,0.1254883,0.09033203,0.25,-0.1293945,-0.2353516
1320,39.625,58.125,92.5625,-0.6494141,0.203125,0.140625,0.2519531,-0.140625,-0.2285156
1324,33.5625,27.4375,96,-0.5874023,0.3779297,0.1635742,0.253418,-0.1494141,-0.2255859
1328,29.75,15.75,104.6875,-0.4052734,0.3623047,0.1787109,0.2543945,-0.1567383,-0.2246094
1332,29.8125,33.625,113.0625,-0.2773438,0.3349609,0.1635742,0.25,-0.1669922,-0.21875
1336,32.4375,54.3125,112.4375,-0.378418,0.3427734,0.1132813,0.2485352,-0.1791992,-0.2177734
1340,35.4375,56.125,111.3125,-0.5566406,0.4438477,0.105957,0.2460938,-0.1845703,-0.2119141
1344,33.3125,37.9375,121.6875,-0.7036133,0.4946289,0.1210938,0.2460938,-0.1958008,-0.206543
1348,34.125,19.5,124.5,-0.6923828,0.6030273,0.1171875,0.2426758,-0.2080078,-0.2041016
1352,33.25,21.1875,127,-0.5795898,0.6655273,0.1367188,0.2402344,-0.2143555,-0.2011719
1356,32.3125,21.0625,124.625,-0.6342773,0.6733398,0.159668,0.2353516,-0.2280273,-0.1972656
1360,29.8125,6.1875,128.4375,-0.6767578,0.7080078,0.159668,0.2285156,-0.2382813,-0.1958008
1364,31.875,-3.0625,133.4375,-0.5371094,0.777832,0.144043,0.222168,-0.2441406,-0.1958008
1368,34.8125,13.25,137.0625,-0.4169922,0.8442383,0.1367188,0.2163086,-0.2568359,-0.1943359
1372,34.875,31.5,133,-0.4750977,0.9453125,0.159668,0.2070313,-0.2670898,-0.1889648
1376,30.125,27.0625,129.3125,-0.6147461,1.034668,0.159668,0.2045898,-0.2753906,-0.1865234
1380,23.75,2.5,131.25,-0.6030273,1.077148,0.1557617,0.1962891,-0.2841797,-0.1835938
1384,28.0625,13.375,146.6875,-0.215332,0.9643555,0.1098633,0.1879883,-0.2929688,-0.1821289
1388,37.9375,66.4375,152.125,-0.2700195,1.077148,0.105957,0.1796875,-0.3017578,-0.1782227
1392,30,88.375,138.125,-0.5991211,1.310547,0.1132813,0.1723633,-0.3120117,-0.1713867
1396,17.3125,67.875,131.3125,-0.8125,1.403809,0.144043,0.1650391,-0.3208008,-0.1645508
1401,5.8125,8.375,132.1875,-0.9287109,1.46582,0.1518555,0.1591797,-0.3256836,-0.1616211
1405,0.125,-34.0625,143.3125,-0.4052734,1.458008,0.1479492,0.1474609,-0.3305664,-0.1616211
1409,-0.9375,-9.625,164,0.04736328,1.32959,0.2021484,0.1342773,-0.3378906,-0.1616211
1413,3.1875,65.6875,174.5625,-0.06054688,1.364746,0.1210938,0.1235352,-0.3417969,-0.1630859
1417,-5.3125,98.125,161.375,-0.6884766,1.461914,-0.005371094,0.112793,-0.3481445,-0.1606445
1421,-11.9375,60.25,148.75,-1.265625,1.372559,-0.05517578,0.1020508,-0.3520508,-0.15625
1425,-9.1875,-17.5625,146.0625,-1.285156,1.32959,-0.03222656,0.09521484,-0.3554688,-0.15625
1429,-8.375,-81.8125,149.9375,-0.9711914,1.279297,0.005859375,0.07861328,-0.3579102,-0.1591797
1433,5.375,-74.375,159.25,-0.4907227,1.158691,0.08251953,0.06054688,-0.3603516,-0.1591797
1437,12.75,-31.3125,144.1875,-0.4013672,1.244141,0.1518555,0.05078125,-0.3642578,-0.1591797
1441,12.5625,8.8125,124.4375,-0.5410156,1.356934,0.2402344,0.03662109,-0.3657227,-0.1591797
1445,6.9375,17.75,115.5,-0.9326172,1.39209,0.2558594,0.02734375,-0.3657227,-0.15625
1449,4,1.375,109.75,-1.149414,1.418945,0.2558594,0.01757813,-0.3666992,-0.15625
1453,1.75,-0.25,99.375,-1.083496,1.388184,0.2519531,0.008300781,-0.3691406,-0.1547852
1457,-2.6875,14,83.4375,-1.15332,1.364746,0.2480469,0.0009765625,-0.3657227,-0.1538086
1461,-4,33.6875,65.875,-1.300781,1.298828,0.1982422,-0.001953125,-0.3691406,-0.1547852
1465,-4.0625,47.5,47.0625,-1.575684,1.255859,0.125,-0.006835938,-0.3681641,-0.1547852
1469,0,38.4375,28.125,-1.905273,1.255859,0.04052734,-0.009277344,-0.3657227,-0.15625
1473,-0.1875,9.9375,1.9375,-2.029297,1.337402,0.03662109,-0.009277344,-0.3642578,-0.1547852
1477,-4.0625,-17.875,-30.1875,-1.936035,1.376465,0.04443359,-0.009277344,-0.3657227,-0.15625
1481,-10.25,-37.9375,-58.875,-1.753906,1.39209,0.05175781,-0.005859375,-0.3666992,-0.1547852
1485,-10.8125,-51.5625,-77.5,-1.48291,1.368652,0.08251953,-0.003417969,-0.3657227,-0.15625
1489,-11.75,-46.75,-91,-1.199707,1.376465,0.07910156,0.0009765625,-0.3657227,-0.1591797
1493,-10.8125,-28.1875,-102.5,-1.060547,1.325684,0.08251953,0.009277344,-0.3657227,-0.1616211
1497,-6.625,-11.6875,-115.9375,-1.133789,1.310547,0.08642578,0.01513672,-0.3642578,-0.1591797
1501,-2.875,-9,-130.125,-1.257813,1.337402,0.09814453,0.02734375,-0.3618164,-0.1606445
1505,-1.0625,-8.3125,-151.5,-1.370117,1.399902,0.105957,0.03662109,-0.3632813,-0.1616211
1509,3.25,-13.4375,-173.25,-1.436035,1.422852,0.1098633,0.04736328,-0.3632813,-0.1630859
1513,9.8125,-24,-195.375,-1.32373,1.679688,0.1479492,0.06298828,-0.359375,-0.1630859
1517,4.9375,-34.6875,-206.875,-1.099121,1.850586,0.1713867,0.08203125,-0.3554688,-0.1645508
1521,0.75,-40.875,-204.75,-0.8164063,1.854492,0.2060547,0.09033203,-0.3520508,-0.1660156
1525,-1.75,-23.25,-196.25,-0.5795898,1.823242,0.2060547,0.1069336,-0.3466797,-0.1660156
1530,-1.75,-0.25,-203.0625,-0.5214844,1.753418,0.2060547,0.125,-0.3393555,-0.1660156
1534,-3.625,9,-209.5,-0.4208984,1.769043,0.1982422,0.1376953,-0.3330078,-0.1660156
1538,-11.6875,15.75,-201.375,-0.3354492,1.757324,0.1943359,0.1557617,-0.3232422,-0.1674805
1542,-18.5,22.0625,-191.25,-0.3706055,1.559082,0.144043,0.1699219,-0.3154297,-0.168457
1546,-19.5,17.75,-191.3125,-0.4130859,1.426758,0.1020508,0.1831055,-0.3041992,-0.168457
1550,-16.6875,17.875,-189.0625,-0.246582,1.306641,0.08251953,0.1962891,-0.2919922,-0.168457
1554,-16.875,30.0625,-189.75,-0.3549805,1.306641,0.04443359,0.2119141,-0.2807617,-0.1699219
1558,-20.6875,11.0625,-192.1875,-0.6186523,1.240234,0.05175781,0.222168,-0.2695313,-0.1699219
1562,-30.1875,-44.9375,-182.9375,-0.6767578,1.077148,0.04785156,0.2319336,-0.2543945,-0.1713867
1566,-38.875,-93.75,-167.1875,-0.3354492,0.9995117,0.04052734,0.2392578,-0.2416992,-0.1782227
1570,-45.3125,-103.3125,-151.375,0.05517578,0.875,0.02490234,0.2412109,-0.2319336,-0.1821289
1574,-46.75,-84.25,-137.4375,0.1328125,0.7197266,0.02490234,0.2460938,-0.2167969,-0.1928711
1578,-45.125,-80,-126.5,0.09033203,0.5722656,0.01367188,0.2475586,-0.2045898,-0.199707
1582,-42.6875,-86.5,-110.1875,0.140625,0.3349609,0.04443359,0.2475586,-0.1967773,-0.2080078
1586,-36.1875,-81.0625,-95.375,0.3071289,0.2807617,0.05566406,0.2451172,-0.1855469,-0.2148438
1590,-34.125,-49.3125,-86.4375,0.4658203,0.21875,0.05566406,0.2460938,-0.1767578,-0.2202148
1594,-29.625,-9.875,-88.75,0.4155273,0.1020508,0.04785156,0.2460938,-0.1704102,-0.2231445
1598,-23.875,8.125,-74.875,0.2294922,-0.01025391,0.05957031,0.2485352,-0.1591797,-0.2246094
1602,-16.3125,2.625,-55.625,0.04736328,-0.01806641,0.105957,0.2519531,-0.1557617,-0.2270508
1606,-18.625,-17.5,-41.625,-0.04882813,-0.05273438,0.06347656,0.253418,-0.1494141,-0.2246094
1610,-15.75,-31.5,-28.6875,0.03564453,-0.1074219,0.04052734,0.2519531,-0.1479492,-0.2285156
1614,-11.4375,-34.9375,-14,0.1674805,-0.1967773,0.04052734,0.2485352,-0.1430664,-0.2299805
1618,-4.0625,-16.4375,0.1875,0.3378906,-0.2275391,0.05957031,0.2485352,-0.1430664,-0.2324219
1622,7.875,19.625,12.6875,0.3886719,-0.2587891,0.07910156,0.2475586,-0.1445313,-0.2338867
1626,16.6875,47.5,26.125,0.1674805,-0.1694336,0.08251953,0.2460938,-0.1455078,-0.2299805
1630,24.625,59.3125,37.6875,-0.06445313,-0.1074219,0.07519531,0.2519531,-0.1479492,-0.2285156
1634,27.6875,56.1875,47.5,-0.2700195,0.03222656,0.105957,0.2558594,-0.1518555,-0.2216797
1638,25,43.875,55.75,-0.4326172,0.09423828,0.140625,0.2543945,-0.1567383,-0.2177734
1642,21.25,26.375,59.8125,-0.4091797,0.1367188,0.1787109,0.2568359,-0.1645508,-0.2133789
1646,19.75,21.25,68.75,-0.2773438,0.2148438,0.1982422,0.2558594,-0.1694336,-0.2133789
1650,18.6875,32.25,75.5625,-0.28125,0.21875,0.1713867,0.253418,-0.1757813,-0.2094727
1654,19.6875,39.75,79.75,-0.4091797,0.2885742,0.1289063,0.253418,-0.1831055,-0.2080078
1659,17.5,26.4375,85,-0.4829102,0.315918,0.1171875,0.253418,-0.1894531,-0.2026367
1663,17,13.6875,94.4375,-0.378418,0.3505859,0.125,0.2509766,-0.1982422,-0.2026367
1667,21,30.3125,102.0625,-0.1650391,0.3701172,0.105957,0.2475586,-0.203125,-0.1987305
1671,26.125,63.75,108.0625,-0.3745117,0.4868164,0.04443359,0.2460938,-0.2128906,-0.1958008
1675,25,64,102.625,-0.7348633,0.5839844,0.06738281,0.2426758,-0.2231445,-0.1889648
1679,16.1875,21.625,105.4375,-0.9130859,0.6381836,0.1098633,0.2412109,-0.2280273,-0.1850586
1683,16.4375,-24.4375,118.5,-0.7036133,0.5449219,0.1328125,0.237793,-0.2368164,-0.1850586
1687,20.4375,-20.4375,124.75,-0.2773438,0.6811523,0.1020508,0.2294922,-0.2470703,-0.1835938
1691,26.875,28.5625,126.5625,-0.1650391,0.7626953,0.1367188,0.2246094,-0.2543945,-0.1875
1695,22.625,57.125,120.875,-0.5102539,0.9296875,0.1098633,0.2177734,-0.2641602,-0.1806641
1699,14.1875,35.625,125.5625,-0.8974609,0.8828125,0.1289063,0.2119141,-0.2744141,-0.1782227
1703,12.1875,-18.875,134.125,-0.9594727,0.8632813,0.1328125,0.2070313,-0.2807617,-0.1782227
1707,12.25,-53.75,137.9375,-0.5644531,0.9101563,0.105957,0.1972656,-0.2895508,-0.1767578
1711,18.125,-28.9375,142.375,-0.1689453,0.9995117,0.1328125,0.1855469,-0.2993164,-0.175293
1715,19.1875,16.0625,135.125,-0.1728516,1.120117,0.1674805,0.1757813,-0.3066406,-0.1796875
1719,13.5625,25.625,137.0625,-0.4013672,1.217285,0.1635742,0.1665039,-0.3129883,-0.175293
1723,8.3125,12.125,144.0625,-0.4829102,1.120117,0.1367188,0.1567383,-0.3217773,-0.1738281
1727,10.5625,7.25,153.75,-0.5141602,1.162598,0.09033203,0.1484375,-0.3256836,-0.1713867
1731,13.875,4.75,151.6875,-0.7231445,1.108398,0.04443359,0.1367188,-0.3320313,-0.168457
1735,18.25,-18.875,144.9375,-0.796875,1.302734,0.07519531,0.1225586,-0.3393555,-0.168457
1739,16.4375,-50.875,152.1875,-0.699707,1.345215,0.1210938,0.112793,-0.3432617,-0.1674805
1743,13.75,-76.5,156.8125,-0.4946289,1.368652,0.125,0.09863281,-0.3481445,-0.168457
1747,6.5625,-75.625,163,-0.2661133,1.403809,0.07519531,0.07861328,-0.3544922,-0.168457
1751,18.75,-45.875,166.75,-0.06054688,1.073242,0.1328125,0.06982422,-0.3554688,-0.168457
1755,33.375,7.8125,160.4375,0.04345703,1.368652,0.1557617,0.04980469,-0.3579102,-0.1674805
1759,34.0625,62.9375,150.3125,-0.1342773,1.516113,0.1865234,0.03808594,-0.3632813,-0.1630859
1763,30.0625,86.5625,140.375,-0.6494141,1.586426,0.1328125,0.03320313,-0.3666992,-0.1606445
1767,22.0625,51.4375,137.375,-1.261719,1.527832,0.1132813,0.02246094,-0.3681641,-0.15625
1771,15.3125,-13.4375,134.1875,-1.420898,1.376465,0.125,0.009277344,-0.3691406,-0.1547852
1775,12.375,-51.0625,122.6875,-1.095215,1.248047,0.125,0.0009765625,-0.3681641,-0.1508789
1779,20.875,-36,109.8125,-0.746582,1.244141,0.1713867,-0.01025391,-0.3681641,-0.1494141
1783,23.4375,8.9375,95.375,-0.8432617,1.310547,0.1479492,-0.02246094,-0.3691406,-0.1494141
1788,31.5,40.375,77.1875,-1.168945,1.287109,0.2094727,-0.02832031,-0.3681641,-0.1484375
1792,35,50.9375,63.5,-1.459473,1.345215,0.2172852,-0.03417969,-0.3666992,-0.144043
1796,35.1875,56.9375,44.4375,-1.687988,1.473633,0.3095703,-0.03759766,-0.3681641,-0.1401367
1800,24.5625,49.875,5.5,-1.978516,1.605469,0.3056641,-0.03662109,-0.3691406,-0.1401367
1804,6.625,16.8125,-40.3125,-2.067871,1.648438,0.3173828,-0.03662109,-0.3691406,-0.1401367
1808,-12.625,-24.8125,-68.6875,-1.79248,1.648438,0.3056641,-0.03076172,-0.3706055,-0.137207
1812,-28.6875,-48.75,-77.875,-1.385742,1.58252,0.2597656,-0.02587891,-0.3691406,-0.1386719
1816,-31.875,-41.9375,-87.375,-1.044922,1.454102,0.1904297,-0.02001953,-0.3691406,-0.144043
1820,-30.4375,-10.5,-106.1875,-0.9013672,1.418945,0.1098633,-0.01269531,-0.3706055,-0.1455078
1824,-25.125,15.4375,-125.875,-0.9985352,1.411133,0.08251953,-0.006835938,-0.3681641,-0.1494141
1828,-23,17.5625,-141.9375,-1.145508,1.46582,0.06347656,0.005859375,-0.3691406,-0.1494141
1832,-21.4375,8.0625,-157.4375,-1.133789,1.508301,0.03662109,0.02148438,-0.3666992,-0.1523438
1836,-18.4375,5.375,-165.9375,-0.9829102,1.562988,0.02880859,0.03173828,-0.3691406,-0.1547852
1840,-13.5,14.9375,-173.6875,-0.8588867,1.566895,0.01367188,0.04736328,-0.3666992,-0.1577148
1844,-7.75,30.8125,-184.4375,-0.796875,1.625,0.03271484,0.06640625,-0.3603516,-0.1606445
1848,-3,41.0625,-191.75,-0.7851563,1.648438,0.02099609,0.07861328,-0.3603516,-0.1591797
1852,0.625,42.4375,-194.9375,-0.878418,1.636719,-0.01318359,0.09765625,-0.3569336,-0.1591797
1856,6.5625,35,-200.375,-0.9013672,1.613281,-0.02050781,0.1166992,-0.3491211,-0.1591797
1860,10.75,23.75,-205.5,-0.8164063,1.574707,0.02099609,0.1293945,-0.3442383,-0.1577148
1864,12.4375,17.9375,-209.1875,-0.7075195,1.555176,0.01708984,0.1474609,-0.3354492,-0.1547852
1868,14.4375,20.25,-207.1875,-0.6147461,1.493164,0.04785156,0.1650391,-0.3242188,-0.1538086
1872,17.4375,23.6875,-209.1875,-0.5214844,1.500488,0.08642578,0.1782227,-0.3168945,-0.1508789
1876,17.4375,23.8125,-205,-0.5141602,1.481445,0.1289063,0.1962891,-0.3056641,-0.1494141
1880,15.875,24,-201.625,-0.3862305,1.32959,0.1289063,0.2104492,-0.2944336,-0.1455078
1884,19.9375,35.75,-196.875,-0.3354492,1.217285,0.1635742,0.222168,-0.2856445,-0.144043
1888,20.875,49.6875,-197.25,-0.2890625,1.162598,0.1713867,0.2368164,-0.2705078,-0.1401367
1892,21.6875,56.75,-190.5625,-0.4287109,1.053711,0.1479492,0.2509766,-0.2568359,-0.1357422
1896,21.1875,34.0625,-185,-0.5722656,1.045898,0.1904297,0.2592773,-0.2480469,-0.1303711
1900,12.0625,-0.5,-173.5,-0.4672852,0.9956055,0.2060547,0.2700195,-0.2319336,-0.1279297
1904,5.75,-32.9375,-153.3125,-0.3745117,0.8442383,0.2021484,0.2773438,-0.2182617,-0.1303711
1908,-0.5625,-47.75,-141.1875,-0.06835938,0.7158203,0.1748047,0.2817383,-0.2104492,-0.1318359
1912,-8.375,-28.375,-145.25,0.1831055,0.5800781,0.105957,0.2880859,-0.1967773,-0.1357422
1917,-6.6875,-4.3125,-138.625,0.125,0.3662109,0.07519531,0.2924805,-0.1821289,-0.137207
1921,-3.875,-1.5,-127.0625,0.109375,0.2729492,0.07910156,0.2939453,-0.1743164,-0.1386719
1925,-7.5,-10.625,-109.5,0.09033203,0.237793,0.06738281,0.2973633,-0.1621094,-0.137207
1929,-9.75,-24.9375,-89.125,0.08642578,0.09033203,0.05566406,0.2998047,-0.1508789,-0.1401367
1933,-10.4375,-39.625,-71.8125,0.1445313,0.05517578,0.06738281,0.3007813,-0.1455078,-0.1401367
1937,-13.4375,-48.625,-57.6875,0.3071289,-0.02978516,0.06738281,0.3007813,-0.1396484,-0.1484375
1941,-16.125,-36.75,-43.1875,0.543457,-0.09179688,0.06347656,0.2998047,-0.1342773,-0.1494141
1945,-15.625,-9.75,-23.6875,0.5317383,-0.2275391,0.009765625,0.3007813,-0.1318359,-0.1523438
1949,-6.9375,6.625,-1.5625,0.3652344,-0.3017578,-0.005371094,0.2998047,-0.1279297,-0.1523438
1953,-2,13.75,16.0625,0.2836914,-0.2241211,-0.005371094,0.3007813,-0.1279297,-0.1523438
1957,1.6875,24.5625,29.75,0.2333984,-0.2124023,-0.02050781,0.3007813,-0.1308594,-0.1494141
1961,2.5625,41,44.1875,0.1015625,-0.1308594,-0.05908203,0.3022461,-0.1318359,-0.1494141
1965,9.0625,53.1875,56.75,-0.1108398,-0.1269531,-0.05908203,0.3022461,-0.1396484,-0.1425781
1969,11.625,57.9375,65.375,-0.3125,0.008789063,-0.04736328,0.3046875,-0.1445313,-0.1416016
1973,6.625,45.6875,68.375,-0.5683594,0.1367188,-0.02050781,0.3007813,-0.1494141,-0.1347656
1977,-2.0625,14.375,73.625,-0.6186523,0.1445313,-0.03222656,0.3022461,-0.1542969,-0.1318359
1981,-3.0625,-3.5,82.375,-0.4169922,0.1523438,-0.005371094,0.2998047,-0.1630859,-0.1303711
1985,-2.8125,9.25,89.3125,-0.1650391,0.1523438,0.001953125,0.2983398,-0.1704102,-0.1333008
1989,-0.75,40.3125,89,-0.1884766,0.253418,-0.03222656,0.2949219,-0.1791992,-0.1303711
1993,-1.5625,46.1875,87.5,-0.5488281,0.3271484,-0.05517578,0.2939453,-0.1845703,-0.1264648
1997,-6.6875,6.1875,91.5625,-0.7695313,0.4516602,-0.04736328,0.2924805,-0.1918945,-0.1235352
2001,-13.3125,-45.5625,98.25,-0.5756836,0.4868164,-0.005371094,0.2890625,-0.2006836,-0.1264648
2005,-5.375,-27.0625,114.9375,0.0009765625,0.300293,-0.01660156,0.2832031,-0.2070313,-0.1279297
2009,9.875,57.4375,112,0.05126953,0.4868164,-0.07861328,0.2773438,-0.2167969,-0.1303711
2013,4.375,103.75,107.25,-0.6572266,0.7001953,-0.1435547,0.2749023,-0.2255859,-0.1210938
2017,-2.5,52.25,111.125,-1.420898,0.7817383,-0.01318359,0.2734375,-0.2329102,-0.1157227
2021,-15,-60.4375,137.5,-1.405273,0.8828125,-0.01318359,0.2675781,-0.2441406,-0.1157227
2025,-14.6875,-91.25,152.875,-0.7348633,0.7626953,0.03271484,0.2583008,-0.2558594,-0.1235352
2029,-12.375,-45.1875,136.75,-0.230957,0.875,0.1098633,0.25,-0.2631836,-0.125
2033,-15.625,17.8125,121.375,-0.3203125,0.956543,0.08642578,0.2402344,-0.2729492,-0.1279297
2037,-18.875,28.75,124.1875,-0.6962891,1.019043,0.08642578,0.2329102,-0.2807617,-0.1289063
2041,-19.4375,0.5,132.1875,-0.9091797,0.972168,0.06347656,0.2285156,-0.2866211,-0.1279297
2046,-13.875,-15.0625,140.1875,-0.7114258,0.9838867,0.03271484,0.21875,-0.2983398,-0.1303711
2050,-11.5,12.4375,123.125,-0.4594727,1.131836,0.04443359,0.2094727,-0.3066406,-0.1333008
2054,-14.25,35.625,106,-0.5527344,1.189941,0.005859375,0.2011719,-0.3095703,-0.1318359
2058,-21.9375,29.875,112.9375,-0.746582,1.251953,-0.01318359,0.1962891,-0.3154297,-0.1303711
2062,-25,4.75,133.5,-0.847168,1.09668,0.009765625,0.1855469,-0.3208008,-0.1318359
2066,-20.9375,-6.375,138,-0.5756836,0.9916992,-0.04394531,0.1772461,-0.3256836,-0.1318359
2070,-5.625,23.5,130.625,-0.4672852,1.104492,-0.03222656,0.1640625,-0.3330078,-0.1318359
2074,-7.5625,52.125,107.875,-0.7734375,1.317871,-0.1245117,0.1567383,-0.3393555,-0.1318359
2078,-12.625,40.375,111.75,-1.041016,1.364746,-0.02441406,0.1523438,-0.3417969,-0.1318359
2082,-23.1875,-7.4375,134.25,-1.176758,1.32959,0.009765625,0.1416016,-0.3466797,-0.1289063
2086,-27.6875,-43.3125,154.125,-0.8432617,1.182129,-0.005371094,0.1308594,-0.3530273,-0.1333008
2090,-21,-32.1875,141.875,-0.6147461,1.077148,-0.1054688,0.1176758,-0.3554688,-0.1357422
2094,-7.9375,9.625,120.0625,-0.5991211,1.116211,-0.128418,0.105957,-0.359375,-0.137207
2098,-6.375,31.3125,101.1875,-0.9130859,1.154785,-0.08203125,0.09619141,-0.3632813,-0.1357422
2102,-9.3125,20.125,105.75,-0.9555664,1.356934,0.009765625,0.08886719,-0.3642578,-0.137207
2106,-15.5,1.75,103.8125,-1.063965,1.186035,-0.02832031,0.08203125,-0.3666992,-0.1386719
2110,-10.375,-6.9375,100.375,-0.9907227,1.158691,-0.03222656,0.06982422,-0.3691406,-0.137207
2114,-4,-12.625,92.8125,-1.129883,1.197754,-0.09375,0.06396484,-0.3706055,-0.1401367
2118,-9.125,-15,63.375,-1.133789,1.154785,-0.02441406,0.05712891,-0.3691406,-0.1386719
2122,-11.4375,-10.6875,47.1875,-1.060547,1.116211,-0.04003906,0.05078125,-0.3691406,-0.1425781
2126,-12.9375,5.75,54.9375,-1.063965,1.081055,-0.1323242,0.04882813,-0.3706055,-0.1401367
2130,-8.4375,28,42,-1.277344,0.9838867,-0.1977539,0.04248047,-0.3691406,-0.1386719
2134,0.25,36.625,26.875,-1.529297,1.003418,-0.2128906,0.04150391,-0.3706055,-0.1425781
2138,3.625,29.5625,9.0625,-1.684082,1.154785,-0.1977539,0.04150391,-0.3691406,-0.1401367
2142,-0.375,28.4375,-5.75,-1.715332,1.112305,-0.2363281,0.04052734,-0.371582,-0.1386719
2146,8.9375,31.4375,-39.8125,-1.552246,1.150879,-0.1899414,0.04492188,-0.3706055,-0.1386719
2150,-3.0625,14.3125,-48.875,-1.599121,1.380371,-0.2475586,0.04736328,-0.3706055,-0.1401367
2154,-15.125,-14.125,-38.5,-1.606445,1.279297,-0.2207031,0.05224609,-0.3706055,-0.1386719
2158,-9.0625,-27.625,-57.375,-1.463379,1.182129,-0.2324219,0.05566406,-0.3666992,-0.1416016
2162,1.6875,-23.5,-91.4375,-1.315918,1.162598,-0.2631836,0.05957031,-0.3691406,-0.1425781
2166,16.25,-13.9375,-119.9375,-1.319824,1.131836,-0.2939453,0.06982422,-0.3681641,-0.1425781
2170,34.125,-5.75,-146.75,-1.257813,1.317871,-0.2861328,0.07958984,-0.3657227,-0.1416016
2175,25.6875,-3.75,-147.4375,-1.343262,1.535645,-0.3012695,0.09033203,-0.3642578,-0.1386719
2179,31.1875,-17.8125,-154.0625,-1.327637,1.376465,-0.2246094,0.1020508,-0.3618164,-0.137207
2183,39.375,-29.625,-167.8125,-1.211426,1.59375,-0.2167969,0.1166992,-0.3554688,-0.1401367
2187,38.1875,-29.5625,-178.5,-1.029297,1.632813,-0.1630859,0.1259766,-0.3544922,-0.1357422
2191,39.6875,-21.6875,-186.875,-0.9399414,1.586426,-0.112793,0.1416016,-0.3466797,-0.1333008
2195,42.25,-11.125,-190.5625,-0.9052734,1.555176,-0.109375,0.1567383,-0.3393555,-0.1318359
2199,43.6875,-0.875,-193.75,-0.8974609,1.574707,-0.04394531,0.1699219,-0.3344727,-0.1279297
2203,41.5625,-2.3125,-200.1875,-0.9326172,1.578613,0.009765625,0.1855469,-0.3242188,-0.1264648
2207,39.125,-16.8125,-200.9375,-0.8857422,1.605469,0.06738281,0.1987305,-0.3129883,-0.125
2211,30.875,-35,-195.875,-0.8237305,1.504395,0.06347656,0.2119141,-0.3056641,-0.1235352
2215,30.4375,-46.875,-192.5,-0.7387695,1.372559,0.08251953,0.2236328,-0.2929688,-0.1235352
2219,29.1875,-38.625,-187.9375,-0.5253906,1.302734,0.07128906,0.2368164,-0.2807617,-0.1235352
2223,33.125,-9.3125,-191.75,-0.378418,1.236328,0.1289063,0.2436523,-0.2705078,-0.1264648
2227,32.625,9.9375,-197.625,-0.4711914,1.279297,0.2021484,0.2568359,-0.2568359,-0.1225586
2231,22.25,-1.5625,-201.0625,-0.5371094,1.353027,0.2944336,0.2675781,-0.2407227,-0.1196289
2235,5.375,-33.875,-189.5,-0.4326172,1.291016,0.3520508,0.2734375,-0.2304688,-0.1210938
2239,-13.375,-49.625,-169.625,-0.1499023,1.116211,0.3291016,0.2817383,-0.2143555,-0.1235352
2243,-22.9375,-37.0625,-159.5625,0.09375,0.8364258,0.2060547,0.2890625,-0.1967773,-0.1303711
2247,-26.375,-11.1875,-162.5625,0.1948242,0.6147461,0.1132813,0.2900391,-0.1879883,-0.1318359
2251,-23.6875,5.5,-151.375,0.175293,0.3662109,0.02880859,0.2963867,-0.1704102,-0.1318359
2255,-16.1875,4.75,-128.6875,0.1484375,0.1835938,-0.03222656,0.3022461,-0.1557617,-0.1289063
2259,-6.6875,4,-104.625,0.1870117,0.06298828,-0.04736328,0.3032227,-0.1479492,-0.1318359
2263,2.5625,5,-81,0.1831055,-0.002441406,-0.01660156,0.3056641,-0.1396484,-0.1318359
2267,3.3125,0.6875,-68.75,0.1289063,0.07080078,0.04443359,0.3081055,-0.1318359,-0.1318359
2271,-3.625,-9,-62.375,0.09765625,-0.01025391,0.04443359,0.309082,-0.1269531,-0.1318359
2275,-6.3125,-19.6875,-51.875,0.1445313,-0.08007813,0.05175781,0.309082,-0.1196289,-0.1303711
2279,-12.375,-23.6875,-36.375,0.2875977,-0.1420898,0.03662109,0.309082,-0.1157227,-0.1347656
2283,-12.5,-21.1875,-12.3125,0.3417969,-0.2353516,0.02880859,0.309082,-0.1142578,-0.1357422
2287,-8.75,-14.625,10.9375,0.3305664,-0.2666016,0.005859375,0.3071289,-0.1118164,-0.137207
2291,-5.75,-5,26.1875,0.3227539,-0.2275391,0.03271484,0.3081055,-0.1142578,-0.1386719
2295,-4.125,12.5,38.5,0.2797852,-0.2744141,-0.001464844,0.3071289,-0.1157227,-0.137207
2299,3.5,36.3125,53.875,0.1791992,-0.1850586,-0.04394531,0.3071289,-0.1220703,-0.137207
2304,7.25,56.375,67.875,-0.08007813,-0.1420898,-0.0859375,0.3081055,-0.1254883,-0.1318359
2308,13.0625,57.625,78.5625,-0.3549805,-0.06835938,-0.08984375,0.3081055,-0.1308594,-0.1303711
2312,12.0625,41.75,83.5625,-0.5063477,0.105957,-0.03613281,0.3081055,-0.140625,-0.125
2316,0.9375,25,86.625,-0.4482422,0.1796875,0.005859375,0.3071289,-0.1494141,-0.1196289
2320,-3.5625,16.875,92.625,-0.4208984,0.1484375,0.009765625,0.3056641,-0.1542969,-0.1196289
2324,-3.3125,12.125,98.5,-0.4521484,0.2299805,0.001953125,0.3032227,-0.1621094,-0.1157227
2328,-6.375,2.875,102.9375,-0.4091797,0.2963867,0.02099609,0.2983398,-0.1704102,-0.1181641
2332,-11,-5.3125,111.9375,-0.3125,0.4711914,0.07128906,0.2983398,-0.1767578,-0.1181641
2336,-15.0625,-0.4375,135.0625,-0.3085938,0.3583984,-0.009277344,0.2939453,-0.1894531,-0.1181641
2340,-7.25,9.75,141.0625,-0.4013672,0.4594727,0.02099609,0.2880859,-0.203125,-0.1181641
2344,-14.3125,8.75,131.1875,-0.4208984,0.6616211,0.09423828,0.2841797,-0.2119141,-0.1166992
2348,-21.5,13.5,139.25,-0.2231445,0.7158203,0.08642578,0.2783203,-0.2231445,-0.1196289
2352,-22.0625,29.1875,155.5,-0.3588867,0.7666016,0.01367188,0.2724609,-0.234375,-0.1157227
2356,-20.8125,42.8125,164.5625,-0.5410156,0.7626953,-0.04394531,0.269043,-0.2456055,-0.1181641
2360,-17.875,44.0625,161.625,-0.6416016,0.8208008,-0.05517578,0.2592773,-0.2583008,-0.1142578
2364,-18.125,42.125,157.4375,-0.6303711,0.921875,-0.02050781,0.2509766,-0.2695313,-0.1113281
2368,-26.5,30.75,151.3125,-0.7192383,1.077148,0.02099609,0.2436523,-0.2768555,-0.1098633
2372,-35.5,2.5,154,-0.796875,1.104492,0.02490234,0.2329102,-0.2866211,-0.1074219
2376,-39.1875,-23.4375,160.25,-0.6494141,1.174316,0.04052734,0.2236328,-0.2993164,-0.1157227
2380,-41.875,-36.8125,168.3125,-0.4907227,1.135742,0.05566406,0.2138672,-0.3041992,-0.1166992
2384,-44.0625,-22.125,178.3125,-0.3432617,1.088867,-0.04003906,0.199707,-0.3154297,-0.1235352
2388,-29.75,16.125,171.3125,-0.4404297,1.01123,-0.109375,0.184082,-0.3242188,-0.1279297
2392,-23.0625,34.0625,152.25,-0.715332,1.314453,-0.09765625,0.1772461,-0.3291016,-0.1264648
2396,-29,10.75,144.0625,-0.8198242,1.407715,0.01708984,0.1640625,-0.3354492,-0.1279297
2400,-43.5,-26.8125,152.875,-0.7114258,1.500488,0.02490234,0.1533203,-0.3417969,-0.1279297
2404,-38.1875,-30.9375,171.5625,-0.4711914,1.209473,-0.01318359,0.1416016,-0.3481445,-0.1333008
2408,-27.9375,1.625,169.375,-0.2890625,1.337402,-0.05517578,0.1259766,-0.3544922,-0.1357422
2412,-18.8125,52.5,155.8125,-0.347168,1.426758,-0.07861328,0.1103516,-0.3579102,-0.137207
2416,-20.375,68,140.75,-0.7929688,1.555176,-0.09765625,0.1044922,-0.3603516,-0.137207
2420,-28.125,28.3125,129.6875,-1.029297,1.605469,-0.04394531,0.09375,-0.3632813,-0.137207
2424,-39.3125,-31.9375,133.5625,-0.8354492,1.566895,0.01708984,0.08056641,-0.3666992,-0.137207
2428,-39.5,-57.6875,143.1875,-0.4443359,1.403809,-0.02050781,0.06884766,-0.3666992,-0.1416016
2433,-28.9375,-30.25,150.875,-0.2192383,1.321777,-0.07080078,0.05566406,-0.3691406,-0.1455078
2437,-16.9375,16.1875,135.5,-0.2929688,1.364746,-0.05517578,0.04150391,-0.3706055,-0.1484375
2441,-19.375,38.8125,117.25,-0.6376953,1.458008,-0.04394531,0.03320313,-0.3681641,-0.1469727
2445,-28.25,22.625,113.5625,-1.009766,1.411133,-0.07470703,0.0234375,-0.3691406,-0.1508789
2449,-27.1875,-18.375,110.5625,-1.187988,1.310547,-0.07080078,0.01513672,-0.3666992,-0.1538086
2453,-30.0625,-44.3125,104.6875,-1.15332,1.217285,-0.1362305,0.005859375,-0.3657227,-0.1523438
2457,-16.75,-39.875,93.9375,-1.048828,1.154785,-0.1323242,-0.004394531,-0.3642578,-0.15625
2461,-6.8125,-3.8125,77.6875,-1.063965,1.244141,-0.1552734,-0.01416016,-0.3632813,-0.15625
2465,4.75,41.0625,56,-1.339355,1.298828,-0.1552734,-0.01611328,-0.3603516,-0.1547852
2469,7.5,55.5,26.4375,-1.815918,1.454102,-0.2475586,-0.02099609,-0.3632813,-0.1547852
2473,6.4375,36.3125,-8.875,-2.114258,1.477539,-0.2861328,-0.01855469,-0.3632813,-0.1508789
2477,-0.0625,-7.5,-48.875,-2.114258,1.500488,-0.2475586,-0.01757813,-0.3657227,-0.15625
2481,-7.25,-49.5,-78.5625,-1.738281,1.539551,-0.1899414,-0.01171875,-0.3632813,-0.1577148
2485,-11.75,-68.3125,-94.4375,-1.315918,1.481445,-0.1743164,-0.006835938,-0.3642578,-0.1547852
2489,-9.3125,-61.5,-103.9375,-0.9985352,1.430664,-0.1669922,-0.004394531,-0.3632813,-0.1606445
2493,-5.6875,-40.9375,-113.125,-0.8276367,1.39209,-0.1630859,0.003417969,-0.3642578,-0.1577148
2497,0.5,-20,-124.8125,-0.8666992,1.384277,-0.1513672,0.01513672,-0.3642578,-0.1591797
2501,5.625,-10.9375,-141.5,-0.9438477,1.407715,-0.128418,0.02148438,-0.3632813,-0.1577148
2505,7.0625,-14.1875,-156,-0.9516602,1.481445,-0.109375,0.03417969,-0.3666992,-0.1606445
2509,8.3125,-19.375,-164.0625,-0.8935547,1.504395,-0.1015625,0.04638672,-0.3642578,-0.1616211
2513,12.1875,-16.625,-167.9375,-0.8393555,1.46582,-0.1015625,0.05712891,-0.3632813,-0.1591797
2517,21.75,-5.3125,-172.5,-0.7695313,1.469727,-0.09375,0.07373047,-0.3579102,-0.1606445
2521,30.4375,14.5625,-181.8125,-0.796875,1.527832,-0.1015625,0.08886719,-0.3569336,-0.1591797
2525,37.6875,20.0625,-193.8125,-0.9326172,1.644531,-0.06298828,0.09960938,-0.3530273,-0.1547852
2529,37.125,-0.5625,-202.8125,-0.9790039,1.702637,0.01367188,0.1176758,-0.3491211,-0.1547852
2533,32,-28.25,-200.5625,-0.8354492,1.718262,0.05566406,0.1357422,-0.3417969,-0.1494141
2537,29.0625,-42.3125,-191.8125,-0.5991211,1.613281,0.07910156,0.1459961,-0.3369141,-0.1508789
2541,30.875,-30.5625,-189.625,-0.4052734,1.555176,0.09033203,0.1616211,-0.328125,-0.1508789
2545,30.0625,-17.3125,-199.125,-0.4052734,1.527832,0.1020508,0.1772461,-0.3217773,-0.1494141
2549,26.25,-20,-201.125,-0.4169922,1.458008,0.1479492,0.1879883,-0.3154297,-0.1484375
2553,20.5,-33.875,-192.875,-0.4594727,1.349121,0.1132813,0.199707,-0.3032227,-0.1469727
2557,13.4375,-50.25,-183.625,-0.4594727,1.271484,0.09423828,0.215332,-0.2895508,-0.1523438
2562,13.3125,-49.625,-174.4375,-0.2661133,1.019043,0.06347656,0.21875,-0.2832031,-0.1523438
2566,19.5,-21.25,-172.625,-0.1572266,0.9838867,0.08251953,0.230957,-0.2705078,-0.1547852
2570,22.25,1.375,-176.125,-0.328125,0.921875,0.08642578,0.2402344,-0.2583008,-0.1547852
2574,23.9375,-9.125,-169.0625,-0.5024414,0.9335938,0.1367188,0.2475586,-0.2504883,-0.1494141
2578,17.75,-37.0625,-155.75,-0.4521484,0.90625,0.2329102,0.2558594,-0.2368164,-0.1538086
2582,5.75,-64.1875,-140.3125,-0.3320313,0.777832,0.2558594,0.2602539,-0.2255859,-0.15625
2586,-1.875,-69.5,-132.6875,-0.04101563,0.6884766,0.2558594,0.2641602,-0.2167969,-0.15625
2590,-9.875,-49.75,-128.5625,0.1791992,0.5644531,0.2519531,0.2675781,-0.2070313,-0.1645508
2594,-13.625,-27.375,-117,0.2255859,0.3935547,0.2558594,0.2709961,-0.1943359,-0.1660156
2598,-14.4375,-19.6875,-100.625,0.1831055,0.3935547,0.2368164,0.2734375,-0.1879883,-0.168457
2602,-23.25,-32.125,-79.8125,0.125,0.2807617,0.2060547,0.2758789,-0.1782227,-0.1728516
2606,-28.4375,-48.875,-60,0.1948242,0.1098633,0.1674805,0.2783203,-0.1704102,-0.1767578
2610,-28.5625,-44.6875,-43.0625,0.4467773,0.01269531,0.1479492,0.2773438,-0.1655273,-0.1806641
2614,-28.5,-15,-33.875,0.5317383,-0.06445313,0.1210938,0.2783203,-0.1606445,-0.1835938
2618,-24.125,7.1875,-22.125,0.3769531,-0.1733398,0.04785156,0.2783203,-0.1567383,-0.1850586
2622,-14.25,11.875,-1.8125,0.2294922,-0.2587891,0.02880859,0.2773438,-0.1557617,-0.1850586
2626,-6.3125,14.875,16.6875,0.1948242,-0.2084961,0.03662109,0.2792969,-0.1557617,-0.1850586
2630,-1.0625,24.1875,35.1875,0.1674805,-0.1347656,0.06347656,0.2792969,-0.1606445,-0.1835938
2634,3.875,36.0625,49.8125,0.07080078,-0.04882813,0.07910156,0.2783203,-0.1606445,-0.1796875
2638,7.3125,49.75,63.375,-0.06054688,0.01269531,0.07910156,0.2783203,-0.1645508,-0.1782227
2642,9.75,56.75,72.6875,-0.2929688,0.06689453,0.09423828,0.2783203,-0.171875,-0.1728516
2646,8.25,50.75,76.8125,-0.4907227,0.1679688,0.09423828,0.2783203,-0.1767578,-0.1699219
2650,1.4375,29.25,75.875,-0.5952148,0.3120117,0.144043,0.2773438,-0.1855469,-0.1645508
2654,-9.1875,2.375,81.4375,-0.5644531,0.3740234,0.1557617,0.2749023,-0.1879883,-0.1645508
2658,-14.5625,-20.625,90.625,-0.4482422,0.3662109,0.159668,0.2724609,-0.1943359,-0.1660156
2662,-15.1875,-19.125,107.0625,-0.262207,0.237793,0.1289063,0.2675781,-0.2006836,-0.1674805
2666,-7.8125,-6.375,112.875,-0.2890625,0.2963867,0.06738281,0.2641602,-0.2104492,-0.168457
2670,-5.875,-14.1875,115.5625,-0.5488281,0.4052734,0.03662109,0.2592773,-0.2182617,-0.1699219
2674,-11.3125,-53.625,115.3125,-0.6845703,0.5683594,0.07519531,0.253418,-0.2294922,-0.1728516
2678,-16.0625,-86.5,122.4375,-0.2504883,0.5644531,0.1635742,0.2436523,-0.2358398,-0.1782227
2682,-3.6875,-47.8125,146.5625,0.2216797,0.4829102,0.2021484,0.237793,-0.2431641,-0.1821289
2686,12.9375,45,149.375,0.2026367,0.6030273,0.140625,0.2270508,-0.2519531,-0.1806641
2691,21.875,102.3125,144.25,-0.5371094,0.7895508,-0.01660156,0.222168,-0.2641602,-0.1782227
2695,18.25,67.5625,135.125,-1.227051,0.9179688,0.005859375,0.21875,-0.2729492,-0.1728516
2699,1.125,-24.5625,133,-1.292969,1.077148,0.1098633,0.2119141,-0.2817383,-0.168457
2703,-2,-69.1875,145.9375,-0.5683594,0.9257813,0.2368164,0.1987305,-0.2919922,-0.1728516
2707,3,-28.75,143.5,0.07080078,1.081055,0.2827148,0.1914063,-0.2954102,-0.1738281
2711,0.75,55.4375,139.75,0.09033203,1.236328,0.2250977,0.1782227,-0.3032227,-0.175293
2715,1,91.125,145.6875,-0.6806641,1.030762,0.06738281,0.1699219,-0.3129883,-0.1699219
2719,0.1875,53.9375,139.5625,-1.149414,1.221191,0.06738281,0.1665039,-0.3178711,-0.1660156
2723,-10.4375,-7.3125,141.5625,-1.091309,1.189941,0.125,0.1567383,-0.3256836,-0.1645508
2727,-11.5,-39.625,139.4375,-0.6923828,1.275391,0.1635742,0.144043,-0.3305664,-0.1674805
2731,-14.0625,-31.4375,135.0625,-0.2890625,1.279297,0.1904297,0.1376953,-0.3344727,-0.1674805
2735,-14.6875,1,138.6875,-0.1225586,1.36084,0.1943359,0.1225586,-0.3378906,-0.1699219
2739,-7.4375,31.1875,153.4375,-0.3510742,1.13916,0.09423828,0.1103516,-0.3442383,-0.1674805
2743,-2.4375,46.625,142.75,-0.4829102,1.39209,0.05957031,0.1020508,-0.3481445,-0.168457
2747,-3.8125,55.25,135.4375,-0.5292969,1.364746,0.07910156,0.09130859,-0.3520508,-0.168457
2751,-10.375,56.25,126.625,-0.5756836,1.500488,0.06347656,0.08300781,-0.3544922,-0.1645508
2755,-16.0625,44.4375,122.8125,-0.6342773,1.411133,0.06738281,0.07714844,-0.3569336,-0.1660156
2759,-21.4375,30.8125,131.75,-0.730957,1.228516,-0.04736328,0.06884766,-0.3569336,-0.1674805
2763,-10.9375,24.1875,125.1875,-0.7270508,1.267578,-0.01318359,0.05712891,-0.3579102,-0.1660156
2767,-10.5,23.8125,115.625,-0.7192383,1.248047,-0.02441406,0.04980469,-0.359375,-0.1660156
2771,-7.4375,22.5625,103.875,-0.7036133,1.384277,0.03271484,0.04150391,-0.359375,-0.1660156
2775,-14.5625,17.3125,96,-0.7036133,1.39209,0.09814453,0.03173828,-0.359375,-0.1674805
2779,-18.875,14.375,96.375,-0.7114258,1.287109,0.02490234,0.02734375,-0.3603516,-0.1660156
2783,-13.1875,22.25,98.1875,-0.8085938,1.143066,-0.04394531,0.02001953,-0.3603516,-0.168457
2787,-4.625,37.4375,86.5,-0.9868164,1.162598,-0.1245117,0.01074219,-0.359375,-0.1699219
2791,0.5,48.875,66.6875,-1.273438,1.186035,-0.1630859,0.008300781,-0.359375,-0.168457
2795,3.125,40.25,44.5,-1.62207,1.251953,-0.1708984,0.003417969,-0.3603516,-0.1674805
2799,3.75,13.125,23.6875,-1.804199,1.317871,-0.1435547,0.002441406,-0.359375,-0.168457
2803,2.8125,-7.875,1.125,-1.800293,1.372559,-0.1401367,0.0009765625,-0.3618164,-0.1674805
2807,0.9375,-17.4375,-25.5,-1.734375,1.380371,-0.1591797,0.002441406,-0.3603516,-0.1699219
2811,1,-21.875,-53.6875,-1.649414,1.395996,-0.1552734,0.004394531,-0.3603516,-0.168457
2815,2.4375,-24.375,-75.625,-1.599121,1.341309,-0.2055664,0.006835938,-0.3603516,-0.168457
2820,10.3125,-25.6875,-95.5,-1.533203,1.341309,-0.2055664,0.01416016,-0.3603516,-0.168457
2824,17.375,-23.9375,-114.25,-1.459473,1.380371,-0.1899414,0.02246094,-0.3632813,-0.1674805
2828,24.125,-22.25,-131.9375,-1.413086,1.454102,-0.1401367,0.02978516,-0.3603516,-0.1674805
2832,27.125,-24.5,-152.625,-1.370117,1.597656,-0.07861328,0.04052734,-0.3618164,-0.1660156
2836,25.25,-33,-169.125,-1.25,1.687012,-0.005371094,0.05224609,-0.359375,-0.1645508
2840,22.5625,-32.75,-180.125,-1.033203,1.749512,0.02880859,0.06396484,-0.3579102,-0.1606445
2844,22,-24.1875,-190.9375,-0.9790039,1.683105,0.009765625,0.07617188,-0.3544922,-0.1616211
2848,24.6875,-25.4375,-199.875,-0.9750977,1.733887,0.01708984,0.09619141,-0.3530273,-0.1616211
2852,24.4375,-35.4375,-205.375,-0.8935547,1.749512,0.06738281,0.1069336,-0.3491211,-0.1616211
2856,21.625,-40.875,-205,-0.715332,1.81543,0.105957,0.1225586,-0.3432617,-0.1616211
2860,16.6875,-37.1875,-206.75,-0.6376953,1.749512,0.1171875,0.1401367,-0.3354492,-0.1591797
2864,13.75,-31.25,-212.75,-0.5834961,1.714355,0.1210938,0.1499023,-0.3305664,-0.1616211
2868,10.4375,-24.9375,-211.25,-0.5292969,1.601563,0.09423828,0.1665039,-0.3208008,-0.1616211
2872,11.4375,-19.25,-210.625,-0.5332031,1.535645,0.1020508,0.184082,-0.3095703,-0.1630859
2876,11.8125,-19.75,-209.625,-0.6845703,1.450195,0.05175781,0.1938477,-0.3007813,-0.1645508
2880,12.8125,-31.4375,-213.875,-0.715332,1.473633,0.05566406,0.2080078,-0.2895508,-0.1645508
2884,11.625,-38.9375,-208.9375,-0.5874023,1.271484,0.07519531,0.2202148,-0.2753906,-0.1660156
2888,15,-32.1875,-206.125,-0.3706055,1.279297,0.1289063,0.2270508,-0.265625,-0.1660156
2892,13.0625,-21.8125,-193.9375,-0.1069336,1.255859,0.1865234,0.2392578,-0.2504883,-0.1713867
2896,14.8125,-3.1875,-178.625,-0.01025391,1.073242,0.2021484,0.2485352,-0.2368164,-0.168457
2900,13.125,2,-166.125,-0.06445313,0.9799805,0.2290039,0.2543945,-0.2280273,-0.168457
2904,6.25,-17.6875,-158,-0.1225586,0.8945313,0.2636719,0.2602539,-0.2128906,-0.168457
2908,-8.1875,-37.9375,-147.1875,-0.006347656,0.7392578,0.2133789,0.2675781,-0.203125,-0.168457
2912,-14.0625,-37.25,-139.75,0.2255859,0.5175781,0.1826172,0.2700195,-0.1918945,-0.1728516
2916,-12,-24.75,-125.375,0.3149414,0.315918,0.140625,0.2734375,-0.1806641,-0.1782227
2920,-6.375,-13.625,-109.4375,0.3227539,0.2109375,0.140625,0.2758789,-0.1679688,-0.1782227
2924,-3.0625,-14.1875,-91.8125,0.3071289,0.15625,0.1713867,0.2792969,-0.1621094,-0.1767578
2928,-12.4375,-29.5625,-71.6875,0.2993164,0.08642578,0.1865234,0.2817383,-0.1542969,-0.1796875
2932,-16.5625,-42.125,-51.1875,0.4038086,-0.1035156,0.1674805,0.2807617,-0.1469727,-0.1835938
2936,-15.5,-38.625,-36.875,0.5200195,-0.1655273,0.1210938,0.2807617,-0.1445313,-0.1865234
2940,-13.9375,-18.625,-23.625,0.609375,-0.2470703,0.125,0.2792969,-0.140625,-0.1889648
2944,-9.4375,-1.8125,-7.6875,0.5317383,-0.2978516,0.1210938,0.2792969,-0.1381836,-0.1904297
2949,-3.625,5.8125,15.5,0.4428711,-0.355957,0.125,0.2807617,-0.1381836,-0.1904297
2953,0.375,11.9375,36.3125,0.3496094,-0.2822266,0.09814453,0.2792969,-0.1381836,-0.1918945
2957,6.375,21.5625,53.4375,0.3227539,-0.2275391,0.08251953,0.2807617,-0.1430664,-0.1889648
2961,12.1875,38.4375,70.625,0.2646484,-0.1191406,0.06347656,0.2783203,-0.1479492,-0.1865234
2965,18.125,55.9375,88.25,0.1289063,-0.01416016,0.08642578,0.2783203,-0.1542969,-0.1850586
2969,20.8125,64.625,104.8125,-0.1533203,0.05517578,0.07128906,0.2792969,-0.1669922,-0.1767578
2973,19.75,56.25,111.625,-0.4521484,0.2265625,0.1098633,0.2773438,-0.1704102,-0.1738281
2977,7.0625,22.6875,108.8125,-0.6494141,0.3935547,0.1635742,0.2783203,-0.1821289,-0.168457
2981,-13.4375,-26.6875,103.8125,-0.5722656,0.5332031,0.2094727,0.2724609,-0.1918945,-0.1674805
2985,-25.8125,-45.1875,110.9375,-0.07226563,0.3740234,0.1171875,0.269043,-0.1982422,-0.1728516
2989,-3.0625,-0.25,138.625,0.3339844,0.2768555,0.1328125,0.2641602,-0.2070313,-0.175293
2993,9.5,70.875,145.9375,0.1674805,0.5449219,0.07910156,0.2583008,-0.2182617,-0.1713867
2997,5.5625,88.375,140.375,-0.3510742,0.7236328,0.07128906,0.2558594,-0.2270508,-0.168457
3001,-7.5,59.625,151.5,-0.715332,0.7548828,0.01708984,0.2509766,-0.2368164,-0.1616211
3005,-6.6875,15.25,157,-0.8007813,0.7895508,0.04785156,0.2451172,-0.2495117,-0.1591797
3009,-14,-5.625,155.0625,-0.4594727,1.01123,0.06738281,0.2392578,-0.2568359,-0.1591797
3013,-14.125,5.5,163,-0.2426758,1.01123,0.140625,0.2285156,-0.2695313,-0.1591797
3017,-12.8125,31.3125,169.25,-0.3007813,0.9643555,0.08642578,0.21875,-0.2817383,-0.1606445
3021,-14.5625,39.25,168.75,-0.5683594,1.081055,-0.001464844,0.2119141,-0.2880859,-0.1577148
3025,-13.3125,25.75,167.4375,-0.7114258,1.06543,-0.03613281,0.2021484,-0.2983398,-0.1577148
3029,-10.5,11,169.25,-0.7036133,1.248047,-0.05126953,0.1879883,-0.3066406,-0.15625
3033,-9.875,7.6875,171.6875,-0.5605469,1.321777,0.04785156,0.1806641,-0.3129883,-0.15625
3037,-17.5625,4.1875,169.5625,-0.4443359,1.353027,0.105957,0.1650391,-0.3232422,-0.1577148
3041,-19.1875,23.1875,169.625,-0.3046875,1.345215,0.01708984,0.1533203,-0.3305664,-0.1577148
3045,-12.5625,47.9375,170.5625,-0.6376953,1.267578,-0.1206055,0.1450195,-0.3344727,-0.15625
3049,-1.4375,40.1875,162.9375,-0.9829102,1.411133,-0.112793,0.1318359,-0.3417969,-0.1547852
3053,-7.1875,1.375,155.5,-1.060547,1.574707,0.01708984,0.1176758,-0.3466797,-0.15625
3057,-20.3125,-38.875,148.0625,-0.8125,1.613281,0.1865234,0.109375,-0.3520508,-0.1547852
3061,-34.6875,-50.5,145.625,-0.4365234,1.535645,0.2060547,0.09375,-0.3554688,-0.1577148
3065,-30.5625,-6.3125,152.375,-0.2387695,1.244141,0.04443359,0.08203125,-0.3569336,-0.1616211
3069,-7.375,52.3125,142.4375,-0.5214844,1.263672,-0.04736328,0.06884766,-0.3569336,-0.1645508
3073,-5.25,68.125,119.9375,-0.9091797,1.477539,-0.05517578,0.06054688,-0.3618164,-0.1606445
3078,-9.25,33.3125,111.625,-1.091309,1.473633,0.06347656,0.05078125,-0.3632813,-0.1606445
3082,-18.875,-14.0625,106.625,-0.9130859,1.527832,0.1171875,0.04492188,-0.3632813,-0.1616211
3086,-27.25,-35.375,104.8125,-0.6342773,1.458008,0.140625,0.03417969,-0.3618164,-0.1645508
3090,-23.25,-16.125,113.4375,-0.5410156,1.186035,0.04443359,0.02246094,-0.3618164,-0.1645508
3094,-10.4375,10.4375,98.8125,-0.7426758,1.240234,0.02880859,0.01660156,-0.3603516,-0.1674805
3098,-8.75,16.9375,79.1875,-0.8935547,1.321777,0.06347656,0.009277344,-0.3632813,-0.1674805
3102,-17.75,13,60.375,-0.9750977,1.337402,0.07128906,0.003417969,-0.3603516,-0.1674805
3106,-15.625,11.1875,52.375,-0.9790039,1.174316,0.01367188,0.0009765625,-0.3569336,-0.1674805
3110,-8.9375,23.125,48.75,-1.106934,1.189941,-0.07470703,-0.004394531,-0.359375,-0.168457
3114,0.625,27.3125,33.6875,-1.343262,1.197754,-0.08984375,-0.006835938,-0.359375,-0.1699219
3118,0.125,14.75,13.1875,-1.587402,1.310547,-0.08984375,-0.0078125,-0.359375,-0.1699219
3122,-2.125,-9.3125,-11.8125,-1.668457,1.356934,-0.05517578,-0.0078125,-0.3579102,-0.1713867
3126,-6,-27.625,-39.3125,-1.583496,1.418945,-0.05908203,-0.005859375,-0.3579102,-0.1713867
3130,-8.125,-43.0625,-64.8125,-1.475098,1.415039,-0.04003906,-0.005859375,-0.3603516,-0.1699219
3134,-10.25,-52.9375,-78.9375,-1.300781,1.403809,-0.04394531,-0.001953125,-0.3579102,-0.1713867
3138,-9.125,-53,-91.0625,-1.165039,1.376465,-0.02832031,0.002441406,-0.3569336,-0.1728516
3142,-5.625,-47.375,-105.0625,-1.099121,1.356934,-0.04003906,0.006835938,-0.3554688,-0.1738281
3146,-3.9375,-39.875,-122.5,-1.037109,1.403809,-0.02832031,0.01416016,-0.3579102,-0.175293
3150,-1.875,-32.625,-138.5,-1.013672,1.356934,-0.02050781,0.02587891,-0.3554688,-0.1767578
3154,3.6875,-28.875,-152.375,-0.9711914,1.415039,0.01367188,0.03173828,-0.3554688,-0.175293
3158,5.8125,-29.4375,-159.5625,-0.9287109,1.46582,0.05957031,0.04638672,-0.3554688,-0.175293
3162,7.3125,-32.25,-164.5,-0.8666992,1.523926,0.08642578,0.05712891,-0.3530273,-0.1782227
3166,7.625,-31.75,-171,-0.8007813,1.523926,0.105957,0.06787109,-0.3505859,-0.1782227
3170,7.4375,-26.1875,-178.75,-0.7348633,1.527832,0.1328125,0.08203125,-0.3466797,-0.1767578
3174,7.1875,-21.5,-185.75,-0.7617188,1.500488,0.1328125,0.09765625,-0.3442383,-0.1796875
3178,8.8125,-24.8125,-192.6875,-0.7426758,1.562988,0.1748047,0.105957,-0.3393555,-0.1796875
3182,4.25,-32.5625,-191.3125,-0.6962891,1.559082,0.2021484,0.1235352,-0.3344727,-0.1806641
3186,2,-40.625,-188.4375,-0.6455078,1.477539,0.2172852,0.1367188,-0.3242188,-0.1806641
3190,-1.4375,-43.625,-188.125,-0.5214844,1.454102,0.2441406,0.144043,-0.3208008,-0.1821289
3194,-5.25,-32.0625,-187.625,-0.4130859,1.399902,0.2402344,0.1567383,-0.3120117,-0.1865234
3198,-3.9375,-14.4375,-191.125,-0.4326172,1.267578,0.2172852,0.1723633,-0.3032227,-0.1865234
3202,-2.9375,-6.25,-192.125,-0.4594727,1.251953,0.2329102,0.1782227,-0.2944336,-0.1889648
3207,-2.4375,-10,-187.25,-0.4985352,1.205566,0.2675781,0.1928711,-0.2832031,-0.1904297
3211,-8.4375,-25,-181,-0.4711914,1.217285,0.2636719,0.2070313,-0.2719727,-0.1904297
3215,-14.75,-39.3125,-167.75,-0.4248047,1.049805,0.2636719,0.2104492,-0.2631836,-0.1918945
3219,-19.1875,-47.4375,-161.125,-0.3203125,0.9799805,0.2709961,0.2177734,-0.2495117,-0.1972656
3223,-23.8125,-42.5625,-155.5,-0.1767578,0.8520508,0.2597656,0.2260742,-0.2382813,-0.199707
3227,-25.5625,-32.4375,-151.9375,-0.1303711,0.8442383,0.2519531,0.2294922,-0.2280273,-0.2011719
3231,-33.375,-27.125,-147.5,-0.1303711,0.7001953,0.2368164,0.2353516,-0.2167969,-0.2055664
3235,-35.125,-30,-136.1875,-0.1342773,0.5527344,0.1982422,0.2412109,-0.203125,-0.2109375
3239,-35.125,-32.125,-124,-0.06445313,0.3857422,0.1787109,0.2426758,-0.1943359,-0.2119141
3243,-30.4375,-24.5625,-111.25,-0.006347656,0.2768555,0.1518555,0.2460938,-0.1831055,-0.2163086
3247,-26.75,-18.75,-104.125,-0.002441406,0.2338867,0.140625,0.2485352,-0.1743164,-0.21875
3251,-24.8125,-20.625,-95.1875,-0.002441406,0.171875,0.1171875,0.25,-0.1669922,-0.2216797
3255,-23.25,-25.1875,-83.5,0.07861328,0.07861328,0.1132813,0.2519531,-0.1567383,-0.2246094
3259,-20.25,-26.375,-67,0.1948242,0.004882813,0.1020508,0.253418,-0.1494141,-0.2270508
3263,-16.375,-22.3125,-48.6875,0.3071289,-0.06445313,0.1020508,0.2519531,-0.1469727,-0.2285156
3267,-11.125,-10,-30.25,0.4697266,-0.09179688,0.09033203,0.2519531,-0.140625,-0.2299805
3271,-3.875,14.625,-11.125,0.527832,-0.1694336,0.07519531,0.253418,-0.1381836,-0.2299805
3275,4.1875,36.5,5.9375,0.4155273,-0.1694336,0.04443359,0.253418,-0.1381836,-0.2270508
3279,8.9375,41.625,26.8125,0.2255859,-0.1499023,0.03662109,0.2568359,-0.140625,-0.2255859
3283,13.5625,36.8125,41.75,0.1367188,-0.1577148,0.05566406,0.2583008,-0.1445313,-0.2231445
3287,17.3125,36.125,53.125,0.125,-0.06835938,0.07128906,0.2592773,-0.1445313,-0.21875
3291,20.5,41.625,67.5,0.1054688,-0.02587891,0.07910156,0.2583008,-0.1508789,-0.2163086
3295,25.5,52.1875,84.9375,0.08251953,0.07861328,0.1098633,0.2602539,-0.1591797,-0.2119141
3299,26.125,66,99.0625,-0.01806641,0.15625,0.140625,0.2592773,-0.1655273,-0.206543
3303,28.9375,73.3125,108.0625,-0.1728516,0.2265625,0.1518555,0.2602539,-0.1743164,-0.2011719
3307,29,74.8125,115.375,-0.3125,0.3623047,0.1518555,0.2592773,-0.1879883,-0.1958008
3311,23.125,73.0625,117.8125,-0.4052734,0.4711914,0.1865234,0.2592773,-0.1933594,-0.1904297
3315,14.75,63.125,116.125,-0.5102539,0.5097656,0.2290039,0.2602539,-0.2045898,-0.1835938
3319,7.125,51.4375,117.8125,-0.4482422,0.6225586,0.2558594,0.2543945,-0.2143555,-0.1796875
3323,3,52.9375,126.875,-0.4013672,0.6264648,0.2402344,0.253418,-0.2246094,-0.1738281
3327,-0.625,53.6875,131,-0.5175781,0.7119141,0.1826172,0.2485352,-0.234375,-0.1738281
3331,-4.4375,41.4375,133,-0.6069336,0.7236328,0.1982422,0.2451172,-0.2431641,-0.1660156
3336,-10.9375,23.625,136.625,-0.6225586,0.793457,0.1904297,0.2402344,-0.2495117,-0.1674805
3340,-13.5,6.5,137.75,-0.4907227,0.840332,0.2211914,0.2329102,-0.2607422,-0.1674805
3344,-15.8125,10.3125,144.0625,-0.3354492,0.9682617,0.1748047,0.2260742,-0.2705078,-0.1674805
3348,-13.25,28.3125,154.5625,-0.378418,0.9101563,0.1098633,0.21875,-0.2768555,-0.1660156
3352,-7.1875,39.875,154.9375,-0.5292969,0.9995117,0.08251953,0.2104492,-0.2866211,-0.1674805
3356,-9.8125,32.4375,152.25,-0.6108398,1.088867,0.105957,0.2011719,-0.2954102,-0.1630859
3360,-9.9375,19.5625,153.5,-0.5952148,1.186035,0.140625,0.1938477,-0.3017578,-0.1616211
3364,-12.125,23.75,159.75,-0.4985352,1.240234,0.1289063,0.1831055,-0.3105469,-0.1616211
3368,-12.1875,38.6875,159.1875,-0.5913086,1.283203,0.09423828,0.1713867,-0.3178711,-0.1606445
3372,-16,39.4375,147.5,-0.7426758,1.36084,0.06738281,0.1630859,-0.3242188,-0.1606445
3376,-23.375,18.25,140.4375,-0.8164063,1.353027,0.07128906,0.1547852,-0.3305664,-0.1577148
3380,-24.3125,-6.5,144,-0.7348633,1.259766,0.02490234,0.1416016,-0.3344727,-0.1606445
3384,-19.75,-8.0625,150.0625,-0.5292969,1.302734,0.009765625,0.1318359,-0.3378906,-0.1616211
3388,-12.8125,16.1875,153.4375,-0.4287109,1.302734,0.001953125,0.1201172,-0.3442383,-0.1630859
3392,-9.25,41.8125,147.9375,-0.5024414,1.442383,-0.001464844,0.1079102,-0.3481445,-0.1630859
3396,-15.875,55.5625,140.9375,-0.746582,1.555176,-0.04394531,0.1010742,-0.3505859,-0.1606445
3400,-18.1875,38.25,128.8125,-1.106934,1.395996,-0.06298828,0.08789063,-0.3544922,-0.1591797
3404,-24.375,-10.75,115.3125,-1.246094,1.384277,-0.05908203,0.07861328,-0.3569336,-0.1630859
3408,-21.9375,-44.625,121.25,-0.9829102,1.135742,-0.08203125,0.07128906,-0.3569336,-0.1630859
3412,-8.5,-38.125,121.625,-0.746582,1.228516,-0.04736328,0.05810547,-0.3579102,-0.1660156
3416,-6.25,-3.5625,114.875,-0.7036133,1.364746,-0.03613281,0.04492188,-0.3618164,-0.1674805
3420,-7.25,32.8125,94.875,-1.009766,1.337402,-0.07080078,0.03808594,-0.3579102,-0.1674805
3424,-7.375,44.875,70.4375,-1.339355,1.267578,-0.1054688,0.03564453,-0.359375,-0.1645508
3428,-5.3125,32.875,56.875,-1.556152,1.209473,-0.1401367,0.03076172,-0.3603516,-0.1660156
3432,-1,20.9375,46,-1.629883,1.205566,-0.1591797,0.02734375,-0.359375,-0.1660156
3436,1.125,16.6875,23.75,-1.75,1.228516,-0.1977539,0.02587891,-0.3579102,-0.1660156
3440,2,7.375,-6.4375,-1.870117,1.263672,-0.2285156,0.0234375,-0.3603516,-0.1645508
3444,3.6875,-14.625,-36.5625,-1.924316,1.275391,-0.1977539,0.02490234,-0.3603516,-0.1630859
3448,2.375,-42,-61.0625,-1.785156,1.310547,-0.1860352,0.02734375,-0.3618164,-0.1630859
3452,1.9375,-62.5,-80.4375,-1.606445,1.321777,-0.1401367,0.03076172,-0.359375,-0.1660156
3456,0,-75.125,-94.5,-1.428223,1.364746,-0.1435547,0.03417969,-0.359375,-0.1674805
3460,-0.75,-80.1875,-111.125,-1.277344,1.364746,-0.1015625,0.04150391,-0.3603516,-0.1699219
3465,-1.75,-79.0625,-126.5,-1.15332,1.39209,-0.08984375,0.04638672,-0.3579102,-0.1699219
3469,-3,-71.4375,-141.375,-1.114746,1.380371,-0.09765625,0.05322266,-0.3569336,-0.1713867
3473,-0.375,-65,-157.25,-1.145508,1.36084,-0.08984375,0.06298828,-0.3530273,-0.1713867
3477,2.375,-67.625,-171.4375,-1.242188,1.411133,-0.06298828,0.07470703,-0.3520508,-0.175293
3481,3.3125,-80.6875,-182.1875,-1.246094,1.527832,-0.04394531,0.08203125,-0.3491211,-0.175293
3485,3.0625,-95.4375,-189.75,-1.172852,1.562988,-0.001464844,0.09521484,-0.3432617,-0.1782227
3489,3.375,-97.125,-190.5,-1.037109,1.547363,0.005859375,0.105957,-0.3378906,-0.1821289
3493,5.875,-87.625,-197.5,-0.9399414,1.562988,0.04052734,0.1152344,-0.3344727,-0.1835938
3497,5,-74.875,-211.375,-0.8935547,1.636719,0.09033203,0.128418,-0.3256836,-0.1850586
3501,0.25,-70.875,-218.375,-0.878418,1.679688,0.1557617,0.1401367,-0.3178711,-0.1918945
3505,-2.875,-74.1875,-218.625,-0.8510742,1.574707,0.1674805,0.1508789,-0.3120117,-0.1928711
3509,-1.8125,-77.875,-213.4375,-0.7426758,1.562988,0.2094727,0.1630859,-0.3007813,-0.1987305
3513,-5.625,-76.375,-212.75,-0.6376953,1.523926,0.2441406,0.1757813,-0.2895508,-0.2011719
3517,-9.125,-66.375,-208.75,-0.5024414,1.450195,0.2709961,0.1806641,-0.2792969,-0.2080078
3521,-12.5625,-50.375,-208.25,-0.4091797,1.345215,0.3173828,0.1938477,-0.2680664,-0.2119141
3525,-14.0625,-28.375,-205,-0.3125,1.197754,0.3251953,0.203125,-0.2529297,-0.2163086
3529,-9.5625,-2.1875,-195.75,-0.2773438,1.06543,0.3364258,0.2104492,-0.2456055,-0.2148438
3533,-6.25,12,-185.125,-0.3666992,1.022949,0.355957,0.2211914,-0.2304688,-0.2163086
3537,-3.0625,10.6875,-175,-0.4013672,0.9916992,0.375,0.230957,-0.2167969,-0.2148438
3541,-4.4375,0.1875,-162.4375,-0.3974609,0.9375,0.375,0.2353516,-0.2080078,-0.2119141
3545,-6.875,-15.625,-151.625,-0.3432617,0.8168945,0.4018555,0.2426758,-0.1958008,-0.2148438
3549,-13.9375,-27.75,-147.5,-0.1923828,0.793457,0.375,0.2475586,-0.1845703,-0.2163086
3553,-24.5625,-30.5625,-145.1875,-0.07617188,0.6962891,0.3251953,0.2509766,-0.171875,-0.21875
3557,-34.5,-40.75,-141.25,0.01269531,0.5683594,0.2905273,0.2519531,-0.1621094,-0.2216797
3561,-43.5,-58.875,-125.1875,0.1210938,0.3505859,0.2021484,0.253418,-0.1479492,-0.2255859
3565,-41.625,-65.5625,-105.25,0.3339844,0.140625,0.1518555,0.2519531,-0.1381836,-0.2299805
3569,-37.3125,-59.6875,-86.8125,0.4931641,0.08642578,0.1171875,0.25,-0.1269531,-0.2368164
3573,-38,-52.875,-71.5,0.5898438,0.04003906,0.105957,0.2485352,-0.1181641,-0.2407227
3577,-40.0625,-43.75,-54.5625,0.7373047,-0.1113281,0.07910156,0.2485352,-0.1142578,-0.2436523
3581,-36.875,-25.3125,-33.625,0.8222656,-0.2666016,0.05957031,0.2460938,-0.1069336,-0.2475586
3585,-28.4375,-2.625,-10.625,0.7641602,-0.3989258,0.001953125,0.2451172,-0.1030273,-0.2514648
3589,-13.3125,17.625,11.125,0.6328125,-0.4140625,-0.02441406,0.2436523,-0.1005859,-0.25
3594,-3.6875,26,30.625,0.4506836,-0.355957,-0.001464844,0.2475586,-0.1030273,-0.2490234
3598,3.0625,24.0625,48.4375,0.3305664,-0.2900391,0.04052734,0.2485352,-0.1030273,-0.2446289
3602,8.375,23.4375,62.8125,0.2685547,-0.2587891,0.07128906,0.2475586,-0.1083984,-0.2460938
3606,14.5,28.5625,76.375,0.2490234,-0.1499023,0.1132813,0.2460938,-0.1132813,-0.2446289
3610,17.1875,42.6875,89.75,0.1870117,-0.05273438,0.1289063,0.2509766,-0.1230469,-0.2421875
3614,24.5,54.625,103.0625,0.06689453,0.02441406,0.1518555,0.25,-0.1269531,-0.2368164
3618,29.0625,65.375,119.1875,-0.04882813,0.1757813,0.159668,0.2519531,-0.1381836,-0.230957
3622,27.1875,75.5625,125.875,-0.2041016,0.300293,0.1904297,0.2519531,-0.1508789,-0.2270508
3626,22.25,75.6875,124.1875,-0.3549805,0.3623047,0.1904297,0.2519531,-0.1591797,-0.2202148
3630,16.75,66.8125,123.6875,-0.5024414,0.4204102,0.2172852,0.253418,-0.1694336,-0.2148438
3634,9.0625,41.9375,120.625,-0.6186523,0.5175781,0.1826172,0.2519531,-0.1791992,-0.2094727
3638,4.75,9.5625,125.9375,-0.6108398,0.5136719,0.1674805,0.2509766,-0.1879883,-0.2094727
3642,11.125,-8.375,141,-0.362793,0.5097656,0.144043,0.2460938,-0.1982422,-0.2080078
3646,19.125,1.1875,157.9375,-0.1650391,0.6147461,0.1787109,0.2392578,-0.2104492,-0.2094727
3650,23.25,31.1875,166.3125,-0.2041016,0.7587891,0.2094727,0.2368164,-0.2207031,-0.2080078
3654,16.75,44.125,154.5625,-0.4829102,0.8945313,0.1904297,0.2285156,-0.2329102,-0.2041016
3658,12.125,39.75,146.8125,-0.5410156,0.8598633,0.1674805,0.222168,-0.2441406,-0.199707
3662,17.625,41.0625,158.375,-0.4443359,0.875,0.159668,0.2177734,-0.2519531,-0.1987305
3666,23.75,55.6875,167.4375,-0.3706055,1.06543,0.1904297,0.2094727,-0.2641602,-0.1918945
3670,21.25,79.0625,181.1875,-0.5566406,1.251953,0.1289063,0.2021484,-0.2783203,-0.1875
3674,16,76.5625,167.9375,-0.8974609,1.32959,0.159668,0.1972656,-0.2841797,-0.1850586
3678,2.6875,47.8125,158,-0.9946289,1.298828,0.1132813,0.1855469,-0.2954102,-0.1796875
3682,4.6875,17.875,162.625,-0.8198242,1.213379,0.1713867,0.1782227,-0.3032227,-0.1782227
3686,5.625,28.375,172.6875,-0.5756836,1.298828,0.140625,0.1713867,-0.3129883,-0.1738281
3690,4,57.75,166.6875,-0.699707,1.341309,0.07910156,0.1582031,-0.3193359,-0.1728516
3694,-1.0625,69.1875,147.6875,-0.9594727,1.372559,0.02490234,0.1459961,-0.3291016,-0.168457
3698,-6.4375,37.6875,130.4375,-1.149414,1.376465,0.04785156,0.1425781,-0.3330078,-0.1645508
3702,-8.6875,-18.625,129.125,-1.029297,1.36084,0.08642578,0.1308594,-0.3378906,-0.1674805
3706,-3.9375,-33.25,148.1875,-0.6186523,1.333496,0.08251953,0.1186523,-0.3432617,-0.168457
3710,4.5625,-2.0625,159.75,-0.4482422,1.32959,0.1171875,0.109375,-0.3466797,-0.1660156
3714,2.625,39.625,144.1875,-0.4790039,1.477539,0.1098633,0.09619141,-0.3505859,-0.1674805
3718,-7.125,65.3125,130.8125,-0.6650391,1.461914,0.09033203,0.08544922,-0.3544922,-0.1660156
3723,-11.8125,72.75,122.4375,-0.9013672,1.353027,0.04052734,0.07861328,-0.3569336,-0.1630859
3727,-15.125,40.5625,110,-1.215332,1.255859,0.001953125,0.07373047,-0.3569336,-0.1645508
3731,-12.0625,-19.25,107.25,-1.223145,1.17041,0.03271484,0.06152344,-0.359375,-0.1630859
3735,-6.8125,-62.6875,110.375,-0.9013672,1.186035,0.05957031,0.0546875,-0.3603516,-0.1674805
3739,-1.5,-70.75,108.9375,-0.5644531,1.193848,0.1210938,0.04052734,-0.3603516,-0.1660156
3743,-3.1875,-36.75,110.1875,-0.3706055,1.240234,0.1367188,0.02832031,-0.3632813,-0.1660156
3747,-2.375,18.25,96.9375,-0.4985352,1.112305,0.140625,0.02148438,-0.3618164,-0.1660156
3751,-0.75,54.75,77.4375,-0.8354492,1.162598,0.07519531,0.01513672,-0.3618164,-0.1660156
3755,-2.9375,59.875,65.125,-1.106934,1.158691,0.05175781,0.01171875,-0.3618164,-0.1645508
3759,-0.0625,51.75,59.375,-1.300781,1.09668,-0.02832031,0.006835938,-0.3618164,-0.1674805
3763,7.1875,39.6875,47.8125,-1.463379,1.116211,-0.07861328,0.005859375,-0.3618164,-0.1645508
3767,12.25,28.375,26.8125,-1.537109,1.166504,-0.07861328,0.003417969,-0.3632813,-0.1630859
3771,12.9375,16.5,1.8125,-1.62207,1.221191,-0.04003906,0.0009765625,-0.3642578,-0.1616211
3775,9.375,-6.3125,-21.875,-1.649414,1.287109,0.03271484,0.003417969,-0.3632813,-0.1606445
3779,0,-30.375,-42.125,-1.537109,1.356934,0.08642578,0.005859375,-0.3642578,-0.1606445
3783,-9.5,-46.625,-64.6875,-1.413086,1.317871,0.05566406,0.008300781,-0.3657227,-0.1616211
3787,-15.4375,-58.75,-82.5,-1.265625,1.302734,0.02490234,0.01074219,-0.3642578,-0.1630859
3791,-17.5,-61.9375,-94.1875,-1.118652,1.275391,0.009765625,0.01660156,-0.3632813,-0.1645508
3795,-17.75,-53.75,-102.875,-1.013672,1.244141,-0.001464844,0.02148438,-0.3618164,-0.1674805
3799,-13.625,-35.8125,-111.75,-0.9946289,1.189941,-0.009277344,0.02734375,-0.3603516,-0.1674805
3803,-7.1875,-18,-126.5,-1.07959,1.221191,-0.009277344,0.0390625,-0.3579102,-0.1713867
3807,-2.5625,-13,-141,-1.20752,1.325684,0.02099609,0.04492188,-0.3569336,-0.1713867
3811,-2.5,-18,-155.0625,-1.219238,1.46582,0.03662109,0.05566406,-0.3569336,-0.1728516
3815,-1.1875,-20.75,-165.1875,-1.168945,1.469727,0.05566406,0.07226563,-0.3530273,-0.175293
3819,5.5625,-15.75,-173.0625,-1.118652,1.531738,0.02490234,0.08203125,-0.3505859,-0.1738281
3823,9.5625,-10.4375,-181.3125,-1.11084,1.58252,0.08251953,0.09521484,-0.3481445,-0.1738281
3827,10.5,-12.875,-191.625,-1.083496,1.632813,0.1289063,0.1118164,-0.3393555,-0.175293
3831,10.75,-18.75,-195.1875,-1.029297,1.664063,0.1289063,0.1235352,-0.3369141,-0.175293
3835,8.6875,-27.4375,-198,-0.9711914,1.664063,0.1518555,0.1376953,-0.3291016,-0.175293
3839,7.1875,-34.0625,-198.875,-0.8666992,1.601563,0.140625,0.1533203,-0.3208008,-0.1767578
3843,6.75,-37.25,-201.9375,-0.7734375,1.59375,0.140625,0.1616211,-0.3154297,-0.1767578
3847,2.9375,-39.3125,-200.3125,-0.6611328,1.516113,0.1787109,0.1772461,-0.3041992,-0.1806641
3852,0.0625,-36,-195.6875,-0.5292969,1.356934,0.1479492,0.1904297,-0.2919922,-0.1835938
3856,2.75,-21.75,-189.6875,-0.4052734,1.279297,0.1328125,0.1987305,-0.2856445,-0.1821289
3860,6.25,-3.125,-180.875,-0.3745117,1.12793,0.105957,0.2094727,-0.2719727,-0.1850586
3864,16.0625,8.5,-172.9375,-0.3510742,1.09668,0.1020508,0.2202148,-0.2617188,-0.1835938
3868,14.9375,18.5625,-170.625,-0.3901367,1.06543,0.1328125,0.2285156,-0.2519531,-0.1835938
3872,13.3125,16.625,-175,-0.4555664,0.9296875,0.144043,0.237793,-0.2407227,-0.1806641
3876,14.1875,8.375,-172.6875,-0.4750977,0.7895508,0.159668,0.2475586,-0.2280273,-0.1796875
3880,18.9375,-5,-167.875,-0.5332031,0.8012695,0.1826172,0.2543945,-0.2182617,-0.1767578
3884,12.375,-33.875,-163.125,-0.5527344,0.8710938,0.2211914,0.2626953,-0.2055664,-0.1767578
3888,5.125,-61.5625,-149.5625,-0.4404297,0.6616211,0.2133789,0.2651367,-0.1933594,-0.1806641
3892,2.25,-74.8125,-144.3125,-0.2041016,0.5952148,0.2441406,0.269043,-0.1845703,-0.1865234
3896,-5.5,-65.5,-145.125,0.04345703,0.5292969,0.2675781,0.2724609,-0.171875,-0.1889648
3900,-10.75,-51.0625,-137.5625,0.1557617,0.4438477,0.2558594,0.2709961,-0.1591797,-0.1958008
3904,-13.3125,-34.8125,-121.6875,0.2568359,0.2768555,0.2675781,0.2724609,-0.1518555,-0.1972656
3908,-14.125,-25.1875,-108.5,0.2954102,0.1640625,0.2675781,0.2734375,-0.1381836,-0.199707
3912,-18.375,-26.25,-91.375,0.3227539,0.1020508,0.2290039,0.2749023,-0.1293945,-0.2055664
3916,-19.5625,-30.75,-68.4375,0.3071289,0.004882813,0.2133789,0.2749023,-0.1245117,-0.2041016
3920,-19.875,-38.875,-47.1875,0.3188477,-0.06054688,0.1904297,0.2734375,-0.1157227,-0.206543
3924,-23.5,-42.875,-29.5625,0.4155273,-0.1269531,0.1787109,0.2709961,-0.1132813,-0.2109375
3928,-23.75,-28.1875,-13.75,0.5629883,-0.2626953,0.1479492,0.2700195,-0.1108398,-0.2119141
3932,-18.9375,-0.6875,1.5625,0.5629883,-0.2548828,0.125,0.2700195,-0.1083984,-0.2177734
3936,-15.9375,17.6875,18.1875,0.3574219,-0.2353516,0.09423828,0.269043,-0.1069336,-0.2177734
3940,-12.625,19,36.5625,0.2490234,-0.2744141,0.06347656,0.2700195,-0.109375,-0.2148438
3944,-3.9375,29.125,54.9375,0.2255859,-0.2822266,0.02099609,0.2700195,-0.1108398,-0.2133789
3948,7.375,53.1875,71.4375,0.1289063,-0.2392578,0.001953125,0.2709961,-0.1166992,-0.2094727
3952,15.625,75.5,81.5,-0.1030273,-0.1113281,0.01367188,0.2734375,-0.1206055,-0.2080078
3956,21,82.875,90.8125,-0.3666992,0.004882813,0.04052734,0.2758789,-0.1293945,-0.1987305
3960,20.1875,73.1875,96.75,-0.5371094,0.1098633,0.08251953,0.2758789,-0.1381836,-0.1928711
3964,18.5,56.25,101.3125,-0.5952148,0.15625,0.1210938,0.2783203,-0.1469727,-0.1889648
3968,11.625,38.25,101.375,-0.5795898,0.3081055,0.1479492,0.2783203,-0.1582031,-0.1821289
3972,4.3125,30.5,105.6875,-0.4946289,0.2573242,0.1210938,0.2773438,-0.1655273,-0.1806641
3976,4.75,38.375,110.5,-0.4365234,0.300293,0.06738281,0.2749023,-0.1743164,-0.1806641
3981,8.5625,50.9375,115.4375,-0.5371094,0.284668,0.07910156,0.2749023,-0.1831055,-0.175293
3985,9.9375,46.3125,114.375,-0.6533203,0.3701172,0.05957031,0.2709961,-0.1933594,-0.1699219
3989,9.8125,32.25,119.5,-0.6572266,0.4013672,0.07910156,0.2700195,-0.2016602,-0.1674805
3993,8.5,18.875,124,-0.5683594,0.5527344,0.08251953,0.2651367,-0.2119141,-0.1645508
3997,8.25,18.0625,132.3125,-0.5063477,0.6069336,0.09423828,0.2592773,-0.2216797,-0.1645508
4001,7.625,20.375,133.6875,-0.5175781,0.6811523,0.09814453,0.2558594,-0.2304688,-0.1606445
4005,5,19.875,137.4375,-0.5141602,0.7080078,0.07128906,0.25,-0.2407227,-0.1606445
4009,6.6875,23.6875,143.6875,-0.4750977,0.7119141,0.08251953,0.2426758,-0.2529297,-0.1591797
4013,5.75,26.25,144.1875,-0.5253906,0.8051758,0.04052734,0.237793,-0.2607422,-0.1577148
4017,7.1875,25.375,143.25,-0.5371094,0.8671875,0.01367188,0.2294922,-0.2705078,-0.1547852
4021,9.3125,23.8125,147.6875,-0.5253906,0.9375,0.02099609,0.2211914,-0.2792969,-0.1547852
4025,7.75,27.6875,152.4375,-0.4829102,1.007324,-0.009277344,0.2128906,-0.2880859,-0.1508789
4029,10.8125,35.3125,157.125,-0.5410156,1.015137,0.02099609,0.2070313,-0.2993164,-0.1484375
4033,8.5625,33,154.6875,-0.6455078,1.116211,0.009765625,0.1948242,-0.3095703,-0.1455078
4037,5.5625,18.3125,150.9375,-0.715332,1.146973,0.02490234,0.1889648,-0.3178711,-0.1425781
4041,5.5,4.875,152.625,-0.6416016,1.158691,0.01708984,0.1772461,-0.328125,-0.1425781
4045,9.375,7.5,153.625,-0.4443359,1.267578,0.02880859,0.1630859,-0.3344727,-0.1401367
4049,11.125,28.6875,160.625,-0.3745117,1.341309,0.06738281,0.1547852,-0.3393555,-0.1401367
4053,8,51.1875,167,-0.5644531,1.341309,-0.005371094,0.1401367,-0.3466797,-0.137207
4057,7,57.625,153.125,-0.7890625,1.372559,-0.01318359,0.128418,-0.3544922,-0.1357422
4061,-0.75,37.1875,139.625,-0.9326172,1.399902,-0.04003906,0.1201172,-0.3569336,-0.1318359
4065,-1.25,0.75,134.375,-0.8549805,1.430664,0.01708984,0.1079102,-0.3603516,-0.1303711
4069,-4.75,-3.6875,144.3125,-0.5102539,1.43457,-0.001464844,0.09521484,-0.3657227,-0.1318359
4073,-2.9375,28.6875,154.0625,-0.4790039,1.380371,-0.04003906,0.08691406,-0.3681641,-0.1318359
4077,0.625,60.875,141.25,-0.7075195,1.372559,-0.06298828,0.07373047,-0.3691406,-0.1303711
4081,-3.1875,66.8125,120.5625,-0.9091797,1.430664,-0.08203125,0.06152344,-0.3754883,-0.1289063
4085,-9.4375,47.25,107,-0.9946289,1.407715,-0.06298828,0.05712891,-0.3754883,-0.1264648
4089,-11.9375,12.625,103,-0.9365234,1.349121,-0.03613281,0.04882813,-0.3754883,-0.1264648
4093,-13.6875,-11.75,104.8125,-0.847168,1.356934,-0.04736328,0.03808594,-0.3779297,-0.1279297
4097,-15.9375,-33.875,102.5625,-0.8237305,1.287109,-0.02832031,0.03173828,-0.3793945,-0.1289063
4101,-15.625,-56.875,97.9375,-0.7075195,1.221191,0.01367188,0.01757813,-0.3779297,-0.1303711
4105,-14.1875,-62,94.875,-0.4633789,1.240234,0.06347656,0.006835938,-0.3769531,-0.1318359
4110,-18,-38.0625,90.3125,-0.3007813,1.306641,0.07910156,0,-0.3754883,-0.1333008
4114,-22.3125,-5.0625,76.6875,-0.362793,1.20166,0.06738281,-0.006835938,-0.3769531,-0.1333008
4118,-21.75,17.375,65.625,-0.4750977,1.178223,0.02099609,-0.01416016,-0.3745117,-0.1357422
4122,-18.6875,28.875,65.0625,-0.5913086,1.116211,-0.02050781,-0.02001953,-0.3745117,-0.137207
4126,-12,37.5,61.5625,-0.6806641,1.084961,-0.05126953,-0.0234375,-0.3706055,-0.137207
4130,-7.0625,43.25,52.3125,-0.7617188,1.100586,-0.06298828,-0.02929688,-0.371582,-0.1386719
4134,-4.6875,48.6875,39.125,-0.8125,1.112305,-0.07861328,-0.02929688,-0.3681641,-0.1401367
4138,-3.0625,52.8125,25.4375,-0.8706055,1.135742,-0.07861328,-0.02929688,-0.3706055,-0.1401367
4142,-2.625,48.75,10.5625,-0.9790039,1.131836,-0.07470703,-0.03173828,-0.3691406,-0.1425781
4146,-4.5,30.625,-5.6875,-1.029297,1.143066,-0.04736328,-0.03076172,-0.3691406,-0.1425781
4150,-8.4375,5.75,-20.5,-0.9169922,1.166504,-0.01318359,-0.02832031,-0.3706055,-0.1416016
4154,-13.1875,-15.5,-30.125,-0.7695313,1.158691,0.009765625,-0.02685547,-0.3681641,-0.144043
4158,-18.4375,-35.0625,-32.8125,-0.6186523,1.150879,0.02099609,-0.02490234,-0.3706055,-0.144043
4162,-20.9375,-47.8125,-33.5,-0.4868164,1.09668,0.02490234,-0.02246094,-0.3681641,-0.1455078
4166,-22.5625,-53.75,-36.5,-0.3588867,1.104492,0.03271484,-0.02246094,-0.3666992,-0.1469727
4170,-24.5625,-51.9375,-41.25,-0.2661133,1.077148,0.02490234,-0.01757813,-0.3666992,-0.1484375
4174,-24.625,-48.6875,-46.75,-0.1962891,1.04248,0.03271484,-0.01855469,-0.3666992,-0.1523438
