Packet number,Gyroscope X (deg/s),Gyroscope Y (deg/s),Gyroscope Z (deg/s),Accelerometer X (g),Accelerometer Y (g),Accelerometer Z (g),Magnetometer X (G),Magnetometer Y (G),Magnetometer Z (G)
0,17.25,-1.375,-56.125,0.6557617,-1.509766,0.09423828,0.08886719,0.2426758,-0.1591797
4,23,9.3125,-69.25,0.7412109,-1.541016,0.06738281,0.08447266,0.2426758,-0.1606445
8,26.25,19.3125,-83.625,0.7993164,-1.548828,0.005859375,0.08056641,0.2412109,-0.1606445
12,25.75,28.1875,-100.4375,0.7915039,-1.587891,-0.009277344,0.07226563,0.2451172,-0.1645508
16,26.0625,31.9375,-114.625,0.7680664,-1.645996,-0.04003906,0.06396484,0.2460938,-0.1645508
20,24.8125,36.4375,-126.0625,0.7836914,-1.68457,-0.02050781,0.05810547,0.2475586,-0.1660156
24,25.5625,40.9375,-138.125,0.7602539,-1.750977,-0.01318359,0.04980469,0.25,-0.1674805
28,26,43.375,-153.9375,0.7255859,-1.758789,-0.01318359,0.0390625,0.25,-0.168457
32,24.4375,45.0625,-173,0.659668,-1.797363,-0.01318359,0.02734375,0.2509766,-0.168457
36,25,48.4375,-190.75,0.5551758,-1.910156,0.04443359,0.01513672,0.2524414,-0.1738281
40,33.125,53.5625,-205.0625,0.5048828,-1.9375,0.08251953,-0.003417969,0.2509766,-0.1738281
44,38.0625,60.3125,-215.375,0.4233398,-1.929688,0.08251953,-0.01171875,0.2548828,-0.1767578
48,44,62.0625,-220.3125,0.3613281,-1.983887,0.04443359,-0.02929688,0.25,-0.1796875
52,43.5,62.75,-216.8125,0.3266602,-1.945313,0.03271484,-0.04492188,0.2460938,-0.1850586
56,43.6875,61.5,-217.75,0.3378906,-1.898438,0.07519531,-0.05566406,0.2412109,-0.1889648
60,47.1875,61.625,-220.6875,0.3071289,-1.820801,0.144043,-0.07226563,0.2387695,-0.1943359
64,52.875,54,-222.75,0.1870117,-1.708008,0.1132813,-0.08886719,0.2285156,-0.1972656
68,46.875,32.8125,-223.9375,0.1210938,-1.525391,0.009765625,-0.09863281,0.2236328,-0.2011719
73,33.375,9.9375,-223.4375,0.1484375,-1.405273,0.03271484,-0.1152344,0.2138672,-0.2055664
77,21.8125,-3.4375,-213.875,0.1674805,-1.366211,0.08251953,-0.1328125,0.2036133,-0.2080078
81,11.875,-6.3125,-201,0.2294922,-1.26123,0.1289063,-0.1435547,0.1962891,-0.2080078
85,6,0.625,-192.1875,0.3149414,-1.195313,0.2133789,-0.1601563,0.1860352,-0.2080078
89,10.0625,20.5,-187.3125,0.3496094,-1.1875,0.3330078,-0.1723633,0.1772461,-0.2080078
93,25.875,50.5625,-180.25,0.2490234,-1.167969,0.4365234,-0.1782227,0.1713867,-0.2094727
97,46,77.3125,-164.875,0.02441406,-1.059082,0.4018555,-0.1889648,0.15625,-0.2177734
101,51.1875,80.6875,-159.5,-0.3823242,-0.7211914,0.2172852,-0.1923828,0.1450195,-0.2246094
105,38.625,35.8125,-170.4375,-0.8354492,-0.4453125,0.07519531,-0.1972656,0.1362305,-0.2246094
109,20.625,-24.75,-175.6875,-1.013672,-0.2084961,0.08642578,-0.2045898,0.1225586,-0.230957
113,-1.0625,-59.6875,-140.3125,-0.8935547,-0.07226563,0.1787109,-0.2138672,0.1113281,-0.2299805
117,-12.9375,-60,-91.8125,-0.6845703,-0.03759766,0.2944336,-0.2197266,0.1064453,-0.2255859
121,-16,-44.6875,-51.875,-0.5795898,0.07080078,0.2905273,-0.2280273,0.1010742,-0.2216797
125,-20.3125,-35.8125,-25.0625,-0.6069336,0.1875,0.2480469,-0.2304688,0.1000977,-0.2148438
129,-20.1875,-41.9375,-16.875,-0.6147461,0.237793,0.2172852,-0.2319336,0.09863281,-0.2119141
133,-14.8125,-51.5625,-11.3125,-0.5488281,0.2338867,0.2480469,-0.2353516,0.1000977,-0.2119141
137,-8.625,-51.8125,1.5625,-0.4130859,0.2148438,0.2749023,-0.237793,0.1000977,-0.2055664
141,2.75,-39.75,19.9375,-0.3320313,0.1523438,0.3017578,-0.2402344,0.1025391,-0.2026367
145,16.4375,-23.5625,39.1875,-0.2890625,0.171875,0.2597656,-0.2402344,0.1010742,-0.199707
149,24.25,-10.9375,58.4375,-0.2890625,0.171875,0.1904297,-0.2412109,0.1049805,-0.199707
153,26.75,-3.1875,78.125,-0.2583008,0.1523438,0.1289063,-0.2402344,0.1088867,-0.1987305
157,21.3125,0.1875,99.375,-0.2270508,0.1914063,0.05175781,-0.2353516,0.1113281,-0.2011719
161,6.8125,-7.875,115.9375,-0.2504883,0.1137695,0.02099609,-0.2294922,0.1201172,-0.2011719
165,-6.5625,-20.9375,126.6875,-0.2734375,-0.05664063,0.05566406,-0.2280273,0.125,-0.2026367
169,-13.75,-35.9375,140.5625,-0.2734375,-0.3208008,0.09033203,-0.222168,0.1347656,-0.199707
173,-12.6875,-43.25,156.9375,-0.1962891,-0.4804688,0.1518555,-0.2163086,0.1459961,-0.1972656
177,-9.8125,-41.9375,171.5625,-0.1108398,-0.6123047,0.1713867,-0.2114258,0.1523438,-0.1943359
181,-6.3125,-40.625,180,-0.1225586,-0.7753906,0.07910156,-0.2045898,0.1650391,-0.1904297
185,-7.875,-53.5,189.3125,-0.05273438,-0.8300781,0.04052734,-0.1938477,0.1772461,-0.1865234
189,-2.6875,-51.5625,185.25,0.2451172,-0.9467773,0.1518555,-0.1865234,0.1850586,-0.1865234
193,19.625,-11.3125,185.625,0.4658203,-1.129395,0.3291016,-0.1748047,0.1962891,-0.1835938
197,37.875,50.625,198,0.3417969,-1.11377,0.2983398,-0.1616211,0.2036133,-0.1875
202,33.6875,69.8125,215.1875,-0.1303711,-1.008789,0.04443359,-0.1484375,0.2084961,-0.1918945
206,9,37.875,222.625,-0.3862305,-1.016602,-0.07470703,-0.128418,0.2148438,-0.1958008
210,-10.6875,-2.25,212.5,-0.2504883,-1.1875,-0.001464844,-0.109375,0.2250977,-0.1987305
214,-15.6875,-15.8125,206.8125,-0.05273438,-1.397461,0.09423828,-0.09716797,0.2275391,-0.1972656
218,-23.6875,-10.5625,215.125,0.008789063,-1.455566,0.1635742,-0.08056641,0.2338867,-0.1958008
222,-38.5625,-23.375,222.5625,0.004882813,-1.591309,0.1328125,-0.06396484,0.2387695,-0.1928711
226,-38.5,-28.9375,214.9375,0.159668,-1.840332,0.2368164,-0.05078125,0.2426758,-0.1875
230,-21.4375,-14.75,205.5,0.2954102,-1.999512,0.3291016,-0.03320313,0.2460938,-0.1875
234,-2.625,6.875,204.5,0.2568359,-1.953125,0.2636719,-0.01513672,0.2475586,-0.1875
238,-1.625,18.75,201.4375,0.2412109,-1.80127,0.2250977,0.0009765625,0.2475586,-0.1875
242,-5.5,19.25,194.375,0.05126953,-1.805176,0.1865234,0.01757813,0.2451172,-0.1850586
246,-9.5625,14,189.375,-0.006347656,-1.840332,0.2597656,0.03564453,0.2436523,-0.1865234
250,-12.3125,6.6875,186.9375,-0.06054688,-1.941406,0.3056641,0.04882813,0.2397461,-0.1850586
254,-3.8125,6.75,182.6875,0.05126953,-2.01123,0.3979492,0.06298828,0.2373047,-0.1821289
258,2.6875,4.8125,181.6875,0.04736328,-1.968262,0.3637695,0.08056641,0.2314453,-0.1850586
262,1.25,-24.625,168.6875,0.004882813,-1.9375,0.2441406,0.09130859,0.2285156,-0.1835938
266,-2.25,-78.625,153.5,0.2373047,-2.038574,0.1787109,0.1035156,0.2236328,-0.1850586
270,2.8125,-110.9375,127.25,0.8417969,-2.116211,0.1674805,0.1103516,0.2172852,-0.1875
274,9.3125,-109.1875,108.1875,1.411621,-2.104492,0.09423828,0.1118164,0.2124023,-0.1889648
278,5.875,-91.0625,93.625,1.682617,-2.049805,-0.09765625,0.112793,0.2099609,-0.1928711
282,-4.25,-76,68.8125,1.973145,-1.995605,-0.2285156,0.1166992,0.2075195,-0.1943359
286,-10.8125,-58.125,21.3125,2.116699,-2.061523,-0.2670898,0.1176758,0.2060547,-0.1972656
290,-3.5625,-29.1875,-39.9375,2.116699,-2.174316,-0.1591797,0.112793,0.2060547,-0.1987305
294,15.8125,17.5,-90.3125,1.888184,-2.217285,0.01367188,0.1079102,0.2084961,-0.1987305
298,33.6875,68.3125,-111.6875,1.477539,-2.205566,0.02880859,0.105957,0.2099609,-0.199707
302,46.9375,92.4375,-125.8125,0.9931641,-2.088867,-0.04736328,0.09960938,0.2114258,-0.2011719
306,43.1875,90,-137.125,0.6401367,-1.871094,-0.1401367,0.09375,0.2138672,-0.2055664
310,27.0625,62.1875,-156.5,0.4506836,-1.816895,-0.1513672,0.09130859,0.2163086,-0.2041016
314,11,35.1875,-179.4375,0.4970703,-1.852051,-0.04003906,0.08203125,0.21875,-0.2041016
318,1.6875,28.375,-200.25,0.5668945,-1.987793,0.09423828,0.06787109,0.2236328,-0.2055664
322,-1.25,31.8125,-214.375,0.4619141,-2.100586,0.1328125,0.05712891,0.2275391,-0.2026367
326,-1,32.75,-228.3125,0.3496094,-2.143066,0.1557617,0.0390625,0.2314453,-0.2041016
331,1.9375,35.75,-234.9375,0.2529297,-2.193848,0.2172852,0.02246094,0.2338867,-0.2041016
335,7.625,43.75,-236.75,0.1367188,-2.154785,0.2368164,0.009277344,0.2348633,-0.2011719
339,8.3125,49.625,-232.9375,0.02832031,-2.022949,0.2441406,-0.0078125,0.2373047,-0.2041016
343,6.375,48.5625,-235.8125,-0.08398438,-1.956543,0.2290039,-0.02685547,0.2363281,-0.2055664
347,2.125,42.25,-234.4375,-0.1884766,-1.836426,0.2368164,-0.03759766,0.2348633,-0.2011719
351,-6.25,30.4375,-227.0625,-0.262207,-1.677246,0.2558594,-0.05664063,0.2324219,-0.2055664
355,-9.625,15.5,-219.875,-0.3125,-1.64209,0.2944336,-0.07324219,0.2285156,-0.2055664
359,-8.375,3.6875,-210.875,-0.246582,-1.537109,0.3251953,-0.08642578,0.2260742,-0.2055664
363,-4.3125,3.625,-204.875,-0.1923828,-1.439941,0.340332,-0.1020508,0.2226563,-0.2041016
367,1.5625,8.5625,-196.625,-0.1728516,-1.362305,0.3291016,-0.1186523,0.2148438,-0.2026367
371,10.5,17.375,-191.3125,-0.1342773,-1.195313,0.3520508,-0.1303711,0.2099609,-0.2055664
375,21.0625,30.5,-186.0625,-0.1459961,-1.109863,0.3520508,-0.1401367,0.2026367,-0.2055664
379,32.125,40.375,-180.25,-0.230957,-0.9970703,0.3173828,-0.1533203,0.1914063,-0.2080078
383,42.375,48.25,-174.0625,-0.3666992,-0.8183594,0.2749023,-0.1601563,0.1826172,-0.2119141
387,44.5,33.5,-168.5,-0.6069336,-0.503418,0.140625,-0.168457,0.1723633,-0.2177734
391,33.1875,4.0625,-161.8125,-0.5449219,-0.2978516,0.07910156,-0.1791992,0.1611328,-0.21875
395,23.9375,-16.8125,-167.375,-0.4443359,-0.1420898,0.08642578,-0.1875,0.1538086,-0.2216797
399,11.6875,-32.6875,-170.6875,-0.5214844,0.1020508,0.04052734,-0.1962891,0.1425781,-0.2202148
403,-2.6875,-40.5,-166.625,-0.5834961,0.1254883,0.09423828,-0.2080078,0.1313477,-0.21875
407,-5,-29.6875,-122.875,-0.6069336,0.1137695,0.2250977,-0.215332,0.125,-0.2163086
411,-0.1875,-6.25,-73.6875,-0.6962891,0.1953125,0.2329102,-0.222168,0.1176758,-0.2148438
415,0.875,-0.0625,-34,-0.8432617,0.3505859,0.144043,-0.2270508,0.1152344,-0.2119141
419,-4.3125,-25.125,-17,-0.9477539,0.4594727,0.04785156,-0.2246094,0.1137695,-0.2133789
423,-14.25,-50.5,2.25,-0.831543,0.4790039,0.07910156,-0.2280273,0.1123047,-0.2119141
427,-21.5,-62.8125,28.875,-0.6303711,0.4013672,0.105957,-0.2304688,0.1123047,-0.2026367
431,-26.1875,-62.125,55.9375,-0.5024414,0.315918,0.07910156,-0.2319336,0.1186523,-0.2026367
435,-32.9375,-66.25,81.25,-0.4790039,0.2148438,-0.01318359,-0.2329102,0.125,-0.1958008
439,-43.875,-78.0625,102.8125,-0.3203125,0.1176758,-0.04736328,-0.2319336,0.1313477,-0.1889648
443,-52.3125,-77.875,118,-0.1303711,-0.1191406,0.05175781,-0.2294922,0.1401367,-0.1835938
447,-48,-68.5,134,-0.02197266,-0.3598633,0.1557617,-0.2270508,0.1523438,-0.1782227
451,-33.75,-52.375,152.8125,0.09375,-0.6123047,0.2094727,-0.222168,0.1650391,-0.1699219
455,-20.0625,-29.3125,170.8125,0.2255859,-0.8725586,0.2402344,-0.2163086,0.1713867,-0.1645508
460,1.125,-3.875,168.5625,0.3032227,-0.8222656,0.2788086,-0.2055664,0.1835938,-0.1630859
464,19.8125,24.375,169.1875,0.2836914,-0.7988281,0.2749023,-0.1938477,0.1938477,-0.168457
468,27.5,41.5,180.1875,0.09033203,-0.8496094,0.1787109,-0.1855469,0.1987305,-0.1674805
472,31.4375,39.4375,185.25,0.07080078,-0.9233398,0.1713867,-0.1699219,0.2075195,-0.1713867
476,39.5625,49,181.0625,0.1054688,-1.086426,0.2866211,-0.1542969,0.2148438,-0.175293
480,61.375,67.8125,187.625,-0.01025391,-1.1875,0.2905273,-0.1435547,0.21875,-0.1835938
484,58,83.0625,210.3125,-0.1884766,-0.9311523,0.1674805,-0.1235352,0.2236328,-0.1904297
488,23.0625,62.125,230,-0.4907227,-0.9194336,-0.009277344,-0.1020508,0.2260742,-0.1972656
492,-8.4375,5.5625,224.5,-0.2661133,-1.21875,0.009765625,-0.08544922,0.2324219,-0.199707
496,-0.25,14.1875,192,0.4619141,-1.505859,0.375,-0.06738281,0.2373047,-0.1987305
500,13.75,79.8125,190.625,0.3574219,-1.505859,0.4443359,-0.04980469,0.2373047,-0.2026367
504,1,98.125,214.1875,-0.3393555,-1.416504,0.2329102,-0.03417969,0.2397461,-0.2041016
508,-34.1875,42.25,233.25,-0.7036133,-1.490723,0.1518555,-0.0078125,0.2397461,-0.2041016
512,-58.625,-24.6875,226.125,-0.2348633,-1.809082,0.2133789,0.01269531,0.2397461,-0.199707
516,-44,-36.9375,195.75,0.3925781,-2.003418,0.4174805,0.0234375,0.2412109,-0.1928711
520,-22.0625,5.3125,177.875,0.6171875,-1.960449,0.4980469,0.0390625,0.2412109,-0.1918945
524,-15.75,38.875,178.1875,0.159668,-1.852051,0.3637695,0.05566406,0.2363281,-0.1889648
528,-22.1875,24.375,179.0625,-0.1611328,-1.797363,0.3056641,0.06640625,0.2338867,-0.1875
532,-33.0625,-19.8125,178.0625,-0.1806641,-1.921875,0.2172852,0.08203125,0.2299805,-0.1875
536,-28.3125,-36.75,157.375,0.3535156,-1.925781,0.3671875,0.09863281,0.2275391,-0.1835938
540,-5,-9.875,138.4375,0.5976563,-2.022949,0.4365234,0.1035156,0.2250977,-0.1835938
544,12.4375,28.3125,134.1875,0.3959961,-1.793457,0.3598633,0.1142578,0.2172852,-0.1850586
548,6.5625,19.375,135.0625,0.01660156,-1.64209,0.1132813,0.125,0.2124023,-0.1835938
552,-11.625,-28.125,119.6875,0.2724609,-1.630371,0.09033203,0.1357422,0.2075195,-0.1821289
556,-13.6875,-43.1875,87.6875,0.8032227,-1.743164,0.2368164,0.1425781,0.2050781,-0.1835938
560,5.4375,-22.1875,62.8125,1.128418,-1.867188,0.3173828,0.1450195,0.2001953,-0.1850586
564,15.125,3,53.75,1.109375,-1.773926,0.1787109,0.1484375,0.1972656,-0.1865234
568,6.0625,-5.5,38.0625,1.117188,-1.708008,-0.009277344,0.1523438,0.1938477,-0.1865234
572,-7.3125,-12.5,4.0625,1.330078,-1.781738,0.06347656,0.1533203,0.1923828,-0.1835938
576,-6,-4.5625,-34.625,1.426758,-1.999512,0.2094727,0.1533203,0.1938477,-0.1865234
580,13.25,21.6875,-76.0625,1.39209,-2.150879,0.3442383,0.1508789,0.1972656,-0.1865234
584,31.25,52.4375,-95.3125,1.144043,-2.162598,0.3828125,0.1459961,0.1987305,-0.1850586
589,46.3125,65.8125,-112.75,0.8691406,-2.150879,0.3598633,0.1425781,0.2001953,-0.1865234
593,55.3125,64.0625,-132.5,0.7060547,-2.077148,0.340332,0.1357422,0.2026367,-0.1889648
597,56,54.8125,-157.3125,0.5859375,-2.053711,0.3520508,0.128418,0.2060547,-0.1904297
601,55.75,42.6875,-177.875,0.4155273,-2.049805,0.3598633,0.1210938,0.2099609,-0.1918945
605,52.0625,27.125,-193.1875,0.2177734,-2.081055,0.3442383,0.1079102,0.2163086,-0.1943359
609,44.9375,7.6875,-202.25,0.1831055,-2.026855,0.340332,0.09277344,0.21875,-0.199707
613,35.625,-4.6875,-213.25,0.1987305,-2.053711,0.3637695,0.08447266,0.2250977,-0.2011719
617,31.5,-8.125,-221.5625,0.1870117,-2.045898,0.4174805,0.06542969,0.2260742,-0.2055664
621,30.375,-6.9375,-231.0625,0.09375,-2.053711,0.4174805,0.04248047,0.2299805,-0.2080078
625,31.75,-6.375,-236.1875,-0.04101563,-2.034668,0.4443359,0.03320313,0.2314453,-0.2109375
629,34.9375,-7.125,-235.8125,-0.1689453,-1.929688,0.4287109,0.01074219,0.2338867,-0.2119141
633,37.1875,-6.8125,-229.5,-0.2080078,-1.781738,0.4174805,-0.01171875,0.2324219,-0.2133789
637,36.1875,-6.9375,-223.375,-0.328125,-1.657715,0.3520508,-0.02246094,0.2285156,-0.2177734
641,33.0625,-11.875,-214.875,-0.4052734,-1.533203,0.3251953,-0.04248047,0.2260742,-0.2177734
645,26.25,-21.6875,-201.375,-0.4365234,-1.331055,0.2866211,-0.06152344,0.2211914,-0.2231445
649,17,-29.3125,-192.6875,-0.4130859,-1.222656,0.2636719,-0.07324219,0.2172852,-0.2202148
653,12.25,-38,-181.0625,-0.3935547,-1.171875,0.2905273,-0.08886719,0.2124023,-0.2231445
657,13.0625,-35.6875,-168.5,-0.246582,-1.000977,0.2944336,-0.1054688,0.2060547,-0.2216797
661,9.1875,-20.6875,-157.1875,-0.1728516,-0.8803711,0.3212891,-0.1152344,0.2011719,-0.2202148
665,15.8125,0.6875,-148.375,-0.2041016,-0.8574219,0.3671875,-0.1293945,0.1972656,-0.2202148
669,26.125,13.625,-136.625,-0.4130859,-0.6591797,0.3017578,-0.1391602,0.1899414,-0.2231445
673,27.375,-3.0625,-133.125,-0.5683594,-0.3598633,0.1557617,-0.1474609,0.1860352,-0.2216797
677,17.9375,-23.25,-133.6875,-0.4907227,-0.1967773,0.1635742,-0.1557617,0.1762695,-0.2246094
681,17.8125,-21.625,-126.625,-0.3974609,-0.1538086,0.2250977,-0.1625977,0.1699219,-0.2216797
685,20.125,-8.6875,-109.4375,-0.4750977,-0.02197266,0.1713867,-0.1723633,0.1660156,-0.2231445
689,18.4375,-3.5,-80.9375,-0.5488281,0.1445313,0.1635742,-0.1782227,0.1586914,-0.2246094
693,12.1875,-5.9375,-58.4375,-0.5410156,0.2148438,0.09033203,-0.1831055,0.1523438,-0.2255859
697,7,-7.1875,-42.8125,-0.4521484,0.3271484,0.1210938,-0.1855469,0.1489258,-0.2255859
701,3.25,-7.8125,-28.4375,-0.5024414,0.3271484,0.1171875,-0.1875,0.1489258,-0.2255859
705,4.0625,-16,-12.875,-0.5449219,0.3271484,0.1171875,-0.1875,0.1459961,-0.2246094
709,0.5625,-22.8125,8.625,-0.4711914,0.3427734,0.1132813,-0.1899414,0.1459961,-0.2255859
713,-1.875,-23.3125,30.5625,-0.3510742,0.2963867,0.1210938,-0.1914063,0.1459961,-0.2202148
718,-1.6875,-21.8125,46.5,-0.3320313,0.2226563,0.07128906,-0.1899414,0.1499023,-0.2216797
722,-9.75,-28.3125,67.8125,-0.3588867,0.1914063,0.009765625,-0.1889648,0.1499023,-0.2202148
726,-30.5625,-46.75,88.6875,-0.2929688,0.1640625,-0.02832031,-0.1865234,0.15625,-0.2177734
730,-49.25,-66.25,103.125,-0.1381836,-0.05273438,0.02490234,-0.1855469,0.1635742,-0.2119141
734,-55.1875,-76,109.8125,0.03564453,-0.2822266,0.1289063,-0.1831055,0.1713867,-0.2080078
738,-45.4375,-68.625,112,0.1987305,-0.5151367,0.2290039,-0.1791992,0.1801758,-0.2011719
742,-26.625,-49.0625,119.125,0.2758789,-0.6357422,0.2827148,-0.1748047,0.1884766,-0.1928711
746,-15.6875,-31.6875,129.625,0.1870117,-0.6435547,0.2250977,-0.1708984,0.1938477,-0.1918945
750,-10.3125,-26.4375,133.6875,0.1171875,-0.6435547,0.1904297,-0.1616211,0.2011719,-0.1889648
754,-8,-28.5,138.25,0.03564453,-0.7211914,0.1674805,-0.1542969,0.2084961,-0.1875
758,-8.6875,-32.0625,149.9375,0.04736328,-0.8144531,0.1289063,-0.1474609,0.2124023,-0.1875
762,-14.25,-37.5625,156.0625,0.1791992,-0.8378906,0.125,-0.1352539,0.2211914,-0.1865234
766,-9.5,-30.0625,150.25,0.3149414,-0.9853516,0.2094727,-0.1245117,0.2275391,-0.1821289
770,5.5625,-6,146.75,0.2797852,-1.102051,0.2480469,-0.1186523,0.2299805,-0.1821289
774,6.5625,0.625,156.8125,-0.02197266,-1.024414,0.08251953,-0.1054688,0.2338867,-0.1835938
778,-9.5625,-17.4375,166.6875,-0.04492188,-0.9970703,0.07128906,-0.09228516,0.2397461,-0.1835938
782,-15.75,-24.9375,167.25,0.109375,-1.191406,0.1865234,-0.08300781,0.2412109,-0.1821289
786,-11.5625,-17.4375,166.625,0.1674805,-1.34668,0.1787109,-0.06884766,0.2475586,-0.1796875
790,-7.375,-10.3125,162.125,0.3227539,-1.385742,0.1982422,-0.05419922,0.25,-0.1782227
794,1.0625,5.5625,152.125,0.2685547,-1.459473,0.2250977,-0.04492188,0.2509766,-0.1782227
798,8.9375,18,152.25,0.1289063,-1.412598,0.2441406,-0.03076172,0.2509766,-0.1796875
802,8.3125,17.4375,155.9375,-0.07226563,-1.370117,0.1982422,-0.01513672,0.2509766,-0.1806641
806,-2.875,-1.875,164.9375,-0.1806641,-1.323242,0.05957031,-0.005859375,0.2509766,-0.1821289
810,-21.6875,-23.25,160.875,0.004882813,-1.338867,0.04785156,0.008300781,0.25,-0.1796875
814,-25.25,-26.5625,146.6875,0.1328125,-1.560547,0.1479492,0.02001953,0.2485352,-0.1796875
818,-13.375,-10.1875,136.6875,0.1831055,-1.661621,0.2709961,0.02832031,0.25,-0.1796875
822,-3,6.375,135.75,-0.06054688,-1.638184,0.2250977,0.04248047,0.2475586,-0.1767578
826,-1.8125,-5.9375,141.4375,-0.2426758,-1.513672,0.1289063,0.05566406,0.2451172,-0.1782227
830,-13.375,-29.0625,142.75,-0.215332,-1.42041,0.03662109,0.06298828,0.2436523,-0.1767578
834,-22.5625,-46.9375,136.625,-0.08007813,-1.501953,0.03271484,0.07470703,0.2387695,-0.1767578
838,-22,-47.25,124.6875,0.09033203,-1.537109,0.09814453,0.08300781,0.2373047,-0.1767578
842,-12.5,-31,116.0625,0.1367188,-1.572266,0.1367188,0.08886719,0.2338867,-0.175293
847,-3,-12.375,112.4375,0.1015625,-1.498535,0.1289063,0.09863281,0.2285156,-0.175293
851,0.4375,-8.0625,111.625,-0.02587891,-1.401367,0.07910156,0.109375,0.2260742,-0.175293
855,-9.9375,-25.125,110.5,0.05517578,-1.308105,-0.001464844,0.112793,0.2236328,-0.1738281
859,-18.9375,-41,87.0625,0.2255859,-1.385742,0.06738281,0.1186523,0.2197266,-0.1738281
863,-14.5,-37.8125,68,0.3457031,-1.533203,0.1713867,0.1235352,0.2163086,-0.1738281
867,-1.9375,-23.1875,59.4375,0.3535156,-1.603027,0.1787109,0.1269531,0.2163086,-0.1728516
871,5.0625,-12.625,55.3125,0.4155273,-1.583984,0.1132813,0.1308594,0.2124023,-0.175293
875,10.875,-6.9375,37.125,0.3886719,-1.509766,0.08251953,0.1357422,0.2099609,-0.1767578
879,5.5625,-31.375,18.125,0.1948242,-1.513672,-0.109375,0.1376953,0.2099609,-0.175293
883,-8.9375,-79.875,-11.5,0.4428711,-1.439941,-0.2363281,0.1357422,0.2099609,-0.1796875
887,-22.25,-115.625,-56.875,0.8652344,-1.556641,-0.2397461,0.1269531,0.2124023,-0.1806641
891,-21.1875,-114.4375,-96.1875,1.330078,-1.848145,-0.1435547,0.1225586,0.2138672,-0.1806641
895,-6.1875,-70.4375,-111.6875,1.543457,-2.045898,-0.07080078,0.1069336,0.21875,-0.1835938
899,13.3125,-16.125,-112.625,1.399902,-2.120117,-0.05908203,0.09863281,0.2226563,-0.1875
903,22.3125,21.125,-117.0625,1.19043,-1.953125,-0.1669922,0.09130859,0.2236328,-0.1875
907,14.5625,34.25,-135.4375,0.8803711,-1.785645,-0.2514648,0.08203125,0.2260742,-0.1889648
911,0.4375,23.6875,-158.5,0.6289063,-1.71582,-0.2514648,0.07128906,0.2299805,-0.1889648
915,-16.4375,12,-170.625,0.527832,-1.750977,-0.1474609,0.06152344,0.2348633,-0.1904297
919,-23.9375,9.25,-172.375,0.4736328,-1.844238,-0.02050781,0.04736328,0.2373047,-0.1889648
923,-27.25,14.1875,-176,0.4428711,-1.848145,0.05566406,0.03173828,0.2426758,-0.1850586
927,-27.6875,17.9375,-182.5,0.3769531,-1.855957,0.09033203,0.0234375,0.2451172,-0.1865234
931,-27.75,25.1875,-187.875,0.3149414,-1.812988,0.1210938,0.006835938,0.2485352,-0.1821289
935,-28.6875,31,-192.5625,0.2216797,-1.789551,0.1289063,-0.009277344,0.25,-0.1782227
939,-28.0625,34.6875,-196.3125,0.125,-1.770508,0.1904297,-0.02001953,0.2509766,-0.1782227
943,-26.25,36.3125,-193.125,-0.01806641,-1.754883,0.1943359,-0.03662109,0.2509766,-0.175293
947,-27.5,33.1875,-184.8125,-0.1186523,-1.630371,0.1904297,-0.05322266,0.2524414,-0.1728516
951,-32.875,21.4375,-176.5625,-0.1962891,-1.572266,0.1557617,-0.06152344,0.2509766,-0.1713867
955,-36.6875,11.25,-172.1875,-0.07617188,-1.48291,0.1865234,-0.078125,0.25,-0.1674805
959,-35.8125,11.0625,-170.1875,0.01269531,-1.467285,0.1787109,-0.09228516,0.2475586,-0.1645508
963,-33.3125,13.5,-168.25,0.02832031,-1.350586,0.1557617,-0.1030273,0.2451172,-0.1630859
967,-35.9375,9.4375,-161.9375,0.02832031,-1.272949,0.09814453,-0.1186523,0.2426758,-0.1606445
971,-35.125,10.6875,-153.3125,0.09765625,-1.257324,0.1020508,-0.1303711,0.2373047,-0.1577148
976,-31.3125,26.5625,-146.625,0.2294922,-1.171875,0.1171875,-0.1411133,0.2324219,-0.1547852
980,-22.375,45.375,-141.8125,0.1791992,-1.129395,0.08251953,-0.1494141,0.2299805,-0.1547852
984,-18.125,50.5625,-139.1875,0.06298828,-0.9736328,0.03271484,-0.1616211,0.2250977,-0.1523438
988,-21.0625,38,-137.3125,0.02050781,-0.8574219,-0.01660156,-0.1674805,0.2197266,-0.1547852
992,-25.0625,33.3125,-134,0.08251953,-0.8339844,0.1098633,-0.1782227,0.2114258,-0.1538086
996,-17.5,38,-128.375,0.05517578,-0.8027344,0.1674805,-0.1865234,0.2060547,-0.1523438
1000,-8.0625,42.25,-121.5,0.05517578,-0.6938477,0.1748047,-0.1899414,0.2026367,-0.1547852
1004,-3.1875,42.1875,-114.625,-0.07617188,-0.453125,0.08642578,-0.1982422,0.1938477,-0.15625
1008,-16.5625,21.1875,-105.9375,-0.1884766,-0.1459961,-0.005371094,-0.2045898,0.1884766,-0.15625
1012,-42.3125,-7.0625,-98.5625,-0.230957,-0.1733398,0.02490234,-0.2089844,0.1850586,-0.1577148
1016,-49.9375,-17.5625,-86.5625,-0.07617188,-0.2822266,0.1826172,-0.2138672,0.1801758,-0.1538086
1020,-38.6875,-5.375,-69.9375,0.06689453,-0.3325195,0.3442383,-0.2211914,0.1772461,-0.1494141
1024,-23.1875,17.875,-52.6875,0.06689453,-0.2241211,0.4057617,-0.2246094,0.1748047,-0.1484375
1028,-6.5625,27.5625,-44.9375,-0.1108398,-0.1308594,0.3364258,-0.2270508,0.1723633,-0.1469727
1032,5.875,23,-40.125,-0.28125,-0.01416016,0.3017578,-0.2294922,0.1713867,-0.1469727
1036,11.5,15.375,-23.0625,-0.3549805,0.1293945,0.2172852,-0.2294922,0.1674805,-0.1508789
1040,7.6875,6.9375,-3.375,-0.3706055,0.3232422,0.1865234,-0.2304688,0.1650391,-0.1523438
1044,2.4375,-2.8125,15.625,-0.2773438,0.6069336,0.1171875,-0.2294922,0.1660156,-0.1508789
1048,-7.5,-15.625,37.1875,-0.3588867,0.2573242,0.06347656,-0.2280273,0.1674805,-0.1508789
1052,-19.9375,-33.875,55.125,-0.3007813,0.2070313,0.03271484,-0.2270508,0.1699219,-0.1508789
1056,-32.3125,-48.6875,69.875,-0.1342773,0.07861328,0.04785156,-0.2236328,0.1738281,-0.1469727
1060,-36.9375,-52.5,82.8125,0.1132813,-0.1616211,0.09033203,-0.222168,0.1811523,-0.1425781
1064,-25.0625,-38.75,91.0625,0.2954102,-0.4140625,0.2329102,-0.2197266,0.1875,-0.1347656
1068,4.3125,-12.375,89.875,0.4155273,-0.534668,0.3291016,-0.2138672,0.1923828,-0.1303711
1072,30.4375,17.125,88.375,0.2138672,-0.6083984,0.2983398,-0.2089844,0.1972656,-0.1347656
1076,38,10.5,109.75,-0.2231445,-0.5854492,-0.001464844,-0.2021484,0.2026367,-0.1357422
1080,21.625,-23.6875,128.375,-0.2426758,-0.2353516,-0.05126953,-0.1938477,0.2075195,-0.1401367
1084,-4.3125,-53.125,132.1875,0.0009765625,-0.421875,-0.04394531,-0.1865234,0.2124023,-0.1401367
1088,9.25,-49.9375,130,0.3149414,-0.9155273,0.1826172,-0.1782227,0.2211914,-0.1357422
1092,55,-6.625,128.0625,0.4506836,-1.222656,0.3945313,-0.1699219,0.2260742,-0.1357422
1096,89.25,20.9375,136.375,-0.01416016,-1.133301,0.1557617,-0.1640625,0.2299805,-0.1425781
1100,73.5625,-16.25,152.4375,-0.3935547,-0.7641602,-0.009277344,-0.1484375,0.2324219,-0.1508789
1105,48.1875,-61.75,157.5625,-0.1767578,-0.7832031,0.02490234,-0.1376953,0.2363281,-0.1547852
1109,36,-63.3125,171.25,0.2451172,-1.086426,0.07519531,-0.1303711,0.2387695,-0.1547852
1113,48.75,-24.75,173.875,0.7177734,-1.323242,0.2094727,-0.1176758,0.2451172,-0.1591797
1117,75.25,18.8125,153.25,0.5317383,-1.374023,0.1367188,-0.1010742,0.2460938,-0.1616211
1121,54.3125,32.125,152.9375,0.1289063,-0.8803711,0.1171875,-0.09228516,0.2475586,-0.1674805
1125,25.75,5.6875,152.3125,-0.4169922,-1.179688,0.05957031,-0.07714844,0.2475586,-0.1728516
1129,10.0625,-45.8125,180.8125,-0.378418,-1.408691,-0.02050781,-0.06298828,0.25,-0.175293
1133,-4.75,-60,185.25,0.2797852,-1.312012,0.1328125,-0.05419922,0.2509766,-0.1728516
1137,6.6875,-23.125,172.25,0.5629883,-1.67334,0.3442383,-0.03759766,0.2563477,-0.1728516
1141,27.5,17.4375,172,0.3339844,-1.688477,0.390625,-0.02246094,0.2539063,-0.1782227
1145,34,23.375,166,-0.03320313,-1.541016,0.3056641,-0.01171875,0.2539063,-0.1782227
1149,26.1875,6.375,165,-0.3125,-1.48291,0.2329102,0.003417969,0.2509766,-0.1796875
1153,15.6875,-23.5625,168.5625,-0.3823242,-1.498535,0.1674805,0.02001953,0.2475586,-0.1821289
1157,8.9375,-43.8125,170.8125,-0.2041016,-1.544922,0.1982422,0.02978516,0.2451172,-0.1821289
1161,7.5625,-48.4375,172.6875,-0.006347656,-1.618652,0.1289063,0.04248047,0.2436523,-0.1865234
1165,4.6875,-51.5625,168.375,0.3188477,-1.71582,0.05175781,0.05566406,0.2387695,-0.1865234
1169,12.25,-32.625,147.1875,0.644043,-1.855957,0.1171875,0.06298828,0.2348633,-0.1865234
1173,30.3125,6.8125,128,0.7060547,-1.855957,0.2211914,0.07373047,0.2314453,-0.1875
1177,45.875,32.9375,114.875,0.4155273,-1.789551,0.1826172,0.08691406,0.2250977,-0.1918945
1181,43.8125,26.3125,108.625,0.1367188,-1.606934,0.05566406,0.09277344,0.2211914,-0.1928711
1185,23.25,-8.875,110.625,0.2724609,-1.552734,-0.1054688,0.1020508,0.2138672,-0.1958008
1189,7.25,-25.875,91.3125,0.6362305,-1.645996,-0.03613281,0.1103516,0.2099609,-0.1987305
1193,8.75,-17.5625,70.9375,0.8769531,-1.750977,-0.005371094,0.112793,0.2084961,-0.1972656
1197,9.5,-4.125,49.6875,0.8881836,-1.669434,-0.05517578,0.1186523,0.2060547,-0.1987305
1201,4.75,0.4375,26.625,0.8261719,-1.645996,-0.112793,0.1210938,0.2050781,-0.1987305
1205,-0.4375,-1.75,9.375,0.8261719,-1.649902,-0.1245117,0.1225586,0.2011719,-0.199707
1209,-4.9375,1.4375,-12.625,0.8959961,-1.723633,-0.07080078,0.1225586,0.2036133,-0.199707
1213,0.75,9.5625,-37.5625,0.9272461,-1.785645,-0.05517578,0.1210938,0.2036133,-0.199707
1217,3.1875,21.6875,-60.9375,0.9155273,-1.743164,-0.04003906,0.1186523,0.2036133,-0.2011719
1221,8.625,38,-83.5,0.8842773,-1.820801,0.001953125,0.1152344,0.2084961,-0.1987305
1225,18.1875,56.3125,-100.375,0.7529297,-1.824707,0.01367188,0.1103516,0.2099609,-0.1987305
1229,16.8125,57.1875,-114.0625,0.5087891,-1.661621,-0.06689453,0.1069336,0.2114258,-0.1943359
1234,3.1875,40.75,-129.8125,0.4077148,-1.669434,-0.05908203,0.09863281,0.2163086,-0.1972656
1238,-5.1875,28.3125,-147.4375,0.4350586,-1.758789,0.03662109,0.09033203,0.21875,-0.1958008
1242,-7.75,29.375,-165.1875,0.4736328,-1.859863,0.140625,0.08203125,0.2250977,-0.1943359
1246,-2.3125,36.25,-176.6875,0.3769531,-1.960449,0.1787109,0.07128906,0.2285156,-0.1958008
1250,-1.875,40.4375,-189.0625,0.2607422,-1.910156,0.1982422,0.05810547,0.2338867,-0.1943359
1254,-5.125,37.0625,-191.25,0.07470703,-1.972168,0.2094727,0.04736328,0.2363281,-0.1918945
1258,-9,29.375,-192.0625,0.1015625,-1.894531,0.2827148,0.03173828,0.2397461,-0.1918945
1262,-5.375,27.5625,-200.125,0.140625,-1.933594,0.3637695,0.01660156,0.2436523,-0.1918945
1266,4.3125,31.9375,-205.4375,0.1132813,-1.886719,0.3945313,0.006835938,0.2460938,-0.1904297
1270,12.25,31.3125,-209.3125,0.02832031,-1.762695,0.3442383,-0.01025391,0.2451172,-0.1918945
1274,15.0625,25.375,-211.1875,-0.1147461,-1.657715,0.2788086,-0.02929688,0.2451172,-0.1928711
1278,8.5625,11.25,-197.5,-0.1884766,-1.498535,0.1635742,-0.04150391,0.2451172,-0.1943359
1282,-13.375,-12.5625,-192.8125,-0.2231445,-1.308105,0.07128906,-0.05908203,0.2412109,-0.1928711
1286,-31.5625,-31.125,-191.1875,-0.02978516,-1.362305,0.140625,-0.07714844,0.2397461,-0.1918945
1290,-38.3125,-34.125,-190.9375,0.05517578,-1.358398,0.1904297,-0.08642578,0.2363281,-0.1889648
1294,-41.3125,-33.9375,-186.6875,0.09033203,-1.308105,0.1904297,-0.1054688,0.2338867,-0.1850586
1298,-44.625,-26.625,-181.3125,0.1289063,-1.269043,0.2094727,-0.1235352,0.2314453,-0.1782227
1302,-45.625,-19,-173.375,0.08642578,-1.241699,0.1982422,-0.1342773,0.2260742,-0.1728516
1306,-42.0625,-10.5625,-166.6875,0.09375,-1.152344,0.2329102,-0.1494141,0.2226563,-0.1713867
1310,-38,3,-158.0625,0.07861328,-0.9467773,0.2636719,-0.1640625,0.2163086,-0.1660156
1314,-38.875,7.625,-148.25,-0.006347656,-0.8183594,0.1943359,-0.1708984,0.2114258,-0.1645508
1318,-39.75,1.4375,-141.75,-0.1225586,-0.7792969,0.2368164,-0.1806641,0.2036133,-0.1591797
1322,-28.6875,3.75,-140.5625,0.004882813,-0.6899414,0.340332,-0.1914063,0.1972656,-0.15625
1326,-12.625,24.875,-134.125,-0.05664063,-0.6357422,0.409668,-0.199707,0.1948242,-0.15625
1330,5.625,37.6875,-121.3125,-0.2426758,-0.46875,0.3867188,-0.206543,0.1850586,-0.1591797
1334,21,41,-106.5,-0.4248047,-0.340332,0.3364258,-0.2128906,0.1772461,-0.1616211
1338,25.6875,33.375,-91.9375,-0.5063477,0.02050781,0.2441406,-0.2163086,0.1738281,-0.1660156
1342,22.3125,21.875,-78,-0.5488281,0.2070313,0.2290039,-0.2211914,0.1660156,-0.1674805
1346,19.5625,11.6875,-64.75,-0.5834961,0.2299805,0.2060547,-0.2270508,0.1611328,-0.1699219
1350,18.9375,1.75,-32.625,-0.5527344,0.2226563,0.1865234,-0.2270508,0.1547852,-0.1699219
1354,18.1875,1.6875,-12.0625,-0.4287109,0.3271484,0.1826172,-0.2280273,0.1538086,-0.1728516
1358,22,0.4375,8.625,-0.3901367,0.3349609,0.1787109,-0.2280273,0.1538086,-0.175293
1363,19.9375,-6.9375,24.8125,-0.378418,0.4052734,0.1132813,-0.2255859,0.1499023,-0.1738281
1367,10.5625,-17.875,43,-0.3432617,0.3662109,0.05957031,-0.2280273,0.1538086,-0.175293
1371,-3.5625,-32.1875,63.9375,-0.2929688,0.2612305,0.009765625,-0.2236328,0.15625,-0.1738281
1375,-15.875,-44.0625,83.9375,-0.1342773,0.09033203,0.01367188,-0.2236328,0.1601563,-0.1674805
1379,-23.375,-48.3125,98.4375,0.05517578,-0.08398438,0.07128906,-0.21875,0.1660156,-0.168457
1383,-18.1875,-45.6875,103.125,0.1132813,-0.3134766,0.1171875,-0.215332,0.1748047,-0.1606445
1387,-11.0625,-44.6875,112.1875,0.2177734,-0.3911133,0.1289063,-0.2104492,0.1811523,-0.1591797
1391,-5.375,-38.1875,112.5,0.2797852,-0.5,0.1748047,-0.206543,0.1899414,-0.15625
1395,10.1875,-26.875,116.375,0.2758789,-0.6318359,0.2133789,-0.1982422,0.1948242,-0.1538086
1399,26.5625,-8.5625,124.3125,0.190918,-0.6821289,0.1748047,-0.1923828,0.2011719,-0.1547852
1403,30.125,1.375,136,0.05517578,-0.5854492,0.07128906,-0.1855469,0.2060547,-0.15625
1407,17.125,-6,150.1875,-0.07226563,-0.503418,-0.05126953,-0.1748047,0.2124023,-0.1577148
1411,2.5,-24.375,154.8125,0.04345703,-0.6630859,-0.02050781,-0.1665039,0.2197266,-0.1577148
1415,4.6875,-20.25,147.5,0.2607422,-0.8920898,0.159668,-0.1542969,0.2250977,-0.1591797
1419,21.0625,-0.375,148,0.1831055,-1.066895,0.1787109,-0.1435547,0.2324219,-0.1606445
1423,20.5625,7.5,165.25,-0.03320313,-0.9506836,0.1171875,-0.1342773,0.2348633,-0.1591797
1427,12.8125,-5.4375,171.875,-0.1499023,-0.9970703,0.05566406,-0.1186523,0.2412109,-0.1630859
1431,5.4375,-20.5,177.1875,-0.02197266,-1.102051,0.04052734,-0.1044922,0.2451172,-0.1660156
1435,3.5,-17.125,175.375,0.190918,-1.175781,0.09814453,-0.09375,0.2485352,-0.1630859
1439,7.25,-6.0625,166.8125,0.1831055,-1.374023,0.1132813,-0.07958984,0.2539063,-0.1645508
1443,16.875,13.125,168.3125,0.159668,-1.447754,0.2172852,-0.06396484,0.2548828,-0.1660156
1447,24.4375,27.3125,173.4375,-0.09130859,-1.459473,0.2133789,-0.05224609,0.2563477,-0.1674805
1451,25.875,25.5,180.5625,-0.1884766,-1.416504,0.2094727,-0.03515625,0.2563477,-0.1699219
1455,19.6875,13.6875,188.75,-0.2890625,-1.374023,0.07910156,-0.01611328,0.2548828,-0.1728516
1459,2.375,-4.1875,184.25,-0.1030273,-1.401367,0.07910156,-0.004394531,0.2539063,-0.1738281
1463,-5.5625,-16.3125,172.75,-0.006347656,-1.603027,0.1210938,0.01171875,0.2539063,-0.1738281
1467,4.875,-0.6875,164.125,0.1791992,-1.696289,0.340332,0.02734375,0.2539063,-0.175293
1471,22.75,28.375,163.25,0.02441406,-1.727539,0.3671875,0.03662109,0.2485352,-0.175293
1475,34.375,40.8125,163.8125,-0.2773438,-1.626465,0.2675781,0.05322266,0.2451172,-0.1767578
1479,19,13.125,176.125,-0.5527344,-1.459473,-0.001464844,0.06884766,0.2412109,-0.1806641
1483,-14.5625,-36.4375,169.3125,-0.2583008,-1.467285,-0.01318359,0.07861328,0.2348633,-0.1806641
1487,-25.8125,-62.1875,142.3125,0.02832031,-1.758789,0.09814453,0.09277344,0.2299805,-0.1796875
1492,-8.625,-53.5,124.5,0.3730469,-2.026855,0.3134766,0.09960938,0.2275391,-0.1821289
1496,28.125,-5.1875,116.125,0.5317383,-2.053711,0.4521484,0.1044922,0.2250977,-0.1796875
1500,53.3125,26.625,126.75,0.2685547,-1.933594,0.2094727,0.1152344,0.2172852,-0.1850586
1504,49,21.6875,122.375,0.2797852,-1.61084,0.09423828,0.1269531,0.2099609,-0.1835938
1508,34.0625,3.8125,98.6875,0.3188477,-1.560547,0.06347656,0.1342773,0.2036133,-0.1875
1512,24.1875,-12.9375,77.6875,0.3457031,-1.622559,0.09423828,0.1425781,0.1987305,-0.1904297
1516,17.6875,-27.3125,60.5625,0.4619141,-1.583984,0.06347656,0.1450195,0.1923828,-0.1918945
1520,9.3125,-38.4375,47.125,0.5239258,-1.681152,0.005859375,0.1459961,0.1899414,-0.1943359
1524,0.125,-47.5,32.5,0.7954102,-1.711914,-0.005371094,0.1474609,0.1884766,-0.1958008
1528,-1.3125,-38.875,4.875,0.9736328,-1.805176,0.02880859,0.1474609,0.1884766,-0.1972656
1532,5.4375,-23.25,-22.5625,1.008301,-1.875,0.05175781,0.1474609,0.1860352,-0.199707
1536,14.8125,-4,-49.875,1.043457,-1.894531,0.07519531,0.144043,0.1884766,-0.199707
1540,29.0625,20.375,-76.0625,0.9350586,-1.9375,0.09814453,0.1376953,0.1914063,-0.2026367
1544,39.875,39.1875,-97.375,0.7451172,-1.828613,0.05957031,0.1342773,0.1923828,-0.2041016
1548,40,45.0625,-115.5625,0.5395508,-1.735352,0.01708984,0.1293945,0.1962891,-0.2055664
1552,32.3125,42.5625,-128.75,0.3886719,-1.704102,0.009765625,0.125,0.1972656,-0.206543
1556,24,33.9375,-143.8125,0.3227539,-1.700195,0.02490234,0.1176758,0.2001953,-0.206543
1560,14.8125,25.8125,-160.3125,0.3227539,-1.700195,0.01708984,0.109375,0.2060547,-0.2080078
1564,8.1875,24,-176.6875,0.2954102,-1.805176,0.07910156,0.09765625,0.2114258,-0.2080078
1568,7.9375,28.75,-185.6875,0.2451172,-1.812988,0.1367188,0.08789063,0.2148438,-0.2094727
1572,4.8125,29.6875,-191.4375,0.1328125,-1.688477,0.09033203,0.07470703,0.21875,-0.2080078
1576,-12.125,14.4375,-193.5,0.02050781,-1.568359,0.03271484,0.06054688,0.2250977,-0.2055664
1580,-36.75,-2.0625,-194.625,0.09765625,-1.552734,0.07128906,0.04882813,0.2285156,-0.2055664
1584,-49.9375,-3.9375,-203.75,0.1518555,-1.762695,0.2133789,0.03173828,0.2348633,-0.2026367
1588,-44.75,3.375,-210.3125,0.1171875,-1.914063,0.3056641,0.01416016,0.2426758,-0.199707
1592,-37,13.625,-211.6875,0.1445313,-1.871094,0.3637695,0,0.2436523,-0.1972656
1596,-27.3125,26.125,-219.125,0.08251953,-1.875,0.4404297,-0.01513672,0.2460938,-0.1943359
1600,-14.875,32.125,-212.6875,-0.07617188,-1.859863,0.4174805,-0.03515625,0.2460938,-0.1918945
1604,-9,35.5,-205,-0.06054688,-1.735352,0.4521484,-0.04589844,0.2436523,-0.1918945
1608,-1.5625,37.6875,-205.1875,0.03955078,-1.723633,0.4287109,-0.06054688,0.2436523,-0.1918945
1612,11,49.4375,-211.6875,0.03955078,-1.696289,0.4750977,-0.07958984,0.2387695,-0.1904297
1616,24.875,52.3125,-205.4375,-0.2041016,-1.533203,0.4326172,-0.08886719,0.2363281,-0.1928711
1621,27.125,40.6875,-192.0625,-0.362793,-1.210938,0.340332,-0.1030273,0.2285156,-0.1928711
1625,7.5,7.625,-170.25,-0.4985352,-0.8842773,0.159668,-0.1176758,0.2211914,-0.1972656
1629,-21.9375,-31.375,-162,-0.262207,-0.7680664,0.1518555,-0.128418,0.2148438,-0.1972656
1633,-33.5625,-40.6875,-164.625,-0.04492188,-0.8842773,0.3173828,-0.1435547,0.2124023,-0.1928711
1637,-18.875,-30.125,-168.5,-0.02978516,-0.9697266,0.4443359,-0.1567383,0.2075195,-0.1875
1641,-1.25,-19.25,-155.8125,-0.1186523,-0.8725586,0.4135742,-0.1665039,0.2001953,-0.1850586
1645,7.6875,-7.5625,-141.25,-0.08398438,-0.6787109,0.355957,-0.1782227,0.1914063,-0.1865234
1649,15.1875,1.1875,-134.625,-0.06445313,-0.5776367,0.340332,-0.1875,0.1835938,-0.1850586
1653,28.375,8.0625,-128.1875,-0.1342773,-0.4570313,0.3056641,-0.1923828,0.1801758,-0.1875
1657,38.4375,13.75,-119.5625,-0.1611328,-0.2084961,0.2827148,-0.199707,0.1699219,-0.1875
1661,43.5625,15.75,-110.1875,-0.296875,-0.09179688,0.2211914,-0.206543,0.1586914,-0.1943359
1665,50.125,21.1875,-91.9375,-0.3706055,0.02832031,0.2172852,-0.2128906,0.1547852,-0.1958008
1669,54.125,26,-69.25,-0.4829102,0.1992188,0.1674805,-0.2163086,0.1450195,-0.1972656
1673,50.4375,18.375,-47.75,-0.6186523,0.3818359,0.07910156,-0.2163086,0.1376953,-0.2026367
1677,39.125,4.5,-25.9375,-0.6494141,0.5605469,0.02880859,-0.2163086,0.1337891,-0.2055664
1681,20.9375,-15.125,2.0625,-0.6923828,0.5800781,-0.04003906,-0.21875,0.1323242,-0.2080078
1685,0.0625,-34.875,28.8125,-0.5371094,0.5449219,-0.06689453,-0.21875,0.1313477,-0.2080078
1689,-15.25,-44.6875,50.75,-0.3510742,0.4321289,-0.05126953,-0.2211914,0.1323242,-0.2026367
1693,-25,-47.4375,71.1875,-0.2231445,0.284668,-0.04394531,-0.21875,0.1386719,-0.2011719
1697,-32.9375,-49.875,86.75,-0.1342773,0.1796875,-0.01660156,-0.2163086,0.1435547,-0.1958008
1701,-39.375,-51.4375,101.4375,-0.1499023,-0.006347656,0.005859375,-0.2163086,0.1513672,-0.1918945
1705,-38.6875,-51,118.75,-0.06445313,-0.1577148,0.05566406,-0.2104492,0.1586914,-0.1850586
1709,-32.8125,-38.125,135,0.02050781,-0.3208008,0.159668,-0.206543,0.1689453,-0.1821289
1713,-12.8125,-11.875,144.25,0.04345703,-0.5112305,0.2480469,-0.2045898,0.1787109,-0.1782227
1717,12.25,15.75,165.0625,-0.04101563,-0.6474609,0.2597656,-0.1914063,0.1875,-0.1796875
1721,22.4375,38.25,195.8125,-0.1459961,-0.6240234,0.1328125,-0.1782227,0.1948242,-0.1806641
1725,7.8125,18.75,205.5625,-0.2041016,-0.4570313,-0.04736328,-0.1674805,0.2011719,-0.1850586
1729,-20.25,-28.5625,191.6875,-0.06054688,-0.6201172,-0.09765625,-0.1518555,0.2114258,-0.1850586
1733,-21.3125,-41.625,162.625,0.5009766,-0.9619141,0.1210938,-0.1391602,0.2226563,-0.1821289
1737,3.875,1.375,144.9375,0.4736328,-1.272949,0.2827148,-0.1293945,0.2250977,-0.1806641
1741,24.875,36,161.3125,0.1674805,-1.121582,0.2329102,-0.1176758,0.2299805,-0.1821289
1745,22.3125,45.75,182.6875,-0.03320313,-1.055176,0.1674805,-0.1030273,0.2348633,-0.1850586
1750,13.625,37.9375,194.125,-0.04101563,-0.9853516,0.1132813,-0.08789063,0.2373047,-0.1904297
1754,-8.625,20.625,187.4375,-0.08789063,-1.102051,0.02490234,-0.07128906,0.2397461,-0.1918945
1758,-21.1875,0.3125,179.3125,-0.08007813,-1.354492,0.1289063,-0.05322266,0.2451172,-0.1904297
1762,-14.125,5.125,172.875,0.08642578,-1.471191,0.3173828,-0.04492188,0.2451172,-0.1889648
1766,-5.0625,20,179.75,0.09033203,-1.436035,0.3330078,-0.02832031,0.2485352,-0.1875
1770,-6.4375,24.875,175.875,-0.04882813,-1.405273,0.2749023,-0.009277344,0.2475586,-0.1889648
1774,-14.3125,13.8125,175.125,-0.2661133,-1.494629,0.2636719,0.0009765625,0.2485352,-0.1875
1778,-10.375,11.125,178.625,-0.2426758,-1.61084,0.4057617,0.01660156,0.2475586,-0.1875
1782,-3.3125,7.1875,190.375,-0.2890625,-1.544922,0.3173828,0.03564453,0.2460938,-0.1865234
1786,-19.125,-14.0625,189.1875,-0.01806641,-1.513672,0.2250977,0.04492188,0.2436523,-0.1850586
1790,-23.875,-20.375,164,0.1518555,-1.773926,0.3330078,0.06152344,0.2412109,-0.1850586
1794,-0.375,-4,143.8125,0.2529297,-1.902344,0.5019531,0.07470703,0.2387695,-0.1806641
1798,25.0625,29.4375,140.75,0.07470703,-1.812988,0.5136719,0.08447266,0.2338867,-0.1835938
1802,35.375,33.75,144.875,-0.2192383,-1.525391,0.2905273,0.09765625,0.2275391,-0.1875
1806,8.5,3.375,150.5625,-0.4985352,-1.241699,0.04443359,0.109375,0.2211914,-0.1875
1810,-31.0625,-52.0625,141.5625,-0.4555664,-1.296387,-0.07080078,0.1166992,0.2148438,-0.1875
1814,-55,-92.5,129.125,-0.2700195,-1.525391,0.001953125,0.1259766,0.2114258,-0.1835938
1818,-61.6875,-107.8125,119.5625,0.206543,-1.758789,0.1713867,0.1333008,0.2084961,-0.1865234
1822,-35.25,-86.9375,102.75,0.6015625,-2.026855,0.340332,0.1333008,0.2060547,-0.1850586
1826,4.625,-36.1875,93.125,0.8110352,-1.991699,0.390625,0.1376953,0.2036133,-0.1875
1830,26.125,-2.3125,81.5,0.644043,-1.758789,0.1826172,0.1416016,0.1972656,-0.1889648
1834,26.75,-2.625,58.5,0.4311523,-1.580078,0.02099609,0.1484375,0.1948242,-0.1875
1838,18.5,-13.625,37.8125,0.4350586,-1.556641,-0.02832031,0.1533203,0.1914063,-0.1889648
1842,10.875,-18.25,23.9375,0.4892578,-1.626465,-0.06298828,0.1533203,0.1884766,-0.1904297
1846,5.75,-16,9.125,0.6210938,-1.626465,-0.05517578,0.1533203,0.1875,-0.1943359
1850,2.25,-11.9375,-12.375,0.675293,-1.681152,-0.01660156,0.1523438,0.1875,-0.1958008
1854,4.9375,-7,-36.9375,0.7216797,-1.750977,0.009765625,0.1499023,0.1899414,-0.1928711
1858,9,2.9375,-59.1875,0.7177734,-1.840332,0.02880859,0.1484375,0.1914063,-0.1958008
1862,13.1875,13.5625,-76.8125,0.7758789,-1.840332,0.02490234,0.1450195,0.1914063,-0.1943359
1866,17.5,28.25,-98.1875,0.7451172,-1.875,0.04785156,0.1376953,0.1948242,-0.1972656
1870,19.6875,34.625,-116.875,0.609375,-1.875,0.04052734,0.1333008,0.1972656,-0.199707
1874,16.3125,32,-133.3125,0.5317383,-1.863281,0.05175781,0.1269531,0.2011719,-0.1972656
1879,10.1875,28,-152.0625,0.5009766,-1.894531,0.07910156,0.1186523,0.2060547,-0.1987305
1883,6.375,26.875,-171.4375,0.4038086,-1.933594,0.1171875,0.109375,0.2124023,-0.1958008
1887,0.1875,19.125,-185.25,0.2529297,-1.90625,0.09814453,0.09619141,0.21875,-0.1972656
1891,-13.625,3.25,-196,0.1831055,-1.882813,0.09814453,0.08056641,0.2275391,-0.1943359
1895,-28.4375,-10.625,-205.9375,0.2607422,-1.917969,0.125,0.07128906,0.2299805,-0.1958008
1899,-37.8125,-13.1875,-220.1875,0.3188477,-1.987793,0.159668,0.05224609,0.2373047,-0.1928711
1903,-40,-1.125,-233.5625,0.3886719,-2.081055,0.2250977,0.03417969,0.2436523,-0.1904297
1907,-27.9375,28.5625,-244.625,0.2646484,-2.236328,0.340332,0.01904297,0.2451172,-0.1865234
1911,-2.8125,63.625,-244.25,-0.04101563,-2.209473,0.4135742,-0.001953125,0.2485352,-0.1835938
1915,14.9375,75.125,-231,-0.4326172,-1.995605,0.340332,-0.02099609,0.25,-0.1850586
1919,15.5625,58,-216.4375,-0.7075195,-1.74707,0.2597656,-0.03173828,0.2485352,-0.1875
1923,4.4375,23.3125,-209.375,-0.6689453,-1.513672,0.2329102,-0.04980469,0.2460938,-0.1889648
1927,-3.0625,-0.3125,-207.875,-0.5141602,-1.350586,0.2441406,-0.06738281,0.2426758,-0.1904297
1931,-8.5,-11,-206.4375,-0.4443359,-1.269043,0.2441406,-0.07958984,0.2412109,-0.1875
1935,-14.6875,-23.25,-200.6875,-0.3974609,-1.203125,0.1865234,-0.09716797,0.2363281,-0.1865234
1939,-24.8125,-39.4375,-190.6875,-0.3901367,-1.094238,0.09814453,-0.1162109,0.2299805,-0.1835938
1943,-44.25,-62.375,-177.1875,-0.2426758,-0.9467773,0.04052734,-0.1293945,0.2275391,-0.1796875
1947,-56.375,-72,-169.1875,0.09375,-0.8999023,0.05957031,-0.1450195,0.2236328,-0.1713867
1951,-56.5625,-55.25,-170,0.3110352,-0.9775391,0.140625,-0.1616211,0.2172852,-0.1630859
1955,-41.875,-21.75,-167.875,0.4077148,-0.9853516,0.1748047,-0.1723633,0.2124023,-0.1606445
1959,-22.125,20.625,-163.4375,0.2993164,-0.8881836,0.2290039,-0.1865234,0.2050781,-0.15625
1963,1.8125,56.75,-151.25,0.09765625,-0.7524414,0.2983398,-0.1962891,0.1962891,-0.1577148
1967,28.375,85.9375,-137.8125,-0.1923828,-0.4765625,0.3671875,-0.2021484,0.1914063,-0.1606445
1971,48.125,95.4375,-121.25,-0.5722656,-0.1420898,0.2905273,-0.2080078,0.1801758,-0.1674805
1975,51.3125,78.375,-101.3125,-0.8818359,0.1484375,0.1787109,-0.2080078,0.1699219,-0.175293
1979,36.4375,47.375,-79,-0.9594727,0.4204102,0.105957,-0.2114258,0.1635742,-0.1821289
1983,18.625,19.3125,-60.5625,-0.8237305,0.5136719,0.1367188,-0.2138672,0.1577148,-0.1865234
1987,-0.1875,1.125,-32.8125,-0.6728516,0.5800781,0.1713867,-0.2163086,0.1523438,-0.1850586
1991,-8.75,-10.75,-13.9375,-0.5874023,0.4711914,0.2211914,-0.2172852,0.1538086,-0.1875
1995,-6.25,-16.125,7.125,-0.5024414,0.3544922,0.2675781,-0.21875,0.1523438,-0.1865234
1999,2.5,-17.5625,29.8125,-0.3588867,0.284668,0.2597656,-0.21875,0.1538086,-0.1835938
2003,9.8125,-14.5625,49.375,-0.2119141,0.2495117,0.2290039,-0.2172852,0.1547852,-0.1821289
2008,9.6875,-14.5,66.4375,-0.1845703,0.1835938,0.1518555,-0.215332,0.1611328,-0.1835938
2012,1.9375,-21.6875,83,-0.1303711,0.1020508,0.08251953,-0.2114258,0.1625977,-0.1835938
2016,-8.6875,-31.1875,95.625,-0.02197266,-0.06054688,0.06738281,-0.2089844,0.1660156,-0.1806641
2020,-10.25,-33.625,105.1875,0.1713867,-0.2744141,0.1748047,-0.2045898,0.1723633,-0.1782227
2024,-0.1875,-19.125,111.8125,0.3266602,-0.4414063,0.2480469,-0.199707,0.1811523,-0.1782227
2028,16.1875,-1.125,113.0625,0.2333984,-0.5966797,0.2636719,-0.1948242,0.1860352,-0.1767578
2032,27.6875,4.625,121.5,0.125,-0.6044922,0.2290039,-0.1855469,0.1923828,-0.1796875
2036,29.1875,7.1875,132.75,0.1328125,-0.6201172,0.1748047,-0.1748047,0.1948242,-0.1821289
2040,25.25,3.125,140.375,0.2138672,-0.5854492,0.1210938,-0.1699219,0.2011719,-0.1835938
2044,22.0625,9.75,138.375,0.3691406,-0.6513672,0.1557617,-0.1601563,0.2075195,-0.1835938
2048,25.5625,23.375,132.875,0.1831055,-0.7949219,0.1557617,-0.1474609,0.2124023,-0.1875
2052,21.25,22.625,141.875,0.01660156,-0.7368164,0.1635742,-0.1401367,0.2172852,-0.1904297
2056,8.25,12,154.125,-0.1225586,-0.7792969,0.144043,-0.1269531,0.2197266,-0.1928711
2060,-5,-3.5,168.875,-0.05664063,-0.9311523,0.159668,-0.1152344,0.2250977,-0.1958008
2064,-12.1875,-8.375,169.6875,0.140625,-1.032227,0.2094727,-0.1054688,0.2285156,-0.1928711
2068,-1.9375,9.3125,156.6875,0.159668,-1.350586,0.3330078,-0.09033203,0.2338867,-0.1943359
2072,17.875,28.0625,165,-0.07617188,-1.338867,0.3134766,-0.07568359,0.2387695,-0.1928711
2076,12.625,24.25,190.125,-0.3125,-1.164063,0.2094727,-0.06494141,0.2387695,-0.1972656
2080,-12.8125,-7.5,208.1875,-0.3588867,-1.105957,0.05566406,-0.04833984,0.2412109,-0.1972656
2084,-34.375,-37.3125,201.75,-0.08789063,-1.304199,0.09033203,-0.02832031,0.2436523,-0.1972656
2088,-32.4375,-33.8125,188,0.125,-1.568359,0.2290039,-0.01855469,0.2451172,-0.1928711
2092,-2.8125,3.375,175.4375,0.08251953,-1.824707,0.4135742,-0.003417969,0.2451172,-0.1928711
2096,16.625,23,193.5,-0.230957,-1.645996,0.2983398,0.01171875,0.2451172,-0.1928711
2100,12.1875,16.5,203.9375,-0.2080078,-1.393555,0.1787109,0.02587891,0.2436523,-0.1928711
2104,-3.25,0,191.8125,-0.1767578,-1.385742,0.1289063,0.04394531,0.2397461,-0.1928711
2108,-12.375,-14.125,178.25,-0.1962891,-1.459473,0.1289063,0.05810547,0.2363281,-0.1928711
2112,-16.6875,-13.6875,172.25,-0.2001953,-1.572266,0.1748047,0.06884766,0.2338867,-0.1928711
2116,-11.3125,-6.5625,170.3125,-0.08007813,-1.723633,0.2827148,0.08300781,0.2275391,-0.1918945
2120,-5.1875,2.0625,168.375,-0.08398438,-1.688477,0.2558594,0.09619141,0.2226563,-0.1904297
2124,-4.875,2.625,162.3125,-0.09130859,-1.603027,0.2866211,0.1069336,0.21875,-0.1904297
2128,-10.4375,-6.625,155.4375,-0.230957,-1.595215,0.2480469,0.1201172,0.2124023,-0.1918945
2132,-17.875,-33.9375,149.25,-0.1689453,-1.708008,0.1713867,0.1308594,0.2060547,-0.1918945
2137,-19.5,-42,132.8125,0.3886719,-1.74707,0.2597656,0.1376953,0.2011719,-0.1889648
2141,1.4375,-17.375,106.25,0.6948242,-1.863281,0.3291016,0.144043,0.1972656,-0.1918945
2145,23.75,23.125,89.25,0.6132813,-1.785645,0.3056641,0.1533203,0.1923828,-0.1904297
2149,26.5625,34.125,78.9375,0.2797852,-1.501953,0.105957,0.1567383,0.1860352,-0.1904297
2153,-1.25,3.75,75.625,-0.02978516,-1.416504,-0.112793,0.1640625,0.1826172,-0.1889648
2157,-38.6875,-44.6875,62.125,0.2646484,-1.455566,-0.112793,0.1713867,0.1801758,-0.1889648
2161,-59.4375,-76.5,30.5,0.5126953,-1.770508,-0.04736328,0.1689453,0.1787109,-0.1889648
2165,-53.5625,-76.0625,7.25,0.8881836,-2.049805,0.09814453,0.1674805,0.1811523,-0.1875
2169,-34.6875,-47.0625,-8.6875,1.151855,-2.143066,0.1635742,0.1630859,0.1811523,-0.1889648
2173,-6.125,-5.875,-44.0625,1.198242,-2.255859,0.2021484,0.1630859,0.1850586,-0.1889648
2177,24.6875,31.125,-76.5,1.008301,-2.182129,0.1479492,0.1582031,0.1860352,-0.1904297
2181,40.3125,51,-102.3125,0.7333984,-2.049805,0.06347656,0.1533203,0.1914063,-0.1904297
2185,45.5625,56.25,-118.375,0.5126953,-1.949219,0.02880859,0.1499023,0.1938477,-0.1904297
2189,40.5,51.0625,-131.25,0.3496094,-1.875,0.005859375,0.1450195,0.1962891,-0.1904297
2193,27.5625,36.6875,-147.4375,0.2836914,-1.820801,0.02099609,0.1367188,0.2026367,-0.1918945
2197,16.0625,21.75,-168.0625,0.2915039,-1.90625,0.09423828,0.1293945,0.2036133,-0.1928711
2201,13.5625,19.5625,-188.9375,0.2875977,-2.026855,0.1865234,0.1166992,0.2099609,-0.1943359
2205,17.9375,23.5,-204.1875,0.1948242,-2.077148,0.2211914,0.1010742,0.21875,-0.1928711
2209,16.625,23.625,-213.5,-0.01416016,-2.030762,0.1787109,0.09130859,0.2236328,-0.1918945
2213,7.0625,7.8125,-217.4375,-0.1845703,-1.933594,0.140625,0.07470703,0.2299805,-0.1943359
2217,-8.25,-9,-220.3125,-0.1264648,-1.910156,0.2060547,0.05566406,0.2348633,-0.1928711
2221,-10.375,-6.4375,-229.0625,-0.04101563,-2.019043,0.3017578,0.04248047,0.2387695,-0.1928711
2225,-0.5625,7.3125,-233.875,-0.09521484,-2.015137,0.3251953,0.02246094,0.2436523,-0.1928711
2229,5.5,14.4375,-234.5,-0.2583008,-1.836426,0.2866211,0.002441406,0.2436523,-0.1943359
2233,2.125,6.1875,-229.9375,-0.4287109,-1.735352,0.2368164,-0.01416016,0.2436523,-0.1958008
2237,-3.1875,-2.875,-225.9375,-0.3862305,-1.626465,0.3134766,-0.03173828,0.2451172,-0.1943359
2241,-5.25,-9.25,-218.3125,-0.3393555,-1.548828,0.3212891,-0.05419922,0.2412109,-0.1904297
2245,-3.1875,-6.375,-216,-0.28125,-1.459473,0.3251953,-0.06494141,0.2397461,-0.1928711
2249,1.5625,-3.75,-212,-0.2700195,-1.331055,0.3134766,-0.08544922,0.2373047,-0.1928711
2253,5.0625,1.875,-205.8125,-0.2851563,-1.237793,0.2905273,-0.1030273,0.2314453,-0.1918945
2257,11.75,10.375,-195.8125,-0.2543945,-1.136719,0.3291016,-0.1137695,0.2250977,-0.1918945
2261,22.5,21.875,-189.3125,-0.2504883,-1.008789,0.3710938,-0.1293945,0.2172852,-0.1943359
2266,41.75,38.875,-181.6875,-0.3393555,-0.9155273,0.3979492,-0.1425781,0.2099609,-0.1943359
2270,58.625,50.0625,-164.9375,-0.4829102,-0.6318359,0.2788086,-0.1494141,0.2026367,-0.199707
2274,63.125,47.125,-145.8125,-0.6342773,-0.3481445,0.1787109,-0.1567383,0.1914063,-0.206543
2278,58,33.0625,-126.1875,-0.6611328,-0.08789063,0.07519531,-0.1640625,0.1811523,-0.2133789
2282,44.125,17.25,-113.6875,-0.6147461,0.07861328,0.03662109,-0.1699219,0.1738281,-0.2163086
2286,35.25,13.9375,-97.6875,-0.4555664,0.1254883,0.09814453,-0.1748047,0.1635742,-0.21875
2290,36.1875,22.875,-79.6875,-0.4091797,0.1796875,0.1210938,-0.1806641,0.1577148,-0.2202148
2294,41.0625,31.25,-57.1875,-0.4404297,0.2416992,0.1171875,-0.1831055,0.1538086,-0.2246094
2298,38.5,25,-38,-0.5410156,0.4204102,0.001953125,-0.1831055,0.1474609,-0.2285156
2302,22.625,7.5625,-22.375,-0.4829102,0.4985352,-0.03613281,-0.1855469,0.1435547,-0.230957
2306,10.375,0.5,-6.0625,-0.3125,0.4321289,0.02490234,-0.1855469,0.1425781,-0.230957
2310,7.5,6.5,15.125,-0.2851563,0.3935547,0.07519531,-0.184082,0.1411133,-0.2338867
2314,-3.1875,3.5625,36.125,-0.4091797,0.4711914,-0.02832031,-0.1831055,0.1425781,-0.2324219
2318,-24.1875,-13.4375,57.25,-0.4555664,0.3857422,-0.05908203,-0.1831055,0.1450195,-0.230957
2322,-47.4375,-30.5625,84.125,-0.3007813,0.21875,0.009765625,-0.1782227,0.1523438,-0.2299805
2326,-61.625,-38.375,105.3125,-0.06835938,-0.08398438,0.1171875,-0.1757813,0.1586914,-0.2255859
2330,-57.5,-31.75,116.6875,0.1831055,-0.3754883,0.2944336,-0.1708984,0.1650391,-0.2202148
2334,-34.8125,-13.0625,113.5625,0.3110352,-0.5698242,0.4018555,-0.1650391,0.1748047,-0.2177734
2338,-8.75,6.9375,110.3125,0.2333984,-0.5893555,0.3979492,-0.1601563,0.1826172,-0.2163086
2342,0,14.6875,119.1875,-0.03320313,-0.6083984,0.2558594,-0.1542969,0.1860352,-0.2148438
2346,-8.625,4.8125,131.5,-0.06835938,-0.5151367,0.2060547,-0.1450195,0.1914063,-0.2177734
2350,-8.75,1.75,139,0.206543,-0.7407227,0.3095703,-0.1352539,0.1987305,-0.2163086
2354,11.125,28,135.0625,0.4389648,-0.9272461,0.4599609,-0.1269531,0.2026367,-0.2177734
2358,40.25,65.6875,134.4375,0.3535156,-0.9506836,0.4365234,-0.1152344,0.2050781,-0.2177734
2362,48.875,88,132.5625,-0.04101563,-0.7719727,0.2441406,-0.09960938,0.2060547,-0.2255859
2366,26.4375,66.8125,147.875,-0.4521484,-0.5927734,0.144043,-0.09033203,0.2084961,-0.230957
2370,-8.375,26.25,164.875,-0.5566406,-0.6005859,0.105957,-0.07324219,0.2099609,-0.2324219
2374,-35.75,-12.9375,168.1875,-0.3666992,-0.8574219,0.1557617,-0.06054688,0.2148438,-0.230957
2378,-41.3125,-23.8125,171.0625,0.05517578,-1.191406,0.3173828,-0.05078125,0.2172852,-0.2285156
2382,-18.9375,13.9375,169.25,0.3847656,-1.424316,0.5366211,-0.0390625,0.2211914,-0.2270508
2386,10.6875,63.375,169.25,0.1054688,-1.393555,0.4868164,-0.02490234,0.2226563,-0.2255859
2390,12.25,77.25,182.1875,-0.3935547,-1.183594,0.355957,-0.01171875,0.2197266,-0.2270508
2395,-17.125,47.3125,201.5625,-0.8085938,-1.070801,0.1367188,0.01074219,0.2197266,-0.2299805
2399,-57.5,-18.5,200.625,-0.7075195,-1.22998,0.07128906,0.02734375,0.2197266,-0.2255859
2403,-73.875,-51.5625,185.875,-0.08007813,-1.486816,0.2905273,0.03564453,0.2211914,-0.2202148
2407,-48.4375,-23.8125,168.25,0.3227539,-1.762695,0.5712891,0.04736328,0.2226563,-0.2177734
2411,-13,32.625,176.1875,0.159668,-1.677246,0.5830078,0.06298828,0.2211914,-0.2148438
2415,-8.0625,54.8125,187.75,-0.3203125,-1.467285,0.3330078,0.07373047,0.2163086,-0.2119141
2419,-27.8125,35.875,189.3125,-0.5292969,-1.342773,0.2172852,0.09277344,0.2099609,-0.2109375
2423,-52.125,-7.8125,181.875,-0.3588867,-1.533203,0.1826172,0.109375,0.2075195,-0.206543
2427,-58.125,-22.4375,156.625,0.1054688,-1.669434,0.4287109,0.1152344,0.2036133,-0.2055664
2431,-30.375,2.75,139,0.2607422,-1.816895,0.5942383,0.128418,0.2011719,-0.2011719
2435,-11,37.8125,142.1875,0.04736328,-1.638184,0.5019531,0.1391602,0.1948242,-0.1972656
2439,-18,31.0625,142.75,-0.3242188,-1.544922,0.2675781,0.1484375,0.1914063,-0.1987305
2443,-39.8125,-9.6875,140.5,-0.03320313,-1.630371,0.2133789,0.1591797,0.1850586,-0.1958008
2447,-45.0625,-29.625,104.6875,0.4619141,-1.735352,0.3251953,0.1674805,0.1801758,-0.1904297
2451,-38.625,-30.0625,77.3125,0.6015625,-1.809082,0.3710938,0.1689453,0.1772461,-0.1889648
2455,-42.375,-42.125,55.375,0.6289063,-1.863281,0.2749023,0.1738281,0.1762695,-0.1889648
2459,-49.9375,-61.25,32.6875,0.9038086,-2.034668,0.1826172,0.1748047,0.1748047,-0.1904297
2463,-47.75,-54,8.8125,1.372559,-2.302734,0.2827148,0.1738281,0.1748047,-0.1875
2467,-19.9375,-10.25,-24.3125,1.655762,-2.613281,0.4443359,0.1723633,0.1787109,-0.1875
2471,34.4375,44.875,-66.0625,1.357422,-2.605469,0.5366211,0.1674805,0.1801758,-0.1889648
2475,70.8125,75.0625,-95.5,0.9892578,-2.321777,0.4018555,0.1665039,0.1811523,-0.1889648
2479,84.75,84.25,-119.9375,0.5161133,-2.045898,0.2827148,0.1616211,0.1835938,-0.1875
2483,80.5625,63.0625,-134.75,0.109375,-1.781738,0.1557617,0.1582031,0.1860352,-0.1904297
2487,56.5625,21.6875,-143.375,-0.06835938,-1.618652,0.105957,0.1547852,0.1875,-0.1928711
2491,33.75,-10.8125,-150.3125,0.125,-1.68457,0.2329102,0.144043,0.1923828,-0.1972656
2495,26,-16.1875,-160.4375,0.3378906,-1.809082,0.340332,0.1308594,0.2001953,-0.199707
2499,27.5,-12.4375,-178.625,0.3691406,-1.914063,0.3598633,0.1235352,0.2026367,-0.2011719
2503,33.875,-3.8125,-196.625,0.2724609,-1.976074,0.3671875,0.1069336,0.2084961,-0.2041016
2507,39.0625,4.75,-205.75,0.07470703,-1.953125,0.3520508,0.09277344,0.2138672,-0.2080078
2511,42.625,7.75,-211.125,-0.07226563,-1.894531,0.3330078,0.08203125,0.21875,-0.2094727
2515,41.75,5.8125,-213.5625,-0.246582,-1.793457,0.3251953,0.06396484,0.2211914,-0.2133789
2519,35.0625,-3.375,-213.375,-0.362793,-1.67334,0.3095703,0.04736328,0.2236328,-0.2163086
2524,26.875,-14.6875,-210.8125,-0.362793,-1.580078,0.3173828,0.03564453,0.2236328,-0.2163086
2528,19.625,-21.1875,-208.6875,-0.3432617,-1.552734,0.355957,0.01513672,0.2250977,-0.2202148
2532,17.4375,-20.1875,-205.3125,-0.3085938,-1.513672,0.3979492,-0.003417969,0.2260742,-0.2216797
2536,20.875,-17.5625,-197.0625,-0.3432617,-1.436035,0.4213867,-0.01416016,0.2236328,-0.2216797
2540,19.625,-21.1875,-187.625,-0.3901367,-1.183594,0.3520508,-0.03173828,0.2236328,-0.2231445
2544,7.375,-36,-182.1875,-0.4365234,-1.074707,0.2749023,-0.04980469,0.2211914,-0.2246094
2548,-8.8125,-56.4375,-176.9375,-0.2890625,-0.9853516,0.2709961,-0.06152344,0.21875,-0.2255859
2552,-17.3125,-60.25,-175,-0.2080078,-0.9658203,0.340332,-0.078125,0.2163086,-0.2216797
2556,-26.5,-71.3125,-160.5625,-0.2426758,-0.8535156,0.2709961,-0.09619141,0.2138672,-0.2163086
2560,-45.25,-85.6875,-149.125,-0.1728516,-0.7680664,0.1904297,-0.1069336,0.2124023,-0.2148438
2564,-60.5,-94.6875,-145.4375,0.09033203,-0.8725586,0.2290039,-0.1245117,0.2114258,-0.2080078
2568,-54.125,-76,-144.9375,0.3188477,-0.9970703,0.3789063,-0.1391602,0.2084961,-0.199707
2572,-29.6875,-37.625,-142.6875,0.3652344,-0.9814453,0.4790039,-0.1508789,0.2075195,-0.1928711
2576,0,2.375,-135.3125,0.1831055,-0.8417969,0.4980469,-0.1625977,0.2011719,-0.1904297
2580,23.5,25.9375,-123.0625,-0.1069336,-0.6083984,0.3330078,-0.1723633,0.1948242,-0.1943359
2584,22.9375,10.9375,-117.3125,-0.4208984,-0.2241211,0.09033203,-0.1748047,0.1884766,-0.1943359
2588,9.0625,-14.8125,-116.875,-0.3510742,-0.07226563,0.09423828,-0.1831055,0.1811523,-0.1958008
2592,8.375,-11.5,-104.0625,-0.1845703,-0.04541016,0.2133789,-0.1914063,0.1738281,-0.1943359
2596,26.625,16.375,-85.5625,-0.1533203,0.05517578,0.3364258,-0.1962891,0.1689453,-0.1943359
2600,40.5,42.0625,-57.4375,-0.3745117,0.1679688,0.2060547,-0.2006836,0.1635742,-0.1972656
2604,38.625,37,-28.9375,-0.6147461,0.3701172,0.05566406,-0.2006836,0.1577148,-0.2026367
2608,18.0625,11.3125,-8.8125,-0.6650391,0.5839844,-0.01660156,-0.2021484,0.1538086,-0.2041016
2612,-5.625,-18.1875,5.875,-0.5991211,0.5683594,0.02099609,-0.2006836,0.1523438,-0.206543
2616,-17.8125,-29.375,27.875,-0.4404297,0.4204102,0.125,-0.199707,0.15625,-0.2041016
2620,-19.75,-31.4375,51.375,-0.3935547,0.2807617,0.1171875,-0.2021484,0.1577148,-0.2011719
2624,-27,-39.4375,75.5625,-0.3354492,0.2226563,0.04052734,-0.199707,0.1625977,-0.1972656
2628,-37.75,-50.25,95.5,-0.1611328,0.06689453,0.005859375,-0.1948242,0.1699219,-0.1958008
2632,-45.625,-52.625,110.1875,0.08251953,-0.1269531,0.07910156,-0.1948242,0.1762695,-0.1904297
2636,-42.875,-44.75,113.875,0.2685547,-0.3173828,0.1557617,-0.1865234,0.1826172,-0.1835938
2640,-26.3125,-30.25,107.75,0.3110352,-0.4726563,0.2211914,-0.1831055,0.1923828,-0.1806641
2644,-6.5625,-14.3125,106.4375,0.2026367,-0.5307617,0.2558594,-0.1772461,0.1972656,-0.1767578
2648,5.25,-3.4375,115.8125,0.04345703,-0.5151367,0.2441406,-0.1723633,0.2050781,-0.1796875
2653,5.875,-2.6875,133.4375,-0.02978516,-0.1459961,0.144043,-0.1625977,0.2114258,-0.1796875
2657,-3.0625,-7,152.5,0.1171875,-0.5698242,0.1328125,-0.1542969,0.2163086,-0.1782227
2661,-1.625,-3.1875,144.6875,0.1210938,-0.8417969,0.2172852,-0.1425781,0.2197266,-0.1796875
2665,16.8125,10.375,141.875,0.1367188,-0.9155273,0.3481445,-0.1303711,0.2275391,-0.1796875
2669,21.875,21.3125,148.6875,-0.2001953,-0.8339844,0.2597656,-0.1210938,0.2285156,-0.1796875
2673,1.375,-4.6875,168.75,-0.5063477,-0.7871094,0.1020508,-0.1103516,0.2338867,-0.1835938
2677,-29.125,-53.6875,182,-0.3549805,-1.020508,0.04052734,-0.09472656,0.2387695,-0.1806641
2681,-35.125,-69.4375,175.8125,0.09033203,-1.288574,0.2329102,-0.08789063,0.2451172,-0.1782227
2685,-0.0625,-40.3125,166.125,0.4775391,-1.595215,0.4404297,-0.07568359,0.2485352,-0.1738281
2689,38.1875,21.875,169.3125,0.3652344,-1.509766,0.4018555,-0.05908203,0.2509766,-0.1767578
2693,42.5625,37.1875,181.3125,-0.1650391,-1.304199,0.1289063,-0.04833984,0.2524414,-0.1806641
2697,20.4375,15.5625,186.875,-0.4013672,-1.175781,0.05175781,-0.02832031,0.2509766,-0.1806641
2701,-4.75,-23.25,187.5,-0.4482422,-1.304199,-0.005371094,-0.01269531,0.25,-0.1865234
2705,-16.25,-45.9375,184.75,-0.1689453,-1.521484,0.08642578,-0.001953125,0.25,-0.1850586
2709,-15.9375,-42.6875,183.9375,0.206543,-1.591309,0.1557617,0.01171875,0.2509766,-0.1821289
2713,0.3125,-11.625,171.1875,0.3730469,-1.766602,0.2983398,0.02734375,0.25,-0.1835938
2717,28.0625,31.4375,162.9375,0.1635742,-1.766602,0.355957,0.03662109,0.2460938,-0.1821289
2721,36,47.125,166.8125,-0.2890625,-1.61084,0.2250977,0.05322266,0.2426758,-0.1865234
2725,17.3125,20.1875,173.8125,-0.5488281,-1.432129,0.06347656,0.07226563,0.2338867,-0.1889648
2729,-7.25,-19.625,165.0625,-0.5253906,-1.424316,0.07519531,0.08056641,0.2299805,-0.1875
2733,-21.5625,-51,156.1875,-0.328125,-1.560547,0.07128906,0.09277344,0.2260742,-0.1889648
2737,-28.75,-63.6875,147.4375,-0.1030273,-1.67334,0.04443359,0.1020508,0.2211914,-0.1875
2741,-31.0625,-68.1875,136.1875,0.3110352,-1.688477,0.01367188,0.1079102,0.21875,-0.1875
2745,-33.8125,-47.0625,118.875,0.6518555,-1.64209,0.04785156,0.1152344,0.2138672,-0.1850586
2749,-31.9375,-18.1875,96.75,0.625,-1.645996,0.05957031,0.1225586,0.2138672,-0.1821289
2753,-33.8125,-5.5625,74.625,0.5161133,-1.537109,-0.04394531,0.1293945,0.2114258,-0.1835938
2757,-36.75,-13.5,64.875,0.2373047,-1.90625,-0.09375,0.1318359,0.2099609,-0.1821289
2761,-23.5625,-28.25,70.4375,0.4038086,-1.855957,-0.05908203,0.1376953,0.2075195,-0.1806641
2765,-30.0625,-27.8125,57.125,0.7177734,-1.711914,-0.04394531,0.1416016,0.2060547,-0.1782227
2769,-27.6875,-31.625,28.3125,0.7915039,-1.941406,-0.06689453,0.1425781,0.2050781,-0.1767578
2773,-20.1875,-28.1875,0.125,1.02002,-2.022949,-0.04003906,0.1425781,0.2050781,-0.1767578
2777,-7.3125,-6.625,-30.0625,1.16748,-2.143066,-0.02832031,0.144043,0.2060547,-0.1767578
2782,14.75,22.25,-57,1.121094,-2.228516,-0.01318359,0.1391602,0.2075195,-0.1782227
2786,34.5625,48.5,-80.6875,1.000488,-2.120117,-0.05517578,0.1333008,0.2114258,-0.1767578
2790,44.75,65.125,-101.5,0.7602539,-2.019043,-0.06298828,0.1318359,0.2114258,-0.1782227
2794,49.25,69.3125,-116.8125,0.5629883,-1.917969,-0.1054688,0.1269531,0.2148438,-0.1782227
2798,41.3125,59.3125,-132.4375,0.4155273,-1.828613,-0.1591797,0.1176758,0.2172852,-0.1796875
2802,29.5,44.625,-153.8125,0.4116211,-1.812988,-0.1474609,0.1118164,0.2211914,-0.1821289
2806,18.3125,40.4375,-172.75,0.3925781,-1.848145,-0.07080078,0.1020508,0.2250977,-0.1835938
2810,13.25,40.1875,-185,0.2685547,-1.929688,0.009765625,0.08886719,0.2314453,-0.1821289
2814,9.75,40.4375,-192.4375,0.1674805,-1.914063,0.06738281,0.07958984,0.2324219,-0.1835938
2818,1.0625,30.0625,-199.875,-0.04101563,-1.840332,0.01708984,0.06396484,0.2387695,-0.1806641
2822,-25.4375,-4.5,-203.125,-0.1264648,-1.711914,-0.05908203,0.04736328,0.2436523,-0.1806641
2826,-56.25,-33.0625,-218.5625,0.1054688,-1.789551,-0.009277344,0.03662109,0.2485352,-0.1796875
2830,-66.625,-37.125,-240.375,0.2216797,-2.09668,0.125,0.01074219,0.2563477,-0.1728516
2834,-47.8125,-5.75,-242.5625,0.2993164,-2.225098,0.3212891,-0.01025391,0.2597656,-0.1699219
2838,-24.1875,36.125,-226.875,0.04345703,-2.221191,0.3520508,-0.02587891,0.2612305,-0.1660156
2842,-3.6875,52.125,-217.5625,-0.28125,-1.976074,0.3017578,-0.04394531,0.2597656,-0.1630859
2846,1.125,39.125,-210.8125,-0.4013672,-1.700195,0.2021484,-0.06396484,0.2587891,-0.1660156
2850,-2.125,22.6875,-215.5,-0.362793,-1.541016,0.2094727,-0.07568359,0.2548828,-0.1645508
2854,2.9375,20.5625,-215.4375,-0.3164063,-1.48291,0.2866211,-0.09375,0.2475586,-0.1645508
2858,13.5625,27.3125,-204.8125,-0.3164063,-1.342773,0.2788086,-0.112793,0.2412109,-0.1660156
2862,23.5625,33.0625,-192.9375,-0.2890625,-1.183594,0.2827148,-0.1220703,0.2363281,-0.1660156
2866,38.8125,43.5,-183.5,-0.2734375,-1.016602,0.3095703,-0.1367188,0.2275391,-0.1699219
2870,49.5,48.5625,-171.75,-0.328125,-0.8613281,0.2558594,-0.1508789,0.2172852,-0.1728516
2874,55.75,52.375,-162.8125,-0.328125,-0.7563477,0.2827148,-0.1582031,0.2084961,-0.1796875
2878,67.5,58.625,-151.125,-0.3510742,-0.5893555,0.2827148,-0.168457,0.2001953,-0.1850586
2882,71.8125,60,-134.75,-0.5102539,-0.2045898,0.2290039,-0.1733398,0.1884766,-0.1928711
2886,54.6875,36.875,-115.375,-0.7734375,0.08251953,0.07128906,-0.1791992,0.1811523,-0.1987305
2890,25.0625,-4.375,-101.125,-0.7929688,0.2148438,0.01708984,-0.184082,0.1738281,-0.2041016
2894,2.625,-30.25,-85.5625,-0.5410156,0.1914063,0.140625,-0.1914063,0.1674805,-0.2026367
2898,-3.0625,-29,-63.9375,-0.3935547,0.1333008,0.2636719,-0.1962891,0.1625977,-0.2011719
2902,6.3125,-22.375,-44.1875,-0.378418,0.1601563,0.2905273,-0.2006836,0.1611328,-0.1987305
2906,14.25,-19.9375,-26.375,-0.4169922,0.2768555,0.2250977,-0.2045898,0.1577148,-0.1987305
2911,13.9375,-24,-6.125,-0.4555664,0.3505859,0.1289063,-0.2055664,0.15625,-0.1987305
2915,9.0625,-32.6875,16.1875,-0.4169922,0.3583984,0.04785156,-0.206543,0.1547852,-0.1987305
2919,3.9375,-35.4375,34.5,-0.262207,0.3271484,0.04785156,-0.206543,0.15625,-0.1943359
2923,-0.0625,-29.875,50.9375,-0.1650391,0.2885742,0.03271484,-0.2055664,0.1577148,-0.1928711
2927,-5,-26.5625,66.8125,-0.1689453,0.2456055,0.009765625,-0.2055664,0.1611328,-0.1928711
2931,-10.5,-28.6875,79.4375,-0.2001953,0.1914063,-0.009277344,-0.2021484,0.1650391,-0.1904297
2935,-21,-34,98.625,-0.2001953,0.04736328,-0.02441406,-0.199707,0.1713867,-0.1875
2939,-28.75,-38.75,116.6875,-0.06054688,-0.1694336,0.03662109,-0.1948242,0.1762695,-0.1850586
2943,-31,-34.1875,128.5,0.1210938,-0.3676758,0.1289063,-0.1875,0.1875,-0.1806641
2947,-21.625,-18.6875,134.25,0.2026367,-0.6005859,0.2636719,-0.1831055,0.1938477,-0.1782227
2951,-2.25,3.4375,131.625,0.06689453,-1.22998,0.3789063,-0.1733398,0.2011719,-0.1767578
2955,17.5625,13.625,141.75,-0.03710938,-0.7016602,0.2519531,-0.1665039,0.2060547,-0.1796875
2959,9.6875,8.8125,163.5,-0.1650391,-0.6357422,0.09423828,-0.1557617,0.2124023,-0.1796875
2963,-11.875,-9.8125,177.125,-0.04101563,-0.7368164,0.09033203,-0.1425781,0.2197266,-0.1806641
2967,-10.75,-6.875,170.5,0.1367188,-0.9697266,0.2480469,-0.1293945,0.2285156,-0.1782227
2971,6.875,14.1875,171.0625,0.02832031,-1.059082,0.2827148,-0.1186523,0.2314453,-0.1767578
2975,9.3125,14.9375,186.3125,-0.1650391,-1.02832,0.2094727,-0.1020508,0.2363281,-0.1806641
2979,-0.5625,2.625,194.1875,-0.2504883,-1.05127,0.125,-0.08642578,0.2426758,-0.1835938
2983,-16.6875,-19.125,194.875,-0.2080078,-1.22998,0.09423828,-0.07470703,0.2436523,-0.1821289
2987,-21,-32.125,191.4375,0.008789063,-1.405273,0.1171875,-0.05810547,0.2485352,-0.1806641
2991,-13.375,-22.3125,178.8125,0.2104492,-1.529297,0.2480469,-0.04248047,0.2509766,-0.1782227
2995,11.1875,3,170.625,0.08642578,-1.61084,0.2944336,-0.03173828,0.25,-0.175293
2999,16.875,13.5,182.9375,-0.2231445,-1.471191,0.140625,-0.01611328,0.2524414,-0.1796875
3003,-1.4375,-11.3125,196.5,-0.2734375,-1.439941,-0.02441406,0.0009765625,0.2509766,-0.1821289
3007,-15.0625,-29,184.9375,-0.01025391,-1.580078,0.105957,0.01171875,0.2509766,-0.1796875
3011,-3,-16.4375,171.1875,0.1171875,-1.74707,0.2329102,0.02734375,0.25,-0.1796875
3015,17.8125,12.375,165.8125,-0.006347656,-1.681152,0.2675781,0.04150391,0.2460938,-0.1796875
3019,15.8125,13.25,173.4375,-0.328125,-1.541016,0.005859375,0.05322266,0.2426758,-0.1806641
3023,-13.625,-15.25,176.0625,-0.3242188,-1.432129,-0.04394531,0.06982422,0.2373047,-0.1821289
3027,-31.25,-45.1875,158.6875,-0.1923828,-1.603027,0.03662109,0.08203125,0.2348633,-0.1806641
3031,-29,-51.9375,149,-0.08789063,-1.820801,0.159668,0.09130859,0.2299805,-0.1796875
3035,-16.625,-46.375,146.4375,0.1132813,-1.855957,0.1674805,0.09863281,0.2285156,-0.1782227
3040,2.125,-23.25,136.3125,0.3227539,-1.863281,0.2211914,0.1118164,0.2226563,-0.1806641
3044,21.0625,3.875,128.3125,0.3417969,-1.68457,0.144043,0.1166992,0.21875,-0.1821289
3048,19.9375,13.8125,119.25,0.1518555,-1.552734,0.05957031,0.128418,0.2124023,-0.1821289
3052,9.6875,0.5625,108.3125,0.175293,-1.475098,0.02880859,0.1367188,0.2075195,-0.1835938
3056,1.25,-9.4375,90.75,0.2412109,-1.580078,0.06738281,0.1416016,0.2026367,-0.1806641
3060,-0.375,-22.75,71.1875,0.3613281,-1.645996,0.04443359,0.1484375,0.1972656,-0.1835938
3064,-5.375,-30.4375,49.625,0.5859375,-1.677246,0.04785156,0.1508789,0.1948242,-0.1865234
3068,-7.875,-26.25,30.25,0.6328125,-1.812988,0.07128906,0.1533203,0.1923828,-0.1850586
3072,-11.125,-32.9375,13.8125,0.6635742,-1.890625,-0.02441406,0.1523438,0.1923828,-0.1850586
3076,-16.6875,-38.875,-9.1875,0.9155273,-2.015137,-0.05126953,0.1523438,0.1914063,-0.1865234
3080,-6.8125,-22,-42.4375,1.225586,-2.135742,0.005859375,0.1508789,0.1948242,-0.1875
3084,13.9375,14.375,-76.5625,1.248535,-2.20166,0.05175781,0.1459961,0.1972656,-0.1875
3088,33.25,46.4375,-103.4375,0.9775391,-2.135742,0.001953125,0.1391602,0.2001953,-0.1889648
3092,39.3125,57.875,-123.0625,0.675293,-2.057617,-0.04736328,0.1376953,0.2036133,-0.1889648
3096,36.25,54.625,-135.375,0.4931641,-1.97998,-0.07080078,0.1308594,0.2060547,-0.1889648
3100,24.4375,45.75,-151.25,0.3886719,-1.960449,-0.04736328,0.1225586,0.2124023,-0.1904297
3104,15.5,33.375,-173.5625,0.3457031,-1.995605,0.03271484,0.1142578,0.2148438,-0.1904297
3108,14,28.5,-194.125,0.2875977,-2.069336,0.1171875,0.1020508,0.2226563,-0.1904297
3112,15.625,30.3125,-210.5,0.2026367,-2.09668,0.1479492,0.08691406,0.2260742,-0.1918945
3116,19.9375,35.5625,-222.0625,0.08251953,-2.143066,0.1713867,0.07373047,0.2285156,-0.1904297
3120,27.375,44.3125,-226.0625,-0.02587891,-2.069336,0.2060547,0.05712891,0.2348633,-0.1918945
3124,31.125,51.125,-226.1875,-0.2080078,-2.01123,0.2094727,0.04052734,0.2387695,-0.1928711
3128,35.25,46.4375,-223.9375,-0.3823242,-1.933594,0.2021484,0.02978516,0.2412109,-0.1943359
3132,35.6875,37.9375,-222.8125,-0.362793,-1.750977,0.2250977,0.01171875,0.2412109,-0.1958008
3136,32.9375,34.5625,-222.0625,-0.4091797,-1.665527,0.2480469,-0.006835938,0.2387695,-0.1987305
3140,31.5625,26.6875,-215.8125,-0.4829102,-1.533203,0.2519531,-0.02099609,0.2387695,-0.2026367
3144,25.625,14.1875,-208.625,-0.5449219,-1.37793,0.2211914,-0.03515625,0.2363281,-0.2055664
3148,12.25,-7.25,-203,-0.4365234,-1.237793,0.1635742,-0.05322266,0.2324219,-0.2080078
3152,2.6875,-13.375,-201.3125,-0.2080078,-1.237793,0.2709961,-0.06738281,0.2314453,-0.2080078
3156,7.9375,-1.3125,-195.25,-0.1459961,-1.245605,0.3442383,-0.08300781,0.2260742,-0.2055664
3160,16.5,9.125,-183.625,-0.2231445,-1.164063,0.3017578,-0.09960938,0.2226563,-0.206543
3164,17.8125,10.9375,-172.5,-0.2192383,-1.008789,0.2290039,-0.1069336,0.2163086,-0.2080078
3169,14,10.125,-164.125,-0.1572266,-0.8842773,0.2250977,-0.1201172,0.2114258,-0.2094727
3173,10.6875,10.8125,-157.875,-0.1147461,-0.7602539,0.2636719,-0.1328125,0.2036133,-0.2119141
3177,12.25,13.9375,-152.4375,-0.1381836,-0.6748047,0.2983398,-0.1391602,0.1987305,-0.2119141
3181,14.25,14.125,-141.0625,-0.1923828,-0.5927734,0.2636719,-0.1484375,0.1914063,-0.2109375
3185,15,12.6875,-130.5,-0.1767578,-0.581543,0.2675781,-0.1591797,0.1826172,-0.2119141
3189,20.5,18.125,-118.25,-0.09912109,-0.4921875,0.2866211,-0.1625977,0.1787109,-0.2133789
3193,27.1875,26.875,-109.125,-0.1420898,-0.2978516,0.2441406,-0.168457,0.1713867,-0.2177734
3197,29.125,23.4375,-102.125,-0.2700195,-0.05664063,0.1713867,-0.1757813,0.1625977,-0.2216797
3201,24.9375,14.5,-87.625,-0.3862305,0.01269531,0.1098633,-0.1806641,0.1586914,-0.2216797
3205,24.9375,13.3125,-64.8125,-0.3706055,0.09814453,0.1367188,-0.1855469,0.1513672,-0.2246094
3209,26.5625,19,-39.625,-0.4013672,0.2226563,0.1328125,-0.1855469,0.1450195,-0.2246094
3213,29,21.5,-13.5625,-0.4365234,0.06689453,0.1479492,-0.1865234,0.1435547,-0.2270508
3217,26.875,19.6875,2.5625,-0.4711914,0.5410156,0.07128906,-0.1865234,0.1411133,-0.230957
3221,13.75,7.375,21.1875,-0.4555664,0.5488281,-0.04003906,-0.1816406,0.1425781,-0.2324219
3225,-2.375,-5.1875,33.75,-0.3510742,0.5761719,-0.02050781,-0.1806641,0.1435547,-0.2353516
3229,-17.3125,-13.1875,49.5,-0.3085938,0.4829102,-0.005371094,-0.1806641,0.1435547,-0.2338867
3233,-30.5,-21.125,69.4375,-0.2851563,0.3427734,0.02880859,-0.1791992,0.1513672,-0.2299805
3237,-38.8125,-29.4375,85.875,-0.230957,0.1875,0.07128906,-0.1757813,0.1547852,-0.2270508
3241,-46.1875,-37.0625,101.1875,-0.1533203,0.008789063,0.07910156,-0.1723633,0.1611328,-0.2246094
3245,-52.4375,-39.1875,112.5625,-0.006347656,-0.1733398,0.1557617,-0.168457,0.1723633,-0.2202148
3249,-46.1875,-34.1875,113.75,0.07470703,-0.4067383,0.2597656,-0.1650391,0.1748047,-0.2148438
3253,-32.125,-25,118.1875,0.09765625,-0.5541992,0.2944336,-0.1591797,0.1835938,-0.2119141
3257,-21.3125,-16.0625,127.3125,0.08251953,-0.5893555,0.3017578,-0.1518555,0.1923828,-0.2094727
3261,-13.8125,-10.0625,135.625,0.03173828,-0.6435547,0.2827148,-0.1484375,0.1987305,-0.206543
3265,-7.0625,-2.625,142.9375,0.03564453,-0.7094727,0.2866211,-0.1367188,0.2026367,-0.206543
3269,-1.5,4.5625,148.8125,0.01269531,-0.7988281,0.2172852,-0.1235352,0.2099609,-0.206543
3273,-4.5,7.25,155.0625,-0.02978516,-0.8144531,0.2094727,-0.1162109,0.2124023,-0.2080078
3277,-3.6875,10.75,160.6875,-0.05664063,-0.8881836,0.2749023,-0.1044922,0.2197266,-0.2080078
3281,-1.0625,12.8125,169.8125,-0.1689453,-0.9814453,0.2827148,-0.09130859,0.2236328,-0.2080078
3285,-5.5,6.3125,179.625,-0.1611328,-0.9931641,0.2290039,-0.078125,0.2250977,-0.2080078
3289,-18.1875,-0.375,180.8125,-0.1069336,-1.066895,0.1943359,-0.06494141,0.2314453,-0.2080078
3293,-23.375,-2.125,180.125,-0.08789063,-1.265137,0.2519531,-0.04980469,0.2363281,-0.2080078
3298,-20.6875,1.625,180.25,-0.1069336,-1.327148,0.3364258,-0.0390625,0.2363281,-0.2041016
3302,-17.375,2.875,184.875,-0.1728516,-1.354492,0.2944336,-0.0234375,0.2387695,-0.2041016
3306,-20.9375,-1.4375,186.4375,-0.1572266,-1.381836,0.2709961,-0.005859375,0.2397461,-0.2026367
3310,-24.4375,-7.0625,182.5,-0.07226563,-1.432129,0.2211914,0.003417969,0.2387695,-0.2011719
3314,-19.75,-0.6875,175.875,0.07080078,-1.556641,0.3251953,0.01904297,0.2387695,-0.199707
3318,4.8125,27.875,176.125,0.1948242,-1.630371,0.4287109,0.03417969,0.2373047,-0.1987305
3322,21.625,62,174.375,-0.02587891,-1.513672,0.3017578,0.04638672,0.2338867,-0.1987305
3326,12.75,67.375,174.9375,-0.3706055,-1.366211,0.07128906,0.06396484,0.2285156,-0.199707
3330,-22.4375,34.875,181.1875,-0.4868164,-1.296387,-0.04003906,0.08300781,0.2236328,-0.1987305
3334,-57.5,0.5625,168.9375,-0.2890625,-1.362305,0.07910156,0.09375,0.2211914,-0.1943359
3338,-66.5625,-9.375,154.375,-0.1342773,-1.661621,0.2597656,0.1069336,0.21875,-0.1928711
3342,-58.5625,-2.9375,155.25,-0.09521484,-1.890625,0.3173828,0.1186523,0.2163086,-0.1875
3346,-45.625,8.3125,152.9375,0.01660156,-1.867188,0.3598633,0.1269531,0.2138672,-0.1821289
3350,-34.0625,11.6875,135.875,-0.02587891,-1.824707,0.2866211,0.1416016,0.2084961,-0.1806641
3354,-29.8125,7.3125,118.5,-0.1147461,-1.708008,0.2749023,0.1508789,0.2026367,-0.1782227
3358,-34,-13.5625,114.5,-0.3164063,-1.692383,0.1943359,0.1567383,0.1987305,-0.175293
3362,-40.875,-39.25,109.8125,-0.06054688,-1.665527,0.2519531,0.1630859,0.1948242,-0.1738281
3366,-32.75,-44.875,96.1875,0.1484375,-1.809082,0.2827148,0.1699219,0.1923828,-0.1738281
3370,-24.6875,-49.4375,83.875,0.2915039,-1.80127,0.1674805,0.1713867,0.1884766,-0.1728516
3374,-28.75,-61.125,59.8125,0.3886719,-1.723633,0.05566406,0.1757813,0.1850586,-0.1738281
3378,-43.3125,-84.3125,34.625,0.4619141,-1.805176,-0.109375,0.1757813,0.1826172,-0.1767578
3382,-54.8125,-102.5,15.5625,0.7680664,-2.034668,-0.1513672,0.1748047,0.1826172,-0.1767578
3386,-51.375,-99.25,-9.25,1.233398,-2.225098,-0.1474609,0.1713867,0.1850586,-0.1796875
3390,-37.1875,-63.1875,-45.625,1.578125,-2.32959,-0.1015625,0.1650391,0.1875,-0.1806641
3394,-15.375,-24.875,-97.875,1.256348,-2.46582,-0.1977539,0.1616211,0.1914063,-0.1796875
3398,-2.3125,-5.625,-131,0.9775391,-2.376465,-0.2592773,0.1508789,0.1987305,-0.1782227
3402,-2.125,10.3125,-152.0625,0.7412109,-2.236328,-0.2744141,0.1401367,0.2060547,-0.1782227
3406,-7.1875,19.0625,-166.8125,0.5161133,-2.13916,-0.2514648,0.1333008,0.2124023,-0.1796875
3410,-16,25.9375,-183.375,0.3496094,-2.057617,-0.1630859,0.1210938,0.2197266,-0.175293
3414,-22.75,25.125,-197.375,0.1987305,-2.061523,-0.1513672,0.105957,0.2285156,-0.1738281
3418,-31.75,28.8125,-212.3125,0.1484375,-2.088867,-0.04736328,0.09521484,0.2338867,-0.1738281
3422,-30.5,31.8125,-224.1875,-0.01806641,-2.244141,0.04443359,0.07861328,0.2436523,-0.168457
3427,-23.25,41.625,-230.0625,-0.08398438,-2.182129,0.1748047,0.06054688,0.25,-0.1660156
3431,-16.6875,47.25,-232.6875,-0.2851563,-2.13916,0.1904297,0.04638672,0.2524414,-0.1660156
3435,-12.5,47.0625,-231.9375,-0.362793,-2.06543,0.2172852,0.02587891,0.2587891,-0.1630859
3439,-7.125,48.3125,-234.6875,-0.3432617,-2.026855,0.2636719,0.006835938,0.262207,-0.1630859
3443,3.125,52.4375,-237.3125,-0.4248047,-1.97998,0.2788086,-0.009277344,0.2612305,-0.1616211
3447,9.75,49.125,-230.875,-0.4326172,-1.848145,0.2866211,-0.02832031,0.262207,-0.1616211
3451,18.9375,49.6875,-232.4375,-0.347168,-1.762695,0.3291016,-0.04736328,0.2597656,-0.1630859
3455,35.4375,54.6875,-229.125,-0.3666992,-1.708008,0.3481445,-0.05908203,0.2587891,-0.1645508
3459,51.625,62.875,-224.5625,-0.3393555,-1.521484,0.3330078,-0.08056641,0.25,-0.168457
3463,62.5625,68.3125,-215.8125,-0.4443359,-1.37793,0.2636719,-0.09619141,0.2436523,-0.1738281
3467,67.75,63.5,-202.4375,-0.5102539,-1.140625,0.1865234,-0.1069336,0.2373047,-0.1796875
3471,61.8125,53.1875,-190.5625,-0.4790039,-0.8803711,0.1943359,-0.1201172,0.2250977,-0.1875
3475,57.9375,42.0625,-184.625,-0.4443359,-0.7832031,0.1826172,-0.1318359,0.2148438,-0.1928711
3479,59.6875,41,-176.25,-0.3432617,-0.7211914,0.2329102,-0.1411133,0.2084961,-0.1972656
3483,71.875,53.5625,-164.4375,-0.3549805,-0.6630859,0.2675781,-0.1518555,0.1972656,-0.2041016
3487,81.375,61.6875,-135.375,-0.4594727,-0.4257813,0.1982422,-0.1591797,0.1850586,-0.2109375
3491,77.3125,52.25,-117.0625,-0.5253906,-0.1381836,0.1020508,-0.1625977,0.1772461,-0.2163086
3495,60.75,18.125,-118,-0.5722656,0.06298828,0.001953125,-0.1674805,0.1660156,-0.2246094
3499,47.9375,-2.25,-118.6875,-0.4248047,0.09033203,0.06347656,-0.1748047,0.1577148,-0.2285156
3503,44.125,0.25,-96.375,-0.3974609,0.1679688,0.08642578,-0.1791992,0.1523438,-0.2255859
3507,40.3125,2.6875,-67.125,-0.4130859,0.300293,0.07910156,-0.1855469,0.1425781,-0.2299805
3511,33.1875,-0.125,-45.375,-0.3862305,0.4165039,0.005859375,-0.1865234,0.1376953,-0.2324219
3515,21.1875,-7.4375,-27.375,-0.3393555,0.5058594,-0.03222656,-0.1899414,0.1337891,-0.2324219
3519,9.0625,-13.5,-11.375,-0.3242188,0.5410156,-0.04003906,-0.1899414,0.1289063,-0.2353516
3523,-4.5,-19.125,8.375,-0.3320313,0.5566406,-0.05517578,-0.1938477,0.1313477,-0.2353516
3527,-20.3125,-27.875,29.3125,-0.3706055,0.5449219,-0.07470703,-0.1938477,0.1323242,-0.2324219
3531,-38.5625,-40.6875,53.375,-0.3007813,0.4594727,-0.07470703,-0.1938477,0.1362305,-0.2285156
3535,-54.8125,-50.8125,72.5625,-0.1884766,0.2924805,-0.02832031,-0.1923828,0.1425781,-0.2231445
3539,-60.75,-58.6875,83.375,-0.06054688,0.08642578,0.02880859,-0.1923828,0.1489258,-0.21875
3543,-63.375,-57.4375,95.5,0.07080078,-0.1230469,0.1020508,-0.1889648,0.1586914,-0.2119141
3547,-59,-48.0625,110.375,0.2026367,-0.3325195,0.1787109,-0.1875,0.1689453,-0.2041016
3551,-42.75,-28.25,118,0.3110352,-0.5151367,0.3017578,-0.184082,0.1748047,-0.2026367
3556,-22.6875,-9.0625,124.375,0.2568359,-0.5698242,0.3134766,-0.1782227,0.1826172,-0.199707
3560,-7.875,-0.3125,127.6875,0.1328125,-0.6396484,0.3017578,-0.1674805,0.1899414,-0.1972656
3564,-4,-2.3125,137.4375,0.06689453,-0.5541992,0.2329102,-0.1616211,0.1948242,-0.1958008
3568,-8.75,-7.25,143.4375,0.09765625,-0.5463867,0.1713867,-0.1518555,0.2026367,-0.1958008
3572,-10,-7.5625,144,0.2333984,-0.6669922,0.1943359,-0.1411133,0.2099609,-0.1972656
3576,-1,11.0625,141.8125,0.2724609,-0.8261719,0.2905273,-0.1342773,0.2124023,-0.1958008
3580,12,28.8125,144.125,0.02441406,-0.8842773,0.2788086,-0.1210938,0.2172852,-0.1972656
3584,14.25,30.875,152.75,-0.2041016,-0.7753906,0.2402344,-0.109375,0.2226563,-0.1987305
3588,1.1875,24,171.25,-0.4326172,-0.7871094,0.1865234,-0.09960938,0.2275391,-0.199707
3592,-19.4375,-7.875,186.125,-0.4594727,-0.8647461,0.07910156,-0.08544922,0.2314453,-0.199707
3596,-32.875,-25.9375,186.125,-0.03710938,-1.109863,0.2060547,-0.06738281,0.2348633,-0.1987305
3600,-24.1875,-8.0625,176.1875,0.1484375,-1.374023,0.3481445,-0.05810547,0.2397461,-0.1987305
3604,-2.4375,15.3125,175.125,-0.07226563,-1.443848,0.3828125,-0.04394531,0.2426758,-0.1958008
3608,6.6875,24.0625,184.375,-0.2661133,-1.319336,0.3710938,-0.02832031,0.2436523,-0.1958008
3612,0.6875,19.25,196.1875,-0.6264648,-1.308105,0.1865234,-0.01416016,0.2436523,-0.1987305
3616,-24.375,-24.1875,205.875,-0.4443359,-1.312012,0.05566406,0.004394531,0.2426758,-0.1987305
3620,-36.25,-37.375,189.125,0.0009765625,-1.541016,0.2250977,0.02148438,0.2451172,-0.1972656
3624,-15.625,-15.875,172.75,0.1557617,-1.797363,0.4018555,0.03076172,0.2436523,-0.1918945
3628,15.125,26.1875,174.6875,0.01269531,-1.762695,0.4868164,0.04638672,0.2397461,-0.1918945
3632,32,48.9375,184.1875,-0.28125,-1.580078,0.3481445,0.06396484,0.2338867,-0.1943359
3636,13.75,25.125,190.0625,-0.5683594,-1.393555,0.02099609,0.07373047,0.2299805,-0.1958008
3640,-19.875,-27.875,169.375,-0.3046875,-1.439941,0.02490234,0.09033203,0.2226563,-0.1958008
3644,-27.625,-40.6875,140.4375,0.06689453,-1.708008,0.2329102,0.1010742,0.2197266,-0.1928711
3648,-9.4375,-13.875,133.8125,0.1870117,-1.848145,0.4174805,0.1079102,0.2163086,-0.1928711
3652,4.75,13.5625,134.25,-0.09912109,-1.770508,0.3291016,0.1186523,0.2114258,-0.1928711
3656,-4.375,-8,139.25,-0.2583008,-1.731445,0.1098633,0.128418,0.2036133,-0.1943359
3660,-19.3125,-36.125,119.9375,0.1210938,-1.727539,0.1787109,0.1357422,0.2011719,-0.1928711
3664,-16.625,-41.3125,92.875,0.3959961,-1.828613,0.2788086,0.1425781,0.1962891,-0.1928711
3668,-3.8125,-25.875,80.4375,0.4697266,-1.820801,0.2983398,0.1484375,0.1923828,-0.1928711
3672,0.4375,-19,72.1875,0.4272461,-1.67334,0.1674805,0.1508789,0.1899414,-0.1958008
3676,-15.4375,-31.125,62,0.3769531,-1.665527,-0.02050781,0.1547852,0.1860352,-0.1943359
3680,-33.125,-49.625,40.625,0.5976563,-1.711914,0.02099609,0.1567383,0.1850586,-0.1928711
3685,-33.625,-47.3125,15.0625,0.7875977,-1.878906,0.144043,0.1567383,0.1835938,-0.1943359
3689,-16.8125,-29.6875,-5.75,0.8339844,-1.960449,0.2021484,0.1547852,0.1860352,-0.1958008
3693,2.5,-6.1875,-25.875,0.8881836,-1.925781,0.1982422,0.1533203,0.1875,-0.1943359
3697,19.875,20,-47.9375,0.8071289,-1.859863,0.1787109,0.1508789,0.1884766,-0.1943359
3701,31.3125,36.75,-70.375,0.5859375,-1.754883,0.1787109,0.1474609,0.1899414,-0.1958008
3705,42,52.4375,-84.0625,0.4194336,-1.739258,0.2211914,0.144043,0.1899414,-0.199707
3709,48.8125,60.4375,-88.3125,0.2333984,-1.681152,0.2133789,0.1425781,0.1938477,-0.1972656
3713,46.5625,49.5,-100.25,0.1015625,-1.622559,0.159668,0.1391602,0.1948242,-0.2011719
3717,35.3125,21.9375,-119.8125,0.1518555,-1.572266,0.1367188,0.1318359,0.1987305,-0.199707
3721,23.875,1.5,-145.6875,0.3691406,-1.649902,0.1865234,0.1269531,0.2011719,-0.2011719
3725,20.125,-2.5625,-172.4375,0.4658203,-1.797363,0.2675781,0.1142578,0.2050781,-0.2041016
3729,23.625,2.875,-184.9375,0.3808594,-1.902344,0.2709961,0.1020508,0.2124023,-0.2041016
3733,21.5,9.125,-188.5,0.2490234,-1.871094,0.2368164,0.09130859,0.2148438,-0.2055664
3737,14.8125,5.3125,-189.8125,0.1445313,-1.852051,0.1904297,0.07617188,0.21875,-0.2094727
3741,5.0625,2.6875,-195.6875,0.1210938,-1.855957,0.2021484,0.06298828,0.2236328,-0.206543
3745,1.6875,-1.5,-206.6875,0.1015625,-1.902344,0.2866211,0.05322266,0.2275391,-0.2080078
3749,5.0625,5.5,-214.9375,0.03173828,-1.941406,0.3789063,0.03320313,0.2314453,-0.2080078
3753,10.5625,10.375,-215.625,-0.09521484,-1.875,0.3520508,0.01416016,0.2348633,-0.2094727
3757,13.5,10.75,-214.875,-0.2080078,-1.781738,0.355957,0.003417969,0.2324219,-0.2094727
3761,10.9375,3.6875,-211.25,-0.28125,-1.657715,0.3330078,-0.01513672,0.2348633,-0.2109375
3765,9.375,-4.1875,-208.9375,-0.2583008,-1.568359,0.3598633,-0.03417969,0.2338867,-0.2133789
3769,8.3125,-7.3125,-205.375,-0.2504883,-1.447754,0.3481445,-0.04492188,0.2299805,-0.2133789
3773,5,-14.4375,-202.75,-0.1689453,-1.366211,0.3291016,-0.06152344,0.2285156,-0.2080078
3777,1.6875,-18.25,-201.875,-0.1108398,-1.34668,0.3173828,-0.08203125,0.2236328,-0.2133789
3781,6.8125,-7.0625,-198.6875,-0.04492188,-1.331055,0.4213867,-0.09130859,0.2197266,-0.2094727
3785,22.625,12.375,-186.0625,-0.08007813,-1.249512,0.4365234,-0.1103516,0.2138672,-0.2094727
3789,34.0625,28,-167.75,-0.1611328,-1.066895,0.3364258,-0.1220703,0.2050781,-0.2119141
3793,37.875,29.4375,-159.6875,-0.09521484,-0.8959961,0.3251953,-0.128418,0.2001953,-0.2163086
3797,46.8125,31.625,-163.75,-0.04882813,-0.7949219,0.3291016,-0.1376953,0.1923828,-0.2177734
3801,48.3125,34.3125,-156.8125,-0.1459961,-0.6005859,0.3056641,-0.1484375,0.1801758,-0.2246094
3805,53.75,23.8125,-155.3125,-0.1884766,-0.5112305,0.2788086,-0.1542969,0.1748047,-0.2285156
3809,57.9375,29.75,-143.75,-0.2041016,-0.4414063,0.3134766,-0.1616211,0.1635742,-0.2338867
3814,69.5625,44.125,-123,-0.328125,-0.3481445,0.2675781,-0.1674805,0.1523438,-0.237793
3818,73.4375,43.625,-101.25,-0.4365234,-0.07226563,0.1674805,-0.168457,0.1459961,-0.2407227
3822,67.8125,35.5625,-86.625,-0.4555664,0.1333008,0.105957,-0.1733398,0.1347656,-0.2490234
3826,58.25,24.9375,-75.6875,-0.4829102,0.269043,0.02490234,-0.1757813,0.1235352,-0.2529297
3830,49.3125,13.75,-63.6875,-0.4946289,0.3662109,0.08642578,-0.1748047,0.1186523,-0.2543945
3834,40.375,5.9375,-42.5,-0.4868164,0.4321289,-0.001464844,-0.1791992,0.1123047,-0.2583008
3838,29.75,3.6875,-18.25,-0.4594727,0.5253906,-0.01660156,-0.1791992,0.1074219,-0.2597656
3842,16.4375,-1.75,6.875,-0.4711914,0.5722656,-0.05126953,-0.1791992,0.1049805,-0.2597656
3846,-1.0625,-11.1875,28.5625,-0.4208984,0.5913086,-0.07470703,-0.1782227,0.1074219,-0.2597656
3850,-18.25,-21.6875,47.125,-0.362793,0.5410156,-0.0859375,-0.1782227,0.1088867,-0.2597656
3854,-36.625,-31.9375,65.375,-0.3046875,0.4399414,-0.06298828,-0.1772461,0.1113281,-0.2583008
3858,-51.6875,-40.8125,81.0625,-0.2270508,0.2573242,-0.02050781,-0.1772461,0.1176758,-0.2558594
3862,-63.125,-48.875,98,-0.1303711,0.08642578,0.02880859,-0.1757813,0.1289063,-0.25
3866,-73.5,-53.5625,110.3125,-0.04492188,-0.07617188,0.105957,-0.1757813,0.1347656,-0.2475586
3870,-71.875,-53.9375,118.75,0.03955078,-0.3286133,0.2133789,-0.1723633,0.1474609,-0.237793
3874,-60.125,-44.0625,125.125,0.109375,-0.484375,0.3017578,-0.1674805,0.1577148,-0.230957
3878,-46.375,-36.3125,134,0.05517578,-0.6005859,0.2905273,-0.1650391,0.1650391,-0.2285156
3882,-38.0625,-30.375,144,0.02050781,-1.02832,0.2983398,-0.1582031,0.1762695,-0.2255859
3886,-26.9375,-21.1875,145.9375,0.1015625,-0.6787109,0.2983398,-0.1494141,0.1835938,-0.2202148
3890,-22.1875,-11.875,155,0.1054688,-0.6899414,0.2558594,-0.1435547,0.1884766,-0.2202148
3894,-18.25,-5.125,160.3125,0.175293,-0.7949219,0.2788086,-0.1342773,0.1962891,-0.2133789
3898,-8.3125,10.6875,162.0625,0.2451172,-0.8535156,0.2597656,-0.1210938,0.2036133,-0.2177734
3902,-2.9375,30,164.875,0.1713867,-0.8686523,0.2675781,-0.1137695,0.2075195,-0.2163086
3906,-2.625,44.1875,173.375,-0.01025391,-0.9038086,0.2211914,-0.09716797,0.2124023,-0.2177734
3910,-14.1875,43.1875,185.8125,-0.2001953,-0.8842773,0.1904297,-0.08203125,0.2172852,-0.21875
3914,-30.75,22.25,189.0625,-0.328125,-1.008789,0.140625,-0.06982422,0.2211914,-0.21875
3918,-41.375,4.9375,182.9375,-0.1342773,-1.199219,0.2558594,-0.05322266,0.2275391,-0.2177734
3922,-35.5,10.5,180.9375,-0.01025391,-1.428223,0.3364258,-0.0390625,0.2299805,-0.2133789
3926,-20.4375,32.1875,181,0.05126953,-1.501953,0.425293,-0.02490234,0.2324219,-0.2148438
3930,-9.25,50.1875,180.9375,-0.1728516,-1.412598,0.3828125,-0.009277344,0.2324219,-0.2109375
3934,-10.875,53.75,184.125,-0.4130859,-1.381836,0.3291016,0.01074219,0.2338867,-0.2133789
3938,-21.625,31.9375,189.6875,-0.6923828,-1.463379,0.2368164,0.02246094,0.2338867,-0.2119141
3943,-34,-7,190.9375,-0.4750977,-1.533203,0.2709961,0.04150391,0.2314453,-0.2094727
3947,-38.5625,-18.5625,182.875,-0.1962891,-1.731445,0.375,0.05566406,0.2285156,-0.206543
3951,-25.625,-4,169.0625,0.05126953,-1.677246,0.4790039,0.06542969,0.2275391,-0.2026367
3955,-10,23.5,167.25,-0.05273438,-1.665527,0.4907227,0.07861328,0.2236328,-0.199707
3959,-5.875,34.8125,167.8125,-0.3901367,-1.560547,0.3671875,0.09375,0.21875,-0.199707
3963,-20.0625,11,174.9375,-0.6108398,-1.490723,0.2250977,0.1035156,0.2148438,-0.199707
3967,-41.125,-25.3125,175.375,-0.4907227,-1.580078,0.2133789,0.1176758,0.2084961,-0.1987305
3971,-55.0625,-52,161.0625,-0.1572266,-1.657715,0.2675781,0.1293945,0.2036133,-0.1943359
3975,-49.1875,-54.125,140.8125,0.125,-1.828613,0.390625,0.1357422,0.2011719,-0.1943359
3979,-31.4375,-35.4375,129.9375,0.1484375,-1.855957,0.4482422,0.144043,0.1972656,-0.1918945
3983,-20.375,-32,126.25,-0.02197266,-1.812988,0.2519531,0.1523438,0.1899414,-0.1918945
3987,-23,-42.5625,116.125,0.09375,-1.677246,0.159668,0.1557617,0.1875,-0.1904297
3991,-28.6875,-51.625,104.875,0.1635742,-1.645996,0.05566406,0.1640625,0.1811523,-0.1943359
3995,-34.4375,-57.4375,90.6875,0.3613281,-1.645996,0.03271484,0.1665039,0.1801758,-0.1904297
3999,-32.8125,-58.5,74.875,0.7021484,-1.743164,0.005859375,0.1689453,0.1772461,-0.1928711
4003,-24.4375,-38.6875,50.0625,0.9423828,-1.797363,0.04443359,0.1713867,0.1748047,-0.1928711
4007,-13.1875,-13.6875,26.75,0.9775391,-1.878906,0.02099609,0.1723633,0.1738281,-0.1928711
4011,-0.9375,10.6875,-2.375,0.8920898,-1.852051,0.05566406,0.1738281,0.1723633,-0.1928711
4015,8.5625,25.3125,-30.6875,0.659668,-1.824707,0.05566406,0.1723633,0.1738281,-0.1928711
4019,14.625,32.9375,-51.625,0.5087891,-1.812988,0.09423828,0.1723633,0.1748047,-0.1918945
4023,17.875,35.4375,-66.4375,0.3496094,-1.805176,0.09423828,0.1713867,0.1772461,-0.1904297
4027,15.4375,30,-79.1875,0.3535156,-1.816895,0.08642578,0.1665039,0.1787109,-0.1889648
4031,16.6875,27.5,-95.375,0.4931641,-1.925781,0.1367188,0.1630859,0.1826172,-0.1918945
4035,23,30.125,-123.8125,0.6210938,-1.976074,0.1713867,0.1591797,0.1875,-0.1904297
4039,29.75,39.625,-149.375,0.5473633,-2.045898,0.1904297,0.1508789,0.1923828,-0.1889648
4043,29.375,39.375,-165.3125,0.3227539,-2.06543,0.1328125,0.1401367,0.1987305,-0.1918945
4047,25.6875,31.8125,-183.375,0.2373047,-2.154785,0.1748047,0.1342773,0.2036133,-0.1904297
4051,29.5,33,-197.5625,0.1635742,-2.213379,0.2441406,0.1201172,0.2124023,-0.1928711
4055,31.875,34.875,-209.3125,-0.002441406,-2.146973,0.2250977,0.105957,0.21875,-0.1943359
4059,30.6875,28.75,-219.1875,-0.1303711,-2.108398,0.2368164,0.09619141,0.2226563,-0.1958008
4063,26.4375,18.4375,-225.75,-0.2270508,-2.01123,0.1982422,0.08056641,0.2275391,-0.1987305
4067,17.6875,10.8125,-235.3125,-0.2348633,-1.972168,0.2368164,0.06054688,0.2324219,-0.1987305
4072,19.8125,13.5,-243.4375,-0.2929688,-1.991699,0.3056641,0.04882813,0.2348633,-0.1987305
4076,25.6875,17,-238.0625,-0.5063477,-1.882813,0.2827148,0.02490234,0.2373047,-0.2026367
4080,20.75,6.0625,-225.5,-0.6264648,-1.645996,0.1904297,0.005859375,0.2397461,-0.2041016
4084,5.9375,-13,-222.1875,-0.5605469,-1.486816,0.1713867,-0.005859375,0.2397461,-0.2026367
4088,-9.4375,-28.0625,-218.375,-0.4594727,-1.439941,0.1518555,-0.02587891,0.2373047,-0.2026367
4092,-18.9375,-31.1875,-214.75,-0.296875,-1.354492,0.1904297,-0.04589844,0.2387695,-0.2011719
4096,-21.625,-25.625,-213.4375,-0.2001953,-1.350586,0.2329102,-0.05908203,0.2348633,-0.199707
4100,-13.5,-7.5625,-209.625,-0.1728516,-1.374023,0.2905273,-0.07958984,0.2338867,-0.1987305
4104,2.6875,12.8125,-201.1875,-0.2041016,-1.331055,0.3330078,-0.09716797,0.2285156,-0.1958008
4108,18.4375,29.25,-189.4375,-0.2851563,-1.109863,0.3095703,-0.1079102,0.2250977,-0.1958008
4112,23.375,30.5625,-179.4375,-0.4287109,-0.7719727,0.2250977,-0.1220703,0.2163086,-0.199707
4116,20.125,20.625,-173.9375,-0.4985352,-0.5893555,0.1982422,-0.1342773,0.2075195,-0.2026367
4120,18.1875,14.0625,-163.8125,-0.4248047,-0.5385742,0.2402344,-0.1411133,0.2036133,-0.2011719
4124,29,27.5625,-150.4375,-0.3320313,-0.4726563,0.3291016,-0.1542969,0.1948242,-0.2055664
4128,47.6875,49.75,-132.375,-0.4169922,-0.324707,0.3134766,-0.1601563,0.1860352,-0.2094727
4132,61.1875,58.5,-108.5,-0.5913086,-0.09570313,0.2094727,-0.1665039,0.1801758,-0.2148438
4136,60.125,49,-87.8125,-0.7231445,0.3193359,0.06738281,-0.1699219,0.1689453,-0.2202148
4140,46,19.75,-77.0625,-0.730957,0.9414063,-0.1245117,-0.1708984,0.1635742,-0.2255859
4144,19.0625,-2.625,-57.9375,-0.699707,0.5952148,-0.02441406,-0.1733398,0.1577148,-0.2246094
4148,2.375,-11.0625,-33.875,-0.5605469,0.5683594,0.04443359,-0.1772461,0.1538086,-0.2255859
4152,-5.4375,-12.625,-7.625,-0.5566406,0.5019531,0.09423828,-0.1816406,0.1523438,-0.2270508
4156,-8.8125,-21.25,15.0625,-0.5063477,0.5019531,0.105957,-0.1782227,0.1547852,-0.2255859
4160,-13.375,-28.3125,30.3125,-0.4130859,0.4594727,0.1210938,-0.1791992,0.15625,-0.2202148
4164,-15.6875,-33.625,47.125,-0.378418,0.3310547,0.09033203,-0.1806641,0.1577148,-0.2216797
4168,-23.0625,-38.125,67.125,-0.3085938,0.2612305,0.05957031,-0.1806641,0.1611328,-0.21875
4172,-35.125,-43.75,87.8125,-0.2661133,0.1293945,0.05175781,-0.1757813,0.1660156,-0.2163086
4176,-48.8125,-52.375,108,-0.2231445,-0.05273438,0.08251953,-0.1733398,0.1738281,-0.2109375
4180,-57.8125,-64.1875,118.375,-0.09521484,-0.2548828,0.1479492,-0.1708984,0.1811523,-0.2055664
4184,-53.625,-69.0625,119.25,0.03564453,-0.5424805,0.2441406,-0.1674805,0.1914063,-0.199707
4188,-36.5625,-61.8125,124.75,0.1713867,-0.7329102,0.3251953,-0.1616211,0.1987305,-0.1928711
4192,-15.8125,-43.75,128.8125,0.2373047,-0.8222656,0.355957,-0.1557617,0.2060547,-0.1889648
4196,2.4375,-22.375,140.25,0.2026367,-0.8261719,0.3251953,-0.1484375,0.2114258,-0.1865234
4201,10.3125,-8,147.0625,0.1210938,-0.7719727,0.2133789,-0.1391602,0.2172852,-0.1875
4205,8.4375,-7.9375,152.1875,-0.01025391,-0.8027344,0.1367188,-0.1318359,0.2211914,-0.1850586
4209,2.8125,-12.5,157.125,-0.05273438,-0.8686523,0.1171875,-0.1186523,0.2275391,-0.1875
4213,2.625,-11.6875,165.375,0.03564453,-1.036133,0.1943359,-0.1054688,0.2338867,-0.1875
4217,12.375,5.25,174.8125,0.1328125,-1.136719,0.2597656,-0.09619141,0.2338867,-0.1865234
4221,19.9375,24.375,178.8125,0.1289063,-1.105957,0.2250977,-0.07958984,0.2373047,-0.1904297
4225,19.625,30.75,179.75,-0.04492188,-1.121582,0.1865234,-0.06396484,0.2412109,-0.1928711
4229,16.5,36.25,182.5,-0.1186523,-1.152344,0.2094727,-0.05078125,0.2412109,-0.1958008
4233,11.375,35,187.75,-0.2734375,-1.269043,0.2021484,-0.03417969,0.2412109,-0.1958008
4237,3.8125,26.375,193.4375,-0.1572266,-1.331055,0.2060547,-0.01416016,0.2426758,-0.1972656
4241,-6.5625,20.25,187.5,-0.05664063,-1.331055,0.1904297,-0.001953125,0.2412109,-0.1972656
4245,-12.0625,14.5625,173.25,-0.002441406,-1.455566,0.2441406,0.01513672,0.2426758,-0.1972656
4249,-8.1875,21.5625,159.25,-0.02197266,-1.537109,0.3095703,0.02978516,0.2397461,-0.1987305
4253,-9,24.3125,159.75,-0.3007813,-1.576172,0.2094727,0.04052734,0.2373047,-0.1958008
4257,-24,3.875,167.875,-0.4052734,-1.517578,0.09814453,0.0546875,0.2363281,-0.1958008
4261,-45.8125,-28.375,167.3125,-0.2890625,-1.552734,0.06347656,0.06982422,0.2363281,-0.1918945
4265,-59.25,-42.8125,162.5625,-0.08007813,-1.692383,0.1865234,0.07714844,0.2324219,-0.1918945
4269,-52.0625,-36.3125,155.25,0.0009765625,-1.828613,0.3134766,0.09130859,0.2299805,-0.1865234
4273,-35.1875,-23.625,149.1875,-0.1030273,-1.812988,0.3364258,0.09960938,0.2275391,-0.1850586
4277,-26.125,-21.6875,145.6875,-0.2504883,-1.665527,0.2788086,0.1079102,0.2236328,-0.1835938
4281,-24.8125,-33.3125,144.4375,-0.328125,-1.595215,0.1865234,0.1186523,0.2172852,-0.1806641
4285,-27.875,-46.8125,137.4375,-0.2504883,-1.521484,0.2094727,0.128418,0.2124023,-0.1796875
4289,-26.0625,-55.6875,129.25,-0.1420898,-1.537109,0.2250977,0.1342773,0.2099609,-0.1782227
4293,-16.125,-51.25,116.6875,-0.09912109,-1.525391,0.2709961,0.1391602,0.2050781,-0.1796875
4297,-1.5,-40.625,111.625,-0.1533203,-1.45166,0.2749023,0.1484375,0.2011719,-0.1850586
4301,-10.0625,-66,120.5625,-0.3046875,-1.475098,-0.05126953,0.1523438,0.1962891,-0.1835938
4305,-30.8125,-91.9375,107.1875,0.2490234,-1.459473,0.02099609,0.1567383,0.1899414,-0.1865234
4309,-26.8125,-83.875,77.375,0.5976563,-1.731445,0.1328125,0.1606445,0.1860352,-0.1865234
4313,-2.875,-56.5625,49.75,0.7333984,-1.828613,0.1787109,0.1616211,0.1850586,-0.1889648
4317,10.5625,-33.625,35.5625,0.6479492,-1.809082,0.03662109,0.1616211,0.1826172,-0.1875
4321,10.0625,-26,18.5625,0.6401367,-1.80127,-0.06689453,0.1630859,0.1826172,-0.1928711
4325,10.625,-23.5625,-5.9375,0.7373047,-1.859863,-0.112793,0.1630859,0.1787109,-0.1958008
4330,15.1875,-8.1875,-33.5625,0.8149414,-1.878906,-0.05126953,0.1606445,0.1801758,-0.1958008
4334,24.4375,11.6875,-57.375,0.7797852,-1.902344,-0.02050781,0.1567383,0.1811523,-0.1987305
4338,32.5,28.625,-79.6875,0.690918,-1.890625,-0.02832031,0.1533203,0.1826172,-0.199707
4342,36.625,37.375,-100.5625,0.6831055,-1.914063,-0.05517578,0.1508789,0.1850586,-0.199707
4346,39.3125,48.9375,-128.3125,0.7602539,-1.925781,0.02099609,0.1450195,0.1899414,-0.2026367
4350,51.125,62.625,-152.0625,0.6015625,-2.019043,0.1020508,0.1401367,0.1914063,-0.2026367
4354,56.3125,66.875,-163,0.4389648,-1.941406,0.03271484,0.1293945,0.1948242,-0.2041016
4358,42.8125,59.375,-175.5,0.3847656,-1.964355,0.005859375,0.1210938,0.1987305,-0.2041016
4362,37.3125,55.875,-197.1875,0.3305664,-2.112305,0.1289063,0.1152344,0.2036133,-0.2041016
4366,39,58.75,-210.9375,0.1445313,-2.174316,0.1865234,0.1010742,0.2084961,-0.2041016
4370,39,54.625,-217.8125,-0.07226563,-2.150879,0.2290039,0.09130859,0.2163086,-0.2080078
4374,38.9375,45.3125,-226.0625,-0.1572266,-2.073242,0.2827148,0.07958984,0.2197266,-0.2094727
4378,33.0625,36.1875,-229.9375,-0.2192383,-2.04248,0.2597656,0.06298828,0.2226563,-0.2080078
4382,26.4375,26.4375,-234,-0.296875,-1.995605,0.2983398,0.04492188,0.2260742,-0.2133789
4386,25.1875,19.0625,-236.375,-0.3354492,-1.949219,0.3671875,0.03173828,0.2275391,-0.2133789
4390,28.5625,17.1875,-234.1875,-0.3935547,-1.878906,0.3945313,0.01513672,0.2285156,-0.2148438
4394,31.1875,13.125,-227.9375,-0.4287109,-1.754883,0.390625,-0.005859375,0.2285156,-0.21875
4398,29,6.4375,-226.6875,-0.5063477,-1.580078,0.3520508,-0.01757813,0.2275391,-0.21875
4402,20.9375,-9.75,-225.0625,-0.5644531,-1.428223,0.2788086,-0.03417969,0.2260742,-0.2231445
4406,8.75,-25.6875,-220.4375,-0.5214844,-1.315918,0.3134766,-0.05419922,0.2197266,-0.2202148
4410,5.625,-29.4375,-212.375,-0.4208984,-1.26123,0.3945313,-0.06884766,0.21875,-0.2202148
4414,11.25,-24.125,-202.875,-0.3862305,-1.1875,0.3945313,-0.08642578,0.2138672,-0.2216797
4418,14.5,-20.875,-194.9375,-0.4013672,-1.02832,0.3056641,-0.1030273,0.2075195,-0.2231445
4422,12.6875,-22.8125,-186.375,-0.3935547,-0.8920898,0.2709961,-0.1137695,0.2001953,-0.2202148
4426,11,-22.625,-173.5,-0.3549805,-0.7211914,0.2480469,-0.1293945,0.1948242,-0.21875
4430,10,-18.8125,-160.625,-0.2700195,-0.5776367,0.2172852,-0.1425781,0.1875,-0.2231445
4434,6.4375,-15.5,-148,-0.2543945,-0.4453125,0.1635742,-0.1508789,0.1811523,-0.2202148
4438,3.8125,-7.6875,-135.3125,-0.1650391,-0.3364258,0.1787109,-0.1616211,0.1748047,-0.2177734
4442,6,5.125,-121,-0.1962891,-0.2939453,0.2060547,-0.1699219,0.1689453,-0.2202148
4446,14.375,16.125,-105.25,-0.2734375,-0.1850586,0.2094727,-0.1748047,0.1650391,-0.2202148
4450,21.8125,21.9375,-92.3125,-0.3393555,-0.01416016,0.1748047,-0.1816406,0.1586914,-0.2231445
4454,22.3125,19.1875,-81.5625,-0.4521484,0.1875,0.1098633,-0.184082,0.1513672,-0.2255859
4459,18.875,9.25,-66.75,-0.4790039,0.3310547,0.07128906,-0.1855469,0.1459961,-0.2255859
4463,11.875,5.25,-46.0625,-0.4365234,0.4321289,0.1098633,-0.1914063,0.1435547,-0.2270508
4467,2.8125,0.4375,-23.0625,-0.4750977,0.5253906,0.05957031,-0.1923828,0.1401367,-0.2285156
4471,-10.0625,-8.1875,-0.125,-0.4633789,0.5527344,0.03271484,-0.1899414,0.1386719,-0.2270508
4475,-21.625,-14.75,22.6875,-0.3974609,0.4985352,0.07128906,-0.1923828,0.1386719,-0.2255859
4479,-26.8125,-18.375,42.875,-0.362793,0.3974609,0.09033203,-0.1914063,0.1435547,-0.2216797
4483,-27.3125,-21.25,59.6875,-0.2773438,0.3041992,0.1171875,-0.1914063,0.1450195,-0.2202148
4487,-31.1875,-23.3125,78.625,-0.2700195,0.2226563,0.08642578,-0.1875,0.1499023,-0.2177734
4491,-40.4375,-28.1875,97.5,-0.2348633,0.1523438,0.05957031,-0.1865234,0.1601563,-0.2163086
4495,-51.875,-38.25,113.1875,-0.2080078,-0.02197266,0.05175781,-0.1816406,0.1660156,-0.2119141
4499,-59.1875,-49.6875,122.3125,-0.1069336,-0.2084961,0.1289063,-0.1772461,0.1738281,-0.2080078
4503,-57.5,-49.5625,130.9375,0.04736328,-0.4453125,0.2021484,-0.1699219,0.1835938,-0.199707
4507,-43.5625,-36.3125,136.6875,0.125,-0.6552734,0.2866211,-0.1674805,0.1923828,-0.1987305
4511,-28.125,-23.5625,141.5625,0.09765625,-0.7792969,0.2944336,-0.1591797,0.2011719,-0.1918945
4515,-12.125,-16.5625,148.125,0.06298828,-0.7563477,0.2827148,-0.1484375,0.2099609,-0.1904297
4519,-1.8125,-6.1875,151.625,0.04736328,-0.8144531,0.2675781,-0.1401367,0.2138672,-0.1889648
4523,5.6875,1.4375,159.4375,0.02441406,-0.8959961,0.2519531,-0.1293945,0.2226563,-0.1904297
4527,13.4375,14.6875,168.5,0.04345703,-0.9467773,0.2597656,-0.1137695,0.2250977,-0.1928711
4531,18.375,26.375,179.5625,0.004882813,-0.9892578,0.2172852,-0.1054688,0.2285156,-0.1943359
4535,15.25,35.625,186.75,-0.05273438,-1.024414,0.2211914,-0.08789063,0.2338867,-0.1928711
4539,12.0625,34.75,190.5625,-0.1499023,-1.129395,0.2250977,-0.06982422,0.2373047,-0.1958008
4543,11.1875,34.125,188.125,-0.1459961,-1.133301,0.2944336,-0.05908203,0.2387695,-0.199707
4547,7.0625,30.125,189.25,-0.3085938,-1.171875,0.2133789,-0.04003906,0.2373047,-0.2026367
4551,-12.5625,13.1875,197,-0.3549805,-1.1875,0.159668,-0.02001953,0.2387695,-0.2026367
4555,-27.1875,-2.4375,197.375,-0.262207,-1.467285,0.2290039,-0.009277344,0.2397461,-0.1987305
4559,-18.125,5.3125,192.8125,-0.01025391,-1.649902,0.4213867,0.006835938,0.2387695,-0.1987305
4563,6.625,30.9375,184.8125,-0.1420898,-1.704102,0.4599609,0.02490234,0.2397461,-0.199707
4567,19.5625,44.5,190.6875,-0.2851563,-1.568359,0.4018555,0.03808594,0.2387695,-0.1987305
4571,5.5625,32.9375,198.75,-0.5683594,-1.42041,0.1713867,0.05712891,0.2324219,-0.1987305
4575,-22.625,-2.625,193.9375,-0.5874023,-1.447754,0.105957,0.07470703,0.2275391,-0.199707
4579,-34.8125,-23,185.625,-0.3320313,-1.657715,0.2211914,0.08447266,0.2260742,-0.1987305
4583,-29.25,-21.1875,177.75,-0.215332,-1.731445,0.3173828,0.09863281,0.2211914,-0.1972656
4588,-18.125,-12.1875,176.75,-0.1533203,-1.711914,0.3364258,0.1118164,0.2148438,-0.1943359
4592,-18.3125,-3.9375,179.3125,-0.1459961,-1.583984,0.2480469,0.1210938,0.2099609,-0.1928711
4596,-30.4375,-13.5,174.3125,-0.2543945,-1.645996,0.1367188,0.1342773,0.2036133,-0.1928711
4600,-42.4375,-27.625,163,-0.07226563,-1.681152,0.1826172,0.1474609,0.1972656,-0.1904297
4604,-38.375,-33,137.9375,0.03564453,-1.875,0.2558594,0.1508789,0.1914063,-0.1875
4608,-23.3125,-22.875,118.1875,0.08642578,-1.90625,0.3481445,0.1616211,0.1860352,-0.1875
4612,-11.3125,-18.625,112.75,0.1635742,-1.828613,0.2441406,0.1699219,0.1801758,-0.1875
4616,-10.5625,-16.5625,99.75,0.2412109,-1.739258,0.1865234,0.1738281,0.1762695,-0.1865234
4620,-14.9375,-22.1875,85.5625,0.3188477,-1.708008,0.09814453,0.1782227,0.1738281,-0.1865234
4624,-21,-30.25,63.1875,0.3691406,-1.669434,0.06347656,0.184082,0.1660156,-0.1875
4628,-30.1875,-40.9375,37.0625,0.4658203,-1.669434,0.03271484,0.184082,0.1689453,-0.1875
4632,-36.9375,-49.8125,12.4375,0.5087891,-1.777832,0.01367188,0.1831055,0.1660156,-0.1889648
4636,-37.375,-48.4375,-8.625,0.6870117,-1.875,0.07910156,0.1806641,0.1689453,-0.1865234
4640,-21.875,-25.375,-32.6875,0.7797852,-1.933594,0.1865234,0.1796875,0.1699219,-0.1875
4644,3.75,5.6875,-52.75,0.6289063,-1.925781,0.2133789,0.1772461,0.1748047,-0.1889648
4648,19.9375,25,-69.25,0.3999023,-1.723633,0.1132813,0.1723633,0.1762695,-0.1889648
4652,24.375,30.5625,-86.3125,0.2255859,-1.665527,0.07519531,0.1723633,0.1772461,-0.1904297
4656,25.75,27.875,-101.3125,0.1132813,-1.583984,0.08642578,0.1665039,0.1826172,-0.1904297
4660,20.5625,18.375,-112.3125,0.04345703,-1.537109,0.06738281,0.1616211,0.1875,-0.1889648
4664,12,9.4375,-116.8125,0.07861328,-1.634277,0.03662109,0.1547852,0.1899414,-0.1918945
4668,4.9375,8.75,-129.5,0.3032227,-1.731445,0.1020508,0.1459961,0.1948242,-0.1918945
4672,15.375,22.5,-148.875,0.4077148,-1.953125,0.2060547,0.1342773,0.2026367,-0.1918945
4676,34.875,38.75,-161.25,0.3071289,-2.003418,0.159668,0.1293945,0.2060547,-0.1904297
4680,34.25,45.25,-166.5625,0.2758789,-1.929688,0.04785156,0.1186523,0.2114258,-0.1928711
4684,27.4375,41.8125,-179.125,0.2104492,-2.030762,0.005859375,0.1079102,0.2163086,-0.1928711
4688,22.4375,39.0625,-195.1875,0.2138672,-2.088867,0.07128906,0.09863281,0.2226563,-0.1928711
4692,25.625,46.3125,-218.0625,0.09033203,-2.116211,0.1674805,0.08300781,0.2275391,-0.1928711
4696,34.9375,52.5625,-228.125,-0.2231445,-2.150879,0.1787109,0.06787109,0.2314453,-0.1958008
4700,40.3125,50.25,-222,-0.4169922,-2.04248,0.1479492,0.05566406,0.2338867,-0.1972656
4704,34.875,43.875,-217.0625,-0.4521484,-1.867188,0.1328125,0.0390625,0.2373047,-0.1987305
4708,30.875,37.4375,-218.9375,-0.4248047,-1.758789,0.2290039,0.02148438,0.2387695,-0.2026367
4712,33.0625,30.375,-222.4375,-0.5756836,-1.67334,0.2636719,0.01074219,0.2397461,-0.2041016
4717,33.375,20.375,-220.0625,-0.6342773,-1.471191,0.2597656,-0.005859375,0.2387695,-0.2080078
4721,21.375,3.4375,-207.9375,-0.6376953,-1.284668,0.1787109,-0.02490234,0.2363281,-0.2080078
4725,4.875,-14.0625,-203.6875,-0.5292969,-1.207031,0.1787109,-0.03662109,0.2338867,-0.2094727
4729,-4.0625,-19.4375,-199,-0.3393555,-1.171875,0.2788086,-0.05419922,0.2324219,-0.2109375
4733,-1.9375,-11.875,-194.5,-0.2583008,-1.117676,0.3212891,-0.07324219,0.2314453,-0.2094727
4737,-5.5625,-10.25,-183.375,-0.3242188,-0.9311523,0.2441406,-0.08300781,0.2260742,-0.206543
4741,-14.0625,-15.4375,-175.1875,-0.262207,-0.8686523,0.2402344,-0.09960938,0.2226563,-0.206543
4745,-16.4375,-10.1875,-163.625,-0.2080078,-0.8881836,0.3330078,-0.1137695,0.2172852,-0.2041016
4749,-10.8125,0.3125,-149.8125,-0.1845703,-0.7641602,0.3481445,-0.1235352,0.2148438,-0.2011719
4753,-6.6875,7.5625,-139.75,-0.1533203,-0.6630859,0.3671875,-0.1352539,0.2084961,-0.199707
4757,3,12.0625,-136.875,-0.1806641,-0.5737305,0.3710938,-0.1450195,0.2026367,-0.199707
4761,19.9375,18.5625,-129.6875,-0.2001953,-0.534668,0.3945313,-0.1518555,0.1972656,-0.2026367
4765,41.875,28.125,-118.75,-0.2080078,-0.3833008,0.3867188,-0.1582031,0.1923828,-0.2055664
4769,59.875,36.875,-107.5625,-0.3203125,-0.1772461,0.3212891,-0.1665039,0.1826172,-0.2109375
4773,70.5,37.9375,-93.6875,-0.4052734,0.04736328,0.2558594,-0.1665039,0.1787109,-0.2133789
4777,73.0625,33.125,-79.1875,-0.4868164,0.253418,0.1674805,-0.1723633,0.1660156,-0.21875
4781,67,23.0625,-61.75,-0.5332031,0.1176758,0.1367188,-0.1733398,0.1586914,-0.2255859
4785,50.4375,8.0625,-47.125,-0.6533203,0.6499023,0.02099609,-0.1757813,0.1538086,-0.2299805
4789,25.375,-10.1875,-15.125,-0.6225586,0.6845703,-0.02441406,-0.1782227,0.1474609,-0.2324219
4793,-2.0625,-25,13.9375,-0.4907227,0.6811523,-0.01318359,-0.1791992,0.1474609,-0.2324219
4797,-20,-36.75,34.5625,-0.3588867,0.5527344,0.01708984,-0.1791992,0.1499023,-0.230957
4801,-33.0625,-45.75,51.3125,-0.2851563,0.4438477,0.005859375,-0.1791992,0.1523438,-0.2270508
4805,-45.3125,-55.4375,68.875,-0.1962891,0.2924805,0.001953125,-0.1791992,0.1601563,-0.2202148
4809,-54.5,-60.1875,86.625,-0.04492188,0.06689453,0.001953125,-0.1782227,0.1635742,-0.2177734
4813,-58.9375,-55.4375,100.5625,0.175293,-0.1616211,0.08251953,-0.1748047,0.1713867,-0.2119141
4817,-53.125,-42.1875,106.9375,0.2646484,-0.340332,0.159668,-0.1723633,0.1811523,-0.2041016
4821,-43.5,-29.4375,111.25,0.1674805,-0.3950195,0.2211914,-0.1699219,0.1875,-0.199707
4825,-37.0625,-29.625,115.75,-0.04101563,-0.402832,0.1787109,-0.1625977,0.1948242,-0.1958008
4829,-40.75,-40.9375,126.0625,-0.08398438,-0.519043,0.1171875,-0.1567383,0.2026367,-0.1918945
4833,-43.75,-44.4375,139.3125,0.1831055,-0.6591797,0.1787109,-0.1518555,0.2114258,-0.1889648
4837,-32.1875,-33.1875,131.5625,0.3305664,-0.8959961,0.2480469,-0.1425781,0.2163086,-0.1835938
4841,-4.1875,-11,125.375,0.3266602,-0.9892578,0.3710938,-0.1318359,0.2236328,-0.1821289
4846,20.25,15.25,129.125,0.1367188,-0.8842773,0.3212891,-0.1245117,0.2275391,-0.1821289
4850,21,21.8125,144.9375,-0.1767578,-0.8105469,0.1748047,-0.112793,0.2324219,-0.1850586
4854,3.0625,7.3125,169.875,-0.2890625,-0.8105469,0.02880859,-0.09960938,0.2363281,-0.1850586
4858,-14.8125,-8.0625,177.0625,0.0009765625,-0.9853516,0.1098633,-0.08886719,0.2387695,-0.1865234
4862,-10.375,0.125,168.6875,0.1791992,-1.148438,0.2133789,-0.07470703,0.2436523,-0.1865234
4866,-0.625,12.0625,165.1875,0.05517578,-1.160156,0.2709961,-0.06152344,0.2451172,-0.1875
4870,-5.0625,11.125,169.875,-0.1962891,-1.125488,0.2094727,-0.04980469,0.2460938,-0.1875
4874,-19.8125,-6.875,177.8125,-0.3164063,-1.226563,0.09033203,-0.03320313,0.2485352,-0.1875
4878,-36.75,-29.1875,180.4375,-0.09521484,-1.34668,0.09814453,-0.01757813,0.2509766,-0.1835938
4882,-40.1875,-32.3125,172.9375,0.140625,-1.513672,0.1865234,-0.006835938,0.2539063,-0.1806641
4886,-23.75,-17.5625,162.125,0.159668,-1.595215,0.3251953,0.006835938,0.2539063,-0.1782227
4890,-5.8125,-1.9375,164.125,-0.02197266,-1.533203,0.3095703,0.02148438,0.2539063,-0.1782227
4894,-9.4375,-4.75,167.4375,-0.1459961,-1.397461,0.144043,0.03076172,0.2539063,-0.1767578
4898,-23.25,-22.0625,161,-0.2661133,-1.486816,0.03662109,0.04394531,0.2509766,-0.1782227
4902,-32.9375,-35.5,155.5625,-0.09521484,-1.556641,0.140625,0.05810547,0.2475586,-0.1738281
4906,-24.375,-28.3125,146.6875,-0.08007813,-1.669434,0.2827148,0.06542969,0.2451172,-0.1728516
4910,-4.4375,-13.125,144.125,-0.1499023,-1.64209,0.3637695,0.07861328,0.2426758,-0.1728516
4914,9.625,2.625,146.3125,-0.362793,-1.490723,0.2749023,0.09130859,0.2373047,-0.1728516
4918,5.8125,-3.3125,148.5625,-0.6572266,-1.312012,0.1098633,0.09960938,0.2338867,-0.1738281
4922,-19.5,-39.4375,147.1875,-0.8706055,-1.175781,-0.0859375,0.112793,0.2260742,-0.1738281
4926,-48.4375,-86.375,138.9375,-0.796875,-1.265137,-0.0859375,0.1210938,0.2236328,-0.1728516
4930,-61.6875,-122.6875,132.6875,-0.5527344,-1.486816,-0.04003906,0.1259766,0.2197266,-0.1728516
4934,-53.1875,-126.3125,132.9375,-0.06835938,-1.816895,0.105957,0.1333008,0.2148438,-0.1728516
4938,-20.8125,-91.8125,132.8125,0.4506836,-1.972168,0.1982422,0.1376953,0.2114258,-0.1767578
4942,19.875,-37.8125,114.4375,0.6831055,-1.894531,0.1865234,0.1416016,0.2075195,-0.175293
4946,49.8125,6.25,93.5625,0.5087891,-1.704102,0.07128906,0.1484375,0.1987305,-0.1767578
4950,53.1875,24,84.125,0.1328125,-1.471191,-0.109375,0.1557617,0.1938477,-0.1806641
4954,30.5,9.75,79.125,-0.1147461,-1.334961,-0.2055664,0.1606445,0.1899414,-0.1821289
4958,0.5625,-20.625,75.375,0.004882813,-1.37793,-0.2055664,0.1689453,0.1835938,-0.1850586
4962,-16,-29.8125,59.6875,0.2490234,-1.509766,-0.09375,0.1713867,0.1801758,-0.1865234
4966,-14.0625,-30.25,38.8125,0.3691406,-1.677246,-0.05126953,0.1748047,0.1787109,-0.1850586
4970,-11.4375,-25.6875,18.75,0.4658203,-1.711914,-0.07470703,0.1738281,0.1787109,-0.1850586
4975,-11.75,-20.9375,0.9375,0.5820313,-1.770508,-0.1054688,0.1738281,0.1762695,-0.1850586
4979,-6.875,-8.1875,-20.5625,0.7099609,-1.871094,-0.07861328,0.1723633,0.1772461,-0.1850586
4983,5.25,11.125,-45.4375,0.7954102,-1.949219,-0.01660156,0.1699219,0.1801758,-0.1865234
4987,24.75,38.5,-72.5,0.7954102,-2.015137,0.001953125,0.1674805,0.1811523,-0.1850586
4991,40.9375,62.1875,-95.9375,0.6171875,-1.968262,-0.02050781,0.1650391,0.1835938,-0.1875
4995,46.9375,75.25,-112.875,0.4892578,-1.914063,-0.05517578,0.1606445,0.1884766,-0.1865234
4999,45.375,82.375,-125.9375,0.3769531,-1.824707,-0.07470703,0.1557617,0.1938477,-0.1875
5003,32.25,77.125,-138,0.1987305,-1.773926,-0.1323242,0.1523438,0.1938477,-0.1850586
5007,14.125,57,-158.25,0.08642578,-1.805176,-0.09375,0.144043,0.2001953,-0.1865234
5011,2.125,42,-181.5,0.109375,-1.968262,0.02880859,0.1333008,0.2084961,-0.1821289
5015,2.1875,45.125,-197.25,0.1171875,-2.120117,0.1098633,0.125,0.2148438,-0.1806641
5019,12.3125,59.375,-207.0625,0.04345703,-2.158691,0.2021484,0.112793,0.2226563,-0.1835938
5023,24.875,70.5,-215.6875,-0.1611328,-2.131836,0.1748047,0.09521484,0.2314453,-0.1821289
5027,35.375,75.6875,-217.4375,-0.328125,-2.12793,0.1943359,0.08789063,0.2363281,-0.1806641
5031,47.3125,79.1875,-219.5625,-0.4633789,-2.007324,0.2133789,0.06982422,0.2412109,-0.1821289
5035,52.9375,73.5625,-216.5625,-0.6611328,-1.844238,0.1713867,0.0546875,0.2426758,-0.1850586
5039,47.0625,50.5,-211.5,-0.746582,-1.653809,0.1367188,0.04394531,0.2426758,-0.1865234
5043,38.5,30.9375,-209.5625,-0.6455078,-1.564453,0.1982422,0.02978516,0.2451172,-0.1928711
5047,38.625,20.25,-202.3125,-0.5874023,-1.509766,0.2133789,0.01074219,0.2460938,-0.1928711
5051,27.125,2.75,-195.75,-0.5644531,-1.29248,0.1171875,0,0.2451172,-0.1987305
5055,5.4375,-20.6875,-199.8125,-0.4052734,-1.207031,0.07128906,-0.01611328,0.2426758,-0.1972656
5059,-7,-32.25,-204.3125,-0.1767578,-1.265137,0.1367188,-0.0390625,0.2436523,-0.1958008
5063,-8.5625,-24,-202,-0.02978516,-1.253418,0.1787109,-0.05078125,0.2436523,-0.1958008
5067,-4.0625,-2.8125,-198.125,0.01269531,-1.241699,0.2094727,-0.06884766,0.2387695,-0.1918945
5071,-0.3125,14.1875,-185.625,-0.06835938,-1.094238,0.1289063,-0.08642578,0.2348633,-0.1928711
5075,-4.5625,24,-172.5,-0.1108398,-0.9155273,0.1289063,-0.09472656,0.2324219,-0.1928711
5079,-9.875,24.5,-165.25,-0.2426758,-0.8066406,0.1328125,-0.109375,0.2260742,-0.1928711
5083,-14.3125,12.0625,-159.6875,-0.3706055,-0.7016602,0.105957,-0.1210938,0.2211914,-0.1928711
5087,-22.25,1,-155.0625,-0.3203125,-0.5424805,0.1748047,-0.1303711,0.2197266,-0.1928711
5091,-21,-4.625,-146.5625,-0.2773438,-0.5151367,0.2094727,-0.1411133,0.2138672,-0.1889648
5095,-15.6875,3.0625,-131.3125,-0.1962891,-0.4375,0.2368164,-0.1533203,0.2084961,-0.1875
5099,-3.0625,17.375,-111.4375,-0.2001953,-0.421875,0.2983398,-0.1591797,0.2050781,-0.1865234
5104,19.1875,36.125,-91.75,-0.2504883,-0.3017578,0.340332,-0.1650391,0.2001953,-0.1875
5108,43.5,49.875,-75.25,-0.3510742,-0.09960938,0.3056641,-0.1723633,0.1938477,-0.1928711
5112,55.875,49.875,-59.125,-0.4907227,0.1757813,0.2094727,-0.1699219,0.1899414,-0.1972656
5116,52.75,34.6875,-45.875,-0.6147461,0.3896484,0.1098633,-0.1708984,0.1826172,-0.2041016
5120,39.875,10.5625,-32.625,-0.6264648,0.5913086,0.07910156,-0.1733398,0.1772461,-0.2055664
5124,22.6875,-9.625,-14.3125,-0.5605469,0.6030273,0.06347656,-0.1733398,0.1748047,-0.2080078
5128,5.125,-20.8125,8.8125,-0.4521484,0.5644531,0.06347656,-0.1757813,0.1738281,-0.2094727
5132,-10,-28.75,33.3125,-0.3549805,0.5332031,0.04785156,-0.1757813,0.1748047,-0.2080078
5136,-25.4375,-35.5625,52.4375,-0.3125,0.4125977,0.04785156,-0.1733398,0.1772461,-0.206543
5140,-35.6875,-45.875,69.1875,-0.2348633,0.2456055,0.03271484,-0.1733398,0.1811523,-0.2026367
5144,-46.75,-53.6875,83.875,-0.09521484,0.09814453,0.02490234,-0.1708984,0.1875,-0.1928711
5148,-55.75,-60.5625,94.3125,-0.02978516,-0.08398438,0.03662109,-0.1708984,0.1923828,-0.1928711
5152,-63.0625,-65.125,103.125,0.09375,-0.2705078,0.07910156,-0.1650391,0.2026367,-0.1865234
5156,-60.3125,-62.375,106.3125,0.1557617,-0.5151367,0.140625,-0.1601563,0.2114258,-0.1767578
5160,-46.75,-54.375,115.125,0.2373047,-0.6899414,0.2060547,-0.1567383,0.2172852,-0.1728516
5164,-27.125,-39.3125,117.875,0.3032227,-0.8066406,0.2709961,-0.1494141,0.2250977,-0.168457
5168,-2.25,-19.625,122,0.3032227,-0.8764648,0.2788086,-0.1411133,0.2285156,-0.1660156
5172,18.1875,3.25,128.6875,0.2685547,-0.8647461,0.2636719,-0.1342773,0.2324219,-0.1645508
5176,28.4375,20.5,140.25,0.1210938,-0.8105469,0.1518555,-0.1235352,0.2373047,-0.168457
5180,16.75,20.4375,152.875,-0.03710938,-0.7407227,0.01367188,-0.1103516,0.2412109,-0.1728516
5184,3.0625,9.625,158,0.01269531,-0.7680664,0.04785156,-0.09960938,0.2436523,-0.1713867
5188,-2,11.5625,152.5,0.03564453,-0.8920898,0.1557617,-0.08398438,0.2485352,-0.1728516
5192,1,10.625,152,-0.1806641,-1.008789,0.1210938,-0.07226563,0.2509766,-0.1738281
5196,-12.75,-3.75,161.0625,-0.2504883,-0.9736328,0.02099609,-0.06396484,0.2539063,-0.1738281
5200,-31.625,-20,169.375,-0.1225586,-1.144531,0.05957031,-0.04589844,0.2548828,-0.1728516
5204,-33,-20.125,170.25,0.07470703,-1.308105,0.1674805,-0.03320313,0.2573242,-0.1713867
5208,-20.4375,-4.625,170.5,0.1328125,-1.455566,0.2290039,-0.0234375,0.2612305,-0.168457
5212,-4.5625,18.3125,166.75,0.09765625,-1.471191,0.2636719,-0.0078125,0.262207,-0.1660156
5216,2.125,22.5625,165.5,-0.1499023,-1.397461,0.1479492,0.009277344,0.2597656,-0.168457
5220,-5.125,11.5,163.8125,-0.2504883,-1.389648,0.09423828,0.02001953,0.2587891,-0.1674805
5224,-10.5,2.125,161.625,-0.1962891,-1.459473,0.1635742,0.03662109,0.2573242,-0.1660156
5228,-3.9375,4.9375,159.9375,-0.1611328,-1.486816,0.1826172,0.05224609,0.2548828,-0.1645508
5233,-1.8125,11.625,160.5,-0.2426758,-1.412598,0.1289063,0.06152344,0.2524414,-0.168457
5237,-13.25,1.5,159.9375,-0.328125,-1.354492,0.01708984,0.07714844,0.2460938,-0.1645508
5241,-27.0625,-14.5,155.0625,-0.2041016,-1.447754,0.01367188,0.09277344,0.2426758,-0.1645508
5245,-31,-18.5,143.4375,-0.06445313,-1.521484,0.1132813,0.09863281,0.2412109,-0.1645508
5249,-21.375,-10,131.1875,-0.06054688,-1.587891,0.1943359,0.1103516,0.2348633,-0.1591797
5253,-12.3125,-0.375,123.5625,-0.2041016,-1.486816,0.1748047,0.1225586,0.2314453,-0.1616211
5257,-13.1875,-1.8125,125.5,-0.3588867,-1.505859,0.07519531,0.128418,0.2260742,-0.1577148
5261,-18.25,-12.125,131.0625,-0.2890625,-1.471191,0.07519531,0.1391602,0.2211914,-0.1591797
5265,-22,-16.625,128.8125,-0.1381836,-1.412598,0.06347656,0.1499023,0.2148438,-0.15625
5269,-25.6875,-22.9375,117.8125,-0.1767578,-1.475098,0.04785156,0.1547852,0.2114258,-0.1547852
5273,-22.3125,-33.125,103.6875,-0.2080078,-1.45166,0.07519531,0.1640625,0.2036133,-0.1547852
5277,-20.3125,-39.5,95.375,-0.2773438,-1.467285,0.1020508,0.1689453,0.2011719,-0.15625
5281,-14.8125,-48.25,93.75,-0.328125,-1.432129,0.1132813,0.1738281,0.1972656,-0.1538086
5285,-18.5,-52.9375,91.375,-0.3007813,-1.354492,0.09423828,0.1796875,0.1923828,-0.15625
5289,-20.375,-61.9375,87.1875,-0.3432617,-1.354492,0.06738281,0.184082,0.1884766,-0.1606445
5293,-24,-66.4375,81.75,-0.2851563,-1.276855,0.07128906,0.1879883,0.1850586,-0.1606445
5297,-28,-76.375,83,-0.2734375,-1.338867,0.02099609,0.1904297,0.1801758,-0.1616211
