Packet number,Gyroscope X (deg/s),Gyroscope Y (deg/s),Gyroscope Z (deg/s),Accelerometer X (g),Accelerometer Y (g),Accelerometer Z (g),Magnetometer X (G),Magnetometer Y (G),Magnetometer Z (G)
0,-4.0625,0.5625,-2.3125,0.9350586,-0.3442383,-0.1591797,-0.3164063,0.03857422,-0.08691406
4,-3.5,0.4375,-1.6875,0.9350586,-0.3325195,-0.1708984,-0.3149414,0.03857422,-0.08691406
8,-5.1875,1.4375,-0.75,0.9462891,-0.3134766,-0.1552734,-0.3164063,0.03759766,-0.08691406
12,-7.625,2,-1,0.9423828,-0.3173828,-0.1513672,-0.3173828,0.04003906,-0.08837891
16,-7.5,2.1875,-1,0.9389648,-0.3325195,-0.1552734,-0.3149414,0.03857422,-0.08837891
20,-5.875,1.6875,-1.5,0.9311523,-0.340332,-0.1669922,-0.3149414,0.03857422,-0.08691406
24,-5.1875,1.5,-2.0625,0.9462891,-0.3208008,-0.1591797,-0.3149414,0.03857422,-0.08837891
28,-5.625,2.4375,-2.0625,0.9501953,-0.3056641,-0.1669922,-0.3164063,0.03857422,-0.08837891
32,-7.0625,2.625,-2.375,0.9423828,-0.3017578,-0.1591797,-0.3139648,0.03857422,-0.08837891
36,-6.9375,2.75,-2.6875,0.9350586,-0.3056641,-0.1513672,-0.3164063,0.03857422,-0.08837891
40,-6.125,2.0625,-2.5625,0.9350586,-0.3095703,-0.1513672,-0.3149414,0.03759766,-0.08691406
44,-5.1875,2.0625,-2.5,0.9389648,-0.3095703,-0.1513672,-0.3149414,0.03613281,-0.08691406
48,-4.4375,2.125,-1.625,0.9389648,-0.2978516,-0.1435547,-0.3139648,0.04003906,-0.08691406
52,-4.375,2.1875,-2.125,0.9462891,-0.3017578,-0.1513672,-0.3164063,0.03759766,-0.08837891
56,-4.3125,1.5,-3.125,0.9423828,-0.2978516,-0.1513672,-0.3149414,0.03613281,-0.08837891
60,-3.125,1.1875,-3.6875,0.9423828,-0.3056641,-0.1513672,-0.3149414,0.04003906,-0.08837891
64,-1.5625,1.1875,-3.25,0.9501953,-0.2978516,-0.1513672,-0.3164063,0.03759766,-0.08984375
68,-0.625,1.75,-2.1875,0.9541016,-0.2861328,-0.1513672,-0.3164063,0.03613281,-0.08837891
72,-0.8125,2,-1.625,0.9501953,-0.2822266,-0.1435547,-0.3149414,0.03759766,-0.08984375
76,0.3125,1.875,-0.75,0.9501953,-0.3017578,-0.1435547,-0.3149414,0.03759766,-0.08837891
80,1.375,1.625,-1.125,0.9580078,-0.2900391,-0.1474609,-0.3164063,0.03613281,-0.08837891
84,1.4375,1.1875,-1,0.9462891,-0.2939453,-0.1362305,-0.3164063,0.03613281,-0.09082031
89,1.1875,1.375,-1.3125,0.9580078,-0.2861328,-0.1323242,-0.3149414,0.03759766,-0.08837891
93,0.5625,1.0625,-1.4375,0.9462891,-0.3017578,-0.1435547,-0.3173828,0.03759766,-0.08984375
97,0.875,0.25,-0.75,0.9423828,-0.3056641,-0.1401367,-0.3164063,0.03613281,-0.08837891
101,0.3125,-0.25,-1.875,0.9462891,-0.2978516,-0.1323242,-0.3149414,0.03759766,-0.08984375
105,0.125,-0.625,-2.125,0.9462891,-0.3134766,-0.1362305,-0.3164063,0.03613281,-0.09082031
109,-0.1875,-0.125,-3.4375,0.9580078,-0.3056641,-0.1552734,-0.3139648,0.03369141,-0.08837891
113,-0.0625,0.3125,-5.0625,0.9541016,-0.3208008,-0.1474609,-0.3139648,0.03271484,-0.08984375
117,0.8125,2.375,-7.1875,0.9619141,-0.324707,-0.1474609,-0.3149414,0.03515625,-0.08691406
121,2.4375,2.125,-7.125,0.9389648,-0.3325195,-0.1513672,-0.3164063,0.03515625,-0.08837891
125,3.875,0.9375,-6.5,0.9389648,-0.3095703,-0.1513672,-0.3164063,0.03369141,-0.08984375
129,3.1875,1,-7.5,0.9501953,-0.2861328,-0.1435547,-0.3149414,0.03369141,-0.09082031
133,2.5,0.5625,-6.8125,0.9389648,-0.2900391,-0.1591797,-0.3149414,0.03271484,-0.08837891
137,1.125,-0.5625,-4.6875,0.9389648,-0.2783203,-0.1552734,-0.3164063,0.03027344,-0.09082031
141,-0.8125,-0.625,-3.3125,0.9580078,-0.2822266,-0.1362305,-0.3164063,0.03125,-0.08837891
145,-0.4375,0.5625,-2.875,0.9619141,-0.3056641,-0.1435547,-0.3149414,0.03125,-0.08984375
149,1.75,2.0625,-1.125,0.9580078,-0.3208008,-0.1401367,-0.3173828,0.03027344,-0.09082031
153,3.1875,1.4375,-0.5,0.9389648,-0.3095703,-0.1245117,-0.3173828,0.02880859,-0.09082031
157,2.0625,0.5625,-0.625,0.9423828,-0.2822266,-0.128418,-0.3164063,0.03125,-0.09082031
161,-1.0625,-0.375,-2,0.9350586,-0.2939453,-0.1206055,-0.3164063,0.03125,-0.09082031
165,-1.25,-2.375,-1.5625,0.9311523,-0.3017578,-0.1362305,-0.3173828,0.03027344,-0.08837891
169,0.5625,-3.125,-1,0.9501953,-0.3056641,-0.1362305,-0.3173828,0.03027344,-0.09082031
173,-3.625,-2.4375,-6.8125,1.206055,-0.4375,-0.2475586,-0.3173828,0.02880859,-0.08691406
177,6.125,0.875,-7,1.194336,-0.4140625,-0.1938477,-0.3173828,0.02880859,-0.08447266
181,8.8125,3.5625,-9.0625,1.171387,-0.3754883,-0.1435547,-0.3173828,0.02880859,-0.08544922
185,6.4375,0.25,-9,1.101563,-0.3442383,-0.09765625,-0.3173828,0.02734375,-0.08691406
189,-1.9375,-8.875,-13.0625,1.078125,-0.340332,-0.07080078,-0.3173828,0.02490234,-0.08544922
193,-11.5,-20.125,-19.5625,1.097656,-0.3481445,-0.1054688,-0.3188477,0.02490234,-0.08544922
197,-16.5625,-29.8125,-24,1.206055,-0.4179688,-0.1513672,-0.3198242,0.02392578,-0.08544922
201,-16.8125,-34.0625,-27,1.330078,-0.4257813,-0.1899414,-0.3188477,0.02148438,-0.08007813
205,-14.3125,-35.25,-27.375,1.361328,-0.46875,-0.2055664,-0.3208008,0.01757813,-0.07617188
209,-9.5625,-35.3125,-26.3125,1.364746,-0.4648438,-0.2016602,-0.3222656,0.01367188,-0.07177734
213,-5.9375,-34.75,-27.375,1.364746,-0.4648438,-0.2016602,-0.3232422,0.01367188,-0.07080078
217,-5.75,-35.6875,-31.0625,1.310547,-0.3833008,-0.2167969,-0.3222656,0.01269531,-0.06640625
221,-9.6875,-37.0625,-33.1875,1.283691,-0.3481445,-0.2167969,-0.3256836,0.007324219,-0.06103516
225,-12.4375,-37,-35.25,1.279785,-0.3095703,-0.2285156,-0.3271484,0.006347656,-0.06103516
229,-11,-33.125,-34.25,1.271973,-0.2431641,-0.2246094,-0.3295898,0.001464844,-0.05712891
233,-11.5625,-24.875,-30.125,1.198242,-0.1967773,-0.2128906,-0.328125,0.001464844,-0.05273438
237,-15.25,-21.1875,-29.8125,1.132324,-0.1347656,-0.1977539,-0.3271484,-0.0004882813,-0.05419922
241,-17,-26.0625,-33.5,1.101563,-0.1308594,-0.1743164,-0.3295898,-0.004394531,-0.05029297
245,-13.0625,-34.375,-31.6875,1.101563,-0.08007813,-0.2363281,-0.3295898,-0.008300781,-0.04638672
249,-13.5,-34.4375,-31.625,1.19043,0.004882813,-0.2744141,-0.328125,-0.01074219,-0.04052734
253,-17.8125,-28.375,-22.875,1.186523,0.02050781,-0.2744141,-0.3295898,-0.01318359,-0.04052734
257,-17.5625,-16.9375,-20.25,1.163574,-0.06445313,-0.2285156,-0.3305664,-0.01464844,-0.03955078
261,-1,-5.0625,-15.125,1.066406,-0.1269531,-0.1669922,-0.3271484,-0.01806641,-0.03808594
265,10.5,1.625,-15.8125,0.9462891,-0.09570313,-0.1821289,-0.3305664,-0.01953125,-0.03662109
269,15.6875,3.9375,-17.8125,0.8652344,-0.1152344,-0.2246094,-0.3305664,-0.01953125,-0.03808594
273,16.25,4.1875,-23.125,0.8920898,-0.07617188,-0.2978516,-0.3305664,-0.02197266,-0.03662109
277,13.1875,4.4375,-23.5625,1.008301,0.05908203,-0.3476563,-0.3305664,-0.0234375,-0.03955078
281,-2.8125,12.375,-21.125,1.074219,0.1914063,-0.3974609,-0.3295898,-0.02685547,-0.03955078
285,-25.4375,21.5,-15.125,0.9501953,0.1835938,-0.4399414,-0.328125,-0.02685547,-0.03955078
289,-39.1875,26.875,-9.6875,0.8842773,0.05517578,-0.4555664,-0.3295898,-0.02929688,-0.04199219
294,-45.875,38.6875,-15.25,0.8691406,-0.04882813,-0.4936523,-0.328125,-0.03076172,-0.04492188
298,-38.875,54.5,-10.875,0.9038086,-0.1035156,-0.4667969,-0.3305664,-0.03076172,-0.04736328
302,-30.625,78.9375,9.5625,0.7641602,-0.01806641,-0.4516602,-0.3295898,-0.03320313,-0.05566406
306,-28.5,97.8125,31.0625,0.4389648,-0.03369141,-0.2978516,-0.328125,-0.02832031,-0.0625
310,-33.375,97.5,37.375,0.1831055,-0.01025391,-0.1513672,-0.3256836,-0.02832031,-0.07080078
314,-44.4375,90,31.1875,0.03173828,-0.1035156,0.01708984,-0.324707,-0.02050781,-0.07763672
318,-48.625,72.375,18.9375,-0.02587891,-0.2470703,0.1171875,-0.3208008,-0.01953125,-0.08544922
322,-35.8125,47.25,7.375,0.03564453,-0.402832,0.2133789,-0.3198242,-0.01708984,-0.09082031
326,-10.75,26.125,2.375,0.09375,-0.4570313,0.2441406,-0.3198242,-0.015625,-0.09375
330,16.25,2.4375,-5,0.1210938,-0.4375,0.1518555,-0.3173828,-0.01806641,-0.09521484
334,37,-20.25,-15.3125,0.2568359,-0.2939453,-0.005371094,-0.3188477,-0.01806641,-0.09521484
338,48.1875,-36.125,-15.875,0.3339844,-0.1811523,-0.09765625,-0.3208008,-0.01953125,-0.09521484
342,46.5625,-46.9375,-16.3125,0.3999023,-0.01416016,-0.2783203,-0.3198242,-0.02441406,-0.08984375
346,34.4375,-52.1875,-15.125,0.5395508,0.06298828,-0.4438477,-0.3208008,-0.02587891,-0.08837891
350,21.875,-50.4375,-5.375,0.6289063,0.06689453,-0.5209961,-0.3232422,-0.02685547,-0.08154297
354,7.125,-47.375,1.0625,0.6713867,0.09033203,-0.559082,-0.3232422,-0.02587891,-0.07763672
358,-6.875,-40.125,7.875,0.6713867,-0.09179688,-0.4975586,-0.324707,-0.02587891,-0.07470703
362,-6,-33.8125,8.5625,0.6518555,-0.1420898,-0.3325195,-0.3256836,-0.02441406,-0.07080078
366,-0.9375,-32.1875,6.6875,0.578125,-0.2045898,-0.2055664,-0.3256836,-0.02441406,-0.06640625
370,1.6875,-34.25,2.5,0.5126953,-0.1577148,-0.109375,-0.324707,-0.02587891,-0.0625
374,-5.5,-39.125,2.875,0.4658203,-0.1035156,-0.08203125,-0.324707,-0.02441406,-0.05957031
378,-11.875,-49.5625,12.5625,0.4116211,-0.1191406,-0.109375,-0.328125,-0.02197266,-0.05566406
382,-20.875,-59.625,9.75,0.5820313,-0.1035156,-0.2055664,-0.328125,-0.02050781,-0.05175781
386,-16.75,-56.125,8.9375,0.7060547,-0.2163086,-0.2016602,-0.3271484,-0.02050781,-0.04638672
390,-7.5625,-45.5625,9.8125,0.7529297,-0.2470703,-0.1938477,-0.3305664,-0.02050781,-0.04052734
394,9.75,-36.8125,8.5,0.675293,-0.324707,-0.1591797,-0.328125,-0.01953125,-0.03662109
398,23.5,-36.6875,4.8125,0.7138672,-0.1459961,-0.1669922,-0.3295898,-0.01708984,-0.03369141
402,25.875,-41.1875,14.5,0.7568359,-0.01806641,-0.1743164,-0.328125,-0.01806641,-0.02832031
406,13.8125,-37.1875,31.5625,0.8149414,0.07470703,-0.2207031,-0.3295898,-0.01806641,-0.02734375
410,-7.5,-31.4375,35.4375,0.8691406,0.1137695,-0.2978516,-0.3295898,-0.01318359,-0.02587891
414,-20.1875,-25.4375,31.625,0.8574219,-0.01416016,-0.3208008,-0.328125,-0.008300781,-0.01904297
418,-21.1875,-22.625,21.75,0.9892578,-0.1074219,-0.3168945,-0.3295898,-0.006835938,-0.02050781
423,-18.125,-9.5625,13.125,1.070313,-0.1577148,-0.3745117,-0.3295898,-0.003417969,-0.01757813
427,-11.8125,0.6875,20.625,1.097656,-0.2241211,-0.3862305,-0.328125,-0.001953125,-0.01757813
431,-6.875,4.125,21.375,0.9658203,-0.3095703,-0.3666992,-0.3305664,-0.001953125,-0.01757813
435,-0.5625,9.8125,10.875,1.074219,-0.3208008,-0.3286133,-0.328125,0,-0.02050781
439,14.125,11.875,6.8125,1.082031,-0.3364258,-0.3208008,-0.328125,0.002441406,-0.01904297
443,21.875,18.25,-1.4375,1.147949,-0.2470703,-0.34375,-0.3295898,0,-0.01904297
447,18,23.125,-7.1875,1.217773,-0.2241211,-0.3862305,-0.328125,0.001464844,-0.02050781
451,20.125,26.4375,-16.75,1.16748,-0.3754883,-0.3706055,-0.3295898,0,-0.02587891
455,45,30.625,-15.5,1.271973,-0.4140625,-0.3666992,-0.3295898,-0.0004882813,-0.02734375
459,67.375,42.25,-16.8125,1.330078,-0.2163086,-0.394043,-0.3271484,-0.006835938,-0.03271484
463,66.8125,49.125,-15.9375,1.283691,-0.01025391,-0.4282227,-0.328125,-0.005859375,-0.03808594
467,41,51.75,-23.25,1.252441,0.1137695,-0.4594727,-0.328125,-0.006835938,-0.03955078
471,15.75,47.125,-27.625,1.271973,0.01660156,-0.4169922,-0.3295898,-0.01074219,-0.04638672
475,4.875,47.625,-23.6875,1.411621,-0.09960938,-0.3862305,-0.3295898,-0.01171875,-0.04882813
479,4.8125,51,-13,1.477539,-0.1967773,-0.3901367,-0.328125,-0.015625,-0.05419922
483,1.375,53.5,-9.625,1.570313,-0.2275391,-0.4321289,-0.328125,-0.015625,-0.06103516
487,3,49.75,-9.1875,1.585938,-0.3173828,-0.4321289,-0.3271484,-0.01708984,-0.06542969
491,3.8125,48.125,-10.8125,1.666992,-0.3286133,-0.3745117,-0.328125,-0.015625,-0.06640625
495,5.8125,41.1875,-8.3125,1.63623,-0.340332,-0.309082,-0.3271484,-0.01806641,-0.07324219
499,7,30.75,-8.3125,1.582031,-0.3598633,-0.2631836,-0.3256836,-0.01953125,-0.07861328
503,8.1875,13.6875,-9.5625,1.52002,-0.2900391,-0.2436523,-0.3271484,-0.02050781,-0.08007813
507,1.6875,0.75,-15.3125,1.543457,-0.2006836,-0.2475586,-0.3232422,-0.02197266,-0.08007813
511,-5.4375,-4.25,-17.0625,1.570313,-0.1616211,-0.2207031,-0.3271484,-0.0234375,-0.08154297
515,-11.25,-3.5625,-14,1.527832,-0.1152344,-0.2553711,-0.324707,-0.02441406,-0.08007813
519,-13.4375,-4.9375,-13.4375,1.399902,-0.1577148,-0.2631836,-0.3256836,-0.02587891,-0.07763672
523,-9.0625,-5.5625,-18.3125,1.364746,-0.1694336,-0.2670898,-0.3271484,-0.02685547,-0.07861328
527,-2.0625,-7.75,-19.25,1.376465,-0.1381836,-0.2436523,-0.3271484,-0.02929688,-0.07763672
531,0.4375,-9.375,-13.375,1.380371,-0.01416016,-0.2592773,-0.3271484,-0.03173828,-0.07617188
535,-13.875,-7.5625,-15.5625,1.454102,0.07470703,-0.2397461,-0.3271484,-0.03076172,-0.07617188
539,-28,-10.375,-21.75,1.326172,-0.01806641,-0.2128906,-0.3295898,-0.03076172,-0.07617188
543,-31.3125,-21.25,-34.8125,1.310547,-0.07617188,-0.1938477,-0.3271484,-0.03320313,-0.07617188
547,-32,-28.625,-46.1875,1.395996,-0.002441406,-0.1899414,-0.328125,-0.03564453,-0.06933594
552,-34.25,-24.5625,-37.5,1.52002,0.09814453,-0.2822266,-0.3295898,-0.04052734,-0.06933594
556,-42.25,-13.125,-27.75,1.539551,0.1367188,-0.3823242,-0.3295898,-0.04443359,-0.06787109
560,-45.875,-0.875,-20.75,1.48877,0.09814453,-0.3823242,-0.328125,-0.046875,-0.06640625
564,-46.125,5.4375,-18.8125,1.260254,0.15625,-0.4013672,-0.328125,-0.04589844,-0.06640625
568,-46.625,1.0625,-28.75,1.124512,0.09814453,-0.3515625,-0.328125,-0.046875,-0.06787109
572,-57,24.8125,-54.25,1.299316,0.09033203,-0.1708984,-0.328125,-0.05175781,-0.06640625
576,-21.875,29.8125,-17.5625,0.8959961,-0.02587891,-0.1435547,-0.3256836,-0.0546875,-0.06933594
580,-9,24.8125,-8.8125,0.8652344,0.01269531,-0.03613281,-0.3271484,-0.05712891,-0.07177734
584,-12.9375,10.4375,-13.9375,0.7993164,0.3623047,0.04443359,-0.3271484,-0.05712891,-0.07324219
588,-53.6875,-18.5625,-34.5,0.5009766,0.4321289,0.03662109,-0.3256836,-0.05957031,-0.07470703
592,-87.1875,-57.0625,-32.4375,0.4892578,0.253418,-0.1166992,-0.3271484,-0.05957031,-0.07177734
596,-99.9375,-57.25,-10.9375,1.089844,-0.1035156,-0.2705078,-0.3271484,-0.06054688,-0.06933594
600,-79,-8.9375,-6.75,1.527832,-0.1694336,-0.3286133,-0.3271484,-0.05957031,-0.06396484
604,-41.9375,36.875,-44.6875,1.13623,-0.4296875,-0.2324219,-0.328125,-0.06054688,-0.0625
608,-25.875,54.5,-66.375,0.578125,-0.2744141,-0.2246094,-0.3256836,-0.06591797,-0.06933594
612,-31.875,52.875,-59.0625,0.2138672,-0.1772461,-0.1938477,-0.324707,-0.07080078,-0.07177734
616,-35.5,47.1875,-27.75,0.1713867,-0.2509766,-0.1743164,-0.324707,-0.07568359,-0.08007813
620,-23.625,59,-1.0625,0.3652344,-0.2548828,-0.1591797,-0.3208008,-0.07714844,-0.08300781
624,1.875,78.9375,16.625,0.3535156,-0.2006836,-0.05126953,-0.3198242,-0.07714844,-0.08837891
628,13.1875,72.9375,10.625,0.05517578,-0.1733398,0.07128906,-0.3173828,-0.07568359,-0.09765625
632,7.3125,42,0.875,-0.03320313,0.04736328,0.1367188,-0.3188477,-0.07421875,-0.1035156
636,-1.75,10.3125,0.125,0.02832031,-0.06054688,0.1518555,-0.3164063,-0.07421875,-0.105957
640,7.5625,-9.1875,10.75,0.2875977,-0.07617188,0.08642578,-0.3164063,-0.07421875,-0.105957
644,13.25,-10.5,7,0.6791992,0.1333008,-0.1166992,-0.3173828,-0.07324219,-0.1020508
648,10.4375,-5.5,3.5,0.5859375,0.09423828,-0.2285156,-0.3164063,-0.07324219,-0.1035156
652,12.75,-13,12.875,0.4467773,0.07080078,-0.2705078,-0.3164063,-0.07421875,-0.1020508
656,3.4375,-23.375,29.25,0.4428711,0.1640625,-0.3632813,-0.3173828,-0.07080078,-0.1005859
660,-10.1875,-26.1875,46.4375,0.7490234,0.1523438,-0.3359375,-0.3198242,-0.07080078,-0.09912109
664,-7.625,-18.4375,64.125,0.7060547,-0.05273438,-0.2670898,-0.3198242,-0.06591797,-0.09667969
668,2.75,-13.5625,79.5625,0.6982422,-0.1967773,-0.1591797,-0.3188477,-0.05712891,-0.09521484
672,11.75,-2.8125,79.0625,0.8457031,-0.08789063,-0.109375,-0.3232422,-0.05078125,-0.09521484
676,16.8125,-0.75,54.5625,0.7216797,-0.09179688,-0.07470703,-0.3208008,-0.04589844,-0.09521484
681,17.9375,-10.5,39.3125,0.6518555,-0.04882813,-0.1323242,-0.3208008,-0.03955078,-0.09375
685,23.0625,-15.5,19.375,0.6635742,-0.1616211,0.009765625,-0.3222656,-0.03808594,-0.09082031
689,26.8125,-16.8125,10,0.5551758,-0.1381836,0.05175781,-0.3198242,-0.03564453,-0.09082031
693,25.75,-32.1875,1.125,0.4775391,-0.06054688,-0.005371094,-0.3222656,-0.03710938,-0.08837891
697,23.4375,-49.25,8.4375,0.3999023,-0.1113281,-0.04003906,-0.3222656,-0.03564453,-0.08691406
701,23.5625,-60.5625,14.6875,0.7060547,-0.03369141,-0.06689453,-0.324707,-0.03466797,-0.08154297
705,17.3125,-50.25,3.4375,0.6948242,-0.07617188,-0.05517578,-0.3256836,-0.03564453,-0.07470703
709,15.1875,-55.8125,5.5,0.6132813,-0.05273438,-0.05517578,-0.3256836,-0.03564453,-0.07177734
713,17.0625,-59.9375,7.1875,0.7836914,-0.04882813,-0.1054688,-0.3256836,-0.03564453,-0.06396484
717,19.875,-55.0625,13.375,0.8999023,-0.006347656,-0.1513672,-0.3271484,-0.03320313,-0.05859375
721,24.125,-41.5625,18.3125,0.8959961,-0.06835938,-0.1513672,-0.3271484,-0.03173828,-0.05566406
725,37.1875,-42,33.3125,0.7680664,-0.09570313,-0.1669922,-0.328125,-0.02929688,-0.05175781
729,31.625,-47.3125,27.4375,0.8730469,0.1098633,-0.2207031,-0.3295898,-0.02685547,-0.04736328
733,9.125,-45.5,19.4375,1.074219,0.1254883,-0.2744141,-0.3305664,-0.02587891,-0.04492188
737,-0.9375,-33.1875,14.25,1.05127,-0.1191406,-0.2978516,-0.3305664,-0.02441406,-0.04199219
741,22.25,-27.125,14.375,0.9619141,-0.355957,-0.2397461,-0.3305664,-0.0234375,-0.03515625
745,55.9375,-25.6875,21.6875,1.043457,-0.1733398,-0.2475586,-0.331543,-0.02050781,-0.03515625
749,59.3125,-26.0625,32.875,1.023926,0.05517578,-0.309082,-0.3295898,-0.01806641,-0.03271484
753,29.25,-18.6875,29.875,1.13623,0.171875,-0.34375,-0.331543,-0.015625,-0.03271484
757,-0.375,-18.3125,14.6875,1.027832,-0.01416016,-0.3823242,-0.3305664,-0.01318359,-0.03125
761,-2.75,-18.1875,3.3125,1.097656,-0.2314453,-0.3666992,-0.3295898,-0.01171875,-0.02734375
765,24.625,-9.875,8.5,1.182617,-0.3056641,-0.3359375,-0.3305664,-0.01171875,-0.02832031
769,43.125,7.4375,15.6875,1.302734,-0.1655273,-0.4130859,-0.3305664,-0.009277344,-0.02832031
773,39.25,22.4375,16.875,1.26416,-0.08789063,-0.4785156,-0.3295898,-0.008300781,-0.02734375
777,26.5,28.875,9,1.155762,-0.1074219,-0.4902344,-0.3295898,-0.006835938,-0.03369141
781,23.5625,25.625,1.625,1.128418,-0.1772461,-0.4594727,-0.328125,-0.006835938,-0.03662109
785,26.6875,22.9375,7.25,1.179199,-0.1538086,-0.4628906,-0.3295898,-0.006835938,-0.03808594
789,10.0625,26.4375,3.5625,1.291504,-0.08398438,-0.5092773,-0.328125,-0.005859375,-0.04052734
793,-12.875,27.875,-10.5625,1.291504,-0.2353516,-0.5517578,-0.3305664,-0.006835938,-0.04345703
797,-15.5625,28.5625,-24.8125,1.399902,-0.4492188,-0.5092773,-0.3305664,-0.006835938,-0.04345703
801,7,33.9375,-24.1875,1.496582,-0.5385742,-0.4594727,-0.3295898,-0.01074219,-0.04736328
805,32.0625,38.875,-15.5625,1.597656,-0.4804688,-0.4438477,-0.3305664,-0.01074219,-0.05175781
810,44.75,44.3125,-15.1875,1.647949,-0.3833008,-0.4628906,-0.3305664,-0.01464844,-0.05419922
814,48.8125,42.25,-16.5625,1.640137,-0.3134766,-0.4746094,-0.3295898,-0.01806641,-0.06103516
818,39.125,34.25,-19.9375,1.659668,-0.1850586,-0.4594727,-0.3271484,-0.01708984,-0.06396484
822,26.3125,21.125,-23.375,1.63623,-0.1616211,-0.4208984,-0.328125,-0.02050781,-0.06640625
826,20.375,6.4375,-24.125,1.655762,-0.1733398,-0.4013672,-0.328125,-0.0234375,-0.06933594
830,21.1875,-1.25,-17.5625,1.69043,-0.1308594,-0.378418,-0.328125,-0.02441406,-0.06933594
834,15.75,-5.1875,-10.75,1.644043,-0.002441406,-0.359375,-0.3271484,-0.02832031,-0.06787109
838,1.3125,-11.125,-4.375,1.558594,0.07470703,-0.2900391,-0.328125,-0.02685547,-0.06542969
842,-14.5625,-18.1875,-1,1.454102,0.02832031,-0.2363281,-0.328125,-0.02929688,-0.06542969
846,-17.625,-23.625,0.5,1.403809,-0.1113281,-0.2016602,-0.328125,-0.03076172,-0.06396484
850,-15.1875,-28.25,-3.3125,1.368652,-0.2045898,-0.2207031,-0.328125,-0.02832031,-0.06103516
854,-7.375,-34.0625,-9.8125,1.39209,-0.2939453,-0.2089844,-0.3305664,-0.02929688,-0.05957031
858,8.625,-36.6875,-13.3125,1.446289,-0.3173828,-0.1860352,-0.3295898,-0.02929688,-0.05712891
862,16.875,-34.4375,-15.25,1.508301,-0.1420898,-0.2167969,-0.3295898,-0.03076172,-0.05029297
866,-1,-30.6875,-21.375,1.46582,0.02441406,-0.2207031,-0.331543,-0.03320313,-0.04638672
870,-18,-32.0625,-24.6875,1.415527,-0.01416016,-0.2436523,-0.3305664,-0.03466797,-0.04736328
874,-22,-30.3125,-36.3125,1.376465,-0.1113281,-0.2670898,-0.3305664,-0.03955078,-0.04199219
878,-5,-26,-38.375,1.372559,-0.09570313,-0.2900391,-0.331543,-0.04052734,-0.03955078
882,3.8125,-12.375,-23.5625,1.368652,0.1254883,-0.3325195,-0.3295898,-0.04589844,-0.03808594
886,-21.0625,1.8125,-23.75,1.101563,0.4243164,-0.394043,-0.3295898,-0.046875,-0.03808594
890,-68.0625,-4.25,-31.5625,0.8222656,0.5683594,-0.3476563,-0.3295898,-0.046875,-0.03662109
894,-111.5,-14.6875,-32.6875,0.8959961,0.4790039,-0.3745117,-0.331543,-0.05078125,-0.03955078
898,-123.9375,-11.875,-28,1.023926,0.07080078,-0.3823242,-0.3305664,-0.05322266,-0.03662109
902,-82.9375,13.75,-8.9375,1.004395,-0.5268555,-0.3398438,-0.3305664,-0.05566406,-0.03662109
906,-1.1875,41.125,4.0625,0.8300781,-0.6083984,-0.3632813,-0.3295898,-0.0546875,-0.03955078
910,55.0625,54.6875,-1.0625,0.6674805,-0.2509766,-0.3974609,-0.328125,-0.05566406,-0.04345703
914,41.125,62.75,-6.4375,0.609375,0.4594727,-0.3208008,-0.3295898,-0.05566406,-0.04736328
918,-38,59.875,0.9375,0.3691406,0.6655273,-0.2705078,-0.328125,-0.05712891,-0.05419922
922,-97.6875,54.5625,2.625,0.2915039,0.2299805,-0.1977539,-0.3271484,-0.05566406,-0.05957031
926,-92.9375,55.5625,4.8125,0.2568359,-0.355957,-0.1821289,-0.3271484,-0.0546875,-0.06542969
930,-43.5,61.375,17.4375,0.3886719,-0.4453125,-0.2285156,-0.324707,-0.05322266,-0.06933594
934,-12.5625,82.875,16.9375,0.527832,-0.3325195,-0.1743164,-0.324707,-0.05078125,-0.07763672
939,-0.875,94.0625,27.25,0.2993164,-0.1616211,-0.08203125,-0.3232422,-0.05078125,-0.08300781
943,-8.9375,83.5625,28.0625,0.05908203,-0.1928711,0.01708984,-0.3222656,-0.04589844,-0.09082031
947,-1.9375,48.5625,6.4375,0.004882813,-0.371582,-0.02441406,-0.3208008,-0.04443359,-0.09912109
951,25.3125,28.9375,-16.3125,0.3266602,-0.3754883,-0.04394531,-0.3198242,-0.04296875,-0.1035156
955,50.1875,21.375,-19.0625,0.5239258,-0.2045898,-0.08984375,-0.3188477,-0.04833984,-0.1035156
959,52.4375,19.0625,-10.4375,0.559082,0.105957,-0.1669922,-0.3164063,-0.05078125,-0.1074219
963,25.6875,10.1875,-6.6875,0.5161133,0.2885742,-0.2167969,-0.3164063,-0.05078125,-0.105957
967,10.125,0.9375,0.125,0.4853516,0.1020508,-0.1206055,-0.3164063,-0.05322266,-0.1088867
971,11,-10.0625,6.6875,0.5317383,0.1254883,-0.09765625,-0.3164063,-0.05175781,-0.1088867
975,-0.375,-22,12.375,0.5356445,0.1796875,-0.109375,-0.3188477,-0.05175781,-0.105957
979,-22.625,-34.0625,12.375,0.5629883,0.1796875,-0.1474609,-0.3173828,-0.05175781,-0.1035156
983,-32.875,-42.6875,12.875,0.6132813,-0.02587891,-0.1591797,-0.3173828,-0.04931641,-0.09912109
987,-23.75,-36.75,11.75,0.7333984,-0.1694336,-0.1362305,-0.3198242,-0.046875,-0.09912109
991,1.1875,-34.375,20.1875,0.675293,-0.2626953,-0.1054688,-0.3198242,-0.046875,-0.09228516
995,15.1875,-30.875,21.875,0.7294922,-0.06054688,-0.07861328,-0.3222656,-0.04296875,-0.08984375
999,4.125,-31.6875,18.0625,0.625,0.06689453,-0.06298828,-0.3222656,-0.04296875,-0.08691406
1003,-8.625,-40.0625,24.1875,0.4814453,-0.01416016,-0.03222656,-0.3232422,-0.03955078,-0.08544922
1007,-10.8125,-49.6875,17.1875,0.527832,-0.1616211,-0.05126953,-0.3256836,-0.03710938,-0.08154297
1011,4.875,-48,5.9375,0.6479492,-0.2978516,-0.07861328,-0.3232422,-0.03564453,-0.07617188
1015,30.9375,-40.25,14.5625,0.7758789,-0.2626953,-0.1015625,-0.3256836,-0.03710938,-0.07177734
1019,37.25,-20.6875,22.125,0.7993164,-0.1035156,-0.1323242,-0.3271484,-0.03466797,-0.07080078
1023,38.0625,-18.9375,36.625,0.5126953,-0.1538086,-0.1206055,-0.324707,-0.03320313,-0.06933594
1027,36.9375,-33,32.625,0.5629883,-0.07617188,-0.1552734,-0.3256836,-0.02929688,-0.06542969
1031,32,-42,20.6875,0.7060547,-0.07226563,-0.1821289,-0.3271484,-0.02832031,-0.06103516
1035,27.125,-39.3125,21.0625,0.7915039,-0.02978516,-0.2016602,-0.328125,-0.02587891,-0.06103516
1039,19.4375,-40.0625,26,0.8652344,0.01269531,-0.2783203,-0.328125,-0.0234375,-0.05419922
1043,14.75,-33.75,26.5625,0.9501953,-0.09179688,-0.2631836,-0.328125,-0.02050781,-0.05175781
1047,16.5625,-27.9375,21.375,0.9736328,-0.1655273,-0.2939453,-0.3295898,-0.02050781,-0.05029297
1051,23.8125,-23.875,12.375,1.02002,-0.2045898,-0.2822266,-0.3295898,-0.01708984,-0.04736328
1055,32.8125,-15.1875,13.75,1.140137,-0.1733398,-0.2475586,-0.3295898,-0.015625,-0.04492188
1059,36.6875,-5,21.125,1.074219,-0.1694336,-0.2207031,-0.3295898,-0.01464844,-0.04638672
1063,38.0625,-0.375,17.75,1.043457,-0.1967773,-0.2089844,-0.3305664,-0.01171875,-0.04345703
1068,31.6875,-1.5625,3.0625,1.02002,-0.1113281,-0.2514648,-0.3305664,-0.01464844,-0.04345703
1072,8.5625,-5.0625,-15.75,1.031738,-0.05273438,-0.3325195,-0.3295898,-0.01464844,-0.04492188
1076,-4.3125,-10.1875,-30.4375,0.9462891,-0.2006836,-0.3129883,-0.3295898,-0.015625,-0.04492188
1080,3.5,-19.8125,-41.9375,0.9116211,-0.2509766,-0.2939453,-0.3305664,-0.01953125,-0.04345703
1084,12.125,-16.25,-50.5,1.241211,-0.04150391,-0.3325195,-0.328125,-0.0234375,-0.04199219
1088,6.0625,1.0625,-38.75,1.314453,0.1333008,-0.3823242,-0.3295898,-0.02587891,-0.04052734
1092,-17.5,7.4375,-34.4375,1.237305,0.2456055,-0.4785156,-0.331543,-0.02929688,-0.04199219
1096,-28.4375,4.1875,-35.875,1.268066,0.02441406,-0.4594727,-0.3295898,-0.03320313,-0.04345703
1100,-11.625,6.25,-26,1.384277,-0.1035156,-0.4902344,-0.331543,-0.03710938,-0.04199219
1104,5.375,23.75,-12.5,1.616699,-0.08789063,-0.5244141,-0.331543,-0.03808594,-0.04199219
1108,13.125,46.625,3.4375,1.647949,-0.07226563,-0.4785156,-0.3330078,-0.03710938,-0.04492188
1112,13.1875,55.625,13.5625,1.516113,-0.1420898,-0.3476563,-0.3305664,-0.03710938,-0.05273438
1116,8,50,12,1.492676,-0.1772461,-0.2705078,-0.3305664,-0.03808594,-0.05566406
1120,0.375,37.375,10.5,1.546875,-0.2241211,-0.2363281,-0.3305664,-0.03710938,-0.05957031
1124,-9.625,21.75,9.6875,1.616699,-0.2084961,-0.2436523,-0.331543,-0.03564453,-0.06396484
1128,-19.4375,1.125,7.8125,1.628418,-0.2509766,-0.2705078,-0.328125,-0.03564453,-0.06542969
1132,-29,-14.75,2,1.779785,-0.2978516,-0.3398438,-0.3305664,-0.03466797,-0.0625
1136,-42.875,-24.125,-6.75,1.969238,-0.4067383,-0.4013672,-0.3295898,-0.03320313,-0.06103516
1140,-43.3125,-33.375,-18.25,2.170898,-0.6513672,-0.3051758,-0.3305664,-0.03466797,-0.05957031
1144,-6.375,-37.625,-32.8125,2.163086,-0.8686523,-0.2016602,-0.3305664,-0.03564453,-0.05712891
1148,57.75,-41.1875,-38,1.980957,-0.7485352,-0.1708984,-0.3305664,-0.03808594,-0.05566406
1152,75.125,-52.9375,-45.875,1.663574,0.08251953,-0.2822266,-0.3330078,-0.04443359,-0.04736328
1156,30.3125,-76.375,-51.0625,1.481445,0.6186523,-0.3325195,-0.3305664,-0.04931641,-0.04492188
1160,-11.75,-87.1875,-44,1.550781,0.5913086,-0.34375,-0.3330078,-0.05175781,-0.03515625
1164,-28.375,-83,-32.4375,1.570313,0.3232422,-0.4130859,-0.3295898,-0.05712891,-0.02832031
1168,-23.25,-69.25,-22.875,1.644043,0.07861328,-0.5478516,-0.3305664,-0.05957031,-0.02148438
1172,15,-48.1875,-12.625,1.527832,-0.2314453,-0.5322266,-0.3295898,-0.06054688,-0.01367188
1176,58.5625,-36,-11.75,1.268066,-0.002441406,-0.5517578,-0.331543,-0.06298828,-0.01074219
1180,45.1875,-37.625,-23.5625,1.105469,0.5175781,-0.4936523,-0.331543,-0.06298828,-0.008300781
1184,-22.6875,-34.9375,-26.6875,1.089844,0.8442383,-0.4594727,-0.3305664,-0.06445313,-0.00390625
1188,-66.625,-26,-14.5625,1.128418,0.4438477,-0.378418,-0.331543,-0.06835938,0
1192,-48.125,-6.8125,4,1.039551,-0.01416016,-0.4013672,-0.3305664,-0.06933594,0
1197,1.9375,6.375,12,0.9155273,-0.2783203,-0.4013672,-0.3305664,-0.06835938,-0.001464844
1201,41.25,18.625,7.0625,0.7993164,0.0009765625,-0.4248047,-0.3305664,-0.06689453,-0.001464844
1205,27.1875,30.125,5.9375,0.6674805,0.3818359,-0.3666992,-0.3305664,-0.06689453,-0.002441406
1209,-22.6875,26.1875,15.0625,0.4970703,0.5913086,-0.3706055,-0.3305664,-0.06689453,-0.006835938
1213,-67.25,29.375,23.0625,0.6518555,0.3271484,-0.2900391,-0.3305664,-0.06445313,-0.009277344
1217,-69.5625,41.5,31.1875,0.5708008,-0.1269531,-0.3208008,-0.3305664,-0.06201172,-0.01074219
1221,-32.8125,44.375,32.3125,0.3305664,-0.453125,-0.359375,-0.3295898,-0.05957031,-0.01611328
1225,0.5625,53.625,26.1875,0.4350586,-0.2705078,-0.394043,-0.3295898,-0.05810547,-0.01904297
1229,-3.6875,62.125,31.25,0.4428711,0.1953125,-0.394043,-0.3295898,-0.05566406,-0.02587891
1233,-55.8125,62.8125,31.875,0.3378906,0.2456055,-0.2783203,-0.3305664,-0.05175781,-0.02978516
1237,-76.6875,45.375,33.8125,0.1518555,-0.1655273,-0.3823242,-0.3295898,-0.04833984,-0.03662109
1241,-65,38.5,15,0.5009766,-0.3637695,-0.7016602,-0.328125,-0.04589844,-0.03955078
1245,-30.6875,74.3125,33.1875,0.9272461,-0.4414063,-0.6787109,-0.3295898,-0.04199219,-0.04345703
1249,-17.375,138.625,51.5,0.6791992,-0.2509766,-0.359375,-0.3271484,-0.03955078,-0.05419922
1253,-32.6875,139.5625,57.125,-0.1069336,-0.3095703,0.1787109,-0.328125,-0.03466797,-0.06396484
1257,-19.9375,85.5625,21.1875,-0.4633789,-0.8496094,0.6904297,-0.3232422,-0.02832031,-0.07763672
1261,66.9375,18.1875,-28.125,-0.2387695,-1.284668,0.7172852,-0.324707,-0.02929688,-0.08300781
1265,135.8125,-17.5,-63.875,0.3925781,-0.4726563,0.1367188,-0.3232422,-0.03320313,-0.08447266
1269,118.875,-21,-50.4375,0.6210938,0.3974609,-0.112793,-0.3232422,-0.04296875,-0.08300781
1273,55.375,-27.8125,-28.375,0.6328125,0.7275391,-0.4438477,-0.324707,-0.04931641,-0.08007813
1277,5.6875,-37.375,-4.75,0.7138672,0.5214844,-0.6708984,-0.3232422,-0.05078125,-0.07617188
1281,-11.625,-31,12,0.7993164,0.2573242,-0.7441406,-0.324707,-0.05078125,-0.07470703
1285,-24.8125,-21.6875,24.1875,1.000488,0.2265625,-0.7709961,-0.324707,-0.04931641,-0.07080078
1289,-39.4375,-3.25,26.25,0.9501953,0.04394531,-0.6708984,-0.3232422,-0.046875,-0.06933594
1293,-38.6875,3.6875,27.25,0.8652344,-0.1655273,-0.4785156,-0.324707,-0.04199219,-0.07080078
1297,-26.1875,6.875,24.6875,0.7138672,-0.3442383,-0.2705078,-0.324707,-0.03955078,-0.06787109
1301,-5.3125,-0.875,23.125,0.574707,-0.3833008,-0.08984375,-0.3256836,-0.03710938,-0.07080078
1305,5.8125,-14.0625,14.8125,0.574707,-0.2587891,-0.06298828,-0.3256836,-0.03710938,-0.06787109
1309,-2,-22,1.6875,0.644043,-0.1074219,-0.09375,-0.324707,-0.03466797,-0.06640625
1313,-7.6875,-26.9375,3.5,0.659668,-0.05273438,-0.1323242,-0.3256836,-0.03320313,-0.06640625
1317,-16,-24.0625,0.9375,0.7954102,-0.05273438,-0.1474609,-0.3256836,-0.03320313,-0.06396484
1321,-3.5625,-20.375,8.0625,0.6171875,-0.2314453,-0.112793,-0.3271484,-0.03173828,-0.05957031
1326,10.3125,-25.6875,14.1875,0.5317383,-0.08398438,-0.08203125,-0.3295898,-0.03320313,-0.06103516
1330,1.1875,-35.75,11.9375,0.5629883,0.06689453,-0.112793,-0.3295898,-0.03076172,-0.05566406
1334,-14.5625,-37.1875,9.5625,0.6831055,0.008789063,-0.0859375,-0.328125,-0.02929688,-0.05419922
1338,-18.375,-31.375,9.0625,0.6982422,-0.1113281,-0.09375,-0.3295898,-0.02929688,-0.05175781
1342,-3.8125,-25.5,16.75,0.690918,-0.2939453,-0.05517578,-0.328125,-0.02832031,-0.04638672
1346,20.3125,-24.75,21.1875,0.5126953,-0.340332,-0.06298828,-0.3295898,-0.02587891,-0.04638672
1350,39.25,-34.4375,26.125,0.5200195,-0.1347656,-0.07080078,-0.328125,-0.0234375,-0.04345703
1354,24.4375,-45.625,20.4375,0.6171875,0.1098633,-0.1669922,-0.3295898,-0.02197266,-0.03515625
1358,-2.875,-43.0625,20.6875,0.7836914,0.08251953,-0.2055664,-0.3295898,-0.01806641,-0.03515625
1362,0,-43.5625,34.75,0.6518555,-0.355957,-0.1669922,-0.3295898,-0.01953125,-0.03125
1366,20.5625,-46.3125,21.875,0.7568359,-0.3442383,-0.2670898,-0.328125,-0.01464844,-0.02832031
1370,40.125,-49.0625,24.125,0.8574219,-0.2666016,-0.309082,-0.3271484,-0.01171875,-0.02294922
1374,38.1875,-38.875,20.4375,0.9892578,-0.01806641,-0.3745117,-0.3305664,-0.01074219,-0.02050781
1378,12.125,-26.8125,21.1875,0.9155273,0.09033203,-0.3974609,-0.3295898,-0.008300781,-0.01904297
1382,-15.125,-26.6875,17.25,0.8378906,0.03613281,-0.4248047,-0.3305664,-0.006835938,-0.01220703
1386,-34.375,-21.25,9.8125,1.066406,-0.03759766,-0.4902344,-0.3305664,-0.004394531,-0.01220703
1390,-34.5625,-11,8.5625,1.085938,-0.2783203,-0.5439453,-0.328125,-0.003417969,-0.008300781
1394,-16,8.8125,1.0625,1.244629,-0.4140625,-0.5629883,-0.3295898,-0.003417969,-0.009277344
1398,19.3125,30.0625,0.8125,1.268066,-0.453125,-0.4863281,-0.3295898,-0.003417969,-0.009277344
1402,50.25,42.875,6.6875,1.252441,-0.1889648,-0.4438477,-0.3305664,-0.003417969,-0.01464844
1406,49.125,51.6875,12.625,1.318359,0.1254883,-0.4282227,-0.331543,-0.001953125,-0.02050781
1410,13.1875,58.8125,13.875,1.368652,0.2265625,-0.4399414,-0.3295898,-0.0004882813,-0.02294922
1414,-19.125,64.4375,12.3125,1.372559,-0.06445313,-0.3901367,-0.328125,0.001464844,-0.02978516
1418,-12.625,62.6875,6.625,1.357422,-0.4882813,-0.3398438,-0.328125,0.001464844,-0.03662109
1422,17.8125,55,3.25,1.484863,-0.5073242,-0.3398438,-0.328125,0.001464844,-0.04052734
1426,34,53.75,-0.4375,1.616699,-0.3286133,-0.3515625,-0.328125,0.001464844,-0.04492188
1430,26.25,51.6875,0.0625,1.666992,-0.1967773,-0.378418,-0.3256836,0.001464844,-0.05175781
1434,5.75,47.25,1.0625,1.616699,-0.1459961,-0.378418,-0.3271484,0,-0.05419922
1438,-7.1875,35.5,0.6875,1.582031,-0.2978516,-0.3051758,-0.3256836,0.001464844,-0.05957031
1442,-2.8125,24.75,-0.9375,1.620605,-0.4335938,-0.2324219,-0.3256836,0,-0.06396484
1446,6.1875,12.625,-2.3125,1.585938,-0.4375,-0.2207031,-0.3271484,0.001464844,-0.06396484
1450,9.5625,0.9375,-10.5625,1.582031,-0.4492188,-0.2744141,-0.3271484,0.002441406,-0.06542969
1455,13.8125,-7.5,-18.6875,1.585938,-0.3793945,-0.2592773,-0.3256836,-0.0004882813,-0.06396484
1459,8.6875,-14.4375,-22.875,1.543457,-0.1889648,-0.2475586,-0.3271484,-0.004394531,-0.06542969
1463,-2,-19.5,-20.125,1.512207,-0.1035156,-0.2324219,-0.3271484,-0.004394531,-0.06396484
1467,-8.8125,-27.1875,-18.0625,1.477539,-0.1152344,-0.2475586,-0.328125,-0.006835938,-0.06103516
1471,-7.125,-39.125,-16.0625,1.546875,-0.1850586,-0.2592773,-0.328125,-0.008300781,-0.05957031
1475,-8.625,-42.75,-19.8125,1.686523,-0.2822266,-0.2978516,-0.3271484,-0.009277344,-0.05419922
1479,-2.4375,-41.875,-20.1875,1.655762,-0.3676758,-0.2978516,-0.3295898,-0.01074219,-0.04736328
1483,14.375,-46.4375,-19.3125,1.5625,-0.3911133,-0.1860352,-0.3295898,-0.01318359,-0.04882813
1487,13.1875,-48.3125,-38,1.454102,-0.1308594,-0.2285156,-0.328125,-0.015625,-0.04345703
1491,-5.1875,-47.8125,-55.1875,1.454102,-0.09570313,-0.2670898,-0.3305664,-0.02050781,-0.03808594
1495,-0.5625,-46.8125,-64.6875,1.395996,-0.3989258,-0.3554688,-0.3330078,-0.02197266,-0.03515625
1499,53,-39.875,-58.375,1.539551,-0.5,-0.3398438,-0.3295898,-0.02929688,-0.03125
1503,89.375,-18.125,-40.9375,1.59375,0.07861328,-0.4208984,-0.3305664,-0.03710938,-0.02734375
1507,52.875,-8.875,-21.9375,1.341797,0.824707,-0.5786133,-0.331543,-0.03955078,-0.02587891
1511,-43.3125,-13.625,-36,1.194336,1.003418,-0.7167969,-0.3305664,-0.04052734,-0.02441406
1515,-91.75,-21.6875,-44.0625,1.268066,0.2070313,-0.628418,-0.331543,-0.04589844,-0.02294922
1519,-45.3125,-4.125,-31.125,1.314453,-0.4921875,-0.5092773,-0.3330078,-0.04931641,-0.02148438
1523,39,28.4375,0.5625,1.233398,-0.503418,-0.3286133,-0.331543,-0.04931641,-0.02294922
1527,72.875,54.4375,16.125,0.8300781,0.04003906,-0.2631836,-0.331543,-0.04931641,-0.02734375
1531,17.5,40.9375,0.375,0.4658203,0.6923828,-0.2705078,-0.328125,-0.04931641,-0.02978516
1535,-58.625,16.625,-20.5625,0.4736328,0.4633789,-0.2055664,-0.331543,-0.05078125,-0.03369141
1539,-82.125,15.3125,-19.5,0.690918,-0.04541016,-0.2246094,-0.331543,-0.05175781,-0.03515625
1543,-45.9375,37.6875,-0.4375,0.7451172,-0.4140625,-0.2324219,-0.3295898,-0.0546875,-0.03808594
1547,-3.6875,69.125,18.375,0.7177734,-0.3325195,-0.2783203,-0.3295898,-0.05175781,-0.04199219
1551,26.875,93.5625,41.875,0.3339844,-0.1347656,-0.2514648,-0.328125,-0.05078125,-0.05175781
1555,-5.375,86.25,41.875,-0.03710938,0.4086914,-0.2670898,-0.328125,-0.04589844,-0.05712891
1559,-73,61.9375,22.6875,0.04736328,0.253418,-0.2285156,-0.3256836,-0.04296875,-0.06542969
1563,-94.5625,56.375,17.4375,0.3227539,-0.3173828,-0.2397461,-0.3232422,-0.03955078,-0.06933594
1567,-61.625,74.3125,21.8125,0.5239258,-0.6552734,-0.1474609,-0.324707,-0.03808594,-0.07470703
1571,-19.5,88,34.4375,0.2373047,-0.6977539,-0.03613281,-0.3232422,-0.03320313,-0.08154297
1575,12.5,73,34.8125,0.02832031,-0.5424805,0.140625,-0.3208008,-0.03076172,-0.09228516
1579,22.625,39.4375,10,0.03173828,-0.371582,0.1904297,-0.3198242,-0.02929688,-0.09667969
1584,29.0625,1.625,-23.125,0.1518555,-0.387207,0.1020508,-0.3198242,-0.03076172,-0.09765625
1588,40.375,-18.8125,-37.25,0.527832,-0.1499023,-0.1591797,-0.3188477,-0.03320313,-0.09912109
1592,39.625,-16.6875,-22.875,0.7333984,0.09033203,-0.3359375,-0.3198242,-0.03710938,-0.09667969
1596,26.25,-9.1875,-1.5,0.7875977,0.1757813,-0.394043,-0.3198242,-0.03955078,-0.09765625
1600,10.3125,-8.4375,11.8125,0.6557617,0.1601563,-0.4438477,-0.3208008,-0.04052734,-0.09375
1604,-10.3125,-16.6875,12.9375,0.6674805,0.1796875,-0.4594727,-0.3188477,-0.03955078,-0.09521484
1608,-26.125,-18.625,12.5,0.7490234,-0.006347656,-0.4208984,-0.3208008,-0.03710938,-0.09375
1612,-21.0625,-14.375,14.3125,0.7333984,-0.2084961,-0.3359375,-0.3222656,-0.03466797,-0.09082031
1616,-7.6875,-14.75,17.0625,0.7060547,-0.2744141,-0.3012695,-0.3222656,-0.03320313,-0.09082031
1620,0.8125,-13.3125,16.125,0.7138672,-0.2006836,-0.2744141,-0.3222656,-0.03320313,-0.08691406
1624,-5.8125,-16.5625,10.625,0.6674805,-0.1113281,-0.2822266,-0.3232422,-0.03076172,-0.08544922
1628,-13.5,-18.6875,6.4375,0.7099609,-0.1308594,-0.2128906,-0.3222656,-0.03076172,-0.08447266
1632,-7.5625,-14.1875,8.625,0.6831055,-0.2275391,-0.1323242,-0.3222656,-0.02832031,-0.08300781
1636,8.8125,-16.625,9.875,0.5087891,-0.2705078,-0.05517578,-0.3208008,-0.02832031,-0.08154297
1640,17.0625,-29.875,2.75,0.4853516,-0.08398438,-0.0859375,-0.3232422,-0.02587891,-0.08007813
1644,2.25,-36.3125,-14.6875,0.6171875,0.105957,-0.1669922,-0.3256836,-0.02832031,-0.07763672
1648,-14,-31.5,-18,0.7797852,0.05908203,-0.2128906,-0.3256836,-0.02832031,-0.06933594
1652,-13.25,-6.5,-10.125,0.9116211,-0.1269531,-0.1899414,-0.3256836,-0.02929688,-0.07080078
1656,22,-2.5625,20.4375,0.59375,-0.421875,-0.1552734,-0.3271484,-0.02832031,-0.07177734
1660,62.9375,0.8125,19.6875,0.659668,-0.3598633,-0.1435547,-0.324707,-0.02832031,-0.07080078
1664,71.375,2,22.125,0.690918,0.04394531,-0.1474609,-0.3256836,-0.02832031,-0.06933594
1668,33.75,-7.0625,20.875,0.5473633,0.203125,-0.109375,-0.324707,-0.02587891,-0.07177734
1672,6.5625,-15.9375,24.75,0.690918,0.02832031,-0.0859375,-0.324707,-0.02587891,-0.06933594
1676,4.5,-8.8125,30.0625,0.8999023,-0.1499023,-0.0859375,-0.3256836,-0.02197266,-0.06933594
1680,9.8125,2.8125,37.9375,0.8339844,-0.2045898,-0.09375,-0.324707,-0.02050781,-0.06787109
1684,15.875,2.375,30.5625,0.8574219,-0.2045898,-0.05126953,-0.3271484,-0.015625,-0.06933594
1688,19.8125,1.875,25.4375,0.8769531,-0.1113281,-0.07861328,-0.324707,-0.01464844,-0.06787109
1692,10.25,7.875,25.5625,1.089844,0.0009765625,-0.109375,-0.324707,-0.01171875,-0.06933594
1696,0,8.8125,27.8125,0.8920898,-0.1420898,-0.1708984,-0.3222656,-0.008300781,-0.07177734
1700,-2.25,3.1875,15.9375,0.9619141,-0.2275391,-0.1630859,-0.324707,-0.008300781,-0.07080078
1704,6.5625,-0.75,13.375,1.008301,-0.1967773,-0.1362305,-0.3256836,-0.003417969,-0.07470703
1708,8.375,-3.75,11.625,1.113281,-0.03369141,-0.08984375,-0.3256836,-0.004394531,-0.07177734
1713,-6.6875,9.1875,9.25,1.244629,-0.08007813,-0.1591797,-0.3271484,-0.003417969,-0.07177734
1717,-8.375,17.875,6.375,1.186523,-0.2705078,-0.1743164,-0.324707,-0.0004882813,-0.07324219
1721,-2,11.5,-18.375,1.089844,-0.3286133,-0.1860352,-0.3256836,-0.001953125,-0.07470703
1725,5.0625,15.375,-27.8125,1.384277,-0.1928711,-0.1362305,-0.3232422,-0.004394531,-0.07470703
1729,-3.4375,37.0625,-28.75,1.550781,-0.07617188,-0.1743164,-0.3232422,-0.006835938,-0.07861328
1733,-9.1875,60.875,-22.75,1.492676,-0.324707,-0.1743164,-0.3256836,-0.01074219,-0.08154297
1737,12.8125,44.5625,0.625,0.9038086,-0.6201172,-0.1591797,-0.3222656,-0.01171875,-0.08691406
1741,24.0625,31.3125,-23.75,1.244629,-0.2314453,-0.112793,-0.3208008,-0.01464844,-0.09082031
1745,21.9375,27,-13.75,1.368652,-0.05273438,-0.02050781,-0.3208008,-0.015625,-0.09228516
1749,-0.6875,23.875,-8.9375,1.310547,0.09814453,-0.06689453,-0.3198242,-0.01708984,-0.09375
1753,-30.875,10.875,-7.625,1.388184,0.08251953,-0.1166992,-0.3222656,-0.015625,-0.09765625
1757,-39.8125,1.9375,-8.75,1.558594,-0.1694336,-0.1669922,-0.3208008,-0.015625,-0.09765625
1761,-24.25,7.75,-0.875,1.775879,-0.2978516,-0.2016602,-0.3222656,-0.01708984,-0.09765625
1765,-9,15.125,8.1875,1.791016,-0.2900391,-0.2089844,-0.3208008,-0.015625,-0.09912109
1769,-7.25,16.5625,10,1.775879,-0.2548828,-0.1977539,-0.3208008,-0.01464844,-0.09912109
1773,-10.625,6.1875,9.75,1.628418,-0.2202148,-0.1669922,-0.3208008,-0.01318359,-0.1005859
1777,-19.5625,-15.4375,0.125,1.597656,-0.2163086,-0.1323242,-0.3222656,-0.01171875,-0.1020508
1781,-23.6875,-25.25,-9.125,1.698242,-0.3095703,-0.08203125,-0.3208008,-0.01171875,-0.09912109
1785,-10.625,-23.375,-8.875,1.752441,-0.4101563,-0.04003906,-0.3208008,-0.01171875,-0.09912109
1789,12.0625,-17.5,-2.5625,1.666992,-0.387207,-0.02050781,-0.3232422,-0.01464844,-0.09521484
1793,16.5625,-24.75,-7.75,1.458008,-0.2392578,-0.009277344,-0.3232422,-0.01464844,-0.09375
1797,14.9375,-48.6875,-17.75,1.299316,-0.1269531,0.02490234,-0.3222656,-0.015625,-0.09228516
1801,1.625,-73.8125,-28.0625,1.368652,0.06298828,0.01367188,-0.3232422,-0.01708984,-0.08544922
1805,-18.75,-82.5625,-25.3125,1.508301,0.1293945,-0.0859375,-0.324707,-0.02050781,-0.07763672
1809,-26,-77,-23.25,1.686523,-0.08398438,-0.1401367,-0.3271484,-0.0234375,-0.07177734
1813,-1.5625,-71.9375,-15.8125,1.492676,-0.324707,-0.1362305,-0.3271484,-0.0234375,-0.06396484
1817,30.875,-77,-21.4375,1.496582,-0.2353516,-0.1708984,-0.3295898,-0.02587891,-0.05859375
1821,33.1875,-80.6875,-33.4375,1.438477,0.04394531,-0.2783203,-0.3305664,-0.02832031,-0.04882813
1825,15,-83.375,-45.3125,1.399902,0.1875,-0.3325195,-0.3305664,-0.03320313,-0.04199219
1829,-7.75,-81.4375,-45.875,1.314453,0.3232422,-0.359375,-0.3305664,-0.03710938,-0.03369141
1833,-26.375,-76.875,-54.9375,1.182617,0.1333008,-0.3325195,-0.331543,-0.03808594,-0.02832031
1837,-20.875,-81.4375,-58.875,1.047363,-0.09179688,-0.4208984,-0.331543,-0.04589844,-0.02050781
1842,-19.4375,-68.75,-66.25,1.19043,-0.05273438,-0.5170898,-0.3295898,-0.05175781,-0.01367188
1846,-16.625,-42.0625,-53.5,1.241211,-0.02197266,-0.6323242,-0.331543,-0.05810547,-0.009277344
1850,5.3125,-6.75,-36.5,1.147949,-0.3637695,-0.4936523,-0.3295898,-0.06201172,-0.006835938
1854,46.4375,32.0625,-29,0.9619141,-0.3017578,-0.3515625,-0.3305664,-0.06298828,-0.006835938
1858,67.8125,36.3125,-41.6875,0.3847656,-0.1308594,-0.2670898,-0.3295898,-0.06835938,-0.008300781
1862,33.125,27.25,-41.5,0.5126953,0.5253906,-0.2861328,-0.328125,-0.07080078,-0.01074219
1866,-35.3125,33.5625,-35.6875,0.5473633,0.4360352,-0.3745117,-0.3295898,-0.07568359,-0.01464844
1870,-40.4375,48.125,-17.5,0.527832,-0.1694336,-0.2744141,-0.3295898,-0.07714844,-0.01757813
1874,-14.1875,67.9375,-5.8125,0.5239258,-0.2124023,-0.2939453,-0.3295898,-0.07958984,-0.02441406
1878,0.75,77.25,2.9375,0.2724609,-0.06835938,-0.2939453,-0.328125,-0.08056641,-0.02978516
1882,-3.625,73.5625,9.5,0.1484375,0.06689453,-0.2324219,-0.328125,-0.07958984,-0.03662109
1886,-32.1875,62.125,5.625,0.1987305,0.1601563,-0.2822266,-0.3232422,-0.07958984,-0.04345703
1890,-53.625,54.8125,13.3125,0.3110352,0.01269531,-0.34375,-0.3256836,-0.07714844,-0.04882813
1894,-51.8125,49.6875,23.5,0.4619141,-0.2470703,-0.3208008,-0.324707,-0.07714844,-0.05566406
1898,-33.9375,62,20.0625,0.4931641,-0.3598633,-0.2324219,-0.324707,-0.07421875,-0.05957031
1902,-7.6875,62.375,13.625,0.3071289,-0.3754883,-0.07080078,-0.324707,-0.06933594,-0.06640625
1906,11.8125,45.75,6.5625,0.2490234,-0.3325195,0.03662109,-0.3232422,-0.07080078,-0.07080078
1910,23,24,0.875,0.3417969,-0.1772461,-0.01318359,-0.3222656,-0.07080078,-0.07470703
1914,26.0625,11.375,-0.375,0.4155273,-0.1035156,-0.02050781,-0.3222656,-0.07177734,-0.07763672
1918,34.5625,-7.5625,9.875,0.3227539,-0.06835938,-0.1206055,-0.3232422,-0.07080078,-0.07617188
1922,25.0625,-21.1875,4.5625,0.5048828,0.121582,-0.3325195,-0.3232422,-0.07177734,-0.07617188
1926,2.5625,-26.9375,-1.8125,0.6328125,0.1796875,-0.5400391,-0.324707,-0.07080078,-0.07080078
1930,-10,-36.4375,15.25,0.6328125,0.1176758,-0.6821289,-0.3232422,-0.07080078,-0.06933594
1934,-23.4375,-30.25,16.5625,0.8652344,0.1176758,-0.6938477,-0.324707,-0.06933594,-0.06787109
1938,-25.625,-15.5,23,0.8300781,-0.05664063,-0.6054688,-0.324707,-0.06689453,-0.06542969
1942,-14.8125,-2.5,27.125,0.7719727,-0.1381836,-0.4594727,-0.3232422,-0.06445313,-0.06542969
1946,-5.25,0.375,23.9375,0.609375,-0.1347656,-0.309082,-0.3256836,-0.06201172,-0.0625
1950,-4.1875,-4.625,21.875,0.527832,-0.07226563,-0.2016602,-0.3256836,-0.05957031,-0.06542969
1954,-9.375,-12.6875,20.8125,0.5200195,-0.01806641,-0.1362305,-0.328125,-0.05810547,-0.06396484
1958,-16.75,-16.6875,18.8125,0.5473633,-0.09179688,-0.09375,-0.3256836,-0.0546875,-0.0625
1962,-9,-13.3125,18.3125,0.574707,-0.2006836,-0.09765625,-0.3271484,-0.05322266,-0.05859375
1966,-6.1875,-12.3125,13.6875,0.5551758,-0.1152344,-0.1860352,-0.3271484,-0.05078125,-0.05859375
1971,4,-20.125,27.0625,0.5048828,-0.1850586,-0.1552734,-0.328125,-0.04931641,-0.05712891
1975,7.625,-22.6875,24.75,0.6557617,-0.09960938,-0.1401367,-0.328125,-0.04589844,-0.05419922
1979,3.875,-19.625,20.75,0.609375,-0.1655273,-0.1245117,-0.3295898,-0.04589844,-0.05273438
1983,14.375,-18.25,19.6875,0.6401367,-0.2084961,-0.112793,-0.328125,-0.04199219,-0.05029297
1987,21.125,-23.1875,16.6875,0.7216797,-0.09570313,-0.109375,-0.3295898,-0.04296875,-0.04882813
1991,15.1875,-22.0625,16.875,0.8378906,0.02832031,-0.1513672,-0.328125,-0.04052734,-0.04882813
1995,0,-14.75,18.1875,0.8574219,0.0009765625,-0.2397461,-0.3305664,-0.03808594,-0.04638672
1999,-4.9375,-10.1875,20.625,0.8920898,-0.1308594,-0.2822266,-0.3295898,-0.03564453,-0.04492188
2003,4.5625,-7.375,12.6875,0.9619141,-0.1889648,-0.2783203,-0.3295898,-0.03466797,-0.04345703
2007,14.8125,-2.6875,8.375,1.055176,-0.09570313,-0.3051758,-0.3295898,-0.03466797,-0.04345703
2011,23,11.0625,14.9375,1.128418,-0.05273438,-0.3051758,-0.3295898,-0.03173828,-0.04492188
2015,29.5625,25.625,19.625,1.089844,-0.1191406,-0.2744141,-0.3305664,-0.03173828,-0.04492188
2019,35.0625,28.5625,22.9375,1.035645,0.04003906,-0.2553711,-0.3295898,-0.03076172,-0.04736328
2023,26,21.625,18.4375,1.043457,0.171875,-0.2128906,-0.3295898,-0.02685547,-0.04882813
2027,18.25,23.75,29.0625,1.202148,0.1953125,-0.1630859,-0.3305664,-0.02587891,-0.05273438
2031,1.3125,32.6875,37.5625,1.233398,0.2338867,-0.2324219,-0.3305664,-0.02441406,-0.05566406
2035,-21.375,31.625,34.9375,1.140137,0.1523438,-0.2324219,-0.3295898,-0.01708984,-0.05957031
2039,-28.0625,30.5,39.125,1.26416,0.03222656,-0.1591797,-0.3295898,-0.01708984,-0.05957031
2043,-28.625,24.875,42.625,1.244629,-0.06835938,-0.1323242,-0.3305664,-0.01318359,-0.0625
2047,-31.0625,21.625,44.1875,1.314453,-0.1152344,-0.1323242,-0.328125,-0.006835938,-0.06640625
2051,-46.25,21.5625,34.6875,1.380371,-0.2783203,-0.1552734,-0.3271484,-0.003417969,-0.06640625
2055,-43.1875,22.8125,24.625,1.395996,-0.6591797,-0.1323242,-0.3256836,-0.0004882813,-0.06933594
2059,0.4375,22.6875,19.625,1.349609,-0.9116211,-0.07470703,-0.324707,0.002441406,-0.06933594
2063,53.875,21.0625,14.125,1.361328,-0.6821289,-0.08203125,-0.324707,0.00390625,-0.07080078
2067,59.4375,19.5,1.5625,1.364746,-0.2084961,-0.1206055,-0.324707,0.00390625,-0.07324219
2071,28.375,15.5625,0,1.399902,-0.03369141,-0.1206055,-0.3222656,0.002441406,-0.07861328
2075,-4.625,12.0625,-4.625,1.461914,-0.1152344,-0.1630859,-0.3232422,0.002441406,-0.07763672
2079,-12.375,7.1875,-5.875,1.46582,-0.3637695,-0.1899414,-0.3222656,0.002441406,-0.07763672
2083,-3.5625,3.8125,-3,1.566406,-0.4296875,-0.2475586,-0.324707,0.001464844,-0.07861328
2087,1.625,2.625,-7.3125,1.589844,-0.4414063,-0.2978516,-0.3232422,0.001464844,-0.07861328
2091,10.8125,2,-14,1.566406,-0.5,-0.3012695,-0.3232422,0.001464844,-0.07861328
2095,22.25,-3.9375,-14.75,1.582031,-0.4257813,-0.3129883,-0.3232422,-0.0004882813,-0.07861328
2100,18.5,-4.625,-20.5,1.589844,-0.2241211,-0.34375,-0.324707,-0.003417969,-0.08007813
2104,8.5,-4.6875,-16.875,1.508301,-0.1811523,-0.3359375,-0.324707,-0.003417969,-0.08007813
2108,3.6875,-6.0625,-14.375,1.388184,-0.2353516,-0.2822266,-0.324707,-0.006835938,-0.07861328
2112,11.625,-14.375,-15.875,1.291504,-0.2509766,-0.2436523,-0.3232422,-0.006835938,-0.07861328
2116,17.25,-19.5625,-19.1875,1.330078,-0.1577148,-0.2397461,-0.3256836,-0.008300781,-0.07763672
2120,8.5,-20.3125,-20.6875,1.353516,-0.006347656,-0.2128906,-0.3256836,-0.01074219,-0.07763672
2124,-14.8125,-24.0625,-23.25,1.22168,0.04394531,-0.1630859,-0.3256836,-0.01318359,-0.07470703
2128,-30.625,-46.1875,-34.25,1.016113,-0.1230469,-0.08203125,-0.324707,-0.01464844,-0.07177734
2132,-20.125,-75.25,-51.5,1.023926,-0.2275391,-0.07861328,-0.3271484,-0.01953125,-0.06542969
2136,-19.8125,-102.875,-65.6875,1.140137,0.09814453,-0.2861328,-0.3295898,-0.0234375,-0.05957031
2140,-49.25,-111.25,-61.6875,1.585938,0.3388672,-0.4438477,-0.3305664,-0.02832031,-0.04736328
2144,-70.5,-88.5,-44.0625,1.89209,0.04736328,-0.4863281,-0.3295898,-0.03466797,-0.03662109
2148,-46.5,-43.875,-14.9375,1.922852,-0.2587891,-0.3974609,-0.3330078,-0.03710938,-0.03271484
2152,-7.8125,-24.75,-14.75,1.477539,-0.4492188,-0.3129883,-0.331543,-0.03808594,-0.02978516
2156,29.4375,-30.375,-30.8125,1.268066,-0.4882813,-0.2246094,-0.3305664,-0.03955078,-0.02294922
2160,50.75,-34.4375,-47.0625,1.202148,-0.2822266,-0.1743164,-0.3330078,-0.04296875,-0.02148438
2164,44.1875,-34.75,-45.125,1.171387,0.15625,-0.2324219,-0.331543,-0.04833984,-0.01757813
2168,1.9375,-27.3125,-36.8125,1.314453,0.4165039,-0.2705078,-0.3305664,-0.05175781,-0.01611328
2172,-35.625,-3.1875,-22.0625,1.372559,0.171875,-0.309082,-0.331543,-0.05322266,-0.01611328
2176,-29.625,30.1875,-7.1875,1.202148,-0.2124023,-0.2744141,-0.3305664,-0.05712891,-0.01464844
2180,12.125,32.375,-9.25,0.644043,-0.371582,-0.2475586,-0.331543,-0.05810547,-0.01757813
2184,47.75,14.375,-24.6875,0.5820313,-0.1113281,-0.2514648,-0.3295898,-0.05810547,-0.02148438
2188,48.3125,5.4375,-18.625,0.7177734,0.203125,-0.2783203,-0.3305664,-0.06298828,-0.02148438
2192,29.5,28.4375,-2.5625,0.9311523,0.2651367,-0.2553711,-0.3295898,-0.06445313,-0.02441406
2196,3,45.6875,5.75,0.6674805,0.3120117,-0.3286133,-0.328125,-0.06054688,-0.02734375
2200,-20.8125,31.625,-6.25,0.4736328,0.2070313,-0.3666992,-0.3305664,-0.06201172,-0.02978516
2204,-24.4375,14.125,-15.3125,0.5898438,0.1293945,-0.3706055,-0.3295898,-0.06298828,-0.03125
2208,-24.8125,26.125,-3.8125,0.7529297,0.1254883,-0.378418,-0.328125,-0.06445313,-0.03271484
2212,-34.375,43.1875,12.1875,0.7333984,0.1137695,-0.4824219,-0.328125,-0.06445313,-0.03662109
2216,-41.6875,61.6875,19.875,0.5898438,0.06689453,-0.5244141,-0.328125,-0.06298828,-0.04345703
2220,-47.25,70,24.6875,0.3691406,-0.05273438,-0.4282227,-0.3295898,-0.06201172,-0.04638672
2224,-43.875,64,25.3125,0.2177734,-0.1772461,-0.3325195,-0.3271484,-0.05810547,-0.05566406
2229,-56.5,64.1875,21.125,0.4233398,0.03222656,-0.3632813,-0.3256836,-0.0546875,-0.05957031
2233,-100.1875,77.875,14.5,0.4658203,0.1098633,-0.394043,-0.3271484,-0.05322266,-0.06396484
2237,-127.5625,85.6875,24.6875,0.3417969,-0.1772461,-0.2397461,-0.3256836,-0.04931641,-0.07470703
2241,-113.875,83.25,37.5625,0.3339844,-0.581543,0.105957,-0.3222656,-0.04443359,-0.08300781
2245,-66.375,56.9375,33.25,0.06298828,-0.9697266,0.3520508,-0.3198242,-0.03955078,-0.08837891
2249,3,6.625,-2.6875,0.1015625,-0.9892578,0.3056641,-0.3208008,-0.03710938,-0.09375
2253,66.1875,-28.125,-38.6875,0.4467773,-0.7485352,0.125,-0.3208008,-0.03808594,-0.09082031
2257,118.125,-35.9375,-36.4375,0.5820313,-0.3481445,-0.1938477,-0.3222656,-0.04589844,-0.08837891
2261,121.625,-40.25,-20.875,0.6982422,0.3081055,-0.6860352,-0.3222656,-0.04833984,-0.08544922
2265,59.1875,-32.8125,-14.0625,1.0625,0.7509766,-0.9516602,-0.3232422,-0.05322266,-0.08007813
2269,-5.1875,-10.5625,1.3125,1.132324,0.5683594,-0.9018555,-0.3232422,-0.0546875,-0.07861328
2273,-22.875,8.75,19.125,0.9931641,0.09814453,-0.6479492,-0.3222656,-0.0546875,-0.07763672
2277,-7.8125,15.5625,18.4375,0.7641602,-0.2084961,-0.3974609,-0.3232422,-0.04931641,-0.08300781
2281,18.5,10.375,15,0.6289063,-0.3520508,-0.1591797,-0.324707,-0.05078125,-0.08154297
2285,40.625,0.8125,12.125,0.5708008,-0.3520508,-0.02441406,-0.324707,-0.04931641,-0.08154297
2289,43.6875,-16.5,0.5625,0.4389648,-0.1113281,-0.1362305,-0.3232422,-0.05078125,-0.07861328
2293,23.8125,-34.25,-11.8125,0.6518555,0.09033203,-0.2783203,-0.3256836,-0.04931641,-0.07861328
2297,2.125,-30.1875,-16,0.8496094,0.04003906,-0.309082,-0.3232422,-0.05175781,-0.07763672
2301,6.0625,-14.6875,-6.75,0.8881836,-0.2124023,-0.2324219,-0.3232422,-0.05322266,-0.07324219
2305,26.5,2.25,-10.3125,0.7758789,-0.2783203,-0.1245117,-0.324707,-0.05175781,-0.07177734
2309,40.6875,2.5,-9.625,0.5161133,-0.1811523,-0.04736328,-0.3256836,-0.05566406,-0.07470703
2313,42.375,-25.9375,5.8125,0.2607422,-0.02587891,0.01367188,-0.3271484,-0.0546875,-0.07324219
2317,13.3125,-45.0625,-8.8125,0.5200195,0.1875,-0.02832031,-0.3256836,-0.05566406,-0.07080078
2321,-6.3125,-49.25,-12.6875,0.644043,-0.01416016,-0.02441406,-0.3256836,-0.05566406,-0.06640625
2325,-6.6875,-40.875,-12.25,0.6948242,-0.05664063,-0.05517578,-0.328125,-0.05712891,-0.05957031
2329,-9,-35.5,-9.1875,0.7451172,-0.04541016,-0.1708984,-0.328125,-0.05810547,-0.05859375
2333,2.5625,-24.875,4.4375,0.6674805,-0.1499023,-0.2207031,-0.3271484,-0.05957031,-0.05419922
2337,12.1875,-27.9375,19.4375,0.6870117,-0.01025391,-0.2783203,-0.3271484,-0.05712891,-0.05273438
2341,11.25,-29.9375,13.625,0.7373047,-0.09179688,-0.2670898,-0.3305664,-0.05712891,-0.04882813
2345,18.8125,-26.125,4.875,0.8457031,-0.08789063,-0.2631836,-0.331543,-0.0546875,-0.04736328
2349,20.4375,-21.75,-5.9375,0.8261719,0.02832031,-0.2783203,-0.3295898,-0.0546875,-0.04345703
2353,18.6875,-8.9375,5.8125,0.9931641,0.1484375,-0.2631836,-0.3305664,-0.05566406,-0.04199219
2358,7,7.1875,23.25,0.9541016,0.1835938,-0.2978516,-0.3305664,-0.0546875,-0.04199219
2362,-7.8125,17.25,30.5,0.9116211,0.1254883,-0.3632813,-0.3305664,-0.05175781,-0.04345703
2366,-8.3125,11.125,18.8125,0.8261719,-0.06054688,-0.3359375,-0.3305664,-0.05078125,-0.04638672
2370,3.1875,13.125,10.0625,1.05127,-0.04541016,-0.3168945,-0.3305664,-0.046875,-0.04638672
2374,12.4375,28.1875,16.3125,1.101563,-0.01416016,-0.2900391,-0.331543,-0.046875,-0.04882813
2378,13.0625,43.5,20.25,1.109375,0.07470703,-0.2670898,-0.331543,-0.04296875,-0.05175781
2382,11.5625,50.25,18.5,1.043457,0.05126953,-0.1899414,-0.3305664,-0.04296875,-0.05419922
2386,1.9375,45.3125,17.75,1.132324,0.2651367,-0.1977539,-0.3295898,-0.04199219,-0.05957031
2390,-38.9375,47.1875,6.9375,1.314453,0.3041992,-0.1938477,-0.3295898,-0.03808594,-0.06396484
2394,-62.5,57.5625,3.75,1.364746,-0.1420898,-0.1245117,-0.3271484,-0.03955078,-0.06933594
2398,-27.3125,62.5,9.375,1.209961,-0.6357422,-0.01660156,-0.3256836,-0.03808594,-0.07617188
2402,29.5625,61.6875,22.875,1.438477,-0.4101563,-0.009277344,-0.3271484,-0.03564453,-0.07861328
2406,40.75,69.5,19.1875,1.458008,-0.1113281,-0.02441406,-0.3271484,-0.03710938,-0.08154297
2410,27.5,65,26.9375,1.415527,0.09033203,-0.001464844,-0.3232422,-0.03320313,-0.09228516
2414,-9.1875,56.1875,19.9375,1.39209,0.06689453,0.09033203,-0.3222656,-0.03320313,-0.09521484
2418,-26.5,34.125,8.1875,1.279785,-0.1772461,0.1328125,-0.3222656,-0.03076172,-0.1020508
2422,-22.8125,13.625,-0.75,1.39209,-0.2353516,0.1098633,-0.3208008,-0.02929688,-0.1044922
2426,-15.5625,-4.875,-9.5625,1.446289,-0.2275391,0.02490234,-0.3232422,-0.02929688,-0.1044922
2430,-14.875,-13,-12.0625,1.550781,-0.1308594,-0.05517578,-0.3222656,-0.03173828,-0.1044922
2434,-18.1875,-17.3125,-13.1875,1.546875,-0.1577148,-0.1166992,-0.3208008,-0.03173828,-0.1020508
2438,-13.1875,-15.6875,-9.125,1.508301,-0.1655273,-0.1669922,-0.3208008,-0.03076172,-0.1020508
2442,-5.9375,-16.375,-10.75,1.399902,-0.1655273,-0.1821289,-0.3222656,-0.03173828,-0.1005859
2446,7.6875,-19.75,-9.75,1.302734,-0.08789063,-0.2207031,-0.3232422,-0.03466797,-0.09765625
2450,10,-22.1875,-8.875,1.237305,0.07861328,-0.2670898,-0.3232422,-0.03466797,-0.09667969
2454,2.625,-23.4375,-7.125,1.213867,0.1601563,-0.3129883,-0.3208008,-0.03466797,-0.09375
2458,-4.25,-20.0625,-1.75,1.175293,0.1293945,-0.3208008,-0.324707,-0.03466797,-0.09082031
2462,-7.9375,-15.3125,6.875,1.121094,0.09423828,-0.3208008,-0.3256836,-0.03320313,-0.08984375
2466,-13.75,-10.8125,5.875,1.074219,0.07861328,-0.309082,-0.3232422,-0.03466797,-0.08984375
2470,-15.3125,-5.25,6.125,1.012207,-0.01806641,-0.2514648,-0.3232422,-0.03320313,-0.08837891
2474,-8.0625,-1.875,6.3125,0.9541016,-0.09570313,-0.1977539,-0.3256836,-0.03320313,-0.08691406
2478,4.125,-1.1875,7.875,0.9155273,-0.1459961,-0.1782227,-0.324707,-0.03173828,-0.08837891
2482,13.5,2,8,0.9233398,-0.08398438,-0.1591797,-0.324707,-0.03076172,-0.08691406
2487,15.0625,3.75,8.875,0.9038086,-0.05664063,-0.1166992,-0.3232422,-0.02929688,-0.08691406
2491,13.5625,3.75,10.25,0.8730469,-0.08007813,-0.08203125,-0.324707,-0.03076172,-0.08837891
