Packet number,Gyroscope X (deg/s),Gyroscope Y (deg/s),Gyroscope Z (deg/s),Accelerometer X (g),Accelerometer Y (g),Accelerometer Z (g),Magnetometer X (G),Magnetometer Y (G),Magnetometer Z (G)
0,-8.625,-5.4375,-6.375,-0.06835938,-1.004883,-0.07861328,-0.001953125,0.28125,-0.1142578
4,-9.625,-7.5,-3.5625,-0.08007813,-0.9814453,-0.0859375,-0.004394531,0.2822266,-0.1142578
8,-10.875,-9.3125,-2.5,-0.05664063,-0.9892578,-0.07470703,-0.004394531,0.2797852,-0.112793
12,-11.75,-7.5625,-5.1875,-0.03710938,-0.9736328,-0.0859375,-0.004394531,0.2797852,-0.1113281
16,-14.0625,-7.4375,-6.875,-0.01806641,-0.9931641,-0.09765625,-0.005859375,0.2797852,-0.1113281
20,-12.4375,-7.375,-3.875,-0.002441406,-1.020508,-0.1166992,-0.005859375,0.2797852,-0.1074219
24,-10.4375,-5.9375,-0.5625,-0.006347656,-1.012695,-0.1206055,-0.009277344,0.28125,-0.105957
28,-8.3125,-3.625,-3.4375,-0.01806641,-1.016602,-0.1245117,-0.0078125,0.2851563,-0.1074219
32,-7.125,-3.9375,-3.5625,-0.03320313,-1.032227,-0.1401367,-0.005859375,0.2822266,-0.1035156
36,-5.4375,-4.75,-3.9375,-0.02978516,-1.036133,-0.1435547,-0.0078125,0.2822266,-0.1044922
40,-4.75,-5.8125,-3.5625,-0.01806641,-1.062988,-0.1474609,-0.0078125,0.2822266,-0.1044922
44,-3.375,-8.1875,1.25,-0.002441406,-1.102051,-0.1401367,-0.0078125,0.2836914,-0.1035156
48,-2.625,-8.3125,6.125,0.03955078,-1.129395,-0.1474609,-0.006835938,0.2836914,-0.1044922
52,-6.25,-5.0625,3.25,0.02441406,-1.144531,-0.1782227,-0.0078125,0.2836914,-0.105957
56,-10.1875,-1.1875,-5.5,0.01660156,-1.210938,-0.2089844,-0.006835938,0.2822266,-0.1035156
60,-13.8125,0.75,-14.8125,-0.01025391,-1.315918,-0.2128906,-0.006835938,0.2836914,-0.1020508
64,-15.375,0.5625,-15.875,-0.02197266,-1.389648,-0.2016602,-0.01025391,0.2836914,-0.1005859
68,-16,0.875,-13.875,0.0009765625,-1.443848,-0.1743164,-0.01171875,0.2836914,-0.09912109
72,-19.25,2.3125,-7.8125,-0.002441406,-1.463379,-0.1630859,-0.01269531,0.2851563,-0.09765625
76,-22.9375,8.1875,-12.875,0.004882813,-1.459473,-0.1401367,-0.01269531,0.2851563,-0.09667969
80,-40,7.75,-16.1875,-0.08398438,-1.401367,-0.1513672,-0.01513672,0.2836914,-0.09228516
84,-53.9375,4.1875,-24.8125,-0.07226563,-1.517578,-0.1669922,-0.01513672,0.2861328,-0.08691406
88,-66.9375,3.5,-26.4375,-0.07226563,-1.560547,-0.2089844,-0.01757813,0.2861328,-0.08447266
92,-81.125,5.875,-25.125,-0.02978516,-1.704102,-0.2246094,-0.02001953,0.2875977,-0.07617188
96,-78.75,8.875,-43.5625,-0.08398438,-1.902344,-0.2553711,-0.0234375,0.2900391,-0.06787109
100,-64.875,-16.4375,-38.1875,-0.2119141,-1.840332,-0.309082,-0.02587891,0.2885742,-0.0625
104,-45.375,-50.9375,-29.375,-0.1342773,-1.711914,-0.3515625,-0.02832031,0.2910156,-0.05712891
109,-27.6875,-66.375,-30.8125,0.09033203,-1.443848,-0.3129883,-0.03173828,0.2900391,-0.05175781
113,-22,-54.125,-36.75,0.3886719,-1.272949,-0.2592773,-0.03662109,0.2900391,-0.04882813
117,-19.875,-28.5625,-36.9375,0.4506836,-1.144531,-0.2553711,-0.0390625,0.2900391,-0.04736328
121,-18.3125,-12.8125,-22.8125,0.3925781,-1.102051,-0.2285156,-0.04492188,0.2910156,-0.04638672
125,-9.125,-4.75,-18,0.3652344,-1.078613,-0.2514648,-0.04492188,0.2900391,-0.04345703
129,-2.5,5.4375,-18.5,0.3691406,-0.9541016,-0.2744141,-0.04589844,0.2885742,-0.04492188
133,-1.4375,16.4375,-16.875,0.3417969,-0.9697266,-0.2783203,-0.04736328,0.2885742,-0.04345703
137,0.625,25.4375,-17.9375,0.2490234,-1.078613,-0.2822266,-0.04980469,0.2885742,-0.04345703
141,14,30.5,-19.5625,0.2026367,-1.160156,-0.2705078,-0.05322266,0.2875977,-0.04492188
145,28.75,28.9375,-11.375,0.1987305,-1.129395,-0.2900391,-0.05322266,0.2875977,-0.04638672
149,50.375,37.125,-0.5,0.206543,-0.9775391,-0.2900391,-0.05322266,0.2900391,-0.04736328
153,61.4375,37.6875,5.5,-0.08398438,-0.6552734,-0.3359375,-0.05224609,0.2861328,-0.05566406
157,69.4375,26.875,-5.0625,-0.1611328,-0.5385742,-0.3515625,-0.05322266,0.2851563,-0.0625
161,84.6875,25.625,-5.4375,-0.04101563,-0.5151367,-0.2553711,-0.05322266,0.2836914,-0.06787109
165,95.6875,32.4375,10,0.004882813,-0.3017578,-0.08984375,-0.05224609,0.2836914,-0.07763672
169,93.5625,42,13.5,-0.1611328,0.01660156,-0.02050781,-0.05078125,0.2822266,-0.08691406
173,83.1875,42.5,17.6875,-0.3007813,0.06689453,0.07910156,-0.04833984,0.2788086,-0.09521484
177,63.6875,41.3125,3,-0.4482422,0.09814453,0.1328125,-0.04736328,0.2788086,-0.1020508
181,49.375,25.625,-9.0625,-0.5141602,-0.04150391,0.2060547,-0.04736328,0.2773438,-0.1088867
185,33.875,-3.0625,-14,-0.6264648,0.0009765625,0.2172852,-0.04589844,0.2763672,-0.1098633
189,16.0625,-41.375,-25.9375,-0.4946289,-0.1113281,0.105957,-0.04833984,0.2749023,-0.1142578
193,1.3125,-75.125,-36.4375,-0.2504883,-0.2939453,-0.1015625,-0.05322266,0.2739258,-0.112793
197,-5.5625,-78.6875,-34.5,0.2646484,-0.3989258,-0.2089844,-0.05664063,0.2739258,-0.1142578
201,-18.375,-50.75,-20.5,0.4697266,-0.340332,-0.2363281,-0.06054688,0.2724609,-0.1113281
205,-38.75,-21.8125,-3.1875,0.4658203,-0.3056641,-0.2978516,-0.06396484,0.2724609,-0.1074219
209,-56.4375,0.5,2.5625,0.3305664,-0.4375,-0.3554688,-0.06298828,0.2739258,-0.1044922
213,-60.6875,10.8125,7.25,0.2138672,-0.5698242,-0.3862305,-0.06396484,0.2763672,-0.09765625
217,-59.3125,16.75,12.125,0.1445313,-0.5424805,-0.359375,-0.06152344,0.2749023,-0.09228516
221,-61.3125,28.4375,16.25,0.1635742,-0.581543,-0.309082,-0.06054688,0.2788086,-0.08837891
225,-59.4375,37.3125,16.4375,-0.01416016,-0.5776367,-0.2861328,-0.05810547,0.28125,-0.08447266
229,-53.8125,27.5,9.1875,-0.2348633,-0.5307617,-0.2705078,-0.05810547,0.28125,-0.07861328
233,-51.4375,8.8125,1.3125,-0.2543945,-0.4960938,-0.2900391,-0.05664063,0.28125,-0.07324219
238,-48.8125,0.0625,-2.25,-0.1069336,-0.5966797,-0.3208008,-0.05566406,0.2836914,-0.06933594
242,-40.5,7.5,-2.3125,0.01660156,-0.6552734,-0.3208008,-0.05810547,0.2861328,-0.06396484
246,-33.625,3.625,12.375,-0.1030273,-0.6318359,-0.2900391,-0.05664063,0.2851563,-0.06103516
250,-23.5,-9.1875,8.875,-0.262207,-0.5,-0.2207031,-0.05566406,0.2851563,-0.06396484
254,-22.5,-23.9375,-4.8125,-0.1499023,-0.5268555,-0.1977539,-0.05566406,0.2861328,-0.05859375
258,-20.375,-21.75,-14.75,0.008789063,-0.6748047,-0.2089844,-0.05664063,0.2851563,-0.05712891
262,-13.8125,-19,-9.125,0.004882813,-0.6396484,-0.2246094,-0.05810547,0.2851563,-0.05175781
266,-16.5625,-32.5,6.1875,0.08251953,-0.7094727,-0.2055664,-0.05664063,0.2861328,-0.05175781
270,-8.625,-26.875,2.9375,0.1557617,-0.7871094,-0.2285156,-0.05810547,0.2861328,-0.05029297
274,-1.3125,-21.0625,-0.375,0.1132813,-0.8261719,-0.2436523,-0.05664063,0.2875977,-0.04882813
278,0.6875,-34.125,2.375,0.01269531,-0.8764648,-0.2324219,-0.05810547,0.2861328,-0.04882813
282,6.25,-43,2.875,0.1791992,-0.9077148,-0.2397461,-0.05664063,0.2861328,-0.04736328
286,16.625,-35.375,4.375,0.2490234,-0.9853516,-0.2363281,-0.05810547,0.2861328,-0.04882813
290,19.1875,-26.25,7.9375,0.3691406,-1.02832,-0.2397461,-0.05664063,0.2861328,-0.04882813
294,22.4375,-13.9375,8.9375,0.3886719,-1.183594,-0.324707,-0.05664063,0.2875977,-0.05175781
298,33.625,-4.3125,9.625,0.2993164,-1.22998,-0.3554688,-0.05566406,0.2861328,-0.05273438
302,41.3125,3.3125,2.0625,0.2216797,-1.152344,-0.3862305,-0.05419922,0.2861328,-0.05712891
306,43.5625,2.5625,-2.625,0.175293,-1.284668,-0.3515625,-0.05419922,0.2875977,-0.06103516
310,52.4375,-1.9375,-4.875,0.1831055,-1.334961,-0.3051758,-0.05566406,0.2875977,-0.0625
314,58.3125,-7.0625,2.0625,0.2685547,-1.350586,-0.2592773,-0.05664063,0.2861328,-0.07080078
318,59.6875,-3.25,9.5625,0.3378906,-1.34668,-0.2128906,-0.05664063,0.2851563,-0.07617188
322,57.3125,10.8125,14.375,0.3808594,-1.428223,-0.1899414,-0.05419922,0.2851563,-0.08300781
326,49.5625,27.5625,11.1875,0.2607422,-1.405273,-0.2324219,-0.05224609,0.2851563,-0.08691406
330,37.25,43.625,-5.3125,0.1054688,-1.591309,-0.3168945,-0.05224609,0.2822266,-0.09082031
334,34.1875,34.875,-14.9375,-0.06054688,-1.816895,-0.4052734,-0.05224609,0.2822266,-0.09375
338,46.5,16.8125,-9.5625,0.01660156,-2.019043,-0.3974609,-0.05322266,0.28125,-0.1005859
342,58.8125,9.25,3.8125,0.1831055,-2.038574,-0.2939453,-0.05322266,0.2773438,-0.1005859
346,62.125,18.1875,8.3125,0.2177734,-1.875,-0.1630859,-0.05078125,0.2773438,-0.1074219
350,49.625,27.5,1.8125,0.1210938,-1.74707,-0.04394531,-0.05078125,0.2763672,-0.1157227
354,29.8125,29,-9.3125,0.02050781,-1.653809,0.03662109,-0.04980469,0.2749023,-0.1166992
358,9.9375,18.875,-18.6875,-0.01416016,-1.614746,0.05957031,-0.04980469,0.2773438,-0.1196289
362,-2.5625,5.75,-22,0.03564453,-1.68457,0.04785156,-0.05322266,0.2763672,-0.1210938
367,-7.5,-1.5625,-21.5625,0.1484375,-1.634277,0.02490234,-0.05322266,0.2749023,-0.1210938
371,-14.5,4.0625,-21.8125,0.3305664,-1.572266,0.05175781,-0.05419922,0.2749023,-0.1196289
375,-27.5,18.9375,-24.0625,0.3886719,-1.513672,0.09814453,-0.05664063,0.2749023,-0.1196289
379,-38.3125,24.375,-25.0625,0.2412109,-1.517578,0.1132813,-0.05908203,0.2763672,-0.1166992
383,-49.4375,14.625,-27.625,0.08642578,-1.556641,0.1479492,-0.05908203,0.2773438,-0.1142578
387,-61.5,-7.875,-32.8125,0.08642578,-1.580078,0.144043,-0.06298828,0.2773438,-0.1074219
391,-68.6875,-30.5625,-31.125,0.2797852,-1.665527,0.07910156,-0.06494141,0.2763672,-0.1044922
395,-70.1875,-16.25,-24.125,0.7529297,-1.583984,0.005859375,-0.06738281,0.2788086,-0.09521484
399,-69.6875,30.375,-17.5625,0.8071289,-1.560547,0.001953125,-0.06982422,0.2788086,-0.08837891
403,-65.875,51.3125,-10.0625,0.59375,-1.665527,-0.009277344,-0.07226563,0.2797852,-0.08447266
407,-47.75,47.375,5.1875,0.4736328,-1.669434,-0.1015625,-0.07128906,0.28125,-0.07470703
411,-36.5,38.125,12.5,0.2915039,-1.319336,-0.2285156,-0.06884766,0.28125,-0.07470703
415,-34.125,26,-0.5625,0.1987305,-1.160156,-0.3129883,-0.06884766,0.2836914,-0.07324219
419,-30.5625,17.8125,-7.6875,0.3227539,-1.195313,-0.3476563,-0.06738281,0.2822266,-0.07080078
423,-18.3125,24,-6.0625,0.4970703,-1.214844,-0.3862305,-0.06982422,0.2822266,-0.06787109
427,1.125,37.125,4.875,0.4970703,-1.012695,-0.359375,-0.07128906,0.2851563,-0.06542969
431,9.5,44.3125,7.25,0.3032227,-0.6240234,-0.3325195,-0.06640625,0.2822266,-0.06933594
435,1.6875,34.625,1.25,0.175293,-0.519043,-0.3012695,-0.06884766,0.2836914,-0.07080078
439,15.4375,45.1875,0.3125,0.2451172,-0.6201172,-0.2900391,-0.06640625,0.2836914,-0.07080078
443,40,71.6875,13,0.206543,-0.387207,-0.2705078,-0.06640625,0.2822266,-0.07324219
447,51,80.8125,31.4375,-0.1342773,-0.1113281,-0.1821289,-0.06152344,0.28125,-0.08154297
451,58,71.375,38.625,-0.3203125,-0.002441406,-0.1323242,-0.05908203,0.2788086,-0.08447266
455,61,53.9375,29.6875,-0.4985352,0.06298828,-0.05126953,-0.05322266,0.2788086,-0.09228516
459,59.9375,33.1875,12.6875,-0.5756836,0.06298828,0.03271484,-0.05078125,0.2773438,-0.09912109
463,52.875,8.5,1.3125,-0.5063477,-0.05664063,0.05175781,-0.05078125,0.2749023,-0.1035156
467,50.6875,-6.375,-10.5625,-0.4052734,-0.1230469,0.03271484,-0.04980469,0.2749023,-0.1088867
471,42,-37.25,-16.5,-0.3706055,-0.2202148,-0.02050781,-0.05078125,0.2724609,-0.112793
475,35.1875,-74.3125,-19.1875,-0.2231445,-0.2275391,-0.08984375,-0.05322266,0.2724609,-0.112793
479,18.25,-91.4375,-18,0.109375,-0.2392578,-0.1860352,-0.05810547,0.2700195,-0.1157227
483,4.375,-76.375,-18.375,0.4814453,-0.3637695,-0.2861328,-0.06152344,0.2709961,-0.1157227
487,-10.5,-48.25,-8.6875,0.559082,-0.402832,-0.3129883,-0.06298828,0.2724609,-0.112793
491,-21.9375,-16.0625,-0.1875,0.5976563,-0.4921875,-0.3823242,-0.06640625,0.2709961,-0.112793
496,-25.875,9.3125,7.125,0.4892578,-0.6240234,-0.4555664,-0.06640625,0.2724609,-0.1098633
500,-23.375,17.875,19,0.2758789,-0.6474609,-0.4248047,-0.06494141,0.2739258,-0.1098633
504,-22.75,15.75,23,0.09375,-0.581543,-0.34375,-0.06152344,0.2739258,-0.1088867
508,-23.1875,10.25,22.625,0.02050781,-0.5385742,-0.2363281,-0.05810547,0.2749023,-0.105957
512,-29.375,8.6875,22.25,-0.03710938,-0.421875,-0.1166992,-0.05566406,0.2749023,-0.1035156
516,-35.75,7.4375,14.6875,-0.1225586,-0.484375,-0.07470703,-0.05664063,0.2763672,-0.09912109
520,-37.625,-9.3125,14.3125,-0.2426758,-0.4067383,-0.01660156,-0.05322266,0.2788086,-0.09667969
524,-41.0625,-18.875,8.875,-0.09912109,-0.4296875,0.02490234,-0.05419922,0.2773438,-0.09375
528,-39.75,-13.625,6.375,-0.05273438,-0.4765625,0.001953125,-0.05419922,0.28125,-0.08984375
532,-36.625,-13.3125,6.3125,-0.1806641,-0.4414063,-0.07080078,-0.05322266,0.28125,-0.08691406
536,-34.5,-31.4375,1.9375,-0.2773438,-0.5151367,-0.0859375,-0.05322266,0.2822266,-0.08300781
540,-33.5625,-51.4375,-1.75,-0.2192383,-0.5424805,-0.0859375,-0.05224609,0.28125,-0.07861328
544,-32.0625,-56.875,-1.875,0.03955078,-0.6162109,-0.08984375,-0.05419922,0.2836914,-0.07470703
548,-30.1875,-40.0625,-3.0625,0.1015625,-0.6474609,-0.1323242,-0.05566406,0.2836914,-0.07177734
552,-23.6875,-29.6875,-10.875,-0.09521484,-0.7446289,-0.1591797,-0.05566406,0.2851563,-0.06933594
556,-14.375,-49.4375,-14.1875,-0.09130859,-0.9428711,-0.1899414,-0.05810547,0.2836914,-0.06640625
560,1.5625,-68.875,-2.6875,0.1987305,-1.000977,-0.2167969,-0.06054688,0.2851563,-0.06396484
564,10.9375,-66.4375,6.4375,0.4350586,-0.9814453,-0.2285156,-0.06152344,0.2861328,-0.06396484
568,10.3125,-51.875,11.0625,0.3110352,-0.9658203,-0.2397461,-0.06054688,0.2861328,-0.0625
572,13.4375,-41.0625,-6.625,0.2333984,-0.9506836,-0.2592773,-0.06054688,0.2875977,-0.06542969
576,11.3125,-35.6875,-5.875,0.3652344,-1.109863,-0.2631836,-0.06152344,0.2861328,-0.06396484
580,20.9375,-27.5625,4.6875,0.5512695,-1.245605,-0.2363281,-0.06152344,0.2851563,-0.06787109
584,23.4375,-12.375,25.8125,0.5629883,-1.136719,-0.1743164,-0.06054688,0.2836914,-0.06787109
588,18.4375,17.5625,22.3125,0.4697266,-1.140625,-0.1782227,-0.05810547,0.2851563,-0.07080078
592,11.75,37.75,10.25,0.1791992,-1.241699,-0.1977539,-0.05810547,0.2861328,-0.07470703
596,13.0625,30.125,13,0.08251953,-1.556641,-0.2705078,-0.05566406,0.2836914,-0.07080078
600,25.75,11.5625,22,0.03173828,-1.580078,-0.3051758,-0.05419922,0.2836914,-0.07617188
604,35.75,3.5625,26.3125,0.1015625,-1.606934,-0.309082,-0.05224609,0.2861328,-0.07763672
608,38.6875,13.625,20.625,0.09033203,-1.618652,-0.3012695,-0.04980469,0.2851563,-0.08007813
612,36.5625,14,12.125,-0.05273438,-1.669434,-0.2939453,-0.04833984,0.2836914,-0.08544922
616,38.8125,1.4375,5.6875,-0.04492188,-1.777832,-0.2553711,-0.04492188,0.2836914,-0.08544922
620,36.8125,-3.75,0.875,0.05126953,-1.743164,-0.2324219,-0.04589844,0.2822266,-0.09228516
625,31.4375,-0.1875,1,0.09375,-1.793457,-0.2207031,-0.04492188,0.28125,-0.09521484
629,24.9375,5.4375,1.25,0.1289063,-1.812988,-0.2324219,-0.04736328,0.28125,-0.09667969
633,18.6875,12.0625,-5.5625,0.1015625,-1.824707,-0.2324219,-0.04736328,0.28125,-0.1005859
637,7.75,10.375,-14.4375,0.03955078,-1.735352,-0.2475586,-0.04736328,0.28125,-0.1020508
641,-0.375,-0.6875,-25.375,-0.01025391,-1.743164,-0.2436523,-0.04833984,0.28125,-0.1005859
645,-3.6875,-10.5625,-29.9375,0.1171875,-1.797363,-0.2246094,-0.04980469,0.2797852,-0.1020508
649,-3.125,-9.4375,-25.25,0.2490234,-1.777832,-0.128418,-0.05419922,0.2797852,-0.1005859
653,-11.3125,-3.4375,-21.0625,0.3149414,-1.657715,-0.04003906,-0.05419922,0.2797852,-0.1005859
657,-25.4375,6.8125,-24,0.3110352,-1.548828,-0.005371094,-0.05664063,0.2797852,-0.09912109
661,-41.625,8.875,-29.6875,0.2138672,-1.48291,-0.01660156,-0.05664063,0.2797852,-0.09667969
665,-53.25,2.8125,-36.1875,0.2026367,-1.393555,-0.0859375,-0.06152344,0.2797852,-0.09082031
669,-60.4375,-3.125,-38.375,0.3266602,-1.393555,-0.1669922,-0.06396484,0.28125,-0.08691406
673,-56.0625,-0.4375,-34.8125,0.4775391,-1.471191,-0.2285156,-0.06982422,0.28125,-0.08300781
677,-42.25,2.8125,-13.4375,0.5898438,-1.48291,-0.1782227,-0.06884766,0.28125,-0.07617188
681,-39.3125,9.0625,-2,0.5512695,-1.265137,-0.128418,-0.07128906,0.2822266,-0.07324219
685,-47.125,20.625,-12.125,0.4233398,-1.074707,-0.1513672,-0.07128906,0.2822266,-0.07080078
689,-56.375,21.875,-22,0.2915039,-1.136719,-0.2363281,-0.07324219,0.2836914,-0.06542969
693,-53.5625,15.75,-28.75,0.3110352,-1.374023,-0.3129883,-0.07568359,0.2822266,-0.0625
697,-25.4375,13,-11.9375,0.3339844,-1.61084,-0.3398438,-0.07714844,0.2822266,-0.05712891
701,11.375,19.9375,-1.125,0.206543,-1.439941,-0.3515625,-0.07714844,0.2822266,-0.05859375
705,30.8125,10.5,-8.875,-0.06835938,-1.047363,-0.309082,-0.07568359,0.2822266,-0.05712891
709,26.625,-15.75,-22.5625,-0.09521484,-0.7949219,-0.2285156,-0.07958984,0.28125,-0.06396484
713,24.125,-17.5625,-41,0.1713867,-0.8417969,-0.2016602,-0.08203125,0.2797852,-0.0625
717,32.125,1.75,-34.4375,0.3847656,-0.8803711,-0.2055664,-0.08398438,0.2788086,-0.06640625
721,48.5625,29.6875,-27.0625,0.2993164,-0.7524414,-0.2783203,-0.08789063,0.2763672,-0.06787109
725,71.4375,29.0625,-19.375,0.004882813,-0.6748047,-0.3706055,-0.08886719,0.2773438,-0.07617188
729,80.625,-5.9375,-15.25,-0.1264648,-0.387207,-0.3476563,-0.09130859,0.2739258,-0.08007813
733,86.6875,-24.125,-15.6875,0.2216797,-0.4179688,-0.2705078,-0.08886719,0.2724609,-0.08984375
737,92.875,0.0625,-2.5625,0.4233398,-0.2202148,-0.2167969,-0.09130859,0.2685547,-0.09667969
741,87.0625,31.4375,10.1875,0.2177734,0.01269531,-0.06298828,-0.09228516,0.2685547,-0.1020508
745,72.25,40.1875,9.5,0.03564453,0.09814453,0.03271484,-0.09033203,0.2675781,-0.1113281
749,56.75,38.8125,7.1875,-0.006347656,-0.006347656,0.04443359,-0.08886719,0.2661133,-0.1181641
754,45.5625,37.9375,15.125,0.02050781,-0.2587891,0.04052734,-0.08642578,0.262207,-0.1225586
758,41.25,33.375,21.6875,-0.1767578,-0.2666016,0.01708984,-0.08544922,0.262207,-0.1264648
762,32.375,10.125,25.6875,-0.2734375,-0.2861328,0.06347656,-0.08300781,0.2597656,-0.1318359
766,17,-16.0625,17,-0.2543945,-0.2548828,0.04052734,-0.07958984,0.2597656,-0.1333008
770,-0.875,-31.5,6.9375,-0.02197266,-0.371582,-0.05126953,-0.07958984,0.2597656,-0.1347656
774,-11.125,-23.25,2.875,0.2216797,-0.5776367,-0.1362305,-0.07958984,0.2612305,-0.1318359
778,-18.6875,-10.875,10.375,0.2138672,-0.5463867,-0.1860352,-0.08056641,0.2597656,-0.1303711
782,-24.4375,1.625,11.5,0.2026367,-0.6318359,-0.2436523,-0.078125,0.262207,-0.1303711
786,-30.75,2.6875,19.5,0.08642578,-0.6630859,-0.2861328,-0.078125,0.2636719,-0.1264648
790,-31.375,3,22,0.09375,-0.7407227,-0.2939453,-0.07568359,0.2636719,-0.125
794,-30.3125,8.875,19.6875,0.06298828,-0.7641602,-0.2592773,-0.07470703,0.2651367,-0.1210938
798,-27.625,11.0625,19.6875,-0.04492188,-0.7719727,-0.2246094,-0.07226563,0.2675781,-0.1196289
802,-23.4375,1.8125,23.1875,-0.1572266,-0.6708984,-0.109375,-0.07226563,0.2700195,-0.1181641
806,-28.5,-6.4375,27.5,-0.06835938,-0.5854492,-0.02832031,-0.06884766,0.2700195,-0.1157227
810,-36.6875,2.8125,17.9375,-0.06054688,-0.5229492,0.001953125,-0.06738281,0.2709961,-0.1113281
814,-48.375,4,13.6875,-0.1303711,-0.5112305,-0.009277344,-0.06494141,0.2709961,-0.1088867
818,-51.125,-2.4375,15,-0.1533203,-0.565918,-0.01660156,-0.06396484,0.2739258,-0.105957
822,-46.1875,-11.75,23.4375,-0.08007813,-0.6474609,0.01367188,-0.06298828,0.2773438,-0.1005859
826,-37.0625,-17.1875,25.3125,-0.1420898,-0.6123047,0.009765625,-0.06054688,0.2763672,-0.09765625
830,-31.25,-24.4375,24.0625,-0.08789063,-0.5541992,0.02099609,-0.06054688,0.2797852,-0.09375
834,-30.5625,-21.8125,13.875,0.0009765625,-0.4921875,-0.009277344,-0.05566406,0.2797852,-0.09082031
838,-43.75,-13.75,4.6875,0.0009765625,-0.402832,-0.03222656,-0.05810547,0.2797852,-0.08984375
842,-46.4375,-13.25,2.25,-0.04101563,-0.6860352,-0.07080078,-0.05664063,0.2797852,-0.08447266
846,-39.3125,-24.625,6.8125,-0.02978516,-0.7329102,-0.1166992,-0.05908203,0.28125,-0.07861328
850,-34,-21.8125,2.1875,0.159668,-0.8300781,-0.1054688,-0.05664063,0.2851563,-0.07763672
854,-30.75,-3.75,-8.875,0.2104492,-0.8574219,-0.1054688,-0.05810547,0.28125,-0.07080078
858,-25.5,4.625,-14.5625,0.05908203,-0.8725586,-0.1474609,-0.05908203,0.2851563,-0.06787109
862,-21.8125,-7,-13.0625,-0.01416016,-0.8764648,-0.1938477,-0.06054688,0.2822266,-0.06933594
866,-14.1875,-15.4375,-15.75,0.09765625,-0.9814453,-0.1782227,-0.06152344,0.2836914,-0.0625
870,-10.75,-15.0625,-16.25,0.3266602,-1.08252,-0.2397461,-0.06298828,0.2836914,-0.06396484
874,1.875,-5.875,-18.8125,0.3847656,-1.241699,-0.2592773,-0.06396484,0.2851563,-0.06396484
878,12.1875,1.3125,-14.4375,0.4467773,-1.175781,-0.2783203,-0.06640625,0.2861328,-0.06396484
883,17.3125,10.3125,-19.875,0.4467773,-1.207031,-0.2939453,-0.06884766,0.2851563,-0.06396484
887,21.5625,8.75,-14,0.3959961,-1.308105,-0.3325195,-0.06738281,0.2851563,-0.06640625
891,31.5,-7.375,-0.3125,0.4389648,-1.389648,-0.3398438,-0.07128906,0.2851563,-0.06933594
895,42.8125,-10.9375,14.875,0.59375,-1.45166,-0.324707,-0.06884766,0.2836914,-0.07470703
899,51.25,13.3125,20.375,0.625,-1.479004,-0.3012695,-0.06738281,0.2836914,-0.07763672
903,47.0625,31.4375,13.9375,0.3652344,-1.459473,-0.2822266,-0.06494141,0.2822266,-0.08447266
907,44.25,31.1875,6.125,0.1518555,-1.541016,-0.2744141,-0.06152344,0.28125,-0.08691406
911,45.875,15.1875,5.8125,0.06298828,-1.630371,-0.2475586,-0.06298828,0.2797852,-0.09082031
915,45.25,3.75,5.875,0.1132813,-1.618652,-0.2055664,-0.06298828,0.2788086,-0.09667969
919,40.5625,8.375,0.4375,0.2104492,-1.723633,-0.1938477,-0.06152344,0.2797852,-0.1005859
923,33.3125,10.8125,0.4375,0.1328125,-1.758789,-0.1938477,-0.06298828,0.2788086,-0.1035156
927,22.6875,9,-8.1875,0.1015625,-1.754883,-0.2246094,-0.06054688,0.2773438,-0.105957
931,11.875,5.3125,-17.125,0.1210938,-1.789551,-0.2475586,-0.06152344,0.2773438,-0.1074219
935,5.125,2.6875,-20,0.190918,-1.871094,-0.2744141,-0.06494141,0.2773438,-0.1098633
939,0.875,-2,-21.625,0.1557617,-1.863281,-0.2744141,-0.06640625,0.2773438,-0.105957
943,-1.8125,-11.9375,-20.6875,0.2138672,-1.789551,-0.2705078,-0.06738281,0.2763672,-0.1098633
947,-9.25,-8.8125,-22.4375,0.3574219,-1.630371,-0.2055664,-0.06982422,0.2763672,-0.1074219
951,-25.6875,-0.5,-25.0625,0.3886719,-1.525391,-0.1362305,-0.07226563,0.2763672,-0.1074219
955,-39.5,8,-35.5,0.3188477,-1.537109,-0.1206055,-0.07714844,0.2773438,-0.1044922
959,-43.9375,1.625,-34,0.3305664,-1.583984,-0.1401367,-0.078125,0.2763672,-0.1020508
963,-44.8125,-1.125,-32.0625,0.3535156,-1.560547,-0.1821289,-0.07958984,0.2763672,-0.09667969
967,-41.75,-4.75,-30.5625,0.4038086,-1.529297,-0.1821289,-0.08203125,0.2773438,-0.09082031
971,-45.625,-5.5,-30.25,0.4931641,-1.362305,-0.128418,-0.08398438,0.2749023,-0.08984375
975,-47.875,3.0625,-35.6875,0.5161133,-1.296387,-0.128418,-0.08642578,0.2773438,-0.08447266
979,-46.6875,9.6875,-43.5,0.5048828,-1.296387,-0.2167969,-0.09130859,0.2739258,-0.07861328
983,-35.375,7.5,-41.4375,0.574707,-1.459473,-0.2900391,-0.09472656,0.2763672,-0.07617188
987,-24.375,-1.625,-30.0625,0.5356445,-1.315918,-0.2900391,-0.09960938,0.2739258,-0.07324219
991,-27.0625,1.75,-31.8125,0.6674805,-1.125488,-0.324707,-0.1010742,0.2749023,-0.07080078
995,-31.6875,32.8125,-47.25,0.7177734,-1.047363,-0.3129883,-0.1030273,0.2724609,-0.06787109
999,-34.6875,65.5625,-44.375,0.7915039,-1.098145,-0.309082,-0.1079102,0.2739258,-0.06640625
1003,-26.1875,69.75,-31.5,0.2333984,-1.109863,-0.2016602,-0.1079102,0.2709961,-0.06542969
1007,7.8125,22.125,-20.0625,-0.3203125,-1.070801,-0.05126953,-0.1113281,0.2724609,-0.06787109
1012,36.625,-34.6875,-8.5625,-0.1381836,-0.9077148,0.04785156,-0.112793,0.2724609,-0.06933594
1016,53.75,-34.75,6.25,0.4814453,-0.6357422,0.1328125,-0.112793,0.2675781,-0.07080078
1020,46.375,30.875,14.375,0.8652344,-0.3833008,0.1367188,-0.1152344,0.2685547,-0.07470703
1024,14.5625,66.5,12.4375,0.1987305,-0.1074219,0.05175781,-0.1103516,0.2675781,-0.07763672
1028,-9.3125,46.25,-5.4375,-0.230957,-0.3208008,-0.1206055,-0.109375,0.2709961,-0.08007813
1032,16.375,18.9375,-3.3125,0.09765625,-0.7641602,-0.2670898,-0.1079102,0.2685547,-0.08300781
1036,52.5,15.8125,23.125,0.2836914,-0.7250977,-0.2553711,-0.1079102,0.2661133,-0.08691406
1040,74.8125,32.1875,41.5,0.3613281,-0.5073242,-0.2939453,-0.1054688,0.2675781,-0.09082031
1044,66.6875,33.0625,46.375,0.05517578,0.04394531,-0.1669922,-0.1020508,0.2661133,-0.09667969
1048,33.875,35.875,25.0625,0.05908203,0.04394531,-0.03613281,-0.09716797,0.2661133,-0.1044922
1052,22.75,44.875,19.8125,0.07080078,-0.3134766,0.09423828,-0.09472656,0.2661133,-0.1074219
1056,20.4375,44.625,22.375,-0.1611328,-0.2822266,0.09814453,-0.09375,0.2651367,-0.1088867
1060,17.5,21.625,23.1875,-0.2734375,-0.4335938,0.07519531,-0.08789063,0.2636719,-0.112793
1064,16.9375,-3.875,24.9375,-0.1572266,-0.5620117,-0.02832031,-0.08789063,0.2651367,-0.1157227
1068,14.6875,-16.9375,16.5625,-0.06835938,-0.5073242,-0.09375,-0.08544922,0.2675781,-0.1157227
1072,5.4375,-24.8125,12.6875,0.01660156,-0.519043,-0.1323242,-0.08544922,0.2661133,-0.1157227
1076,-3.125,-23.0625,5.75,0.09375,-0.550293,-0.1166992,-0.08398438,0.2651367,-0.1157227
1080,-12.8125,-23.875,4.875,0.1015625,-0.5581055,-0.1552734,-0.08300781,0.2661133,-0.1166992
1084,-23.4375,-18.875,9.6875,0.2451172,-0.6005859,-0.2285156,-0.08398438,0.2661133,-0.1157227
1088,-30.9375,-3.875,14.4375,0.3110352,-0.6787109,-0.3012695,-0.08398438,0.2675781,-0.1088867
1092,-33.3125,5.1875,22.4375,0.140625,-0.7250977,-0.359375,-0.08300781,0.2685547,-0.1098633
1096,-31.1875,6.3125,17.25,0.09033203,-0.8261719,-0.4248047,-0.08203125,0.2700195,-0.1035156
1100,-25,9.3125,12.5,0.1171875,-0.9350586,-0.4785156,-0.078125,0.2724609,-0.1035156
1104,-14.125,12,15.1875,0.09765625,-0.9541016,-0.4667969,-0.078125,0.2724609,-0.1020508
1108,-6.5,8.4375,20.5625,-0.002441406,-0.9272461,-0.4013672,-0.07714844,0.2739258,-0.1005859
1112,2.0625,-2.3125,18,-0.1264648,-0.8417969,-0.309082,-0.07324219,0.2724609,-0.1035156
1116,2.625,-13.875,10.4375,-0.07617188,-0.7792969,-0.2055664,-0.07324219,0.2724609,-0.1005859
1120,4.25,-18.75,8.1875,-0.01025391,-0.7832031,-0.1166992,-0.07128906,0.2739258,-0.09912109
1124,6.9375,-20.9375,10.0625,0.07080078,-0.7524414,-0.05908203,-0.07128906,0.2739258,-0.1005859
1128,5.625,-19.0625,15.875,0.1445313,-0.6938477,-0.02832031,-0.07128906,0.2724609,-0.1005859
1132,7.25,-13.1875,19.625,0.1987305,-0.7055664,-0.02050781,-0.06982422,0.2739258,-0.1005859
1136,4.8125,-8.75,22.0625,0.1831055,-0.5620117,-0.001464844,-0.06884766,0.2739258,-0.1020508
1141,-6.25,-7.125,19.4375,0.1518555,-0.5737305,-0.04394531,-0.06738281,0.2763672,-0.1005859
1145,-9.75,-6.8125,15.9375,0.1484375,-0.5737305,-0.04736328,-0.06494141,0.2749023,-0.1005859
1149,-10.8125,-14,26.5625,0.1987305,-0.6860352,-0.02441406,-0.06396484,0.2763672,-0.09912109
1153,-9.9375,-9.1875,30.5,0.2529297,-0.5927734,0.009765625,-0.06152344,0.2749023,-0.1005859
1157,-14.75,-3.4375,32,0.2216797,-0.6630859,0.05566406,-0.05908203,0.2763672,-0.09765625
1161,-15.375,4.5625,29.625,0.175293,-0.6938477,0.07128906,-0.05566406,0.2773438,-0.09521484
1165,-17.75,4.6875,28.4375,-0.002441406,-0.6787109,0.05175781,-0.05566406,0.2788086,-0.09375
1169,-26.0625,-7.125,25.1875,-0.04101563,-0.7290039,0.03271484,-0.05322266,0.28125,-0.09228516
1173,-29.875,-15.9375,23.6875,0.06689453,-0.9038086,0.02880859,-0.05078125,0.28125,-0.08837891
1177,-21.5,-13.4375,25.8125,0.1328125,-0.9619141,-0.009277344,-0.04980469,0.28125,-0.08837891
1181,-18.375,-7,27.875,0.1132813,-0.9155273,-0.01660156,-0.04736328,0.2836914,-0.08544922
1185,-19.5625,-2.375,16.625,0.01660156,-0.8920898,-0.03222656,-0.04394531,0.2822266,-0.08544922
1189,-20.375,-9.4375,1.1875,-0.09130859,-1.000977,-0.08203125,-0.04394531,0.2851563,-0.08447266
1193,-14.3125,-27,-2.8125,0.03564453,-1.102051,-0.112793,-0.04394531,0.2836914,-0.08007813
1197,-6.875,-33.3125,10.1875,0.1870117,-1.059082,-0.1206055,-0.04492188,0.2836914,-0.07861328
1201,-5.5,-21.8125,11.875,0.2836914,-1.020508,-0.1323242,-0.04492188,0.2861328,-0.07763672
1205,-8.3125,-5.75,-5.8125,0.206543,-1.05127,-0.1821289,-0.04394531,0.2861328,-0.07861328
1209,-8.25,-14.875,-11.375,0.1557617,-1.21875,-0.2285156,-0.04248047,0.2851563,-0.07617188
1213,1.5625,-34.875,-2.25,0.2451172,-1.350586,-0.2592773,-0.04492188,0.2861328,-0.07763672
1217,18.125,-44.3125,12.375,0.3227539,-1.370117,-0.3051758,-0.04589844,0.2851563,-0.07617188
1221,30.5625,-38.8125,19.375,0.3730469,-1.334961,-0.3325195,-0.04589844,0.2851563,-0.07861328
1225,35.5,-26.5625,14.875,0.3535156,-1.26123,-0.3476563,-0.04394531,0.2851563,-0.08154297
1229,35.375,-18.8125,12.875,0.3305664,-1.397461,-0.3325195,-0.04248047,0.2851563,-0.08544922
1233,44.875,-15.5625,13.4375,0.1132813,-1.533203,-0.3168945,-0.04150391,0.2836914,-0.08984375
1237,63.75,-23.25,13.125,-0.1650391,-1.719727,-0.3359375,-0.0390625,0.2822266,-0.09082031
1241,86.625,-61.1875,23.1875,-0.5566406,-1.677246,-0.3325195,-0.04003906,0.2822266,-0.09765625
1245,84.25,-110.1875,28.9375,-0.3203125,-1.568359,-0.2324219,-0.04003906,0.2797852,-0.105957
1249,69.25,-96.5625,9.625,0.1948242,-1.393555,-0.08984375,-0.04150391,0.2797852,-0.1098633
1253,40.1875,-44.4375,-7.1875,0.3769531,-1.424316,-0.06689453,-0.04150391,0.2773438,-0.1157227
1257,15.9375,-5.625,-21.5,0.140625,-1.568359,-0.1630859,-0.04394531,0.2773438,-0.1166992
1261,5.375,-3.625,-28.75,-0.08007813,-1.750977,-0.2783203,-0.04492188,0.2763672,-0.1157227
1265,9.75,-20.6875,-25.125,-0.08007813,-1.902344,-0.3325195,-0.04589844,0.2749023,-0.1196289
1270,21.375,-35.125,-15.8125,-0.03320313,-1.90625,-0.2978516,-0.04980469,0.2739258,-0.1210938
1274,27.125,-40.125,-9,0.140625,-1.700195,-0.1782227,-0.05322266,0.2749023,-0.1235352
1278,9.4375,-13.1875,-21.0625,0.3691406,-1.381836,-0.04394531,-0.05224609,0.2739258,-0.125
1282,-15.9375,21.0625,-35.75,0.3999023,-1.362305,-0.02050781,-0.05664063,0.2749023,-0.1225586
1286,-32.375,35.9375,-39.5,0.2138672,-1.475098,-0.04003906,-0.05908203,0.2709961,-0.1225586
1290,-36.75,26.3125,-35.75,0.08642578,-1.618652,-0.01318359,-0.06152344,0.2749023,-0.1196289
1294,-34.5,8.125,-28.1875,0.109375,-1.67334,0.01367188,-0.06396484,0.2749023,-0.1157227
1298,-38.5625,-1.5625,-24.125,0.2993164,-1.48291,0.02880859,-0.06396484,0.2724609,-0.1142578
1302,-49.125,14.9375,-31.875,0.5473633,-1.42041,0.01708984,-0.06738281,0.2749023,-0.1088867
1306,-63.75,29.1875,-38.6875,0.5009766,-1.362305,0.001953125,-0.07128906,0.2763672,-0.1035156
1310,-69.875,15.375,-32,0.4931641,-1.556641,0.03271484,-0.07128906,0.2763672,-0.1005859
1314,-60.75,8.8125,-9.3125,0.7021484,-1.513672,0.01708984,-0.07470703,0.2773438,-0.09228516
1318,-51.9375,39.6875,4.875,0.8378906,-1.424316,-0.04003906,-0.07226563,0.2773438,-0.08544922
1322,-42.6875,88.6875,2.25,0.6015625,-1.272949,-0.1206055,-0.07470703,0.2797852,-0.08544922
1326,-33.875,101.4375,-9.375,0.05517578,-1.144531,-0.128418,-0.07226563,0.2797852,-0.08544922
1330,-36.3125,63.6875,-21.4375,-0.2387695,-1.074707,-0.1054688,-0.07128906,0.28125,-0.08154297
1334,-31.1875,17.875,-39.0625,-0.2192383,-1.140625,-0.109375,-0.07324219,0.2797852,-0.08007813
1338,-19.4375,-10.125,-38,0.09033203,-1.121582,-0.1708984,-0.07714844,0.2797852,-0.07763672
1342,8.8125,4.25,-34,0.4038086,-1.020508,-0.2783203,-0.08056641,0.2773438,-0.07763672
1346,38.1875,31.125,-34.5,0.3149414,-0.8378906,-0.3286133,-0.08203125,0.2788086,-0.07861328
1350,60.8125,25.4375,-18.6875,0.109375,-0.6591797,-0.2783203,-0.08544922,0.2763672,-0.08300781
1354,64.3125,0.6875,-23,-0.1420898,-0.2470703,-0.1435547,-0.08642578,0.2739258,-0.08837891
1358,58.5625,-23.125,-24.6875,0.004882813,-0.1733398,-0.07080078,-0.08789063,0.2709961,-0.09082031
1362,55.25,-9.9375,-21,0.2836914,-0.1889648,-0.07470703,-0.09033203,0.2685547,-0.09912109
1366,61.3125,27.1875,-15.25,0.3457031,-0.2314453,-0.09375,-0.09228516,0.2685547,-0.1044922
1370,65,41.6875,2.4375,0.06689453,-0.1499023,-0.01660156,-0.09130859,0.2661133,-0.1088867
1374,59.125,33.375,15.3125,-0.02587891,-0.1694336,-0.02832031,-0.09033203,0.2636719,-0.1157227
1378,54.5625,32.375,11.25,0.07470703,-0.3017578,-0.07861328,-0.09033203,0.2612305,-0.1225586
1382,38.4375,43.625,8.625,0.1132813,-0.1928711,-0.109375,-0.08544922,0.2612305,-0.1264648
1386,12.6875,69.625,0.625,0.2026367,-0.3208008,-0.1860352,-0.08300781,0.2597656,-0.1289063
1390,5,81.1875,6.0625,-0.002441406,-0.5268555,-0.1669922,-0.08300781,0.2597656,-0.1333008
1394,14.25,57.9375,15.9375,-0.2231445,-0.6357422,-0.09765625,-0.078125,0.2597656,-0.1347656
1399,18.625,18.8125,20.8125,-0.3046875,-0.5268555,-0.04736328,-0.07568359,0.2612305,-0.137207
1403,7,-3.8125,10.75,-0.1381836,-0.4414063,-0.005371094,-0.07470703,0.2587891,-0.1401367
1407,-11.4375,-10.5625,3.25,-0.1069336,-0.4179688,0.08642578,-0.07324219,0.2612305,-0.1401367
1411,-31.6875,-23,3.625,-0.05664063,-0.402832,0.08642578,-0.07470703,0.2612305,-0.137207
1415,-50.4375,-27.5,3.6875,0.06298828,-0.4140625,-0.005371094,-0.07324219,0.262207,-0.1318359
1419,-62.75,-18.0625,1.5625,0.1791992,-0.5424805,-0.1708984,-0.07568359,0.2612305,-0.1289063
1423,-67,-13.25,3.9375,0.1445313,-0.7290039,-0.3745117,-0.07470703,0.2651367,-0.1210938
1427,-56.3125,-11.75,7,0.1328125,-0.9194336,-0.5014648,-0.07568359,0.2661133,-0.1166992
1431,-39.5,-22.8125,24.6875,-0.01416016,-0.9541016,-0.5131836,-0.07568359,0.2685547,-0.1142578
1435,-19.4375,-39.8125,32.9375,-0.08398438,-0.9194336,-0.3862305,-0.07324219,0.2709961,-0.1088867
1439,-9.4375,-57.625,33.8125,-0.2192383,-0.5927734,-0.2436523,-0.07226563,0.2700195,-0.1088867
1443,-20,-74.9375,32.9375,-0.08398438,-0.402832,-0.1206055,-0.07226563,0.2739258,-0.1044922
1447,-37.75,-63.5,29.5625,0.2294922,-0.4375,-0.04394531,-0.06982422,0.2739258,-0.1020508
1451,-45.4375,-28.25,28.1875,0.3339844,-0.565918,-0.05517578,-0.06738281,0.2763672,-0.09521484
1455,-42.375,-9.1875,30.9375,0.07861328,-0.6591797,-0.1401367,-0.06494141,0.2749023,-0.09375
1459,-29.625,-21.1875,34.125,-0.1572266,-0.6787109,-0.2285156,-0.06396484,0.2788086,-0.08837891
1463,-15.375,-46.5,28.8125,-0.1459961,-0.7407227,-0.2016602,-0.06054688,0.2797852,-0.08544922
1467,-8.4375,-61.4375,34.1875,0.109375,-0.6669922,-0.1401367,-0.05908203,0.2797852,-0.08447266
1471,-14.5,-46.4375,34.1875,0.2915039,-0.6123047,-0.01660156,-0.05664063,0.28125,-0.08300781
1475,-20.9375,-16.625,30.4375,0.3032227,-0.6357422,-0.03613281,-0.05419922,0.2822266,-0.08007813
1479,-28.125,1.6875,18.9375,0.04736328,-0.6708984,-0.1166992,-0.05078125,0.2836914,-0.07617188
1483,-29.4375,-8.375,9.75,-0.04882813,-0.8999023,-0.1977539,-0.05078125,0.2836914,-0.07324219
1487,-18.5625,-18.75,10.4375,0.1171875,-1.047363,-0.2167969,-0.04980469,0.2836914,-0.07324219
1491,-5.0625,-16.625,20,0.2451172,-1.144531,-0.2207031,-0.05078125,0.2851563,-0.07080078
1495,7.125,-8.875,22.1875,0.1210938,-0.9814453,-0.2055664,-0.04833984,0.2851563,-0.07177734
1499,5.875,-10,16.25,0.04736328,-0.8881836,-0.1669922,-0.04589844,0.2851563,-0.07470703
1503,-2.0625,-10.0625,6.75,0.1831055,-0.9467773,-0.128418,-0.04492188,0.2836914,-0.06787109
1507,-4.5,0,2.9375,0.3032227,-1.070801,-0.1630859,-0.04492188,0.2851563,-0.07324219
1511,0.75,9.4375,9.1875,0.1791992,-1.117676,-0.2055664,-0.04589844,0.2861328,-0.06933594
1515,11.0625,6.25,5.625,-0.03710938,-1.129395,-0.2363281,-0.04394531,0.2851563,-0.07177734
1519,17.6875,-8.3125,-4.625,-0.03320313,-1.171875,-0.2128906,-0.04492188,0.2861328,-0.07324219
1523,20.1875,-20.1875,-6.0625,0.1289063,-1.191406,-0.2055664,-0.04492188,0.2861328,-0.07617188
1528,24.875,-18.9375,-4.6875,0.2333984,-1.175781,-0.1899414,-0.04394531,0.2875977,-0.07617188
1532,30.9375,-15.125,-4.6875,0.05517578,-1.121582,-0.1669922,-0.04736328,0.2851563,-0.08007813
1536,25.0625,-12.6875,-19.75,0.1635742,-1.148438,-0.1513672,-0.04589844,0.2836914,-0.08300781
1540,24.375,1.9375,-21.3125,0.3808594,-1.436035,-0.1552734,-0.04980469,0.2851563,-0.08300781
1544,35.5,12.125,1.75,0.3808594,-1.560547,-0.1860352,-0.05078125,0.2836914,-0.08691406
1548,45.125,18.5625,15.875,0.1445313,-1.42041,-0.1938477,-0.04833984,0.2836914,-0.09082031
1552,42.125,13.625,7.4375,-0.03710938,-1.29248,-0.1821289,-0.04589844,0.2822266,-0.09375
1556,37.5,5.625,-7.5,-0.01416016,-1.459473,-0.1513672,-0.04736328,0.2822266,-0.1005859
1560,36.3125,-3.4375,-9.8125,0.03173828,-1.525391,-0.112793,-0.04736328,0.28125,-0.1035156
1564,33.4375,-4.5625,-11.4375,0.07470703,-1.618652,-0.109375,-0.04736328,0.2797852,-0.1044922
1568,28.0625,-1.625,-12.3125,0.06298828,-1.64209,-0.128418,-0.04980469,0.2773438,-0.1074219
1572,15.3125,4.125,-16.875,0.1015625,-1.64209,-0.128418,-0.05078125,0.2773438,-0.1088867
1576,-0.1875,13.3125,-24.5625,0.1635742,-1.68457,-0.1591797,-0.05078125,0.2788086,-0.1098633
1580,-10.6875,17.625,-26.125,0.1557617,-1.758789,-0.2128906,-0.05419922,0.2763672,-0.1088867
1584,-11.5,11.75,-27.125,0.06298828,-1.83252,-0.2324219,-0.05566406,0.2763672,-0.1113281
1588,-7.5625,-2.125,-25.5625,0.05517578,-1.840332,-0.2363281,-0.05810547,0.2763672,-0.1088867
1592,-1.375,-15.125,-24.5,0.125,-1.797363,-0.1977539,-0.05908203,0.2763672,-0.1074219
1596,-1.875,-15.9375,-20.375,0.2758789,-1.634277,-0.1435547,-0.06298828,0.2763672,-0.105957
1600,-12.75,-7.0625,-24.5625,0.2954102,-1.459473,-0.0859375,-0.06298828,0.2763672,-0.1074219
1604,-27.3125,-2.875,-30.9375,0.3457031,-1.45166,-0.05908203,-0.06640625,0.2788086,-0.1044922
1608,-37.0625,3.9375,-33.875,0.3847656,-1.533203,-0.05517578,-0.07128906,0.2773438,-0.1020508
1612,-41.375,-4.0625,-27.0625,0.3110352,-1.603027,-0.03613281,-0.07226563,0.2763672,-0.09912109
1616,-40.9375,-17.875,-22.25,0.3149414,-1.64209,-0.009277344,-0.07324219,0.2773438,-0.09521484
1620,-37.6875,-21.875,-16.875,0.4350586,-1.606934,0.01367188,-0.07714844,0.2773438,-0.09082031
1624,-39,-13.5625,-15.5,0.4506836,-1.475098,0.01367188,-0.07714844,0.2773438,-0.08837891
1628,-46.3125,-3.6875,-20.0625,0.4311523,-1.381836,0.03662109,-0.07958984,0.2763672,-0.08300781
1632,-51.625,4.0625,-26.0625,0.3613281,-1.37793,0.05566406,-0.08203125,0.2788086,-0.07861328
1636,-54.8125,0.25,-27.3125,0.2875977,-1.331055,0.04052734,-0.08300781,0.2788086,-0.07470703
1640,-53.6875,-4.9375,-24.3125,0.2529297,-1.233887,-0.03222656,-0.08642578,0.2773438,-0.06933594
1644,-41.625,-4.625,-27.9375,0.2451172,-1.222656,-0.1245117,-0.08886719,0.2788086,-0.06542969
1648,-26.8125,-12.3125,-27.875,0.1054688,-1.102051,-0.2016602,-0.09130859,0.2788086,-0.06103516
1652,-12.3125,-34.375,-26.75,0.04345703,-0.9311523,-0.2246094,-0.09375,0.2788086,-0.05957031
1657,-0.5625,-54.1875,-22.4375,0.2333984,-0.9155273,-0.2055664,-0.09716797,0.2773438,-0.05712891
1661,9.5625,-50.5625,-12.75,0.4272461,-0.8144531,-0.2285156,-0.09863281,0.2763672,-0.05566406
1665,20,-20,-12.1875,0.5161133,-0.7133789,-0.2822266,-0.09960938,0.2763672,-0.05419922
1669,33,4.8125,-13.5,0.3227539,-0.5463867,-0.3554688,-0.1020508,0.2749023,-0.05712891
1673,44.75,13.1875,-7.9375,0.2026367,-0.4335938,-0.3823242,-0.1010742,0.2739258,-0.06103516
1677,58.4375,20.0625,-0.5625,0.1713867,-0.4067383,-0.3359375,-0.1020508,0.2749023,-0.06542969
1681,66.5,16,7.5625,-0.006347656,-0.1616211,-0.2514648,-0.1020508,0.2709961,-0.07080078
1685,67.125,18.875,10.5625,0.1015625,-0.08398438,-0.2016602,-0.1010742,0.2700195,-0.07617188
1689,63.5625,44.4375,6.9375,0.1484375,-0.1459961,-0.1323242,-0.09960938,0.2709961,-0.08300781
1693,57.5,63.4375,13.4375,0.03173828,-0.1074219,-0.1938477,-0.09619141,0.2675781,-0.09082031
1697,58.375,68.6875,13.8125,-0.1108398,-0.3017578,-0.1860352,-0.09375,0.2675781,-0.09521484
1701,61.875,53.5,23.125,-0.2041016,-0.2392578,-0.07861328,-0.09228516,0.2661133,-0.1035156
1705,47.1875,33.0625,20.25,-0.2773438,-0.05273438,0.05175781,-0.09033203,0.2651367,-0.1113281
1709,22.0625,17.9375,-0.4375,-0.1767578,-0.1347656,0.06347656,-0.08886719,0.2636719,-0.112793
1713,1.9375,6.5625,-3.8125,0.02832031,-0.3598633,-0.05126953,-0.08886719,0.2651367,-0.1157227
1717,-9.375,7.9375,3.875,0.2529297,-0.565918,-0.1630859,-0.08789063,0.2651367,-0.1157227
1721,-12.875,21.25,19.25,0.2758789,-0.6201172,-0.2055664,-0.08544922,0.2651367,-0.1157227
1725,-18.875,23.625,31.5,0.09033203,-0.5463867,-0.2592773,-0.08398438,0.2661133,-0.1157227
1729,-32.75,12.0625,34.375,-0.03320313,-0.5112305,-0.2978516,-0.08056641,0.2675781,-0.112793
1733,-41.25,14.75,21.5625,0.07470703,-0.6318359,-0.4321289,-0.07714844,0.2700195,-0.1113281
1737,-40.875,23.6875,25.75,0.1367188,-0.8300781,-0.5170898,-0.07568359,0.2724609,-0.1074219
1741,-28.375,30,29.8125,0.02832031,-0.9775391,-0.5170898,-0.07226563,0.2739258,-0.1044922
1745,-6.9375,17.5625,34.875,-0.1884766,-0.9272461,-0.4208984,-0.07128906,0.2709961,-0.1035156
1749,4.625,-6.5625,34.3125,-0.2773438,-0.7094727,-0.2670898,-0.06640625,0.2724609,-0.1044922
1753,-5.3125,-20.1875,24.125,-0.1342773,-0.4609375,-0.112793,-0.06396484,0.2739258,-0.1020508
1757,-23.5,-19.4375,18.5625,-0.05664063,-0.3989258,-0.03222656,-0.06298828,0.2749023,-0.1020508
1761,-31.25,-11.25,13.75,0.09033203,-0.5581055,-0.02050781,-0.06396484,0.2763672,-0.09912109
1765,-33.25,-0.1875,10.4375,0.109375,-0.6669922,-0.07470703,-0.06152344,0.2749023,-0.09521484
1769,-25.9375,5.8125,4,0.109375,-0.7524414,-0.1206055,-0.06152344,0.2763672,-0.09228516
1773,-10.6875,7.5625,4.0625,0.1210938,-0.7832031,-0.1015625,-0.06054688,0.2773438,-0.09228516
1777,-5.3125,0,17.3125,0.04345703,-0.6513672,-0.04394531,-0.05908203,0.2773438,-0.09228516
1781,-3.5,-8.75,14.3125,-0.03320313,-0.4960938,-0.05126953,-0.05810547,0.2788086,-0.09082031
1786,-15.9375,-20.5,18.25,0.01269531,-0.421875,-0.02832031,-0.05664063,0.2788086,-0.09082031
1790,-30.9375,-16.4375,18.25,0.3110352,-0.6240234,-0.01660156,-0.05664063,0.28125,-0.08544922
1794,-37.0625,5.5,19.5625,0.4389648,-0.7792969,-0.02441406,-0.05322266,0.2797852,-0.08544922
1798,-33.25,23.9375,19.375,0.2529297,-0.8066406,-0.112793,-0.05224609,0.2822266,-0.08154297
1802,-23.0625,22.3125,15.25,-0.06054688,-0.8803711,-0.1899414,-0.04833984,0.2836914,-0.07763672
1806,-7.9375,-11.75,13.125,-0.1499023,-0.9658203,-0.1435547,-0.04736328,0.2822266,-0.07861328
1810,4.75,-33.125,18.9375,0.159668,-0.9931641,-0.07861328,-0.04833984,0.2851563,-0.07763672
1814,-3.875,-28.1875,36.8125,0.2724609,-0.8920898,-0.05126953,-0.04492188,0.2861328,-0.07763672
1818,-12.625,-1.0625,20.375,0.1870117,-0.9155273,-0.1474609,-0.04248047,0.2851563,-0.07763672
1822,-11.75,9.5,-4,-0.1069336,-1.02832,-0.2397461,-0.04150391,0.2851563,-0.07763672
1826,-3.8125,-13.5,-10.875,-0.1342773,-1.191406,-0.2475586,-0.04150391,0.2861328,-0.07617188
1830,8.3125,-39.9375,-0.8125,0.01660156,-1.265137,-0.2514648,-0.04248047,0.2851563,-0.07324219
1834,21.8125,-44.0625,7.875,0.2529297,-1.338867,-0.2592773,-0.04248047,0.2861328,-0.07617188
1838,29.4375,-22.625,6.875,0.2255859,-1.257324,-0.2592773,-0.04394531,0.2861328,-0.07861328
1842,27.25,-8.4375,-14.4375,0.05908203,-1.15625,-0.2783203,-0.04394531,0.2851563,-0.08007813
1846,28.1875,-23.0625,-22.25,0.02050781,-1.29248,-0.2783203,-0.04589844,0.2861328,-0.08154297
1850,41,-47.625,-7.3125,0.175293,-1.374023,-0.2514648,-0.04833984,0.2851563,-0.08691406
1854,49.9375,-50.1875,9.6875,0.4077148,-1.342773,-0.2055664,-0.04833984,0.2822266,-0.08837891
1858,51.75,-11.875,8.5,0.527832,-1.296387,-0.1323242,-0.04833984,0.28125,-0.09228516
1862,34.375,37.8125,-6.625,0.3188477,-1.140625,-0.0859375,-0.04736328,0.28125,-0.09667969
1866,19.25,59.1875,-32.125,0.03173828,-1.338867,-0.109375,-0.04833984,0.2822266,-0.1005859
1870,23.25,30.1875,-22.4375,-0.1572266,-1.587891,-0.109375,-0.04980469,0.2797852,-0.1035156
1874,38.4375,-8.125,0.75,-0.08398438,-1.696289,-0.09375,-0.05078125,0.2797852,-0.105957
1878,48.125,-20.0625,8.625,0.06298828,-1.614746,-0.09765625,-0.05078125,0.2788086,-0.1088867
1882,38.0625,-9.3125,0.625,0.1328125,-1.548828,-0.1015625,-0.05224609,0.2763672,-0.1113281
1886,24.125,9.5625,-14.625,0.1171875,-1.583984,-0.09375,-0.04980469,0.2749023,-0.1157227
1890,14.625,19,-24.5,0.05126953,-1.649902,-0.09375,-0.05224609,0.2749023,-0.1166992
1894,7.6875,8.5,-25.3125,-0.01025391,-1.657715,-0.1206055,-0.05224609,0.2749023,-0.1181641
1898,3.625,-8.4375,-22.75,0.04736328,-1.68457,-0.1206055,-0.05664063,0.2739258,-0.1196289
1902,6.125,-17.6875,-19.25,0.140625,-1.665527,-0.109375,-0.05810547,0.2739258,-0.1196289
1906,9,-21.6875,-13.25,0.2294922,-1.544922,-0.07470703,-0.05908203,0.2749023,-0.1196289
1910,3.6875,-16.5,-10.625,0.3652344,-1.408691,-0.02441406,-0.06152344,0.2749023,-0.1181641
1915,-5.9375,-2.8125,-9.25,0.4194336,-1.342773,0.009765625,-0.06152344,0.2724609,-0.1181641
1919,-17.0625,11.1875,-8.5625,0.3691406,-1.29248,0.01708984,-0.06396484,0.2749023,-0.1181641
1923,-28.75,16.5625,-11,0.206543,-1.288574,0.03662109,-0.06494141,0.2724609,-0.1181641
1927,-39.0625,9.75,-13,0.1289063,-1.374023,0.05175781,-0.06494141,0.2749023,-0.1157227
1931,-42.25,2.8125,-14.625,0.1445313,-1.498535,0.05566406,-0.06640625,0.2749023,-0.1113281
1935,-41.25,-2.25,-15.3125,0.1367188,-1.583984,0.02880859,-0.06494141,0.2763672,-0.105957
1939,-41.25,-10.75,-12.875,0.2026367,-1.471191,0.02880859,-0.06738281,0.2763672,-0.1044922
1943,-44.25,-8.125,-10.125,0.3886719,-1.490723,0.03662109,-0.06982422,0.2763672,-0.1005859
1947,-46.6875,16.125,-7.4375,0.5200195,-1.408691,0.05566406,-0.07128906,0.2763672,-0.09375
1951,-55.0625,37,-7.3125,0.4506836,-1.342773,0.09423828,-0.07128906,0.2788086,-0.09228516
1955,-66.4375,39.3125,-3.25,0.4272461,-1.45166,0.1289063,-0.07226563,0.2788086,-0.08691406
1959,-73.875,41.1875,-8.8125,0.4311523,-1.501953,0.07519531,-0.07128906,0.28125,-0.08007813
1963,-73.875,52.625,-13.3125,0.4697266,-1.501953,-0.08203125,-0.07128906,0.28125,-0.07617188
1967,-62.5,59.9375,-12,0.3691406,-1.501953,-0.2705078,-0.07226563,0.2822266,-0.06933594
1971,-30.8125,53.1875,0.875,0.2104492,-1.471191,-0.3632813,-0.07128906,0.28125,-0.06640625
1975,9.25,26.875,23.1875,0.01269531,-1.207031,-0.3286133,-0.07128906,0.2822266,-0.06787109
1979,21.5,-13.625,28.6875,-0.06445313,-0.8105469,-0.2670898,-0.06738281,0.2836914,-0.06640625
1983,19.125,-27.8125,4.3125,0.175293,-0.7133789,-0.2207031,-0.06640625,0.2822266,-0.06640625
1987,23.5,-11.0625,-6.0625,0.4506836,-0.6977539,-0.2475586,-0.06640625,0.2822266,-0.07080078
1991,39.0625,20.375,6,0.4931641,-0.6435547,-0.2324219,-0.06640625,0.2797852,-0.07470703
1995,47.5625,42.375,16.125,0.190918,-0.340332,-0.2592773,-0.06494141,0.2822266,-0.07861328
1999,50.625,37.375,7.8125,-0.06054688,-0.2666016,-0.2514648,-0.06298828,0.28125,-0.08154297
2003,58.25,22,5.8125,-0.1420898,-0.2822266,-0.2167969,-0.06298828,0.2797852,-0.08837891
2007,61.375,7.875,7.5,-0.1533203,-0.1967773,-0.1743164,-0.06298828,0.2788086,-0.09521484
2011,67.3125,1.4375,13.25,-0.1303711,-0.2124023,-0.1015625,-0.06054688,0.2763672,-0.09667969
2015,67.4375,-6.0625,16.5,-0.08007813,-0.2202148,-0.1435547,-0.05908203,0.2739258,-0.1044922
2019,64.375,-0.4375,24.125,0.1674805,-0.2626953,-0.08203125,-0.05664063,0.2724609,-0.112793
2023,50.1875,38.375,22.875,0.2724609,-0.2084961,-0.08203125,-0.05419922,0.2709961,-0.1142578
2027,24.5,67.875,17,-0.06054688,-0.1113281,-0.06298828,-0.05078125,0.2709961,-0.1196289
2031,-1.875,61.625,3.0625,-0.378418,-0.2783203,-0.1166992,-0.04980469,0.2700195,-0.1225586
2035,-8.875,25.125,-7.8125,-0.5253906,-0.5385742,-0.1977539,-0.04833984,0.2700195,-0.1225586
2039,-2.75,-22.25,-2.875,-0.3320313,-0.6513672,-0.2670898,-0.04736328,0.2700195,-0.1235352
2044,-1.125,-38.6875,4.6875,0.03955078,-0.6201172,-0.2939453,-0.04980469,0.2700195,-0.1225586
2048,-5.4375,-23.8125,7.4375,0.2412109,-0.5893555,-0.1977539,-0.04833984,0.2709961,-0.1225586
2052,-12.3125,-10.3125,5.625,0.1445313,-0.5229492,-0.1630859,-0.04980469,0.2709961,-0.1210938
2056,-25.3125,-7.75,-1.0625,0.07861328,-0.4453125,-0.2861328,-0.04980469,0.2709961,-0.1181641
2060,-42.1875,-4.4375,-7.8125,0.159668,-0.6708984,-0.4975586,-0.04980469,0.2739258,-0.1166992
2064,-34.25,9.375,-3.8125,0.2758789,-1.020508,-0.6132813,-0.04980469,0.2749023,-0.112793
2068,-9.125,22.25,15.25,0.2373047,-1.129395,-0.59375,-0.04833984,0.2749023,-0.112793
2072,9.0625,21.5,29.4375,0.04345703,-0.9658203,-0.4902344,-0.04736328,0.2739258,-0.1098633
2076,17,9.125,24.375,-0.1499023,-0.7055664,-0.3129883,-0.04394531,0.2763672,-0.1113281
2080,12.1875,-9,12.8125,-0.2041016,-0.5698242,-0.1743164,-0.04248047,0.2739258,-0.112793
2084,3.3125,-21.8125,3.9375,-0.2119141,-0.4296875,-0.07470703,-0.04248047,0.2749023,-0.112793
2088,-4.625,-36.5,2.4375,-0.1728516,-0.4609375,-0.03222656,-0.04248047,0.2749023,-0.1142578
2092,-6.6875,-43.9375,1.25,-0.05273438,-0.4609375,-0.02441406,-0.04394531,0.2749023,-0.1098633
2096,-3,-45.375,2.875,-0.002441406,-0.6083984,-0.03222656,-0.04492188,0.2749023,-0.112793
2100,19.4375,-53.4375,13.8125,0.0009765625,-0.7368164,0.001953125,-0.04492188,0.2773438,-0.1113281
2104,42.4375,-52.375,31.625,0.2646484,-0.5424805,0.06738281,-0.04492188,0.2739258,-0.1142578
2108,28.1875,-4.625,13.125,0.4970703,-0.1074219,0.04443359,-0.04394531,0.2749023,-0.1157227
2112,-35.75,29.625,-8.125,0.05517578,0.05517578,-0.05908203,-0.04150391,0.2749023,-0.1166992
2116,-61.8125,9.5,-27.625,-0.1767578,-0.5385742,-0.1015625,-0.04492188,0.2749023,-0.112793
2120,-48.9375,-19.375,-7.9375,0.08642578,-0.9116211,-0.09375,-0.04492188,0.2788086,-0.1074219
2124,-30.875,-11.625,4.375,0.3457031,-0.8300781,-0.07470703,-0.04492188,0.2773438,-0.1044922
2128,-21.6875,13.5,1.0625,0.2724609,-0.7641602,-0.03222656,-0.04589844,0.2788086,-0.1005859
2132,-25.75,29,-3.875,0.1289063,-0.7407227,-0.03613281,-0.04492188,0.2788086,-0.1005859
2136,-22.75,24.1875,-8.625,-0.02197266,-0.8496094,-0.005371094,-0.04394531,0.2788086,-0.09667969
2140,-23.4375,13.5625,-6.375,-0.02978516,-0.9619141,-0.05126953,-0.04589844,0.2797852,-0.09667969
2144,-15.75,9.75,-4.875,0.1210938,-1.175781,-0.05517578,-0.04589844,0.28125,-0.09521484
2148,-2.25,17.5625,2.3125,0.1713867,-1.312012,-0.1206055,-0.04589844,0.2797852,-0.09667969
2152,14.125,23.8125,5.9375,0.008789063,-1.245605,-0.1782227,-0.04589844,0.2822266,-0.09521484
2156,20.5,12.5625,-2.4375,-0.08007813,-1.334961,-0.1362305,-0.04150391,0.28125,-0.09521484
2160,26.375,-4.3125,0.8125,0.08642578,-1.424316,-0.05517578,-0.04492188,0.2797852,-0.09765625
2164,27.1875,-12.0625,8.25,0.2294922,-1.401367,0.01708984,-0.04492188,0.2797852,-0.1020508
2168,27.3125,-8.0625,13.875,0.2724609,-1.393555,-0.005371094,-0.04394531,0.28125,-0.1020508
2173,27.125,-5.3125,14,0.2216797,-1.334961,-0.04736328,-0.04394531,0.2797852,-0.105957
2177,27.0625,2.0625,9,0.3110352,-1.397461,-0.009277344,-0.04150391,0.2797852,-0.1088867
2181,26.9375,6.375,20.4375,0.2490234,-1.393555,0.04443359,-0.04003906,0.2797852,-0.1088867
2185,23.5625,8.0625,23.3125,0.1054688,-1.42041,0.08251953,-0.03759766,0.2788086,-0.112793
2189,17.5,3.3125,19.125,-0.03710938,-1.389648,0.05175781,-0.03515625,0.2788086,-0.1157227
2193,12.4375,4.125,6.9375,-0.05273438,-1.479004,0.05566406,-0.03417969,0.2788086,-0.1166992
2197,8.3125,9.375,-4.125,0.03173828,-1.521484,0.04443359,-0.03320313,0.2749023,-0.1157227
2201,3.8125,15.875,-11.5625,0.05126953,-1.548828,-0.04003906,-0.03417969,0.2773438,-0.1196289
2205,-0.625,13.1875,-16.3125,0.01269531,-1.638184,-0.1552734,-0.03515625,0.2763672,-0.1181641
2209,5.75,1.3125,-9.3125,0.03564453,-1.773926,-0.2246094,-0.03515625,0.2788086,-0.1181641
2213,14.3125,-4.875,-3.875,0.1171875,-1.781738,-0.2705078,-0.03662109,0.2763672,-0.1210938
2217,16.0625,-7.8125,-4.3125,0.125,-1.622559,-0.2363281,-0.03662109,0.2749023,-0.1181641
2221,8,-8.375,-16.375,0.1557617,-1.490723,-0.1977539,-0.03759766,0.2763672,-0.1225586
2225,-2.0625,-9.625,-22.75,0.2451172,-1.486816,-0.1743164,-0.04003906,0.2749023,-0.1210938
2229,-6,-2.625,-25.3125,0.3457031,-1.556641,-0.1938477,-0.04150391,0.2749023,-0.1225586
2233,-8.25,8.8125,-19.0625,0.3808594,-1.587891,-0.1708984,-0.04492188,0.2749023,-0.1210938
2237,-9.8125,12.4375,-11.1875,0.3071289,-1.638184,-0.128418,-0.04589844,0.2749023,-0.1196289
2241,-14.3125,8.25,-6.5625,0.2138672,-1.669434,-0.05908203,-0.04589844,0.2763672,-0.1196289
2245,-18.0625,-0.8125,-6.125,0.1328125,-1.665527,-0.005371094,-0.04492188,0.2749023,-0.1181641
2249,-28.125,-8.9375,-12.375,0.09033203,-1.61084,0.04785156,-0.04736328,0.2773438,-0.1166992
2253,-39.875,-14.5625,-25.5,0.1791992,-1.517578,0.05175781,-0.04833984,0.2788086,-0.1157227
2257,-48.75,-22,-25.1875,0.3266602,-1.64209,0.05957031,-0.04980469,0.2773438,-0.1098633
2261,-45.6875,-30.625,-6.375,0.4116211,-1.661621,0.02099609,-0.05419922,0.2788086,-0.105957
2265,-34.5,-31.75,10.5625,0.4350586,-1.572266,-0.01318359,-0.05419922,0.2797852,-0.1020508
2269,-36.1875,-30.1875,7.9375,0.3535156,-1.350586,-0.05126953,-0.05322266,0.28125,-0.09521484
2273,-40.625,-16.75,-5.75,0.3847656,-1.226563,-0.1015625,-0.05419922,0.28125,-0.09375
2277,-42.625,3.875,-21.625,0.3613281,-1.241699,-0.109375,-0.05566406,0.2797852,-0.08691406
2281,-37.875,21.125,-31.4375,0.3071289,-1.366211,-0.07080078,-0.05566406,0.28125,-0.08544922
2285,-24,27.9375,-27.25,0.2333984,-1.331055,-0.05908203,-0.06152344,0.28125,-0.08300781
2289,-13,24.375,-23.3125,0.09375,-1.109863,-0.07861328,-0.06054688,0.28125,-0.07861328
2293,-5.0625,12.5,-24.1875,0.05908203,-0.9892578,-0.09765625,-0.06494141,0.28125,-0.08154297
2297,1.1875,6.9375,-27.8125,-0.02587891,-0.7988281,-0.1245117,-0.06640625,0.2797852,-0.08007813
2302,4.875,-6.0625,-36.3125,-0.03710938,-0.8066406,-0.1591797,-0.06738281,0.2788086,-0.08154297
2306,16.4375,-14.25,-38.8125,0.1289063,-0.8378906,-0.1743164,-0.07226563,0.2788086,-0.08007813
2310,35.75,-7.6875,-34.9375,0.2294922,-0.7055664,-0.1938477,-0.07324219,0.2788086,-0.08300781
2314,47.4375,0.4375,-22.875,0.125,-0.4296875,-0.1669922,-0.078125,0.2788086,-0.08544922
2318,45.1875,3.125,-22.75,0.03955078,-0.2666016,-0.1669922,-0.08056641,0.2763672,-0.09082031
2322,46,5.375,-25.375,0.02441406,-0.3598633,-0.2089844,-0.08056641,0.2724609,-0.09521484
2326,50.625,4.125,-22.5,0.06689453,-0.4921875,-0.3666992,-0.08300781,0.2709961,-0.09912109
2330,65.5625,6.375,-13,0.1289063,-0.6201172,-0.3862305,-0.08398438,0.2685547,-0.1035156
2334,91.9375,8.3125,6,0.04736328,-0.4726563,-0.324707,-0.08642578,0.2675781,-0.1113281
2338,97.3125,0,23.1875,-0.05273438,-0.1616211,-0.1938477,-0.08398438,0.2651367,-0.1166992
2342,89.625,5.5625,17.5,-0.02587891,-0.09570313,0.009765625,-0.08203125,0.262207,-0.1264648
2346,66.5625,18.9375,-4.1875,-0.09521484,0.140625,0.2211914,-0.07958984,0.2587891,-0.1347656
2350,28.125,9.4375,-8.375,-0.1611328,0.0009765625,0.3056641,-0.08056641,0.2597656,-0.137207
2354,4.4375,-6.25,-17.3125,-0.1225586,-0.2241211,0.2402344,-0.08203125,0.2563477,-0.137207
2358,-9.75,-33.0625,-10.625,-0.05664063,-0.453125,0.03662109,-0.08398438,0.2573242,-0.137207
2362,-14.9375,-43.875,1.9375,0.2529297,-0.6240234,-0.06689453,-0.08398438,0.2563477,-0.1357422
2366,-20.75,-26.5625,6.9375,0.4155273,-0.6162109,-0.1708984,-0.08544922,0.2573242,-0.1347656
2370,-31.75,-6.125,8.875,0.3691406,-0.6005859,-0.3286133,-0.08544922,0.2597656,-0.1333008
2374,-44.8125,8.3125,13.375,0.3730469,-0.6938477,-0.3666992,-0.08544922,0.2597656,-0.1289063
2378,-43.75,26.625,12.25,0.2993164,-0.8222656,-0.359375,-0.08398438,0.262207,-0.1264648
2382,-36.0625,25.25,17.5625,0.05517578,-0.8144531,-0.3286133,-0.08203125,0.2651367,-0.1225586
2386,-32.3125,13.5625,20.375,0.02050781,-0.7871094,-0.3823242,-0.08056641,0.2651367,-0.1210938
2390,-26.3125,16.125,14.1875,0.1132813,-0.9233398,-0.4013672,-0.078125,0.2661133,-0.1181641
2394,-15.75,25.75,11.375,0.1289063,-0.9541016,-0.3901367,-0.07714844,0.2675781,-0.1166992
2398,-2.625,23.5,16.125,-0.04492188,-0.8647461,-0.2705078,-0.07324219,0.2661133,-0.1166992
2402,3.25,-1.5,25.1875,-0.2426758,-0.6279297,-0.1054688,-0.07324219,0.2685547,-0.1181641
2406,-6.5,-27.125,27.0625,-0.1611328,-0.4179688,-0.04736328,-0.06982422,0.2675781,-0.1166992
2410,-31.5,-23.4375,15.5,0.1289063,-0.503418,-0.1206055,-0.06884766,0.2700195,-0.1157227
2414,-36.25,8.9375,-3.1875,0.3188477,-0.6630859,-0.1591797,-0.06738281,0.2700195,-0.1113281
2418,-29.5,26.75,-2.1875,0.07080078,-0.7871094,-0.1669922,-0.06982422,0.2709961,-0.1088867
2422,-4.6875,6.1875,6.75,-0.2270508,-0.7680664,-0.1362305,-0.06884766,0.2709961,-0.1088867
2426,13,-31.8125,14.75,-0.2270508,-0.6162109,-0.06689453,-0.06738281,0.2749023,-0.1074219
2431,1.6875,-55.0625,27.5,0.02441406,-0.4335938,0.001953125,-0.06884766,0.2724609,-0.1074219
2435,-20.75,-37.75,26.75,0.4077148,-0.4179688,0.01367188,-0.06494141,0.2739258,-0.1074219
2439,-33.5625,5.5,19.5625,0.3886719,-0.6279297,-0.01318359,-0.06396484,0.2749023,-0.1044922
2443,-31.4375,16.0625,22.4375,0.08251953,-0.6630859,-0.07470703,-0.06298828,0.2763672,-0.09912109
2447,-22,-0.875,27.75,-0.08398438,-0.7910156,-0.07470703,-0.06054688,0.2763672,-0.09912109
2451,-14.0625,-20.125,31.5,0.07080078,-0.7368164,-0.03613281,-0.05664063,0.2788086,-0.09765625
2455,-22.5,-18.4375,35.125,0.2026367,-0.6938477,-0.005371094,-0.05419922,0.2797852,-0.09521484
2459,-30.625,-7.3125,37.875,0.2568359,-0.8105469,-0.03222656,-0.05224609,0.28125,-0.09375
2463,-25.5,3.375,33.125,0.07080078,-0.9467773,-0.0859375,-0.04980469,0.2797852,-0.08984375
2467,-13.5625,-0.375,31.8125,-0.05273438,-0.9853516,-0.1206055,-0.04492188,0.2822266,-0.09082031
2471,-15.0625,-5.5,23.3125,0.004882813,-0.9580078,-0.08203125,-0.04492188,0.2822266,-0.08837891
2475,-13.875,-5.5625,16,0.05517578,-1.148438,-0.06689453,-0.04248047,0.2851563,-0.08691406
2479,-4.5625,-10.4375,24.3125,0.04736328,-1.233887,-0.1362305,-0.04003906,0.2851563,-0.08544922
2483,11.3125,-8.9375,20.625,-0.06445313,-1.319336,-0.2089844,-0.04003906,0.2861328,-0.08447266
2487,22.6875,-18.5625,8.875,-0.1147461,-1.241699,-0.2128906,-0.03759766,0.2836914,-0.08837891
2491,24.8125,-33.25,-0.375,0.03955078,-1.29248,-0.1782227,-0.03759766,0.2822266,-0.08837891
2495,30.5625,-40.8125,4.375,0.2797852,-1.370117,-0.1474609,-0.03662109,0.2851563,-0.08984375
2499,32.4375,-33.3125,12.25,0.3339844,-1.265137,-0.1245117,-0.03662109,0.2836914,-0.09375
2503,32.125,-13.625,3.125,0.3417969,-1.249512,-0.1323242,-0.03759766,0.2836914,-0.09667969
2507,29.75,-0.8125,2.6875,0.3266602,-1.34668,-0.09765625,-0.03662109,0.2797852,-0.1005859
2511,34,5.1875,11.875,0.3339844,-1.455566,-0.0859375,-0.03662109,0.2822266,-0.1020508
2515,36.75,10.5625,24,0.2685547,-1.486816,-0.07470703,-0.03515625,0.2797852,-0.1044922
2519,32.9375,19,23.3125,0.06689453,-1.439941,-0.1054688,-0.03320313,0.2797852,-0.1074219
2523,23.125,20,7.5,-0.1147461,-1.529297,-0.1362305,-0.03076172,0.2797852,-0.112793
2527,17.625,10.25,-10.8125,-0.1728516,-1.708008,-0.1323242,-0.03076172,0.2788086,-0.1142578
2531,21.625,-4,-12.625,-0.09130859,-1.848145,-0.1401367,-0.03076172,0.2773438,-0.1142578
2535,28.375,-10.4375,-4.5,-0.01416016,-1.933594,-0.1513672,-0.03320313,0.2773438,-0.1181641
2539,29.75,-12,-3.5,-0.06835938,-1.844238,-0.1513672,-0.03173828,0.2773438,-0.1166992
2543,11.5,-27.25,-15.25,-0.1572266,-1.704102,-0.06689453,-0.03417969,0.2773438,-0.1181641
2547,-10.4375,-31.625,-37.5625,-0.04101563,-1.61084,-0.01318359,-0.03662109,0.2763672,-0.1210938
2551,-34.8125,-38.0625,-54.5625,0.01660156,-1.501953,-0.01660156,-0.04150391,0.2763672,-0.1196289
2555,-48.625,-45.3125,-60.75,0.1557617,-1.533203,-0.09375,-0.04589844,0.2773438,-0.1142578
2560,-46.75,-47.8125,-52.25,0.3691406,-1.587891,-0.1245117,-0.05322266,0.2773438,-0.1098633
2564,-38.8125,-33.6875,-41.5,0.527832,-1.587891,-0.1401367,-0.06054688,0.2788086,-0.1035156
2568,-27,-22.5625,-23.25,0.4541016,-1.626465,-0.1362305,-0.06152344,0.2773438,-0.1020508
2572,-24.375,-26.1875,-13.875,0.2568359,-1.479004,-0.02832031,-0.06396484,0.2773438,-0.09765625
2576,-35.1875,-40.125,-7.5625,0.2915039,-1.486816,0.07128906,-0.06640625,0.2773438,-0.09667969
2580,-50.625,-36.0625,-10.5,0.3847656,-1.45166,0.09814453,-0.06640625,0.2788086,-0.09228516
2584,-67.875,-17.8125,-17.8125,0.4775391,-1.412598,0.009765625,-0.06884766,0.2797852,-0.08837891
2588,-71.8125,12.875,-25.8125,0.5200195,-1.509766,-0.1435547,-0.07128906,0.2797852,-0.07861328
2592,-61.375,38.375,-22.875,0.5087891,-1.669434,-0.309082,-0.07324219,0.28125,-0.07470703
2596,-38.5625,45.0625,-18.4375,0.2451172,-1.560547,-0.3901367,-0.07324219,0.2822266,-0.07080078
2600,-25.6875,24.625,-18.125,-0.02587891,-1.323242,-0.3862305,-0.07470703,0.2822266,-0.06787109
2604,-13.9375,-5.125,-29,-0.04101563,-1.210938,-0.3476563,-0.07714844,0.28125,-0.06640625
2608,0.25,-14.3125,-31.25,0.2607422,-1.175781,-0.2939453,-0.07958984,0.2797852,-0.06542969
2612,8.0625,0.6875,-26.875,0.4350586,-1.008789,-0.2744141,-0.08203125,0.28125,-0.06396484
2616,7.4375,15.25,-31.8125,0.2875977,-0.7719727,-0.2397461,-0.08544922,0.2788086,-0.06396484
2620,-5.5625,10.75,-43.6875,0.1367188,-0.581543,-0.1552734,-0.08789063,0.2763672,-0.06542969
2624,-23.5625,8.125,-59.875,0.2104492,-0.4804688,-0.1206055,-0.09375,0.2773438,-0.06542969
2628,-38.25,20.5,-71.6875,0.2875977,-0.5268555,-0.112793,-0.09472656,0.2763672,-0.06542969
2632,-33.875,43.4375,-76.8125,0.3925781,-0.7094727,-0.1591797,-0.1020508,0.2749023,-0.05859375
2636,-18.9375,62.3125,-59.875,0.3339844,-0.8457031,-0.1513672,-0.109375,0.2724609,-0.05957031
2640,8.5,71.875,-19,0.1987305,-0.7832031,-0.1401367,-0.1103516,0.2700195,-0.05957031
2644,34.0625,69.5625,8.3125,-0.05273438,-0.6474609,-0.1435547,-0.112793,0.2700195,-0.06542969
2648,57.9375,62,12.3125,-0.1845703,-0.2978516,-0.0859375,-0.1103516,0.2700195,-0.07080078
2652,57.6875,55.9375,9.75,-0.06054688,-0.1230469,0.03662109,-0.1079102,0.2675781,-0.07470703
2656,54.875,84.75,1.3125,0.1987305,-0.1347656,0.1328125,-0.1069336,0.2675781,-0.08447266
2660,39.4375,90.8125,11.3125,-0.03710938,-0.1616211,0.07910156,-0.1054688,0.2661133,-0.09228516
2664,40.375,77.875,15.25,-0.1069336,-0.355957,0.1210938,-0.1020508,0.2661133,-0.09375
2668,37.375,46.25,15.375,-0.328125,-0.2900391,0.1713867,-0.09863281,0.2661133,-0.1020508
2672,22.4375,-1.625,7.4375,-0.3510742,-0.2666016,0.125,-0.09863281,0.2651367,-0.105957
2676,6.5625,-33.8125,-3.5,-0.03320313,-0.4453125,-0.07861328,-0.09716797,0.2636719,-0.105957
2680,-2.0625,-37.6875,0,0.3535156,-0.581543,-0.2089844,-0.09863281,0.2636719,-0.1044922
2684,-11.625,-27.0625,13.375,0.4389648,-0.565918,-0.2705078,-0.09960938,0.2661133,-0.1044922
2689,-23,-16.25,27.25,0.4116211,-0.5776367,-0.3286133,-0.09716797,0.2651367,-0.1005859
2693,-33.8125,-13.875,30.5625,0.3071289,-0.5581055,-0.4746094,-0.09619141,0.2661133,-0.09765625
2697,-44,1.625,20.6875,0.3886719,-0.7055664,-0.6977539,-0.09375,0.2700195,-0.09667969
2701,-33.5625,24,18.625,0.3808594,-0.9853516,-0.7553711,-0.09228516,0.2700195,-0.09228516
2705,-13.3125,33.375,25.3125,0.1518555,-1.043945,-0.6513672,-0.09033203,0.2709961,-0.09228516
2709,8.5,19.25,31.125,-0.1147461,-0.9580078,-0.5170898,-0.08544922,0.2709961,-0.09375
2713,23.9375,-6.75,24.5,-0.2700195,-0.6938477,-0.3706055,-0.08300781,0.2709961,-0.09228516
2717,3.8125,-32.5,10.25,-0.215332,-0.421875,-0.4052734,-0.08300781,0.2724609,-0.09521484
2721,-5.5,-23.625,-5.5625,0.1674805,-0.6708984,-0.359375,-0.08203125,0.2709961,-0.09375
2725,-6.375,-1.5,-5.875,0.1831055,-0.7055664,-0.2783203,-0.08642578,0.2724609,-0.09228516
2729,2.1875,0.375,5.5625,0.04736328,-0.7250977,-0.2089844,-0.08398438,0.2724609,-0.09082031
2733,6.125,-10.4375,13.4375,-0.02978516,-0.5073242,-0.1552734,-0.08398438,0.2724609,-0.09228516
2737,-9.3125,-13.875,9.9375,-0.02197266,-0.2124023,-0.09375,-0.08300781,0.2709961,-0.09228516
2741,-48.5,-1.8125,1.25,0.125,-0.1811523,-0.04736328,-0.08056641,0.2724609,-0.08984375
2745,-61.3125,16.1875,-5.125,0.08251953,-0.5073242,-0.0859375,-0.08300781,0.2739258,-0.08300781
2749,-48.0625,4.8125,8.75,-0.04492188,-0.7446289,-0.0859375,-0.08203125,0.2763672,-0.08154297
2753,-26.9375,-16.6875,21.8125,-0.002441406,-0.7094727,-0.1323242,-0.08056641,0.2763672,-0.07861328
2757,-10.1875,-16,24.75,0.2568359,-0.6977539,-0.1474609,-0.08056641,0.2788086,-0.07470703
2761,1.8125,4.125,26.6875,0.3032227,-0.6044922,-0.1245117,-0.07714844,0.2773438,-0.07617188
2765,-3.25,-2.8125,43.75,-0.06445313,-0.4296875,-0.0859375,-0.07568359,0.28125,-0.07617188
2769,-11.75,-22.4375,40.6875,0.07470703,-0.5698242,-0.09765625,-0.07226563,0.2797852,-0.07324219
2773,-14.75,-23.8125,39.8125,0.3032227,-0.7949219,-0.1054688,-0.06738281,0.2822266,-0.07177734
2777,-7.3125,-6.3125,44.6875,0.3730469,-0.9350586,-0.08984375,-0.06396484,0.2836914,-0.07080078
2781,3.0625,7.6875,45.4375,0.1484375,-0.8959961,-0.1054688,-0.06152344,0.2851563,-0.06933594
2785,6.75,0.3125,38.9375,-0.04101563,-0.8300781,-0.112793,-0.05810547,0.2836914,-0.07177734
2789,3.4375,-12.8125,31.25,0.09375,-1.000977,-0.07861328,-0.05419922,0.2851563,-0.07177734
2793,3.875,-8.6875,30.9375,0.206543,-1.094238,-0.06689453,-0.04980469,0.2861328,-0.07080078
2797,7.625,0.1875,33.25,0.140625,-1.210938,-0.04736328,-0.04833984,0.2836914,-0.07177734
2801,14.625,5.6875,17.5625,-0.08007813,-1.105957,-0.112793,-0.04589844,0.2875977,-0.07177734
2805,17.875,-10.375,-1.25,-0.1611328,-1.179688,-0.1513672,-0.04492188,0.2861328,-0.07324219
2809,24.875,-36.5,-13.8125,-0.1342773,-1.241699,-0.1513672,-0.04589844,0.2851563,-0.07763672
2813,34.9375,-65.3125,-19.125,-0.05273438,-1.381836,-0.1552734,-0.04736328,0.2861328,-0.07861328
2818,53.375,-73.0625,-21.375,0.1518555,-1.436035,-0.1591797,-0.05224609,0.2822266,-0.08300781
2822,68.0625,-68.4375,-28.5,0.1791992,-1.513672,-0.1669922,-0.05224609,0.2836914,-0.08544922
2826,86.5,-78.9375,-31.6875,0.2104492,-1.548828,-0.2089844,-0.05810547,0.2822266,-0.09228516
2830,100.1875,-100.5625,-7.9375,0.3769531,-1.521484,-0.1630859,-0.06298828,0.2788086,-0.09765625
2834,93.1875,-85.5,10.875,0.7060547,-1.331055,-0.0859375,-0.06152344,0.2773438,-0.1044922
2838,63.1875,-35.625,7.9375,0.659668,-1.136719,-0.005371094,-0.06298828,0.2749023,-0.1113281
2842,20.875,7.6875,-17.5,0.4814453,-1.241699,-0.03613281,-0.06298828,0.2739258,-0.1157227
2846,-1.5,28.75,-28.625,0.3535156,-1.513672,-0.09375,-0.06494141,0.2724609,-0.1181641
2850,-4.0625,31.6875,-21.5,0.2685547,-1.719727,-0.112793,-0.06640625,0.2724609,-0.1196289
2854,3.25,29.0625,-10.25,0.2104492,-1.731445,-0.128418,-0.06738281,0.2724609,-0.1166992
2858,7.1875,26.125,-6.4375,0.1210938,-1.626465,-0.1435547,-0.06738281,0.2724609,-0.1181641
2862,8.3125,20.25,-11.8125,0.06689453,-1.599121,-0.1513672,-0.06884766,0.2724609,-0.1196289
2866,9.6875,10.3125,-14.5625,0.05126953,-1.525391,-0.1166992,-0.06884766,0.2709961,-0.1196289
2870,4.625,0.0625,-21.5,0.03955078,-1.436035,-0.112793,-0.06982422,0.2724609,-0.1196289
2874,4,-12.625,-27.625,0.05517578,-1.471191,-0.1435547,-0.06982422,0.2709961,-0.1210938
2878,4.125,-24.875,-28,0.1713867,-1.509766,-0.1435547,-0.07568359,0.2700195,-0.1210938
2882,7.3125,-30.875,-27,0.3496094,-1.529297,-0.1015625,-0.07714844,0.2700195,-0.1225586
2886,0.8125,-20.3125,-20.375,0.5395508,-1.459473,-0.03222656,-0.08056641,0.2700195,-0.1210938
2890,-19.375,5.625,-22.0625,0.5239258,-1.284668,-0.001464844,-0.08300781,0.2685547,-0.1196289
2894,-48.9375,23.3125,-28.9375,0.3847656,-1.323242,-0.04736328,-0.08398438,0.2685547,-0.1181641
2898,-63.375,19.125,-40.875,0.2568359,-1.614746,-0.07861328,-0.08642578,0.2709961,-0.1157227
2902,-60.1875,2.3125,-33.1875,0.3266602,-1.762695,-0.09375,-0.08886719,0.2685547,-0.1074219
2906,-51.125,-8.5625,-22.75,0.4155273,-1.762695,-0.06689453,-0.09130859,0.2700195,-0.105957
2910,-44.3125,-9.75,-14,0.4697266,-1.630371,-0.09765625,-0.09228516,0.2700195,-0.09765625
2914,-48,-4.625,-15.1875,0.4506836,-1.393555,-0.1401367,-0.09619141,0.2724609,-0.09521484
2918,-59.9375,10.0625,-29.875,0.4233398,-1.288574,-0.1743164,-0.09619141,0.2724609,-0.09082031
2922,-69.25,22.6875,-41.5625,0.4155273,-1.280762,-0.2397461,-0.09863281,0.2739258,-0.08691406
2926,-67,28.375,-51.5625,0.4467773,-1.385742,-0.2553711,-0.1030273,0.2709961,-0.07861328
2930,-50.75,34.5625,-39.375,0.5395508,-1.397461,-0.2783203,-0.1044922,0.2709961,-0.07617188
2934,-26.875,43.0625,-26.6875,0.4038086,-1.315918,-0.2900391,-0.109375,0.2709961,-0.07177734
2938,-10.0625,33.6875,-25.625,0.1635742,-1.032227,-0.2744141,-0.109375,0.2724609,-0.07177734
2942,-5.6875,19,-32.9375,0.2490234,-0.8686523,-0.1899414,-0.1103516,0.2709961,-0.07177734
2947,-6.4375,27.75,-35.375,0.4541016,-0.7719727,-0.128418,-0.1152344,0.2685547,-0.07324219
2951,-8.5625,54.375,-29.3125,0.6015625,-0.7563477,-0.07470703,-0.1176758,0.2675781,-0.06933594
2955,-9.0625,84.4375,-24.375,0.4619141,-0.6708984,-0.05126953,-0.1201172,0.2675781,-0.07177734
2959,-14.8125,81.8125,-14.75,0.1328125,-0.5776367,-0.109375,-0.1186523,0.2661133,-0.07617188
2963,-3.8125,69.25,-21.6875,0.09375,-0.7524414,-0.1669922,-0.1201172,0.2651367,-0.07763672
2967,19.0625,44.75,-7.4375,0.07861328,-0.8144531,-0.2089844,-0.1201172,0.2651367,-0.08007813
2971,43.75,24.1875,4.625,0.2797852,-0.8613281,-0.2324219,-0.1201172,0.262207,-0.08300781
2975,68.875,16.875,19.5,0.4116211,-0.7753906,-0.1821289,-0.1162109,0.262207,-0.08984375
2979,90.0625,39.3125,37.5,0.6831055,-0.5698242,-0.08203125,-0.1176758,0.262207,-0.09375
2983,69.5,116.6875,27.6875,0.7216797,0.004882813,-0.1015625,-0.1113281,0.2612305,-0.105957
2987,29.75,188.5625,5.6875,0.3417969,-0.05664063,-0.2089844,-0.1069336,0.2587891,-0.1142578
2991,22.0625,195.3125,14.5625,-0.1923828,-0.3754883,-0.1899414,-0.1010742,0.2587891,-0.1181641
2995,40.5625,168.1875,29.8125,-0.4091797,-0.5073242,0.01367188,-0.09472656,0.2587891,-0.1303711
2999,50.5,133.0625,27.375,-0.5722656,-0.3793945,0.1904297,-0.08544922,0.2573242,-0.1357422
3003,46,88.1875,6.75,-0.6923828,-0.2353516,0.2905273,-0.08300781,0.2587891,-0.1416016
3007,25.625,38.25,-22.0625,-0.5063477,-0.2587891,0.2788086,-0.08056641,0.2563477,-0.1484375
3011,15.4375,-7.625,-39.25,-0.2387695,-0.5424805,0.1328125,-0.08203125,0.2524414,-0.1494141
3015,15.5,-42.375,-33.6875,0.2216797,-0.6435547,-0.07470703,-0.08398438,0.2524414,-0.1484375
3019,12.4375,-43.6875,-19.0625,0.6015625,-0.6860352,-0.2128906,-0.08886719,0.2509766,-0.1494141
3023,10.25,-24.5,-1.75,0.7490234,-0.7485352,-0.2089844,-0.09130859,0.2509766,-0.1508789
3027,2.25,-7.6875,14.4375,0.5898438,-0.6083984,-0.1860352,-0.09228516,0.2509766,-0.1508789
3031,-16.5625,-1.625,14.1875,0.3959961,-0.5268555,-0.1630859,-0.09033203,0.2509766,-0.1508789
3035,-31.375,-1.4375,13.6875,0.3769531,-0.6860352,-0.1860352,-0.09033203,0.2509766,-0.1469727
3039,-31.125,6.5,15.375,0.3691406,-0.7988281,-0.1899414,-0.08789063,0.2509766,-0.1469727
3043,-26.3125,3.875,22,0.1791992,-0.8261719,-0.1474609,-0.08642578,0.2539063,-0.1416016
3047,-20.5625,-11.6875,21.4375,0.008789063,-0.7949219,-0.08984375,-0.08300781,0.2563477,-0.1401367
3051,-12.8125,-33.1875,14.3125,-0.07226563,-0.7641602,-0.07861328,-0.08300781,0.2563477,-0.1401367
3055,-6.625,-54.8125,7.125,-0.02587891,-0.6708984,-0.1362305,-0.08300781,0.2573242,-0.137207
3059,-13.1875,-61.125,0.8125,0.1171875,-0.6201172,-0.2089844,-0.08544922,0.2573242,-0.1357422
3063,-18,-50.6875,-0.3125,0.3110352,-0.7094727,-0.2207031,-0.08642578,0.2587891,-0.1318359
3067,-14.8125,-32.5,1.25,0.2915039,-0.7641602,-0.1938477,-0.08789063,0.2597656,-0.1303711
3071,-11.625,-26.0625,6.25,0.125,-0.6396484,-0.1743164,-0.08886719,0.2597656,-0.1289063
3076,-15.625,-39.625,3.875,-0.04492188,-0.453125,-0.1474609,-0.09130859,0.2612305,-0.1279297
3080,-31.9375,-52,-2.375,0.1015625,-0.4726563,-0.1362305,-0.09033203,0.2597656,-0.1235352
3084,-38.25,-47.125,-2.4375,0.3769531,-0.5385742,-0.1474609,-0.09472656,0.2636719,-0.1196289
3088,-32.75,-28.8125,4.6875,0.3847656,-0.6748047,-0.1245117,-0.09375,0.2636719,-0.1157227
3092,-22.3125,-22.125,17.5,0.2177734,-0.6357422,-0.1206055,-0.09472656,0.2651367,-0.1142578
3096,-18.125,-29.1875,19.1875,0.1484375,-0.5541992,-0.09765625,-0.09375,0.2661133,-0.1098633
3100,-18.3125,-33.75,16.125,0.2954102,-0.6318359,-0.1166992,-0.09130859,0.2661133,-0.1088867
3104,-15.4375,-24.6875,22.5,0.4389648,-0.7055664,-0.1206055,-0.09033203,0.2675781,-0.1074219
3108,-8.0625,-5.6875,31.25,0.3769531,-0.6821289,-0.1054688,-0.08886719,0.2675781,-0.1044922
3112,-8.1875,0.375,36.9375,0.1674805,-0.5927734,-0.07080078,-0.08789063,0.2685547,-0.1035156
3116,-16.875,-2.625,34.625,0.09375,-0.5698242,-0.04736328,-0.08300781,0.2709961,-0.1020508
3120,-28.5,-4.375,26.9375,0.2177734,-0.7329102,-0.07470703,-0.07958984,0.2724609,-0.09912109
3124,-22.9375,-4.5,31.8125,0.2451172,-0.9775391,-0.08984375,-0.07958984,0.2739258,-0.09912109
3128,-7.9375,-0.625,39.625,0.2104492,-0.9619141,-0.08203125,-0.07568359,0.2749023,-0.09765625
3132,-4.6875,-3,36.25,0.125,-0.8920898,-0.02441406,-0.07470703,0.2739258,-0.09521484
3136,-10.875,-6.875,24.25,0.109375,-0.7949219,0.009765625,-0.07128906,0.2763672,-0.09667969
3140,-15,-7.4375,15.25,0.1831055,-1.004883,-0.01318359,-0.06884766,0.2773438,-0.09375
3144,-3,-10.0625,8.8125,0.08251953,-1.094238,-0.03222656,-0.06884766,0.2788086,-0.09228516
3148,11.125,-34.0625,18.0625,0.03564453,-1.109863,0.02099609,-0.06738281,0.2797852,-0.09521484
3152,16.75,-52,16.875,0.2333984,-1.012695,0.04785156,-0.06494141,0.2788086,-0.09375
3156,18.8125,-45.8125,18.1875,0.4736328,-1.109863,0.06738281,-0.06494141,0.2797852,-0.09521484
3160,25,-25.875,26.5625,0.4931641,-1.175781,0.05566406,-0.06494141,0.2788086,-0.09667969
3164,23.875,-8.875,33.0625,0.3457031,-1.133301,0.04785156,-0.06152344,0.2797852,-0.09912109
3168,14,-8.125,29.6875,0.159668,-1.15625,0.01367188,-0.06152344,0.28125,-0.1020508
3172,10.25,-3.5,17.25,0.175293,-1.331055,-0.01318359,-0.05908203,0.2797852,-0.1005859
3176,10.625,1.125,3,0.03173828,-1.416504,-0.07861328,-0.05664063,0.2788086,-0.1020508
3180,14.6875,-11.125,-6,-0.02197266,-1.556641,-0.1630859,-0.05566406,0.2797852,-0.1044922
3184,27.875,-30.375,-2.8125,0.008789063,-1.614746,-0.1708984,-0.05810547,0.2773438,-0.1035156
3188,34.5625,-50.125,4.1875,0.1054688,-1.630371,-0.1669922,-0.05810547,0.2797852,-0.105957
3192,37.9375,-52.4375,3.25,0.2646484,-1.603027,-0.1743164,-0.05810547,0.2763672,-0.1098633
3196,31.5625,-40.5,-0.5,0.3339844,-1.580078,-0.1401367,-0.06054688,0.2763672,-0.1098633
3200,21.375,-25.1875,-4.9375,0.3457031,-1.517578,-0.1401367,-0.05810547,0.2739258,-0.112793
3205,7.1875,-15.625,-9.1875,0.2836914,-1.439941,-0.1630859,-0.06152344,0.2739258,-0.112793
3209,-7.4375,-13.5,-10.125,0.2915039,-1.393555,-0.1708984,-0.06152344,0.2749023,-0.1142578
3213,-20.75,-7.125,-11.9375,0.3266602,-1.354492,-0.1743164,-0.06494141,0.2749023,-0.1142578
3217,-29.125,-0.25,-14.1875,0.2954102,-1.354492,-0.1899414,-0.06494141,0.2749023,-0.1113281
3221,-27.8125,-2.375,-11.0625,0.2451172,-1.331055,-0.1938477,-0.06494141,0.2773438,-0.1074219
3225,-23.375,-11.3125,-2.75,0.2568359,-1.237793,-0.1743164,-0.06738281,0.2749023,-0.1074219
3229,-24.875,-13.25,-1.5,0.2646484,-1.094238,-0.1669922,-0.06982422,0.2773438,-0.1044922
3233,-28.5,-9.875,-1.9375,0.2915039,-1.040039,-0.1743164,-0.06884766,0.2773438,-0.1005859
3237,-31.5,-7,-4.375,0.2529297,-0.9931641,-0.2089844,-0.06884766,0.2773438,-0.09912109
3241,-29.1875,-9.6875,-3.5625,0.2216797,-1.02832,-0.2514648,-0.06982422,0.2788086,-0.09667969
3245,-19.875,-14.1875,0.4375,0.2255859,-1.032227,-0.2822266,-0.06982422,0.2788086,-0.09228516
3249,-12.625,-16.5,2.75,0.2294922,-0.9892578,-0.2861328,-0.06884766,0.28125,-0.09082031
3253,-3.625,-17.6875,5.5625,0.2026367,-1.036133,-0.2514648,-0.06982422,0.2797852,-0.08984375
3257,6.5,-23,10.5625,0.1557617,-0.9853516,-0.2167969,-0.06982422,0.2797852,-0.08837891
3261,8.8125,-19.125,9.0625,0.2529297,-0.9233398,-0.1938477,-0.06738281,0.2797852,-0.09082031
