Packet number,Gyroscope X (deg/s),Gyroscope Y (deg/s),Gyroscope Z (deg/s),Accelerometer X (g),Accelerometer Y (g),Accelerometer Z (g),Magnetometer X (G),Magnetometer Y (G),Magnetometer Z (G)
2,0.375,9,3.0625,0.1289063,0.9643555,-0.1401367,-0.06494141,-0.3803711,-0.09765625
6,2,4.75,2.5625,0.1367188,0.9643555,-0.1435547,-0.06396484,-0.3793945,-0.1005859
10,0.9375,3.125,4.4375,0.1557617,1.015137,-0.1474609,-0.06396484,-0.3803711,-0.09912109
14,0.25,3,5.6875,0.1870117,0.9492188,-0.1401367,-0.06640625,-0.3803711,-0.09765625
18,1.6875,4.125,5.9375,0.1870117,0.9760742,-0.1435547,-0.06640625,-0.3803711,-0.09912109
22,0.9375,2.8125,5.125,0.1713867,1.003418,-0.1708984,-0.06640625,-0.3803711,-0.09765625
26,-0.75,3.1875,5.75,0.190918,0.9956055,-0.1630859,-0.06640625,-0.3803711,-0.1005859
30,-1.9375,4.9375,6.9375,0.1948242,0.9760742,-0.1591797,-0.06738281,-0.3793945,-0.09912109
34,-2.4375,6.1875,6.9375,0.1831055,0.9995117,-0.1630859,-0.06982422,-0.3803711,-0.09765625
38,-4.8125,5.75,7.1875,0.175293,1.015137,-0.1821289,-0.06640625,-0.3793945,-0.1005859
42,-8.5625,6.1875,9.6875,0.175293,1.030762,-0.1782227,-0.06884766,-0.3793945,-0.1005859
46,-12.5,8.9375,14.25,0.175293,1.06543,-0.1669922,-0.06982422,-0.3779297,-0.1020508
50,-20.0625,12.3125,23.0625,0.140625,1.116211,-0.1938477,-0.07128906,-0.3779297,-0.1035156
54,-24.9375,11.875,29.8125,0.1484375,1.053711,-0.1708984,-0.07226563,-0.3769531,-0.1044922
58,-23.0625,11.5,30.25,0.1870117,1.038574,-0.1206055,-0.07568359,-0.3730469,-0.1074219
62,-14.4375,9,26.625,0.1948242,0.972168,-0.04736328,-0.078125,-0.3745117,-0.1098633
66,-2.3125,2.1875,17.625,0.2373047,1.04248,-0.07861328,-0.07958984,-0.3745117,-0.1098633
70,7.75,-5.5625,6.375,0.2758789,1.131836,-0.08984375,-0.08203125,-0.371582,-0.1098633
74,12.875,-10.0625,0.8125,0.2993164,1.221191,-0.1323242,-0.08203125,-0.3730469,-0.1088867
78,15.3125,-11.6875,-1.8125,0.3305664,1.251953,-0.1743164,-0.08056641,-0.3754883,-0.1074219
82,18.125,-11.125,-5.8125,0.3652344,1.294922,-0.2207031,-0.08056641,-0.3745117,-0.105957
86,19.5625,-11.9375,-12.5625,0.3769531,1.314453,-0.2436523,-0.07958984,-0.3754883,-0.1035156
90,22.5625,-9.375,-18.1875,0.4038086,1.337402,-0.2363281,-0.078125,-0.3754883,-0.1005859
94,25.6875,-2.6875,-23.4375,0.4389648,1.341309,-0.1977539,-0.07568359,-0.3779297,-0.09912109
98,28.0625,5.5625,-29.4375,0.4311523,1.353027,-0.1860352,-0.07714844,-0.3793945,-0.09667969
103,29.875,16.1875,-32.25,0.4272461,1.32959,-0.2016602,-0.07470703,-0.3793945,-0.09375
107,29.3125,29.125,-33.375,0.3535156,1.345215,-0.2246094,-0.07128906,-0.3803711,-0.09228516
111,27.9375,39.375,-31.625,0.2646484,1.345215,-0.2089844,-0.06396484,-0.3818359,-0.09082031
115,29.0625,40.5625,-27.625,0.09765625,1.345215,-0.1860352,-0.06494141,-0.3842773,-0.08984375
119,30.4375,26.75,-24.0625,-0.006347656,1.349121,-0.1821289,-0.05908203,-0.3857422,-0.08691406
123,35.375,10.5,-20.625,0.02050781,1.263672,-0.1669922,-0.05810547,-0.3857422,-0.08544922
127,43.8125,-4.25,-24.375,0.07470703,1.271484,-0.2016602,-0.05810547,-0.3842773,-0.08447266
131,44.3125,-19.3125,-33.25,0.140625,1.368652,-0.2324219,-0.05224609,-0.3881836,-0.07763672
135,40.1875,-17.875,-30.1875,0.2607422,1.407715,-0.2207031,-0.05078125,-0.3881836,-0.07177734
139,30.5625,-6.5625,-27.0625,0.2529297,1.333496,-0.2436523,-0.04833984,-0.3867188,-0.06933594
143,27.625,-1.0625,-29.8125,0.175293,1.221191,-0.2324219,-0.04589844,-0.3891602,-0.06640625
147,19.25,-4.625,-38.3125,0.09765625,1.225098,-0.2246094,-0.04492188,-0.3891602,-0.06396484
151,14,2.5,-33.8125,0.1674805,1.143066,-0.1323242,-0.04003906,-0.390625,-0.0625
155,6.5,18.9375,-30.0625,0.206543,1.182129,-0.128418,-0.03662109,-0.390625,-0.06103516
159,2.25,40.9375,-29.4375,0.2646484,1.12793,-0.06689453,-0.03417969,-0.390625,-0.06103516
163,-1.3125,51.0625,-31.0625,-0.002441406,1.120117,-0.1323242,-0.03076172,-0.3916016,-0.0625
167,-3.0625,22.5625,-36.8125,-0.2929688,1.112305,-0.1708984,-0.02685547,-0.3945313,-0.06396484
171,-9.6875,-15.6875,-34.6875,-0.2734375,1.01123,-0.109375,-0.02246094,-0.390625,-0.06396484
175,-12.75,-28.1875,-25.25,-0.02587891,0.9296875,-0.04736328,-0.02099609,-0.3930664,-0.0625
179,-23.5625,-15.1875,-19.25,0.1445313,0.9453125,-0.07861328,-0.02001953,-0.3916016,-0.06542969
183,-32.75,14.125,-5.9375,0.1171875,0.8286133,-0.07861328,-0.01757813,-0.3930664,-0.06640625
187,-42.625,17.75,0.125,-0.09521484,0.8364258,-0.1708984,-0.01757813,-0.390625,-0.07080078
191,-44.8125,11.0625,3.8125,-0.1108398,0.5952148,-0.109375,-0.01757813,-0.3916016,-0.07617188
195,-40.4375,4.5625,8.4375,-0.1420898,0.5913086,-0.1435547,-0.01611328,-0.3881836,-0.07763672
199,-37.9375,-4.75,6.5,-0.1264648,0.6499023,-0.2089844,-0.01855469,-0.3881836,-0.08300781
203,-40.1875,-6.875,12.5625,-0.1381836,0.7626953,-0.3129883,-0.01757813,-0.3881836,-0.08544922
207,-59.1875,-7.6875,25.625,-0.1499023,0.8325195,-0.324707,-0.01855469,-0.3857422,-0.08984375
211,-66.75,-0.25,40.875,0.03173828,0.5839844,-0.1474609,-0.02246094,-0.3881836,-0.09375
215,-68.75,12.1875,40.6875,0.07861328,0.5800781,-0.1513672,-0.02587891,-0.3833008,-0.1005859
219,-76.4375,18.0625,40,-0.01025391,0.6147461,-0.1401367,-0.02929688,-0.3818359,-0.1074219
223,-77.0625,0.625,47.8125,-0.215332,0.4438477,-0.02441406,-0.03173828,-0.3779297,-0.112793
227,-69.5625,-30.375,59.625,-0.1459961,0.2963867,0.1713867,-0.03662109,-0.3769531,-0.1210938
232,-51.9375,-48.4375,51.375,0.2104492,0.15625,0.340332,-0.04394531,-0.3745117,-0.1264648
236,-22.4375,-35,32.4375,0.4428711,0.2416992,0.3637695,-0.04980469,-0.3730469,-0.1289063
240,-0.9375,-14.1875,23.75,0.2993164,0.5136719,0.1674805,-0.05224609,-0.3730469,-0.1289063
244,8.375,-22.1875,31.9375,0.02050781,0.5761719,-0.02441406,-0.05566406,-0.371582,-0.1289063
248,19.9375,-45.625,34.25,0.03955078,0.6577148,-0.2246094,-0.05664063,-0.3691406,-0.1264648
252,26,-58,20.375,0.1518555,0.7158203,-0.4477539,-0.06054688,-0.3706055,-0.1264648
256,28.375,-53,14.4375,0.2836914,0.8208008,-0.5322266,-0.06494141,-0.371582,-0.1210938
260,19.8125,-40.3125,10.8125,0.3959961,0.90625,-0.5478516,-0.06640625,-0.3706055,-0.1181641
264,13.375,-12.375,8.375,0.5009766,0.8012695,-0.4667969,-0.06884766,-0.371582,-0.1157227
268,12.4375,12.875,5.625,0.4389648,0.7548828,-0.4477539,-0.07128906,-0.371582,-0.1157227
272,8.8125,23,4.5,0.2529297,0.8168945,-0.4516602,-0.06884766,-0.3730469,-0.1142578
276,5.25,14.1875,3.4375,0.125,0.7973633,-0.4130859,-0.06982422,-0.371582,-0.1142578
280,4,2.375,1.0625,0.159668,0.7353516,-0.324707,-0.06884766,-0.371582,-0.112793
284,8,2.125,6.8125,0.1987305,0.6577148,-0.2363281,-0.06982422,-0.371582,-0.112793
288,11.375,-2.125,5.875,0.1791992,0.6811523,-0.2246094,-0.06982422,-0.3745117,-0.112793
292,9.75,-4.5,8.9375,0.2216797,0.6108398,-0.1938477,-0.07128906,-0.3745117,-0.1098633
296,13.8125,2,10.25,0.3417969,0.4985352,-0.0859375,-0.07128906,-0.3730469,-0.1113281
300,22.75,6.3125,0.8125,0.2836914,0.5058594,-0.0859375,-0.07226563,-0.3745117,-0.1088867
304,26.75,-6.25,-9.3125,0.1367188,0.6069336,-0.128418,-0.07226563,-0.3754883,-0.105957
308,23.375,-19.125,-4.1875,0.1210938,0.5292969,-0.07080078,-0.07226563,-0.3769531,-0.1044922
312,20.0625,-14.0625,9.8125,0.3188477,0.5214844,-0.04003906,-0.07226563,-0.3754883,-0.1035156
316,17.3125,-1.5,1.0625,0.4311523,0.5566406,-0.03613281,-0.07470703,-0.3769531,-0.1005859
320,20.25,18.125,-3.125,0.3339844,0.4555664,0.005859375,-0.07470703,-0.3754883,-0.09912109
324,26.8125,19.25,-4.9375,0.09765625,0.6962891,-0.1323242,-0.07324219,-0.3779297,-0.09765625
328,10.4375,5.125,-6.75,0.08251953,0.7666016,-0.1401367,-0.07128906,-0.3779297,-0.09667969
332,-11.25,7.8125,9.9375,0.2724609,0.6772461,-0.07861328,-0.07226563,-0.3769531,-0.09375
336,-22.875,24.5,5.6875,0.4853516,0.5991211,-0.009277344,-0.07226563,-0.3769531,-0.09667969
340,1.6875,47.1875,-3.5625,0.3886719,0.3232422,0.144043,-0.07128906,-0.3769531,-0.09912109
344,27.9375,45.8125,-9.875,0.1635742,0.6733398,0.009765625,-0.07128906,-0.3779297,-0.1005859
348,22.5625,19.3125,-21.625,0.03173828,0.9257813,-0.112793,-0.06884766,-0.3793945,-0.09667969
352,2.6875,16.1875,-11.375,0.2529297,0.9101563,-0.1323242,-0.06494141,-0.3793945,-0.09667969
356,-15.9375,20.5,-10.75,0.2373047,1.034668,-0.1860352,-0.06494141,-0.3793945,-0.09667969
361,-16.4375,22.8125,-19,0.1870117,1.045898,-0.06689453,-0.06298828,-0.3803711,-0.09912109
365,-8.25,32.25,-13.5,0.1367188,0.9375,0.07910156,-0.06152344,-0.3803711,-0.1020508
369,-5.75,28.9375,-14.5,-0.02978516,1.077148,0.01367188,-0.06054688,-0.3793945,-0.1005859
373,-11.625,-0.6875,-16.375,-0.1572266,1.150879,-0.1552734,-0.05908203,-0.3779297,-0.1035156
377,-20.6875,-25.6875,-19.6875,-0.002441406,1.166504,-0.07861328,-0.05566406,-0.3793945,-0.105957
381,-24,-24.25,-13,0.1015625,1.236328,0.02490234,-0.05566406,-0.3769531,-0.105957
385,-25.125,-14.4375,-8.25,0.175293,1.251953,0.1132813,-0.05566406,-0.3769531,-0.1088867
389,-26.3125,3.9375,1.125,0.2529297,1.228516,0.144043,-0.05566406,-0.3793945,-0.1098633
393,-26.375,12.9375,-3.8125,0.2412109,1.306641,0.05175781,-0.05566406,-0.3779297,-0.1098633
397,-29.125,15.9375,-6.8125,0.1635742,1.228516,0.1098633,-0.05322266,-0.3793945,-0.112793
401,-19.0625,12.4375,-5.25,-0.05664063,1.415039,0.07519531,-0.05419922,-0.3779297,-0.1181641
405,-26.375,4.3125,11.875,-0.1186523,1.500488,0.05175781,-0.05322266,-0.3779297,-0.1181641
409,-32.75,3.1875,31.5625,0.04736328,1.508301,0.001953125,-0.05664063,-0.3754883,-0.1225586
413,-21.25,3.4375,28.0625,0.2177734,1.570801,-0.03222656,-0.05810547,-0.3745117,-0.1264648
417,-9.6875,5.875,23.625,0.2724609,1.706543,-0.1362305,-0.05908203,-0.3730469,-0.1235352
421,-4.9375,1.875,16.75,0.3339844,1.788086,-0.2016602,-0.06152344,-0.3745117,-0.1279297
425,-0.6875,2.875,12.875,0.4428711,1.765137,-0.2207031,-0.06152344,-0.3706055,-0.1289063
429,3.875,5.75,8.25,0.4389648,1.827148,-0.2553711,-0.06298828,-0.3730469,-0.1289063
433,4.0625,7.0625,4.75,0.4155273,1.78418,-0.2553711,-0.06396484,-0.3691406,-0.1264648
437,8.0625,12.625,1.3125,0.4077148,1.671875,-0.2436523,-0.06494141,-0.371582,-0.1264648
441,16.375,17.75,-7.875,0.3227539,1.559082,-0.2553711,-0.06298828,-0.371582,-0.1235352
445,21.4375,11.8125,-19.375,0.1328125,1.55127,-0.3129883,-0.06152344,-0.3730469,-0.1235352
449,27.3125,-2,-24.875,0.04736328,1.46582,-0.2783203,-0.05908203,-0.3754883,-0.1235352
453,29.1875,-14.25,-26.3125,0.05126953,1.55127,-0.2861328,-0.05908203,-0.3754883,-0.1210938
457,24.1875,-14.3125,-20.9375,0.1791992,1.597656,-0.2128906,-0.05419922,-0.3754883,-0.1181641
461,21.5,-3,-12.375,0.2568359,1.559082,-0.1015625,-0.05419922,-0.3754883,-0.1166992
465,26.1875,5.6875,-10.25,0.2333984,1.485352,-0.04394531,-0.05322266,-0.3769531,-0.1157227
469,38.5,5.1875,-15.0625,0.1987305,1.411133,-0.01660156,-0.05224609,-0.3793945,-0.1098633
473,48.125,-3.875,-26.625,0.1171875,1.512207,-0.1015625,-0.04980469,-0.3803711,-0.105957
477,51.3125,-8.5625,-28.9375,0.1674805,1.660156,-0.1054688,-0.04833984,-0.3818359,-0.1044922
481,42.875,4.75,-13.5625,0.1289063,1.65625,-0.1206055,-0.04589844,-0.3842773,-0.09912109
485,35.25,17,0.25,0.09765625,1.535645,-0.112793,-0.04492188,-0.3857422,-0.09521484
490,26,18.625,0.125,0.09033203,1.450195,-0.128418,-0.04492188,-0.3842773,-0.09228516
494,30.1875,5.75,-14.5625,0.02050781,1.228516,-0.09765625,-0.04589844,-0.3867188,-0.09082031
498,30.375,-6.3125,-23.875,-0.02197266,1.251953,-0.1015625,-0.04150391,-0.3891602,-0.08544922
502,29.4375,-7.25,-17.875,0.09375,1.17041,-0.01660156,-0.04150391,-0.3867188,-0.08544922
506,16.5,2.375,-11.9375,0.1445313,1.20166,-0.03613281,-0.0390625,-0.3881836,-0.08544922
510,-6.125,17.4375,4.125,0.1713867,1.20166,-0.1054688,-0.0390625,-0.3881836,-0.08154297
514,-24.875,27.3125,13.4375,0.1367188,0.9995117,-0.04736328,-0.04003906,-0.3857422,-0.08300781
518,-20.5625,20.125,8,0.03173828,0.7080078,0.06347656,-0.0390625,-0.3881836,-0.08691406
522,-6.625,-8.8125,-13.8125,-0.09912109,0.777832,0.005859375,-0.03662109,-0.3842773,-0.08837891
526,-2.3125,-38.1875,-20.0625,-0.1225586,0.8710938,-0.08203125,-0.03662109,-0.3857422,-0.08691406
530,-19.0625,-61.4375,-15.5625,-0.08007813,0.9838867,-0.2363281,-0.03662109,-0.3857422,-0.08691406
534,-34.75,-56.9375,-4.4375,0.1674805,0.6616211,-0.1362305,-0.03662109,-0.3842773,-0.09082031
538,-39.375,-23,0.4375,0.3266602,0.6772461,-0.1245117,-0.03759766,-0.3857422,-0.09082031
542,-42.0625,13.5,1.4375,0.2412109,0.3701172,-0.08203125,-0.03662109,-0.3842773,-0.09667969
546,-40.9375,19.6875,1.9375,0.03955078,0.3041992,-0.05517578,-0.03759766,-0.3803711,-0.09912109
550,-42.25,12.6875,-3,-0.04101563,0.4360352,-0.109375,-0.03662109,-0.3818359,-0.1020508
554,-53.1875,7.1875,4.625,-0.09912109,0.4594727,-0.1015625,-0.03515625,-0.3833008,-0.1088867
558,-67.125,5.1875,27.375,-0.09130859,0.3857422,-0.05908203,-0.03759766,-0.3803711,-0.1142578
562,-64.375,-11.1875,31.75,-0.04492188,0.1523438,-0.03613281,-0.04003906,-0.3779297,-0.1181641
566,-43.25,-28.375,21.4375,0.1132813,0.2963867,-0.001464844,-0.04394531,-0.3754883,-0.1235352
570,-28.8125,-34.4375,15.1875,0.2607422,0.2963867,0.1132813,-0.04589844,-0.3730469,-0.1264648
574,-11.8125,-29.125,12.4375,0.3227539,0.4204102,0.05566406,-0.04736328,-0.371582,-0.1279297
578,1.0625,-24.5,1.125,0.2104492,0.6030273,-0.1245117,-0.04980469,-0.3730469,-0.1264648
582,-5.4375,-27.5,9.4375,0.1289063,0.8671875,-0.2397461,-0.05078125,-0.3730469,-0.1264648
586,-6.5625,-26.0625,16.9375,0.2333984,0.6499023,-0.1938477,-0.05224609,-0.3730469,-0.1235352
590,-0.25,-16.375,17.625,0.2685547,0.7314453,-0.1899414,-0.05566406,-0.371582,-0.1279297
594,3.0625,-15.3125,11.8125,0.2104492,0.7587891,-0.2514648,-0.05566406,-0.3706055,-0.1264648
598,9,-22.25,8.1875,0.1870117,0.6962891,-0.2553711,-0.05810547,-0.371582,-0.1264648
602,15,-20.8125,10.625,0.2993164,0.7275391,-0.1860352,-0.05908203,-0.3706055,-0.125
606,18.4375,-13.75,9.75,0.3457031,0.7353516,-0.1743164,-0.05908203,-0.371582,-0.1210938
610,21.9375,-7,2.1875,0.3886719,0.7392578,-0.1860352,-0.06152344,-0.3706055,-0.1235352
614,30.125,4.8125,0.1875,0.3535156,0.6884766,-0.2553711,-0.06298828,-0.3730469,-0.1196289
619,28.5625,3.3125,-7.3125,0.2177734,0.8520508,-0.4052734,-0.05908203,-0.3754883,-0.1166992
623,19.3125,-2.875,-7.0625,0.2026367,0.8945313,-0.4130859,-0.06298828,-0.3745117,-0.1157227
627,8.0625,-0.5625,-5.1875,0.3378906,0.8945313,-0.3554688,-0.05908203,-0.3769531,-0.1113281
631,4.625,10.375,-1.0625,0.3769531,0.6147461,-0.2436523,-0.05908203,-0.3754883,-0.112793
635,11.1875,10.375,-6.625,0.2758789,0.6655273,-0.2324219,-0.06054688,-0.3754883,-0.112793
639,13.0625,7.1875,-10,0.3339844,0.5214844,-0.06689453,-0.05810547,-0.3754883,-0.1088867
643,20.75,19.75,-8.375,0.4155273,0.3623047,0.05175781,-0.05664063,-0.3754883,-0.1098633
647,32.4375,25.3125,-23.25,0.2685547,0.3041992,0.01708984,-0.05419922,-0.3769531,-0.1088867
651,45.125,14.5,-30,0.02050781,0.5136719,-0.1513672,-0.05322266,-0.3779297,-0.1044922
655,40.625,-11.4375,-29.8125,-0.2270508,0.7973633,-0.3823242,-0.05224609,-0.3793945,-0.1005859
659,19.25,-32.375,-14.4375,-0.07226563,0.953125,-0.3901367,-0.04736328,-0.3803711,-0.09765625
663,-4.0625,-23.375,2.6875,0.2177734,0.6342773,-0.2207031,-0.04833984,-0.3803711,-0.09765625
667,-6.8125,10.0625,6.5,0.4350586,0.4321289,-0.1166992,-0.04980469,-0.3818359,-0.09765625
671,6.9375,50.3125,-11.0625,0.4541016,0.4243164,0.02880859,-0.04833984,-0.3818359,-0.09765625
675,25.5625,67.1875,-7.4375,-0.1264648,0.5566406,-0.08203125,-0.04589844,-0.3833008,-0.09667969
679,21.375,27.25,-6,-0.5913086,0.8867188,-0.2246094,-0.04492188,-0.3833008,-0.09521484
683,4.25,-20.0625,14.25,-0.4555664,0.840332,-0.1591797,-0.04394531,-0.3842773,-0.09667969
687,-11.9375,-28.625,25.5,0.08251953,0.777832,-0.1245117,-0.04589844,-0.3833008,-0.09521484
691,-17.6875,10.3125,18.25,0.4736328,0.6030273,0.04443359,-0.04980469,-0.3818359,-0.09375
695,-6.3125,53.75,4.1875,0.3535156,0.7080078,0.1210938,-0.05224609,-0.3818359,-0.09765625
699,-5.3125,62.875,6.3125,-0.05664063,0.793457,0.07128906,-0.04980469,-0.3818359,-0.09912109
703,-11.8125,39.4375,22.25,-0.1572266,0.8442383,0.07519531,-0.04980469,-0.3818359,-0.1005859
707,-15.75,5.875,18.0625,0.01269531,0.7392578,0.1289063,-0.05078125,-0.3803711,-0.1020508
711,-6,-19.5625,-7.25,0.2646484,0.7973633,0.144043,-0.05224609,-0.3803711,-0.1020508
715,10.8125,-11.8125,-31.3125,0.3613281,0.987793,0.1674805,-0.04980469,-0.3818359,-0.1035156
719,5.5625,23.625,-22,0.3652344,1.244141,0.1748047,-0.04833984,-0.3818359,-0.1020508
723,-9.5,38.6875,2.75,-0.02587891,1.485352,-0.1015625,-0.04589844,-0.3833008,-0.1020508
727,-32.8125,9.5,6.25,-0.1069336,1.442383,-0.2363281,-0.04589844,-0.3803711,-0.105957
731,-44.5625,-1.8125,-1.25,0.3227539,1.236328,-0.1206055,-0.04492188,-0.3793945,-0.1074219
735,-36.4375,21.125,-22.5625,0.3959961,1.306641,-0.009277344,-0.04492188,-0.3803711,-0.1088867
739,-38.3125,45.4375,-13.75,0.1367188,1.566895,0.03271484,-0.04394531,-0.3793945,-0.1166992
743,-45.375,48.75,5.25,-0.1499023,1.714355,-0.02441406,-0.04003906,-0.3793945,-0.1196289
748,-50.6875,35,25.25,-0.1767578,1.737793,-0.05517578,-0.04003906,-0.3769531,-0.125
752,-46.5625,5,29.3125,-0.1572266,1.671875,-0.09375,-0.04248047,-0.3754883,-0.1303711
756,-30.375,-19.125,24.0625,0.1367188,1.694824,-0.06689453,-0.04394531,-0.3754883,-0.1318359
760,-11.875,-25.25,12.75,0.4077148,1.769043,-0.04736328,-0.04736328,-0.3730469,-0.1333008
764,-5.5,-10.3125,8.5,0.5629883,1.869629,-0.04003906,-0.05078125,-0.371582,-0.1357422
768,-3,6.125,8.5,0.5161133,1.823242,-0.07080078,-0.04833984,-0.371582,-0.1347656
772,-0.9375,8.625,0.125,0.4272461,1.807617,-0.1206055,-0.04980469,-0.3730469,-0.1357422
776,1.6875,8.3125,-6.0625,0.3339844,1.690918,-0.112793,-0.04980469,-0.3730469,-0.1347656
780,9.6875,9.125,-8.1875,0.206543,1.535645,-0.1401367,-0.04980469,-0.371582,-0.1347656
784,20.8125,7.1875,-13.1875,0.1210938,1.430664,-0.1782227,-0.04833984,-0.371582,-0.1357422
788,29.1875,0,-20.0625,0.07861328,1.500488,-0.2514648,-0.04589844,-0.3730469,-0.1318359
792,30.125,-5.5625,-23.5,0.07861328,1.531738,-0.2514648,-0.04492188,-0.3745117,-0.1303711
796,26,-5.1875,-18.25,0.1015625,1.609375,-0.2783203,-0.04150391,-0.3754883,-0.125
800,20.1875,-3.625,-14,0.140625,1.632813,-0.2285156,-0.04003906,-0.3769531,-0.1235352
804,17.1875,-2.4375,-10.75,0.1870117,1.605469,-0.1782227,-0.04003906,-0.3793945,-0.1210938
808,23.0625,-2.5625,-15.75,0.2333984,1.559082,-0.08984375,-0.04003906,-0.3793945,-0.1225586
812,32.3125,-11.0625,-30.625,0.1831055,1.586426,-0.02050781,-0.03759766,-0.3803711,-0.1196289
816,42.25,-19.25,-35.75,0.109375,1.562988,0.04785156,-0.03662109,-0.3818359,-0.1166992
820,50.125,-21.875,-37.625,0.06689453,1.562988,0.05566406,-0.03320313,-0.3818359,-0.1113281
824,51,-15.5625,-33.125,0.04736328,1.504395,0.05566406,-0.02929688,-0.3857422,-0.1044922
828,51.9375,3.75,-21.9375,0.07861328,1.500488,0.05566406,-0.02832031,-0.3842773,-0.1035156
832,44.4375,19.5,-16.5,0.05126953,1.411133,0.001953125,-0.02587891,-0.3867188,-0.09765625
836,41.4375,21.3125,-16.5625,-0.1420898,1.275391,-0.01318359,-0.0234375,-0.3867188,-0.09521484
840,40.8125,-11.5625,-25.875,-0.3393555,1.20166,-0.009277344,-0.02099609,-0.3891602,-0.09082031
844,38.875,-45.8125,-23.6875,-0.2851563,1.158691,0.01367188,-0.02001953,-0.3881836,-0.08544922
848,41.1875,-43.1875,-22.25,0.2333984,1.081055,0.2402344,-0.01611328,-0.3891602,-0.08300781
852,35.75,8.8125,-16,0.4736328,1.20166,0.2250977,-0.01611328,-0.3891602,-0.07861328
856,17.625,45.6875,-14.5,0.2568359,1.131836,0.09033203,-0.01611328,-0.390625,-0.07861328
860,11.625,31.1875,-16.375,-0.2041016,0.9257813,0.02880859,-0.01171875,-0.3916016,-0.07324219
864,10.4375,-19.625,-23.375,-0.4013672,0.8789063,0.05175781,-0.01171875,-0.390625,-0.07470703
868,3.0625,-61.6875,-22.25,-0.296875,0.8481445,0.009765625,-0.009277344,-0.390625,-0.07324219
872,-1.125,-73.25,-22.4375,0.03955078,0.5527344,0.1098633,-0.006835938,-0.3916016,-0.07470703
877,5.4375,-44.1875,-21.9375,0.2875977,0.4829102,0.1098633,-0.006835938,-0.3916016,-0.07470703
881,1.25,-1.5625,-19.5625,0.2294922,0.5136719,0.05566406,-0.004394531,-0.3916016,-0.07177734
885,-18.875,34.5625,3.75,-0.06054688,0.5913086,-0.07470703,-0.004394531,-0.390625,-0.07177734
889,-51.8125,36,30.25,-0.2001953,0.5644531,-0.1782227,-0.005859375,-0.390625,-0.07617188
893,-61.6875,28.25,38.4375,0.03173828,0.1445313,0.02880859,-0.006835938,-0.3881836,-0.08154297
897,-40.9375,32.125,24.6875,0.175293,0.1333008,0.05957031,-0.009277344,-0.3891602,-0.08837891
901,-29.8125,35.375,17.875,-0.02978516,0.3193359,-0.04736328,-0.01025391,-0.3867188,-0.08984375
905,-36.8125,9.5,34.1875,-0.1806641,0.4204102,-0.109375,-0.01171875,-0.3881836,-0.09228516
909,-25.5625,-23.4375,40.4375,0.04736328,0.2456055,-0.06298828,-0.01513672,-0.3857422,-0.09667969
913,-1.5625,-33.0625,26.25,0.2758789,0.2148438,-0.09375,-0.01855469,-0.3867188,-0.09667969
917,23.75,-21.25,14.3125,0.3032227,0.3544922,-0.2089844,-0.02001953,-0.3867188,-0.09667969
921,37.8125,-18.875,9.8125,0.1445313,0.6225586,-0.4438477,-0.02490234,-0.3842773,-0.09375
925,40.125,-31.1875,10.1875,0.06298828,0.6538086,-0.5629883,-0.0234375,-0.3867188,-0.08837891
929,36.375,-44.0625,18.8125,0.05126953,0.7626953,-0.6860352,-0.02490234,-0.3857422,-0.08544922
933,30.9375,-45.4375,19.1875,0.2255859,0.7973633,-0.7094727,-0.02832031,-0.3881836,-0.08447266
937,22.25,-31,17,0.3378906,0.824707,-0.7514648,-0.02832031,-0.3881836,-0.08007813
941,13.6875,-13.125,14.3125,0.3613281,0.824707,-0.7094727,-0.03417969,-0.390625,-0.07763672
945,8.875,1.8125,10.375,0.3959961,0.809082,-0.6362305,-0.03320313,-0.3881836,-0.07617188
949,6.5625,17.1875,3.875,0.4311523,0.7236328,-0.5708008,-0.03417969,-0.3867188,-0.07617188
953,9.4375,31.1875,-6.1875,0.3378906,0.7275391,-0.6245117,-0.03320313,-0.3891602,-0.07617188
957,1.8125,33,-11.9375,0.08251953,0.8789063,-0.7475586,-0.03417969,-0.3891602,-0.07470703
961,-8.1875,21,-2.375,-0.05664063,0.8208008,-0.7285156,-0.03076172,-0.3881836,-0.07617188
965,-13.5625,10.625,6.0625,-0.01416016,0.7739258,-0.6323242,-0.03173828,-0.3891602,-0.08007813
969,-16.875,5.3125,6.5,0.1054688,0.6845703,-0.4902344,-0.03173828,-0.3881836,-0.07861328
973,-14.0625,12.5,9.375,0.2177734,0.5136719,-0.3129883,-0.03320313,-0.3881836,-0.08154297
977,-3.4375,20.5,7.6875,0.2451172,0.3740234,-0.1362305,-0.03320313,-0.3867188,-0.08154297
981,7.25,15.0625,-1.8125,0.175293,0.3740234,-0.08203125,-0.03417969,-0.3867188,-0.08154297
985,22.8125,8.6875,-5.0625,0.1367188,0.2924805,-0.01660156,-0.03320313,-0.3891602,-0.07763672
989,33.875,-12.625,-7.4375,-0.08398438,0.4829102,-0.1860352,-0.03417969,-0.3891602,-0.07617188
993,26.5625,-36.5,-2.125,-0.03320313,0.5605469,-0.2363281,-0.03076172,-0.3881836,-0.07324219
997,18.4375,-36.9375,6.9375,0.2333984,0.5566406,-0.1782227,-0.03320313,-0.3881836,-0.07080078
1001,10.375,-11.3125,1.75,0.4116211,0.5605469,-0.1054688,-0.03417969,-0.3891602,-0.07080078
1006,10.375,21.6875,8.125,0.2836914,0.4633789,-0.05517578,-0.03173828,-0.390625,-0.06933594
1010,14.6875,31.625,19.375,0.04736328,0.5292969,-0.08203125,-0.03417969,-0.3891602,-0.06787109
1014,9.5625,17.625,23,-0.02197266,0.5292969,-0.1054688,-0.03662109,-0.3916016,-0.06787109
1018,-1.0625,3.3125,19.25,0.06689453,0.6499023,-0.1782227,-0.0390625,-0.390625,-0.06640625
1022,-14.5,10.5,11.9375,0.2373047,0.6923828,-0.1552734,-0.0390625,-0.3891602,-0.06787109
1026,-17.375,40.5,17.1875,0.2568359,0.6811523,-0.1166992,-0.04003906,-0.3891602,-0.06787109
1030,-14.5,71.0625,22.125,0.09765625,0.8012695,-0.1552734,-0.04394531,-0.3881836,-0.07177734
1034,-23.6875,70.8125,21.5,-0.1459961,0.8632813,-0.1977539,-0.04248047,-0.3891602,-0.07324219
1038,-33.1875,32.875,17.8125,-0.2773438,0.972168,-0.1708984,-0.04394531,-0.3867188,-0.07763672
1042,-19.625,-2.625,4.75,-0.1611328,0.8208008,0.07519531,-0.04492188,-0.3867188,-0.08154297
1046,0.0625,-20.9375,-3.625,-0.01806641,1.049805,0.140625,-0.04589844,-0.3867188,-0.07861328
1050,-0.6875,-28.5625,-2.8125,0.2177734,1.248047,0.09814453,-0.04492188,-0.3867188,-0.08154297
1054,-22.9375,-21.6875,3.8125,0.4077148,1.356934,0.01708984,-0.04492188,-0.3867188,-0.08154297
1058,-37.25,-8.0625,2.3125,0.4853516,1.283203,0.04785156,-0.04736328,-0.3857422,-0.08300781
1062,-41.5,5.6875,-3.4375,0.4389648,1.314453,0.1367188,-0.04589844,-0.3842773,-0.08544922
1066,-38.3125,16.375,-8.4375,0.3266602,1.411133,0.144043,-0.04492188,-0.3842773,-0.09082031
1070,-39,19.5625,-8.8125,0.2026367,1.461914,0.01708984,-0.04589844,-0.3842773,-0.09375
1074,-43.5625,19.75,-12.0625,0.159668,1.49707,-0.05517578,-0.04394531,-0.3842773,-0.09765625
1078,-40.75,19.6875,-10.375,0.02441406,1.55127,-0.09375,-0.04150391,-0.3833008,-0.1020508
1082,-39.5,5.3125,-4.875,-0.1108398,1.733887,-0.1977539,-0.04248047,-0.3842773,-0.1074219
1086,-44.4375,-3.125,8.3125,0.004882813,1.765137,-0.1513672,-0.04003906,-0.3842773,-0.1113281
1090,-40.6875,-4.125,14.875,0.1367188,1.718262,-0.1166992,-0.04248047,-0.3803711,-0.1157227
1094,-27.75,-7.125,7.25,0.2646484,1.687012,-0.112793,-0.04394531,-0.3779297,-0.1181641
1098,-15.375,-3.625,-3.8125,0.3071289,1.753418,-0.09765625,-0.04492188,-0.3793945,-0.1166992
1102,-5.5,-1.9375,-4.0625,0.2529297,1.788086,-0.128418,-0.04492188,-0.3769531,-0.1235352
1106,-0.6875,0.9375,-3.25,0.2993164,1.788086,-0.1206055,-0.04394531,-0.3779297,-0.1210938
1110,6.6875,8.5,-5.5,0.3071289,1.710449,-0.1362305,-0.04248047,-0.3769531,-0.1210938
1114,13.5625,15.75,-9.9375,0.2758789,1.679688,-0.1860352,-0.04248047,-0.3793945,-0.1210938
1118,17.875,20.5,-13.125,0.1791992,1.625,-0.2514648,-0.04003906,-0.3793945,-0.1181641
1122,18.0625,15.375,-16.25,0.04736328,1.617188,-0.3168945,-0.04003906,-0.3793945,-0.1181641
1126,17.6875,6.625,-17.0625,0.03173828,1.523926,-0.2978516,-0.03662109,-0.3793945,-0.1142578
1130,17.375,5,-18.375,0.03955078,1.52002,-0.2514648,-0.03515625,-0.3803711,-0.1157227
1135,17.375,10.5625,-13.8125,0.05908203,1.473633,-0.1860352,-0.03515625,-0.3803711,-0.112793
1139,16.4375,19.6875,-10.0625,0.08642578,1.512207,-0.09765625,-0.03320313,-0.3818359,-0.1113281
1143,19,25.4375,-7.3125,0.01269531,1.46582,-0.01318359,-0.03076172,-0.3842773,-0.1088867
1147,25.125,19.6875,-4.4375,-0.1459961,1.485352,0.02880859,-0.02929688,-0.3857422,-0.1088867
1151,31.8125,-3.0625,-0.8125,-0.2119141,1.473633,0.01367188,-0.02929688,-0.3842773,-0.1035156
1155,37.1875,-24.1875,-2.625,-0.03710938,1.426758,-0.02441406,-0.02832031,-0.3833008,-0.1044922
1159,43.3125,-30.4375,-11.625,0.1557617,1.403809,-0.03222656,-0.02832031,-0.3881836,-0.09912109
1163,45.75,-20.6875,-18.375,0.2490234,1.493164,-0.0859375,-0.02832031,-0.3867188,-0.09375
1167,36.875,-3,-16.9375,0.2451172,1.531738,-0.08984375,-0.02685547,-0.3881836,-0.09375
1171,28.6875,17,-11.25,0.1831055,1.341309,-0.05517578,-0.02490234,-0.3881836,-0.08837891
1175,30.375,27.25,-12.9375,0.05908203,1.12793,0.02490234,-0.02490234,-0.3881836,-0.08447266
1179,39.625,21.125,-12.1875,-0.1884766,1.104492,-0.01318359,-0.02246094,-0.3891602,-0.08447266
1183,40.3125,-18.125,-21.8125,-0.378418,1.205566,-0.1513672,-0.02099609,-0.3891602,-0.07763672
1187,48,-48.125,-22.75,-0.2661133,1.124023,-0.09765625,-0.01855469,-0.3916016,-0.07324219
1191,60.5,-56.5,-20.25,-0.09130859,1.026855,-0.08984375,-0.01757813,-0.3916016,-0.06933594
1195,52.6875,-58.625,-21.0625,-0.03710938,1.045898,-0.2436523,-0.01611328,-0.390625,-0.0625
1199,17.3125,-53.1875,-16.9375,0.08642578,1.015137,-0.2514648,-0.01611328,-0.3916016,-0.05957031
1203,-13.25,-27.3125,-6.125,0.2724609,0.7587891,-0.09375,-0.01611328,-0.3916016,-0.05859375
1207,-38.8125,14.5,14.375,0.3032227,0.5683594,0.001953125,-0.01611328,-0.3916016,-0.05957031
1211,-58.5625,39.5625,24.8125,0.1635742,0.4399414,0.001953125,-0.01757813,-0.390625,-0.06542969
1215,-56.9375,51.5625,24.0625,0.1484375,0.05908203,0.159668,-0.01757813,-0.3916016,-0.07080078
1219,-51.25,31.125,9.0625,-0.02197266,-0.02587891,0.1518555,-0.02001953,-0.3891602,-0.07617188
1223,-35.5,3.9375,8.75,-0.04492188,0.121582,0.1132813,-0.01855469,-0.3891602,-0.08007813
1227,-40.625,-7.4375,15.625,0.06298828,0.4360352,-0.02832031,-0.02099609,-0.3881836,-0.08300781
1231,-46,0.125,22.0625,0.140625,0.4907227,-0.1323242,-0.02246094,-0.3867188,-0.08544922
1235,-47.1875,8.75,29.125,0.125,0.2456055,-0.05126953,-0.02490234,-0.3867188,-0.09082031
1239,-20.875,7.6875,34.6875,0.09765625,0.07470703,0.04052734,-0.02685547,-0.3867188,-0.09521484
1243,6.75,-13.25,20.9375,0.05517578,0.3818359,-0.05517578,-0.02929688,-0.3833008,-0.09667969
1247,15.125,-28.5,12.3125,0.06298828,0.5371094,-0.2167969,-0.02929688,-0.3842773,-0.09521484
1251,16.5,-25.6875,19.6875,0.07470703,0.6923828,-0.3823242,-0.03173828,-0.3857422,-0.09228516
1255,10.8125,-33.375,34.1875,-0.02587891,0.777832,-0.6054688,-0.03515625,-0.3842773,-0.09082031
1259,10,-44,38.1875,0.159668,0.6923828,-0.5864258,-0.0390625,-0.3842773,-0.08837891
1264,13.0625,-41.125,34.75,0.3457031,0.6538086,-0.5400391,-0.04150391,-0.3857422,-0.08837891
1268,17.1875,-24.625,30.875,0.4619141,0.7314453,-0.5053711,-0.04736328,-0.3833008,-0.08544922
1272,15.375,-6.5625,22.25,0.4697266,0.7587891,-0.4477539,-0.05078125,-0.3842773,-0.08447266
1276,17.375,5.4375,16.625,0.3730469,0.6962891,-0.4746094,-0.05078125,-0.3833008,-0.08154297
1280,18.125,7.4375,10.4375,0.2836914,0.7626953,-0.559082,-0.05322266,-0.3842773,-0.08007813
1284,12.1875,4.875,8.6875,0.2177734,0.8364258,-0.6015625,-0.05224609,-0.3842773,-0.08154297
1288,4.75,0,9.5,0.1987305,0.7817383,-0.5786133,-0.05322266,-0.3833008,-0.07861328
1292,-0.8125,-4.0625,12.3125,0.190918,0.7817383,-0.5014648,-0.05566406,-0.3818359,-0.08007813
1296,-6.3125,-6.375,13.75,0.2646484,0.7314453,-0.394043,-0.05664063,-0.3842773,-0.08007813
1300,-0.625,0.375,10.3125,0.4155273,0.4868164,-0.2128906,-0.05810547,-0.3818359,-0.07861328
1304,13.75,14.1875,2.6875,0.4233398,0.4711914,-0.1669922,-0.05810547,-0.3833008,-0.08007813
1308,19.5,19.125,-1.3125,0.2685547,0.5488281,-0.1977539,-0.05810547,-0.3833008,-0.07763672
1312,17.8125,13.1875,0.125,0.1713867,0.5488281,-0.1782227,-0.05664063,-0.3833008,-0.07763672
1316,13.9375,8.4375,6.6875,0.1870117,0.5214844,-0.1591797,-0.05810547,-0.3842773,-0.07763672
1320,6.5625,3.1875,6.4375,0.2373047,0.5488281,-0.1743164,-0.05810547,-0.3833008,-0.07324219
1324,10.1875,10.25,2.4375,0.2954102,0.3120117,-0.05517578,-0.05908203,-0.3833008,-0.07470703
1328,26.9375,21.25,-2.5625,0.1557617,0.4633789,-0.1362305,-0.06054688,-0.3833008,-0.07080078
1332,22.125,5.375,-8.1875,-0.06445313,0.777832,-0.34375,-0.05810547,-0.3867188,-0.06933594
1336,-2.5625,-6.75,1.125,0.03564453,0.7626953,-0.2939453,-0.05810547,-0.3867188,-0.07080078
1340,-25.125,0.1875,6.5625,0.2373047,0.7626953,-0.1860352,-0.05810547,-0.3867188,-0.07080078
1344,-34.625,15.9375,5.75,0.1948242,0.5488281,-0.1206055,-0.05810547,-0.3857422,-0.07617188
1348,-17.5,31.0625,17.8125,0.1328125,0.2729492,0.06738281,-0.05908203,-0.3833008,-0.07617188
1352,1.625,30.4375,18,0.05517578,0.6733398,-0.01318359,-0.05908203,-0.3833008,-0.07861328
1356,-8.1875,11.0625,9.4375,0.06689453,0.7856445,-0.06298828,-0.06298828,-0.3842773,-0.08007813
1360,-21.875,1.375,9.25,0.1948242,0.809082,-0.04394531,-0.06152344,-0.3803711,-0.07861328
1364,-21.6875,-5.9375,-0.875,0.1674805,0.8945313,-0.09375,-0.06298828,-0.3833008,-0.08300781
1368,-20.25,1.125,-6.0625,0.2255859,1.022949,0.02490234,-0.06396484,-0.3818359,-0.08447266
1372,-23.875,21.0625,8.1875,0.1445313,1.143066,0.02099609,-0.06298828,-0.3833008,-0.08447266
1376,-29.875,19.6875,16.625,0.06298828,1.189941,-0.04003906,-0.06298828,-0.3803711,-0.08984375
1380,-36.25,-5.125,11.875,0.01269531,1.228516,-0.1591797,-0.06396484,-0.3803711,-0.08984375
1384,-39.75,-26.5625,5.25,0.1445313,1.310547,-0.1245117,-0.06640625,-0.3818359,-0.09228516
1388,-45.8125,-16.875,11.5,0.4077148,1.232422,0.01708984,-0.06884766,-0.3793945,-0.09765625
1393,-44.5,18.625,21.0625,0.5317383,1.291016,0.05175781,-0.06738281,-0.3779297,-0.1020508
1397,-48.375,36.625,17.9375,0.3417969,1.345215,-0.04394531,-0.06982422,-0.3779297,-0.105957
1401,-51.3125,24.625,20.5625,0.09375,1.438477,-0.1206055,-0.07128906,-0.3745117,-0.112793
1405,-52.5625,-6.875,12.8125,0.1328125,1.388184,0.009765625,-0.07128906,-0.3745117,-0.1157227
1409,-38.9375,-22.25,6.25,0.2646484,1.418945,0.06738281,-0.07226563,-0.3745117,-0.1196289
1413,-31.625,-21.75,-1.8125,0.4350586,1.523926,0.04785156,-0.07470703,-0.371582,-0.1235352
1417,-30.6875,-3.375,3.1875,0.4970703,1.702637,-0.01318359,-0.07324219,-0.3691406,-0.125
1421,-33.625,5,9.4375,0.3808594,1.780273,-0.06298828,-0.07470703,-0.3681641,-0.1279297
1425,-32.875,-0.625,17.4375,0.3227539,1.765137,-0.05908203,-0.07568359,-0.3657227,-0.1289063
1429,-27.4375,-10.3125,10.0625,0.4155273,1.675781,-0.001464844,-0.07714844,-0.3657227,-0.1333008
1433,-16.3125,-11.4375,0.5625,0.4853516,1.65625,0.005859375,-0.07714844,-0.3642578,-0.1347656
1437,-3.625,-3.625,-5.5,0.4853516,1.613281,0.02099609,-0.078125,-0.3666992,-0.1347656
1441,4,2.3125,-8.0625,0.3847656,1.675781,-0.02832031,-0.078125,-0.3657227,-0.1347656
1445,7.875,7.6875,-3.4375,0.3417969,1.621094,-0.009277344,-0.07714844,-0.3657227,-0.1333008
1449,12.625,5.9375,-3.625,0.2529297,1.570801,-0.04394531,-0.07714844,-0.3657227,-0.1357422
1453,16.6875,-3.4375,-11.0625,0.2138672,1.527832,-0.04394531,-0.07470703,-0.3666992,-0.1318359
1457,22.6875,-7.125,-11.0625,0.2333984,1.469727,-0.01660156,-0.07324219,-0.3666992,-0.1333008
1461,27.9375,-5.625,-10.25,0.2836914,1.539551,-0.005371094,-0.07568359,-0.3706055,-0.1303711
1465,33.5,-9.125,-12.3125,0.2797852,1.539551,0.01708984,-0.07324219,-0.3706055,-0.1264648
1469,40.25,-13.5,-19.4375,0.3378906,1.559082,0.04785156,-0.07226563,-0.371582,-0.125
1473,45.5,-13.125,-23.375,0.3305664,1.578613,0.04443359,-0.07128906,-0.3730469,-0.1181641
1477,51.125,-17.5625,-26.5625,0.3266602,1.648438,0.04443359,-0.07128906,-0.3745117,-0.1142578
1481,57.875,-16.5625,-27.3125,0.3691406,1.690918,-0.01660156,-0.06640625,-0.3745117,-0.1113281
1485,60,-11.75,-28.5625,0.3535156,1.628906,-0.07080078,-0.06494141,-0.3793945,-0.1044922
1489,58,-12.375,-30.6875,0.2255859,1.58252,-0.1552734,-0.06298828,-0.3803711,-0.09912109
1493,46.0625,-22.625,-29,0.09765625,1.55127,-0.1899414,-0.06054688,-0.3803711,-0.09375
1497,30.1875,-31.1875,-21.375,0.1367188,1.380371,-0.1630859,-0.05810547,-0.3833008,-0.09082031
1501,25.125,-25.1875,-17.375,0.2607422,1.06543,-0.05126953,-0.05810547,-0.3833008,-0.08837891
1505,29.375,-12.125,-25.25,0.2646484,1.084961,-0.05517578,-0.05664063,-0.3833008,-0.08544922
1509,27.6875,-12.0625,-36,0.1289063,1.026855,-0.1435547,-0.05224609,-0.3857422,-0.08154297
1513,16.8125,-22.75,-37.5,0.03173828,1.038574,-0.2167969,-0.05078125,-0.3857422,-0.07861328
1517,-2.1875,-33.125,-36,0.03564453,0.8984375,-0.1938477,-0.04736328,-0.3867188,-0.07763672
1522,-2.5625,-31.5,-32.25,0.07080078,0.7666016,-0.08984375,-0.04492188,-0.3867188,-0.07763672
1526,-8.25,-34.1875,-34.1875,-0.02978516,0.7392578,-0.1630859,-0.04248047,-0.3881836,-0.07861328
1530,-20.75,-46.75,-30.75,-0.06054688,0.6845703,-0.2285156,-0.04150391,-0.3867188,-0.07763672
1534,-31.3125,-56.4375,-30.125,0.01269531,0.6733398,-0.2207031,-0.03759766,-0.3867188,-0.08007813
1538,-49.9375,-51.4375,-21.0625,0.159668,0.6225586,-0.1782227,-0.03515625,-0.3857422,-0.08447266
1542,-70.3125,-19.125,5.875,0.2490234,0.300293,-0.04003906,-0.03662109,-0.3867188,-0.08447266
1546,-83.6875,9.8125,20.1875,0.190918,0.2768555,-0.01318359,-0.03759766,-0.3842773,-0.09521484
1550,-88.625,15,23.8125,0.06689453,0.1484375,0.07128906,-0.04150391,-0.3818359,-0.1020508
1554,-89.625,-17.5,23.1875,-0.2387695,0.1523438,-0.03613281,-0.04003906,-0.3818359,-0.1098633
1558,-77.25,-66.5625,12.375,-0.006347656,-0.02978516,0.1098633,-0.04492188,-0.3779297,-0.1181641
1562,-44,-59.25,1.375,0.4350586,-0.02978516,0.2749023,-0.04492188,-0.3754883,-0.1225586
1566,-21.1875,-14.625,-0.125,0.527832,0.3081055,0.2636719,-0.04736328,-0.3745117,-0.1235352
1570,-7.25,17.125,-0.6875,0.2758789,0.4399414,0.08642578,-0.04736328,-0.3730469,-0.125
1574,3.9375,19.875,-2.9375,-0.05273438,0.5292969,-0.1552734,-0.04589844,-0.3745117,-0.1264648
1578,16.9375,-8.125,-5.25,-0.3085938,0.6303711,-0.34375,-0.04589844,-0.3745117,-0.1235352
1582,22.0625,-36.375,4.75,-0.2080078,0.7001953,-0.3666992,-0.04589844,-0.3754883,-0.1225586
1586,30.4375,-41.0625,10.5625,0.03955078,0.6962891,-0.3129883,-0.04833984,-0.3754883,-0.1210938
1590,37.25,-34.75,10.5,0.1289063,0.7626953,-0.3823242,-0.05078125,-0.3745117,-0.1181641
1594,37.25,-23.5625,11.9375,0.1674805,0.8632813,-0.4438477,-0.05224609,-0.3779297,-0.1142578
1598,29.375,-18.3125,14.0625,0.125,0.9492188,-0.5517578,-0.05419922,-0.3779297,-0.1074219
1602,17.9375,-15.375,15.375,0.1831055,0.9492188,-0.5283203,-0.05322266,-0.3779297,-0.1074219
1606,7.875,-6.3125,15.625,0.2451172,0.9101563,-0.4707031,-0.05810547,-0.3793945,-0.105957
1610,3.0625,3.25,12.8125,0.2568359,0.8325195,-0.3632813,-0.05664063,-0.3793945,-0.1074219
1614,4.375,12.25,9.75,0.2138672,0.7587891,-0.309082,-0.05810547,-0.3769531,-0.1035156
1618,6.4375,15.375,7.6875,0.1870117,0.7392578,-0.2670898,-0.05908203,-0.3769531,-0.1074219
1622,8.6875,19.6875,9.375,0.206543,0.6459961,-0.1821289,-0.06054688,-0.3769531,-0.105957
1626,15.75,20.9375,8.4375,0.125,0.5683594,-0.1938477,-0.05908203,-0.3769531,-0.1035156
1630,17.375,12.6875,1.25,0.1015625,0.6069336,-0.2016602,-0.06054688,-0.3769531,-0.1035156
1634,22.9375,16.875,6.8125,0.1987305,0.4013672,-0.109375,-0.05908203,-0.3779297,-0.1020508
1638,29.5,26.4375,7.625,0.2255859,0.4282227,-0.1245117,-0.05908203,-0.3779297,-0.09765625
1642,35.5,36.1875,6.0625,0.2255859,0.3544922,-0.07861328,-0.05908203,-0.3793945,-0.09667969
1646,37.375,31.8125,2.25,0.02832031,0.4013672,-0.1669922,-0.06054688,-0.3793945,-0.09375
1651,43.5,15.8125,7.875,-0.09130859,0.4052734,-0.2592773,-0.05908203,-0.3818359,-0.09375
1655,34.9375,1.8125,10.125,0.03173828,0.5410156,-0.2631836,-0.06152344,-0.3818359,-0.08984375
1659,23.125,2.875,12.4375,0.1635742,0.5332031,-0.2436523,-0.06054688,-0.3818359,-0.08447266
1663,12.125,10.5625,10.5625,0.2490234,0.5527344,-0.2783203,-0.06152344,-0.3803711,-0.08544922
1667,-3.5,22.5625,-0.6875,0.3652344,0.6962891,-0.2861328,-0.06396484,-0.3803711,-0.08544922
1671,-19.75,40.25,2.9375,0.2216797,0.5449219,-0.2246094,-0.06396484,-0.3818359,-0.08544922
1675,-10.3125,57.4375,27.5625,0.1713867,0.6459961,-0.1054688,-0.06298828,-0.3833008,-0.08544922
1679,-15.25,48.5,17.75,0.09765625,0.5839844,-0.01660156,-0.06298828,-0.3803711,-0.09082031
1683,-10.9375,29.5625,10.375,0.04736328,0.6186523,-0.07861328,-0.06494141,-0.3803711,-0.09228516
1687,-8.5625,3.375,-8.75,0.07080078,0.8051758,-0.05908203,-0.06396484,-0.3793945,-0.09082031
1691,-12.5,-7.875,-17.75,0.1557617,1.045898,0.02099609,-0.06396484,-0.3803711,-0.09082031
1695,-21.375,7.5,-1.75,0.190918,1.275391,0.08642578,-0.06152344,-0.3803711,-0.09375
1699,-38.0625,19.1875,21.6875,0.05517578,1.356934,0.009765625,-0.06152344,-0.3803711,-0.09765625
1703,-51.5625,5.5625,31.9375,0.03955078,1.39209,-0.1323242,-0.06494141,-0.3779297,-0.1020508
1707,-55.8125,-12.0625,21.0625,0.2758789,1.158691,-0.03222656,-0.06640625,-0.3754883,-0.1074219
1711,-45.375,-11.9375,-3.75,0.4350586,1.209473,0.08251953,-0.06982422,-0.3754883,-0.1113281
1715,-35.9375,-1.125,-8.125,0.3339844,1.438477,0.144043,-0.06884766,-0.3745117,-0.1157227
1719,-43.5625,5.625,-0.5625,0.206543,1.625,0.144043,-0.06738281,-0.371582,-0.1181641
1723,-48.5625,5.875,18.625,0.125,1.500488,0.1132813,-0.06738281,-0.3730469,-0.1225586
1727,-50.8125,-5.1875,15.5,0.1635742,1.438477,0.02099609,-0.07128906,-0.3730469,-0.1279297
1731,-35.5,-25.9375,-3.8125,0.1367188,1.333496,0.03271484,-0.07324219,-0.3691406,-0.1303711
1735,-27.8125,-38.5,-7.3125,0.2412109,1.574707,0.08251953,-0.07226563,-0.3681641,-0.1303711
1739,-30.125,-28.25,-0.9375,0.4467773,1.726074,0.125,-0.07226563,-0.3681641,-0.1357422
1743,-32.5625,-3.125,6.75,0.543457,1.675781,0.09423828,-0.07324219,-0.3657227,-0.137207
1747,-29.625,7.1875,-1,0.5048828,1.644531,0.02099609,-0.07226563,-0.3657227,-0.137207
1751,-22.1875,5.125,-17.3125,0.4038086,1.601563,0.03271484,-0.07470703,-0.3642578,-0.1401367
1755,-11.75,5.3125,-21.75,0.3266602,1.625,0.06738281,-0.07226563,-0.3657227,-0.1416016
1759,-6.0625,10.5625,-20.9375,0.2915039,1.644531,0.09033203,-0.07128906,-0.3632813,-0.144043
1763,0,16.5625,-18.1875,0.2294922,1.586426,0.07128906,-0.06640625,-0.3642578,-0.1425781
1767,9.75,11.1875,-22.0625,0.1171875,1.543457,-0.02050781,-0.06396484,-0.3657227,-0.1416016
1771,15.1875,-2.9375,-28.8125,0.05517578,1.55127,-0.07080078,-0.06298828,-0.3666992,-0.1425781
1775,18.1875,-9.125,-26.4375,0.08251953,1.504395,-0.02832031,-0.05908203,-0.3666992,-0.1416016
1780,20.5625,-12.1875,-23.625,0.1210938,1.508301,-0.005371094,-0.05908203,-0.3691406,-0.1386719
1784,26.4375,-10.5,-21.9375,0.2294922,1.469727,0.04785156,-0.05908203,-0.3681641,-0.137207
1788,36.875,-5.3125,-27.4375,0.2685547,1.481445,0.05566406,-0.05322266,-0.371582,-0.137207
1792,44.6875,-2.9375,-32.9375,0.2333984,1.632813,0.03662109,-0.05419922,-0.3745117,-0.1318359
1796,47.875,-3.125,-32.25,0.1791992,1.613281,0.07910156,-0.05078125,-0.3730469,-0.1303711
1800,51.6875,-7.25,-30.125,0.1171875,1.664063,0.09033203,-0.04833984,-0.3769531,-0.125
1804,58.5,-6.5625,-30.125,0.1557617,1.609375,0.1865234,-0.04589844,-0.3793945,-0.1181641
1808,67.75,2.875,-26.9375,0.1289063,1.601563,0.1865234,-0.04394531,-0.3793945,-0.1142578
1812,75.625,9,-28.75,0.08251953,1.485352,0.1865234,-0.04150391,-0.3818359,-0.1088867
1816,81.1875,3,-30.6875,-0.1264648,1.411133,0.105957,-0.03662109,-0.3842773,-0.1005859
1820,79.3125,-10.9375,-28.9375,-0.1303711,1.407715,0.07128906,-0.03662109,-0.3867188,-0.09521484
1824,73.1875,-6.6875,-16.875,0.0009765625,1.337402,0.04443359,-0.03320313,-0.3857422,-0.08544922
1828,62.375,5.75,-12.3125,0.140625,1.317871,0.009765625,-0.03173828,-0.390625,-0.08007813
1832,48.1875,26.625,-5.9375,0.1948242,1.217285,-0.04394531,-0.02929688,-0.390625,-0.07470703
1836,36.375,33.875,-5,0.03955078,1.162598,-0.1015625,-0.02832031,-0.390625,-0.07080078
1840,31.625,11.8125,-11.9375,-0.2041016,0.9604492,-0.1323242,-0.02929688,-0.390625,-0.06640625
1844,34.6875,-24.1875,-27.5625,-0.1030273,0.8129883,-0.07080078,-0.02685547,-0.390625,-0.06396484
1848,38.8125,-35.5,-40.1875,0.06689453,0.7626953,-0.06689453,-0.0234375,-0.390625,-0.0625
1852,28.375,-24.375,-40.9375,0.1210938,0.90625,-0.1938477,-0.01855469,-0.3916016,-0.05566406
1856,4.75,-1.0625,-28.4375,0.08251953,0.875,-0.2978516,-0.01757813,-0.3916016,-0.05712891
1860,-31.4375,17.5,-4.3125,0.03564453,0.840332,-0.3515625,-0.01416016,-0.3930664,-0.05566406
1864,-48.4375,27.3125,4.125,0.06689453,0.3662109,-0.2363281,-0.01416016,-0.3916016,-0.06103516
1868,-34.875,36.3125,-7.125,0.05517578,0.2573242,-0.1821289,-0.01513672,-0.3916016,-0.0625
1872,-25.5625,27.4375,-25.8125,-0.1499023,0.4086914,-0.3286133,-0.01416016,-0.3916016,-0.06933594
1876,-38.875,13.6875,-16.5,-0.262207,0.5175781,-0.4360352,-0.01025391,-0.3916016,-0.07177734
1880,-56.1875,3.625,10.0625,-0.1923828,0.4013672,-0.3706055,-0.0078125,-0.3891602,-0.07324219
1884,-63.0625,3.75,29.625,-0.05273438,0.2729492,-0.2705078,-0.01171875,-0.3916016,-0.07861328
1888,-53.625,2.125,29.1875,0.05126953,0.2070313,-0.2016602,-0.01416016,-0.3867188,-0.08837891
1892,-46.5,-6.75,20.8125,0.1518555,0.2495117,-0.109375,-0.01611328,-0.3881836,-0.08837891
1896,-30.125,-3.5,19.6875,0.2993164,0.1835938,0.001953125,-0.01611328,-0.3842773,-0.09375
1900,-6.1875,2.5,5.4375,0.3266602,0.2807617,-0.06689453,-0.01855469,-0.3867188,-0.09521484
1904,7.9375,12.875,2.0625,0.1791992,0.3818359,-0.1743164,-0.02099609,-0.3867188,-0.09667969
1909,13.25,9,3.6875,-0.02978516,0.5839844,-0.378418,-0.01757813,-0.3867188,-0.09521484
1913,11.625,-3.3125,3.625,-0.05664063,0.7236328,-0.5092773,-0.02001953,-0.3881836,-0.09375
1917,6.3125,-3.1875,14.0625,-0.03320313,0.7973633,-0.5864258,-0.01855469,-0.3891602,-0.09375
1921,-1.3125,-3.25,22.8125,0.0009765625,0.7431641,-0.5708008,-0.02099609,-0.3867188,-0.09228516
1925,4.4375,-2.375,29.75,0.04345703,0.6381836,-0.5361328,-0.02490234,-0.3857422,-0.09375
1929,10.625,-12.9375,19.9375,0.06689453,0.6577148,-0.5400391,-0.02490234,-0.3867188,-0.09228516
1933,14.3125,-16.5625,15.4375,0.1367188,0.7080078,-0.5014648,-0.02929688,-0.3857422,-0.09228516
1937,10.9375,-11.875,13.25,0.1831055,0.7158203,-0.4438477,-0.02929688,-0.3857422,-0.08837891
1941,9.875,-9.625,13.0625,0.109375,0.7158203,-0.4360352,-0.03173828,-0.3857422,-0.08837891
1945,3.75,-10.125,12.25,0.1557617,0.7197266,-0.3862305,-0.03173828,-0.3867188,-0.08691406
1949,1.5,3.625,18.875,0.2836914,0.5449219,-0.2285156,-0.03173828,-0.3867188,-0.08691406
1953,5.1875,21.1875,15.875,0.3691406,0.3818359,-0.09765625,-0.03515625,-0.3857422,-0.08691406
1957,15.6875,35.9375,9.375,0.3339844,0.315918,-0.02441406,-0.03662109,-0.3857422,-0.08691406
1961,21.9375,37.125,4.5625,0.1674805,0.3193359,-0.001464844,-0.03662109,-0.3857422,-0.08447266
1965,23.1875,18.25,9.25,0.03564453,0.2573242,-0.03222656,-0.03662109,-0.3881836,-0.08447266
1969,24.75,0.5,8.375,0.2373047,0.1757813,-0.04003906,-0.03662109,-0.3881836,-0.08007813
1973,36,5.5625,-8.75,0.4155273,0.3120117,-0.06298828,-0.03662109,-0.3867188,-0.07861328
1977,45.4375,21,-13.5625,0.3071289,0.4243164,-0.1513672,-0.03662109,-0.3881836,-0.07617188
1981,37.9375,30.5625,-6.5625,0.1557617,0.6108398,-0.2016602,-0.03515625,-0.3881836,-0.07080078
1985,22.5,27.5,6.125,0.03955078,0.7275391,-0.2783203,-0.03515625,-0.3891602,-0.06933594
1989,11.1875,18.6875,7.8125,0.2026367,0.6577148,-0.2514648,-0.03417969,-0.390625,-0.06933594
1993,13.6875,23,-9.375,0.1674805,0.7587891,-0.1899414,-0.03320313,-0.390625,-0.06640625
1997,16.9375,27.0625,-13.3125,-0.06054688,0.8671875,-0.1552734,-0.03417969,-0.3891602,-0.06640625
2001,14.4375,15.75,4.8125,-0.3549805,1.084961,-0.3051758,-0.03320313,-0.390625,-0.06396484
2005,-10.1875,-11.3125,17.6875,-0.2041016,1.197754,-0.394043,-0.03320313,-0.3891602,-0.06396484
2009,-30.8125,-27.9375,20.125,0.1171875,1.030762,-0.3745117,-0.03759766,-0.3881836,-0.06640625
2013,-28.0625,-22.125,0.5,0.3496094,1.007324,-0.2285156,-0.03515625,-0.3881836,-0.06640625
2017,-25.4375,3.375,-5.0625,0.2993164,1.174316,-0.09765625,-0.03662109,-0.390625,-0.07080078
2021,-30.4375,24.625,7.5,0.03173828,1.349121,-0.1015625,-0.03417969,-0.390625,-0.07324219
2025,-49.4375,12.6875,23.125,-0.1381836,1.372559,-0.1743164,-0.03759766,-0.3891602,-0.07470703
2029,-61.5,-29.0625,18.75,-0.08007813,1.259766,-0.2246094,-0.0390625,-0.3857422,-0.08007813
2033,-60.0625,-61.75,-4.5,0.2294922,1.12793,-0.109375,-0.04150391,-0.3857422,-0.08691406
2038,-47.3125,-48.9375,-12.8125,0.4428711,1.251953,0.02099609,-0.04150391,-0.3867188,-0.09082031
2042,-58.375,-11.75,-2.5625,0.4506836,1.500488,0.04052734,-0.04150391,-0.3833008,-0.09375
2046,-68.625,14.4375,12.5,0.2026367,1.617188,-0.02832031,-0.04248047,-0.3842773,-0.1005859
2050,-74.75,-4.9375,14.6875,-0.03320313,1.613281,-0.1206055,-0.04394531,-0.3818359,-0.1074219
2054,-71.5,-38.625,2.9375,0.06298828,1.574707,-0.0859375,-0.04492188,-0.3833008,-0.1142578
2058,-60.125,-44.6875,-5.0625,0.2685547,1.58252,0.02099609,-0.04492188,-0.3779297,-0.1196289
2062,-51.6875,-20.6875,-3.1875,0.3652344,1.706543,0.04052734,-0.04394531,-0.3769531,-0.1210938
2066,-48.125,2.9375,2.0625,0.2529297,1.831055,-0.01318359,-0.04833984,-0.3745117,-0.1279297
2070,-45.25,5.5625,6,0.08251953,1.84668,-0.05517578,-0.04589844,-0.3754883,-0.1318359
2074,-37.8125,-12.3125,5,0.03564453,1.791992,-0.02050781,-0.04833984,-0.371582,-0.1347656
2078,-26,-26.6875,-0.625,0.1367188,1.710449,0.02099609,-0.04980469,-0.3706055,-0.137207
2082,-9.8125,-17.5625,-4.0625,0.2954102,1.590332,0.1020508,-0.04980469,-0.371582,-0.137207
2086,4.75,4.4375,-12.125,0.3535156,1.578613,0.08251953,-0.04980469,-0.3706055,-0.1386719
2090,13.4375,22.6875,-18.375,0.2138672,1.531738,0.04443359,-0.04589844,-0.371582,-0.137207
2094,19.875,25.125,-20.75,-0.01025391,1.481445,0.009765625,-0.04492188,-0.371582,-0.137207
2098,23.375,11.75,-22.1875,-0.1264648,1.473633,-0.009277344,-0.04492188,-0.3745117,-0.1347656
2102,27.625,0,-20.75,-0.05273438,1.454102,0.01367188,-0.04003906,-0.3730469,-0.1318359
2106,33.125,3.625,-20.0625,0.175293,1.46582,0.08642578,-0.03662109,-0.3754883,-0.1333008
2110,39.3125,22.5625,-23.4375,0.3266602,1.527832,0.125,-0.03759766,-0.3745117,-0.1289063
2114,47.9375,31.8125,-29.4375,0.1948242,1.547363,0.1289063,-0.03320313,-0.3779297,-0.125
2118,58.6875,14.4375,-37.5,-0.01416016,1.586426,0.140625,-0.02929688,-0.3803711,-0.1181641
2122,69.5,-14.5,-42.6875,-0.06054688,1.679688,0.1210938,-0.02685547,-0.3818359,-0.1157227
2126,70.6875,-30.8125,-44.0625,0.1518555,1.722168,0.09033203,-0.0234375,-0.3842773,-0.1088867
2130,78.125,-7,-45.5625,0.3999023,1.500488,0.1132813,-0.01855469,-0.3867188,-0.1035156
2134,84.4375,35.25,-54.875,0.2993164,1.504395,-0.02441406,-0.01611328,-0.3881836,-0.09667969
2138,80,52.6875,-53.25,-0.1728516,1.504395,-0.1977539,-0.0078125,-0.3881836,-0.08837891
2142,58.8125,37.75,-41.9375,-0.4091797,1.461914,-0.2475586,-0.004394531,-0.390625,-0.08154297
2146,38.3125,27.0625,-21.875,-0.347168,1.236328,-0.1474609,0.0009765625,-0.3916016,-0.07861328
2150,27.25,23.6875,-15.4375,-0.3046875,1.049805,-0.1552734,0.002441406,-0.3916016,-0.07080078
2154,26,25.375,-13.875,-0.1533203,0.8598633,-0.09375,0.004394531,-0.3916016,-0.07177734
2158,23,31.8125,-15.25,-0.1572266,0.8208008,-0.08984375,0.005859375,-0.3930664,-0.06933594
2162,18.3125,16.3125,-14.5,-0.3046875,0.7817383,-0.1015625,0.008300781,-0.3930664,-0.06542969
2167,7.375,-8.375,-9.9375,-0.2890625,0.8129883,-0.1474609,0.006835938,-0.3916016,-0.06640625
2171,-8.1875,-29.375,-5.5625,-0.1611328,0.875,-0.1782227,0.009277344,-0.3916016,-0.06542969
2175,-18.9375,-29.6875,-4,0.08251953,0.7236328,-0.05126953,0.01074219,-0.3930664,-0.06640625
2179,-18.875,-14.0625,-4.75,0.159668,0.6923828,-0.07470703,0.01074219,-0.3930664,-0.06933594
2183,-18.875,-9.8125,-15.375,0.07080078,0.8051758,-0.1860352,0.009277344,-0.390625,-0.06933594
2187,-27.8125,-17.0625,-16.375,-0.1030273,0.6538086,-0.2861328,0.009277344,-0.3916016,-0.07324219
2191,-39.25,-23.5625,-5.375,-0.04101563,0.6884766,-0.3325195,0.01269531,-0.3891602,-0.07470703
2195,-54.375,-14.0625,-11.8125,0.07470703,0.5332031,-0.2167969,0.01416016,-0.390625,-0.07861328
2199,-55.4375,21.5625,7.3125,0.008789063,0.4750977,-0.1977539,0.01416016,-0.3891602,-0.08544922
2203,-80.125,27.8125,34.125,-0.1806641,0.4907227,-0.2553711,0.01171875,-0.3881836,-0.09375
2207,-80.6875,11.625,58.5625,-0.2001953,0.15625,-0.1552734,0.009277344,-0.3842773,-0.09765625
2211,-75.5,-32.0625,53.625,-0.07617188,0.171875,-0.1513672,0.004394531,-0.3867188,-0.105957
2215,-56.0625,-46.4375,38.625,0.5512695,0.02441406,0.07128906,-0.001953125,-0.3833008,-0.1113281
2219,-29.0625,14.3125,29.625,1.012207,0.1640625,0.159668,-0.004394531,-0.3803711,-0.1142578
2223,-7.875,91.0625,0.5,0.6210938,0.2729492,0.02880859,-0.004394531,-0.3818359,-0.1157227
2227,-0.5,95.375,7.8125,-0.1611328,0.4711914,-0.2475586,-0.001953125,-0.3818359,-0.1157227
2231,12.5625,28.625,9.0625,-0.5834961,0.5605469,-0.5400391,-0.001953125,-0.3833008,-0.1166992
2235,20.125,-34.5,-0.1875,-0.4013672,0.777832,-0.6206055,-0.0009765625,-0.3833008,-0.1142578
2239,16.375,-43.375,7.6875,-0.07226563,0.8984375,-0.574707,-0.0009765625,-0.3818359,-0.112793
2243,4.875,-26,28.1875,0.05517578,0.8671875,-0.5209961,-0.004394531,-0.3857422,-0.1113281
2247,-2.8125,-9.375,40.6875,0.1713867,0.7973633,-0.4052734,-0.0078125,-0.3833008,-0.1113281
2251,-1.625,5.9375,35.8125,0.2875977,0.6884766,-0.2592773,-0.01171875,-0.3833008,-0.1142578
2255,6.375,16.4375,22.875,0.2529297,0.6381836,-0.2592773,-0.01416016,-0.3803711,-0.1113281
2259,19.75,11.9375,12.3125,0.06298828,0.6381836,-0.3515625,-0.01611328,-0.3818359,-0.112793
2263,23.5,-6.0625,4.0625,-0.03710938,0.7509766,-0.4282227,-0.01513672,-0.3842773,-0.1088867
2267,17.75,-12.3125,13.25,0.03564453,0.7705078,-0.3823242,-0.01611328,-0.3833008,-0.1074219
2271,7.1875,0.4375,26.75,0.175293,0.7587891,-0.2861328,-0.02001953,-0.3818359,-0.105957
2275,-0.8125,23.9375,35.5,0.3032227,0.5913086,-0.1362305,-0.02099609,-0.3833008,-0.105957
2279,4.9375,47.4375,32.0625,0.3032227,0.3349609,0.02880859,-0.02246094,-0.3833008,-0.1044922
2283,21.3125,46.3125,17.3125,0.03955078,0.1953125,0.08642578,-0.02490234,-0.3818359,-0.1035156
2287,42.9375,16.0625,9.1875,-0.1845703,0.1796875,0.04443359,-0.02587891,-0.3833008,-0.1035156
2291,53.25,-23.4375,0.75,-0.2504883,0.3896484,-0.05908203,-0.02587891,-0.3842773,-0.09765625
2296,45.375,-50,-1.25,-0.08398438,0.6147461,-0.128418,-0.02587891,-0.3867188,-0.09521484
2300,27.375,-44.5625,7.1875,0.1445313,0.6772461,-0.1591797,-0.02832031,-0.3867188,-0.08984375
2304,17.4375,-22.75,25.3125,0.2216797,0.4243164,-0.08203125,-0.02929688,-0.3881836,-0.08544922
2308,21.1875,-0.4375,44.3125,0.2138672,0.5527344,-0.1206055,-0.03076172,-0.3867188,-0.08837891
2312,18.5625,1.625,47.25,0.2568359,0.5449219,-0.1362305,-0.03662109,-0.3881836,-0.08300781
2316,14.75,-2.3125,35.9375,0.4155273,0.6069336,-0.1821289,-0.04003906,-0.3857422,-0.08300781
2320,21.9375,5.75,21.3125,0.4077148,0.6962891,-0.1166992,-0.04492188,-0.3867188,-0.08007813
2324,20.25,6.3125,18.625,0.159668,0.9179688,-0.2246094,-0.04394531,-0.3867188,-0.07861328
2328,1.625,-6.875,27.1875,0.1674805,1.061523,-0.3476563,-0.04736328,-0.3867188,-0.07763672
2332,-29,-10.3125,30.0625,0.4116211,1.019043,-0.3168945,-0.04980469,-0.3857422,-0.08007813
2336,-38.25,3.625,15.0625,0.5512695,1.045898,-0.109375,-0.05322266,-0.3857422,-0.08154297
2340,-22.4375,23.8125,4.4375,0.2138672,1.053711,0.001953125,-0.05224609,-0.3818359,-0.08300781
2344,-22.0625,18.5625,19.5625,-0.1533203,1.321777,-0.07470703,-0.05322266,-0.3842773,-0.08691406
2348,-42.75,-17.1875,33.875,-0.1650391,1.485352,-0.1821289,-0.05419922,-0.3842773,-0.09082031
2352,-55.8125,-45.375,32.3125,0.109375,1.36084,-0.1401367,-0.05810547,-0.3803711,-0.09228516
2356,-49.9375,-45.4375,19.25,0.3769531,1.321777,-0.05126953,-0.06152344,-0.3803711,-0.09765625
2360,-37.625,-20.375,16.0625,0.2993164,1.39209,-0.05517578,-0.06494141,-0.3779297,-0.1005859
2364,-39.125,-11,21,0.175293,1.547363,-0.1669922,-0.06494141,-0.3793945,-0.1035156
2368,-52.375,-14.75,26.9375,0.1831055,1.500488,-0.2089844,-0.06982422,-0.3754883,-0.1074219
2372,-63.5625,-23.1875,20.6875,0.2797852,1.446289,-0.2324219,-0.07128906,-0.3745117,-0.112793
2376,-64.8125,-21.125,9.75,0.3808594,1.291016,-0.09375,-0.07324219,-0.371582,-0.1166992
2380,-61.875,-7.375,6.6875,0.3925781,1.225098,0.05175781,-0.07470703,-0.3706055,-0.1210938
2384,-61.3125,-4,0.125,0.3417969,1.345215,0.09814453,-0.07568359,-0.3691406,-0.1279297
2388,-59.75,-8.0625,-3.3125,0.3305664,1.337402,0.1020508,-0.07568359,-0.3657227,-0.1318359
2392,-58.0625,-19.75,-13.3125,0.3227539,1.356934,0.08642578,-0.07470703,-0.3657227,-0.1357422
2396,-52.9375,-24,-22.625,0.3769531,1.415039,0.1674805,-0.07470703,-0.3632813,-0.1401367
2400,-42,-7.8125,-19.0625,0.3999023,1.450195,0.2172852,-0.07568359,-0.3618164,-0.1425781
2404,-32.375,11.8125,-13.1875,0.3769531,1.539551,0.2250977,-0.07226563,-0.3618164,-0.1484375
2408,-22.6875,26.875,-3.625,0.3032227,1.621094,0.1713867,-0.06982422,-0.3603516,-0.1494141
2412,-14.1875,23.625,-1.0625,0.1870117,1.644531,0.1210938,-0.06982422,-0.359375,-0.1523438
2416,-0.8125,-2.125,-7.3125,0.09033203,1.648438,0.02880859,-0.06884766,-0.3579102,-0.1538086
2420,16.375,-34.5,-23.8125,0.2138672,1.609375,-0.02050781,-0.06738281,-0.359375,-0.1523438
2425,28.8125,-36.8125,-34.8125,0.5009766,1.636719,-0.04003906,-0.06738281,-0.3603516,-0.1508789
2429,30.5,-13.8125,-37.1875,0.59375,1.675781,-0.05126953,-0.06494141,-0.3642578,-0.1455078
2433,29.5625,11.5625,-33.625,0.4736328,1.613281,-0.01318359,-0.06152344,-0.3666992,-0.144043
2437,28.5625,15.6875,-31.3125,0.1791992,1.617188,-0.04003906,-0.06054688,-0.3657227,-0.1425781
2441,29.4375,1.875,-34.3125,0.04345703,1.566895,-0.009277344,-0.05566406,-0.3681641,-0.1416016
2445,34.5625,-2.875,-35.125,0.08251953,1.527832,0.06347656,-0.05322266,-0.3691406,-0.137207
2449,46.3125,2.875,-35.9375,0.1328125,1.450195,0.1479492,-0.05078125,-0.3706055,-0.1347656
2453,53.9375,14.3125,-36.4375,0.109375,1.531738,0.140625,-0.04833984,-0.371582,-0.1289063
2457,57.25,24,-34.25,0.07080078,1.516113,0.159668,-0.04248047,-0.3754883,-0.1264648
2461,63.0625,27.0625,-27.375,-0.09130859,1.485352,0.2094727,-0.04150391,-0.3779297,-0.1235352
2465,66.25,15.5,-25.3125,-0.246582,1.570801,0.1904297,-0.03662109,-0.3803711,-0.1157227
2469,64.375,-4.9375,-20.8125,-0.3164063,1.46582,0.1171875,-0.03417969,-0.3818359,-0.1098633
2473,60,-21.5625,-19.8125,-0.1264648,1.333496,0.001953125,-0.03173828,-0.3833008,-0.1044922
2477,57.3125,-20.5625,-24.5625,0.09033203,1.193848,-0.01660156,-0.03173828,-0.3857422,-0.09765625
2481,52.75,-4.125,-24.625,0.1831055,1.197754,0.03662109,-0.02832031,-0.3857422,-0.09375
2485,49.8125,8.0625,-19.8125,0.07080078,1.178223,0.02099609,-0.02685547,-0.3867188,-0.08984375
2489,32.8125,-5,-15.9375,-0.1030273,1.166504,-0.1708984,-0.02587891,-0.3881836,-0.08447266
2493,8.8125,-35,-22.3125,-0.08789063,1.034668,-0.2055664,-0.0234375,-0.3891602,-0.08300781
2497,-3.25,-43.4375,-20,0.1015625,0.9179688,-0.109375,-0.0234375,-0.390625,-0.08300781
2501,-2.625,-26.0625,-20.25,0.2685547,0.6616211,0.04785156,-0.02099609,-0.3891602,-0.08007813
2505,3.4375,10.6875,-15.1875,0.2954102,0.6420898,0.001953125,-0.02001953,-0.3891602,-0.08447266
2509,-2.5,37.5625,-6.4375,0.09375,0.6303711,-0.1743164,-0.02001953,-0.3891602,-0.08154297
2513,-21.625,41.875,-2.5,-0.07617188,0.6538086,-0.2900391,-0.01757813,-0.3891602,-0.08300781
2517,-38.5,34.4375,-1.6875,-0.1459961,0.6499023,-0.2783203,-0.01611328,-0.3881836,-0.08544922
2521,-39.4375,33.875,-2.4375,-0.09130859,0.5292969,-0.1821289,-0.01513672,-0.3857422,-0.08691406
2525,-32.875,34.375,0.3125,-0.1572266,0.3583984,-0.1245117,-0.01416016,-0.3867188,-0.09228516
2529,-32.75,22.4375,17.4375,-0.262207,0.3662109,-0.1860352,-0.01513672,-0.3857422,-0.09765625
2533,-47.5625,-4.8125,19.875,-0.1650391,0.4052734,-0.1860352,-0.01611328,-0.3842773,-0.09912109
2537,-52.25,-11.5,26.1875,0.06298828,0.4438477,-0.1054688,-0.01855469,-0.3842773,-0.105957
2541,-46.4375,-14.1875,23.125,0.1367188,0.1796875,-0.009277344,-0.02099609,-0.3818359,-0.1088867
2545,-25.625,-25.875,19.0625,0.159668,0.08251953,0.1328125,-0.02246094,-0.3818359,-0.1113281
2549,-0.125,-33.5,4.375,0.3574219,0.08251953,0.2402344,-0.02490234,-0.3803711,-0.112793
2554,23.0625,-25.5,-7.4375,0.4428711,0.2265625,0.1328125,-0.02587891,-0.3803711,-0.1113281
2558,36.5625,-7.8125,-14.9375,0.3769531,0.4946289,-0.2055664,-0.02490234,-0.3803711,-0.1098633
2562,34.9375,12.8125,-11.125,0.1870117,0.8286133,-0.5517578,-0.02490234,-0.3833008,-0.105957
2566,15.5625,18,3.25,-0.08007813,1.022949,-0.7363281,-0.02246094,-0.3842773,-0.1020508
2570,-4.5,10.25,22.9375,-0.1225586,0.9296875,-0.7094727,-0.0234375,-0.3842773,-0.1020508
2574,-10.0625,7.8125,26.875,0.07470703,0.7158203,-0.5170898,-0.02587891,-0.3833008,-0.105957
2578,-0.3125,17.625,26.25,0.1870117,0.5527344,-0.3359375,-0.02832031,-0.3833008,-0.1020508
2582,8.875,19.9375,20.6875,0.09033203,0.6499023,-0.3286133,-0.02929688,-0.3833008,-0.1035156
2586,12.375,5.75,16.1875,0.01660156,0.6420898,-0.3129883,-0.03076172,-0.3833008,-0.1044922
2590,15.0625,-4.25,16.1875,0.09765625,0.6538086,-0.3168945,-0.03173828,-0.3842773,-0.1035156
2594,17.375,-6.625,15.75,0.1484375,0.6845703,-0.3632813,-0.03417969,-0.3833008,-0.1020508
2598,15.5,-15.75,10.3125,0.06689453,0.7431641,-0.4516602,-0.03515625,-0.3833008,-0.1005859
2602,9.3125,-19.9375,14.5625,0.1484375,0.7739258,-0.4321289,-0.03515625,-0.3833008,-0.09765625
2606,-2.75,-10.125,17.1875,0.2875977,0.7158203,-0.3359375,-0.0390625,-0.3818359,-0.09667969
2610,-8.3125,14.25,19.9375,0.3959961,0.5214844,-0.1552734,-0.04003906,-0.3833008,-0.09765625
2614,-0.5,36.8125,21.4375,0.3032227,0.3818359,-0.04394531,-0.04003906,-0.3793945,-0.09765625
2618,4.1875,31.3125,19.625,-0.006347656,0.5214844,-0.1362305,-0.04248047,-0.3842773,-0.09765625
2622,1.4375,4,17.4375,-0.1030273,0.6069336,-0.1708984,-0.04248047,-0.3833008,-0.09667969
2626,-5.0625,-15,21.125,0.04345703,0.5683594,-0.1435547,-0.04492188,-0.3833008,-0.09667969
2630,-2.0625,-4.5,25.3125,0.3925781,0.3544922,0.005859375,-0.04736328,-0.3803711,-0.09765625
2634,4.5,30.1875,14.875,0.5161133,0.4790039,0.03662109,-0.04980469,-0.3803711,-0.09912109
2638,9.0625,50.75,5.3125,0.206543,0.5800781,0.009765625,-0.05078125,-0.3818359,-0.09912109
2642,6.625,39.1875,17.625,-0.1225586,0.6577148,-0.01318359,-0.04980469,-0.3818359,-0.09521484
2646,1.1875,2.6875,24.4375,-0.1806641,0.6381836,-0.09765625,-0.05078125,-0.3803711,-0.09912109
2650,5.8125,-19.375,12.625,0.159668,0.7080078,-0.03613281,-0.05078125,-0.3793945,-0.09765625
2654,6.25,-11.1875,-9.875,0.4311523,0.8481445,-0.08203125,-0.05322266,-0.3803711,-0.09667969
2658,1.8125,17.5625,-18.4375,0.4194336,0.840332,-0.112793,-0.05419922,-0.3803711,-0.1005859
2662,-8.0625,49.375,-7.625,0.1987305,0.9414063,-0.1054688,-0.05078125,-0.3803711,-0.09765625
2666,-15.3125,49.375,10.0625,-0.2231445,1.073242,-0.1401367,-0.04980469,-0.3803711,-0.09912109
2670,-26.6875,15.4375,18.5,-0.362793,1.189941,-0.1206055,-0.05078125,-0.3803711,-0.1035156
2674,-31.9375,-17.75,21.0625,-0.1108398,1.135742,-0.07861328,-0.05322266,-0.3803711,-0.1020508
2678,-28,-24.125,13.25,0.2216797,1.030762,-0.009277344,-0.05419922,-0.3793945,-0.1074219
2683,-21.625,-16.6875,2.4375,0.2915039,1.182129,0.001953125,-0.05566406,-0.3793945,-0.1088867
2687,-23.125,-8.0625,6.1875,0.1713867,1.271484,0.05566406,-0.05566406,-0.3779297,-0.1098633
2691,-34.1875,-9.0625,21.4375,0.08251953,1.380371,0.01708984,-0.05810547,-0.3779297,-0.1113281
2695,-43.0625,-17.9375,31.8125,0.175293,1.283203,0.01367188,-0.05908203,-0.3769531,-0.1157227
2699,-41.5625,-24.25,19.5,0.3535156,1.17041,0.07910156,-0.06298828,-0.3730469,-0.1210938
2703,-37.25,-20.25,5.6875,0.4038086,1.294922,0.09423828,-0.06396484,-0.3730469,-0.1235352
2707,-39.1875,-10.375,9.4375,0.3574219,1.469727,0.09423828,-0.06738281,-0.3730469,-0.125
2711,-49.4375,-3.3125,21.5,0.3535156,1.523926,0.04052734,-0.06884766,-0.371582,-0.1303711
2715,-55.5625,3,29.625,0.4116211,1.493164,0.01367188,-0.06982422,-0.3681641,-0.1289063
2719,-55.375,1,16.6875,0.4428711,1.481445,0.07519531,-0.07128906,-0.3657227,-0.1386719
2723,-47.1875,-0.5625,7.5,0.4506836,1.562988,0.1713867,-0.07226563,-0.3632813,-0.144043
2727,-34.25,2,0.75,0.4506836,1.625,0.2519531,-0.07226563,-0.3618164,-0.1425781
2731,-20.6875,11.375,1.5625,0.4272461,1.660156,0.2094727,-0.07226563,-0.3632813,-0.1484375
2735,-8.75,19.3125,5.3125,0.3691406,1.706543,0.1171875,-0.07324219,-0.3603516,-0.1494141
2739,-1.0625,5.625,-2.0625,0.2333984,1.776367,0.001953125,-0.07226563,-0.3603516,-0.1469727
2743,7.75,-12.8125,-10.0625,0.2255859,1.718262,0.01708984,-0.07128906,-0.3603516,-0.1484375
2747,17.4375,-13.8125,-15.375,0.3535156,1.613281,0.04785156,-0.06982422,-0.359375,-0.1469727
2751,30.25,3.25,-19.25,0.4116211,1.559082,0.009765625,-0.06982422,-0.3632813,-0.1484375
2755,35.8125,20.5,-21.6875,0.3457031,1.535645,-0.03222656,-0.06884766,-0.3642578,-0.1455078
2759,36.0625,29.5625,-17.75,0.2104492,1.543457,-0.06298828,-0.06494141,-0.3657227,-0.1416016
2763,34.625,24.1875,-17.9375,0.05908203,1.523926,-0.07470703,-0.06494141,-0.3666992,-0.1386719
2767,32.125,2.8125,-20.875,-0.006347656,1.566895,-0.05517578,-0.06152344,-0.3691406,-0.1386719
2771,36.4375,-9.6875,-19.1875,0.1171875,1.477539,0.04443359,-0.05908203,-0.371582,-0.1333008
2775,41.3125,-4.5625,-20.1875,0.3149414,1.461914,0.09423828,-0.05810547,-0.3681641,-0.1318359
2779,48.3125,11.625,-26.1875,0.4311523,1.446289,0.140625,-0.05566406,-0.3730469,-0.1279297
2783,56.25,27.375,-28.3125,0.3886719,1.493164,0.1787109,-0.05322266,-0.3754883,-0.1225586
2787,62.3125,32.875,-28.9375,0.2333984,1.559082,0.2133789,-0.04980469,-0.3769531,-0.1166992
2791,62.125,20.6875,-29.125,-0.006347656,1.601563,0.1328125,-0.04833984,-0.3793945,-0.1142578
2795,64.6875,-3.0625,-36.75,-0.03710938,1.458008,0.1210938,-0.04492188,-0.3818359,-0.1074219
2799,75.6875,-7.75,-44.375,0.08251953,1.415039,0.1098633,-0.0390625,-0.3833008,-0.1020508
2803,77.125,12.375,-42.625,0.1171875,1.426758,0.07910156,-0.03662109,-0.3867188,-0.09667969
2807,64.5625,39.8125,-21.75,-0.002441406,1.458008,-0.05908203,-0.03173828,-0.3857422,-0.08984375
2812,42.9375,50.0625,1.4375,-0.1499023,1.426758,-0.1054688,-0.02929688,-0.3891602,-0.08447266
2816,23.25,27.625,10.5625,-0.3935547,1.321777,-0.08984375,-0.03076172,-0.3891602,-0.08154297
2820,13.8125,-39,2.8125,-0.5292969,1.150879,-0.128418,-0.03173828,-0.3867188,-0.07861328
2824,18.875,-100.25,-21.625,-0.1420898,0.7236328,-0.03613281,-0.03320313,-0.3891602,-0.07861328
2828,40.625,-95.75,-46.875,0.4350586,0.5991211,0.105957,-0.03076172,-0.3891602,-0.07617188
2832,47.6875,-40.75,-52.4375,0.4541016,0.7705078,0.03662109,-0.02587891,-0.3916016,-0.06787109
2836,24.125,0.8125,-30.75,0.1367188,0.9682617,-0.2475586,-0.02246094,-0.3891602,-0.06787109
2840,-28.125,0.375,1.9375,-0.08007813,1.06543,-0.4785156,-0.02099609,-0.3930664,-0.06396484
2844,-59.9375,-3.75,21.5,0.08251953,0.6459961,-0.3208008,-0.0234375,-0.3916016,-0.07080078
2848,-58.5,9.5625,16.4375,0.2607422,0.3740234,-0.1591797,-0.02246094,-0.3881836,-0.07470703
2852,-40.25,16.125,-5.0625,0.1674805,0.2070313,-0.2475586,-0.0234375,-0.3881836,-0.08007813
2856,-46.4375,1.8125,-19.625,0.125,0.3271484,-0.3862305,-0.02246094,-0.3881836,-0.08544922
2860,-49.5,-1.625,-22.125,0.2646484,0.300293,-0.3554688,-0.02099609,-0.3867188,-0.08691406
2864,-59.75,26.3125,-12,0.3110352,0.4125977,-0.3398438,-0.01855469,-0.3867188,-0.09228516
2868,-84.125,51.6875,19,0.02832031,0.4516602,-0.4438477,-0.01757813,-0.3842773,-0.09912109
2872,-95.1875,41.375,37.5,0.03955078,0.1796875,-0.2670898,-0.01757813,-0.3842773,-0.105957
2876,-71.3125,26.375,31.1875,0.2724609,-0.05273438,0.02490234,-0.02099609,-0.3803711,-0.112793
2880,-29.375,15.3125,-2.125,0.3110352,-0.07617188,0.125,-0.02099609,-0.3793945,-0.1196289
2884,7.375,3.9375,-29.125,0.109375,0.1679688,0.03662109,-0.02001953,-0.3779297,-0.1225586
2888,25.9375,-12.6875,-29.625,-0.09912109,0.4086914,-0.2089844,-0.01855469,-0.3803711,-0.1210938
2892,29.5,-28.8125,-17.875,-0.04101563,0.7080078,-0.4013672,-0.01757813,-0.3818359,-0.1181641
2896,24.1875,-21.1875,-0.9375,0.07080078,0.777832,-0.4555664,-0.01513672,-0.3833008,-0.1157227
2900,18.625,-2.5625,15.4375,0.1132813,0.7895508,-0.4667969,-0.01611328,-0.3803711,-0.112793
2904,16.6875,-1.4375,16.0625,0.03173828,0.7509766,-0.5400391,-0.01855469,-0.3833008,-0.1113281
2908,21.3125,-17.0625,6.5,0.08642578,0.7041016,-0.4824219,-0.01855469,-0.3833008,-0.1098633
2912,23.5625,-12.4375,4.4375,0.2954102,0.7119141,-0.3823242,-0.02099609,-0.3833008,-0.1088867
2916,25.1875,0.0625,-1.75,0.2568359,0.7119141,-0.4130859,-0.02099609,-0.3833008,-0.1020508
2920,21.5625,4.6875,-2.8125,0.1054688,0.8325195,-0.5170898,-0.02099609,-0.3833008,-0.1020508
2924,12.125,-0.6875,3.25,-0.006347656,0.8598633,-0.5209961,-0.02099609,-0.3833008,-0.1020508
2928,-2.4375,0.9375,18.125,0.1132813,0.7856445,-0.3974609,-0.0234375,-0.3818359,-0.1005859
2932,-13.375,20.6875,30.6875,0.2685547,0.5913086,-0.1513672,-0.0234375,-0.3818359,-0.1020508
2936,-5.375,36.6875,36.0625,0.2177734,0.3427734,-0.01318359,-0.02587891,-0.3842773,-0.1020508
2941,12.5,19.875,20.375,-0.05273438,0.3662109,-0.1938477,-0.02685547,-0.3842773,-0.1035156
2945,24.9375,-12.5,1.5,-0.06054688,0.4438477,-0.2705078,-0.02929688,-0.3842773,-0.1020508
2949,24.3125,-25,-0.6875,0.02441406,0.5019531,-0.2900391,-0.03076172,-0.3833008,-0.09912109
2953,17.6875,-14.1875,10.4375,0.08251953,0.6186523,-0.2397461,-0.03076172,-0.3842773,-0.09521484
2957,5,-0.5,31.9375,-0.04101563,0.6499023,-0.2475586,-0.02929688,-0.3842773,-0.09667969
2961,-5.375,-15.375,39.25,-0.09912109,0.6186523,-0.3129883,-0.03417969,-0.3857422,-0.09375
2965,-8.0625,-17.5625,42,0.1518555,0.4052734,-0.1513672,-0.04003906,-0.3833008,-0.09667969
2969,4.5625,-9.9375,28.875,0.2104492,0.4907227,-0.1435547,-0.04248047,-0.3833008,-0.09667969
2973,9.25,-12.5,19.5625,0.02050781,0.7080078,-0.1630859,-0.04492188,-0.3818359,-0.09521484
2977,-2,-23.5,23.6875,0.0009765625,0.8442383,-0.1513672,-0.04736328,-0.3818359,-0.09521484
2981,-13.1875,-17.5,38.5625,0.175293,0.7856445,-0.06298828,-0.04980469,-0.3818359,-0.09521484
2985,-18,5,42.625,0.3613281,0.6069336,0.06347656,-0.05664063,-0.3803711,-0.09521484
2989,-11.3125,18,36.5,0.2797852,0.6962891,-0.005371094,-0.05908203,-0.3793945,-0.09667969
2993,-5.875,8.3125,13,0.1171875,0.8984375,-0.04394531,-0.06054688,-0.3779297,-0.09765625
2997,-13.5625,-5.3125,4.3125,0.02832031,1.158691,-0.1166992,-0.06054688,-0.3793945,-0.09912109
3001,-35.125,-15.9375,11.5625,0.09765625,1.197754,-0.1054688,-0.06054688,-0.3779297,-0.1005859
3005,-50.25,-8.25,20.75,0.3339844,1.116211,-0.009277344,-0.06298828,-0.3779297,-0.1035156
3009,-49.4375,1,8.6875,0.3999023,1.116211,-0.02832031,-0.06396484,-0.3769531,-0.1088867
3013,-40.8125,0.9375,-7.625,0.2529297,1.150879,0.03271484,-0.06494141,-0.3754883,-0.1098633
3017,-52.6875,0.625,-6.375,0.190918,1.388184,0.02880859,-0.06494141,-0.3745117,-0.1166992
3021,-69.125,2.625,14,0.2333984,1.376465,0.1020508,-0.06396484,-0.3745117,-0.1196289
3025,-80.9375,-3.5625,13.5,0.3339844,1.349121,0.159668,-0.06640625,-0.3691406,-0.1289063
3029,-76.5625,-2.0625,-0.5,0.4350586,1.244141,0.2597656,-0.06494141,-0.3681641,-0.1333008
3033,-61.5,21.3125,-9.5625,0.3574219,1.279297,0.355957,-0.06640625,-0.3657227,-0.1425781
3037,-61.5,47.25,4.375,0.1674805,1.473633,0.3364258,-0.06494141,-0.3642578,-0.1469727
3041,-68.375,48.75,28.375,-0.09521484,1.566895,0.2172852,-0.06396484,-0.3618164,-0.1523438
3045,-74.25,13,36.5,-0.08789063,1.543457,0.1674805,-0.06494141,-0.359375,-0.1591797
3049,-67.5625,-15.9375,23,0.2836914,1.504395,0.2480469,-0.06884766,-0.3544922,-0.1674805
3053,-47.6875,-3.5625,8.625,0.5317383,1.46582,0.4018555,-0.06982422,-0.3520508,-0.1674805
3057,-34.8125,19.8125,8.5625,0.4541016,1.628906,0.3828125,-0.07128906,-0.3481445,-0.1728516
3061,-26.5,24.1875,11.125,0.3457031,1.644531,0.3598633,-0.06982422,-0.3466797,-0.175293
3065,-16.875,15.625,10.5625,0.3339844,1.58252,0.3364258,-0.07128906,-0.3491211,-0.1796875
3070,-2.6875,1.375,-0.375,0.3417969,1.590332,0.3056641,-0.07128906,-0.3466797,-0.1796875
3074,10.6875,-8.9375,-10.6875,0.4077148,1.609375,0.3291016,-0.06884766,-0.3481445,-0.1782227
3078,20.9375,-3.125,-12.5,0.4775391,1.632813,0.3442383,-0.06982422,-0.3491211,-0.1767578
3082,32.3125,12.25,-15.6875,0.5239258,1.687012,0.3637695,-0.06884766,-0.3491211,-0.175293
3086,47.6875,19.1875,-20.6875,0.4658203,1.776367,0.3598633,-0.06640625,-0.3505859,-0.1728516
3090,59.1875,13.375,-26.0625,0.4194336,1.842773,0.3520508,-0.06396484,-0.3520508,-0.1713867
3094,67.5,13.5,-26.4375,0.4658203,1.780273,0.4018555,-0.06152344,-0.3569336,-0.1630859
3098,85.4375,25.125,-29.5625,0.4658203,1.706543,0.3671875,-0.05566406,-0.3603516,-0.1606445
3102,101.125,38.9375,-31.9375,0.4038086,1.652344,0.2675781,-0.05566406,-0.3642578,-0.1523438
3106,109.375,49.375,-35.75,0.2875977,1.702637,0.1289063,-0.05078125,-0.3681641,-0.144043
3110,112.8125,47.25,-38.9375,0.06298828,1.570801,0.05175781,-0.04589844,-0.3730469,-0.1333008
3114,108.4375,31.625,-36.3125,-0.1499023,1.597656,-0.07861328,-0.04248047,-0.3745117,-0.1279297
3118,93.8125,13.5,-29.25,-0.1572266,1.562988,-0.1054688,-0.03759766,-0.3793945,-0.1181641
3122,78.375,12.75,-18.25,0.008789063,1.380371,-0.02832031,-0.03515625,-0.3818359,-0.1113281
3126,71.625,27.0625,-15.0625,0.06298828,1.217285,-0.05517578,-0.03417969,-0.3833008,-0.1035156
3130,68.1875,30.875,-19.25,-0.05273438,1.150879,-0.1401367,-0.03173828,-0.3857422,-0.09765625
3134,59.5625,17.3125,-28.25,-0.1499023,1.267578,-0.2089844,-0.02685547,-0.3867188,-0.09082031
3138,37.9375,3.1875,-22.0625,-0.1147461,1.150879,-0.1513672,-0.02587891,-0.3891602,-0.08691406
3142,16.5,5.1875,-6.75,-0.02197266,1.034668,-0.07080078,-0.02246094,-0.3881836,-0.08300781
3146,7.875,5.5,-9.125,0.05908203,0.8325195,0.005859375,-0.02246094,-0.3891602,-0.08300781
3150,9.375,3.3125,-19.9375,0.07470703,0.7587891,-0.005371094,-0.02246094,-0.3891602,-0.08154297
3154,-4.8125,-6.0625,-25.5,0.02050781,0.7314453,-0.06298828,-0.02099609,-0.390625,-0.08154297
3158,-12.625,-13.375,-20.5,-0.01416016,0.5761719,-0.03613281,-0.01757813,-0.3881836,-0.08300781
3162,-24.3125,-24.1875,-10.3125,0.004882813,0.6264648,-0.07080078,-0.01611328,-0.3891602,-0.08300781
3166,-36.875,-12.9375,-0.5625,0.2915039,0.5253906,0.07910156,-0.01416016,-0.3891602,-0.08691406
3170,-50,16.625,10.0625,0.3808594,0.4477539,-0.001464844,-0.01611328,-0.3867188,-0.09228516
3174,-60.375,27.75,1,0.3266602,0.2768555,-0.05517578,-0.01611328,-0.3857422,-0.09521484
3178,-48,22.25,-1.6875,0.206543,-0.02978516,-0.128418,-0.01611328,-0.3842773,-0.09912109
3182,-30.1875,8.5625,-11.875,0.2451172,0.1640625,-0.1474609,-0.01269531,-0.3842773,-0.1044922
3186,-28.4375,9.9375,-25.0625,0.3266602,0.2573242,-0.1552734,-0.01416016,-0.3833008,-0.105957
3190,-26,35.125,-26.8125,0.3769531,0.2885742,-0.1782227,-0.01171875,-0.3818359,-0.1074219
3194,-26.125,67.5625,-18.6875,0.2104492,0.3779297,-0.2705078,-0.006835938,-0.3818359,-0.112793
3199,-30.3125,71.5,-5.6875,-0.1381836,0.4165039,-0.3515625,-0.003417969,-0.3833008,-0.112793
3203,-21.9375,33.25,5.3125,-0.3432617,0.3701172,-0.3554688,-0.001953125,-0.3818359,-0.1166992
3207,-2.4375,-13.375,3.8125,-0.2773438,0.3466797,-0.3398438,-0.001953125,-0.3803711,-0.1181641
3211,16.375,-41.8125,-5.9375,-0.04492188,0.4790039,-0.3554688,-0.001953125,-0.3818359,-0.1181641
3215,23.5,-34.5,0.4375,0.206543,0.6225586,-0.3515625,-0.004394531,-0.3818359,-0.1181641
3219,15.1875,-6.4375,16,0.2758789,0.6538086,-0.2705078,-0.003417969,-0.3818359,-0.1157227
3223,13.0625,8.3125,31.25,0.1289063,0.5683594,-0.2978516,-0.006835938,-0.3842773,-0.1157227
3227,18.1875,-12.25,32,-0.07226563,0.5878906,-0.3862305,-0.006835938,-0.3833008,-0.1098633
3231,24,-50.5,20.75,-0.01416016,0.7509766,-0.4594727,-0.01269531,-0.3833008,-0.1098633
3235,16.375,-57.25,21.75,0.2875977,0.8129883,-0.3974609,-0.01416016,-0.3833008,-0.1044922
3239,7.9375,-25.875,39.75,0.5356445,0.8325195,-0.3051758,-0.02001953,-0.3833008,-0.105957
3243,-4.9375,6.0625,48.1875,0.4970703,0.777832,-0.2592773,-0.0234375,-0.3833008,-0.1044922
3247,-9.1875,17.875,48.625,0.3574219,0.7197266,-0.2436523,-0.02685547,-0.3818359,-0.105957
3251,-2.25,22.0625,49.5,0.2954102,0.4633789,-0.1743164,-0.02929688,-0.3803711,-0.105957
3255,6.5625,15.25,37.75,0.2373047,0.6616211,-0.3325195,-0.03417969,-0.3793945,-0.1074219
3259,6.5625,21.75,34.375,0.3266602,0.5800781,-0.2475586,-0.03515625,-0.3803711,-0.1074219
3263,9.125,36.4375,40.6875,0.2177734,0.6420898,-0.2744141,-0.04003906,-0.3818359,-0.1074219
3267,1.875,35.25,43.5625,0.04736328,0.6147461,-0.2592773,-0.04150391,-0.3803711,-0.1044922
3271,-0.25,28,52.5,-0.02197266,0.4750977,-0.1977539,-0.04589844,-0.3793945,-0.1074219
3275,2.125,7.3125,48.9375,-0.06054688,0.5136719,-0.2783203,-0.04980469,-0.3793945,-0.105957
3279,7,-9.5,43.125,0.05126953,0.5097656,-0.2016602,-0.05566406,-0.3779297,-0.1044922
3283,8.125,-12.9375,39.0625,0.1328125,0.5175781,-0.1513672,-0.05566406,-0.3793945,-0.1044922
3287,7.625,0.5,47.6875,0.206543,0.4829102,-0.08203125,-0.06152344,-0.3769531,-0.105957
3291,-4.75,19.4375,64.8125,0.1870117,0.5839844,-0.07080078,-0.06640625,-0.3769531,-0.1035156
3295,-3.3125,13.625,62.625,0.02441406,0.5253906,-0.04003906,-0.07226563,-0.3745117,-0.1035156
3299,2.25,-9.125,47.8125,0.07470703,0.6420898,-0.05126953,-0.07568359,-0.3745117,-0.1044922
3303,4.6875,-28.875,30.3125,0.109375,0.6186523,-0.03222656,-0.08056641,-0.3745117,-0.1020508
3307,6.625,-47.1875,15.5625,0.1987305,0.8598633,-0.05517578,-0.08300781,-0.371582,-0.1035156
3311,-0.9375,-59,6.375,0.3496094,0.9682617,-0.109375,-0.08398438,-0.3730469,-0.1005859
3315,-17.875,-53.25,7.125,0.5126953,1.17041,-0.1474609,-0.08642578,-0.3706055,-0.1005859
3319,-37.5,-39,10.4375,0.6132813,1.228516,-0.1474609,-0.08789063,-0.3706055,-0.1005859
3323,-48.3125,-16.5,15.9375,0.625,1.217285,-0.112793,-0.09033203,-0.3706055,-0.1020508
3328,-54.4375,-8.375,6.6875,0.5859375,1.337402,-0.04736328,-0.09228516,-0.3681641,-0.1074219
3332,-57.9375,-5.125,-3.0625,0.578125,1.39209,0.01367188,-0.09228516,-0.3681641,-0.112793
3336,-65.0625,7.6875,-8.3125,0.5629883,1.395996,0.001953125,-0.09228516,-0.3657227,-0.1166992
3340,-75.875,29.375,-1.875,0.4892578,1.403809,0.06738281,-0.09130859,-0.3632813,-0.1235352
3344,-87.4375,35.375,11.5,0.2451172,1.508301,0.1132813,-0.09033203,-0.3618164,-0.1289063
3348,-96.625,12.5625,24.75,0.1054688,1.477539,0.1479492,-0.09130859,-0.359375,-0.1401367
3352,-91.0625,-11.25,20.5,0.2797852,1.310547,0.2636719,-0.09375,-0.3544922,-0.1484375
3356,-75.125,-15.5,9.1875,0.4970703,1.255859,0.3291016,-0.09472656,-0.3505859,-0.1538086
3360,-56.8125,-5.9375,2,0.59375,1.364746,0.3364258,-0.09619141,-0.3481445,-0.1606445
3364,-46.5,-8.9375,-9.25,0.5512695,1.523926,0.2441406,-0.09716797,-0.3457031,-0.1616211
3368,-39.1875,-13.9375,-17.125,0.5976563,1.52002,0.2402344,-0.09472656,-0.3457031,-0.1660156
3372,-32,-5.25,-16.375,0.6831055,1.527832,0.2519531,-0.09619141,-0.3442383,-0.1699219
3376,-27.25,10.4375,-13,0.675293,1.547363,0.2211914,-0.09472656,-0.3432617,-0.168457
3380,-20,19.0625,-18.375,0.5820313,1.489258,0.2021484,-0.09375,-0.3408203,-0.1728516
3384,-3.1875,21.875,-26.1875,0.4658203,1.46582,0.1904297,-0.08886719,-0.3417969,-0.1738281
3388,8.9375,15.8125,-33.3125,0.2915039,1.469727,0.1713867,-0.08789063,-0.3417969,-0.175293
3392,16.125,4.9375,-32.3125,0.2104492,1.555176,0.1098633,-0.08398438,-0.3457031,-0.1738281
3396,16.5,-5.5,-25,0.2138672,1.578613,0.08642578,-0.08203125,-0.3466797,-0.1728516
3400,18,-6.875,-18.625,0.2954102,1.566895,0.105957,-0.07958984,-0.3457031,-0.1713867
3404,22,-4.625,-15.8125,0.2954102,1.547363,0.144043,-0.07958984,-0.3491211,-0.1699219
3408,27.6875,-7.125,-13.625,0.2685547,1.578613,0.1674805,-0.078125,-0.3505859,-0.168457
3412,35.25,-18.8125,-19.5625,0.3769531,1.664063,0.2519531,-0.07714844,-0.3530273,-0.1645508
3416,49.3125,-16.375,-21.375,0.559082,1.667969,0.409668,-0.07714844,-0.3544922,-0.1630859
3420,62.1875,1.4375,-22.9375,0.6210938,1.687012,0.4365234,-0.07470703,-0.3579102,-0.1577148
3424,76,16.1875,-30.6875,0.559082,1.652344,0.3979492,-0.07128906,-0.3603516,-0.1523438
3428,83.0625,24.375,-35.5,0.3886719,1.69873,0.3095703,-0.06738281,-0.3632813,-0.144043
3432,87.625,16.5,-39.0625,0.159668,1.613281,0.2788086,-0.06396484,-0.3657227,-0.1401367
3436,91,14.625,-41.75,0.2333984,1.500488,0.2636719,-0.06152344,-0.3691406,-0.1303711
3440,98.25,49.75,-29.625,0.3691406,1.372559,0.2172852,-0.05664063,-0.3706055,-0.125
3444,88.0625,78.75,-23.125,0.2294922,1.458008,0.05175781,-0.05078125,-0.3745117,-0.1196289
3448,72.875,75.25,-22.6875,-0.08398438,1.36084,-0.03222656,-0.04980469,-0.3779297,-0.1113281
3452,56.0625,35.5,-17.875,-0.4248047,1.213379,-0.128418,-0.04736328,-0.3793945,-0.105957
3457,35.8125,-28.375,-27.6875,-0.3901367,1.09668,-0.1860352,-0.04248047,-0.3803711,-0.1035156
3461,26.625,-52.3125,-30.25,-0.01806641,0.7158203,-0.01660156,-0.04003906,-0.3818359,-0.09765625
3465,28.5625,-35.3125,-30.4375,0.2026367,0.5800781,0.02490234,-0.04003906,-0.3857422,-0.09765625
3469,23,-17.125,-41.0625,0.1948242,0.7314453,-0.109375,-0.03759766,-0.3833008,-0.09082031
3473,5,-3.6875,-36.0625,0.06298828,0.5878906,-0.2055664,-0.03320313,-0.3867188,-0.09228516
3477,-28.125,8.125,-7.5625,-0.002441406,0.6577148,-0.34375,-0.03076172,-0.3842773,-0.09375
3481,-56.1875,10.0625,5,0.0009765625,0.4985352,-0.309082,-0.03320313,-0.3857422,-0.09667969
3485,-67.3125,8.75,17.375,-0.002441406,0.4125977,-0.359375,-0.03076172,-0.3818359,-0.1020508
3489,-76.4375,5,13.3125,0.1054688,0.237793,-0.2744141,-0.03173828,-0.3818359,-0.1074219
3493,-74.9375,-1.6875,8.9375,0.05908203,-0.02197266,-0.0859375,-0.03320313,-0.3793945,-0.1166992
3497,-69.625,-17.3125,12.6875,-0.02978516,-0.01806641,-0.01660156,-0.03515625,-0.3779297,-0.1210938
3501,-62.8125,-42.5,8.6875,0.08642578,0.1176758,-0.02832031,-0.03662109,-0.3745117,-0.125
3505,-53.6875,-47.125,9.25,0.3535156,0.140625,-0.01660156,-0.0390625,-0.371582,-0.1318359
3509,-45.5625,-19.125,12.5625,0.5898438,0.315918,0.05957031,-0.0390625,-0.3706055,-0.1347656
3513,-34.5625,16.375,12.125,0.4311523,0.2807617,0.02880859,-0.04003906,-0.3691406,-0.1386719
3517,-16.5625,16.5,7.3125,0.04736328,0.4013672,-0.1513672,-0.04003906,-0.3681641,-0.1416016
3521,2.875,-21.0625,-3.4375,-0.1186523,0.3935547,-0.2016602,-0.04150391,-0.3681641,-0.1416016
3525,25.0625,-41.5,-4.875,0.02832031,0.5449219,-0.2016602,-0.04248047,-0.3681641,-0.1416016
3529,25.8125,-41.8125,3.75,0.08642578,0.793457,-0.2055664,-0.04248047,-0.3706055,-0.137207
3533,23.25,-36.5,20.125,0.1054688,0.7080078,-0.2128906,-0.04589844,-0.371582,-0.1333008
3537,22.5625,-36,27.125,0.1367188,0.7158203,-0.3168945,-0.04980469,-0.3706055,-0.1333008
3541,28.5,-47.25,20.875,0.190918,0.6845703,-0.4594727,-0.05078125,-0.371582,-0.1303711
3545,30.6875,-56.1875,6.8125,0.3149414,0.7705078,-0.4707031,-0.05566406,-0.3730469,-0.1264648
3549,29.1875,-47.875,8,0.4155273,0.8012695,-0.4013672,-0.05664063,-0.3730469,-0.1210938
3553,20.5,-22.8125,13.125,0.5239258,0.7431641,-0.2744141,-0.05908203,-0.371582,-0.1196289
3557,15.9375,16.625,28.8125,0.5473633,0.5839844,-0.112793,-0.06152344,-0.3745117,-0.1181641
3561,20.1875,47.25,38.3125,0.4311523,0.3779297,0.005859375,-0.06298828,-0.371582,-0.1181641
3565,33.3125,37.3125,22.1875,0.109375,0.3427734,-0.09375,-0.06396484,-0.3730469,-0.1166992
3569,44.75,4.5625,10.5625,-0.09130859,0.2148438,-0.1323242,-0.06494141,-0.3730469,-0.1113281
3573,58.6875,-21.625,13.3125,-0.01416016,0.3623047,-0.1938477,-0.06494141,-0.3730469,-0.1088867
3577,51.375,-25.75,16.9375,0.1484375,0.5371094,-0.2324219,-0.06884766,-0.3745117,-0.1020508
3581,36.25,-3.6875,39.1875,0.2490234,0.5058594,-0.2207031,-0.06982422,-0.3754883,-0.09912109
3586,22.4375,10.8125,48.8125,0.2177734,0.4360352,-0.2939453,-0.07324219,-0.3745117,-0.09521484
3590,27,20.75,54.25,0.2529297,0.3466797,-0.2055664,-0.078125,-0.3745117,-0.09375
3594,36.625,21.4375,46.75,0.09375,0.4321289,-0.2167969,-0.08300781,-0.3745117,-0.09082031
3598,36.8125,8.5625,48.75,0.02832031,0.6069336,-0.2436523,-0.08544922,-0.3745117,-0.08984375
3602,22.375,-3.0625,54.9375,0.1015625,0.6538086,-0.2822266,-0.09130859,-0.3745117,-0.08691406
3606,4.5,-5.625,51,0.3886719,0.6884766,-0.2670898,-0.09619141,-0.371582,-0.08447266
3610,1.5,7.625,42,0.4775391,0.6381836,-0.128418,-0.09863281,-0.3706055,-0.08447266
3614,6.875,11.5625,28.1875,0.3574219,0.8481445,-0.2246094,-0.1030273,-0.3706055,-0.08544922
3618,0.1875,9.4375,26.6875,0.3574219,0.9375,-0.2324219,-0.1044922,-0.3681641,-0.08447266
3622,-24,5.5625,26.875,0.5200195,1.034668,-0.2783203,-0.1069336,-0.3681641,-0.08544922
3626,-39.4375,3.8125,8.625,0.625,0.9023438,-0.2285156,-0.109375,-0.3666992,-0.08837891
3630,-35.1875,7.0625,-6.375,0.5239258,1.124023,-0.1166992,-0.1079102,-0.3681641,-0.09375
3634,-46.25,11.4375,-2.3125,0.3808594,1.267578,-0.07080078,-0.1079102,-0.3666992,-0.09375
3638,-53.625,13.25,3.4375,0.4194336,1.20166,-0.005371094,-0.109375,-0.3642578,-0.1005859
3642,-58.125,10.1875,-13.5625,0.4931641,1.197754,-0.01318359,-0.1069336,-0.3657227,-0.105957
3646,-64.4375,9.5,-21.0625,0.3886719,1.310547,-0.112793,-0.1079102,-0.3642578,-0.1098633
3650,-70.0625,6.0625,-15.0625,0.2177734,1.291016,-0.02441406,-0.1044922,-0.3618164,-0.1157227
3654,-78.8125,-7.4375,-1,0.1674805,1.450195,-0.005371094,-0.1054688,-0.3603516,-0.1235352
3658,-85.5625,-24.0625,0.6875,0.3999023,1.364746,0.07519531,-0.1044922,-0.359375,-0.1289063
3662,-84.75,-18.875,-7.5625,0.7333984,1.353027,0.1518555,-0.1044922,-0.3544922,-0.1347656
3666,-79.375,3.375,-15,0.7915039,1.384277,0.1748047,-0.1054688,-0.3530273,-0.1416016
3670,-73.0625,23.5625,-16.625,0.6328125,1.504395,0.1982422,-0.1030273,-0.3520508,-0.1455078
3674,-72.375,31.125,-8.5,0.4853516,1.601563,0.2329102,-0.1010742,-0.3466797,-0.1547852
3678,-69.1875,28,2.6875,0.3496094,1.632813,0.2749023,-0.09960938,-0.3466797,-0.1616211
3682,-57,12.375,7.875,0.3188477,1.543457,0.2788086,-0.09960938,-0.3442383,-0.1674805
3686,-38.8125,-10,-6.6875,0.4116211,1.516113,0.3095703,-0.09960938,-0.3417969,-0.1728516
3690,-20.4375,-17.375,-13.5,0.5512695,1.597656,0.3481445,-0.09863281,-0.3378906,-0.1728516
3694,-5.5625,-8.125,-11.3125,0.5859375,1.609375,0.3598633,-0.09863281,-0.3408203,-0.1728516
3698,3.375,1,-7,0.578125,1.609375,0.3017578,-0.09716797,-0.3393555,-0.1728516
3702,10.125,1.625,-6.5,0.4506836,1.586426,0.2133789,-0.09863281,-0.3393555,-0.1728516
3706,14.8125,-3.8125,-7.75,0.4077148,1.55127,0.1787109,-0.09619141,-0.3417969,-0.1738281
3710,18.5625,-3.6875,-6.375,0.4233398,1.481445,0.2021484,-0.09716797,-0.3417969,-0.1699219
3715,25.375,-2.9375,-6.1875,0.4389648,1.438477,0.2133789,-0.09619141,-0.3417969,-0.1674805
3719,36.125,-7.5625,-15.25,0.4814453,1.438477,0.2133789,-0.09472656,-0.3457031,-0.168457
3723,48.5625,-4.8125,-24.625,0.5708008,1.461914,0.2675781,-0.09472656,-0.3466797,-0.1630859
3727,58.1875,10.3125,-24.25,0.4853516,1.613281,0.2558594,-0.09228516,-0.3491211,-0.1577148
3731,60.5,6.75,-19.5,0.3110352,1.745605,0.2290039,-0.09130859,-0.3520508,-0.1547852
3735,59.4375,-12.125,-13.625,0.3110352,1.757324,0.2250977,-0.08789063,-0.3554688,-0.1508789
3739,65.25,-23.5625,-16.8125,0.4970703,1.574707,0.2636719,-0.08642578,-0.3579102,-0.144043
3743,76.625,-15.25,-29.6875,0.675293,1.527832,0.2519531,-0.08789063,-0.359375,-0.1401367
3747,86.6875,3.875,-45.5,0.659668,1.547363,0.1748047,-0.08398438,-0.3632813,-0.1333008
3751,87.6875,16.4375,-54.8125,0.4619141,1.555176,0.05175781,-0.08056641,-0.3691406,-0.1235352
3755,77.625,19.25,-54.875,0.2646484,1.59375,-0.03222656,-0.07470703,-0.3706055,-0.1196289
3759,59.6875,10.25,-51.5,0.05517578,1.555176,-0.109375,-0.06982422,-0.3730469,-0.112793
3763,40.75,-0.875,-39.625,0.03564453,1.349121,-0.109375,-0.06640625,-0.3754883,-0.1074219
3767,24.6875,-10.6875,-43.125,0.08251953,1.174316,-0.06298828,-0.06152344,-0.3769531,-0.105957
3771,31.125,-14.875,-54.625,0.1132813,0.7817383,0.1098633,-0.05908203,-0.3793945,-0.1035156
3775,36.3125,-46.6875,-76.75,-0.1806641,0.7587891,-0.01318359,-0.05322266,-0.3803711,-0.09912109
3779,26.1875,-88,-78.5,-0.230957,0.6655273,-0.04394531,-0.04833984,-0.3833008,-0.09521484
3783,6.625,-107.6875,-55.4375,-0.04492188,0.5449219,-0.01318359,-0.04248047,-0.3833008,-0.09082031
3787,-6.0625,-94.6875,-31.5625,0.1484375,0.5097656,-0.01660156,-0.04150391,-0.3857422,-0.08984375
3791,-13.5,-65.5,-25.375,0.2758789,0.3818359,0.02880859,-0.04248047,-0.3867188,-0.09082031
3795,-16.9375,-38,-23.1875,0.2294922,0.2226563,0.01708984,-0.04003906,-0.3857422,-0.09082031
3799,-16.125,-21.75,-9.25,-0.01025391,0.1992188,-0.1206055,-0.0390625,-0.3842773,-0.09228516
3803,-24.0625,-42.5625,-5.375,-0.2583008,0.5527344,-0.4785156,-0.0390625,-0.3842773,-0.09375
3807,-45.3125,-51.5,17.0625,0.03955078,0.4243164,-0.5170898,-0.0390625,-0.3842773,-0.09667969
3811,-57.75,-10.5,47.0625,0.5473633,0.1953125,-0.4360352,-0.04248047,-0.3818359,-0.1020508
3815,-60.625,48.8125,54.9375,0.5629883,0.1523438,-0.3325195,-0.04492188,-0.3803711,-0.1044922
3819,-56.1875,43.4375,51.25,-0.08789063,0.1367188,-0.1821289,-0.04980469,-0.3779297,-0.1098633
3823,-36.1875,-13,29.5,-0.04101563,-0.1269531,0.2094727,-0.05322266,-0.3745117,-0.1181641
3827,-3.875,-14.5625,9.0625,0.2875977,0.1757813,0.3867188,-0.05419922,-0.3730469,-0.1196289
3831,23.6875,-7,-1.5,0.1713867,0.3271484,0.2368164,-0.05810547,-0.3745117,-0.1166992
3835,37.5,-8.9375,1.5625,0.02441406,0.4907227,-0.04736328,-0.05566406,-0.3754883,-0.1142578
3839,40.9375,-12.9375,1.6875,-0.01806641,0.7353516,-0.2705078,-0.05566406,-0.3754883,-0.1088867
3844,38.9375,-10.4375,13.75,-0.04101563,0.6147461,-0.3359375,-0.05664063,-0.3769531,-0.1074219
3848,40.4375,-18.5625,14.625,-0.1069336,0.7548828,-0.5668945,-0.05810547,-0.3754883,-0.1035156
3852,38.8125,-30.25,17.3125,-0.02978516,0.7626953,-0.6552734,-0.05908203,-0.3779297,-0.09912109
3856,25.6875,-29.75,21.75,0.1518555,0.956543,-0.6860352,-0.06396484,-0.3769531,-0.09667969
3860,13.375,-18.8125,22.625,0.3110352,0.8867188,-0.6171875,-0.06494141,-0.3793945,-0.09375
3864,2.375,-3.25,17.75,0.4155273,0.824707,-0.5361328,-0.06738281,-0.3793945,-0.09082031
3868,-4.3125,15.1875,10.125,0.4775391,0.7739258,-0.4130859,-0.06982422,-0.3793945,-0.09082031
3872,2.125,35.75,7.25,0.4736328,0.4868164,-0.2207031,-0.06982422,-0.3779297,-0.09375
3876,12.5,41.5625,1,0.2255859,0.5058594,-0.2089844,-0.06884766,-0.3779297,-0.09228516
3880,23.5,34.625,4.75,0.1445313,0.4282227,-0.112793,-0.06738281,-0.3803711,-0.09228516
3884,25.5,28.5,4.125,0.1791992,0.4321289,-0.04003906,-0.06884766,-0.3793945,-0.09521484
3888,31,26.4375,5.5625,0.1445313,0.2612305,0.03662109,-0.06738281,-0.3793945,-0.08837891
3892,49.125,28.4375,18.75,0.06689453,0.05517578,0.06738281,-0.06884766,-0.3793945,-0.08837891
3896,73.4375,27.8125,28.125,-0.05273438,0.3818359,-0.1054688,-0.06982422,-0.3793945,-0.08154297
3900,75,8.8125,39.875,-0.1923828,0.4165039,-0.1860352,-0.06982422,-0.3803711,-0.07617188
3904,62.625,-14.6875,54.25,-0.1303711,0.5605469,-0.2822266,-0.07568359,-0.3818359,-0.06787109
3908,63.5,-20.1875,65.8125,0.1484375,0.284668,-0.1513672,-0.07958984,-0.3818359,-0.0625
3912,59.9375,-16.125,58.8125,0.2607422,0.5644531,-0.2861328,-0.08642578,-0.3803711,-0.05859375
3916,53.6875,-8.75,58.5625,0.3266602,0.6499023,-0.2670898,-0.09130859,-0.3793945,-0.05273438
3920,38.1875,-7.0625,50.125,0.3691406,0.6772461,-0.2744141,-0.09716797,-0.3769531,-0.04638672
3924,31.3125,-0.875,44.125,0.4736328,0.6069336,-0.1899414,-0.1020508,-0.3754883,-0.04345703
3928,32.75,6.9375,33.8125,0.4194336,0.6884766,-0.1401367,-0.1044922,-0.3745117,-0.04199219
3932,26,9.4375,31.625,0.2568359,0.8984375,-0.2324219,-0.1079102,-0.3745117,-0.03808594
3936,11.6875,-0.6875,29,0.2138672,1.01123,-0.2783203,-0.1103516,-0.3730469,-0.03955078
3940,-2.4375,-4.25,31.9375,0.3032227,0.9838867,-0.2670898,-0.1137695,-0.371582,-0.03808594
3944,-7.125,-1.5625,31.5,0.3378906,1.131836,-0.309082,-0.1162109,-0.371582,-0.03662109
3948,-17.0625,6,28.125,0.4467773,1.135742,-0.2783203,-0.1201172,-0.3691406,-0.03808594
3952,-30.5625,17.125,27.5625,0.4619141,1.232422,-0.359375,-0.1210938,-0.3706055,-0.03955078
3956,-38,27.8125,23.875,0.4931641,1.182129,-0.3476563,-0.1245117,-0.3666992,-0.04492188
3960,-49.5,33.25,16,0.4194336,1.306641,-0.3398438,-0.1235352,-0.3666992,-0.04736328
3964,-52.6875,43.8125,25.25,0.3769531,1.380371,-0.2246094,-0.1259766,-0.3666992,-0.05175781
3968,-60.25,38.5625,35.375,0.3305664,1.454102,-0.2246094,-0.1293945,-0.3632813,-0.06103516
3973,-64.3125,26.375,34.8125,0.4736328,1.333496,-0.1938477,-0.1303711,-0.3618164,-0.06396484
3977,-59.625,14.5,16.5625,0.609375,1.271484,-0.1899414,-0.1318359,-0.359375,-0.07177734
3981,-56.4375,8,1.625,0.7138672,1.364746,-0.1054688,-0.1342773,-0.359375,-0.07861328
3985,-52.5625,18,3.4375,0.7836914,1.52002,-0.04736328,-0.1342773,-0.359375,-0.08154297
3989,-52.8125,30.0625,8.8125,0.8032227,1.559082,-0.09375,-0.1328125,-0.359375,-0.08837891
3993,-49.375,29.75,3.0625,0.8496094,1.55127,-0.1743164,-0.1342773,-0.3554688,-0.09375
3997,-41.9375,28.0625,-15.4375,0.9155273,1.500488,-0.2055664,-0.1342773,-0.3554688,-0.09765625
4001,-31.25,35.1875,-23.75,0.8222656,1.566895,-0.2285156,-0.1303711,-0.3544922,-0.1044922
4005,-24.0625,34.4375,-26.5625,0.6674805,1.562988,-0.2285156,-0.1293945,-0.3554688,-0.1074219
4009,-18.875,22.9375,-31.25,0.6171875,1.55127,-0.2207031,-0.1245117,-0.3544922,-0.1074219
4013,-12.375,19.1875,-34.0625,0.6557617,1.539551,-0.1977539,-0.1210938,-0.3554688,-0.112793
4017,-4.125,23.9375,-36.3125,0.578125,1.508301,-0.1708984,-0.1176758,-0.3579102,-0.1157227
4021,-0.25,27.875,-25.9375,0.4194336,1.590332,-0.1821289,-0.1137695,-0.359375,-0.112793
4025,0.0625,22.5625,-16.125,0.3847656,1.512207,-0.1552734,-0.112793,-0.3603516,-0.1142578
4029,4.875,5.125,-16.5,0.3227539,1.500488,-0.1323242,-0.109375,-0.3603516,-0.1166992
4033,15.25,-22,-24.5625,0.3227539,1.508301,-0.07470703,-0.1103516,-0.3603516,-0.112793
4037,25.125,-47,-28.6875,0.4389648,1.667969,-0.03613281,-0.1079102,-0.3618164,-0.1113281
4041,27.5625,-56.5625,-28.8125,0.7490234,1.714355,0.08251953,-0.1054688,-0.3632813,-0.1074219
4045,38.0625,-39.25,-35.625,1.070313,1.559082,0.1943359,-0.1069336,-0.3666992,-0.1035156
4049,58.5,0.625,-43.375,1.047363,1.450195,0.1479492,-0.1044922,-0.3666992,-0.09912109
4053,82.1875,19,-59.4375,0.7641602,1.353027,0.06738281,-0.09863281,-0.3691406,-0.09082031
4057,94.75,15.4375,-80.8125,0.5200195,1.438477,-0.01318359,-0.09375,-0.3730469,-0.08984375
4061,117.75,28.5625,-79.125,0.4389648,1.485352,0.001953125,-0.08398438,-0.3779297,-0.07763672
4065,106.375,47.0625,-48.3125,0.140625,1.72998,-0.1552734,-0.07958984,-0.3818359,-0.06787109
4069,94.25,54.3125,-19.875,0.01269531,1.586426,-0.2089844,-0.07568359,-0.3818359,-0.05957031
4073,88.6875,34.125,-20.9375,-0.4091797,1.353027,-0.2514648,-0.07128906,-0.3842773,-0.05419922
4077,86.4375,-34,-31.75,-0.6923828,1.174316,-0.2128906,-0.06982422,-0.3867188,-0.04492188
4081,73.8125,-89.0625,-30.375,-0.3549805,1.081055,-0.1435547,-0.06640625,-0.3867188,-0.03955078
4085,55.375,-79.6875,-16.5,0.2758789,1.034668,0.01708984,-0.06640625,-0.3881836,-0.02978516
4089,36.1875,-1,10.6875,0.7021484,0.9140625,0.1518555,-0.06396484,-0.3881836,-0.02294922
4093,31.4375,53.0625,9.1875,0.4038086,0.6577148,0.105957,-0.06640625,-0.3881836,-0.02148438
4097,30.5,26.5625,-14.1875,-0.2700195,0.5991211,-0.1669922,-0.06640625,-0.3867188,-0.02050781
4102,26.9375,-32.9375,-14.8125,-0.3666992,0.6225586,-0.2670898,-0.06396484,-0.3867188,-0.01904297
4106,8.5625,-84.375,-22.75,0.004882813,0.7119141,-0.4169922,-0.06396484,-0.3881836,-0.01464844
4110,-10.25,-51.3125,-16.875,0.6479492,0.7119141,-0.4555664,-0.05908203,-0.3867188,-0.01464844
4114,-30.8125,23.5,-14.375,0.6210938,0.7470703,-0.5283203,-0.05810547,-0.3867188,-0.01464844
4118,-37.3125,66.8125,-6.625,0.1831055,0.5332031,-0.644043,-0.05810547,-0.3891602,-0.01757813
4122,-57.125,39.75,-7.5625,-0.4521484,0.6499023,-0.9555664,-0.05664063,-0.3881836,-0.02441406
4126,-84.125,-30.0625,3.75,-0.6884766,0.6342773,-1.278809,-0.05664063,-0.3867188,-0.02978516
4130,-125.375,-73.4375,19.5,-0.1342773,0.9101563,-1.244141,-0.05810547,-0.3867188,-0.03662109
4134,-169.5625,-8.8125,67.3125,0.578125,0.09423828,-0.394043,-0.06152344,-0.3867188,-0.04736328
4138,-165.125,40.75,73.3125,0.5200195,-0.5927734,0.5214844,-0.06494141,-0.3842773,-0.07080078
4142,-97.9375,18.4375,38.75,0.4775391,-0.9697266,1.159668,-0.07226563,-0.3833008,-0.07763672
4146,-10.375,14.1875,-20.9375,0.7490234,-0.7172852,1.056152,-0.07470703,-0.3779297,-0.08544922
4150,44.125,35.5,-61.25,0.2138672,0.121582,0.1098633,-0.06884766,-0.3818359,-0.08447266
4154,46.625,17,-29.0625,-0.6342773,0.972168,-0.7553711,-0.06494141,-0.3818359,-0.07861328
4158,13.25,-18.875,13.25,-0.3745117,1.015137,-0.8364258,-0.06054688,-0.3818359,-0.07861328
4162,-1.75,-33.25,21.5,-0.01416016,0.8598633,-0.8325195,-0.06494141,-0.3818359,-0.07470703
4166,9.0625,-28.125,24.375,0.1987305,0.6616211,-0.6669922,-0.06640625,-0.3818359,-0.07617188
4170,12,-17.375,22.5,0.3227539,0.7314453,-0.5361328,-0.06982422,-0.3833008,-0.07470703
4174,19.6875,-4.9375,29.8125,0.2646484,0.6420898,-0.5322266,-0.07226563,-0.3793945,-0.07177734
4178,16.4375,-18.1875,26.75,0.190918,0.8286133,-0.6860352,-0.07568359,-0.3803711,-0.07177734
4182,5.875,-22.375,28.5,0.3925781,0.8364258,-0.6362305,-0.07714844,-0.3803711,-0.06933594
4186,0.3125,-13.75,24,0.4892578,0.7314453,-0.5400391,-0.08056641,-0.3803711,-0.06787109
4190,2.5625,-4.9375,16.9375,0.4775391,0.6538086,-0.4477539,-0.08203125,-0.3793945,-0.06787109
4194,5,2.0625,8,0.5239258,0.6499023,-0.3359375,-0.08300781,-0.3803711,-0.06933594
4198,11.875,20.5,8.1875,0.5239258,0.5136719,-0.1782227,-0.08544922,-0.3779297,-0.06640625
4202,22.9375,30,4.0625,0.3925781,0.4438477,-0.1552734,-0.08398438,-0.3779297,-0.06787109
4206,29.4375,29.1875,3.1875,0.2490234,0.4868164,-0.1591797,-0.08398438,-0.3769531,-0.06640625
4210,35.625,15.625,-2.1875,0.1831055,0.4052734,-0.08203125,-0.08544922,-0.3779297,-0.0625
4214,39.4375,8.25,-1.375,0.1791992,0.4477539,-0.06689453,-0.08398438,-0.3779297,-0.05957031
4218,39.9375,-7.625,-11.3125,0.1015625,0.5371094,-0.1977539,-0.08203125,-0.3803711,-0.05712891
4222,30.9375,-21.625,-17.875,0.08251953,0.5097656,-0.2436523,-0.08203125,-0.3803711,-0.05175781
4226,36.125,-20.25,2.875,0.1210938,0.4672852,-0.2089844,-0.08203125,-0.3803711,-0.04882813
4231,30.125,-11.9375,9.0625,0.2294922,0.4672852,-0.1513672,-0.08300781,-0.3818359,-0.04736328
4235,22.125,-1.375,9.875,0.2568359,0.4829102,-0.1206055,-0.08398438,-0.3803711,-0.04052734
4239,16.0625,-1.3125,0.25,0.1791992,0.5952148,-0.2285156,-0.08398438,-0.3803711,-0.04199219
4243,22.5625,-5.9375,9.0625,0.04736328,0.3271484,-0.2324219,-0.08300781,-0.3803711,-0.03955078
4247,27.25,-14.5625,14.625,0.02050781,0.6962891,-0.3706055,-0.08789063,-0.3803711,-0.03662109
4251,14.4375,-13.5625,20.4375,0.2216797,0.793457,-0.378418,-0.08789063,-0.3818359,-0.03515625
4255,0.875,0.875,21.4375,0.3730469,0.7895508,-0.3862305,-0.08886719,-0.3818359,-0.03369141
4259,-3.625,23.5,13.375,0.3535156,0.890625,-0.3286133,-0.09130859,-0.3803711,-0.03515625
4263,-12.5625,33.1875,19.9375,0.04345703,1.038574,-0.3745117,-0.09130859,-0.3818359,-0.03369141
4267,-26.75,14,28.1875,-0.04492188,1.045898,-0.4248047,-0.09375,-0.3793945,-0.03808594
4271,-38.3125,4.8125,20.8125,0.3339844,0.9023438,-0.3051758,-0.09716797,-0.3779297,-0.04199219
4275,-33.4375,32.125,22.25,0.4389648,1.003418,-0.2016602,-0.09863281,-0.3793945,-0.04345703
4279,-34.0625,41.875,19.8125,0.2177734,1.135742,-0.1977539,-0.1010742,-0.3769531,-0.04882813
4283,-38.9375,26.0625,23.75,0.03173828,1.388184,-0.309082,-0.1030273,-0.3754883,-0.05419922
4287,-55.4375,4.4375,26.8125,0.2216797,1.353027,-0.2900391,-0.1044922,-0.3745117,-0.05566406
4291,-67.875,-3.1875,20.375,0.5395508,1.240234,-0.2783203,-0.1044922,-0.3730469,-0.0625
4295,-68.625,10,4.1875,0.7915039,1.178223,-0.1591797,-0.1054688,-0.3730469,-0.06787109
4299,-63.8125,34.4375,-6.8125,0.7875977,1.232422,-0.04003906,-0.1069336,-0.3706055,-0.07177734
4303,-64.5625,52.6875,-3.5625,0.5629883,1.399902,-0.08203125,-0.1054688,-0.3706055,-0.08154297
4307,-72.6875,44.875,1.25,0.3808594,1.399902,-0.109375,-0.1054688,-0.3691406,-0.08837891
4311,-72.125,17.875,-5.6875,0.3959961,1.294922,-0.09375,-0.1030273,-0.3691406,-0.09667969
4315,-57.375,-0.25,-27.5625,0.5048828,1.36084,-0.001464844,-0.1030273,-0.3666992,-0.1020508
4319,-49.9375,8.1875,-28.875,0.5551758,1.574707,0.04443359,-0.09863281,-0.3666992,-0.105957
4323,-47.75,28.75,-14.0625,0.5087891,1.58252,0.05175781,-0.09960938,-0.3657227,-0.112793
4327,-46.625,33.5,-3.6875,0.3769531,1.58252,0.001953125,-0.09619141,-0.3666992,-0.1181641
4331,-42,10.375,-8.1875,0.3305664,1.601563,-0.02441406,-0.09619141,-0.3657227,-0.1210938
4335,-29.0625,-7.3125,-14.5,0.4428711,1.597656,0.04052734,-0.09472656,-0.3642578,-0.1235352
4339,-18.375,-7.75,-11.3125,0.527832,1.687012,0.05566406,-0.09130859,-0.3632813,-0.1264648
4343,-10.25,9.6875,-2.5625,0.6479492,1.625,0.05957031,-0.09228516,-0.3632813,-0.1279297
4347,1.9375,21.4375,-1.0625,0.609375,1.625,-0.01660156,-0.09228516,-0.3618164,-0.1279297
4351,13.5,11.25,-11.25,0.4892578,1.601563,-0.05126953,-0.09130859,-0.3642578,-0.1264648
4355,20.8125,-5.5,-16.6875,0.4272461,1.597656,-0.04394531,-0.08886719,-0.3632813,-0.125
4360,29.9375,-22.3125,-19.6875,0.4233398,1.547363,0.005859375,-0.08886719,-0.3657227,-0.1235352
4364,42.4375,-26.625,-23.5,0.5317383,1.500488,0.09423828,-0.08642578,-0.3681641,-0.1225586
4368,53,-17.8125,-26.75,0.5708008,1.539551,0.09033203,-0.08642578,-0.3691406,-0.1142578
4372,60.5,-6.3125,-25.8125,0.5356445,1.578613,0.07128906,-0.08544922,-0.3691406,-0.1113281
4376,71.8125,-16.3125,-32.625,0.4311523,1.578613,0.09814453,-0.08203125,-0.3730469,-0.105957
4380,84.625,-36.125,-45.3125,0.3999023,1.570801,0.1210938,-0.07958984,-0.3754883,-0.09667969
4384,101.75,-48.375,-61.8125,0.4311523,1.609375,0.09814453,-0.07568359,-0.3779297,-0.09228516
4388,107.6875,-56.1875,-77.625,0.2915039,1.547363,-0.04003906,-0.07128906,-0.3833008,-0.07861328
4392,110.9375,-52.5,-78.5625,0.2685547,1.559082,-0.1938477,-0.06298828,-0.3857422,-0.06787109
4396,84.125,-33.5,-62.5,0.1791992,1.65625,-0.3286133,-0.06152344,-0.3867188,-0.06103516
4400,44.75,-5.625,-29.6875,0.1367188,1.578613,-0.3666992,-0.05566406,-0.3881836,-0.05175781
4404,29.5625,25.0625,-14.375,0.175293,1.092773,-0.1938477,-0.05322266,-0.3891602,-0.05029297
4408,28.375,29.4375,-35.6875,0.004882813,1.026855,-0.2363281,-0.05078125,-0.3881836,-0.04638672
4412,25.5625,14.0625,-40.875,-0.1650391,0.8364258,-0.1860352,-0.04492188,-0.390625,-0.04345703
4416,13.1875,-4,-27.4375,-0.2426758,0.8632813,-0.2207031,-0.04394531,-0.390625,-0.04345703
4420,-6.4375,-19.5,-5.375,-0.2773438,0.9643555,-0.2514648,-0.04003906,-0.3891602,-0.04199219
4424,-26.875,-41.625,8.375,-0.1806641,0.6186523,-0.2397461,-0.04150391,-0.390625,-0.04345703
4428,-23.75,-55.4375,-0.3125,0.03955078,0.4013672,-0.2246094,-0.04248047,-0.390625,-0.04492188
4432,-22.125,-54.75,-13.875,0.1289063,0.5410156,-0.2900391,-0.04394531,-0.390625,-0.04638672
4436,-28.6875,-35.0625,-4.25,0.175293,0.5913086,-0.2939453,-0.04150391,-0.3916016,-0.04882813
4440,-44.6875,-13.5625,11.375,0.1557617,0.6772461,-0.3862305,-0.04150391,-0.390625,-0.05029297
4444,-65,2,23.3125,0.190918,0.3740234,-0.3208008,-0.04248047,-0.3891602,-0.05419922
4448,-65.5,10.9375,16.375,0.1557617,0.3857422,-0.3168945,-0.04394531,-0.3867188,-0.06103516
4452,-77.375,3.375,14.125,0.05517578,0.3232422,-0.2822266,-0.04492188,-0.3881836,-0.06787109
4456,-81.8125,-7.5625,21.875,0.06689453,0.300293,-0.1938477,-0.04589844,-0.3881836,-0.07324219
4460,-79.375,-23.4375,26.625,0.1484375,0.1333008,-0.1054688,-0.04736328,-0.3857422,-0.08154297
4464,-58.8125,-31.375,15.125,0.4077148,0.06689453,0.04443359,-0.05224609,-0.3833008,-0.08837891
4468,-38.375,-9.25,1,0.6362305,0.1484375,0.1826172,-0.05419922,-0.3803711,-0.09082031
4472,-9.6875,28.3125,-5.375,0.5512695,0.05908203,0.2402344,-0.05224609,-0.3818359,-0.09375
4476,15.5,40.375,-15.125,0.175293,0.3427734,-0.08984375,-0.05224609,-0.3818359,-0.09521484
4480,24.4375,35.375,-9.4375,-0.06445313,0.5913086,-0.3286133,-0.04833984,-0.3833008,-0.09375
4484,22.75,20.1875,0.9375,-0.1650391,0.6381836,-0.4282227,-0.04833984,-0.3833008,-0.09228516
4489,26,5.9375,9.375,-0.1225586,0.5878906,-0.4785156,-0.04736328,-0.3833008,-0.09082031
4493,31.75,-4.9375,13.6875,-0.06054688,0.6459961,-0.5668945,-0.04736328,-0.3842773,-0.08837891
4497,29.375,-10.75,16.625,0.01660156,0.7548828,-0.644043,-0.04980469,-0.3842773,-0.08447266
4501,22.5625,-13.6875,21.75,0.03955078,0.8325195,-0.7055664,-0.05322266,-0.3833008,-0.08154297
4505,14.8125,-17.4375,23.8125,0.1328125,0.7548828,-0.6171875,-0.05419922,-0.3857422,-0.08300781
4509,8.875,-15.0625,25.5625,0.2177734,0.7548828,-0.5053711,-0.05664063,-0.3833008,-0.07763672
4513,6.8125,-2.625,26.4375,0.3959961,0.6108398,-0.309082,-0.05908203,-0.3833008,-0.07763672
4517,14.625,19.1875,23.4375,0.4775391,0.4594727,-0.1474609,-0.06054688,-0.3833008,-0.07617188
4521,27.875,38.5,14.875,0.4467773,0.3740234,-0.07470703,-0.06298828,-0.3818359,-0.07324219
4525,37.3125,41.5,7.5,0.2646484,0.3818359,-0.1166992,-0.06494141,-0.3818359,-0.07324219
4529,41.3125,31,4.5,0.140625,0.4360352,-0.2089844,-0.06396484,-0.3833008,-0.07080078
4533,41.375,20.25,6.875,0.1289063,0.4555664,-0.2363281,-0.06298828,-0.3833008,-0.06640625
4537,37.6875,19.6875,14.375,0.2104492,0.4516602,-0.2363281,-0.06494141,-0.3857422,-0.06542969
4541,38.4375,20.75,15.625,0.175293,0.5839844,-0.3476563,-0.06494141,-0.3833008,-0.0625
4545,30,14.875,13.875,0.2294922,0.5527344,-0.3325195,-0.06738281,-0.3842773,-0.05859375
4549,28,16.75,10.5,0.3149414,0.5761719,-0.2783203,-0.06884766,-0.3857422,-0.05712891
4553,23.625,20.9375,5.5625,0.3110352,0.5878906,-0.2324219,-0.06884766,-0.3842773,-0.05419922
4557,21.6875,19.875,7.1875,0.140625,0.7548828,-0.2783203,-0.06884766,-0.3842773,-0.05175781
4561,17.9375,12.6875,14.25,0.1015625,0.7548828,-0.2592773,-0.06884766,-0.3857422,-0.05029297
4565,5.1875,5.75,18.9375,0.1367188,0.921875,-0.3129883,-0.06982422,-0.3842773,-0.05029297
4569,-2.0625,7.25,20.875,0.2875977,0.7666016,-0.1938477,-0.07324219,-0.3833008,-0.04882813
4573,-0.4375,11.1875,19.375,0.2104492,0.7817383,-0.2397461,-0.07470703,-0.3842773,-0.05175781
4577,4.3125,-4.4375,12.25,-0.01806641,1.022949,-0.3359375,-0.07568359,-0.3857422,-0.05273438
4581,-9.4375,-17.1875,20.8125,0.0009765625,1.104492,-0.3706055,-0.078125,-0.3833008,-0.04882813
4585,-25.1875,-17.75,33.0625,0.159668,1.022949,-0.3286133,-0.08056641,-0.3842773,-0.05029297
4589,-36.3125,-12.375,30.375,0.3188477,0.9682617,-0.3129883,-0.08300781,-0.3818359,-0.05273438
4593,-41.6875,-5.4375,20,0.3925781,0.9799805,-0.2670898,-0.08642578,-0.3833008,-0.05712891
4597,-40.0625,15.4375,20.25,0.3808594,1.092773,-0.1435547,-0.08642578,-0.3803711,-0.06103516
4601,-45.4375,43.9375,31.6875,0.2490234,1.104492,-0.1245117,-0.08789063,-0.3769531,-0.06396484
4605,-54.4375,54.5,37.1875,0.09765625,1.205566,-0.2324219,-0.09130859,-0.3779297,-0.07080078
4609,-69.8125,26.75,28.1875,0.0009765625,1.154785,-0.3325195,-0.09472656,-0.3754883,-0.07763672
4613,-79.1875,-11.75,3.75,0.2797852,1.12793,-0.2324219,-0.09472656,-0.3745117,-0.08154297
4618,-73.75,-14.25,-15.125,0.625,1.007324,0.001953125,-0.09619141,-0.371582,-0.08837891
4622,-69.5,24.9375,-21.4375,0.8300781,1.061523,0.140625,-0.09228516,-0.3706055,-0.09667969
4626,-62.5,78.25,-19.5625,0.6831055,1.178223,0.07910156,-0.09130859,-0.3706055,-0.1020508
4630,-70.3125,88.5,-14.3125,0.2255859,1.422852,-0.05908203,-0.08789063,-0.3706055,-0.1088867
4634,-80.8125,55.375,0.25,-0.02587891,1.523926,-0.1206055,-0.08398438,-0.3681641,-0.1181641
4638,-86.125,17.0625,8.5,0.175293,1.454102,0.04052734,-0.08203125,-0.3666992,-0.1264648
4642,-77.125,-5.75,5.8125,0.3691406,1.418945,0.07910156,-0.08300781,-0.3657227,-0.1303711
4646,-62,-19.25,-8.875,0.6479492,1.450195,0.159668,-0.08544922,-0.3603516,-0.1401367
4650,-48.375,-6.25,-17.75,0.8300781,1.55127,0.1904297,-0.08544922,-0.3603516,-0.144043
4654,-37.25,19,-19.8125,0.8183594,1.652344,0.2211914,-0.08300781,-0.359375,-0.1484375
4658,-30.3125,38.4375,-12.75,0.6289063,1.714355,0.2250977,-0.07958984,-0.359375,-0.1523438
4662,-22.375,38.25,-3.9375,0.4233398,1.65625,0.2368164,-0.07714844,-0.3579102,-0.1538086
4666,-9.8125,17.9375,-2.5625,0.2724609,1.621094,0.2094727,-0.07714844,-0.3569336,-0.15625
4670,6.375,-9.25,-7,0.2915039,1.512207,0.2250977,-0.07568359,-0.3569336,-0.1577148
4674,26,-22.75,-14.125,0.3959961,1.446289,0.2133789,-0.07568359,-0.3569336,-0.1547852
4678,37.625,-23,-18.625,0.4506836,1.489258,0.1748047,-0.07324219,-0.3579102,-0.1547852
4682,40.5625,-22.6875,-17.3125,0.3959961,1.500488,0.1289063,-0.07470703,-0.3618164,-0.1484375
4686,43.25,-24,-12.5625,0.4233398,1.49707,0.1557617,-0.07324219,-0.3632813,-0.1455078
4690,46.875,-23.1875,-13.375,0.4272461,1.477539,0.1787109,-0.07324219,-0.3642578,-0.1416016
4694,54.5625,-31.5,-18.25,0.3886719,1.493164,0.1748047,-0.07226563,-0.3666992,-0.1357422
4698,67.6875,-42.1875,-27.3125,0.4506836,1.399902,0.2172852,-0.07324219,-0.3691406,-0.1318359
4702,85.5625,-34.625,-33.75,0.4814453,1.46582,0.1943359,-0.07128906,-0.3730469,-0.1235352
4706,94.8125,-26.125,-39.5,0.3574219,1.535645,0.1171875,-0.06884766,-0.3754883,-0.1142578
4710,93.8125,-27.5625,-28.5625,0.1831055,1.640625,0.001953125,-0.06738281,-0.3769531,-0.1074219
4714,85.625,-35.5625,-17.9375,0.206543,1.539551,0.01708984,-0.06494141,-0.3779297,-0.09912109
4718,81.3125,-32.0625,-17.875,0.3378906,1.422852,0.07519531,-0.06494141,-0.3833008,-0.08691406
4722,91.6875,-1.5,-21.6875,0.4658203,1.337402,0.1367188,-0.06396484,-0.3842773,-0.08447266
4726,90.5,37.75,-22.3125,0.4077148,1.317871,0.04785156,-0.06152344,-0.3857422,-0.07177734
4730,84.8125,66.5,-11.75,0.1635742,1.298828,-0.07861328,-0.05810547,-0.3881836,-0.06640625
4734,72.75,53.8125,-10.375,-0.2700195,1.236328,-0.1821289,-0.05664063,-0.3881836,-0.05957031
4738,58.0625,-0.375,-10.0625,-0.5527344,1.279297,-0.2783203,-0.05664063,-0.3867188,-0.05419922
4742,48.125,-55.3125,-16.1875,-0.3432617,1.12793,-0.2397461,-0.05566406,-0.3891602,-0.05175781
4747,40.4375,-78.375,-26.0625,0.03173828,1.003418,-0.2475586,-0.05419922,-0.3881836,-0.04345703
4751,32.625,-63.6875,-39.9375,0.3613281,0.90625,-0.3012695,-0.05078125,-0.3891602,-0.04052734
4755,22.5625,-16.5625,-42.125,0.4311523,0.9296875,-0.3398438,-0.04736328,-0.3891602,-0.03662109
4759,-4.1875,33.5625,-29.3125,0.2758789,0.9995117,-0.4936523,-0.04492188,-0.390625,-0.03662109
4763,-42.25,58.375,-7.25,0.04345703,0.9414063,-0.6171875,-0.04150391,-0.3916016,-0.03662109
4767,-75.125,64.75,7,0.02832031,0.6342773,-0.559082,-0.04003906,-0.390625,-0.04492188
4771,-81.5625,67.125,6.8125,0.06298828,0.3271484,-0.5053711,-0.04003906,-0.390625,-0.05029297
4775,-76.125,56,-8.9375,0.004882813,0.203125,-0.4936523,-0.04003906,-0.390625,-0.05712891
4779,-79.5625,30.8125,-14.9375,-0.08789063,0.21875,-0.5131836,-0.0390625,-0.3891602,-0.06933594
4783,-91.5,-2.5,-7,-0.06445313,0.1835938,-0.4208984,-0.0390625,-0.3867188,-0.07470703
4787,-88.625,-16.625,6.3125,0.175293,-0.09179688,-0.2016602,-0.03515625,-0.3867188,-0.08300781
4791,-76.75,-13.5,9.625,0.3149414,0.01269531,-0.128418,-0.03759766,-0.3857422,-0.08984375
4795,-63.5,-3.8125,8.75,0.3417969,0.05126953,-0.128418,-0.0390625,-0.3833008,-0.09667969
4799,-46.5,5.75,8.5625,0.2797852,0.1137695,-0.04394531,-0.0390625,-0.3833008,-0.1005859
4803,-29.6875,0,12.375,0.05908203,0.2456055,-0.07861328,-0.04150391,-0.3803711,-0.105957
4807,-13.75,-25.0625,2,0.05126953,0.3271484,-0.1743164,-0.04003906,-0.3803711,-0.1074219
4811,4.6875,-28.875,3.125,0.07470703,0.4516602,-0.3208008,-0.04248047,-0.3793945,-0.1074219
4815,6.75,-36.25,5.4375,0.06298828,0.7119141,-0.4438477,-0.04248047,-0.3793945,-0.1074219
4819,2.25,-39.9375,14.5625,0.1987305,0.7353516,-0.4169922,-0.04394531,-0.3793945,-0.1044922
4823,-1.0625,-28.5625,19.125,0.3847656,0.6733398,-0.3476563,-0.04736328,-0.3793945,-0.1035156
4827,4.9375,-10.1875,22.3125,0.4350586,0.5527344,-0.3012695,-0.05078125,-0.3803711,-0.1035156
4831,12.5625,0,21,0.3457031,0.6694336,-0.3476563,-0.05078125,-0.3818359,-0.1035156
4835,18.5,-2.75,12.375,0.2875977,0.6923828,-0.3745117,-0.05322266,-0.3779297,-0.1020508
4839,21.125,-11.8125,3.3125,0.2490234,0.7275391,-0.4282227,-0.05419922,-0.3803711,-0.09765625
4843,16.3125,-16.375,2.875,0.2836914,0.8051758,-0.4399414,-0.05419922,-0.3779297,-0.1005859
4847,9.125,-8.6875,6.375,0.4155273,0.7470703,-0.4091797,-0.05566406,-0.3803711,-0.09667969
4851,3.375,9.1875,9.875,0.4658203,0.6845703,-0.3476563,-0.05664063,-0.3833008,-0.09667969
4855,-2.1875,22.5,7,0.4038086,0.6030273,-0.2861328,-0.05664063,-0.3793945,-0.09765625
4859,2.375,25.875,5.6875,0.2451172,0.4555664,-0.1938477,-0.05810547,-0.3803711,-0.09667969
4863,11,12.75,0.8125,0.09765625,0.4399414,-0.1552734,-0.05664063,-0.3803711,-0.09667969
4867,11.9375,1.75,-0.8125,0.1831055,0.4321289,-0.109375,-0.05664063,-0.3803711,-0.09521484
4871,12.3125,-1.1875,-7.1875,0.2529297,0.3935547,-0.08203125,-0.05566406,-0.3818359,-0.09521484
4876,13.4375,-1.625,-16.6875,0.2490234,0.5019531,-0.06689453,-0.05566406,-0.3803711,-0.09228516
4880,17.4375,3.8125,-5.875,0.1132813,0.4750977,-0.04736328,-0.05322266,-0.3833008,-0.09228516
4884,16.25,4.0625,8,0.08251953,0.6069336,-0.1015625,-0.05419922,-0.3818359,-0.09082031
4888,4.8125,2.25,13.375,0.1987305,0.5683594,-0.08203125,-0.05419922,-0.3818359,-0.08984375
4892,1.0625,8.5625,8.3125,0.3149414,0.5839844,-0.05908203,-0.05566406,-0.3833008,-0.08837891
4896,5.0625,1.625,-10.625,0.1870117,0.7041016,-0.08984375,-0.05566406,-0.3833008,-0.08837891
4900,9.3125,-3.5625,-15.75,0.07861328,0.8598633,-0.08984375,-0.05566406,-0.3842773,-0.08984375
4904,-1.25,-3.875,-1.8125,0.01660156,0.921875,-0.1435547,-0.05322266,-0.3842773,-0.08837891
4908,-18.625,-6.5,14.1875,0.05908203,0.9296875,-0.2207031,-0.05566406,-0.3803711,-0.08984375
4912,-26.3125,-4.4375,10.5,0.1948242,0.890625,-0.1245117,-0.05566406,-0.3818359,-0.09228516
4916,-25.5625,1.75,3,0.159668,0.9956055,-0.0859375,-0.05810547,-0.3818359,-0.09375
4920,-25.6875,11.5625,7.1875,0.02441406,1.13916,-0.03613281,-0.05664063,-0.3818359,-0.09667969
4924,-32.125,7,11.0625,-0.06835938,1.217285,-0.05908203,-0.05908203,-0.3803711,-0.09912109
4928,-45.9375,-14.1875,17.25,-0.1147461,1.298828,-0.1323242,-0.05908203,-0.3793945,-0.1020508
4932,-61.4375,-39.4375,16.5,0.1557617,1.213379,-0.1323242,-0.06054688,-0.3779297,-0.105957
4936,-66,-44.8125,-1,0.4931641,1.131836,-0.07861328,-0.06396484,-0.3754883,-0.1088867
4940,-58.25,-21.5625,-18.6875,0.6015625,1.221191,0.06347656,-0.06298828,-0.3754883,-0.1142578
4944,-62,19.9375,-13.5625,0.5239258,1.32959,0.1904297,-0.06298828,-0.3754883,-0.1196289
4948,-64.8125,45.4375,1.6875,0.175293,1.403809,0.1674805,-0.05908203,-0.3730469,-0.1264648
4952,-69,30.0625,10.625,-0.07226563,1.403809,0.09814453,-0.06054688,-0.3730469,-0.1333008
4956,-68.6875,-12.9375,1,-0.04101563,1.395996,0.125,-0.06054688,-0.3666992,-0.1386719
4960,-56.625,-37.625,-8.625,0.1791992,1.438477,0.2749023,-0.06054688,-0.3666992,-0.1455078
4964,-49.375,-36.125,-7.5,0.3808594,1.566895,0.3173828,-0.06298828,-0.3632813,-0.1469727
4968,-41.5625,-18.875,-4.125,0.5126953,1.586426,0.3251953,-0.06298828,-0.3632813,-0.1508789
4972,-33.0625,-1.375,-5.0625,0.527832,1.621094,0.2709961,-0.06298828,-0.3632813,-0.1547852
4976,-23.1875,8.875,-10,0.4736328,1.710449,0.2441406,-0.06054688,-0.3632813,-0.15625
4980,-14.3125,14.9375,-9.6875,0.4116211,1.749512,0.2636719,-0.05908203,-0.359375,-0.1591797
4984,-1.5625,14.9375,-10.75,0.3149414,1.72998,0.2441406,-0.05908203,-0.3618164,-0.1616211
4988,9.4375,8.5,-11.875,0.2138672,1.714355,0.1713867,-0.05908203,-0.3618164,-0.1591797
4992,21.6875,4.125,-9.5,0.1987305,1.664063,0.105957,-0.05664063,-0.359375,-0.1606445
4996,31.875,0.75,-11.0625,0.2026367,1.671875,0.01708984,-0.05566406,-0.3632813,-0.15625
5000,34.375,-3,-12.25,0.2216797,1.671875,-0.005371094,-0.05566406,-0.3632813,-0.1538086
5005,35,-2.5,-10.8125,0.3227539,1.632813,0.02490234,-0.05419922,-0.3632813,-0.1494141
5009,34.875,6.3125,-10.8125,0.4038086,1.613281,0.1171875,-0.05224609,-0.3642578,-0.1469727
5013,41.0625,20.375,-10.0625,0.3691406,1.543457,0.2519531,-0.05224609,-0.3681641,-0.1455078
5017,54.75,30.75,-3.4375,0.2255859,1.512207,0.2709961,-0.04980469,-0.3681641,-0.1401367
5021,65.1875,17.9375,-6.6875,0.09765625,1.539551,0.2441406,-0.04833984,-0.3691406,-0.1347656
5025,77.125,-2,-15.3125,0.125,1.473633,0.2866211,-0.04833984,-0.3730469,-0.1318359
5029,94.125,-1.1875,-22.5,0.2255859,1.43457,0.3017578,-0.04589844,-0.3769531,-0.125
5033,105.8125,18.375,-22.875,0.2490234,1.376465,0.2597656,-0.04394531,-0.3793945,-0.112793
5037,104.9375,40.75,-14.75,0.1557617,1.446289,0.1020508,-0.04150391,-0.3803711,-0.1098633
5041,93.0625,48.375,0.1875,0.1015625,1.461914,-0.01318359,-0.04150391,-0.3857422,-0.09765625
5045,78.6875,41.375,3.8125,0.08251953,1.422852,-0.01318359,-0.0390625,-0.3857422,-0.08984375
5049,72.0625,26.0625,2.875,0.109375,1.251953,-0.005371094,-0.04003906,-0.3867188,-0.08544922
5053,78.125,8.1875,-10,0.159668,1.015137,-0.04736328,-0.0390625,-0.3867188,-0.08007813
5057,82.5625,-11.0625,-35.1875,0.1635742,1.015137,-0.1708984,-0.03662109,-0.3891602,-0.07080078
5061,76.6875,-20.8125,-51.4375,0.1557617,1.034668,-0.2783203,-0.03320313,-0.3891602,-0.06396484
5065,55.6875,-14.5625,-48.625,0.1367188,1.049805,-0.4091797,-0.02929688,-0.3916016,-0.05712891
5069,32.0625,-1.3125,-33.9375,0.1445313,0.809082,-0.4013672,-0.02490234,-0.3916016,-0.05273438
5073,10.4375,12.6875,-34.5625,0.1870117,0.890625,-0.4248047,-0.02099609,-0.3930664,-0.05029297
5077,-0.25,25.3125,-44.4375,0.159668,0.809082,-0.4091797,-0.01757813,-0.3930664,-0.05029297
5081,-14.625,28.5,-45.0625,-0.02587891,0.809082,-0.4746094,-0.01269531,-0.3916016,-0.05175781
5085,-35.875,5.9375,-41.125,-0.2851563,0.5839844,-0.5478516,-0.01025391,-0.3945313,-0.05175781
5089,-51.125,-26.625,-29.25,-0.3354492,0.4052734,-0.5244141,-0.005859375,-0.3945313,-0.05859375
5093,-58,-42.9375,-22.5625,-0.06054688,0.3427734,-0.4555664,-0.004394531,-0.390625,-0.0625
5097,-68.8125,-32.3125,-7.6875,0.1015625,0.2299805,-0.378418,-0.0009765625,-0.3945313,-0.06542969
5101,-83.0625,-17.75,2.75,0.05908203,0.2768555,-0.3051758,-0.0009765625,-0.3916016,-0.07470703
5105,-95.125,-23.5,11.3125,-0.1420898,0.1484375,-0.1938477,-0.001953125,-0.3891602,-0.08300781
5109,-94.25,-38.375,28.125,-0.06835938,-0.01806641,-0.001464844,-0.005859375,-0.3881836,-0.08984375
5113,-71.1875,-29.1875,32.25,0.2758789,-0.08007813,0.1713867,-0.009277344,-0.3857422,-0.09765625
5117,-40.9375,-7.875,16.1875,0.3378906,0.01269531,0.2021484,-0.01171875,-0.3833008,-0.1044922
5121,-13.0625,7.5,6.1875,0.1791992,0.1796875,0.07128906,-0.01025391,-0.3833008,-0.105957
5125,7.1875,7.0625,2.9375,-0.03320313,0.3701172,-0.1552734,-0.01269531,-0.3833008,-0.1074219
5129,15.625,-2.6875,14.375,-0.1884766,0.5566406,-0.3208008,-0.01171875,-0.3842773,-0.105957
5134,16.25,-13.5,31.1875,-0.1572266,0.7197266,-0.4438477,-0.01416016,-0.3818359,-0.1035156
5138,15.8125,-23,37.9375,-0.03320313,0.7353516,-0.5478516,-0.01611328,-0.3833008,-0.1020508
5142,17.9375,-32.6875,34.8125,0.03173828,0.8481445,-0.6552734,-0.0234375,-0.3833008,-0.1005859
5146,9.6875,-40.125,31.625,0.1484375,0.875,-0.5976563,-0.02587891,-0.3842773,-0.09912109
5150,-1.75,-35.8125,29.3125,0.2758789,0.824707,-0.4477539,-0.02929688,-0.3842773,-0.09765625
5154,-2.625,-19.625,32.1875,0.3457031,0.6342773,-0.2553711,-0.03320313,-0.3842773,-0.09667969
5158,2,-9.625,33.375,0.2490234,0.5761719,-0.2475586,-0.03662109,-0.3842773,-0.09912109
5162,9.5,-18.5,28.125,0.1831055,0.5722656,-0.3012695,-0.0390625,-0.3833008,-0.09765625
5166,18.8125,-26.625,22.875,0.2529297,0.5913086,-0.3359375,-0.04248047,-0.3833008,-0.09521484
5170,17.625,-24.625,14.9375,0.3188477,0.7236328,-0.359375,-0.04394531,-0.3833008,-0.09375
5174,8.5,-10.5625,14.3125,0.3886719,0.7001953,-0.2514648,-0.04492188,-0.3842773,-0.09082031
5178,2,18.1875,19.4375,0.4775391,0.6381836,-0.1513672,-0.04736328,-0.3833008,-0.09228516
5182,1.375,46.5625,20.9375,0.3847656,0.5952148,-0.112793,-0.04833984,-0.3818359,-0.08984375
5186,5.9375,55.875,22.9375,0.1171875,0.5175781,-0.0859375,-0.04980469,-0.3818359,-0.09228516
5190,11.5625,40.3125,29.6875,-0.04101563,0.5371094,-0.06689453,-0.05078125,-0.3833008,-0.09375
5194,12.6875,12.875,30.875,-0.01416016,0.5410156,-0.05126953,-0.05224609,-0.3833008,-0.09082031
5198,14.9375,0.875,23.875,0.1791992,0.4555664,0.02880859,-0.05566406,-0.3818359,-0.09082031
5202,24.3125,9.125,21.25,0.2490234,0.4750977,0.02490234,-0.05664063,-0.3803711,-0.08837891
5206,25.125,18.0625,21.5625,0.1713867,0.5952148,-0.02832031,-0.05810547,-0.3803711,-0.08447266
5210,24.5,17.875,29.8125,0.1328125,0.6577148,-0.05126953,-0.06054688,-0.3818359,-0.08447266
5214,20.4375,6.625,31.9375,0.06298828,0.7197266,-0.1245117,-0.06396484,-0.3833008,-0.08154297
5218,14.5625,-6.25,34,0.1791992,0.8286133,-0.1860352,-0.06298828,-0.3793945,-0.08154297
5222,6.0625,-3.5625,29.9375,0.3110352,0.8828125,-0.2285156,-0.06982422,-0.3833008,-0.08154297
5226,3.875,9.25,24.625,0.3149414,0.9375,-0.1821289,-0.07226563,-0.3803711,-0.07861328
5230,1.125,13.1875,20.4375,0.175293,1.088867,-0.2128906,-0.07470703,-0.3803711,-0.08007813
