Packet number,Gyroscope X (deg/s),Gyroscope Y (deg/s),Gyroscope Z (deg/s),Accelerometer X (g),Accelerometer Y (g),Accelerometer Z (g),Magnetometer X (G),Magnetometer Y (G),Magnetometer Z (G)
1,-4.1875,-4.8125,3.75,0.3110352,1.116211,-0.2475586,-0.08300781,-0.3769531,-0.09521484
5,-8.4375,-4.625,5.0625,0.3417969,1.158691,-0.2475586,-0.08398438,-0.3754883,-0.09375
9,-8,-2.25,10.0625,0.3457031,1.104492,-0.2285156,-0.08398438,-0.3779297,-0.09667969
13,-2.4375,1.625,15.3125,0.3925781,1.178223,-0.2207031,-0.08544922,-0.3754883,-0.09521484
17,-0.5625,6.4375,12.875,0.4155273,1.232422,-0.2089844,-0.08642578,-0.3754883,-0.09521484
21,0,7.6875,16.5625,0.3339844,1.287109,-0.1977539,-0.08789063,-0.3754883,-0.09521484
25,-6.6875,-10.125,8.0625,0.2758789,1.36084,-0.2167969,-0.08886719,-0.3745117,-0.09521484
29,-4.25,-27.4375,3.125,0.3613281,1.302734,-0.1782227,-0.08886719,-0.3754883,-0.09521484
33,0.75,-29.1875,3.375,0.527832,1.248047,-0.07861328,-0.09130859,-0.3754883,-0.09375
37,7.8125,-20.875,3.5,0.609375,1.255859,-0.06298828,-0.09375,-0.3754883,-0.09375
41,14.4375,-7.5,0.375,0.659668,1.225098,0.009765625,-0.09130859,-0.3745117,-0.09375
45,24.8125,6.875,0.5,0.5976563,1.13916,0.04052734,-0.09228516,-0.3754883,-0.09082031
49,33,8.5,-7.9375,0.4853516,1.182129,0.01708984,-0.09228516,-0.3769531,-0.08544922
53,42.25,0.75,-17.5,0.3808594,1.174316,0.009765625,-0.09033203,-0.3769531,-0.08691406
57,51.5,-8.5625,-23,0.3574219,1.251953,-0.001464844,-0.08886719,-0.3779297,-0.08300781
61,58.625,-12.5,-22.375,0.3613281,1.353027,-0.009277344,-0.08789063,-0.3803711,-0.07324219
65,67.9375,-7.5,-10.9375,0.3339844,1.426758,-0.01660156,-0.08544922,-0.3803711,-0.07177734
69,76.375,-12.8125,-6,0.2758789,1.58252,-0.06689453,-0.08544922,-0.3803711,-0.06542969
73,71.9375,-34,-8.125,0.2646484,1.648438,-0.1821289,-0.08398438,-0.3833008,-0.05566406
77,68.875,-59.25,-20.5625,0.4580078,1.430664,-0.1938477,-0.08300781,-0.3803711,-0.05175781
81,81.375,-58.75,-37.5,0.6635742,1.376465,-0.1782227,-0.08300781,-0.3842773,-0.04052734
85,88.125,-37.5625,-47.9375,0.6015625,1.523926,-0.2631836,-0.078125,-0.3857422,-0.03369141
90,71.0625,-21.8125,-42.125,0.3305664,1.570801,-0.4628906,-0.07568359,-0.3857422,-0.02587891
94,35.5,-22,-27.6875,0.1987305,1.49707,-0.6015625,-0.06982422,-0.3867188,-0.02294922
98,3,-16.9375,-20.5625,0.2993164,1.189941,-0.5209961,-0.06982422,-0.3867188,-0.01611328
102,-15.9375,4.3125,-18.1875,0.3417969,0.9375,-0.3974609,-0.06738281,-0.3881836,-0.01611328
106,-21.6875,20,-21.8125,0.2216797,0.6499023,-0.3398438,-0.06494141,-0.3881836,-0.01904297
110,-26,19.25,-23.75,0.06689453,0.6108398,-0.3706055,-0.06494141,-0.3891602,-0.02148438
114,-30.125,1.5,-30.375,-0.1030273,0.5058594,-0.4282227,-0.06298828,-0.3891602,-0.02441406
118,-34.1875,-21.6875,-28.1875,-0.1650391,0.4946289,-0.5053711,-0.05908203,-0.3891602,-0.02832031
122,-52.6875,-34.625,-15.0625,-0.07617188,0.5683594,-0.5092773,-0.05810547,-0.390625,-0.03125
126,-78.625,-26.4375,5.625,0.08251953,0.4633789,-0.4555664,-0.05566406,-0.3891602,-0.03369141
130,-91.5625,-9.4375,19.8125,0.2104492,0.140625,-0.3012695,-0.05664063,-0.3881836,-0.04345703
134,-88.4375,7.3125,22.75,0.2026367,0.03222656,-0.2592773,-0.06054688,-0.3857422,-0.05273438
138,-75.25,3.5625,17.875,0.08642578,-0.01025391,-0.2167969,-0.05908203,-0.3857422,-0.05859375
142,-62.625,-18.3125,8.625,0.08251953,0.1679688,-0.2397461,-0.06152344,-0.3842773,-0.06542969
146,-63.75,-31.5625,-2.1875,0.2797852,0.2573242,-0.2089844,-0.06152344,-0.3833008,-0.07080078
150,-51.9375,-9.4375,4.9375,0.5161133,0.05126953,0.001953125,-0.06298828,-0.3833008,-0.07470703
154,-35,24.25,8.0625,0.4775391,0.1176758,0.02490234,-0.06298828,-0.3818359,-0.08007813
158,-9.5625,36.25,-3.3125,0.3266602,0.1484375,-0.07080078,-0.06298828,-0.3803711,-0.08300781
162,13.0625,31.625,-16.8125,0.1948242,0.3349609,-0.2055664,-0.06298828,-0.3833008,-0.08300781
166,27.75,14.3125,-20.625,0.01660156,0.4672852,-0.359375,-0.05908203,-0.3833008,-0.08154297
170,32.375,2.5,-10.875,0.0009765625,0.5644531,-0.3745117,-0.05810547,-0.3842773,-0.07861328
174,32.4375,-4.375,-0.5625,-0.006347656,0.6186523,-0.4594727,-0.05664063,-0.3842773,-0.07470703
178,33.25,-15.1875,4.5625,0.02832031,0.6616211,-0.5825195,-0.05664063,-0.3833008,-0.07617188
182,27.8125,-24.6875,1.8125,0.09375,0.7895508,-0.6552734,-0.05664063,-0.3857422,-0.07080078
186,20.125,-35.5625,2.9375,0.09375,0.7856445,-0.6552734,-0.05908203,-0.3842773,-0.06787109
190,11.1875,-35.5625,10.5,0.2294922,0.8168945,-0.5668945,-0.05908203,-0.3842773,-0.06640625
194,-3.6875,-17.6875,25.4375,0.3535156,0.7626953,-0.3862305,-0.06152344,-0.3857422,-0.06396484
198,-8.75,6,42.8125,0.3925781,0.6108398,-0.2324219,-0.06640625,-0.3833008,-0.06542969
202,-6.875,16.875,38.4375,0.2915039,0.4750977,-0.1362305,-0.06738281,-0.3818359,-0.06640625
206,6.9375,2.9375,25.0625,0.109375,0.4052734,-0.1860352,-0.07128906,-0.3818359,-0.06640625
210,18.5,-15.25,11.6875,0.1831055,0.4086914,-0.1743164,-0.07226563,-0.3803711,-0.06542969
214,17.25,-21.375,9.375,0.2451172,0.5527344,-0.2207031,-0.07470703,-0.3818359,-0.06103516
219,24.9375,-12.4375,25.6875,0.3808594,0.3857422,-0.1743164,-0.07568359,-0.3818359,-0.05957031
223,20.875,0.375,13.75,0.4697266,0.6069336,-0.1782227,-0.07714844,-0.3818359,-0.05859375
227,20.375,13.6875,7.3125,0.3959961,0.6499023,-0.1821289,-0.078125,-0.3818359,-0.05566406
231,9.25,20.9375,2.8125,0.2758789,0.7587891,-0.2285156,-0.07958984,-0.3818359,-0.05419922
235,-5.3125,20.6875,4,0.2333984,0.777832,-0.2207031,-0.078125,-0.3833008,-0.05419922
239,-2.3125,32.3125,20.625,0.2685547,0.4750977,-0.07080078,-0.078125,-0.3833008,-0.05566406
243,12.9375,40.625,25.625,0.159668,0.6499023,-0.08984375,-0.08056641,-0.3833008,-0.05566406
247,10.75,28.5625,26.4375,-0.002441406,0.824707,-0.1474609,-0.08398438,-0.3803711,-0.05566406
251,0.5,10.375,25.1875,0.09375,0.809082,-0.1591797,-0.08544922,-0.3803711,-0.05566406
255,0.625,0.875,21.9375,0.1210938,0.7236328,-0.1630859,-0.08642578,-0.3818359,-0.05419922
259,8.125,-5.125,18.375,0.1831055,0.777832,-0.109375,-0.08789063,-0.3793945,-0.05566406
263,13.8125,-1.8125,26.375,0.206543,0.9140625,-0.1938477,-0.09228516,-0.3793945,-0.05566406
267,6.125,-9.4375,22.875,0.2758789,1.061523,-0.3208008,-0.09228516,-0.3793945,-0.05273438
271,-3.5625,-14.125,11.25,0.4697266,1.003418,-0.3515625,-0.09375,-0.3769531,-0.05273438
275,-3.25,4.75,2.9375,0.559082,1.030762,-0.2089844,-0.09863281,-0.3793945,-0.05273438
279,-6.875,30.75,8,0.4155273,1.104492,-0.2207031,-0.09619141,-0.3779297,-0.05419922
283,-13.875,40.4375,24.75,0.2451172,1.213379,-0.2783203,-0.09716797,-0.3779297,-0.05419922
287,-36.5,21.4375,21.9375,0.2758789,1.353027,-0.3745117,-0.09716797,-0.3793945,-0.05859375
291,-44.875,12.4375,10.625,0.5126953,1.182129,-0.2861328,-0.09960938,-0.3745117,-0.06396484
295,-32,42.1875,-0.875,0.6054688,1.073242,-0.109375,-0.1020508,-0.3745117,-0.06542969
299,-25.8125,85.375,17.8125,0.4350586,1.205566,-0.1166992,-0.09960938,-0.3754883,-0.07080078
303,-33.375,98.9375,33.0625,0.1831055,1.353027,-0.2397461,-0.1010742,-0.3754883,-0.07617188
307,-51.1875,67.375,38.25,0.06298828,1.481445,-0.2939453,-0.1044922,-0.3745117,-0.08154297
311,-60.1875,23.25,29.8125,0.3808594,1.450195,-0.1630859,-0.1044922,-0.371582,-0.08984375
315,-55.125,21.75,27.5,0.8032227,1.356934,0.02490234,-0.1069336,-0.3666992,-0.09521484
319,-47.375,40.0625,32.6875,0.9311523,1.438477,0.02099609,-0.1079102,-0.3657227,-0.09912109
323,-41.9375,38.375,21.3125,0.9233398,1.570801,-0.1166992,-0.109375,-0.3657227,-0.1035156
327,-34.5,31.625,7.125,0.9853516,1.527832,-0.09375,-0.1103516,-0.3642578,-0.1088867
331,-19.8125,29.875,-10.0625,0.9736328,1.605469,-0.1054688,-0.1103516,-0.3618164,-0.1098633
335,-10.75,24.8125,-21.9375,0.8300781,1.636719,-0.0859375,-0.1079102,-0.3632813,-0.1142578
339,-5,8.125,-33.6875,0.7177734,1.671875,-0.1245117,-0.1044922,-0.3632813,-0.1166992
343,5.0625,-4.8125,-39.3125,0.7255859,1.609375,-0.109375,-0.1044922,-0.3642578,-0.1157227
348,13.375,-4.5625,-47.125,0.7797852,1.636719,-0.08984375,-0.09863281,-0.3642578,-0.1157227
352,23.3125,9.4375,-48.0625,0.7060547,1.559082,-0.0859375,-0.09375,-0.3691406,-0.1142578
356,23.8125,20.3125,-46.3125,0.5395508,1.710449,-0.1977539,-0.09033203,-0.3691406,-0.1113281
360,16.8125,14.0625,-44.25,0.4155273,1.745605,-0.1708984,-0.08544922,-0.371582,-0.1098633
364,13.375,-6.375,-43.8125,0.3730469,1.749512,0.001953125,-0.08300781,-0.371582,-0.1098633
368,21.9375,-19,-38.6875,0.4311523,1.55127,0.144043,-0.08056641,-0.3745117,-0.1088867
372,44.375,-19.375,-47.25,0.5161133,1.39209,0.1713867,-0.07568359,-0.3769531,-0.1020508
376,66,-15.8125,-62.25,0.3808594,1.345215,-0.009277344,-0.07226563,-0.3779297,-0.09765625
380,75.6875,-32.875,-84.125,0.08642578,1.418945,-0.2939453,-0.06738281,-0.3793945,-0.09521484
384,72.1875,-54.125,-93.25,0.03955078,1.535645,-0.378418,-0.06054688,-0.3842773,-0.08691406
388,52.6875,-20,-67.75,0.2412109,1.590332,-0.2631836,-0.05419922,-0.3857422,-0.08007813
392,32.5,39.875,-21.5,0.02832031,1.55127,-0.2397461,-0.04833984,-0.3881836,-0.07324219
396,6.1875,55.3125,18.1875,-0.28125,1.473633,-0.3325195,-0.04736328,-0.3891602,-0.07324219
400,-8.25,21.1875,22.4375,-0.3666992,1.04248,-0.3476563,-0.04833984,-0.3867188,-0.07763672
404,15.6875,-43.5,-9.9375,-0.4169922,0.6420898,-0.1938477,-0.04980469,-0.3867188,-0.07470703
408,43,-86.3125,-29.625,-0.08398438,0.7353516,0.04052734,-0.04980469,-0.3881836,-0.07324219
412,38.25,-58.75,-4.4375,0.4233398,0.8208008,0.1210938,-0.04833984,-0.3881836,-0.06640625
416,10.6875,-7.9375,15.5,0.5087891,0.890625,-0.03613281,-0.04736328,-0.3891602,-0.0625
420,-15.875,13.1875,23.625,0.3339844,0.7314453,-0.2167969,-0.04980469,-0.3881836,-0.0625
424,-24.8125,0,20.4375,0.1635742,0.5991211,-0.2822266,-0.05078125,-0.3881836,-0.06640625
428,-34.3125,-35.0625,-3.9375,0.1132813,0.5683594,-0.2089844,-0.05078125,-0.3867188,-0.06787109
432,-34.125,-51.25,-16.375,0.3457031,0.3544922,-0.1362305,-0.05224609,-0.3881836,-0.07080078
436,-37.5625,-23.9375,-16.625,0.543457,0.2807617,-0.1166992,-0.05078125,-0.3867188,-0.07324219
440,-45.125,7.375,-1.75,0.3691406,0.3583984,-0.2089844,-0.05078125,-0.3857422,-0.07617188
444,-55.375,14.1875,7.375,0.1518555,0.3505859,-0.3554688,-0.05078125,-0.3857422,-0.08007813
448,-71.25,-2.875,6.125,0.07080078,0.5527344,-0.4555664,-0.05078125,-0.3833008,-0.08691406
452,-83.25,-13.0625,6.1875,0.2724609,0.1835938,-0.1435547,-0.05224609,-0.3803711,-0.09228516
456,-69.875,2.875,3.375,0.5239258,0.0009765625,0.2094727,-0.05322266,-0.3779297,-0.1005859
460,-38.375,33.5,-4.9375,0.59375,-0.1616211,0.409668,-0.05224609,-0.3779297,-0.105957
464,0.75,53.0625,-18.9375,0.3457031,-0.09179688,0.3330078,-0.05078125,-0.3779297,-0.1088867
468,29.4375,41.125,-26.5625,-0.006347656,0.2573242,-0.03613281,-0.04736328,-0.3769531,-0.1074219
472,37.625,10.6875,-24,-0.1962891,0.5136719,-0.3129883,-0.04492188,-0.3803711,-0.1035156
477,36.25,-16.4375,-9.9375,-0.2119141,0.6655273,-0.4248047,-0.04248047,-0.3803711,-0.1020508
481,30.1875,-34.375,-0.5625,-0.1533203,0.7275391,-0.5478516,-0.04248047,-0.3818359,-0.09912109
485,20.1875,-44.3125,4.5625,0.0009765625,0.8012695,-0.5825195,-0.04394531,-0.3818359,-0.09521484
489,10.1875,-42.1875,11.3125,0.1713867,0.6108398,-0.3974609,-0.04492188,-0.3833008,-0.09375
493,16.875,-32.0625,17.75,0.2451172,0.4477539,-0.2592773,-0.04736328,-0.3803711,-0.09082031
497,28.6875,-30.8125,14.0625,0.206543,0.4829102,-0.2978516,-0.04833984,-0.3833008,-0.09082031
501,30.375,-39.3125,4.1875,0.1831055,0.7001953,-0.3706055,-0.05078125,-0.3833008,-0.08837891
505,22.875,-42,4.0625,0.1948242,0.7236328,-0.3398438,-0.04980469,-0.3833008,-0.08300781
509,20.875,-31.625,11.8125,0.2685547,0.6264648,-0.2553711,-0.05322266,-0.3842773,-0.08007813
513,16.6875,-11.8125,12.4375,0.3808594,0.5991211,-0.128418,-0.05419922,-0.3833008,-0.07324219
517,11.625,8.0625,7.8125,0.3188477,0.4477539,-0.01660156,-0.05419922,-0.3842773,-0.07861328
521,19,10.25,0.8125,0.109375,0.3662109,0.04443359,-0.05664063,-0.3857422,-0.07617188
525,24.9375,-4.4375,3.9375,-0.03710938,0.4633789,0.005859375,-0.05664063,-0.3833008,-0.07470703
529,24.9375,-20.75,6.25,0.008789063,0.4516602,-0.02441406,-0.05566406,-0.3857422,-0.07324219
533,30.3125,-14.125,20.9375,0.2724609,0.3583984,0.005859375,-0.05664063,-0.3857422,-0.07080078
537,34.25,5.875,14.1875,0.3691406,0.5292969,-0.04394531,-0.06054688,-0.3857422,-0.06640625
541,31.5625,28.25,18.5625,0.2758789,0.5761719,-0.05908203,-0.06054688,-0.3857422,-0.0625
545,25.625,36.5,26.3125,0.1210938,0.6420898,-0.1323242,-0.06298828,-0.3857422,-0.06103516
549,28.0625,22.25,29.8125,0.01269531,0.6342773,-0.1630859,-0.06494141,-0.3881836,-0.05957031
553,23.9375,-8.5625,21.375,0.03564453,0.7587891,-0.2900391,-0.06884766,-0.3857422,-0.05712891
557,25.5625,-26,12.0625,0.1791992,0.824707,-0.2670898,-0.06982422,-0.3867188,-0.05419922
561,24.0625,-17.1875,11.625,0.3496094,0.9375,-0.3051758,-0.06982422,-0.3857422,-0.05029297
565,14.375,5,18.5,0.4350586,1.120117,-0.4169922,-0.06982422,-0.3857422,-0.05175781
569,-6.5,21.25,11.9375,0.4697266,1.193848,-0.4628906,-0.07324219,-0.3857422,-0.05029297
573,-21.875,37.6875,9.375,0.4541016,1.217285,-0.4208984,-0.07324219,-0.3857422,-0.05029297
577,-26.1875,51.6875,11.5625,0.3149414,1.116211,-0.3325195,-0.07324219,-0.3857422,-0.05419922
581,-27.6875,48.5625,13.0625,0.1674805,1.251953,-0.359375,-0.07470703,-0.3857422,-0.05859375
585,-40.5,25.3125,7.1875,0.2104492,1.349121,-0.3666992,-0.07470703,-0.3833008,-0.06103516
589,-49.375,16.75,-4.375,0.4467773,1.337402,-0.2592773,-0.07470703,-0.3833008,-0.06640625
593,-45.25,34.5,-2.3125,0.4038086,1.353027,-0.1821289,-0.07568359,-0.3833008,-0.07080078
597,-48.0625,40.375,8.3125,0.190918,1.539551,-0.2900391,-0.07470703,-0.3818359,-0.07470703
601,-58.6875,26.1875,25.25,0.1713867,1.597656,-0.3286133,-0.07324219,-0.3803711,-0.08007813
606,-65.3125,12.6875,28.5625,0.4580078,1.601563,-0.2670898,-0.07714844,-0.3793945,-0.08837891
610,-56.5625,9.5625,15.9375,0.6518555,1.597656,-0.1860352,-0.07958984,-0.3793945,-0.09082031
614,-43.875,9.5,5.0625,0.6289063,1.745605,-0.1245117,-0.07958984,-0.3769531,-0.09521484
618,-36.9375,0.6875,3.875,0.578125,1.827148,-0.1474609,-0.08056641,-0.3769531,-0.1005859
622,-26.1875,-3.4375,4.625,0.7412109,1.749512,-0.08203125,-0.07958984,-0.3769531,-0.1020508
626,-11.375,5.875,-2.4375,0.7797852,1.772461,-0.07861328,-0.07958984,-0.3754883,-0.1044922
630,1.5,14.125,-7.125,0.690918,1.834961,-0.0859375,-0.07958984,-0.3745117,-0.105957
634,6.3125,15.9375,-8.625,0.5161133,1.811523,-0.09375,-0.078125,-0.3745117,-0.1044922
638,11,3.5625,-9.875,0.3457031,1.69873,-0.08984375,-0.078125,-0.3754883,-0.1074219
642,14.0625,-9.25,-10,0.3149414,1.559082,-0.05908203,-0.07714844,-0.3754883,-0.1035156
646,23.5,-15.875,-12.5,0.3032227,1.415039,-0.06689453,-0.07568359,-0.3754883,-0.1035156
650,31.1875,-19.8125,-16.375,0.2954102,1.384277,-0.128418,-0.07568359,-0.3779297,-0.1005859
654,35.1875,-23.1875,-21.75,0.3925781,1.477539,-0.1708984,-0.07324219,-0.3779297,-0.09521484
658,34.3125,-11.9375,-22.1875,0.4814453,1.49707,-0.1206055,-0.07324219,-0.3793945,-0.09375
662,30.375,14.875,-15.25,0.4931641,1.454102,-0.05517578,-0.07128906,-0.3803711,-0.08837891
666,31.25,38.125,-2.1875,0.2373047,1.473633,-0.112793,-0.06982422,-0.3793945,-0.08837891
670,32.5625,27.5625,5,-0.002441406,1.504395,-0.2055664,-0.06982422,-0.3818359,-0.08544922
674,31.0625,-23.6875,-3.0625,-0.1499023,1.578613,-0.3901367,-0.07128906,-0.3818359,-0.08447266
678,33.5625,-96.5,-32.625,0.07861328,1.59375,-0.4282227,-0.06884766,-0.3833008,-0.07861328
682,32.9375,-103.5625,-49.4375,0.7099609,1.461914,-0.1708984,-0.06884766,-0.3857422,-0.07617188
686,33.3125,-49.0625,-44.25,0.9462891,1.345215,-0.09765625,-0.06494141,-0.3842773,-0.06787109
690,23.4375,8.5625,-37.4375,0.6982422,1.291016,-0.3129883,-0.06054688,-0.3867188,-0.06787109
694,2.9375,18.5,-41.8125,0.2915039,1.380371,-0.4628906,-0.05908203,-0.3881836,-0.06787109
698,-19.4375,8.6875,-32.6875,0.05517578,1.162598,-0.4052734,-0.05322266,-0.3881836,-0.06542969
702,-20.6875,0.1875,-20.0625,0.07470703,0.875,-0.2436523,-0.04980469,-0.3881836,-0.06787109
706,-22.25,-9.1875,-27.75,0.09375,0.6884766,-0.2055664,-0.04980469,-0.3867188,-0.07080078
710,-24.9375,-20.875,-43.1875,0.1015625,0.5527344,-0.2475586,-0.04492188,-0.3891602,-0.07080078
714,-21.4375,-20,-40.125,0.140625,0.4790039,-0.3476563,-0.04394531,-0.3891602,-0.07470703
718,-36.4375,-12.75,-37.5,0.1870117,0.7119141,-0.4169922,-0.04003906,-0.3891602,-0.07617188
722,-68,4.125,-8.625,0.07861328,0.6538086,-0.359375,-0.03662109,-0.3867188,-0.08154297
726,-91.5625,9.0625,16.125,0.0009765625,0.3544922,-0.2631836,-0.03759766,-0.3867188,-0.08984375
730,-91.4375,-0.4375,14.125,0.04736328,0.1254883,-0.1513672,-0.03759766,-0.3842773,-0.09521484
735,-86.625,-14.25,-0.9375,0.1132813,0.07861328,-0.128418,-0.03759766,-0.3818359,-0.105957
739,-81.6875,-21.8125,-6.25,0.1674805,0.04736328,-0.02832031,-0.0390625,-0.3779297,-0.112793
743,-72.5625,-22.6875,-2.5625,0.1948242,0.04394531,-0.005371094,-0.03759766,-0.3779297,-0.1166992
747,-72.1875,-21.5625,-1.0625,0.2412109,0.21875,0.02099609,-0.0390625,-0.3754883,-0.1235352
751,-63.4375,-13.125,0,0.2607422,0.1875,0.07128906,-0.04003906,-0.3745117,-0.1289063
755,-51.5625,-2.125,-2.1875,0.2294922,0.21875,0.1210938,-0.04003906,-0.3706055,-0.1333008
759,-26.5,10.875,0.4375,0.206543,0.09814453,0.1557617,-0.04003906,-0.3706055,-0.137207
763,-0.9375,21.75,-2.6875,0.1870117,0.2148438,0.105957,-0.0390625,-0.371582,-0.1401367
767,13.4375,29,-2.3125,0.1328125,0.3427734,0.1132813,-0.0390625,-0.3691406,-0.1386719
771,26.125,29.5,1.9375,-0.002441406,0.3466797,0.09814453,-0.03662109,-0.3706055,-0.1401367
775,43.5,17.0625,8.625,-0.1303711,0.3349609,0.01708984,-0.03662109,-0.371582,-0.1347656
779,56.4375,-6.625,11.3125,-0.1884766,0.4711914,-0.1362305,-0.03759766,-0.3730469,-0.1333008
783,59.25,-32.125,12.75,-0.1108398,0.6342773,-0.3051758,-0.0390625,-0.3745117,-0.1264648
787,53.625,-40.75,17.125,0.1132813,0.8168945,-0.3666992,-0.04150391,-0.3754883,-0.1210938
791,42.875,-31.8125,22,0.2607422,0.8051758,-0.309082,-0.04248047,-0.3754883,-0.1157227
795,35.0625,-11.75,32.5625,0.3378906,0.7626953,-0.1899414,-0.04736328,-0.3769531,-0.1113281
799,31.125,1,36.375,0.2758789,0.6884766,-0.1552734,-0.05078125,-0.3779297,-0.1074219
803,29.6875,-0.1875,33.375,0.2177734,0.6069336,-0.07080078,-0.05224609,-0.3779297,-0.1088867
807,33.875,-11.6875,29.5625,0.1713867,0.5722656,-0.03613281,-0.05419922,-0.3779297,-0.1035156
811,45.4375,-25.75,21.5625,0.2216797,0.5527344,-0.04394531,-0.05810547,-0.3793945,-0.1005859
815,43.0625,-31.625,8.3125,0.3535156,0.7666016,-0.07861328,-0.06054688,-0.3803711,-0.09765625
819,36.0625,-10.5,19.6875,0.4697266,0.6733398,-0.02832031,-0.06152344,-0.3803711,-0.09228516
823,35.875,14.6875,31.75,0.4506836,0.5878906,-0.01318359,-0.06152344,-0.3803711,-0.08837891
827,45.25,21.6875,30.6875,0.2412109,0.6811523,-0.1245117,-0.06494141,-0.3803711,-0.08691406
831,50.4375,5.75,15.5625,0.1713867,0.8168945,-0.1938477,-0.06738281,-0.3818359,-0.08007813
835,45.6875,-11.1875,2.625,0.1831055,0.9335938,-0.2475586,-0.06982422,-0.3833008,-0.07861328
839,34.1875,-6.25,4.4375,0.3457031,1.019043,-0.2324219,-0.07128906,-0.3818359,-0.07470703
843,22.3125,15.1875,13.1875,0.3730469,0.956543,-0.1899414,-0.06982422,-0.3833008,-0.07080078
847,20.0625,35.75,18.5625,0.2875977,0.921875,-0.1206055,-0.07128906,-0.3842773,-0.06933594
851,18.9375,43.6875,27.6875,0.08642578,1.034668,-0.1782227,-0.07470703,-0.3833008,-0.06787109
855,12.875,21.3125,26.5625,-0.01806641,1.073242,-0.2514648,-0.07568359,-0.3818359,-0.06542969
859,5.5625,-10.0625,20.0625,0.1054688,1.084961,-0.2861328,-0.07568359,-0.3833008,-0.06640625
864,3.5625,-20.25,9.75,0.3339844,1.081055,-0.2397461,-0.078125,-0.3818359,-0.06640625
868,1.125,-2.1875,8.5625,0.4814453,1.077148,-0.1669922,-0.07958984,-0.3818359,-0.06542969
872,0.5625,25.75,18.5,0.4389648,1.12793,-0.1977539,-0.08056641,-0.3803711,-0.06542969
876,-3.5625,34.3125,19.375,0.2875977,1.174316,-0.2553711,-0.08300781,-0.3833008,-0.06787109
880,-10.0625,26.4375,13.5,0.2724609,1.248047,-0.2822266,-0.08300781,-0.3833008,-0.06787109
884,-13.125,23.75,8.375,0.3339844,1.209473,-0.1899414,-0.08398438,-0.3803711,-0.06933594
888,-18.9375,25.8125,9.25,0.3071289,1.251953,-0.2089844,-0.08398438,-0.3803711,-0.07080078
892,-22.125,20.4375,10,0.3417969,1.244141,-0.2324219,-0.08544922,-0.3793945,-0.07324219
896,-22.1875,27.1875,11.625,0.5048828,1.221191,-0.1591797,-0.08398438,-0.3803711,-0.07861328
900,-19.5625,50.4375,16.125,0.5820313,1.283203,-0.1401367,-0.08642578,-0.3793945,-0.07861328
904,-27,70,15.875,0.5087891,1.372559,-0.2089844,-0.08398438,-0.3779297,-0.08300781
908,-34.8125,70.1875,14,0.3496094,1.454102,-0.2978516,-0.08642578,-0.3769531,-0.08837891
912,-47.25,56.9375,8.9375,0.3417969,1.586426,-0.3632813,-0.08789063,-0.3754883,-0.09082031
916,-53.1875,53.4375,15.75,0.3886719,1.438477,-0.2822266,-0.08544922,-0.3754883,-0.09765625
920,-44.75,60.25,33.125,0.4389648,1.489258,-0.2744141,-0.08789063,-0.3745117,-0.1035156
924,-36.625,53.6875,32.375,0.4736328,1.52002,-0.2670898,-0.08789063,-0.3706055,-0.1074219
928,-28.3125,35.6875,21.5625,0.5317383,1.570801,-0.2592773,-0.09033203,-0.3706055,-0.112793
932,-17.3125,15.1875,4.8125,0.6171875,1.539551,-0.1938477,-0.08886719,-0.3681641,-0.1157227
936,-4.0625,1.5625,-11.6875,0.6982422,1.516113,-0.128418,-0.09033203,-0.3681641,-0.1142578
940,6.0625,4.5,-20.75,0.8071289,1.523926,-0.04003906,-0.08886719,-0.3691406,-0.1157227
944,12.125,27.4375,-13.875,0.8300781,1.566895,0.009765625,-0.08544922,-0.3706055,-0.1157227
948,10.75,41.0625,-7.4375,0.6674805,1.613281,0.009765625,-0.08398438,-0.3706055,-0.112793
952,12.1875,33.5,-0.75,0.4619141,1.652344,0.02099609,-0.08300781,-0.3730469,-0.1166992
956,17.375,8.3125,-4.8125,0.3613281,1.590332,0.1367188,-0.08300781,-0.371582,-0.112793
960,28.3125,-13.25,-2.5625,0.3808594,1.46582,0.1787109,-0.08203125,-0.371582,-0.1142578
964,53.1875,-26.75,-11.125,0.4892578,1.259766,0.2368164,-0.08203125,-0.3730469,-0.1088867
968,80.625,-22,-24.5,0.4541016,1.349121,0.1518555,-0.08056641,-0.3745117,-0.1035156
972,103.5,-22.4375,-34.125,0.1328125,1.415039,0.02099609,-0.078125,-0.3754883,-0.09521484
976,94.875,-58.5625,-21.5,-0.1884766,1.788086,-0.2783203,-0.07714844,-0.3793945,-0.08691406
980,67,-113.5625,-14.5625,-0.006347656,1.807617,-0.4360352,-0.07568359,-0.3803711,-0.07763672
984,47.5,-118.5625,-7.5625,0.4389648,1.535645,-0.3051758,-0.078125,-0.3803711,-0.06787109
988,38.375,-84.5625,3.0625,0.6054688,1.446289,-0.3168945,-0.078125,-0.3833008,-0.0625
993,27.375,-50.125,2,0.5629883,1.306641,-0.3051758,-0.07958984,-0.3842773,-0.05712891
997,10.1875,-26.625,2.6875,0.5126953,1.158691,-0.2861328,-0.07958984,-0.3833008,-0.05566406
1001,2.5625,-3.75,3.5625,0.4077148,0.8364258,-0.1899414,-0.08056641,-0.3833008,-0.05273438
1005,-0.6875,3.5,5.625,0.159668,0.7739258,-0.3129883,-0.08203125,-0.3803711,-0.05273438
1009,-15.25,-11.0625,0,0.1015625,0.7431641,-0.4091797,-0.08203125,-0.3803711,-0.05419922
1013,-25.0625,-15.375,-6.3125,0.2875977,0.5644531,-0.3286133,-0.08056641,-0.3818359,-0.05566406
1017,-29.875,-4,-12.375,0.3613281,0.4790039,-0.2978516,-0.08056641,-0.3818359,-0.05712891
1021,-39.375,3.875,-25,0.3417969,0.4243164,-0.309082,-0.07958984,-0.3803711,-0.05957031
1025,-35.625,15.5625,-17.375,0.2490234,0.15625,-0.2822266,-0.07714844,-0.3818359,-0.06542969
1029,-33.1875,15.5,-18.25,0.1557617,0.3818359,-0.394043,-0.07324219,-0.3818359,-0.06787109
1033,-48.75,5.5625,-25.1875,0.1054688,0.5410156,-0.4208984,-0.07470703,-0.3818359,-0.07080078
1037,-72,3.6875,-11,0.1210938,0.4165039,-0.309082,-0.07128906,-0.3803711,-0.07763672
1041,-75.6875,4.875,9.9375,0.1210938,0.1953125,-0.2055664,-0.06982422,-0.3803711,-0.08544922
1045,-63.375,-5.125,13.5,0.140625,0.07861328,-0.1743164,-0.07128906,-0.3754883,-0.08984375
1049,-50.6875,-19.0625,1.5,0.1289063,0.1796875,-0.1245117,-0.07226563,-0.3769531,-0.09521484
1053,-48.6875,-33.125,5.3125,0.09033203,0.3271484,-0.06298828,-0.07226563,-0.3745117,-0.09667969
1057,-53.9375,-39.625,11.0625,0.3071289,0.21875,0.140625,-0.07324219,-0.3754883,-0.09912109
1061,-36.25,-19.6875,19.5,0.5820313,-0.04150391,0.3095703,-0.07470703,-0.371582,-0.1035156
1065,-3.0625,10.125,0.9375,0.6713867,-0.002441406,0.2597656,-0.07714844,-0.3706055,-0.1044922
1069,24.125,27.75,-21.75,0.4970703,0.2070313,0.125,-0.078125,-0.3706055,-0.105957
1073,40.25,34.5625,-21.6875,0.206543,0.2651367,-0.01660156,-0.07324219,-0.3730469,-0.1044922
1077,56.4375,19.875,-10.5625,-0.02587891,0.4321289,-0.2397461,-0.06982422,-0.3745117,-0.1020508
1081,61.625,-7.25,-9.375,-0.03710938,0.5952148,-0.4628906,-0.07226563,-0.3754883,-0.09765625
1085,53.6875,-21.0625,-8.3125,0.125,0.7626953,-0.5400391,-0.06884766,-0.3779297,-0.09228516
1089,35.6875,-15.5625,-4.8125,0.2490234,0.7895508,-0.4975586,-0.06982422,-0.3803711,-0.08837891
1093,26.875,-1.5,5.75,0.2568359,0.6962891,-0.4130859,-0.06982422,-0.3779297,-0.08447266
1097,22.25,-0.4375,6,0.1289063,0.7158203,-0.4477539,-0.07226563,-0.3793945,-0.08154297
1101,22.1875,-18.6875,6.625,0.02832031,0.6655273,-0.4628906,-0.07128906,-0.3803711,-0.08007813
1105,16.5625,-34.875,6.5,0.175293,0.7470703,-0.4438477,-0.07128906,-0.3803711,-0.07861328
1109,9.5,-29.1875,10.25,0.3378906,0.6342773,-0.3359375,-0.07226563,-0.3803711,-0.07324219
1113,8.4375,-8.0625,15.375,0.4272461,0.5952148,-0.2436523,-0.07324219,-0.3803711,-0.07324219
1117,4.5625,12.375,17.8125,0.3613281,0.5761719,-0.1899414,-0.07470703,-0.3803711,-0.07470703
1122,5.5625,20.3125,25.8125,0.1987305,0.4516602,-0.1591797,-0.07714844,-0.3779297,-0.07324219
1126,18,9.125,27.125,0.125,0.4868164,-0.2324219,-0.07958984,-0.3793945,-0.07177734
1130,22,-5.375,11.75,0.2797852,0.6264648,-0.2436523,-0.08203125,-0.3793945,-0.07080078
1134,23.1875,0.4375,9.375,0.4467773,0.6264648,-0.1821289,-0.08203125,-0.3793945,-0.06787109
1138,21.75,15.8125,6.4375,0.4077148,0.6923828,-0.1899414,-0.08300781,-0.3793945,-0.06640625
1142,14.3125,22.8125,5.4375,0.2954102,0.7856445,-0.2016602,-0.08544922,-0.3803711,-0.06640625
1146,8.375,21.8125,12.125,0.206543,0.7587891,-0.1821289,-0.08398438,-0.3818359,-0.06542969
1150,2.625,15.1875,18.6875,0.2607422,0.8442383,-0.2207031,-0.08544922,-0.3793945,-0.06396484
1154,-0.4375,7.0625,10.375,0.4077148,0.8828125,-0.2861328,-0.08544922,-0.3803711,-0.06542969
1158,-0.0625,10.5625,-5.3125,0.5048828,0.875,-0.2900391,-0.08642578,-0.3793945,-0.06640625
1162,-2.9375,22.1875,-12.5625,0.4541016,0.9604492,-0.3051758,-0.08642578,-0.3818359,-0.06640625
1166,-14.875,37.625,-5.625,0.3496094,1.073242,-0.2900391,-0.08544922,-0.3793945,-0.06640625
1170,-23.3125,38.4375,5.5,0.1987305,1.061523,-0.2861328,-0.08544922,-0.3779297,-0.06933594
1174,-30.6875,20.875,2.0625,0.206543,1.12793,-0.2978516,-0.08398438,-0.3793945,-0.07324219
1178,-31.625,4.6875,-9.0625,0.3110352,1.022949,-0.2167969,-0.08398438,-0.3779297,-0.07470703
1182,-29.1875,7.0625,-13.1875,0.4155273,1.186035,-0.1513672,-0.08203125,-0.3793945,-0.08007813
1186,-32.9375,28.5625,-11.5,0.4311523,1.158691,-0.05517578,-0.08203125,-0.3793945,-0.08154297
1190,-33.75,58.625,5.125,0.3110352,1.232422,-0.06689453,-0.08056641,-0.3779297,-0.08300781
1194,-36.25,65.125,17.5625,0.07080078,1.321777,-0.07861328,-0.08056641,-0.3779297,-0.08837891
1198,-38.3125,41.9375,29,-0.1030273,1.43457,-0.112793,-0.08203125,-0.3769531,-0.09375
1202,-50.1875,-6.6875,20.75,-0.09912109,1.500488,-0.1206055,-0.08300781,-0.3754883,-0.09912109
1206,-54.25,-37.9375,18.25,0.2255859,1.298828,0.02880859,-0.08398438,-0.3730469,-0.1035156
1210,-45,-25.3125,24.6875,0.5668945,1.178223,0.1713867,-0.08886719,-0.3730469,-0.1074219
1214,-27.6875,-2.5,23.0625,0.6831055,1.154785,0.2211914,-0.08886719,-0.3706055,-0.1088867
1218,-16,3.75,15.6875,0.609375,1.317871,0.140625,-0.09130859,-0.3691406,-0.1113281
1222,-15.25,-9.5625,2.375,0.6015625,1.380371,0.1098633,-0.09130859,-0.3681641,-0.1098633
1226,-11.6875,-16.375,-1.9375,0.675293,1.314453,0.1328125,-0.09375,-0.3691406,-0.1142578
1230,-3.375,-11.6875,-2.0625,0.7373047,1.345215,0.140625,-0.09228516,-0.3681641,-0.1142578
1234,3.8125,-4.5,-4.6875,0.7680664,1.399902,0.125,-0.09472656,-0.3691406,-0.1142578
1238,11.1875,3.8125,-8.25,0.7412109,1.458008,0.07128906,-0.09130859,-0.3681641,-0.112793
1242,19,9.125,-13.6875,0.7177734,1.481445,0.02099609,-0.09130859,-0.3681641,-0.112793
1246,29.8125,12.4375,-18.6875,0.6635742,1.516113,-0.06298828,-0.08886719,-0.371582,-0.1098633
1251,35.1875,4.75,-27.6875,0.5551758,1.664063,-0.1435547,-0.08886719,-0.371582,-0.1088867
1255,38.4375,-3.6875,-31.1875,0.527832,1.702637,-0.1166992,-0.08642578,-0.371582,-0.1044922
1259,38.8125,0.375,-24.9375,0.5239258,1.745605,-0.0859375,-0.08300781,-0.3745117,-0.1005859
1263,43.5625,1.625,-19.125,0.4155273,1.671875,-0.0859375,-0.08203125,-0.3754883,-0.09912109
1267,50.1875,-7.0625,-17.375,0.3266602,1.722168,-0.08984375,-0.07958984,-0.3779297,-0.09521484
1271,51.375,-21.25,-12.0625,0.3613281,1.718262,-0.04394531,-0.07958984,-0.3793945,-0.08984375
1275,58.125,-14.6875,9.875,0.5395508,1.539551,0.02099609,-0.07958984,-0.3793945,-0.08447266
1279,62.375,6.875,19.9375,0.644043,1.461914,-0.02050781,-0.07958984,-0.3793945,-0.07861328
1283,73.875,46.5,31.25,0.7602539,1.341309,-0.04003906,-0.08203125,-0.3833008,-0.06933594
1287,74.75,85.4375,43.375,0.6635742,1.403809,-0.2016602,-0.08300781,-0.3803711,-0.06787109
1291,67.5,91.3125,40.5625,0.3808594,1.454102,-0.4169922,-0.08789063,-0.3818359,-0.0625
1295,63.1875,65.5,16.0625,0.1484375,1.376465,-0.4902344,-0.08642578,-0.3818359,-0.05957031
1299,54.25,22.1875,-0.625,-0.1069336,1.407715,-0.6171875,-0.08789063,-0.3793945,-0.05712891
1303,33,-19.0625,-7.4375,-0.05273438,1.345215,-0.5244141,-0.08789063,-0.3803711,-0.05273438
1307,12.4375,-31.0625,2.75,0.175293,1.197754,-0.3745117,-0.08886719,-0.3842773,-0.04882813
1311,-1.875,-11.8125,12.6875,0.4155273,1.034668,-0.2553711,-0.08886719,-0.3803711,-0.04736328
1315,-1.6875,10.6875,15.4375,0.3652344,0.8481445,-0.2475586,-0.09033203,-0.3803711,-0.04638672
1319,-5.0625,8.875,2,0.190918,0.9140625,-0.359375,-0.09033203,-0.3803711,-0.04736328
1323,-14.5625,-14.125,-8,0.109375,0.840332,-0.378418,-0.09130859,-0.3803711,-0.05029297
1327,-29.875,-29.125,-2.5625,0.1948242,0.7666016,-0.3515625,-0.09033203,-0.3793945,-0.04882813
1331,-48.5,-36.9375,-1.9375,0.3227539,0.6616211,-0.3325195,-0.09033203,-0.3779297,-0.05419922
1335,-58.9375,-27.75,-5.3125,0.4775391,0.3857422,-0.3129883,-0.09033203,-0.3769531,-0.05566406
1339,-54.1875,-5.9375,-12.6875,0.5087891,0.1992188,-0.2397461,-0.08789063,-0.3793945,-0.05957031
1343,-43.625,15.8125,-8.5625,0.3847656,0.140625,-0.2514648,-0.08642578,-0.3779297,-0.06640625
1347,-50.5,17.4375,-11,0.2138672,0.3041992,-0.359375,-0.08789063,-0.3779297,-0.06933594
1351,-69.4375,10.25,-4.3125,0.1870117,0.3701172,-0.2592773,-0.08544922,-0.3754883,-0.07617188
1355,-86,12,0.0625,0.3110352,0.1137695,-0.07470703,-0.08398438,-0.3779297,-0.08447266
1359,-74.125,30.4375,3.875,0.3847656,-0.1459961,0.04443359,-0.08544922,-0.3754883,-0.08984375
1363,-55.125,45.875,-2.125,0.3457031,-0.09570313,0.1020508,-0.08300781,-0.371582,-0.09765625
1367,-30.25,48,-11.6875,0.2333984,0.01269531,0.1020508,-0.08300781,-0.3706055,-0.1035156
1371,-9.875,34.75,-16.9375,0.08251953,0.1757813,0.02099609,-0.08203125,-0.3706055,-0.1044922
1375,5,9.9375,-19.9375,0.02832031,0.300293,-0.1166992,-0.07958984,-0.3730469,-0.1044922
1380,15.375,-3.75,-15.3125,0.1445313,0.4438477,-0.2324219,-0.07714844,-0.3706055,-0.105957
1384,16.375,-1.5,-7.125,0.2255859,0.5410156,-0.2822266,-0.07568359,-0.3745117,-0.1020508
1388,19.125,8.0625,10.5625,0.2412109,0.5019531,-0.3051758,-0.07568359,-0.3730469,-0.1044922
1392,27.1875,5.1875,16.8125,0.1674805,0.5449219,-0.4321289,-0.07714844,-0.3745117,-0.1005859
1396,27.5,-18.125,11,0.09375,0.6845703,-0.5170898,-0.078125,-0.3745117,-0.09667969
1400,20.625,-45.375,8.5,0.1445313,0.7001953,-0.5092773,-0.07958984,-0.3730469,-0.09667969
1404,11.3125,-61.3125,3.5,0.3652344,0.6811523,-0.4399414,-0.08056641,-0.3769531,-0.09082031
1408,4.125,-42.9375,2.4375,0.6518555,0.6147461,-0.3325195,-0.08300781,-0.3754883,-0.09082031
1412,-0.0625,-9.75,2.125,0.6401367,0.5644531,-0.3208008,-0.08300781,-0.3745117,-0.09082031
1416,10.8125,5.8125,11.5,0.4077148,0.3857422,-0.3129883,-0.08398438,-0.3754883,-0.09082031
1420,22.75,-1.875,15.25,0.2026367,0.5800781,-0.3974609,-0.08544922,-0.3754883,-0.08691406
1424,13.75,-28.0625,12.75,0.1289063,0.7080078,-0.3974609,-0.08642578,-0.3745117,-0.08691406
1428,0.5,-47.0625,7.4375,0.2724609,0.5566406,-0.2939453,-0.08886719,-0.3745117,-0.08300781
1432,4.8125,-44,-5.5,0.4658203,0.4399414,-0.1860352,-0.08886719,-0.3730469,-0.08154297
1436,17.25,-33,-22.3125,0.4311523,0.4516602,-0.1669922,-0.08886719,-0.3745117,-0.08154297
1440,29.5,-11.875,-1.875,0.3535156,0.4282227,-0.1362305,-0.08789063,-0.3769531,-0.07763672
1444,25.0625,7.375,15.375,0.3613281,0.6030273,-0.128418,-0.08789063,-0.3779297,-0.07617188
1448,15.625,15.125,19.875,0.2875977,0.6069336,-0.1591797,-0.08886719,-0.3769531,-0.07324219
1452,14.3125,-0.1875,13.125,0.1171875,0.6616211,-0.2016602,-0.09130859,-0.3745117,-0.07177734
1456,11.75,-38.1875,-1.8125,0.02050781,0.7666016,-0.2436523,-0.09130859,-0.3769531,-0.07080078
1460,7.25,-65.4375,-9.8125,0.2646484,0.7739258,-0.1860352,-0.09130859,-0.3769531,-0.06787109
1464,0.6875,-44.125,-5.0625,0.6362305,0.7739258,-0.07470703,-0.09375,-0.3769531,-0.06640625
1468,-5.125,2.4375,12.75,0.6713867,0.7666016,-0.01660156,-0.09375,-0.3769531,-0.06542969
1472,-7.125,28.625,15.9375,0.4467773,0.8325195,-0.08203125,-0.09472656,-0.3769531,-0.06640625
1476,-7.4375,20.125,8.6875,0.2026367,0.90625,-0.1782227,-0.09619141,-0.3745117,-0.06933594
1480,-9.625,-5.0625,1.5,0.02050781,1.073242,-0.2939453,-0.09619141,-0.3769531,-0.06933594
1484,-24.6875,-27,1.25,0.1870117,1.189941,-0.2705078,-0.09619141,-0.3779297,-0.07177734
1488,-34,-14.75,15.4375,0.4467773,1.124023,-0.2055664,-0.09716797,-0.3745117,-0.07080078
1492,-43.75,5.375,13.9375,0.5708008,1.217285,-0.2055664,-0.09716797,-0.3745117,-0.07324219
1496,-44.875,26.625,10,0.5087891,1.174316,-0.1513672,-0.09960938,-0.371582,-0.08154297
1500,-40.875,34.6875,9.875,0.2797852,1.205566,-0.08984375,-0.09960938,-0.3730469,-0.08447266
1504,-45.6875,26.375,18.25,0.1948242,1.306641,-0.04003906,-0.09960938,-0.3706055,-0.08691406
1509,-56.375,10.1875,25.0625,0.2685547,1.337402,-0.009277344,-0.1030273,-0.3706055,-0.09228516
1513,-58.375,3.8125,27.4375,0.4155273,1.228516,0.04785156,-0.1044922,-0.3666992,-0.09765625
1517,-50.0625,2.375,21.8125,0.4428711,1.20166,0.09814453,-0.1069336,-0.3657227,-0.1020508
1521,-38.0625,-6.5625,19.5,0.4038086,1.240234,0.06347656,-0.1069336,-0.3642578,-0.1074219
1525,-35.75,-23.3125,9.125,0.5551758,1.384277,0.02880859,-0.109375,-0.3632813,-0.1088867
1529,-34.25,-31.6875,-4.625,0.7680664,1.302734,0.05957031,-0.1113281,-0.3632813,-0.112793
1533,-28.0625,-13.1875,-7.8125,0.9541016,1.333496,0.140625,-0.109375,-0.3618164,-0.112793
1537,-25.5625,20,-0.6875,0.8842773,1.422852,0.1210938,-0.1103516,-0.3618164,-0.1166992
1541,-25.9375,37,7.5625,0.7797852,1.49707,0.1171875,-0.1103516,-0.3603516,-0.1196289
1545,-20.375,30.75,3.25,0.6674805,1.49707,0.03662109,-0.109375,-0.3618164,-0.1210938
1549,-4.625,13.125,-9.6875,0.6557617,1.450195,0.05957031,-0.1079102,-0.359375,-0.1225586
1553,12,-1.375,-27.6875,0.7216797,1.547363,0.05175781,-0.1079102,-0.3579102,-0.1235352
1557,20.25,-2.8125,-37.375,0.6948242,1.539551,0.06347656,-0.1030273,-0.3632813,-0.1235352
1561,33.375,-2.125,-33.75,0.6054688,1.481445,0.001953125,-0.1010742,-0.3632813,-0.1210938
1565,42,-1.6875,-31.125,0.5551758,1.59375,-0.0859375,-0.09863281,-0.3642578,-0.1181641
1569,37.625,5,-22.875,0.5859375,1.69873,-0.09765625,-0.09619141,-0.3657227,-0.1157227
1573,29,3.625,-15.3125,0.4580078,1.675781,-0.1166992,-0.09375,-0.3666992,-0.1098633
1577,28.25,-14.75,-16.125,0.4389648,1.559082,-0.07080078,-0.09375,-0.3691406,-0.1088867
1581,43.125,-24.1875,-27.375,0.574707,1.43457,0.03662109,-0.09375,-0.3730469,-0.1044922
1585,66.875,-11.125,-36.3125,0.6557617,1.356934,0.1479492,-0.09033203,-0.371582,-0.1020508
1589,89.5625,9.6875,-33.9375,0.5239258,1.473633,0.105957,-0.08886719,-0.3745117,-0.09521484
1593,94.375,16.5,-25.375,0.3032227,1.640625,-0.07080078,-0.08398438,-0.3779297,-0.08544922
1597,85.125,3.875,-21.5,0.2333984,1.706543,-0.1782227,-0.08203125,-0.3803711,-0.08007813
1601,75.125,-2.5,-20.1875,0.3110352,1.597656,-0.1938477,-0.078125,-0.3793945,-0.07324219
1605,68.125,10.1875,-12.125,0.3266602,1.58252,-0.2285156,-0.078125,-0.3833008,-0.06640625
1609,52.5625,15.5625,-5.125,0.2104492,1.55127,-0.3051758,-0.078125,-0.3818359,-0.05957031
1613,39.8125,5.4375,-6.0625,0.1831055,1.345215,-0.3325195,-0.07714844,-0.3842773,-0.05712891
1617,31.5,-6.0625,-14.25,0.1674805,1.186035,-0.378418,-0.07568359,-0.3857422,-0.05419922
1621,16.375,-19.9375,-24.0625,0.109375,1.12793,-0.4282227,-0.07568359,-0.3857422,-0.05175781
1625,-0.375,-32.0625,-24.75,0.1289063,1.06543,-0.4208984,-0.07226563,-0.3857422,-0.05029297
1629,-21.25,-30.875,-16.9375,0.2685547,0.90625,-0.4169922,-0.07128906,-0.3842773,-0.04882813
1633,-32.25,-17.8125,-13.375,0.3847656,0.7158203,-0.4360352,-0.06982422,-0.3842773,-0.05175781
1638,-38.875,0,-20.1875,0.4467773,0.5292969,-0.4130859,-0.06738281,-0.3857422,-0.05419922
1642,-37.4375,23.6875,-29,0.4077148,0.4321289,-0.3632813,-0.06738281,-0.3867188,-0.05859375
1646,-36.9375,37.1875,-29.125,0.1713867,0.4790039,-0.4052734,-0.06298828,-0.3842773,-0.06396484
1650,-56.6875,37.875,-14.8125,0.04736328,0.5566406,-0.3901367,-0.05908203,-0.3857422,-0.06542969
1654,-73.75,26.5,6,-0.04492188,0.4555664,-0.4282227,-0.05810547,-0.3857422,-0.07470703
1658,-85.375,-5.125,-3.4375,-0.006347656,0.3427734,-0.4824219,-0.05908203,-0.3818359,-0.08007813
1662,-86.3125,-30.0625,-16.1875,0.09033203,0.1914063,-0.4091797,-0.05908203,-0.3803711,-0.08544922
1666,-91.5625,-25.875,-4.8125,0.2836914,0.2573242,-0.2822266,-0.05664063,-0.3803711,-0.08984375
1670,-107.375,-8.4375,16.9375,0.2954102,0.1679688,-0.07470703,-0.05810547,-0.3769531,-0.1035156
1674,-103.875,4.375,32.4375,0.3110352,-0.1733398,0.2749023,-0.06054688,-0.3754883,-0.1113281
1678,-79.1875,8.625,29.875,0.2373047,-0.2353516,0.3979492,-0.06298828,-0.371582,-0.1196289
1682,-33.5,0.1875,2.875,0.2758789,-0.3286133,0.4941406,-0.06396484,-0.3706055,-0.1264648
1686,16.8125,3.1875,-17.625,0.3071289,-0.002441406,0.3095703,-0.06396484,-0.3681641,-0.125
1690,40.125,15.0625,-22.6875,0.2451172,0.3740234,0.06347656,-0.06152344,-0.3681641,-0.1264648
1694,48.125,23.625,-3.625,0.02441406,0.5214844,-0.2285156,-0.06054688,-0.3730469,-0.1196289
1698,46.5625,11.6875,12.1875,-0.1186523,0.6264648,-0.4746094,-0.05908203,-0.3745117,-0.1181641
1702,41.125,-13,19.0625,-0.07226563,0.7856445,-0.5786133,-0.05908203,-0.3754883,-0.1142578
1706,30.875,-26.75,20.5625,0.1132813,0.6694336,-0.5131836,-0.06152344,-0.3754883,-0.1098633
1710,38.25,-34.125,23.4375,0.1713867,0.5913086,-0.5244141,-0.06396484,-0.3745117,-0.105957
1714,37.25,-46.125,17.5,0.2177734,0.7431641,-0.5322266,-0.06884766,-0.3754883,-0.1035156
1718,24.5,-47.5625,19.6875,0.3999023,0.7856445,-0.4052734,-0.07128906,-0.3745117,-0.09912109
1722,13.25,-24.875,29.5625,0.609375,0.6147461,-0.1860352,-0.07324219,-0.3769531,-0.09765625
1726,14.125,-1.4375,32.875,0.578125,0.4399414,-0.06689453,-0.07714844,-0.3769531,-0.09375
1730,22.3125,0.3125,20.875,0.4194336,0.4165039,-0.06689453,-0.07958984,-0.3730469,-0.09228516
1734,27.8125,-14.6875,7.625,0.3071289,0.4086914,-0.05126953,-0.07958984,-0.3769531,-0.08984375
1738,33.5,-23,6.3125,0.4077148,0.3583984,-0.009277344,-0.08203125,-0.3754883,-0.08984375
1742,43,-13.75,5.875,0.5126953,0.4086914,-0.01318359,-0.08203125,-0.3769531,-0.08300781
1746,41.8125,-4.5,1.4375,0.4428711,0.6030273,-0.1323242,-0.08300781,-0.3769531,-0.08007813
1750,31.1875,-3.4375,-1.75,0.3378906,0.5913086,-0.1708984,-0.08398438,-0.3779297,-0.07763672
1754,30.625,-0.6875,9.75,0.2993164,0.5253906,-0.1630859,-0.08300781,-0.3793945,-0.07470703
1758,35.3125,2.875,13.375,0.3339844,0.6069336,-0.1513672,-0.08398438,-0.3769531,-0.07177734
1762,42.5,-0.25,7.625,0.2412109,0.6884766,-0.2089844,-0.08544922,-0.3793945,-0.06787109
1767,39,-2.5,6.25,0.1445313,0.809082,-0.2670898,-0.08544922,-0.3803711,-0.06396484
1771,24.8125,-17.3125,13.875,0.02832031,0.9335938,-0.359375,-0.08789063,-0.3803711,-0.05957031
1775,14.25,-38.5625,13.9375,0.1713867,0.9760742,-0.3706055,-0.08886719,-0.3793945,-0.05859375
1779,9.875,-40.875,6,0.4658203,1.026855,-0.3208008,-0.09228516,-0.3803711,-0.05566406
1783,3.0625,-20.4375,3.875,0.5356445,1.073242,-0.3208008,-0.09033203,-0.3803711,-0.05419922
1787,0.1875,4.375,11.0625,0.5200195,1.022949,-0.2744141,-0.09228516,-0.3793945,-0.05419922
1791,-4.375,18.9375,13.5625,0.3457031,1.12793,-0.324707,-0.09228516,-0.3793945,-0.05566406
1795,-15.5625,12.125,10.25,0.2177734,1.244141,-0.3554688,-0.09472656,-0.3779297,-0.05566406
1799,-25.5625,-0.25,6.3125,0.2333984,1.232422,-0.3745117,-0.09472656,-0.3793945,-0.05566406
1803,-37.6875,0,2.25,0.4311523,1.146973,-0.3286133,-0.09619141,-0.3779297,-0.06103516
1807,-38.875,20.9375,-8.375,0.6401367,1.104492,-0.2207031,-0.09472656,-0.3769531,-0.06396484
1811,-30.5625,64.8125,-10.8125,0.5820313,1.007324,-0.1015625,-0.09375,-0.3779297,-0.06933594
1815,-26.125,93.9375,0.0625,0.2026367,1.213379,-0.1899414,-0.09228516,-0.3779297,-0.07470703
1819,-42.9375,74.6875,15.0625,-0.1147461,1.407715,-0.2783203,-0.09130859,-0.3779297,-0.07861328
1823,-61.6875,20.375,19.125,-0.08007813,1.356934,-0.2207031,-0.09375,-0.3754883,-0.08447266
1827,-57.875,-20.875,7.125,0.3227539,1.162598,-0.04003906,-0.09228516,-0.3745117,-0.08984375
1831,-41,-29.125,-7.75,0.6982422,1.228516,0.001953125,-0.09375,-0.371582,-0.09228516
1835,-36.125,-15.8125,-17.3125,0.9541016,1.399902,-0.05908203,-0.09130859,-0.3730469,-0.09521484
1839,-39.3125,9.375,-20.875,1.070313,1.469727,-0.02832031,-0.09375,-0.371582,-0.09765625
1843,-36.4375,38.875,-17.75,0.9814453,1.450195,-0.009277344,-0.09033203,-0.3730469,-0.1020508
1847,-28.4375,59.6875,-20.3125,0.7758789,1.415039,0.03662109,-0.08789063,-0.371582,-0.105957
1851,-15.4375,61.8125,-23.5625,0.5009766,1.415039,0.01708984,-0.08398438,-0.371582,-0.1088867
1855,-6.9375,31.8125,-34.4375,0.2026367,1.508301,-0.05517578,-0.07958984,-0.371582,-0.1113281
1859,1,-8.75,-39.1875,0.1713867,1.493164,-0.02832031,-0.078125,-0.3730469,-0.112793
1863,8.6875,-28.25,-36.875,0.3149414,1.508301,-0.01660156,-0.07324219,-0.3754883,-0.1142578
1867,14.0625,-20.5625,-25.8125,0.4155273,1.489258,-0.001464844,-0.07226563,-0.3754883,-0.1113281
1871,17,-8.125,-9.75,0.3339844,1.493164,-0.07861328,-0.07128906,-0.3754883,-0.1098633
1875,16.0625,-11.9375,-3.4375,0.3032227,1.52002,-0.128418,-0.07128906,-0.3769531,-0.1088867
1879,16.5,-18.3125,-2.9375,0.3574219,1.504395,-0.109375,-0.06982422,-0.3769531,-0.1074219
1883,20.9375,-28.125,-9.1875,0.3227539,1.438477,-0.09375,-0.06884766,-0.3779297,-0.1035156
1887,32.9375,-47.25,-15.25,0.2954102,1.422852,-0.09375,-0.06982422,-0.3779297,-0.1005859
1891,46.5,-58.0625,-24.9375,0.4194336,1.461914,-0.04003906,-0.06738281,-0.3793945,-0.09765625
1896,62.75,-43.5625,-23,0.4853516,1.570801,-0.005371094,-0.06884766,-0.3793945,-0.09082031
1900,65.8125,-36.25,-17.1875,0.2646484,1.722168,-0.1782227,-0.06884766,-0.3833008,-0.08447266
1904,53.375,-47.5,-5.4375,0.175293,1.722168,-0.2744141,-0.06640625,-0.3842773,-0.07861328
1908,43.4375,-61.5625,-1.3125,0.3110352,1.566895,-0.3129883,-0.06738281,-0.3833008,-0.07177734
1912,44.25,-47.75,-5,0.5668945,1.418945,-0.2363281,-0.06982422,-0.3842773,-0.06542969
1916,49.125,-28,-17.75,0.4506836,1.446289,-0.3706055,-0.06884766,-0.3867188,-0.0625
1920,38.8125,-19.0625,-24.3125,0.2915039,1.430664,-0.3823242,-0.06494141,-0.3857422,-0.05859375
1924,18.625,-14.0625,-14.625,0.1367188,1.388184,-0.4052734,-0.06494141,-0.3881836,-0.05419922
1928,0.4375,-13.0625,-2.5625,0.02441406,1.244141,-0.3862305,-0.06494141,-0.3881836,-0.05419922
1932,-13.8125,-24.625,6.75,-0.01025391,1.120117,-0.3823242,-0.06494141,-0.3867188,-0.05273438
1936,-28.8125,-43.9375,-3.5,0.1328125,1.019043,-0.4169922,-0.06494141,-0.3842773,-0.05712891
1940,-33.875,-48.0625,-20.9375,0.3574219,0.6577148,-0.2670898,-0.06396484,-0.3867188,-0.05712891
1944,-22.5625,-25.6875,-27.3125,0.4350586,0.6108398,-0.1977539,-0.06152344,-0.3867188,-0.05859375
1948,-15.6875,-13.6875,-34.5,0.2993164,0.7001953,-0.2744141,-0.06054688,-0.3857422,-0.06103516
1952,-21.25,-10.4375,-32.25,0.1484375,0.7353516,-0.359375,-0.05810547,-0.3867188,-0.06103516
1956,-30.6875,-16.9375,-19.875,0.06689453,0.7158203,-0.394043,-0.05419922,-0.3857422,-0.06396484
1960,-47.5,-27.1875,-20.9375,0.1328125,0.7353516,-0.4321289,-0.05224609,-0.3867188,-0.06933594
1964,-56.75,-34.6875,-30.0625,0.1948242,0.6186523,-0.378418,-0.04980469,-0.3867188,-0.07080078
1968,-67.4375,-27.375,-21.875,0.2490234,0.4282227,-0.2670898,-0.04980469,-0.3842773,-0.07470703
1972,-70.6875,-11.8125,-3.8125,0.2568359,0.3041992,-0.1899414,-0.04980469,-0.3857422,-0.08154297
1976,-81.0625,0,3.1875,0.2607422,0.3544922,-0.1474609,-0.04736328,-0.3857422,-0.08837891
1980,-103.25,8.5,2.9375,0.2177734,0.3544922,-0.128418,-0.04736328,-0.3803711,-0.09521484
1984,-118.5,7.25,-10.4375,0.2026367,0.2416992,-0.005371094,-0.04833984,-0.3803711,-0.1074219
1988,-108.5625,20.875,-12,0.3188477,-0.01806641,0.3330078,-0.04492188,-0.3769531,-0.1142578
1992,-86.3125,49.75,-14.75,0.4038086,0.03613281,0.5136719,-0.04492188,-0.371582,-0.1264648
1996,-51.5625,73.875,-25.375,0.2954102,-0.05664063,0.5175781,-0.04150391,-0.3730469,-0.1347656
2000,-0.375,73.375,-22.4375,-0.01025391,-0.04150391,0.2788086,-0.03759766,-0.371582,-0.1357422
2004,36.9375,37.875,-29.25,-0.2504883,0.2885742,-0.07080078,-0.03320313,-0.3706055,-0.137207
2008,50.9375,1.8125,-29.0625,-0.246582,0.6655273,-0.3476563,-0.02929688,-0.3730469,-0.1333008
2012,49.25,-9.625,-15.3125,-0.1264648,0.8789063,-0.574707,-0.02685547,-0.3745117,-0.1289063
2016,31.625,-13.8125,0.875,-0.08398438,1.069336,-0.6748047,-0.02587891,-0.3769531,-0.1235352
2020,11.1875,-7.0625,23.4375,0.07080078,0.9414063,-0.5092773,-0.02685547,-0.3754883,-0.1210938
2025,0.8125,1.0625,30.4375,0.1831055,0.7666016,-0.2900391,-0.03076172,-0.3769531,-0.1225586
2029,7.25,-3.9375,16.4375,0.1635742,0.5683594,-0.2324219,-0.03173828,-0.3754883,-0.1210938
2033,21.125,-10.375,8.375,0.1987305,0.5566406,-0.1860352,-0.03417969,-0.3779297,-0.1225586
2037,26.25,-15.625,3.625,0.206543,0.6694336,-0.2397461,-0.03515625,-0.3779297,-0.1181641
2041,24.8125,-4.625,10.5,0.3496094,0.7197266,-0.1708984,-0.03662109,-0.3779297,-0.1157227
2045,15.25,14.1875,12.5625,0.3847656,0.7548828,-0.1015625,-0.03759766,-0.3769531,-0.112793
2049,7.375,27.3125,9.1875,0.2954102,0.7041016,-0.03222656,-0.0390625,-0.3779297,-0.112793
2053,11.9375,34.25,18,0.2216797,0.3935547,0.05957031,-0.03662109,-0.3779297,-0.1113281
2057,25.5625,33.5,13.5,0.1870117,0.4125977,0.05566406,-0.03759766,-0.3793945,-0.112793
2061,34.6875,28.75,3,0.109375,0.3740234,0.04443359,-0.0390625,-0.3793945,-0.1098633
2065,45.5,21.875,4.75,-0.01806641,0.4985352,-0.07470703,-0.03662109,-0.3833008,-0.105957
2069,46.8125,5.6875,6.625,-0.1147461,0.5605469,-0.1630859,-0.0390625,-0.3818359,-0.1020508
2073,56.0625,0.375,20.0625,0.02441406,0.6577148,-0.2285156,-0.04003906,-0.3818359,-0.09912109
2077,48.625,9.5,18.25,0.2607422,0.7236328,-0.1977539,-0.04150391,-0.3818359,-0.09228516
2081,49.125,36,27.875,0.2026367,0.7431641,-0.1435547,-0.04150391,-0.3833008,-0.08837891
2085,37.3125,43.5,33.8125,0.0009765625,0.9140625,-0.1591797,-0.04492188,-0.3857422,-0.08300781
2089,23.9375,33.0625,47.9375,-0.1186523,0.8945313,-0.1474609,-0.04736328,-0.3857422,-0.08300781
2093,10.6875,19.5,55.4375,0.05126953,0.840332,-0.05517578,-0.05078125,-0.3842773,-0.08154297
2097,9.5625,23.875,59.5,0.2333984,0.7666016,0.07519531,-0.05664063,-0.3857422,-0.08154297
2101,6.3125,28,44.625,0.2412109,0.890625,0.02490234,-0.06054688,-0.3833008,-0.08007813
2105,-5.9375,13.4375,17.25,0.1557617,1.019043,-0.1323242,-0.06298828,-0.3842773,-0.07861328
2109,-17.875,-5.375,-3.1875,0.1791992,1.015137,-0.2207031,-0.06494141,-0.3833008,-0.08300781
2113,-19.4375,-7.125,11.6875,0.206543,0.8168945,-0.1782227,-0.06298828,-0.3833008,-0.08154297
2117,-21.5,-0.75,26.625,0.2954102,1.026855,-0.1977539,-0.06494141,-0.3818359,-0.08447266
2121,-18.5,6,36.875,0.3417969,0.9995117,-0.1743164,-0.06738281,-0.3818359,-0.08544922
2125,-17.125,3.875,23.625,0.4194336,1.189941,-0.1743164,-0.07128906,-0.3803711,-0.08691406
2129,-19.5,2.9375,5.8125,0.4506836,1.225098,-0.1630859,-0.07226563,-0.3803711,-0.09082031
2133,-20.3125,6.9375,-5.1875,0.4389648,1.263672,-0.09765625,-0.07324219,-0.3803711,-0.09082031
2137,-22.25,18.9375,-2.875,0.4428711,1.321777,-0.06689453,-0.07226563,-0.3779297,-0.09375
2141,-28.875,31.125,10.875,0.3378906,1.36084,-0.02832031,-0.07128906,-0.3803711,-0.09912109
2145,-38.0625,23.8125,16.1875,0.2758789,1.461914,-0.04736328,-0.07324219,-0.3779297,-0.1020508
2149,-45.5,2.875,8.75,0.3149414,1.477539,-0.05126953,-0.07470703,-0.3769531,-0.1035156
2154,-45.6875,-13.0625,-6.9375,0.4541016,1.430664,0.009765625,-0.07324219,-0.3745117,-0.1074219
2158,-37.8125,-5.75,-5.9375,0.5317383,1.418945,0.04443359,-0.07128906,-0.3754883,-0.1088867
2162,-36,12.4375,8.4375,0.5161133,1.46582,0.05566406,-0.07324219,-0.3745117,-0.1142578
2166,-30.0625,14.75,17.625,0.4272461,1.535645,-0.04003906,-0.07226563,-0.3730469,-0.1166992
2170,-27.5,-0.25,16.5625,0.3925781,1.590332,-0.1323242,-0.07470703,-0.3730469,-0.1196289
2174,-21.75,-26.875,3,0.4892578,1.586426,-0.1708984,-0.07568359,-0.371582,-0.1235352
2178,-10.625,-38.6875,-11.6875,0.659668,1.504395,-0.112793,-0.07714844,-0.3691406,-0.1225586
2182,6.8125,-22.25,-10,0.7602539,1.411133,-0.05126953,-0.07568359,-0.3730469,-0.1225586
2186,24.4375,4.0625,-5.375,0.7719727,1.430664,-0.08203125,-0.078125,-0.3706055,-0.1225586
2190,31.875,23.1875,-5.25,0.6831055,1.562988,-0.1821289,-0.07568359,-0.3745117,-0.1166992
2194,31.125,26.1875,-10.3125,0.4892578,1.640625,-0.3051758,-0.07568359,-0.3745117,-0.1181641
2198,24.375,7.9375,-22.125,0.3496094,1.753418,-0.3515625,-0.07470703,-0.3730469,-0.1166992
2202,20.3125,-3.5625,-27.3125,0.4506836,1.644531,-0.2324219,-0.06884766,-0.3754883,-0.112793
2206,27.1875,18.5625,-7.5,0.6171875,1.399902,-0.03222656,-0.06884766,-0.3745117,-0.1113281
2210,44,54,18.1875,0.6870117,1.364746,0.09814453,-0.06884766,-0.3769531,-0.1098633
2214,60.3125,77.375,26.875,0.6635742,1.43457,0.06738281,-0.06884766,-0.3779297,-0.105957
2218,85.875,66.9375,21.875,0.3535156,1.267578,0.01708984,-0.06982422,-0.3779297,-0.1035156
2222,112.3125,18.5625,-4.3125,0.1015625,1.458008,-0.1206055,-0.06884766,-0.3779297,-0.09228516
2226,121.875,-38.3125,-36.9375,0.08642578,1.578613,-0.2167969,-0.06884766,-0.3818359,-0.08300781
2230,119.5,-61.75,-46.125,0.3149414,1.640625,-0.1708984,-0.06494141,-0.3867188,-0.07324219
2234,99.9375,-35.0625,-24.875,0.4736328,1.679688,-0.1938477,-0.06298828,-0.3881836,-0.06103516
2238,79.0625,16,6.1875,0.5512695,1.504395,-0.1513672,-0.06152344,-0.3881836,-0.05029297
2242,64.5625,65.625,24.25,0.5087891,1.547363,-0.2744141,-0.06152344,-0.3891602,-0.04638672
2246,46.125,74.8125,26.8125,0.03955078,1.321777,-0.378418,-0.06396484,-0.3867188,-0.04199219
2250,31.75,18,18.9375,-0.4287109,1.221191,-0.4628906,-0.06494141,-0.3867188,-0.03955078
2254,25.6875,-59.9375,-4.3125,-0.4248047,0.9838867,-0.3823242,-0.06738281,-0.3881836,-0.03808594
2258,27.5625,-98.25,-10.125,-0.04101563,0.8598633,-0.2514648,-0.06640625,-0.3891602,-0.03369141
2262,11.625,-54.875,7.8125,0.6132813,0.9414063,-0.09375,-0.06640625,-0.3881836,-0.02832031
2266,-4.1875,15.125,33.5,0.644043,0.7817383,-0.1899414,-0.06738281,-0.3867188,-0.02832031
2270,-10.5625,48.8125,33.25,0.3769531,0.840332,-0.4438477,-0.07128906,-0.3867188,-0.02978516
2274,-17.5625,44.8125,23.5,0.05517578,0.9179688,-0.5283203,-0.07226563,-0.3842773,-0.03271484
2278,-43.3125,-21,10.5625,-0.4672852,1.01123,-0.7055664,-0.07470703,-0.3842773,-0.03369141
2283,-68,-97.0625,3.6875,-0.2041016,0.5800781,-0.4936523,-0.07470703,-0.3842773,-0.03808594
2287,-58.75,-121.25,-7.375,0.3730469,0.3120117,-0.324707,-0.07568359,-0.3833008,-0.04052734
2291,-47.8125,-103.3125,-28.5625,0.6713867,0.4086914,-0.4438477,-0.07568359,-0.3833008,-0.04345703
2295,-48.6875,-56.5625,-25.75,0.690918,0.5644531,-0.5170898,-0.07324219,-0.3842773,-0.04736328
2299,-82.5625,0.5,10.6875,0.4892578,0.6030273,-0.4594727,-0.07226563,-0.3842773,-0.05175781
2303,-110.6875,42.375,60.5625,0.2724609,0.121582,-0.1630859,-0.07324219,-0.3842773,-0.05859375
2307,-110.9375,59.125,74.5,0.175293,-0.08789063,0.01708984,-0.07958984,-0.3803711,-0.06933594
2311,-84.75,49.25,47,0.09033203,-0.2822266,0.09423828,-0.08544922,-0.3745117,-0.08007813
2315,-62,12.875,-1.25,-0.02587891,0.07470703,0.08251953,-0.08789063,-0.3745117,-0.08691406
2319,-40,-18.4375,-9.0625,-0.02197266,0.0009765625,0.1367188,-0.08544922,-0.3730469,-0.09228516
2323,-21.0625,-18.9375,-4.9375,0.3071289,0.2148438,0.159668,-0.08544922,-0.371582,-0.09521484
2327,0.25,9.8125,0.5,0.4541016,0.21875,0.1098633,-0.08642578,-0.371582,-0.09667969
2331,17.4375,34.1875,-1.125,0.3613281,0.3701172,-0.04394531,-0.08544922,-0.371582,-0.09667969
2335,32.1875,45.5625,4.3125,0.2104492,0.3271484,-0.1401367,-0.08642578,-0.3706055,-0.09521484
2339,49.8125,36.625,7.875,0.07080078,0.4868164,-0.3823242,-0.08300781,-0.3730469,-0.09375
2343,58.25,7.25,5.6875,-0.01806641,0.6342773,-0.5708008,-0.08300781,-0.3745117,-0.08837891
2347,43.625,-27.0625,6.875,0.008789063,0.8867188,-0.6401367,-0.08300781,-0.3745117,-0.08544922
2351,29.75,-42.4375,14.25,0.2104492,0.7666016,-0.5283203,-0.08544922,-0.3754883,-0.07861328
2355,19.6875,-34,17.5,0.4233398,0.6962891,-0.4013672,-0.08642578,-0.3745117,-0.07763672
2359,14.0625,-16.25,9.625,0.4658203,0.7470703,-0.3974609,-0.09033203,-0.3745117,-0.07470703
2363,13.375,-2,17.75,0.3535156,0.4282227,-0.2978516,-0.09130859,-0.3754883,-0.07177734
2367,24.5,-1.625,25.9375,0.2294922,0.5292969,-0.3208008,-0.09130859,-0.3769531,-0.07080078
2371,21.5,-26,6.75,0.2373047,0.5488281,-0.2939453,-0.09375,-0.3745117,-0.06787109
2375,21,-36.6875,-7.8125,0.3378906,0.4516602,-0.1669922,-0.09619141,-0.3745117,-0.06542969
2379,24.625,-30.1875,-12,0.3769531,0.4052734,-0.07470703,-0.09619141,-0.3769531,-0.06542969
2383,31.375,-11.375,-9.1875,0.3457031,0.4672852,-0.07470703,-0.09472656,-0.3769531,-0.05859375
2387,36.25,0.8125,5.3125,0.2026367,0.4243164,-0.1630859,-0.09228516,-0.3779297,-0.05712891
2391,38,0.5625,14.4375,0.2104492,0.6845703,-0.2978516,-0.09472656,-0.3769531,-0.05273438
2395,24.1875,-2.375,7.0625,0.2875977,0.6923828,-0.3012695,-0.09472656,-0.3779297,-0.05175781
2399,17.9375,0.5,3.1875,0.2915039,0.6884766,-0.2363281,-0.09716797,-0.3754883,-0.05029297
2403,12,10.8125,3.4375,0.3149414,0.6186523,-0.1435547,-0.09716797,-0.3754883,-0.04882813
2407,21.0625,25.0625,20.1875,0.2333984,0.5136719,-0.112793,-0.09863281,-0.3769531,-0.04638672
2412,28.5,21.875,23.125,0.2104492,0.6962891,-0.2436523,-0.09960938,-0.3754883,-0.04492188
2416,23.9375,13.5,17.75,0.2255859,0.8286133,-0.2744141,-0.1010742,-0.3754883,-0.04492188
2420,14.9375,9.5,12.3125,0.2607422,0.890625,-0.2631836,-0.1020508,-0.3745117,-0.04199219
2424,5.3125,7,9.9375,0.2685547,0.90625,-0.2475586,-0.1020508,-0.3754883,-0.04199219
2428,-2.75,-0.3125,1.875,0.2836914,0.9375,-0.3359375,-0.1044922,-0.3754883,-0.04052734
2432,-7.5,-4,-0.75,0.3925781,0.921875,-0.3476563,-0.1044922,-0.3754883,-0.04052734
2436,-5.875,13.5625,5.5625,0.5009766,0.9682617,-0.2900391,-0.1030273,-0.3769531,-0.04199219
2440,-7.8125,40.25,21.875,0.4697266,1.06543,-0.3168945,-0.1054688,-0.3745117,-0.04199219
2444,-22.5625,45.8125,25.8125,0.3999023,1.248047,-0.4208984,-0.1079102,-0.3745117,-0.04638672
2448,-38.9375,27.75,6.1875,0.4116211,1.166504,-0.3745117,-0.1079102,-0.3745117,-0.04882813
2452,-42.4375,19.875,-6.125,0.5473633,1.088867,-0.2514648,-0.109375,-0.3745117,-0.05419922
2456,-40.625,26.5,-12.0625,0.543457,1.026855,-0.2016602,-0.1054688,-0.3754883,-0.05859375
2460,-34.8125,36.375,-12.6875,0.4931641,1.06543,-0.1782227,-0.1069336,-0.3745117,-0.06103516
2464,-39.6875,41.8125,-7.875,0.4038086,1.302734,-0.1860352,-0.1030273,-0.3754883,-0.06542969
2468,-52,39.25,16,0.2724609,1.426758,-0.2089844,-0.1044922,-0.3730469,-0.07177734
2472,-67.1875,15.875,21.75,0.2915039,1.43457,-0.2055664,-0.1044922,-0.3706055,-0.07763672
2476,-71.375,-8,21.5625,0.4775391,1.376465,-0.1669922,-0.1079102,-0.371582,-0.08300781
2480,-62.1875,-21.625,7.3125,0.7719727,1.259766,-0.07470703,-0.109375,-0.3691406,-0.08984375
2484,-46.8125,-14.375,-2.3125,0.9423828,1.283203,-0.001464844,-0.109375,-0.3681641,-0.09375
2488,-34.1875,-1.5625,-11.625,1.000488,1.325684,0.01708984,-0.109375,-0.3681641,-0.09667969
2492,-24.0625,13.3125,-21.4375,0.9389648,1.380371,-0.009277344,-0.1069336,-0.3657227,-0.09912109
2496,-13.1875,19.125,-26.375,0.7490234,1.411133,-0.05517578,-0.1069336,-0.3681641,-0.09912109
2500,-9.4375,16.375,-25.125,0.6401367,1.523926,-0.08203125,-0.1020508,-0.3681641,-0.1020508
2504,-9.4375,13.5625,-17.375,0.5898438,1.504395,-0.05908203,-0.09960938,-0.3666992,-0.1020508
2508,-7.8125,9.3125,-17.8125,0.5859375,1.500488,-0.04736328,-0.09960938,-0.3691406,-0.105957
2512,0.5,10.125,-18.5,0.543457,1.380371,-0.04736328,-0.09863281,-0.3691406,-0.105957
2516,10,7.6875,-20.875,0.4931641,1.430664,-0.1054688,-0.09619141,-0.3706055,-0.1044922
2520,13.5,1.4375,-24.375,0.4116211,1.426758,-0.1669922,-0.09472656,-0.3706055,-0.1074219
2524,17.625,-8.9375,-23.5625,0.3959961,1.46582,-0.1821289,-0.09228516,-0.371582,-0.105957
2528,18.9375,-16.625,-16.1875,0.4077148,1.559082,-0.1513672,-0.08886719,-0.3745117,-0.1020508
2532,13.25,-31.6875,-13.5,0.4233398,1.625,-0.1206055,-0.08789063,-0.3730469,-0.1020508
2536,12.6875,-48.6875,-11.5625,0.4541016,1.574707,-0.06298828,-0.08789063,-0.3745117,-0.09765625
2541,19,-64.375,-14.375,0.4892578,1.489258,-0.04003906,-0.08886719,-0.3730469,-0.09521484
2545,37.0625,-70.4375,-12.1875,0.5200195,1.337402,0.01708984,-0.08886719,-0.3745117,-0.09082031
2549,64.5,-59.4375,10.1875,0.625,1.104492,0.1171875,-0.09033203,-0.3754883,-0.08447266
2553,101.25,-31.0625,27,0.7177734,1.150879,0.05175781,-0.09130859,-0.3779297,-0.07617188
2557,133.375,-8.875,26.8125,0.625,1.345215,-0.1743164,-0.09619141,-0.3769531,-0.06787109
2561,136.4375,-8.375,14.125,0.4194336,1.566895,-0.3666992,-0.09716797,-0.3779297,-0.05566406
2565,120.1875,-37.875,2.875,0.140625,1.84668,-0.6206055,-0.09716797,-0.3779297,-0.04052734
2569,73.625,-84.1875,-0.9375,0.05908203,1.795898,-0.6513672,-0.09716797,-0.3793945,-0.03271484
2573,34.1875,-96.4375,15.75,0.3149414,1.46582,-0.4975586,-0.09716797,-0.3803711,-0.02587891
2577,8.8125,-66.625,34.9375,0.644043,1.259766,-0.3706055,-0.1010742,-0.3779297,-0.01757813
2581,-0.25,-12.4375,51.8125,0.7099609,0.921875,-0.2939453,-0.1044922,-0.3779297,-0.01757813
2585,-7.5625,25.875,50.5625,0.5859375,0.9643555,-0.34375,-0.1069336,-0.3754883,-0.01757813
2589,-18.8125,29.125,28.5625,0.3613281,0.7739258,-0.3051758,-0.1137695,-0.3745117,-0.02050781
2593,-16.4375,4.125,9.4375,0.1210938,0.6303711,-0.3012695,-0.1137695,-0.371582,-0.02294922
2597,-22.125,-40.1875,-23.5625,0.1791992,0.7431641,-0.3168945,-0.1137695,-0.3730469,-0.02148438
2601,-28.4375,-56.125,-41.0625,0.4311523,0.5800781,-0.3208008,-0.1113281,-0.3730469,-0.02587891
2605,-21.625,-31.4375,-45.375,0.690918,0.4125977,-0.3359375,-0.1069336,-0.3730469,-0.02587891
2609,-17.625,15.9375,-51.125,0.7099609,0.5991211,-0.4824219,-0.1044922,-0.3754883,-0.02587891
2613,-25.375,52.1875,-50.75,0.4233398,0.6655273,-0.6323242,-0.09716797,-0.3769531,-0.02978516
2617,-52.5,57.875,-36.8125,0.125,0.7705078,-0.6899414,-0.09472656,-0.3793945,-0.03125
2621,-84.5625,43.0625,-30.25,0.03955078,0.6264648,-0.5244141,-0.09130859,-0.3803711,-0.04199219
2625,-92.0625,25.3125,-38.8125,0.03564453,0.2924805,-0.4130859,-0.08642578,-0.3779297,-0.05029297
2629,-82.25,19.4375,-40.25,-0.03710938,0.105957,-0.3051758,-0.08544922,-0.3793945,-0.05712891
2633,-85.8125,15.5,-24.375,-0.05664063,0.1835938,-0.109375,-0.08056641,-0.3779297,-0.06640625
2637,-101.375,8.4375,-4.125,-0.1572266,0.315918,-0.04394531,-0.07714844,-0.3803711,-0.07324219
2641,-113.5625,-16.6875,5.5625,-0.2119141,0.203125,0.140625,-0.078125,-0.3769531,-0.07763672
2645,-100.3125,-49.3125,8.1875,-0.1499023,0.04394531,0.2519531,-0.08056641,-0.3745117,-0.09228516
2649,-74.8125,-84.0625,-23.1875,0.008789063,0.04003906,0.2709961,-0.08203125,-0.371582,-0.09912109
2653,-29.25,-78.0625,-31.375,0.3227539,0.07470703,0.2368164,-0.08203125,-0.371582,-0.1020508
2657,-3.6875,-66.125,-47.3125,0.2875977,0.3701172,-0.02441406,-0.08056641,-0.3706055,-0.1035156
2661,23.6875,-59.25,-38.25,0.1518555,0.5253906,-0.2822266,-0.07714844,-0.3730469,-0.09912109
2665,20.375,-55,-17.6875,0.1445313,0.8945313,-0.4863281,-0.07568359,-0.3745117,-0.09667969
2670,9.4375,-39.5625,2.0625,0.2412109,0.8520508,-0.4248047,-0.07568359,-0.3754883,-0.09521484
2674,6.9375,-17.4375,18.1875,0.2758789,0.840332,-0.4282227,-0.07714844,-0.3745117,-0.09375
2678,9.75,-10.375,20.125,0.190918,0.809082,-0.4975586,-0.078125,-0.3754883,-0.09228516
2682,7.75,-19.5,10.5625,0.1445313,0.875,-0.5283203,-0.08056641,-0.3745117,-0.08984375
2686,6.375,-28.4375,11.0625,0.1557617,0.7431641,-0.4052734,-0.08203125,-0.3745117,-0.09082031
2690,9.9375,-25.75,17.25,0.2993164,0.7041016,-0.2553711,-0.08398438,-0.3730469,-0.08837891
2694,15,-5.5625,22.375,0.4194336,0.6381836,-0.1323242,-0.08642578,-0.3745117,-0.08544922
2698,22.0625,13.75,23.4375,0.3652344,0.5800781,-0.1323242,-0.08789063,-0.3745117,-0.08544922
2702,28.5625,13.375,15.0625,0.2529297,0.6811523,-0.2397461,-0.08886719,-0.3745117,-0.08300781
2706,30.8125,-1.375,0.8125,0.1948242,0.6884766,-0.2900391,-0.08886719,-0.3745117,-0.08154297
2710,31.375,-7,0.1875,0.2646484,0.6655273,-0.2436523,-0.09033203,-0.3730469,-0.07763672
2714,33.4375,4.1875,9.625,0.3808594,0.6884766,-0.2128906,-0.09033203,-0.3769531,-0.07470703
2718,27.625,21.3125,6.875,0.4194336,0.7392578,-0.1938477,-0.09130859,-0.3745117,-0.07080078
2722,26.0625,29.5,-1,0.3535156,0.7548828,-0.2324219,-0.09130859,-0.3745117,-0.07080078
2726,22,25.75,-1.9375,0.2412109,0.7041016,-0.2744141,-0.09033203,-0.3754883,-0.06933594
2730,11.8125,13.9375,-6.875,0.1870117,0.8520508,-0.3012695,-0.08886719,-0.3769531,-0.06787109
2734,-4.125,4.625,-6.25,0.1987305,0.6381836,-0.1743164,-0.08886719,-0.3754883,-0.07080078
2738,7.9375,22.875,25.5,0.4038086,0.3427734,0.02880859,-0.08886719,-0.3754883,-0.06933594
2742,22.5,44,33.6875,0.4311523,0.3120117,0.07128906,-0.09228516,-0.3769531,-0.06933594
2746,39.0625,42.625,27.4375,0.3769531,0.5058594,-0.04394531,-0.09375,-0.3745117,-0.06787109
2750,43.6875,26.6875,2.6875,0.2333984,0.6381836,-0.1474609,-0.09619141,-0.3754883,-0.06396484
2754,39.6875,9.3125,-6.125,0.2294922,0.840332,-0.1708984,-0.09472656,-0.3754883,-0.06103516
2758,24.5,13.375,4.75,0.2490234,0.7080078,-0.1054688,-0.09472656,-0.3779297,-0.05712891
2762,30.5,24,20.875,0.2104492,0.6303711,-0.08984375,-0.09472656,-0.3779297,-0.05712891
2766,36.4375,20.25,18.5,0.09375,0.7158203,-0.1669922,-0.09716797,-0.3769531,-0.05566406
2770,45.0625,12,14.875,0.1054688,0.793457,-0.1708984,-0.09863281,-0.3779297,-0.05175781
2774,41.75,4.9375,11.25,0.1635742,0.9643555,-0.2475586,-0.09960938,-0.3745117,-0.04882813
2778,32.0625,2.6875,13.0625,0.2104492,0.953125,-0.2631836,-0.09960938,-0.3769531,-0.04345703
2782,19.9375,3.9375,19.125,0.2333984,0.9956055,-0.3286133,-0.1020508,-0.3779297,-0.04199219
2786,12.0625,-2.3125,18.25,0.2026367,0.9140625,-0.3325195,-0.1020508,-0.3769531,-0.03955078
2790,9.9375,-6.9375,19.6875,0.3339844,0.9682617,-0.3051758,-0.1044922,-0.3754883,-0.04052734
2794,10.875,-5.0625,19.875,0.3959961,0.9799805,-0.3325195,-0.1069336,-0.3754883,-0.04199219
2799,5.125,-1.875,15.0625,0.5048828,1.12793,-0.394043,-0.109375,-0.3745117,-0.03662109
2803,-4.375,5.625,10.8125,0.609375,1.112305,-0.4321289,-0.109375,-0.3754883,-0.03808594
2807,-10.625,28.625,12.375,0.6870117,1.061523,-0.3862305,-0.109375,-0.3730469,-0.03955078
2811,-15.4375,53.375,18.375,0.5859375,1.13916,-0.4208984,-0.1113281,-0.3730469,-0.03955078
2815,-21.9375,63.1875,16.75,0.4736328,1.193848,-0.4555664,-0.1137695,-0.3730469,-0.04345703
2819,-34.625,58.1875,12.6875,0.4541016,1.321777,-0.4746094,-0.1137695,-0.3730469,-0.04882813
2823,-41.9375,52.9375,11.5,0.4428711,1.271484,-0.3901367,-0.1152344,-0.3730469,-0.05175781
2827,-50.5,49.875,15.0625,0.4506836,1.372559,-0.3862305,-0.112793,-0.371582,-0.05859375
2831,-56.5625,44.3125,19.25,0.4389648,1.337402,-0.3901367,-0.1152344,-0.3706055,-0.06640625
2835,-65.375,22.875,14.1875,0.4541016,1.477539,-0.4516602,-0.1176758,-0.3681641,-0.07080078
2839,-64.625,5.875,8,0.5551758,1.337402,-0.3208008,-0.1176758,-0.3657227,-0.07617188
2843,-57,-0.25,9.625,0.6132813,1.372559,-0.2631836,-0.1186523,-0.3642578,-0.08154297
2847,-49.8125,-6.5625,7.4375,0.644043,1.368652,-0.2167969,-0.1186523,-0.3657227,-0.08544922
2851,-42.375,-6.125,11.25,0.6982422,1.349121,-0.1552734,-0.1201172,-0.3642578,-0.09082031
2855,-38.0625,-13.125,5.3125,0.7099609,1.384277,-0.1899414,-0.1210938,-0.3618164,-0.09375
2859,-32.4375,-21.0625,-3.625,0.7529297,1.291016,-0.1323242,-0.1210938,-0.3603516,-0.09765625
2863,-22.375,-15.875,-8.1875,0.7641602,1.193848,-0.04003906,-0.1220703,-0.3618164,-0.09667969
2867,-11.3125,-1.9375,-9.3125,0.7451172,1.124023,-0.01318359,-0.1210938,-0.359375,-0.09912109
2871,-7.25,8.875,-13.1875,0.644043,1.100586,-0.03222656,-0.1210938,-0.359375,-0.1005859
2875,-2.9375,15.625,-18.5,0.559082,1.04248,-0.01318359,-0.1176758,-0.3603516,-0.1005859
2879,1.875,19.5,-20.1875,0.4077148,0.9682617,-0.03222656,-0.1152344,-0.3603516,-0.1005859
2883,6.5625,15.125,-22.5625,0.2568359,0.9375,-0.04736328,-0.1137695,-0.3632813,-0.1020508
2887,8.625,8.1875,-20.75,0.1674805,0.9375,-0.06298828,-0.112793,-0.3642578,-0.1020508
2891,6.5625,2.5,-15.375,0.1518555,0.9335938,-0.06298828,-0.1103516,-0.3657227,-0.1005859
2895,3.25,2.3125,-4.125,0.1831055,0.8710938,-0.06689453,-0.1103516,-0.3666992,-0.1005859
2899,2.1875,1.625,1.125,0.2104492,0.8671875,-0.08203125,-0.109375,-0.3666992,-0.09912109
2903,3.5,-4.3125,1.375,0.2177734,0.824707,-0.07861328,-0.1079102,-0.3666992,-0.09912109
