Packet number,Gyroscope X (deg/s),Gyroscope Y (deg/s),Gyroscope Z (deg/s),Accelerometer X (g),Accelerometer Y (g),Accelerometer Z (g),Magnetometer X (G),Magnetometer Y (G),Magnetometer Z (G)
0,5.4375,5.8125,1.5625,-0.9829102,-0.2626953,-0.07080078,0.2973633,0.05859375,-0.1142578
4,2.9375,8.3125,-1.1875,-1.005859,-0.2548828,-0.07470703,0.2973633,0.06005859,-0.112793
8,1.6875,10.3125,-7.3125,-1.075684,-0.2744141,-0.1166992,0.2973633,0.06005859,-0.1142578
12,2.0625,7.25,-16.0625,-1.15332,-0.2822266,-0.1513672,0.2949219,0.06103516,-0.1142578
16,-2.125,1.8125,-19.9375,-1.161133,-0.2822266,-0.1782227,0.2973633,0.06396484,-0.1113281
20,-9.0625,-3.25,-15.375,-1.157227,-0.340332,-0.1821289,0.2949219,0.0625,-0.1142578
24,-9.1875,-5.6875,-3.6875,-1.149414,-0.4101563,-0.1821289,0.2963867,0.06738281,-0.112793
28,-8.4375,-10.1875,-3.4375,-1.211426,-0.4257813,-0.1362305,0.2949219,0.06640625,-0.1113281
32,-7.625,-12.4375,-8.3125,-1.172852,-0.46875,-0.1245117,0.2949219,0.06640625,-0.1142578
36,-8.5,-11.1875,-10.5,-1.168945,-0.4804688,-0.1323242,0.2939453,0.06738281,-0.1142578
40,-4.125,-7.5625,-14.8125,-1.223145,-0.550293,-0.1245117,0.2939453,0.06884766,-0.1166992
44,2.625,-3,-14.9375,-1.265625,-0.6005859,-0.1166992,0.2924805,0.06982422,-0.1166992
48,7.875,-2.5625,-13.9375,-1.312012,-0.5581055,-0.09765625,0.2915039,0.06982422,-0.1181641
52,2.9375,-5.25,-8.375,-1.339355,-0.4882813,-0.08203125,0.2915039,0.07373047,-0.1157227
56,-4.75,-9.375,-7.625,-1.397461,-0.4414063,-0.06298828,0.2924805,0.07373047,-0.1181641
60,-15.9375,-13.375,-6.375,-1.389648,-0.4067383,-0.04736328,0.2900391,0.07275391,-0.1181641
64,-28.9375,-12.8125,-7.3125,-1.37793,-0.421875,0.009765625,0.2890625,0.07617188,-0.1181641
68,-35.75,-7.875,-14.3125,-1.37793,-0.5541992,0.05957031,0.2890625,0.07617188,-0.1181641
72,-31.9375,-0.375,-16.25,-1.319824,-0.6357422,0.09033203,0.2890625,0.07861328,-0.1166992
76,-21.125,10.75,-23.8125,-1.296875,-0.6552734,0.09033203,0.2866211,0.08007813,-0.1166992
80,-13.9375,24.5,-34.25,-1.246094,-0.6044922,0.07128906,0.2866211,0.08251953,-0.1157227
84,-7.5,34.4375,-44.9375,-1.25,-0.6123047,0.01708984,0.2856445,0.08740234,-0.1098633
88,-5.375,40.8125,-52.25,-1.20752,-0.5698242,-0.02832031,0.2841797,0.09130859,-0.105957
92,-11.875,39.5,-54.5,-1.25,-0.6123047,-0.08203125,0.2841797,0.09619141,-0.1044922
96,-8.9375,30.1875,-50.6875,-1.230957,-0.8183594,-0.1435547,0.2807617,0.09863281,-0.1005859
100,12.125,19.125,-43.9375,-1.083496,-0.8574219,-0.2285156,0.2807617,0.1064453,-0.09912109
104,29.1875,14.4375,-42.75,-0.9248047,-0.5112305,-0.1669922,0.2783203,0.1064453,-0.09521484
108,17.1875,12.1875,-38.25,-0.8935547,-0.4257813,-0.1362305,0.2783203,0.1088867,-0.09765625
112,22.6875,7.125,-48.875,-0.8237305,-0.5268555,-0.2167969,0.2734375,0.1123047,-0.09765625
116,27.75,-1,-38.3125,-0.7543945,-0.5307617,-0.2553711,0.2734375,0.1152344,-0.09667969
120,38.625,-14.3125,-31.4375,-0.7231445,-0.5,-0.3862305,0.2709961,0.1201172,-0.09912109
124,58.0625,-33.5625,-30.875,-0.6455078,-0.387207,-0.4667969,0.269043,0.1186523,-0.1020508
129,68.125,-55.125,-14.8125,-0.5024414,-0.2045898,-0.4130859,0.2666016,0.1210938,-0.1074219
133,66.25,-75.4375,4,-0.347168,-0.01416016,-0.324707,0.2651367,0.1186523,-0.1166992
137,66.5,-85.9375,14.5625,-0.1650391,0.06689453,-0.2089844,0.2626953,0.1162109,-0.125
141,73.6875,-77,16.5625,-0.03320313,0.02050781,-0.1630859,0.2626953,0.1137695,-0.1347656
145,102.125,-57.875,0.3125,0.02050781,0.05908203,-0.02832031,0.2592773,0.1098633,-0.144043
149,108.5,-42,-9.625,-0.04101563,0.315918,0.1328125,0.2583008,0.1064453,-0.1538086
153,74.9375,-38.1875,-6.6875,-0.1108398,0.5332031,0.3330078,0.2558594,0.1035156,-0.1591797
157,21.25,-36.75,-6.625,-0.2192383,0.5761719,0.4213867,0.2543945,0.1000977,-0.1616211
161,-35.75,-33.6875,-14.4375,-0.2348633,0.4633789,0.3671875,0.253418,0.1010742,-0.1660156
165,-78.125,-27.3125,-20.8125,-0.2734375,0.07861328,0.1518555,0.25,0.1035156,-0.1674805
169,-85.375,-14.1875,-14.0625,-0.2001953,-0.4453125,-0.02441406,0.25,0.1088867,-0.1645508
173,-68.9375,11.875,8.9375,-0.2001953,-0.7290039,-0.1743164,0.2485352,0.1123047,-0.1606445
177,-39.875,45.875,13.6875,-0.1499023,-0.6748047,-0.378418,0.2475586,0.1137695,-0.1591797
181,-10.9375,68.875,14.0625,-0.4482422,-0.6552734,-0.559082,0.2519531,0.1152344,-0.1508789
185,7.875,67,11.625,-0.6494141,-0.4960938,-0.574707,0.253418,0.1152344,-0.1455078
189,10,53.0625,16.25,-0.6611328,-0.2822266,-0.4282227,0.2568359,0.1137695,-0.144043
193,8.1875,43.6875,14.875,-0.5527344,-0.1967773,-0.2285156,0.2583008,0.1098633,-0.1401367
197,10.75,38.375,5,-0.4750977,-0.1308594,-0.09765625,0.2602539,0.1098633,-0.1386719
201,0.875,42.25,14,-0.2041016,-0.01806641,0.02099609,0.2641602,0.1088867,-0.1347656
205,-16.8125,60.75,21.125,-0.1884766,-0.06445313,-0.01660156,0.2641602,0.1088867,-0.1303711
209,-2.4375,71.125,6.25,-0.4052734,-0.3442383,-0.1977539,0.2700195,0.1088867,-0.1235352
213,5.625,73.25,9,-0.4555664,-0.3208008,-0.2670898,0.2700195,0.1074219,-0.1210938
217,11,63.9375,6.375,-0.7036133,-0.355957,-0.3476563,0.2724609,0.1074219,-0.1157227
221,6.3125,30.75,10.9375,-0.8085938,-0.2900391,-0.2900391,0.2749023,0.1064453,-0.1113281
225,-17.125,1.25,35,-0.6611328,-0.1772461,-0.1782227,0.2758789,0.1049805,-0.1113281
229,-28.75,-10.25,38.8125,-0.6376953,-0.2900391,-0.1015625,0.2758789,0.1035156,-0.1088867
233,-23.9375,-4.6875,38.125,-0.5371094,-0.3598633,-0.02441406,0.2807617,0.09863281,-0.1088867
237,-9.25,8.25,30.125,-0.6376953,-0.4492188,0.001953125,0.2792969,0.09619141,-0.1113281
241,3.3125,17.125,22.4375,-0.765625,-0.4101563,0.02099609,0.2832031,0.09521484,-0.1074219
245,1.4375,16,17.0625,-0.8974609,-0.2978516,0.009765625,0.2832031,0.09228516,-0.105957
249,-9.0625,1.6875,15.125,-1.052734,-0.2587891,-0.07080078,0.2832031,0.09130859,-0.1074219
253,-15.375,-17.1875,6.9375,-1.141602,-0.3637695,-0.109375,0.2841797,0.09130859,-0.1044922
258,-5.875,-32.3125,-3.875,-1.15332,-0.565918,-0.1166992,0.2832031,0.09228516,-0.105957
262,9.8125,-44,-0.6875,-1.187988,-0.6396484,0.005859375,0.2841797,0.09130859,-0.1098633
266,10,-50.125,-7.8125,-1.071777,-0.5,-0.03222656,0.2832031,0.09228516,-0.1142578
270,-3.8125,-39.5625,7,-0.9594727,-0.3134766,0.02099609,0.2783203,0.09228516,-0.1181641
274,-27.75,-40.5625,8.8125,-1.168945,-0.3134766,0.001953125,0.2807617,0.09130859,-0.1210938
278,-32.1875,-42.375,-2.1875,-1.129883,-0.6162109,0.02490234,0.2807617,0.09130859,-0.1225586
282,-17.5625,-32.5625,-0.375,-1.048828,-0.7949219,0.02099609,0.2792969,0.09228516,-0.1235352
286,5.1875,-21.625,-0.375,-1.114746,-0.7602539,-0.01660156,0.2783203,0.09228516,-0.1264648
290,15.9375,-15.5625,2.0625,-1.157227,-0.6279297,0.01367188,0.2758789,0.09228516,-0.1289063
294,13.4375,-12.8125,4.6875,-1.230957,-0.5424805,0.005859375,0.2783203,0.09130859,-0.1318359
298,13.1875,-18.75,-0.9375,-1.292969,-0.5541992,-0.009277344,0.2758789,0.09130859,-0.1303711
302,5.6875,-21.875,-1.9375,-1.257813,-0.5,-0.01660156,0.2773438,0.09228516,-0.1347656
306,-0.375,-26.6875,-3.0625,-1.285156,-0.5463867,-0.01660156,0.2758789,0.09130859,-0.1347656
310,-4,-27.9375,-3.375,-1.242188,-0.6708984,0.005859375,0.2758789,0.09130859,-0.1357422
314,0.4375,-26.0625,-3.125,-1.203613,-0.7753906,-0.04394531,0.2749023,0.09130859,-0.1401367
318,12.5625,-13.75,-7.3125,-1.187988,-0.8417969,-0.06298828,0.2734375,0.09130859,-0.1416016
322,24.5,-1.3125,-17.25,-1.319824,-0.7792969,-0.08984375,0.2724609,0.09228516,-0.1416016
326,15,-0.375,-19.1875,-1.420898,-0.6357422,-0.1513672,0.2700195,0.09228516,-0.1425781
330,-3.75,-7,-18.4375,-1.525391,-0.6669922,-0.2016602,0.2709961,0.09375,-0.1425781
334,-10.9375,-13.8125,-17.0625,-1.556152,-0.8066406,-0.2436523,0.2709961,0.09619141,-0.144043
338,-9.0625,-13.6875,-18.9375,-1.509766,-0.8999023,-0.1821289,0.269043,0.09765625,-0.144043
342,-6.75,-12.9375,-17.8125,-1.501953,-0.9038086,-0.07470703,0.269043,0.09863281,-0.1455078
346,-12.1875,-12,-16,-1.413086,-0.8183594,0.04785156,0.2666016,0.1025391,-0.1455078
350,-21.25,-11.375,-13.75,-1.37793,-0.7446289,0.1210938,0.2666016,0.1010742,-0.1469727
354,-33.375,-6.875,-13.0625,-1.257813,-0.7094727,0.1635742,0.2641602,0.1049805,-0.1455078
358,-29.875,12.9375,-24.25,-1.099121,-0.8686523,0.1328125,0.2626953,0.1064453,-0.144043
362,-14,38.9375,-34.5625,-1.044922,-0.9467773,0.09814453,0.2641602,0.1098633,-0.1425781
366,-2.0625,53.6875,-39.375,-1.103027,-0.8803711,-0.009277344,0.2626953,0.1137695,-0.137207
370,-4.875,48.3125,-32.625,-1.191895,-0.8066406,-0.112793,0.2617188,0.1152344,-0.1347656
374,-10.375,30.0625,-29.375,-1.230957,-0.7641602,-0.2055664,0.2617188,0.1176758,-0.1303711
378,-21.875,9.375,-26.4375,-1.234863,-0.7446289,-0.2592773,0.2602539,0.1210938,-0.1264648
382,-25.5,-2.5,-25.125,-1.044922,-0.8300781,-0.1977539,0.2602539,0.1225586,-0.1264648
387,-7.625,15.75,-35.9375,-0.8549805,-0.9970703,-0.112793,0.2592773,0.1264648,-0.1235352
391,15.6875,39.125,-41.1875,-0.8432617,-0.9658203,-0.112793,0.2568359,0.1298828,-0.1235352
395,31.4375,42.4375,-41.0625,-1.037109,-0.7602539,-0.1669922,0.2583008,0.1313477,-0.1225586
399,28.1875,25.375,-37.9375,-1.133789,-0.6201172,-0.1938477,0.2568359,0.1323242,-0.1196289
403,14.125,4.6875,-28.875,-1.044922,-0.4492188,-0.128418,0.253418,0.1347656,-0.1210938
407,-1.75,-1.75,-28,-0.8125,-0.4726563,-0.03613281,0.2519531,0.1386719,-0.1196289
411,12,13.3125,-33.9375,-0.6455078,-0.7368164,-0.009277344,0.25,0.1401367,-0.1210938
415,54.5,27.25,-28.75,-0.6186523,-0.7563477,-0.07861328,0.25,0.1411133,-0.1196289
419,86.0625,22.5625,-22.0625,-0.5991211,-0.1850586,-0.07080078,0.2485352,0.1411133,-0.1210938
423,54,-4.0625,-10.625,-0.6845703,0.300293,-0.03613281,0.2460938,0.1401367,-0.125
427,20.6875,-52.9375,-11.125,-0.7851563,0.05908203,-0.1054688,0.2475586,0.1411133,-0.1289063
431,6.0625,-92.125,6,-0.3549805,-0.1733398,-0.04003906,0.2460938,0.1411133,-0.1303711
435,33.4375,-77.4375,7.375,0.08642578,-0.3095703,0.1367188,0.2436523,0.1386719,-0.1401367
439,62.875,-38.6875,2.875,0.09033203,-0.1811523,0.1943359,0.2402344,0.1376953,-0.1469727
443,70.625,-22.0625,-7.9375,-0.1806641,0.03613281,0.1171875,0.2402344,0.1337891,-0.1538086
447,37.375,-29.375,-0.375,-0.3588867,0.15625,0.1289063,0.237793,0.1323242,-0.15625
451,18.5625,-41.75,-1.25,-0.3706055,-0.1347656,0.06347656,0.237793,0.1313477,-0.1616211
455,22.375,-34.75,-2.75,-0.1962891,-0.3017578,0.105957,0.2368164,0.1289063,-0.1630859
459,27.125,-12.625,-1.6875,-0.1611328,-0.3286133,0.09423828,0.2329102,0.1298828,-0.1674805
463,22.625,3.75,0.5625,-0.3320313,-0.3481445,0.02880859,0.2353516,0.1289063,-0.1699219
467,16.6875,7.1875,-0.0625,-0.4365234,-0.3754883,-0.06298828,0.2329102,0.1298828,-0.1660156
471,12.4375,11.875,5.3125,-0.4287109,-0.4257813,-0.06689453,0.2329102,0.1298828,-0.168457
475,7.75,17.375,11.3125,-0.4521484,-0.3173828,0.02880859,0.2353516,0.1274414,-0.1674805
479,-8,24,13.8125,-0.4482422,-0.1655273,0.09814453,0.237793,0.125,-0.1674805
483,-24.8125,30.8125,13.4375,-0.4868164,-0.1616211,0.105957,0.237793,0.1235352,-0.1660156
487,-33.375,33.6875,11.6875,-0.5292969,-0.2470703,0.07910156,0.2412109,0.1264648,-0.1606445
491,-33.5,40.125,9.75,-0.5102539,-0.2939453,0.06347656,0.2426758,0.125,-0.1606445
495,-34,43.625,12.8125,-0.5449219,-0.2431641,0.05175781,0.2451172,0.1264648,-0.1538086
499,-34,45.0625,9.0625,-0.5141602,-0.1889648,0.08642578,0.2475586,0.1264648,-0.1469727
503,-38.9375,46.3125,7.75,-0.4829102,-0.1459961,0.1210938,0.2475586,0.1274414,-0.1455078
507,-46.9375,49.4375,10.75,-0.4130859,-0.2124023,0.1367188,0.2509766,0.1274414,-0.1401367
511,-50.125,55.5625,9.4375,-0.4208984,-0.1538086,0.125,0.2509766,0.1298828,-0.1333008
516,-54,60.5625,15.3125,-0.4287109,-0.2353516,0.03662109,0.2543945,0.1298828,-0.1279297
520,-51.3125,64,18,-0.4750977,-0.3598633,-0.05908203,0.2558594,0.1289063,-0.1166992
524,-39.5,64.4375,17.25,-0.5913086,-0.4921875,-0.1669922,0.2583008,0.1313477,-0.112793
528,-33.875,59.3125,27.5,-0.6455078,-0.387207,-0.2128906,0.2617188,0.1298828,-0.105957
532,-36.9375,41.875,25.375,-0.8007813,-0.2275391,-0.2553711,0.2641602,0.1274414,-0.1005859
536,-48.75,19.5625,22.5625,-0.765625,-0.1850586,-0.2016602,0.2675781,0.1264648,-0.09521484
540,-55.375,14.1875,21.3125,-0.6806641,-0.3989258,-0.1821289,0.269043,0.1274414,-0.09082031
544,-46.8125,25.625,20.6875,-0.6264648,-0.4921875,-0.2128906,0.269043,0.1264648,-0.08984375
548,-29.75,33.625,11.9375,-0.7734375,-0.484375,-0.2900391,0.2724609,0.1235352,-0.08447266
552,-32.4375,18.9375,7.1875,-0.9399414,-0.3481445,-0.309082,0.2700195,0.1264648,-0.08154297
556,-46.9375,-2.375,11.3125,-0.9287109,-0.4257813,-0.2822266,0.2700195,0.1264648,-0.08007813
560,-48.5625,-12.375,12.3125,-0.796875,-0.6279297,-0.2553711,0.2734375,0.125,-0.07861328
564,-31.125,-10.875,7.5,-0.8125,-0.7407227,-0.2822266,0.2734375,0.1264648,-0.07470703
568,-13.4375,-4.125,5.375,-0.8085938,-0.6787109,-0.2900391,0.2734375,0.1264648,-0.07617188
572,-6.25,-1.5625,0,-0.8706055,-0.6201172,-0.3051758,0.2734375,0.1264648,-0.07324219
576,-3.375,-7.875,3.375,-0.9985352,-0.7172852,-0.3745117,0.2734375,0.1264648,-0.07324219
580,-1.8125,-21.5625,10.375,-1.11084,-0.7407227,-0.4208984,0.2749023,0.125,-0.07617188
584,5.5625,-36,9.8125,-1.15332,-0.6977539,-0.4282227,0.2749023,0.1225586,-0.08007813
588,8.375,-40.6875,2.9375,-1.141602,-0.6240234,-0.378418,0.2734375,0.1225586,-0.07861328
592,4.25,-45.6875,-6.3125,-1.11084,-0.6474609,-0.309082,0.2749023,0.125,-0.08447266
596,-4.0625,-57.625,4.75,-1.125977,-0.8496094,-0.2631836,0.2709961,0.1235352,-0.08691406
600,4.1875,-55.125,15.125,-0.9672852,-0.9467773,-0.1860352,0.2709961,0.1235352,-0.09082031
604,25.75,-35.375,13.1875,-0.9399414,-0.8881836,-0.1401367,0.2709961,0.1225586,-0.09667969
608,40.375,-11.1875,0.4375,-0.9946289,-0.6396484,-0.1015625,0.2709961,0.1186523,-0.1005859
612,37.8125,-0.75,-16.4375,-1.203613,-0.5151367,-0.112793,0.2709961,0.1186523,-0.1035156
616,25.0625,-7.8125,-24.375,-1.327637,-0.5737305,-0.1245117,0.2700195,0.1186523,-0.1020508
620,8.375,-22,-17.875,-1.315918,-0.6240234,-0.1782227,0.269043,0.1210938,-0.105957
624,2.0625,-30.5,-13.5,-1.23877,-0.7524414,-0.2436523,0.269043,0.1210938,-0.1088867
628,10.4375,-26.75,-11.8125,-1.195801,-0.9116211,-0.2436523,0.2666016,0.1225586,-0.1113281
632,24.875,-17.25,-14.25,-1.176758,-0.9194336,-0.2128906,0.2651367,0.125,-0.1157227
636,27.9375,-4.875,-17.6875,-1.191895,-0.7368164,-0.1552734,0.2651367,0.1235352,-0.1142578
640,17.8125,1.6875,-27.5,-1.315918,-0.6630859,-0.1591797,0.2617188,0.125,-0.1166992
645,3,1.9375,-32.75,-1.40918,-0.6899414,-0.1513672,0.2602539,0.1274414,-0.1166992
649,-13.1875,-4,-30.75,-1.475098,-0.7871094,-0.1401367,0.2602539,0.1289063,-0.1166992
653,-25.25,-15.0625,-23.25,-1.447754,-0.8764648,-0.1206055,0.2583008,0.1337891,-0.1181641
657,-26.9375,-15.6875,-17.75,-1.277344,-0.9389648,-0.06298828,0.2558594,0.1362305,-0.1181641
661,-20.3125,3.875,-21.6875,-1.106934,-0.8999023,0.009765625,0.2583008,0.1376953,-0.1166992
665,-20.1875,32.125,-36.8125,-1.137695,-0.7988281,0.04785156,0.2558594,0.1401367,-0.1157227
669,-36.375,47.5,-40.25,-1.32373,-0.9428711,0.06347656,0.2543945,0.1450195,-0.1074219
673,-46.375,50.5,-34.125,-1.374023,-1.036133,0.02490234,0.253418,0.1459961,-0.105957
677,-53.3125,54.1875,-31,-1.351074,-1.024414,-0.05517578,0.2519531,0.1499023,-0.09765625
681,-54.5,52.875,-35,-1.327637,-1.129395,-0.109375,0.2519531,0.1547852,-0.09082031
685,-56.5,48.5,-24.5,-1.187988,-1.199219,-0.1362305,0.25,0.15625,-0.08691406
689,-47.625,51.5625,-23.5625,-1.063965,-1.167969,-0.1860352,0.2485352,0.1586914,-0.07861328
693,-33.3125,54.625,-29.375,-1.083496,-1.08252,-0.2744141,0.2485352,0.1635742,-0.07177734
697,-21.1875,42.625,-30.8125,-1.184082,-1.090332,-0.3515625,0.2475586,0.1625977,-0.06787109
701,-10.625,15.5625,-21.875,-1.114746,-0.9814453,-0.359375,0.2460938,0.1689453,-0.06542969
705,-2.875,-7.125,-8.25,-0.8510742,-0.8183594,-0.3286133,0.2426758,0.1689453,-0.06103516
709,10.0625,-15.25,-15.8125,-0.730957,-0.6396484,-0.3129883,0.2412109,0.1689453,-0.06103516
713,8.5,-15.9375,-24.1875,-0.6030273,-0.4296875,-0.2285156,0.2412109,0.1689453,-0.06396484
717,4.875,-16.4375,-31.6875,-0.5722656,-0.5463867,-0.2900391,0.2402344,0.1699219,-0.0625
721,20.9375,-19.8125,-29.4375,-0.5292969,-0.7329102,-0.4052734,0.237793,0.1738281,-0.06640625
725,44.9375,-27,-21.25,-0.4946289,-0.7055664,-0.4824219,0.2368164,0.1762695,-0.07177734
729,65,-33,-10.875,-0.3974609,-0.581543,-0.4594727,0.234375,0.1762695,-0.07470703
733,75.5,-27.875,-10.625,-0.2426758,-0.3950195,-0.2978516,0.2329102,0.1748047,-0.08154297
737,75,-17.3125,-10.3125,-0.2041016,-0.2822266,-0.2705078,0.2319336,0.1748047,-0.08447266
741,90.4375,-21,-4.6875,-0.28125,-0.3134766,-0.3129883,0.2319336,0.1738281,-0.09521484
745,111.8125,-27.5625,3.0625,-0.3125,-0.2587891,-0.4208984,0.230957,0.1723633,-0.1005859
749,120.375,-43.625,13.5625,-0.3164063,0.01660156,-0.3745117,0.230957,0.1689453,-0.1098633
753,114.375,-62.4375,28.4375,-0.3046875,0.01660156,-0.1899414,0.2294922,0.1625977,-0.1225586
757,112.25,-62.75,16.5,-0.04882813,0.3232422,0.105957,0.2294922,0.1601563,-0.1303711
761,82.8125,-40.1875,4.9375,0.004882813,0.6420898,0.3481445,0.230957,0.1538086,-0.1401367
765,36.3125,-31.125,-16.625,-0.3203125,0.5991211,0.3330078,0.2270508,0.1513672,-0.1484375
769,-20.9375,-47.3125,-20.625,-0.4907227,0.284668,0.2021484,0.2260742,0.1513672,-0.1494141
774,-61.9375,-61.625,-9.625,-0.362793,-0.1889648,0.03271484,0.222168,0.1547852,-0.1523438
778,-61.875,-49,-4.1875,-0.1767578,-0.6240234,-0.04003906,0.2177734,0.1586914,-0.1508789
782,-46.125,-21.875,-6.4375,-0.08007813,-0.6357422,-0.1206055,0.21875,0.1611328,-0.1508789
786,-42.625,13.9375,4.9375,-0.05664063,-0.6357422,-0.1977539,0.2177734,0.1625977,-0.1469727
790,-26,39.5625,8.8125,-0.3125,-0.7792969,-0.3359375,0.2211914,0.1635742,-0.144043
794,-11.75,42,17.9375,-0.5292969,-0.6748047,-0.3666992,0.2211914,0.1635742,-0.1416016
798,-8.1875,34.1875,25.375,-0.6069336,-0.503418,-0.3012695,0.2246094,0.1635742,-0.1386719
802,-13.6875,26.25,27.6875,-0.6225586,-0.3481445,-0.2705078,0.2260742,0.1586914,-0.1347656
806,-12.375,25.5625,16.0625,-0.5722656,-0.3056641,-0.1743164,0.2270508,0.1586914,-0.1347656
810,-18.125,28.25,11.125,-0.5488281,-0.2587891,-0.109375,0.2294922,0.1577148,-0.1303711
814,-25.375,26.8125,14,-0.5605469,-0.3017578,-0.07470703,0.230957,0.1586914,-0.1279297
818,-29.125,24.125,17.6875,-0.4633789,-0.2783203,-0.009277344,0.234375,0.1577148,-0.125
822,-35.875,25.375,23.8125,-0.4052734,-0.1889648,0.02880859,0.234375,0.1577148,-0.1235352
826,-39.8125,32.25,18.5625,-0.3862305,-0.2548828,0.04052734,0.2353516,0.1577148,-0.1157227
830,-32.4375,42.4375,11.5625,-0.4130859,-0.4257813,-0.02441406,0.237793,0.15625,-0.1113281
834,-22.5625,44.0625,14.5625,-0.4672852,-0.4375,-0.06298828,0.2412109,0.1577148,-0.1098633
838,-22.6875,33.5625,23.125,-0.5834961,-0.3286133,-0.08984375,0.2412109,0.1547852,-0.1044922
842,-38.8125,20.75,36.8125,-0.5488281,-0.2124023,-0.03613281,0.2451172,0.1547852,-0.09912109
846,-51.4375,16.625,35.75,-0.5214844,-0.3598633,-0.07470703,0.2460938,0.1538086,-0.09765625
850,-37.6875,24.3125,29.875,-0.6342773,-0.8066406,-0.1630859,0.2475586,0.1513672,-0.09228516
854,-18.5625,25.375,29.875,-0.6455078,-0.5385742,-0.1977539,0.2509766,0.1513672,-0.08837891
858,-22.25,12.125,24.8125,-0.7929688,-0.2861328,-0.2055664,0.253418,0.1489258,-0.08691406
862,-40.1875,-3.375,31.8125,-0.7734375,-0.3754883,-0.1245117,0.2558594,0.1474609,-0.08447266
866,-43.8125,-9.4375,32.6875,-0.7387695,-0.5854492,-0.1054688,0.2568359,0.1459961,-0.08300781
870,-34.25,-2.75,29.25,-0.7114258,-0.6162109,-0.1245117,0.2592773,0.1450195,-0.08154297
874,-18.4375,1.375,18.375,-0.8125,-0.484375,-0.2207031,0.2602539,0.1450195,-0.08007813
878,-13,0.625,8,-0.9326172,-0.5463867,-0.2475586,0.2602539,0.1425781,-0.08007813
882,-13.9375,-10,12.4375,-0.9750977,-0.6005859,-0.2553711,0.2602539,0.1425781,-0.08007813
886,-12.0625,-21,13.125,-0.9790039,-0.6552734,-0.2705078,0.2626953,0.1425781,-0.08300781
890,-1.125,-29.1875,3.25,-1.033203,-0.6005859,-0.3012695,0.2626953,0.1401367,-0.08154297
894,-5.125,-46.25,3.1875,-1.063965,-0.5424805,-0.309082,0.2602539,0.1411133,-0.08447266
898,-8.625,-62.75,7.25,-0.9594727,-0.6669922,-0.2397461,0.2617188,0.1401367,-0.08837891
903,-3.75,-67.5,12.5625,-0.8706055,-0.8339844,-0.1630859,0.2602539,0.1386719,-0.09228516
907,14.75,-55.625,15.9375,-0.862793,-0.8920898,-0.128418,0.2602539,0.1376953,-0.09667969
911,30,-52.1875,11.8125,-1.025391,-0.7407227,-0.1899414,0.2592773,0.1376953,-0.1035156
915,27.3125,-55.625,8.625,-1.044922,-0.6669922,-0.1401367,0.2602539,0.1362305,-0.105957
919,22.875,-56.9375,8.875,-1.11084,-0.7329102,-0.09765625,0.2592773,0.1337891,-0.112793
923,20.0625,-60.875,15.75,-1.246094,-0.8300781,-0.04394531,0.2592773,0.1313477,-0.1196289
927,22.875,-65.25,22.5625,-1.331543,-0.8183594,-0.001464844,0.2583008,0.1313477,-0.1210938
931,25.4375,-59.6875,16.9375,-1.366211,-0.7094727,0.06347656,0.2583008,0.1274414,-0.1318359
935,23.0625,-45.625,-1.875,-1.405273,-0.6435547,0.09033203,0.2558594,0.1274414,-0.1347656
939,13.125,-34.25,-13.625,-1.459473,-0.7563477,0.09814453,0.2558594,0.1264648,-0.1386719
943,-0.0625,-27.5625,-13.375,-1.428223,-0.8261719,0.05175781,0.2509766,0.1289063,-0.1416016
947,-9.4375,-23,-8.625,-1.436035,-0.9038086,0.005859375,0.2509766,0.1298828,-0.1455078
951,-10.5625,-9.3125,-6.6875,-1.370117,-0.9970703,-0.009277344,0.2509766,0.1289063,-0.144043
955,-1.9375,8.875,-10.0625,-1.362793,-0.9970703,-0.009277344,0.25,0.1313477,-0.144043
959,2.5,19.1875,-8.875,-1.362793,-0.9272461,-0.03222656,0.25,0.1298828,-0.144043
963,2.1875,21.75,-9.375,-1.343262,-0.8261719,-0.04736328,0.25,0.1313477,-0.1416016
967,-3.9375,17.375,-8.25,-1.347168,-0.7133789,-0.04394531,0.25,0.1298828,-0.1401367
971,-15.4375,13.4375,-8.375,-1.277344,-0.6435547,-0.001464844,0.2485352,0.1337891,-0.137207
975,-29.9375,14.625,-9.3125,-1.195801,-0.7055664,0.04785156,0.2519531,0.1337891,-0.137207
979,-32.5,26.75,-18.25,-1.099121,-0.8574219,0.09423828,0.25,0.1362305,-0.1357422
983,-22.25,48.125,-24,-1.048828,-0.9931641,0.1171875,0.2509766,0.1401367,-0.1279297
987,-16.5,64.875,-20.625,-1.145508,-1.098145,0.105957,0.2509766,0.1401367,-0.125
991,-15.875,61.0625,-3.0625,-1.234863,-1.117676,0.07128906,0.2519531,0.1425781,-0.1181641
995,-10.1875,55.25,10,-1.253906,-1.043945,0.02099609,0.253418,0.1435547,-0.1157227
999,-8.25,51.75,9.4375,-1.141602,-0.7563477,0.03271484,0.2543945,0.1411133,-0.1098633
1003,-14.3125,53.875,2.4375,-1.060547,-0.6279297,0.009765625,0.2558594,0.1401367,-0.105957
1007,-13,60.8125,-18.9375,-0.9946289,-0.6708984,0.009765625,0.2568359,0.1425781,-0.1005859
1011,-4.75,66.375,-32.3125,-0.9594727,-0.7446289,0.01367188,0.2568359,0.1450195,-0.09521484
1015,3.25,69.25,-37.4375,-0.8510742,-0.7680664,-0.06689453,0.2568359,0.1450195,-0.09082031
1019,14.25,72.8125,-41.9375,-0.8706055,-0.8417969,-0.1245117,0.2558594,0.1499023,-0.08837891
1023,24.6875,64.0625,-35.125,-1.001953,-0.8535156,-0.2436523,0.2519531,0.1523438,-0.08154297
1027,27.625,40.25,-25.4375,-1.025391,-0.7016602,-0.2744141,0.2519531,0.1547852,-0.07763672
1032,15.75,12.5625,-9.5,-1.041016,-0.581543,-0.309082,0.2509766,0.1547852,-0.07763672
1036,-2.25,-14.375,-11.5,-0.9130859,-0.4453125,-0.2900391,0.2485352,0.15625,-0.07763672
1040,-12.1875,-30.375,-15.8125,-0.7348633,-0.4257813,-0.2939453,0.2509766,0.1538086,-0.07861328
1044,-4.375,-34.4375,-27.4375,-0.4790039,-0.46875,-0.2900391,0.2475586,0.1586914,-0.08154297
1048,11.375,-29.5,-33.125,-0.328125,-0.453125,-0.2055664,0.2460938,0.1611328,-0.08154297
1052,17.0625,-20.375,-30.875,-0.3046875,-0.453125,-0.1362305,0.2436523,0.1625977,-0.08691406
1056,32.6875,-15.0625,-34.875,-0.3862305,-0.5385742,-0.2055664,0.2412109,0.1625977,-0.08691406
1060,48.1875,-22.8125,-32.25,-0.3823242,-0.3637695,-0.324707,0.2392578,0.1650391,-0.08984375
1064,42.0625,-39.5625,-14.1875,-0.378418,-0.2666016,-0.4208984,0.2368164,0.1674805,-0.09667969
1068,33,-59.4375,6.0625,-0.4013672,-0.2978516,-0.4091797,0.2368164,0.1650391,-0.1035156
1072,35.875,-81.5625,30.6875,-0.262207,-0.3793945,-0.2514648,0.234375,0.1635742,-0.1074219
1076,55.0625,-65.875,42.5625,0.05908203,-0.3598633,-0.04736328,0.234375,0.1601563,-0.1166992
1080,83.25,-27.125,36.1875,0.09375,-0.2124023,0.02099609,0.2368164,0.1547852,-0.1235352
1084,99.1875,7.0625,3,-0.08789063,0.08642578,0.105957,0.2353516,0.1523438,-0.1289063
1088,69,19.5625,0.5625,-0.3046875,0.2495117,0.1479492,0.2368164,0.1489258,-0.1333008
1092,35.5,14.3125,6.4375,-0.4829102,0.07080078,0.1098633,0.237793,0.1450195,-0.1347656
1096,5,4.1875,8.8125,-0.5214844,0.03613281,0.04052734,0.237793,0.1450195,-0.1357422
1100,-23.3125,-5.4375,5.5625,-0.5527344,-0.09570313,-0.07470703,0.2392578,0.1435547,-0.1347656
1104,-41.125,-18.6875,8,-0.5332031,-0.2705078,-0.07861328,0.237793,0.1450195,-0.1347656
1108,-54.5,-18.8125,17.9375,-0.3823242,-0.324707,-0.1513672,0.2392578,0.1450195,-0.1318359
1112,-55.875,4.875,11.9375,-0.3085938,-0.453125,-0.3325195,0.2402344,0.1450195,-0.1303711
1116,-33.5625,29.75,-2.5,-0.4985352,-0.7016602,-0.5014648,0.2402344,0.1474609,-0.1264648
1120,-8.625,36.5,-0.9375,-0.715332,-0.7133789,-0.5517578,0.2412109,0.1499023,-0.125
1124,0,20.375,10.75,-0.8164063,-0.5307617,-0.4936523,0.2426758,0.1489258,-0.1210938
1128,-10.75,-0.5,21.9375,-0.7543945,-0.2978516,-0.3515625,0.2426758,0.1489258,-0.1181641
1132,-27.625,-14.375,23.0625,-0.6455078,-0.2124023,-0.1860352,0.2451172,0.1450195,-0.1181641
1136,-35.3125,-10.5,17.5625,-0.4868164,-0.2587891,-0.1206055,0.2436523,0.1459961,-0.1196289
1140,-31.3125,4.25,13.875,-0.4169922,-0.3325195,-0.1245117,0.2451172,0.1435547,-0.1166992
1144,-20.9375,23.0625,6.125,-0.4711914,-0.3481445,-0.1708984,0.2460938,0.1435547,-0.1166992
1148,-17.1875,26.4375,4.9375,-0.6069336,-0.355957,-0.2246094,0.2475586,0.1435547,-0.1113281
1152,-14.875,14.1875,4.4375,-0.715332,-0.3833008,-0.2670898,0.2485352,0.1450195,-0.1113281
1156,-15.125,-6.6875,9.3125,-0.7270508,-0.3598633,-0.2285156,0.2475586,0.1459961,-0.1088867
1161,-14.1875,-28.875,10.1875,-0.6416016,-0.3208008,-0.1474609,0.25,0.1450195,-0.1088867
1165,-11.125,-35.5,12.125,-0.4443359,-0.3017578,-0.01318359,0.2485352,0.1435547,-0.1098633
1169,-11.4375,-23.75,18.75,-0.3354492,-0.2783203,0.07128906,0.25,0.1450195,-0.1113281
1173,-9.625,-3,11.1875,-0.2929688,-0.3325195,0.06738281,0.25,0.1435547,-0.1113281
1177,-0.4375,5.6875,11.625,-0.4365234,-0.4296875,-0.02441406,0.25,0.1435547,-0.112793
1181,4.6875,1.5,19.875,-0.4633789,-0.3095703,-0.02441406,0.25,0.1425781,-0.1113281
1185,-12.625,0,34.125,-0.4946289,-0.1850586,0.01708984,0.253418,0.1411133,-0.1113281
1189,-23.25,0.0625,27.5,-0.6108398,-0.3442383,-0.03222656,0.2558594,0.1362305,-0.1113281
1193,-24.875,2.3125,25.875,-0.6264648,-0.4726563,-0.07080078,0.2558594,0.1362305,-0.1113281
1197,-14,5.875,20.125,-0.6611328,-0.6201172,-0.09375,0.2583008,0.1347656,-0.1098633
1201,3.625,4.625,19.1875,-0.7734375,-0.6162109,-0.1245117,0.2602539,0.1337891,-0.1074219
1205,7.6875,0.8125,25.9375,-0.8125,-0.4804688,-0.05126953,0.2592773,0.1323242,-0.1088867
1209,2.625,0.0625,22.5625,-0.8510742,-0.4414063,-0.005371094,0.2626953,0.1298828,-0.1088867
1213,1.0625,6.375,10.9375,-0.9633789,-0.565918,-0.05517578,0.2617188,0.1298828,-0.1088867
1217,8.125,-0.5625,-2.0625,-1.087402,-0.6279297,-0.1245117,0.2641602,0.1289063,-0.1098633
1221,13,-17.1875,6.75,-1.180664,-0.7602539,-0.1630859,0.2626953,0.1289063,-0.1098633
1225,21.1875,-30.8125,12.375,-1.141602,-0.7753906,-0.109375,0.2617188,0.1274414,-0.1113281
1229,29.625,-34.3125,15.5625,-1.157227,-0.7329102,-0.03613281,0.2602539,0.1264648,-0.1157227
1233,31.1875,-31.875,4.875,-1.141602,-0.534668,0.01367188,0.2626953,0.1235352,-0.1196289
1237,11.1875,-38.875,-15.6875,-1.23877,-0.3754883,0.02490234,0.2617188,0.1235352,-0.125
1241,-20.75,-54,-12.3125,-1.187988,-0.581543,0.03271484,0.2602539,0.125,-0.1279297
1245,-23.8125,-57.25,-8.25,-1.021484,-0.9272461,0.08251953,0.2568359,0.1264648,-0.1289063
1249,2.3125,-33.5625,0.0625,-0.9477539,-1.117676,0.140625,0.2583008,0.1289063,-0.1333008
1253,40,0,-10.25,-1.029297,-0.9541016,0.1328125,0.2558594,0.1264648,-0.1357422
1257,44.9375,21.1875,-28.5625,-1.227051,-0.6201172,0.05175781,0.2583008,0.125,-0.137207
1261,16.625,10,-28.4375,-1.432129,-0.6318359,-0.01318359,0.2543945,0.1289063,-0.1386719
1265,-9.25,-8.75,-17.25,-1.432129,-0.7910156,-0.07080078,0.253418,0.1289063,-0.1386719
1269,-9.1875,-14.625,-7.375,-1.389648,-1.004883,-0.0859375,0.2519531,0.1313477,-0.137207
1273,5.625,-12.1875,-3.1875,-1.424316,-1.020508,-0.1245117,0.253418,0.1298828,-0.1401367
1277,12.125,-7.9375,-8.25,-1.436035,-0.8457031,-0.09765625,0.2519531,0.1298828,-0.1386719
1281,0.25,-9.5625,-16.5625,-1.385742,-0.7250977,-0.08984375,0.2509766,0.1313477,-0.1416016
1285,-19.875,-11.625,-17.9375,-1.285156,-0.7719727,-0.07470703,0.2509766,0.1337891,-0.1416016
1290,-26.3125,-11.4375,-18.5,-1.223145,-0.8881836,-0.08984375,0.2485352,0.1347656,-0.1401367
1294,-25.9375,-10.8125,-13.125,-1.180664,-0.9116211,-0.06689453,0.2460938,0.1362305,-0.1386719
1298,-21,-4.1875,-13.625,-1.15332,-0.9233398,-0.005371094,0.2451172,0.1376953,-0.1357422
1302,-20.625,3.625,-15.0625,-1.114746,-0.8574219,0.02880859,0.2460938,0.1411133,-0.1386719
1306,-24.625,7.4375,-17.25,-1.168945,-0.8535156,0.02880859,0.2451172,0.1411133,-0.1357422
1310,-31.875,10.875,-15.5,-1.199707,-0.8574219,0.08251953,0.2436523,0.1435547,-0.1333008
1314,-42.25,9,-12.3125,-1.246094,-0.8496094,0.140625,0.2436523,0.1459961,-0.1333008
1318,-50.6875,9,-9.875,-1.223145,-0.8686523,0.1943359,0.2412109,0.1489258,-0.1279297
1322,-53.875,17,-14,-1.184082,-0.8725586,0.2368164,0.2412109,0.1513672,-0.1235352
1326,-66.8125,24.5,-15.875,-1.20752,-0.8613281,0.2709961,0.2412109,0.1538086,-0.1225586
1330,-76.9375,27.1875,-13.0625,-1.12207,-0.9580078,0.2250977,0.2451172,0.1577148,-0.1142578
1334,-64.0625,38.125,-18,-1.025391,-1.02832,0.09814453,0.2426758,0.1586914,-0.1088867
1338,-51,51.875,-22.75,-0.9672852,-1.004883,-0.005371094,0.2412109,0.1601563,-0.1035156
1342,-34.4375,56.75,-17.8125,-1.013672,-1.136719,-0.1362305,0.2412109,0.1650391,-0.09521484
1346,-13.375,57.875,-17.4375,-1.009766,-1.094238,-0.1630859,0.2392578,0.1660156,-0.09082031
1350,4.1875,50.5,-11.0625,-1.017578,-0.9233398,-0.2592773,0.2412109,0.1674805,-0.08447266
1354,14.5625,30.6875,-10,-0.9672852,-0.6899414,-0.2939453,0.237793,0.1689453,-0.08300781
1358,4.25,7.6875,-7.6875,-0.862793,-0.5,-0.309082,0.2392578,0.1689453,-0.08007813
1362,-7.25,-11.25,-9.8125,-0.746582,-0.421875,-0.2822266,0.2402344,0.1689453,-0.08154297
1366,-15.8125,-21.75,-19,-0.5952148,-0.5073242,-0.1899414,0.237793,0.1713867,-0.08300781
1370,-5.0625,-19.9375,-24,-0.4482422,-0.6201172,-0.1630859,0.2368164,0.1723633,-0.08300781
1374,16.9375,-11.5,-24.625,-0.4443359,-0.6748047,-0.2363281,0.234375,0.1723633,-0.08447266
1378,34.5,-10.375,-24.9375,-0.4169922,-0.46875,-0.3168945,0.234375,0.1738281,-0.08544922
1382,33.625,-13.3125,-26.3125,-0.4326172,-0.3793945,-0.324707,0.230957,0.1738281,-0.08984375
1386,32.8125,-20.3125,-20.5,-0.3974609,-0.4453125,-0.2705078,0.2294922,0.1772461,-0.09375
1390,46.5625,-28.5,-7.1875,-0.3354492,-0.4726563,-0.2631836,0.2285156,0.1772461,-0.09765625
1394,69.3125,-27.9375,-0.125,-0.230957,-0.2861328,-0.2475586,0.2285156,0.1748047,-0.1020508
1398,82.6875,-20.875,6.6875,-0.2231445,-0.1230469,-0.3208008,0.2270508,0.1738281,-0.1074219
1402,95.375,-14.375,-6.9375,-0.3974609,-0.1035156,-0.3476563,0.2260742,0.1713867,-0.1157227
1406,93.75,-25.5,-5.8125,-0.4594727,0.004882813,-0.2861328,0.2246094,0.1699219,-0.1225586
1410,81.125,-42.5625,0,-0.3666992,0.1367188,-0.1401367,0.2246094,0.1660156,-0.125
1414,65.9375,-42.4375,-6.125,-0.1884766,0.2963867,0.01708984,0.222168,0.1635742,-0.1347656
1419,23.9375,-34.625,-2.25,-0.2119141,0.4282227,0.07910156,0.2211914,0.1625977,-0.1416016
1423,-16.875,-32.375,-8.375,-0.3046875,0.1757813,0.04052734,0.21875,0.1625977,-0.1425781
1427,-38.25,-26.3125,-8.75,-0.3085938,-0.1889648,-0.04394531,0.2202148,0.1625977,-0.144043
1431,-40.5625,-19.625,3.0625,-0.2734375,-0.4257813,-0.08203125,0.2177734,0.1674805,-0.1416016
1435,-38.3125,-6.375,17.75,-0.2192383,-0.4921875,-0.09375,0.2177734,0.1674805,-0.1401367
1439,-24.3125,19.9375,17.625,-0.230957,-0.565918,-0.2553711,0.21875,0.1660156,-0.1386719
1443,-4.8125,44.0625,6.75,-0.3862305,-0.5893555,-0.3554688,0.2211914,0.1660156,-0.1357422
1447,7.25,55.0625,6.5625,-0.5722656,-0.5698242,-0.4091797,0.2236328,0.1660156,-0.1347656
1451,9.8125,43.875,15.75,-0.7231445,-0.4453125,-0.3862305,0.2260742,0.1650391,-0.1303711
1455,4.1875,22.25,21.4375,-0.7192383,-0.324707,-0.2670898,0.2270508,0.1635742,-0.1303711
1459,-6.25,9.625,29,-0.5834961,-0.2509766,-0.1435547,0.2285156,0.1611328,-0.1289063
1463,-10.4375,11.25,27.375,-0.4946289,-0.3017578,-0.1015625,0.2294922,0.1601563,-0.1279297
1467,-10.6875,23.5,26.5625,-0.3666992,-0.2626953,-0.005371094,0.2329102,0.1601563,-0.1264648
1471,-4.375,41.3125,23.875,-0.3823242,-0.324707,-0.009277344,0.234375,0.1577148,-0.1210938
1475,2.6875,52.6875,13,-0.5175781,-0.2978516,-0.05126953,0.2353516,0.15625,-0.1181641
1479,-4.25,47.875,13.3125,-0.6225586,-0.3017578,-0.1474609,0.237793,0.1577148,-0.1157227
1483,-8.1875,29.625,20.375,-0.7348633,-0.4140625,-0.1669922,0.2412109,0.1538086,-0.1142578
1487,-6.8125,11.0625,28.1875,-0.746582,-0.4765625,-0.1474609,0.2426758,0.1538086,-0.1098633
1491,-7.5625,1.3125,40.0625,-0.6342773,-0.4140625,-0.08984375,0.2436523,0.1499023,-0.1113281
1495,-8.9375,1.125,39.25,-0.6147461,-0.3442383,-0.02441406,0.2475586,0.1499023,-0.105957
1499,-16.4375,8.6875,31.75,-0.5834961,-0.3520508,0.01367188,0.2475586,0.1474609,-0.1088867
1503,-10.5625,22.25,19.125,-0.6572266,-0.5073242,-0.04003906,0.2519531,0.1450195,-0.105957
1507,-1.3125,26.875,13.5625,-0.8164063,-0.5893555,-0.07861328,0.253418,0.1450195,-0.105957
1511,3.875,16.375,16.25,-0.9633789,-0.5776367,-0.1245117,0.253418,0.1435547,-0.1044922
1515,6.6875,0.9375,20.375,-0.9013672,-0.5268555,-0.08984375,0.2543945,0.1411133,-0.1044922
1519,-3.4375,-8.125,29.6875,-0.847168,-0.4570313,-0.03613281,0.2568359,0.1401367,-0.1020508
1523,-11.125,-8.125,23.6875,-0.7543945,-0.5112305,0.05175781,0.2568359,0.1401367,-0.1044922
1527,-10.25,-0.625,17.625,-0.78125,-0.6821289,0.03271484,0.2592773,0.1362305,-0.1044922
1531,9.8125,11.3125,13.1875,-0.8432617,-0.7792969,-0.02050781,0.2592773,0.1362305,-0.1044922
1535,32.5625,17.5625,3.375,-0.9985352,-0.6357422,-0.1206055,0.2617188,0.1347656,-0.105957
1539,24.6875,6,-5.25,-1.11084,-0.5,-0.1474609,0.2602539,0.1337891,-0.105957
1543,-3.125,-20.875,5.6875,-1.106934,-0.6083984,-0.1435547,0.2592773,0.1323242,-0.1044922
1548,-19.375,-36.1875,19.125,-0.9326172,-0.7949219,-0.1054688,0.2602539,0.1323242,-0.1074219
1552,-4.125,-31.0625,22.625,-0.8588867,-0.9775391,-0.109375,0.2617188,0.1323242,-0.1098633
1556,27.1875,-5.5,12.5625,-0.78125,-0.9077148,-0.1206055,0.2617188,0.1313477,-0.1098633
1560,54.25,17.3125,-3.4375,-0.8857422,-0.7563477,-0.1591797,0.2626953,0.1289063,-0.112793
1564,58.375,30.8125,-7.5,-1.001953,-0.6513672,-0.1743164,0.2626953,0.1264648,-0.1142578
1568,49.3125,26.625,-9.0625,-1.172852,-0.5776367,-0.1899414,0.2641602,0.1264648,-0.1142578
1572,29.25,9.3125,-1.625,-1.273438,-0.550293,-0.1669922,0.2641602,0.1274414,-0.1166992
1576,21.0625,-8.5625,-0.25,-1.296875,-0.6938477,-0.1474609,0.2641602,0.125,-0.1142578
1580,24.5625,-17.6875,1.1875,-1.25,-0.7446289,-0.09375,0.2651367,0.125,-0.1196289
1584,26.5,-22.5,6.9375,-1.20752,-0.7719727,-0.02050781,0.2641602,0.125,-0.1225586
1588,26.625,-24.5625,8.625,-1.203613,-0.7290039,0.01367188,0.2641602,0.1210938,-0.125
1592,19.125,-25.1875,12,-1.184082,-0.6396484,0.04052734,0.2617188,0.1225586,-0.1264648
1596,9.6875,-19.5,8.9375,-1.172852,-0.6279297,0.05566406,0.2617188,0.1225586,-0.1303711
1600,1.5,-8.25,2.125,-1.211426,-0.6630859,0.05957031,0.2626953,0.1201172,-0.1333008
1604,-2.125,-2.625,-2.4375,-1.28125,-0.7094727,0.05175781,0.2602539,0.1186523,-0.1303711
1608,-6.125,-0.125,-5.125,-1.304199,-0.7368164,0.03271484,0.2626953,0.1186523,-0.1303711
1612,-8.0625,0.0625,-6.125,-1.319824,-0.7602539,-0.009277344,0.2617188,0.1201172,-0.1318359
1616,-9.625,-2.1875,-5.9375,-1.308105,-0.7602539,-0.02050781,0.2602539,0.1225586,-0.1303711
1620,-17.125,-4.625,-4.4375,-1.234863,-0.7329102,0.005859375,0.2617188,0.1210938,-0.1303711
1624,-24.25,-1.25,-6.0625,-1.165039,-0.7329102,0.02880859,0.2602539,0.1225586,-0.1289063
1628,-27.1875,4.875,-12.1875,-1.103027,-0.7524414,0.02099609,0.2617188,0.1235352,-0.1279297
1632,-27.625,16.4375,-18.4375,-1.041016,-0.8222656,0.02490234,0.2592773,0.1264648,-0.1264648
1636,-21.25,28.375,-23.25,-1.067871,-0.8959961,0.01367188,0.2602539,0.1289063,-0.1210938
1640,-18.6875,33.625,-20.9375,-1.029297,-0.8496094,0.03662109,0.2592773,0.1298828,-0.1210938
1644,-22.75,34,-17.5625,-1.013672,-0.7485352,-0.02441406,0.2583008,0.1323242,-0.1181641
1648,-28.625,33.1875,-23.75,-1.013672,-0.7016602,-0.07470703,0.2583008,0.1362305,-0.1142578
1652,-34.875,34,-27.0625,-0.9985352,-0.7988281,-0.05908203,0.2583008,0.1362305,-0.1088867
1656,-39.8125,35.375,-15.6875,-1.041016,-0.9233398,-0.02832031,0.2568359,0.1386719,-0.1035156
1660,-32.125,34.8125,-3.875,-1.087402,-0.9853516,-0.02832031,0.2583008,0.1425781,-0.1005859
1664,-20.5625,32.375,4.1875,-1.161133,-0.8496094,-0.05517578,0.2558594,0.1411133,-0.09521484
1668,-16.6875,25.25,3.6875,-1.234863,-0.6083984,-0.1206055,0.2568359,0.1411133,-0.09082031
1672,-33.9375,15.4375,-11.0625,-1.199707,-0.4067383,-0.1821289,0.2583008,0.1425781,-0.09082031
1677,-52.75,7.6875,-26,-1.195801,-0.6357422,-0.2939453,0.2583008,0.1450195,-0.08544922
1681,-44.3125,-6.125,-30.9375,-1.133789,-0.9658203,-0.324707,0.2558594,0.1474609,-0.08300781
1685,-21.8125,-19.3125,-19.9375,-0.9907227,-1.036133,-0.2822266,0.2543945,0.1513672,-0.08154297
1689,-9.0625,-28.875,-6.125,-0.8125,-0.8959961,-0.2016602,0.2543945,0.1513672,-0.08300781
1693,5.0625,-32.3125,-7.9375,-0.6611328,-0.6977539,-0.1513672,0.2509766,0.1523438,-0.08154297
1697,0.625,-30.6875,-9.6875,-0.5683594,-0.4140625,-0.1782227,0.25,0.1523438,-0.08691406
1701,-12.3125,-33.3125,-19.625,-0.5795898,-0.3134766,-0.1938477,0.25,0.1538086,-0.08837891
1705,-16.0625,-34.9375,-26.5625,-0.5214844,-0.4609375,-0.2397461,0.2485352,0.15625,-0.08984375
1709,0.9375,-33.125,-23.0625,-0.4750977,-0.6591797,-0.2670898,0.2475586,0.15625,-0.09228516
1713,29.8125,-29.125,-18.875,-0.5141602,-0.7133789,-0.2978516,0.2451172,0.1577148,-0.09375
1717,55.0625,-31.5,-10.5,-0.4985352,-0.4960938,-0.3476563,0.2436523,0.1577148,-0.09912109
1721,54.5625,-38.625,-6.75,-0.4404297,-0.1538086,-0.3632813,0.2402344,0.15625,-0.105957
1725,35.75,-41.375,-10.5,-0.3125,0.01660156,-0.2631836,0.2402344,0.1586914,-0.1088867
1729,20.375,-35.125,-7,-0.3007813,-0.2084961,-0.3706055,0.237793,0.15625,-0.1142578
1733,40.25,-35.125,-9.1875,-0.378418,-0.5424805,-0.4091797,0.2353516,0.15625,-0.1196289
1737,72.0625,-38.5,4.5625,-0.2734375,-0.5424805,-0.2822266,0.234375,0.15625,-0.1235352
1741,88.875,-40.1875,25.75,-0.1303711,-0.09570313,-0.001464844,0.2353516,0.1513672,-0.1279297
1745,64.3125,-29.625,29.5,-0.06445313,0.2768555,0.1904297,0.234375,0.1459961,-0.1401367
1749,32.125,-11.6875,15.125,-0.1806641,0.253418,0.2094727,0.2353516,0.1435547,-0.1401367
1753,13.75,8.4375,-3.8125,-0.378418,-0.06054688,0.01708984,0.2368164,0.1450195,-0.144043
1757,14.5625,14.625,-16.8125,-0.5449219,-0.2548828,-0.1591797,0.237793,0.1450195,-0.1425781
1761,7.5,8.8125,-11.25,-0.6650391,-0.3481445,-0.309082,0.2353516,0.1435547,-0.1425781
1765,-2.4375,-9.1875,6.875,-0.699707,-0.4257813,-0.3208008,0.234375,0.1450195,-0.144043
1769,-8.625,-22.3125,17.625,-0.5991211,-0.3754883,-0.2167969,0.2368164,0.1435547,-0.144043
1773,-12.875,-14.375,18.25,-0.3745117,-0.3095703,-0.07080078,0.2368164,0.1401367,-0.1455078
1777,-13.1875,7,17.0625,-0.3354492,-0.2822266,0.005859375,0.2368164,0.1425781,-0.144043
1781,-12.125,25,14.75,-0.362793,-0.2626953,0.07128906,0.2368164,0.1401367,-0.1425781
1785,-15.8125,38.5,18.75,-0.4208984,-0.2548828,0.04443359,0.2392578,0.1401367,-0.1425781
1789,-18.875,50.25,18.125,-0.4985352,-0.3095703,-0.07470703,0.2436523,0.1386719,-0.1386719
1793,-9,54,11.6875,-0.6416016,-0.4179688,-0.2055664,0.2451172,0.1376953,-0.1318359
1797,-0.3125,51.9375,12.3125,-0.6806641,-0.371582,-0.1821289,0.2451172,0.1401367,-0.1279297
1801,-2.3125,36.75,18,-0.7192383,-0.2241211,-0.1245117,0.2485352,0.1376953,-0.1279297
1806,-15.1875,22.5,20.5625,-0.6069336,-0.1459961,-0.01660156,0.2485352,0.1347656,-0.1225586
1810,-20.8125,24.5625,17.5,-0.3588867,-0.1772461,0.06738281,0.2509766,0.1347656,-0.1210938
1814,-20.0625,44.6875,23.3125,-0.2773438,-0.324707,0.07128906,0.2519531,0.1347656,-0.1157227
1818,-5.375,69.9375,16.25,-0.4130859,-0.4296875,-0.0859375,0.2558594,0.1347656,-0.1113281
1822,5.375,72.25,7.6875,-0.78125,-0.3520508,-0.2436523,0.2583008,0.1323242,-0.1074219
1826,-10.25,39,16.375,-0.8818359,-0.2431641,-0.2705078,0.2626953,0.1337891,-0.1035156
1830,-24.125,9.625,25.6875,-0.7890625,-0.4067383,-0.2285156,0.2602539,0.1313477,-0.09912109
1834,-19.6875,-2,36.125,-0.6572266,-0.5541992,-0.1669922,0.2641602,0.1289063,-0.09765625
1838,-7,3.875,33.0625,-0.6416016,-0.484375,-0.1206055,0.2675781,0.1274414,-0.09765625
1842,-8.625,15.125,29.0625,-0.6186523,-0.4453125,-0.1054688,0.2675781,0.125,-0.09667969
1846,-8.0625,23.875,14.5,-0.7695313,-0.484375,-0.1591797,0.269043,0.1225586,-0.09375
1850,-4,19,15.6875,-0.862793,-0.5620117,-0.2207031,0.2700195,0.1210938,-0.09375
1854,-0.1875,4.9375,14.4375,-0.9750977,-0.565918,-0.2363281,0.2709961,0.1210938,-0.09228516
1858,-1.1875,-5,18.3125,-0.9399414,-0.6123047,-0.2207031,0.2724609,0.1210938,-0.09228516
1862,1.5625,-10.8125,20.3125,-0.9130859,-0.6162109,-0.1860352,0.2749023,0.1186523,-0.09228516
1866,7.9375,-12.625,24.125,-0.9594727,-0.5307617,-0.1899414,0.2749023,0.1162109,-0.09521484
1870,8.9375,-14.125,17.4375,-0.9946289,-0.3833008,-0.1782227,0.2734375,0.1152344,-0.09667969
1874,1.875,-18.5,8,-1.044922,-0.4067383,-0.1669922,0.2734375,0.1137695,-0.09667969
1878,-0.25,-18.8125,1.625,-0.9555664,-0.5737305,-0.128418,0.2749023,0.1113281,-0.09912109
1882,5.5,-16.6875,3.375,-1.017578,-0.6787109,-0.1323242,0.2749023,0.1137695,-0.1005859
1886,19.875,-25.25,-5.375,-1.161133,-0.581543,-0.1591797,0.2773438,0.1123047,-0.1005859
1890,13.25,-37.25,-11.8125,-1.227051,-0.3833008,-0.1821289,0.2749023,0.1137695,-0.1035156
1894,-18.9375,-53.1875,-15.0625,-1.157227,-0.4414063,-0.1245117,0.2709961,0.1137695,-0.1088867
1898,-34.0625,-63.125,-7.75,-1.037109,-0.8725586,-0.07080078,0.2734375,0.1162109,-0.1098633
1902,-10.6875,-52.3125,6.75,-0.9013672,-1.203125,-0.01318359,0.2700195,0.1176758,-0.1166992
1906,30.25,-23.5,10.875,-0.878418,-1.070801,0.03271484,0.2700195,0.1162109,-0.1157227
1910,46.0625,2.5625,0.75,-1.013672,-0.6938477,0.03662109,0.2700195,0.1123047,-0.1210938
1914,31.1875,2.25,3.0625,-1.261719,-0.6044922,0.02880859,0.269043,0.1113281,-0.1225586
1918,12.6875,-9.8125,15.4375,-1.327637,-0.6821289,0.04052734,0.2700195,0.1098633,-0.125
1922,11.6875,-9.875,20.5,-1.339355,-0.7172852,0.04052734,0.2700195,0.1088867,-0.1264648
1926,16.5625,-0.1875,12.5625,-1.397461,-0.6201172,0.02880859,0.2709961,0.1064453,-0.125
1930,12.3125,4.6875,2.1875,-1.513672,-0.5698242,0.02099609,0.2709961,0.1064453,-0.1279297
1935,-4,-0.375,-0.125,-1.537109,-0.5966797,0.005859375,0.2709961,0.1049805,-0.1279297
1939,-14.0625,-4.6875,-1.375,-1.459473,-0.6821289,-0.02832031,0.2700195,0.1074219,-0.1279297
1943,-16.1875,-0.625,-4.5625,-1.401367,-0.7094727,-0.07861328,0.2700195,0.1064453,-0.1264648
1947,-17.4375,4.6875,-11.25,-1.347168,-0.7016602,-0.07861328,0.269043,0.1088867,-0.1264648
1951,-22.5,9.6875,-16.5,-1.32373,-0.7792969,-0.06298828,0.2709961,0.1098633,-0.1235352
1955,-25.5,10.25,-13.25,-1.289063,-0.8920898,-0.05126953,0.2700195,0.1113281,-0.1225586
1959,-17.75,15.3125,-13.875,-1.230957,-0.9077148,-0.03222656,0.269043,0.1137695,-0.1210938
1963,-10.6875,22,-11.125,-1.234863,-0.8417969,-0.02832031,0.2709961,0.1152344,-0.1166992
1967,-13.25,27.4375,-14.8125,-1.265625,-0.7446289,-0.009277344,0.2700195,0.1152344,-0.1181641
1971,-27.25,29.5,-19.5625,-1.351074,-0.7910156,0.105957,0.269043,0.1176758,-0.1142578
1975,-41.0625,30.8125,-13.8125,-1.273438,-0.8066406,0.1328125,0.2700195,0.1186523,-0.1074219
1979,-44.25,35.4375,-19.5625,-1.215332,-0.7602539,0.105957,0.269043,0.1210938,-0.1044922
1983,-48.6875,43.625,-28.375,-1.118652,-0.7055664,0.04785156,0.2675781,0.125,-0.1005859
1987,-48.8125,46.375,-39.0625,-1.11084,-0.8027344,-0.08984375,0.2666016,0.1289063,-0.09375
1991,-41.5625,45,-38.4375,-1.091309,-0.9853516,-0.1323242,0.2666016,0.1313477,-0.08837891
1995,-20.9375,39.75,-31.875,-1.099121,-1.02832,-0.1860352,0.2651367,0.1376953,-0.08447266
1999,-1.125,28.875,-31.1875,-1.095215,-0.8417969,-0.2397461,0.2651367,0.1386719,-0.08007813
2003,-2.625,11.125,-30.3125,-0.9750977,-0.4804688,-0.2670898,0.2626953,0.1401367,-0.07617188
2007,-19,-1.0625,-36.125,-0.8706055,-0.3833008,-0.2670898,0.2617188,0.1425781,-0.07617188
2011,-28.75,-11.375,-44.8125,-0.8164063,-0.4804688,-0.2900391,0.2568359,0.1459961,-0.07470703
2015,-23.5625,-20.625,-48.5,-0.7114258,-0.5893555,-0.2900391,0.2543945,0.1513672,-0.07324219
2019,-9.75,-26.1875,-41.8125,-0.6303711,-0.6821289,-0.3286133,0.2519531,0.1538086,-0.07470703
2023,14.125,-32.3125,-36.8125,-0.5874023,-0.6821289,-0.359375,0.2485352,0.15625,-0.07617188
2027,25.1875,-39.125,-26.5,-0.4672852,-0.4414063,-0.3476563,0.2475586,0.1586914,-0.07861328
2031,22.5625,-44.125,-18.4375,-0.4013672,-0.3520508,-0.2900391,0.2460938,0.1611328,-0.08300781
2035,31.4375,-46.4375,-16.4375,-0.296875,-0.3754883,-0.2783203,0.2426758,0.1601563,-0.09082031
2039,51.0625,-40.3125,-5.75,-0.2231445,-0.4067383,-0.2783203,0.2412109,0.1611328,-0.09521484
2043,78.1875,-33.1875,-3.75,-0.1767578,-0.2587891,-0.2397461,0.2426758,0.1586914,-0.1020508
2047,78.6875,-36.5625,10.125,-0.262207,-0.03759766,-0.1630859,0.2392578,0.1586914,-0.1088867
2051,75,-43.5625,12.8125,-0.2504883,0.04003906,-0.04394531,0.2392578,0.1547852,-0.1113281
2055,69.25,-39,17.375,-0.1499023,0.08251953,0.08642578,0.2392578,0.1499023,-0.1225586
2059,61.1875,-18.875,12.75,-0.09912109,0.2148438,0.1210938,0.237793,0.1474609,-0.1264648
2064,43.125,2.125,-3.125,-0.2851563,0.21875,0.03271484,0.2392578,0.1459961,-0.1303711
2068,12.875,4.9375,-10.9375,-0.5063477,0.1293945,-0.09765625,0.2392578,0.1450195,-0.1318359
2072,-17.75,-7.3125,-5.25,-0.6030273,-0.1152344,-0.2553711,0.2392578,0.1474609,-0.1333008
2076,-27.25,-14.625,-0.125,-0.5488281,-0.4101563,-0.3666992,0.2368164,0.1489258,-0.1318359
2080,-21.1875,-15.5,10.6875,-0.5371094,-0.5463867,-0.309082,0.2368164,0.1474609,-0.1289063
2084,-14.375,-12.0625,20.625,-0.3974609,-0.4882813,-0.2705078,0.2368164,0.1459961,-0.1303711
2088,-16.1875,4.4375,24.125,-0.328125,-0.3637695,-0.2592773,0.2402344,0.1474609,-0.1333008
2092,-10.875,27.4375,14,-0.3862305,-0.4335938,-0.2861328,0.2426758,0.1450195,-0.1279297
2096,-3.8125,40.375,13.875,-0.5063477,-0.4609375,-0.3476563,0.2426758,0.1474609,-0.1289063
2100,4.6875,40.25,16.625,-0.6264648,-0.4726563,-0.3398438,0.2436523,0.1435547,-0.1235352
2104,8.5,32.6875,25.5,-0.6416016,-0.3950195,-0.3012695,0.2475586,0.1450195,-0.1235352
2108,6.75,23.4375,29.4375,-0.6533203,-0.2861328,-0.2514648,0.25,0.1401367,-0.1210938
2112,1.9375,9.3125,31,-0.6264648,-0.2006836,-0.2089844,0.2485352,0.1386719,-0.1196289
2116,-3.375,2.9375,28.6875,-0.4750977,-0.1347656,-0.1435547,0.2519531,0.1362305,-0.1210938
2120,-13.3125,9.5,26.1875,-0.3823242,-0.06835938,-0.109375,0.253418,0.1337891,-0.1196289
2124,-22.0625,15.8125,20.5,-0.4208984,-0.1616211,-0.109375,0.2543945,0.1323242,-0.1166992
2128,-16.1875,25.4375,18,-0.4521484,-0.3056641,-0.1474609,0.2543945,0.1323242,-0.1157227
2132,-9.75,32.4375,20.8125,-0.5410156,-0.3442383,-0.2207031,0.2583008,0.1298828,-0.112793
2136,-3,29.6875,18.75,-0.6225586,-0.3017578,-0.2861328,0.2592773,0.1313477,-0.1088867
2140,-1.5,23.8125,11.5,-0.6962891,-0.2978516,-0.2670898,0.2617188,0.1298828,-0.105957
2144,-8.4375,7.9375,16.8125,-0.6689453,-0.3325195,-0.1860352,0.2617188,0.1274414,-0.105957
2148,-16.5,5.6875,26.75,-0.5756836,-0.4296875,-0.09375,0.2641602,0.1264648,-0.1044922
2152,-7.9375,13.75,24,-0.5488281,-0.5,-0.03613281,0.2666016,0.1264648,-0.1035156
2156,5.3125,20.375,17.875,-0.6376953,-0.46875,-0.04003906,0.2675781,0.1235352,-0.1035156
2160,9.8125,25.3125,16.75,-0.7231445,-0.4765625,-0.08984375,0.2675781,0.1225586,-0.1005859
2164,10.5,16.375,19.5625,-0.878418,-0.4882813,-0.09375,0.2700195,0.1210938,-0.09912109
2168,6.6875,7.4375,28.5625,-0.8510742,-0.484375,-0.05908203,0.2749023,0.1176758,-0.09912109
2172,12.9375,1.75,27,-0.9130859,-0.4335938,-0.04394531,0.2724609,0.1176758,-0.09912109
2176,12.3125,-3.4375,14.25,-0.9438477,-0.2548828,-0.01660156,0.2734375,0.1123047,-0.09912109
2180,-1,-3.0625,8.125,-0.9287109,-0.3793945,-0.009277344,0.2749023,0.1137695,-0.1020508
2184,-5.5625,-9.375,5.0625,-1.048828,-0.5229492,-0.04394531,0.2758789,0.1123047,-0.1005859
2188,-6.375,-17.6875,8.75,-1.052734,-0.6279297,-0.07861328,0.2749023,0.1113281,-0.1035156
2193,5.0625,-25.5,5.4375,-1.063965,-0.6474609,-0.0859375,0.2734375,0.1088867,-0.1044922
2197,9.0625,-27.1875,3.9375,-1.037109,-0.5620117,-0.06689453,0.2758789,0.1113281,-0.105957
2201,-2.1875,-31.5625,2.6875,-1.048828,-0.6201172,-0.03613281,0.2734375,0.1123047,-0.105957
2205,-10.0625,-34.625,12.375,-1.001953,-0.8417969,0.001953125,0.2734375,0.1098633,-0.1113281
2209,3.875,-29.375,21.5625,-1.025391,-0.9580078,0.03662109,0.2758789,0.1088867,-0.1098633
2213,25.5625,-15.8125,21.375,-1.083496,-0.8183594,0.01708984,0.2758789,0.1064453,-0.1166992
2217,29.5625,-7.5,24.75,-1.199707,-0.7055664,0.02490234,0.2749023,0.1049805,-0.1166992
2221,22.0625,-7.8125,27.5625,-1.269531,-0.6513672,0.02880859,0.2773438,0.1010742,-0.1196289
2225,15.1875,-3.5,29.5,-1.300781,-0.7133789,0.005859375,0.2773438,0.09863281,-0.1225586
2229,22.625,8.75,19,-1.37793,-0.6787109,-0.03222656,0.2792969,0.09375,-0.1210938
2233,27.6875,16.1875,2.875,-1.54834,-0.5737305,-0.08984375,0.2783203,0.09375,-0.1225586
2237,20.3125,8.75,-8.3125,-1.672363,-0.503418,-0.1245117,0.2807617,0.09228516,-0.1225586
2241,3.0625,-10.9375,-11.4375,-1.672363,-0.5,-0.128418,0.2792969,0.09375,-0.1235352
2245,-16.1875,-29.4375,-10.125,-1.541016,-0.519043,-0.08203125,0.2773438,0.09375,-0.1225586
2249,-32,-40.875,-9.3125,-1.428223,-0.5620117,-0.05908203,0.2773438,0.09619141,-0.125
2253,-40.625,-40.6875,-14.125,-1.230957,-0.6860352,-0.02050781,0.2773438,0.09765625,-0.1279297
2257,-30.8125,-23.3125,-24.25,-1.125977,-0.8574219,0.009765625,0.2749023,0.1000977,-0.1279297
2261,-12.6875,-0.375,-31.6875,-1.103027,-0.9619141,0.03662109,0.2734375,0.1025391,-0.1279297
2265,0.8125,15.9375,-31.125,-1.199707,-0.9467773,0.04785156,0.2724609,0.1074219,-0.125
2269,2.4375,23.75,-25.3125,-1.285156,-0.9814453,0.07128906,0.2709961,0.1088867,-0.1235352
2273,-12.1875,34.1875,-4.4375,-1.184082,-0.9892578,0.1748047,0.2709961,0.1098633,-0.125
2277,-17,48.875,18.3125,-1.203613,-1.078613,0.1635742,0.2724609,0.1098633,-0.1181641
2281,-0.0625,78.3125,13.4375,-1.133789,-1.047363,0.1367188,0.2734375,0.1088867,-0.1142578
2285,12.375,108,2.875,-1.195801,-0.8066406,-0.02050781,0.2773438,0.1088867,-0.1074219
2289,3.5625,104.5,-5.375,-1.416992,-0.6357422,-0.2363281,0.2783203,0.1098633,-0.09912109
2293,-20.8125,68,-1,-1.575684,-0.565918,-0.394043,0.2792969,0.1088867,-0.09375
2297,-41.5,21.375,15.875,-1.533203,-0.6279297,-0.4130859,0.2807617,0.1088867,-0.08984375
2301,-42.0625,-13.125,21.75,-1.37793,-0.6162109,-0.4208984,0.2792969,0.1088867,-0.08447266
2305,-38.4375,-37.875,16.5,-1.195801,-0.4609375,-0.34375,0.2817383,0.1074219,-0.08447266
2309,-34.5625,-49.5,-0.875,-0.9555664,-0.4765625,-0.2285156,0.2807617,0.1064453,-0.08691406
2313,-22.25,-39.6875,-16.5625,-0.7543945,-0.5,-0.0859375,0.2792969,0.1088867,-0.08984375
2317,-5.5,-19.6875,-38.875,-0.7114258,-0.3481445,-0.02832031,0.2783203,0.1088867,-0.09082031
2322,-5.5625,-4.9375,-58,-0.7192383,-0.2163086,-0.02832031,0.2758789,0.1123047,-0.09082031
2326,-15.5,0.3125,-70.9375,-0.7773438,-0.3598633,-0.04003906,0.2724609,0.1176758,-0.09228516
2330,-11.8125,4.9375,-73.0625,-0.7426758,-0.6630859,-0.07470703,0.269043,0.125,-0.08984375
2334,13.8125,10.6875,-68.625,-0.7695313,-0.8686523,-0.1513672,0.2651367,0.1298828,-0.08837891
2338,38.3125,5.3125,-51.5,-0.7734375,-0.7329102,-0.2207031,0.2617188,0.1362305,-0.09082031
2342,47.1875,-9.1875,-41.4375,-0.7578125,-0.421875,-0.2553711,0.2626953,0.1362305,-0.08984375
2346,35.375,-31.25,-37.5,-0.6069336,-0.1538086,-0.2397461,0.2568359,0.1376953,-0.09667969
2350,16.625,-48.25,-31.6875,-0.5527344,-0.2006836,-0.2246094,0.253418,0.1411133,-0.09765625
2354,21.6875,-49.1875,-36,-0.378418,-0.387207,-0.2553711,0.2519531,0.1425781,-0.1035156
2358,46.9375,-34.5625,-29.625,-0.2773438,-0.5307617,-0.3632813,0.2485352,0.1459961,-0.1088867
2362,87.25,-23.125,-29.9375,-0.4868164,-0.5463867,-0.5170898,0.2460938,0.1450195,-0.1142578
2366,112.375,-38.0625,-20.75,-0.5063477,-0.2470703,-0.4477539,0.2436523,0.1459961,-0.1210938
2370,107,-56.625,1.625,-0.2773438,0.07080078,-0.1938477,0.2426758,0.1425781,-0.1303711
2374,95.8125,-55.25,2.1875,-0.1069336,0.2148438,0.1367188,0.2426758,0.1401367,-0.1425781
2378,76.5,-35.3125,-12.75,-0.03320313,0.3896484,0.3481445,0.2402344,0.1362305,-0.1469727
2382,47.25,-13.375,-36.125,-0.07617188,0.3193359,0.4365234,0.237793,0.1337891,-0.1508789
2386,4.375,-3.25,-33.875,-0.3164063,0.1098633,0.3134766,0.2353516,0.1362305,-0.1538086
2390,-32.375,-7.9375,-26.4375,-0.4169922,-0.1889648,0.07910156,0.234375,0.1386719,-0.1538086
2394,-48.125,-8.9375,-14.125,-0.3935547,-0.565918,-0.0859375,0.230957,0.1425781,-0.1538086
2398,-42.875,2.9375,3.1875,-0.3320313,-0.7485352,-0.2016602,0.230957,0.1435547,-0.1494141
2402,-25.75,23.375,8.4375,-0.3588867,-0.7290039,-0.3286133,0.2329102,0.1489258,-0.1469727
2406,-9,46.0625,3.8125,-0.4633789,-0.7250977,-0.4746094,0.2329102,0.1474609,-0.144043
2410,9.75,50.375,6.3125,-0.6650391,-0.7680664,-0.5361328,0.2368164,0.1459961,-0.1401367
2414,24.375,43.625,14.375,-0.7348633,-0.6591797,-0.4516602,0.2368164,0.1450195,-0.1401367
2418,24.3125,32.875,23.6875,-0.7231445,-0.4140625,-0.3476563,0.2368164,0.1425781,-0.1386719
2422,12.9375,25.375,26.75,-0.699707,-0.2241211,-0.2167969,0.2426758,0.1411133,-0.1357422
2426,-1.6875,20,23.5625,-0.6303711,-0.09960938,-0.1323242,0.2436523,0.1362305,-0.1347656
2430,-26.3125,22.9375,20.75,-0.5795898,-0.1035156,-0.1899414,0.2451172,0.1386719,-0.1357422
2434,-26.0625,30,8.875,-0.5874023,-0.402832,-0.2670898,0.2460938,0.1386719,-0.1303711
2438,-15.1875,35.0625,14.1875,-0.6186523,-0.5307617,-0.2744141,0.2475586,0.1376953,-0.1279297
2442,-5,26.6875,21.6875,-0.7231445,-0.387207,-0.2514648,0.2485352,0.1347656,-0.1235352
2446,-19.625,5.1875,29.5,-0.6962891,-0.06835938,-0.1401367,0.2509766,0.1347656,-0.1210938
2451,-46.4375,-14.1875,30.125,-0.5991211,-0.01416016,-0.03613281,0.253418,0.1313477,-0.1210938
2455,-54.8125,-13.875,20.125,-0.378418,-0.2353516,0.02880859,0.253418,0.1313477,-0.1196289
2459,-45.5,9.5625,19.25,-0.1728516,-0.3989258,0.06347656,0.2543945,0.1313477,-0.1181641
2463,-24.9375,32.6875,18.5625,-0.3242188,-0.4648438,0.01367188,0.2568359,0.1337891,-0.1157227
2467,-15.3125,33.625,25.25,-0.4790039,-0.3364258,-0.05126953,0.2592773,0.1323242,-0.1113281
2471,-24,19.75,36.375,-0.5683594,-0.2124023,-0.05126953,0.2592773,0.1289063,-0.1074219
2475,-31.5,9.9375,38.25,-0.5952148,-0.3095703,-0.07080078,0.2626953,0.1264648,-0.105957
2479,-23.625,8.9375,35.9375,-0.6030273,-0.355957,-0.09375,0.2651367,0.1235352,-0.1035156
2483,-20,6.5,35.625,-0.6806641,-0.3017578,-0.1166992,0.269043,0.1235352,-0.1005859
2487,-27.1875,-1,35.875,-0.7348633,-0.2861328,-0.0859375,0.2700195,0.1210938,-0.1020508
2491,-33.125,-0.9375,34.9375,-0.6923828,-0.3637695,-0.08203125,0.2700195,0.1176758,-0.09912109
2495,-24.625,7.0625,31.1875,-0.715332,-0.484375,-0.128418,0.2749023,0.1176758,-0.09912109
2499,-11.0625,13.875,20.125,-0.8393555,-0.4453125,-0.1513672,0.2724609,0.1152344,-0.09667969
2503,-12.9375,12,9.0625,-0.9516602,-0.4101563,-0.1474609,0.2749023,0.1137695,-0.09375
2507,-18.875,-2.6875,11.375,-1.041016,-0.5776367,-0.1860352,0.2749023,0.1123047,-0.09375
2511,-12,-15.9375,15.75,-1.063965,-0.6787109,-0.1977539,0.2773438,0.1137695,-0.09228516
2515,4.6875,-24.75,17.4375,-1.048828,-0.6396484,-0.1782227,0.2773438,0.1113281,-0.09375
2519,3.75,-21.4375,12.1875,-1.005859,-0.5229492,-0.1245117,0.2773438,0.1088867,-0.09667969
2523,-9.1875,-20.6875,10.875,-1.161133,-0.6396484,-0.1782227,0.2773438,0.1074219,-0.09765625
2527,-7.375,-32,13.125,-1.219238,-0.7910156,-0.2246094,0.2783203,0.1088867,-0.1005859
2531,3.625,-36.875,13.3125,-1.199707,-0.7446289,-0.1938477,0.2773438,0.1064453,-0.1020508
2535,14.625,-28.9375,2.6875,-1.141602,-0.7602539,-0.1323242,0.2773438,0.1074219,-0.1074219
2539,20.125,-22.0625,2.75,-1.157227,-0.8066406,-0.08203125,0.2773438,0.1064453,-0.1113281
2543,27.75,-11.875,8.6875,-1.161133,-0.8183594,-0.04736328,0.2773438,0.1035156,-0.112793
2547,34.625,2,11.625,-1.191895,-0.7016602,-0.001464844,0.2783203,0.1035156,-0.112793
2551,46.4375,21,9.8125,-1.269531,-0.6474609,0.02880859,0.2783203,0.1025391,-0.1142578
2555,61.5625,43.0625,-14.1875,-1.370117,-0.4726563,0.02099609,0.2807617,0.1010742,-0.1142578
2559,54.125,60.625,-32.5,-1.467285,-0.4101563,-0.009277344,0.2773438,0.09765625,-0.1142578
2563,33.3125,55.75,-37.5,-1.62207,-0.519043,-0.09765625,0.2807617,0.1025391,-0.1098633
2567,5.9375,23.6875,-24,-1.753906,-0.6787109,-0.2128906,0.2783203,0.1035156,-0.1074219
2571,-8.0625,-8.25,-4.5625,-1.684082,-0.9233398,-0.2670898,0.2783203,0.1064453,-0.105957
2575,-3.9375,-22.6875,7.0625,-1.525391,-1.032227,-0.2246094,0.2773438,0.1064453,-0.105957
2580,5.3125,-24.8125,13.8125,-1.463379,-1.043945,-0.1821289,0.2773438,0.1049805,-0.1098633
2584,11.875,-19.1875,11.625,-1.32373,-0.8764648,-0.08984375,0.2773438,0.1035156,-0.1113281
2588,7.25,-7,3.375,-1.234863,-0.7133789,-0.05517578,0.2773438,0.1010742,-0.112793
2592,-7.125,3.75,-12.1875,-1.20752,-0.6435547,-0.05126953,0.2758789,0.1025391,-0.1113281
2596,-14.6875,12.75,-18.875,-1.257813,-0.8144531,-0.07861328,0.2783203,0.1035156,-0.1113281
2600,-14.5,19.75,-25.5,-1.339355,-0.8647461,-0.02050781,0.2758789,0.1074219,-0.1113281
2604,-23.75,22.875,-23.25,-1.35498,-0.9155273,0.03271484,0.2758789,0.1098633,-0.1074219
2608,-30.3125,25.4375,-19.5,-1.343262,-1.012695,0.05957031,0.2749023,0.1098633,-0.1044922
2612,-23.5,32.8125,-20.875,-1.28125,-1.040039,0.05566406,0.2758789,0.1123047,-0.1020508
2616,-19.3125,38.5,-25.25,-1.180664,-0.8686523,0.03662109,0.2734375,0.1176758,-0.09521484
2620,-23.5625,41.0625,-30,-1.12207,-0.7910156,0.06347656,0.2734375,0.1176758,-0.09375
2624,-25.5625,46.8125,-39.5625,-1.044922,-0.7485352,-0.01318359,0.2734375,0.1210938,-0.08691406
2628,-22.8125,48.1875,-51.5,-1.075684,-0.8574219,-0.005371094,0.2700195,0.1264648,-0.08300781
2632,-12.6875,44.5,-49.4375,-1.056641,-0.9428711,-0.09765625,0.269043,0.1289063,-0.08007813
2636,7,30.0625,-30.125,-1.009766,-1.000977,-0.2128906,0.2666016,0.1323242,-0.07617188
2640,38.5625,-1.5625,-3.5625,-0.9750977,-0.9272461,-0.378418,0.2675781,0.1337891,-0.07470703
2644,59,-31.3125,15.0625,-0.7192383,-0.6005859,-0.3745117,0.2666016,0.1323242,-0.07763672
2648,41,-36.625,19.875,-0.4287109,-0.07617188,-0.2128906,0.2666016,0.1313477,-0.08447266
2652,2.0625,-28.875,1.125,-0.4594727,-0.07226563,-0.1474609,0.2666016,0.1289063,-0.08691406
2656,-23.875,-23.875,-12.8125,-0.5024414,-0.3056641,-0.2514648,0.2651367,0.1289063,-0.08691406
2660,-26.6875,-31.875,-10.1875,-0.5644531,-0.5620117,-0.4555664,0.2651367,0.1289063,-0.08984375
2664,-3.875,-52.25,-0.375,-0.5292969,-0.7524414,-0.5668945,0.2641602,0.1313477,-0.09228516
2668,31.8125,-66.875,19.375,-0.4169922,-0.7055664,-0.5170898,0.2626953,0.1298828,-0.09667969
2672,53.0625,-76.375,33.125,-0.3085938,-0.3481445,-0.3666992,0.2626953,0.1274414,-0.1035156
2676,52.9375,-67.6875,27.0625,-0.1225586,-0.006347656,-0.1782227,0.2617188,0.1235352,-0.112793
2680,57.8125,-46.25,12.5,-0.1186523,-0.08398438,-0.1630859,0.2641602,0.1235352,-0.1181641
2684,84.5625,-24.625,6.375,-0.1108398,-0.1420898,-0.1054688,0.2617188,0.1176758,-0.125
2688,113.375,0.4375,1.5,-0.2387695,-0.1577148,-0.1245117,0.2617188,0.1152344,-0.1318359
2692,145.5625,15.3125,-13.5625,-0.2661133,0.02441406,0.009765625,0.2626953,0.1098633,-0.1333008
2696,131.4375,29.0625,-15.1875,-0.3549805,0.4633789,0.2094727,0.2602539,0.1074219,-0.1425781
2700,68.5625,26,-19.75,-0.4946289,0.7856445,0.3251953,0.2617188,0.1064453,-0.1425781
2704,-26.75,13.5625,-20,-0.5449219,0.8129883,0.2749023,0.2602539,0.1064453,-0.144043
2709,-87.125,1.25,-23.3125,-0.6030273,0.1640625,0.04052734,0.2592773,0.1088867,-0.1416016
2713,-91.25,2.75,-20.9375,-0.4482422,-0.3793945,-0.1977539,0.2583008,0.1137695,-0.137207
2717,-74.625,22.6875,-20.125,-0.4365234,-1.214844,-0.5708008,0.2583008,0.1176758,-0.1318359
2721,-28.875,39.25,-17.6875,-0.5371094,-1.078613,-0.6669922,0.2583008,0.1210938,-0.1279297
2725,12.125,38.25,-0.9375,-0.715332,-1.024414,-0.6552734,0.2583008,0.1225586,-0.1235352
2729,23.8125,26,24.5625,-0.6689453,-0.5893555,-0.4594727,0.2602539,0.1210938,-0.1210938
2733,14.6875,22.875,29,-0.4711914,-0.2124023,-0.2246094,0.2626953,0.1201172,-0.1210938
2737,-5.8125,38.3125,22.8125,-0.4287109,-0.1113281,-0.2167969,0.2641602,0.1176758,-0.1181641
2741,-3.625,48.375,3.375,-0.6069336,-0.4179688,-0.3666992,0.2666016,0.1152344,-0.1157227
2745,13,51.3125,-1.125,-0.6572266,-0.534668,-0.394043,0.2666016,0.1162109,-0.1142578
2749,19.4375,39,8.75,-0.7695313,-0.4335938,-0.359375,0.269043,0.1137695,-0.1098633
2753,11.1875,16.3125,16.25,-0.7773438,-0.2163086,-0.2475586,0.2700195,0.1137695,-0.1074219
2757,-13.0625,-6,20.875,-0.6303711,-0.01025391,-0.1054688,0.2700195,0.1123047,-0.1088867
2761,-44.8125,-10,28.125,-0.4594727,0.01269531,-0.01318359,0.2709961,0.1098633,-0.1074219
2765,-46.9375,-2.3125,11.75,-0.4208984,-0.2314453,-0.03222656,0.2724609,0.1113281,-0.1074219
2769,-35,10.25,4.3125,-0.3706055,-0.387207,-0.01318359,0.2724609,0.1113281,-0.1044922
2773,-21.8125,14.375,10.1875,-0.4482422,-0.4257813,-0.04736328,0.2734375,0.1098633,-0.09912109
2777,-16.8125,9.75,18,-0.5024414,-0.3208008,-0.1015625,0.2734375,0.1113281,-0.09765625
2781,-21.8125,2.875,16.9375,-0.5449219,-0.1967773,-0.112793,0.2758789,0.1113281,-0.09765625
2785,-31.9375,2.5625,16.375,-0.4091797,-0.2822266,-0.04003906,0.2758789,0.1088867,-0.09667969
2789,-18.4375,22.125,6.9375,-0.3007813,-0.4648438,0.005859375,0.2783203,0.1088867,-0.09521484
2793,-1.6875,41.9375,7.75,-0.3745117,-0.4101563,-0.06298828,0.2783203,0.1088867,-0.09082031
2797,-7.3125,43.5625,19.25,-0.6416016,-0.2084961,-0.1362305,0.2792969,0.1074219,-0.08984375
2801,-26.9375,28.3125,25.375,-0.878418,-0.2163086,-0.2475586,0.2817383,0.1064453,-0.08544922
2805,-41.4375,0.75,28.6875,-1.060547,-0.371582,-0.3398438,0.2832031,0.1049805,-0.08154297
2809,-43.875,-21.3125,30.5625,-0.9711914,-0.3989258,-0.34375,0.2856445,0.1035156,-0.08154297
2813,-37.1875,-28.9375,24.1875,-0.9633789,-0.4609375,-0.3129883,0.2856445,0.1000977,-0.08007813
2817,-21.3125,-28.4375,8.3125,-0.9555664,-0.484375,-0.2207031,0.2856445,0.1010742,-0.08154297
2821,-19.4375,-28.375,2.125,-0.9907227,-0.4882813,-0.1743164,0.2856445,0.1010742,-0.08447266
2825,-20.5625,-37.875,9.8125,-1.087402,-0.6357422,-0.1899414,0.2841797,0.1010742,-0.08447266
2829,-7.8125,-46.9375,12.9375,-1.095215,-0.6513672,-0.2285156,0.2866211,0.09765625,-0.08837891
2833,1.875,-50.4375,6.75,-1.168945,-0.5927734,-0.2514648,0.2841797,0.09863281,-0.09082031
2838,-1.375,-56.6875,5.625,-1.187988,-0.6513672,-0.1860352,0.2856445,0.09765625,-0.09521484
2842,0.9375,-61.4375,6.8125,-1.187988,-0.7753906,-0.1513672,0.2832031,0.09619141,-0.09912109
2846,12.875,-60.3125,4.8125,-1.227051,-0.7211914,-0.1166992,0.2817383,0.09619141,-0.1044922
2850,19.0625,-58.625,-0.75,-1.296875,-0.6005859,-0.07470703,0.2832031,0.09619141,-0.1098633
2854,8.6875,-59.5625,-1.6875,-1.347168,-0.6279297,-0.005371094,0.2792969,0.09521484,-0.1157227
2858,1,-60.375,1.75,-1.296875,-0.7133789,0.04052734,0.2783203,0.09375,-0.1210938
2862,6.75,-49.25,0.4375,-1.308105,-0.7792969,0.08251953,0.2783203,0.09619141,-0.1225586
2866,18.875,-30.125,-9.25,-1.335449,-0.7055664,0.105957,0.2773438,0.09521484,-0.1289063
2870,20.25,-17.625,-25.5,-1.428223,-0.6669922,0.1098633,0.2758789,0.09521484,-0.1333008
2874,10.8125,-14.3125,-21.625,-1.48291,-0.7641602,0.1289063,0.2724609,0.09619141,-0.1347656
2878,6.375,-12.3125,-15.5,-1.521484,-0.7988281,0.1635742,0.2734375,0.09765625,-0.1357422
2882,3.9375,-0.875,-15.75,-1.45166,-0.8066406,0.2133789,0.2709961,0.1000977,-0.137207
2886,-1.5,15,-20.75,-1.424316,-0.8144531,0.1904297,0.2709961,0.09863281,-0.1386719
2890,-4.9375,27.6875,-27.0625,-1.40918,-0.8725586,0.1748047,0.2700195,0.1025391,-0.1357422
2894,-6.875,36.5,-31.375,-1.389648,-0.8457031,0.105957,0.269043,0.1064453,-0.1333008
2898,-19.5,35,-30.875,-1.35498,-0.7641602,0.04785156,0.2709961,0.1074219,-0.1289063
2902,-32.0625,29.4375,-28.0625,-1.261719,-0.8261719,-0.005371094,0.2709961,0.1123047,-0.1264648
2906,-39.0625,34.25,-23.375,-1.161133,-0.8725586,-0.03613281,0.269043,0.1137695,-0.1210938
2910,-35.1875,40.75,-29.8125,-1.203613,-0.9697266,-0.05908203,0.2675781,0.1176758,-0.1157227
2914,-38.125,44.3125,-29.375,-1.219238,-1.016602,-0.04394531,0.2666016,0.1210938,-0.1142578
2918,-44.4375,42.5,-17.6875,-1.234863,-1.066895,-0.05126953,0.2666016,0.1235352,-0.105957
2922,-44.0625,38.8125,-9.8125,-1.234863,-1.109863,-0.02050781,0.269043,0.1264648,-0.1005859
2926,-44.875,33.125,4.5,-1.203613,-1.062988,0.02880859,0.269043,0.1274414,-0.09521484
2930,-49.4375,25,15.625,-1.133789,-0.8920898,-0.04736328,0.2700195,0.1264648,-0.08984375
2934,-46.5,22.5625,2.8125,-1.048828,-0.8144531,-0.07861328,0.2709961,0.1274414,-0.08691406
2938,-39.5625,26.9375,-7.625,-1.021484,-0.8183594,-0.1054688,0.2700195,0.1264648,-0.08300781
2942,-22.375,29,-20.125,-1.041016,-0.8300781,-0.1474609,0.2700195,0.1289063,-0.07861328
2946,-9.1875,20.4375,-20.125,-0.9985352,-0.7910156,-0.2246094,0.269043,0.1313477,-0.07763672
2950,2.1875,6.75,-10.25,-0.9672852,-0.7910156,-0.2939453,0.269043,0.1313477,-0.07470703
2954,12,-2.125,5.4375,-0.8276367,-0.6005859,-0.2978516,0.2675781,0.1313477,-0.07617188
2958,9.75,-6.5,3.9375,-0.7504883,-0.3056641,-0.324707,0.2675781,0.1323242,-0.07470703
2962,8.375,-19.625,-14.5,-0.6728516,-0.09570313,-0.3901367,0.2666016,0.1313477,-0.07861328
2967,-0.8125,-40.0625,-25.5625,-0.6264648,-0.04541016,-0.4052734,0.2651367,0.1313477,-0.07861328
2971,-10.5,-56.6875,-25.0625,-0.5214844,-0.1967773,-0.3359375,0.2651367,0.1347656,-0.08154297
2975,-3.9375,-63.4375,-20,-0.3974609,-0.324707,-0.3286133,0.2617188,0.1362305,-0.08691406
2979,9.3125,-62.0625,-9.3125,-0.3706055,-0.2431641,-0.3666992,0.2583008,0.1362305,-0.09228516
2983,21.375,-62.9375,-7.0625,-0.378418,-0.2163086,-0.3862305,0.2592773,0.1376953,-0.09521484
2987,35.875,-61.375,-8.6875,-0.2700195,-0.09570313,-0.3359375,0.2568359,0.1376953,-0.1020508
2991,44.25,-50.5,-8.75,-0.2700195,-0.1230469,-0.2978516,0.2558594,0.1376953,-0.1074219
2995,52.375,-43,-1.3125,-0.2890625,-0.09960938,-0.2475586,0.2543945,0.1376953,-0.1142578
2999,60.375,-41.875,6.625,-0.3588867,-0.1420898,-0.2167969,0.253418,0.1362305,-0.1210938
3003,74.375,-44.875,7.625,-0.3354492,-0.06445313,-0.09375,0.2509766,0.1347656,-0.1264648
3007,72.1875,-33.6875,5.0625,-0.246582,0.04394531,-0.02832031,0.25,0.1313477,-0.1318359
3011,67.6875,-14.625,-11.3125,-0.2929688,-0.02978516,0.06738281,0.2485352,0.1274414,-0.137207
3015,54,-1.125,-12.6875,-0.3320313,0.0009765625,0.1289063,0.2485352,0.1264648,-0.144043
3019,21.6875,6.8125,-0.9375,-0.3706055,0.02441406,0.1020508,0.2485352,0.125,-0.144043
3023,-6,6.25,6.6875,-0.4790039,-0.1035156,0.08642578,0.2509766,0.1264648,-0.1455078
3027,-26.4375,5.5625,9.5,-0.4013672,-0.05273438,0.09033203,0.2485352,0.125,-0.144043
3031,-55.125,17.4375,19.1875,-0.2773438,-0.02978516,0.01708984,0.2485352,0.1274414,-0.1386719
3035,-65.5625,37.9375,15,-0.3588867,-0.2587891,-0.1860352,0.25,0.1264648,-0.137207
3039,-50.1875,55.3125,4.5,-0.4750977,-0.4960938,-0.394043,0.253418,0.1274414,-0.1279297
3043,-33.125,58.4375,8.375,-0.6376953,-0.5776367,-0.5053711,0.2558594,0.1289063,-0.125
3047,-22.5625,42.375,21.6875,-0.7617188,-0.5,-0.4746094,0.2568359,0.1274414,-0.1166992
3051,-24,22.3125,34.6875,-0.7348633,-0.324707,-0.378418,0.2583008,0.1274414,-0.1142578
3055,-28.5625,8.0625,31.4375,-0.6225586,-0.1811523,-0.2436523,0.2602539,0.125,-0.1113281
3059,-37.0625,11.5,24.625,-0.4169922,-0.1381836,-0.1435547,0.2626953,0.1235352,-0.1098633
3063,-38.0625,27.0625,18.875,-0.3706055,-0.2314453,-0.1669922,0.2651367,0.1210938,-0.105957
3067,-22.625,47.8125,6.875,-0.4633789,-0.4179688,-0.2397461,0.2666016,0.1210938,-0.105957
3071,0.1875,53.1875,-1.625,-0.6728516,-0.5151367,-0.3325195,0.269043,0.1210938,-0.09912109
3075,9.875,37.3125,6.25,-0.8007813,-0.3637695,-0.3666992,0.2675781,0.1210938,-0.09521484
3079,-1.375,5.0625,17.875,-0.8706055,-0.08398438,-0.3359375,0.269043,0.1225586,-0.09375
3083,-27.9375,-26.125,22.4375,-0.730957,0.01269531,-0.1860352,0.2709961,0.1186523,-0.09521484
3087,-57.1875,-26.4375,29.5,-0.4711914,-0.07226563,-0.06689453,0.2734375,0.1186523,-0.09375
3091,-60.625,-10.4375,29.4375,-0.4790039,-0.4140625,-0.0859375,0.2709961,0.1162109,-0.09228516
3096,-34.0625,9,17.8125,-0.5253906,-0.5,-0.1166992,0.2773438,0.1162109,-0.09228516
3100,-16.25,19.4375,14.6875,-0.6494141,-0.4453125,-0.1206055,0.2749023,0.1152344,-0.08837891
3104,-9.625,21.0625,5.875,-0.8007813,-0.3754883,-0.1401367,0.2773438,0.1162109,-0.08691406
3108,-13.9375,7.625,5.125,-0.8706055,-0.3911133,-0.112793,0.2758789,0.1137695,-0.08300781
3112,-21.5,-5.6875,8.625,-0.8237305,-0.3911133,-0.109375,0.2773438,0.1162109,-0.08447266
3116,-28,-11.5,19.8125,-0.7890625,-0.4882813,-0.08984375,0.2783203,0.1152344,-0.08447266
3120,-17.375,-11.875,18.4375,-0.8354492,-0.6083984,-0.1245117,0.2783203,0.1137695,-0.08154297
3124,-0.0625,-0.875,11.875,-0.8125,-0.6860352,-0.1323242,0.2792969,0.1113281,-0.08300781
3128,19.0625,9.8125,3.875,-0.9052734,-0.7094727,-0.2167969,0.2792969,0.1113281,-0.08447266
3132,37.1875,13.9375,-9.875,-0.9946289,-0.519043,-0.2822266,0.2792969,0.1098633,-0.08447266
3136,37,4.4375,-21.25,-1.12207,-0.4335938,-0.3012695,0.2792969,0.1137695,-0.08447266
3140,23.1875,-17.875,-19.3125,-1.211426,-0.4492188,-0.2978516,0.2792969,0.1123047,-0.08544922
3144,0.375,-48.3125,0.5,-1.230957,-0.5581055,-0.2705078,0.2792969,0.1137695,-0.08984375
3148,-4.0625,-66.3125,9.5,-1.118652,-0.7329102,-0.1669922,0.2773438,0.1137695,-0.09521484
3152,8.125,-56,13.5,-0.9985352,-0.8613281,-0.009277344,0.2749023,0.1123047,-0.09765625
3156,33.375,-29.875,2.125,-1.029297,-0.8535156,0.07910156,0.2758789,0.1113281,-0.1005859
3160,45.3125,-7.25,-2,-1.133789,-0.7329102,0.08251953,0.2758789,0.1088867,-0.105957
3164,40.8125,3,-11.5,-1.312012,-0.5854492,0.04052734,0.2749023,0.1074219,-0.105957
3168,26.4375,-2.3125,-11.875,-1.475098,-0.5854492,0.005859375,0.2734375,0.1074219,-0.1088867
3172,17.8125,-11.375,-12.3125,-1.513672,-0.6630859,-0.04736328,0.2724609,0.1098633,-0.1113281
3176,10.9375,-18,-11.625,-1.509766,-0.7172852,-0.05517578,0.2749023,0.1098633,-0.1113281
3180,4,-25.1875,-6.0625,-1.475098,-0.7290039,-0.05908203,0.2709961,0.1113281,-0.1157227
3184,-5.5625,-31.0625,-4.625,-1.413086,-0.6787109,-0.03222656,0.2724609,0.1113281,-0.1166992
3188,-18.6875,-30.1875,-4.0625,-1.273438,-0.7329102,-0.02050781,0.2709961,0.1123047,-0.1196289
3192,-19.1875,-15.375,-8.875,-1.20752,-0.8647461,-0.02441406,0.269043,0.1137695,-0.1196289
3196,-11.625,4.3125,-13.6875,-1.223145,-0.9350586,-0.04736328,0.2700195,0.1137695,-0.1196289
3200,-4.25,15,-14.25,-1.273438,-0.9155273,-0.07080078,0.2700195,0.1162109,-0.1196289
3204,-1.8125,16.1875,-11.5625,-1.315918,-0.8842773,-0.08984375,0.269043,0.1176758,-0.1166992
3208,-7.6875,14.5,-9.9375,-1.312012,-0.8647461,-0.01318359,0.269043,0.1162109,-0.1142578
3212,-17.5,12.6875,0.5625,-1.300781,-0.9658203,0.02880859,0.269043,0.1176758,-0.1157227
3216,-15.25,18.6875,4.4375,-1.23877,-1.008789,0.03662109,0.2700195,0.1176758,-0.1113281
3220,-7.9375,34.375,4.9375,-1.219238,-0.9272461,0.06347656,0.2709961,0.1176758,-0.1113281
3225,-11.9375,44.0625,-0.6875,-1.273438,-0.7871094,0.06738281,0.2700195,0.1176758,-0.1074219
3229,-29.3125,42.6875,1.1875,-1.315918,-0.7407227,0.05175781,0.2700195,0.1176758,-0.1005859
3233,-39.3125,34.625,1.375,-1.335449,-0.7602539,0.01708984,0.2709961,0.1201172,-0.09765625
3237,-43,32,-5.5,-1.351074,-0.6899414,0.02099609,0.2734375,0.1201172,-0.09375
3241,-54.8125,32.875,-14.5,-1.312012,-0.6240234,-0.07470703,0.2734375,0.1201172,-0.08837891
3245,-57.3125,30.8125,-27.75,-1.215332,-0.6513672,-0.1591797,0.2709961,0.125,-0.08154297
3249,-51.4375,30.0625,-39.0625,-1.145508,-0.6787109,-0.2939453,0.2724609,0.1264648,-0.07861328
3253,-37.75,24.375,-54.75,-1.103027,-0.7094727,-0.324707,0.2675781,0.1323242,-0.07470703
3257,-31.6875,12.8125,-53.0625,-0.9633789,-0.7329102,-0.3325195,0.2651367,0.1386719,-0.06933594
3261,-23.4375,-2.6875,-41.0625,-0.8510742,-0.7563477,-0.359375,0.2651367,0.1401367,-0.06640625
3265,-13.5,-16.25,-24.75,-0.699707,-0.6123047,-0.3476563,0.2617188,0.1435547,-0.06787109
3269,-5.9375,-28.3125,-17.0625,-0.6108398,-0.4804688,-0.3129883,0.2592773,0.1474609,-0.06640625
3273,-1,-32.375,-17.9375,-0.5566406,-0.355957,-0.2978516,0.2592773,0.1459961,-0.07080078
3277,-4.4375,-31.5,-19.25,-0.4594727,-0.2548828,-0.2246094,0.2583008,0.1474609,-0.07470703
3281,-10.5,-35.0625,-16.0625,-0.4633789,-0.2470703,-0.2436523,0.2543945,0.1513672,-0.07470703
3285,-8,-32.875,-16.875,-0.3974609,-0.3173828,-0.3051758,0.253418,0.1489258,-0.07470703
3289,5.875,-28.0625,-21,-0.4052734,-0.4257813,-0.359375,0.2509766,0.1523438,-0.07763672
3293,27.5625,-13.25,-24,-0.3510742,-0.4648438,-0.4399414,0.2509766,0.1513672,-0.08154297
3297,48.5,1.25,-30.5625,-0.3549805,-0.4140625,-0.5517578,0.2475586,0.1547852,-0.08300781
3301,63,2.8125,-24.8125,-0.4868164,-0.4101563,-0.6171875,0.2460938,0.1577148,-0.08544922
3305,88.75,-22.1875,-13.1875,-0.5683594,-0.453125,-0.6401367,0.2451172,0.15625,-0.09082031
3309,118.6875,-46.1875,-1.625,-0.3935547,-0.3637695,-0.3901367,0.2436523,0.1547852,-0.09765625
3313,138.8125,-47,10.375,-0.1069336,-0.08007813,-0.005371094,0.2451172,0.1523438,-0.1074219
3317,135.5,-26.75,16.5,-0.09130859,0.2148438,0.2519531,0.2426758,0.1450195,-0.1196289
3321,118.1875,-6.5625,-7.75,-0.2773438,0.4399414,0.2983398,0.2451172,0.1435547,-0.1279297
3325,75.25,-0.125,-21.8125,-0.4326172,0.4946289,0.2709961,0.2412109,0.1411133,-0.1333008
3329,8.75,-11.75,-4.4375,-0.6342773,0.4165039,0.1865234,0.2451172,0.1411133,-0.1357422
3333,-33.9375,-26.875,-8.5625,-0.7114258,0.08251953,0.005859375,0.2426758,0.1411133,-0.137207
3337,-64.125,-37.875,-0.4375,-0.5410156,-0.1269531,-0.07080078,0.2402344,0.1450195,-0.137207
3341,-72.75,-31.0625,16.625,-0.347168,-0.4921875,-0.2167969,0.2392578,0.1450195,-0.1357422
3345,-51.0625,4.0625,12.8125,-0.3164063,-0.7485352,-0.2363281,0.2392578,0.1435547,-0.1347656
3349,-18.625,27.75,9.25,-0.4672852,-0.7250977,-0.3666992,0.2392578,0.1450195,-0.1318359
3354,-4.375,33.75,15.1875,-0.6069336,-0.519043,-0.3168945,0.2436523,0.1459961,-0.125
3358,-9.4375,25.8125,23.9375,-0.6376953,-0.2822266,-0.2670898,0.2436523,0.1450195,-0.1235352
3362,-19.3125,24.3125,23.6875,-0.6030273,-0.2548828,-0.2514648,0.2451172,0.1425781,-0.1225586
3366,-19.4375,21.75,16.125,-0.5952148,-0.2861328,-0.2397461,0.2475586,0.1425781,-0.1196289
3370,-17.625,21.1875,17.5,-0.5756836,-0.2861328,-0.2055664,0.25,0.1411133,-0.1166992
3374,-17.8125,14.75,15.4375,-0.5683594,-0.1733398,-0.1513672,0.2509766,0.1401367,-0.1142578
3378,-27.4375,7.3125,17.875,-0.4443359,-0.1499023,-0.1054688,0.2509766,0.1386719,-0.112793
3382,-35.4375,18.75,20.4375,-0.3164063,-0.2314453,-0.1474609,0.2519531,0.1411133,-0.1113281
3386,-28.125,36.375,10.25,-0.4091797,-0.4140625,-0.2475586,0.2558594,0.1401367,-0.1088867
3390,-16.1875,37.125,10.5625,-0.5795898,-0.4414063,-0.324707,0.2568359,0.1411133,-0.1044922
3394,-19.875,11.3125,26.5625,-0.6416016,-0.2705078,-0.2670898,0.2558594,0.1386719,-0.09912109
3398,-29.125,-12.4375,28.5,-0.5332031,-0.2163086,-0.1669922,0.2592773,0.1376953,-0.09912109
3402,-33.8125,-11.4375,30.875,-0.378418,-0.340332,-0.1015625,0.2617188,0.1347656,-0.09765625
3406,-26.5625,5.375,28.875,-0.2734375,-0.421875,-0.08203125,0.2602539,0.1337891,-0.09667969
3410,-8.875,30,18.75,-0.3588867,-0.4375,-0.1245117,0.2626953,0.1337891,-0.09667969
3414,-2.4375,35.4375,18.5,-0.4868164,-0.3911133,-0.1474609,0.2666016,0.1313477,-0.09082031
3418,-1.5625,36.25,12.8125,-0.6147461,-0.4492188,-0.2128906,0.2666016,0.1289063,-0.08837891
3422,4.375,32.9375,8.75,-0.78125,-0.519043,-0.2939453,0.2666016,0.1289063,-0.08691406
3426,11.5625,13.75,8.6875,-0.9750977,-0.5385742,-0.3554688,0.2666016,0.1289063,-0.08544922
3430,12.875,-9,15.0625,-1.017578,-0.5151367,-0.3359375,0.2700195,0.1264648,-0.08691406
3434,9.0625,-26.9375,21.0625,-0.9248047,-0.4960938,-0.2167969,0.269043,0.1264648,-0.08691406
3438,4.8125,-34.6875,23.125,-0.9248047,-0.534668,-0.1474609,0.269043,0.1235352,-0.09228516
3442,7.125,-35.6875,19.375,-0.8706055,-0.5151367,-0.1054688,0.2709961,0.1225586,-0.09228516
3446,12.625,-28.4375,8.875,-0.8432617,-0.5620117,-0.04394531,0.2709961,0.1210938,-0.09375
3450,23.1875,-24,-0.3125,-1.025391,-0.6396484,-0.02441406,0.2709961,0.1201172,-0.1005859
3454,24.6875,-26,-9.25,-1.114746,-0.6044922,-0.02832031,0.2724609,0.1186523,-0.1005859
3458,24.9375,-34.4375,-18.8125,-1.289063,-0.6591797,-0.08203125,0.2709961,0.1186523,-0.1044922
3462,26,-36.6875,-36.625,-1.203613,-0.6552734,-0.09375,0.2675781,0.1225586,-0.1098633
3466,33,-29.125,-59.0625,-1.203613,-0.7250977,-0.06298828,0.2651367,0.1235352,-0.112793
3470,25.8125,-34.875,-59.125,-1.455566,-0.8261719,-0.0859375,0.2617188,0.1274414,-0.1166992
3474,7.3125,-63.3125,-26.1875,-1.490234,-1.016602,-0.05908203,0.2583008,0.1313477,-0.1210938
3478,14.3125,-72.625,-2.875,-1.389648,-1.199219,0.08251953,0.2543945,0.1313477,-0.1264648
3483,26.3125,-49.0625,-2.3125,-1.195801,-0.9077148,0.3330078,0.253418,0.1313477,-0.1347656
3487,27.0625,-15.1875,-25.5,-1.308105,-0.6318359,0.4711914,0.2519531,0.1313477,-0.137207
3491,2.75,4.8125,-36.8125,-1.463379,-0.6044922,0.5019531,0.2509766,0.1337891,-0.137207
3495,-18.125,15.3125,-44.9375,-1.463379,-0.7094727,0.4287109,0.2475586,0.1362305,-0.1357422
3499,-30.4375,27.5625,-46.75,-1.459473,-0.8378906,0.2866211,0.2460938,0.1401367,-0.1333008
3503,-38.0625,29.1875,-47.75,-1.467285,-0.8842773,0.105957,0.2460938,0.1450195,-0.1318359
3507,-45.25,28.125,-48.125,-1.397461,-0.9697266,-0.06298828,0.2451172,0.1499023,-0.1264648
3511,-45.0625,28.375,-47.4375,-1.227051,-1.066895,-0.1630859,0.2402344,0.1523438,-0.1210938
3515,-41.5625,33.25,-42.0625,-1.161133,-1.129395,-0.2167969,0.2402344,0.1586914,-0.1166992
3519,-34.0625,41.3125,-39,-1.195801,-1.144531,-0.1821289,0.2392578,0.1611328,-0.112793
3523,-31.4375,48.75,-39.625,-1.339355,-1.012695,-0.1401367,0.2368164,0.1650391,-0.105957
3527,-44.625,48.0625,-44.375,-1.370117,-0.9311523,-0.1166992,0.2353516,0.1689453,-0.1035156
3531,-66.6875,34.3125,-37.875,-1.393555,-1.086426,-0.109375,0.234375,0.1762695,-0.09521484
3535,-73.8125,21.25,-23.6875,-1.227051,-1.26123,-0.1474609,0.2319336,0.1772461,-0.08984375
3539,-61.8125,18.375,-22,-1.223145,-1.167969,-0.2167969,0.230957,0.1801758,-0.08300781
3543,-68.875,8.125,-23.0625,-1.149414,-0.9506836,-0.2089844,0.2294922,0.1826172,-0.07861328
3547,-92.5625,11.5,-30.6875,-0.7773438,-0.9736328,-0.07080078,0.2260742,0.1860352,-0.07177734
3551,-84.8125,40.875,-41.0625,-0.4326172,-1.272949,-0.02050781,0.2260742,0.1884766,-0.06640625
3555,-50,77.6875,-46.5625,-0.4130859,-1.331055,-0.1206055,0.2246094,0.1914063,-0.05712891
3559,-13.3125,91.1875,-41.875,-0.6342773,-1.191406,-0.2861328,0.2202148,0.1962891,-0.05029297
3563,-7.3125,73.1875,-39.9375,-0.8432617,-0.8686523,-0.394043,0.2202148,0.1987305,-0.04199219
3567,-15.5,36.9375,-31.4375,-0.7890625,-0.6899414,-0.359375,0.215332,0.2001953,-0.03955078
3571,-22.8125,17.5625,-28.8125,-0.6147461,-0.6591797,-0.2822266,0.2128906,0.2036133,-0.03515625
3575,-12,13.4375,-34.9375,-0.5795898,-0.8066406,-0.3398438,0.2119141,0.2036133,-0.03271484
3579,12.375,4.4375,-30.1875,-0.6108398,-1.032227,-0.4321289,0.2094727,0.2075195,-0.03369141
3583,43.125,-14,-5,-0.5683594,-0.9853516,-0.5170898,0.2070313,0.2099609,-0.03369141
3587,48.5,-25.0625,9.375,-0.3745117,-0.4882813,-0.4555664,0.2080078,0.2084961,-0.03808594
3591,26.6875,-25.8125,8,-0.2929688,-0.2202148,-0.4248047,0.2080078,0.2075195,-0.04345703
3595,30.5,-17.625,8.6875,-0.2734375,-0.6669922,-0.4785156,0.2080078,0.2050781,-0.04638672
3599,66.0625,-2.25,20.75,-0.2231445,-0.8339844,-0.6171875,0.2094727,0.2060547,-0.04882813
3603,116.25,12.875,25.8125,-0.3862305,-0.8105469,-0.7978516,0.2104492,0.2036133,-0.05712891
3607,145.875,-13.25,47.375,-0.4829102,-0.1616211,-0.6860352,0.2128906,0.1987305,-0.06542969
3612,128,-49.25,64.4375,-0.362793,0.4165039,-0.3515625,0.2138672,0.1948242,-0.07470703
3616,98.125,-54.1875,56,-0.08007813,0.7041016,0.02490234,0.2177734,0.1875,-0.08544922
3620,94.9375,-26.125,29,0.09033203,0.3388672,0.3520508,0.2211914,0.1826172,-0.09667969
3624,94.1875,12.1875,16.5,-0.01416016,0.2265625,0.3330078,0.2211914,0.1787109,-0.1020508
3628,70.0625,11.5,8.3125,-0.4443359,0.237793,0.06738281,0.2211914,0.1762695,-0.105957
3632,20.5,-13.375,8.5625,-0.4672852,0.140625,-0.07861328,0.2236328,0.1723633,-0.1098633
3636,-5.6875,-24.1875,8.625,-0.3901367,-0.2939453,-0.2363281,0.2246094,0.1723633,-0.112793
3640,-8.625,-18.0625,12.5,-0.262207,-0.01025391,-0.2861328,0.2236328,0.1748047,-0.112793
3644,-10.1875,-14.1875,33.875,-0.3823242,-0.565918,-0.3901367,0.2260742,0.1699219,-0.1157227
3648,-7.6875,-10.3125,36.8125,-0.4208984,-0.5307617,-0.3286133,0.2270508,0.1699219,-0.112793
3652,-10.9375,-2.8125,33.125,-0.4208984,-0.4492188,-0.2744141,0.2294922,0.1674805,-0.1142578
3656,-14.375,2,34.375,-0.4169922,-0.4296875,-0.2436523,0.2294922,0.1660156,-0.1142578
3660,-20.125,8.5625,41.875,-0.3393555,-0.3325195,-0.1669922,0.2353516,0.1625977,-0.112793
3664,-24.5625,25,43.1875,-0.3666992,-0.3481445,-0.2475586,0.2353516,0.1611328,-0.1113281
3668,-18.25,35.5625,36.625,-0.4790039,-0.3481445,-0.3168945,0.2412109,0.1601563,-0.105957
3672,-16.4375,39.875,33.125,-0.5410156,-0.2822266,-0.3012695,0.2412109,0.15625,-0.105957
3676,-16.5,39.0625,29.5,-0.5756836,-0.2392578,-0.2553711,0.2426758,0.1538086,-0.1005859
3680,-22.6875,29.5625,25.8125,-0.6342773,-0.1191406,-0.1669922,0.2460938,0.1523438,-0.09667969
3684,-46.0625,10.75,30.9375,-0.6186523,0.1293945,-0.0859375,0.2475586,0.1513672,-0.09228516
3688,-72,-3.875,28.5,-0.5214844,0.04394531,-0.09375,0.25,0.1513672,-0.08984375
3692,-74.0625,6.1875,13.875,-0.3901367,-0.2353516,-0.1513672,0.2509766,0.1499023,-0.08544922
3696,-52.125,29.1875,7.5625,-0.4248047,-0.5581055,-0.2631836,0.2519531,0.1489258,-0.07861328
3700,-17.625,37.75,-0.625,-0.7036133,-0.519043,-0.3706055,0.2543945,0.1513672,-0.07617188
3704,-14.3125,12.6875,1.375,-0.8164063,-0.2314453,-0.3666992,0.253418,0.1499023,-0.07177734
3708,-41,-19.25,18.625,-0.7114258,-0.1308594,-0.2592773,0.2558594,0.1513672,-0.07324219
3712,-61.3125,-27.8125,26.375,-0.4985352,-0.3286133,-0.1435547,0.2568359,0.1499023,-0.07177734
3716,-46.3125,-11.5,21.3125,-0.4208984,-0.5698242,-0.1206055,0.2568359,0.1499023,-0.06933594
3720,-24.8125,6.875,16.0625,-0.4633789,-0.5463867,-0.112793,0.2568359,0.1474609,-0.06933594
3724,-11.6875,17.25,12.75,-0.5874023,-0.5307617,-0.1054688,0.2592773,0.1474609,-0.06640625
3728,-13.5,14,16,-0.6147461,-0.4765625,-0.1166992,0.2602539,0.1459961,-0.06542969
3732,-18.4375,13.5,25.5625,-0.6689453,-0.5854492,-0.112793,0.2626953,0.1459961,-0.06396484
3736,-7.875,14.1875,21.75,-0.730957,-0.5776367,-0.128418,0.2617188,0.1450195,-0.06103516
3741,-0.3125,15.5625,14.375,-0.8354492,-0.5112305,-0.1362305,0.2651367,0.1425781,-0.05957031
3745,-2.625,21.9375,6.0625,-0.8276367,-0.550293,-0.1630859,0.2641602,0.1411133,-0.05859375
3749,4,31.125,-4.4375,-0.9477539,-0.7250977,-0.2246094,0.2675781,0.1411133,-0.05712891
3753,19.875,32.625,-10.875,-1.133789,-0.7250977,-0.34375,0.2651367,0.1401367,-0.05419922
3757,18.125,14,-12.125,-1.265625,-0.6396484,-0.3974609,0.2626953,0.1425781,-0.05273438
3761,4.3125,-17.3125,-7.0625,-1.257813,-0.6240234,-0.3862305,0.2641602,0.1435547,-0.05273438
3765,-9,-35.5625,-1.8125,-1.087402,-0.7407227,-0.34375,0.2626953,0.1435547,-0.05712891
3769,-6.8125,-40.875,-4.8125,-1.009766,-0.8339844,-0.3476563,0.2626953,0.1435547,-0.05712891
3773,0,-41,-9.0625,-0.9594727,-0.8300781,-0.3168945,0.2641602,0.1450195,-0.0625
3777,-2.375,-46.625,-3.5,-0.9365234,-0.8339844,-0.2783203,0.2626953,0.1459961,-0.06542969
3781,-1,-51.25,0.125,-0.9130859,-0.8920898,-0.2363281,0.2626953,0.1435547,-0.06542969
3785,5.875,-42.8125,5.25,-0.9248047,-0.9697266,-0.1630859,0.2617188,0.1450195,-0.07177734
3789,20.6875,-25.0625,4.9375,-1.005859,-0.8764648,-0.112793,0.2602539,0.1435547,-0.07617188
3793,29.1875,-6.375,-5.9375,-1.161133,-0.7055664,-0.1245117,0.2617188,0.1435547,-0.07617188
3797,18.375,-4.125,-20.9375,-1.327637,-0.534668,-0.1708984,0.2602539,0.1435547,-0.08154297
3801,-0.375,-16.5625,-24.875,-1.424316,-0.7055664,-0.2631836,0.2617188,0.1435547,-0.08007813
3805,-5.625,-29.1875,-21.4375,-1.455566,-0.8999023,-0.3208008,0.2592773,0.1459961,-0.08007813
3809,3.9375,-36.3125,-14.875,-1.521484,-1.024414,-0.3554688,0.2558594,0.1489258,-0.08447266
3813,11.5625,-37,-16.375,-1.525391,-0.8574219,-0.3398438,0.2558594,0.1513672,-0.08837891
3817,-2.125,-37,-25.25,-1.459473,-0.6860352,-0.3398438,0.253418,0.1523438,-0.08984375
3821,-18.5625,-37.1875,-36.125,-1.428223,-0.8144531,-0.309082,0.25,0.1538086,-0.09228516
3825,-24.75,-32.625,-35.5625,-1.319824,-1.040039,-0.2363281,0.2475586,0.1577148,-0.09375
3829,-21.625,-22.4375,-29,-1.300781,-1.121582,-0.1323242,0.2475586,0.1586914,-0.09375
3833,-18.4375,-7.3125,-26.375,-1.242188,-1.098145,-0.04003906,0.2460938,0.1611328,-0.09375
3837,-16,12.375,-25.875,-1.234863,-1.066895,0.01708984,0.2426758,0.1650391,-0.09082031
3841,-23.4375,28.6875,-30.4375,-1.246094,-0.9389648,-0.01660156,0.2412109,0.1660156,-0.09082031
3845,-42,30.8125,-35.3125,-1.362793,-0.9155273,-0.05908203,0.2412109,0.1699219,-0.08691406
3849,-73.5,14.1875,-25.1875,-1.285156,-1.024414,-0.05517578,0.237793,0.1748047,-0.08007813
3853,-83.375,6.5,-2.625,-1.11084,-1.389648,-0.005371094,0.237793,0.1748047,-0.07617188
3857,-52,29.5625,1.375,-0.8276367,-1.412598,0.001953125,0.237793,0.1762695,-0.07080078
3861,-25.3125,60.375,-2.9375,-0.7773438,-1.102051,-0.04394531,0.2368164,0.1762695,-0.06542969
3865,-24.1875,86.1875,-21.375,-0.8432617,-0.7871094,-0.1245117,0.237793,0.1772461,-0.06103516
3870,-36.5625,90.25,-36.5625,-0.9130859,-0.7988281,-0.2436523,0.234375,0.1772461,-0.05029297
3874,-31.0625,85.8125,-41.6875,-0.9091797,-0.9506836,-0.3666992,0.234375,0.1826172,-0.04345703
3878,-15.125,71.375,-43,-0.9399414,-0.9389648,-0.5014648,0.2319336,0.1835938,-0.03808594
3882,-5.1875,42.375,-33.3125,-0.9477539,-0.9853516,-0.574707,0.2285156,0.1884766,-0.03125
3886,10.1875,11.875,-23.1875,-0.8549805,-0.9892578,-0.6245117,0.2260742,0.1899414,-0.02832031
3890,22.625,-12.625,-8.5,-0.6884766,-0.7172852,-0.5551758,0.2260742,0.1923828,-0.02441406
3894,29.5625,-29.5,-11.25,-0.5605469,-0.355957,-0.4399414,0.2260742,0.1938477,-0.03369141
3898,13.8125,-44.3125,-12.125,-0.4443359,-0.1577148,-0.3666992,0.2236328,0.1914063,-0.03662109
3902,-4.625,-50.875,-19.0625,-0.3085938,-0.2045898,-0.324707,0.2236328,0.1938477,-0.03955078
3906,-4,-50.1875,-13,-0.2119141,-0.6005859,-0.359375,0.2211914,0.1938477,-0.04199219
3910,40.5,-30.4375,-14.5,-0.05664063,-0.8613281,-0.4707031,0.2211914,0.1948242,-0.04492188
3914,91.8125,-1.4375,-4.875,-0.09912109,-0.7871094,-0.5244141,0.21875,0.1938477,-0.05029297
3918,127.5,18,4.75,-0.2387695,-0.4960938,-0.6054688,0.2202148,0.1962891,-0.05712891
3922,139.125,13.875,4.4375,-0.4711914,-0.09960938,-0.6552734,0.21875,0.1923828,-0.06640625
3926,131,-23.75,0.5625,-0.6767578,0.15625,-0.5014648,0.21875,0.1899414,-0.07324219
3930,111.9375,-68.8125,12.125,-0.4750977,0.3857422,-0.1513672,0.2202148,0.1875,-0.08544922
3934,88.125,-72,15.6875,0.004882813,0.5566406,0.3017578,0.21875,0.1860352,-0.09765625
3938,72,-13.1875,-2.125,0.3652344,0.3818359,0.4941406,0.2177734,0.1826172,-0.105957
3942,74.125,57,-31.4375,0.1171875,0.1523438,0.4287109,0.2177734,0.1811523,-0.1074219
3946,50.375,79.9375,-46.5625,-0.2929688,0.1523438,0.1713867,0.2177734,0.1826172,-0.1098633
3950,-8.125,46.1875,-31.6875,-0.699707,0.04736328,-0.1630859,0.2163086,0.1850586,-0.1044922
3954,-58.5625,-9.125,-1.5,-0.6689453,-0.2978516,-0.2592773,0.2128906,0.1860352,-0.1035156
3958,-67.8125,-27,19.375,-0.28125,-0.5541992,-0.2167969,0.215332,0.1850586,-0.1005859
3962,-55,-1.75,20.875,-0.04882813,-0.5854492,-0.3012695,0.2163086,0.1884766,-0.09521484
3966,-34.375,44.875,11.1875,-0.08789063,-0.6552734,-0.5170898,0.2177734,0.1884766,-0.09375
3970,-6.9375,73.1875,5.125,-0.3862305,-0.8378906,-0.7475586,0.2202148,0.1875,-0.08544922
3974,12.5625,67.25,12.125,-0.7114258,-0.8183594,-0.8476563,0.2211914,0.1875,-0.08154297
3978,15.25,33.1875,27.1875,-0.8007813,-0.6005859,-0.7402344,0.222168,0.1860352,-0.08154297
3982,7.3125,0.625,34.8125,-0.7075195,-0.3676758,-0.4936523,0.2236328,0.1826172,-0.08154297
3986,-8.1875,-15.4375,37,-0.5332031,-0.1733398,-0.2246094,0.2260742,0.1811523,-0.08300781
3990,-21.125,-10.5625,32.0625,-0.3862305,-0.1152344,-0.04394531,0.2285156,0.1787109,-0.08154297
3994,-23,4.25,17.8125,-0.3432617,-0.1035156,0.03271484,0.230957,0.1787109,-0.08007813
3999,-30.375,14.1875,15.1875,-0.3354492,-0.09960938,0.02880859,0.2319336,0.1762695,-0.07861328
4003,-37.375,15.625,11.25,-0.4130859,-0.1381836,-0.009277344,0.2319336,0.1762695,-0.07470703
4007,-45.4375,13.5,12.25,-0.3974609,-0.2275391,-0.07470703,0.2329102,0.1762695,-0.07177734
4011,-35.1875,18.625,4.1875,-0.4248047,-0.402832,-0.1591797,0.2353516,0.1748047,-0.06787109
4015,-20.6875,20.25,-1.125,-0.4594727,-0.3520508,-0.2128906,0.234375,0.1762695,-0.06640625
4019,-28.75,2.0625,10.375,-0.5991211,-0.2314453,-0.2089844,0.2353516,0.1762695,-0.06396484
4023,-50.875,-23.375,28.375,-0.5566406,-0.2275391,-0.1474609,0.2392578,0.1762695,-0.06103516
4027,-55.5625,-25.9375,31.125,-0.4130859,-0.4101563,-0.1323242,0.237793,0.1723633,-0.05859375
4031,-37.375,-8.125,26.8125,-0.4404297,-0.5698242,-0.1401367,0.2402344,0.1738281,-0.05712891
4035,-15.8125,7.4375,14.8125,-0.5756836,-0.503418,-0.1591797,0.2426758,0.1723633,-0.05712891
4039,-16.3125,3.6875,8.5625,-0.7387695,-0.3676758,-0.1860352,0.2426758,0.1713867,-0.05419922
4043,-30.875,-6.5625,11.8125,-0.6923828,-0.4257813,-0.2016602,0.2426758,0.1713867,-0.05273438
4047,-31.0625,-9.5,13.3125,-0.78125,-0.7329102,-0.2285156,0.2436523,0.1689453,-0.05273438
4051,-11.0625,-10.5,12.6875,-0.8164063,-0.7446289,-0.2553711,0.2451172,0.1713867,-0.05273438
4055,5.375,-4.9375,-4.5625,-0.8935547,-0.5966797,-0.2783203,0.2460938,0.1699219,-0.05273438
4059,-1.5,-14.1875,-19.25,-1.083496,-0.6552734,-0.324707,0.2436523,0.1689453,-0.05273438
4063,-11.1875,-42.3125,-21.4375,-1.161133,-0.8764648,-0.359375,0.2426758,0.1723633,-0.05566406
4067,-6.5,-66.625,-9.6875,-1.099121,-1.086426,-0.3208008,0.2402344,0.1713867,-0.05859375
4071,11.1875,-61.4375,-5.5625,-0.9750977,-1.08252,-0.1977539,0.2402344,0.1723633,-0.05957031
4075,20.25,-39.5,-5.9375,-0.9208984,-1.024414,-0.109375,0.2392578,0.1723633,-0.06542969
4079,21,-18,-8.25,-0.9907227,-1.024414,-0.1054688,0.2402344,0.1713867,-0.06933594
4083,18.5625,-1.5,-12.75,-1.052734,-0.9736328,-0.09375,0.2392578,0.1748047,-0.07080078
4087,21.0625,13.3125,-21.4375,-1.133789,-0.9541016,-0.1245117,0.2368164,0.1738281,-0.07177734
4091,17,31.1875,-29.875,-1.230957,-0.9428711,-0.1782227,0.237793,0.1762695,-0.07080078
4095,12.625,31.5625,-34.9375,-1.385742,-1.040039,-0.2861328,0.2353516,0.1787109,-0.07177734
4099,5.5625,15.6875,-28.75,-1.45166,-1.148438,-0.359375,0.2329102,0.1811523,-0.07080078
4103,-2.375,-0.5625,-13.75,-1.289063,-1.090332,-0.3325195,0.234375,0.1826172,-0.07080078
4107,-8.5,-4.875,-12.0625,-1.15332,-1.059082,-0.3129883,0.230957,0.1835938,-0.06933594
4111,-14.0625,-5,-12.4375,-1.075684,-1.059082,-0.3168945,0.230957,0.1835938,-0.06787109
4115,-17.5,-0.1875,-9.5625,-0.9907227,-1.125488,-0.3706055,0.2294922,0.1860352,-0.06640625
4119,-10.75,12.0625,-8.25,-0.9438477,-1.195313,-0.4399414,0.2294922,0.1860352,-0.06787109
4123,4.4375,19,-13.1875,-1.067871,-1.226563,-0.5361328,0.230957,0.1875,-0.06542969
4128,8.1875,9.875,-6.5625,-1.149414,-1.164063,-0.5668945,0.2285156,0.1875,-0.06542969
4132,12.3125,-3.25,-0.5,-1.172852,-1.15625,-0.5244141,0.2270508,0.1875,-0.06542969
4136,14.875,-6.8125,3.375,-1.129883,-1.086426,-0.3974609,0.2285156,0.1850586,-0.06640625
4140,3.125,-1.6875,7.375,-1.149414,-0.9736328,-0.2089844,0.2270508,0.1875,-0.06640625
4144,-10.625,7.8125,0.125,-1.199707,-0.9814453,-0.1474609,0.2270508,0.1850586,-0.06640625
4148,-20.6875,16.25,-9.9375,-1.20752,-1.012695,-0.1362305,0.2270508,0.1860352,-0.06396484
4152,-31.3125,18.375,-15.625,-1.165039,-1.043945,-0.1743164,0.2294922,0.1884766,-0.06103516
4156,-35.5,18.9375,-22.3125,-1.106934,-1.179688,-0.2514648,0.2285156,0.1884766,-0.05859375
4160,-36.875,14.875,-14,-1.037109,-1.171875,-0.3129883,0.2270508,0.1899414,-0.05566406
4164,-37.6875,6.3125,-10.125,-1.009766,-1.125488,-0.3901367,0.2260742,0.1914063,-0.05175781
4168,-33.4375,-4.5,-13.4375,-0.9633789,-1.129395,-0.3666992,0.2260742,0.1938477,-0.05029297
4172,-19.875,-13.125,-15.375,-0.847168,-1.078613,-0.394043,0.2246094,0.1938477,-0.04882813
4176,-4.4375,-24.5625,-17.75,-0.7695313,-0.9892578,-0.3745117,0.222168,0.1948242,-0.04882813
4180,-1.0625,-35.5,-8,-0.6845703,-0.8535156,-0.3208008,0.222168,0.1962891,-0.05029297
4184,-4.75,-43.5,-3.8125,-0.5795898,-0.8027344,-0.2553711,0.2211914,0.1972656,-0.05175781
4188,5.1875,-47.0625,0.1875,-0.5644531,-0.9311523,-0.2553711,0.21875,0.1948242,-0.05566406
4192,26.25,-39.3125,-6,-0.4326172,-0.7368164,-0.2246094,0.21875,0.1948242,-0.05712891
4196,28.25,-29.75,-11.75,-0.4365234,-0.3989258,-0.2089844,0.2163086,0.1972656,-0.06396484
4200,6.1875,-28.375,-22.625,-0.4633789,-0.2900391,-0.2089844,0.2177734,0.1972656,-0.06640625
4204,-12.125,-31.1875,-23.0625,-0.4672852,-0.5620117,-0.2324219,0.215332,0.1972656,-0.06787109
4208,0.5,-31.625,-3.8125,-0.4169922,-0.9350586,-0.2475586,0.2128906,0.1987305,-0.06787109
4212,43.4375,-20.625,8.3125,-0.4091797,-0.9194336,-0.2978516,0.2119141,0.1972656,-0.07177734
4216,71.25,-11.8125,11.875,-0.3823242,-0.565918,-0.3515625,0.2119141,0.1987305,-0.07470703
4220,75.25,-12.75,17.75,-0.3862305,-0.3017578,-0.4130859,0.2128906,0.1948242,-0.08154297
4224,71.3125,-19.5625,17.875,-0.3745117,-0.2900391,-0.4013672,0.2128906,0.1938477,-0.08691406
4228,73.9375,-25.0625,39.3125,-0.2890625,-0.3754883,-0.2631836,0.2138672,0.1899414,-0.09228516
4232,91.375,-23.5,60.9375,-0.1806641,-0.340332,-0.1015625,0.2177734,0.1850586,-0.1020508
4236,127.9375,-11.75,54.5625,-0.1264648,-0.1381836,0.01367188,0.2211914,0.1787109,-0.1074219
4240,133.9375,6.4375,35.625,-0.1611328,0.3935547,0.159668,0.222168,0.1713867,-0.1166992
4244,97.5625,10.6875,16.3125,-0.378418,0.5136719,0.1904297,0.2260742,0.1660156,-0.1235352
4248,38.9375,1.5625,7.4375,-0.4829102,0.5214844,0.2021484,0.2270508,0.1650391,-0.1279297
4252,-4.375,-9.5625,2.9375,-0.5488281,0.1757813,0.105957,0.2260742,0.1611328,-0.1279297
4257,-32.4375,-18.875,1.875,-0.5063477,-0.02587891,-0.07080078,0.2260742,0.1625977,-0.1289063
4261,-45.75,-22.5,-4.0625,-0.5175781,-0.2353516,-0.2016602,0.2246094,0.1650391,-0.1279297
4265,-50.0625,-26.75,-1.0625,-0.4750977,-0.4067383,-0.2397461,0.2260742,0.1650391,-0.1264648
4269,-57.5625,-22,10.875,-0.3549805,-0.4609375,-0.2246094,0.2246094,0.1660156,-0.125
4273,-51,-2.4375,15.125,-0.3164063,-0.6201172,-0.3476563,0.2260742,0.1674805,-0.1210938
4277,-28.375,24.4375,17.125,-0.2929688,-0.6474609,-0.3632813,0.2270508,0.1660156,-0.1210938
4281,-10.4375,47.5,19.6875,-0.4169922,-0.5620117,-0.3901367,0.2270508,0.1674805,-0.1142578
4285,2.75,51.6875,21.125,-0.5756836,-0.5,-0.4091797,0.2319336,0.1660156,-0.1142578
4289,4.3125,45.5,26.75,-0.6264648,-0.355957,-0.378418,0.2329102,0.1650391,-0.1113281
4293,-4.125,37.3125,29.25,-0.5952148,-0.2314453,-0.324707,0.237793,0.1625977,-0.1074219
4297,-13.25,34.5625,25.5625,-0.5488281,-0.2314453,-0.2553711,0.2368164,0.1601563,-0.1035156
4301,-11.5625,34.75,18.75,-0.5449219,-0.2978516,-0.2167969,0.2392578,0.1611328,-0.1005859
4305,-7.625,27.8125,13.75,-0.5683594,-0.2509766,-0.1821289,0.2412109,0.1601563,-0.09912109
4309,-19.9375,24.5,25.6875,-0.4750977,-0.1733398,-0.1821289,0.2451172,0.1586914,-0.09667969
4313,-25.0625,32.8125,22.5,-0.5024414,-0.340332,-0.2631836,0.2460938,0.15625,-0.09375
4317,-17.0625,38.125,16.3125,-0.5913086,-0.5463867,-0.309082,0.2460938,0.1547852,-0.09082031
4321,-13.75,28.75,24.0625,-0.6650391,-0.3989258,-0.2900391,0.25,0.1538086,-0.08691406
4325,-21.1875,7.8125,32.375,-0.7036133,-0.2744141,-0.2363281,0.2519531,0.1523438,-0.08447266
4329,-28.125,-3.875,25.125,-0.6030273,-0.2587891,-0.1552734,0.2519531,0.1513672,-0.08154297
4333,-31.75,-0.5625,26,-0.4790039,-0.4296875,-0.1206055,0.253418,0.1499023,-0.08154297
4337,-19.375,13.8125,25.1875,-0.5253906,-0.6357422,-0.1552734,0.2558594,0.1474609,-0.07763672
4341,-0.6875,18,25.875,-0.6416016,-0.5927734,-0.1821289,0.2568359,0.1459961,-0.07763672
4345,1.0625,10.875,31.6875,-0.6962891,-0.4179688,-0.1245117,0.2568359,0.1435547,-0.07617188
4349,-10.5625,8.0625,27.125,-0.6416016,-0.3056641,-0.06298828,0.2602539,0.1425781,-0.07617188
4353,-12.5,10.8125,15.4375,-0.6533203,-0.4921875,-0.04736328,0.2626953,0.1411133,-0.07177734
4357,-7.125,11.8125,14,-0.715332,-0.5893555,-0.07080078,0.2641602,0.1411133,-0.07324219
4361,-7.875,2.75,27.4375,-0.8085938,-0.6474609,-0.1166992,0.2626953,0.1386719,-0.07080078
4365,-7,-12.875,40.1875,-0.8896484,-0.6938477,-0.1245117,0.2666016,0.1362305,-0.07324219
4369,0.25,-22.25,46.0625,-0.8588867,-0.6552734,-0.1054688,0.269043,0.1323242,-0.07324219
4373,10.125,-18.4375,36.875,-0.8354492,-0.4921875,-0.05908203,0.2700195,0.1289063,-0.07617188
4377,10.125,-11.375,14.875,-0.9365234,-0.3017578,-0.04394531,0.2724609,0.1264648,-0.07861328
4381,-7,-19.8125,0.5625,-1.071777,-0.371582,-0.09765625,0.2724609,0.1274414,-0.07861328
4386,-27.1875,-43.875,5.5625,-1.172852,-0.6474609,-0.1166992,0.2709961,0.125,-0.07861328
4390,-30.6875,-66.875,29.1875,-1.133789,-0.9155273,-0.08984375,0.2700195,0.1264648,-0.08447266
4394,-16.875,-67,41.9375,-0.9365234,-0.8574219,0.001953125,0.2734375,0.1235352,-0.08691406
4398,2.75,-41,26.5,-0.8896484,-0.6474609,0.05566406,0.2724609,0.1225586,-0.08984375
4402,7.5,-14.625,6.125,-1.056641,-0.6083984,0.03271484,0.2749023,0.1201172,-0.09375
4406,3.4375,-8.875,-0.875,-1.273438,-0.5966797,-0.03222656,0.2734375,0.1186523,-0.09375
4410,-4.0625,-16.4375,-2.3125,-1.439941,-0.6513672,-0.08984375,0.2758789,0.1186523,-0.09521484
4414,-13.5,-27.1875,4.875,-1.486328,-0.7055664,-0.128418,0.2758789,0.1201172,-0.09667969
4418,-12.625,-24.0625,4.75,-1.48291,-0.8066406,-0.1591797,0.2724609,0.1201172,-0.09912109
4422,-2.1875,-10.4375,-2.375,-1.475098,-0.7832031,-0.1899414,0.2724609,0.1176758,-0.09912109
4426,4.75,4.25,-18.375,-1.575684,-0.7094727,-0.2631836,0.2709961,0.1201172,-0.09912109
4430,-4.875,5.125,-25.75,-1.65332,-0.6708984,-0.3554688,0.2709961,0.1225586,-0.1005859
4434,-19.9375,-6.1875,-25.4375,-1.67627,-0.7832031,-0.4477539,0.2709961,0.1210938,-0.09912109
4438,-29.3125,-19.625,-16.875,-1.625977,-0.9272461,-0.5014648,0.269043,0.125,-0.09912109
4442,-26.625,-29.5,-5.4375,-1.521484,-1.040039,-0.4902344,0.269043,0.1289063,-0.09912109
4446,-10.0625,-27.0625,-4.625,-1.35498,-1.05127,-0.4052734,0.2666016,0.1264648,-0.09912109
4450,7.1875,-15.4375,-5.1875,-1.246094,-0.9506836,-0.3051758,0.2651367,0.1264648,-0.1020508
4454,15.125,2.875,-7.6875,-1.219238,-0.8378906,-0.1977539,0.2651367,0.1274414,-0.1020508
4458,17.5,21.3125,-16,-1.234863,-0.7290039,-0.1362305,0.2651367,0.1289063,-0.1035156
4462,15.625,31.875,-27.0625,-1.370117,-0.6860352,-0.1362305,0.2626953,0.1298828,-0.1044922
4466,4.9375,28.4375,-26.75,-1.479004,-0.7016602,-0.08984375,0.2651367,0.1313477,-0.1005859
4470,-7.25,19.9375,-21.5,-1.48291,-0.7329102,-0.04394531,0.2651367,0.1347656,-0.09912109
4474,-22.875,18.6875,-21.875,-1.319824,-0.7055664,-0.005371094,0.2626953,0.1362305,-0.09521484
4478,-44.5625,22.25,-23.75,-1.191895,-0.7792969,-0.009277344,0.2602539,0.1386719,-0.09082031
4482,-56.25,28.375,-28,-1.091309,-1.066895,-0.07470703,0.2617188,0.1411133,-0.08984375
4486,-44.9375,37.3125,-24.75,-0.9594727,-1.26123,-0.1743164,0.2602539,0.1435547,-0.08154297
4490,-16.4375,47.625,-16.4375,-0.8818359,-1.366211,-0.2592773,0.2583008,0.1459961,-0.07763672
4494,25.5625,63.3125,-17.9375,-0.9130859,-1.312012,-0.2939453,0.2592773,0.1474609,-0.07617188
4498,62.8125,69.9375,-18.4375,-0.9091797,-1.074707,-0.34375,0.2583008,0.1489258,-0.07177734
4502,83.8125,64.25,-23.5,-1.009766,-0.7329102,-0.4360352,0.2583008,0.1499023,-0.06933594
4506,83.6875,43,-27.625,-1.056641,-0.3911133,-0.4746094,0.2568359,0.1489258,-0.07080078
4510,67.375,12.3125,-26.0625,-1.063965,-0.2392578,-0.359375,0.2558594,0.1513672,-0.07177734
4515,53.125,-13.4375,-26.75,-0.9477539,-0.1694336,-0.309082,0.2543945,0.1523438,-0.07617188
4519,36.8125,-37.75,-23.125,-0.7387695,-0.006347656,-0.2670898,0.2509766,0.1523438,-0.07763672
4523,17.5625,-55.8125,-22.9375,-0.6108398,0.0009765625,-0.2167969,0.2485352,0.1547852,-0.08447266
4527,10.6875,-66.1875,-31.125,-0.4672852,-0.07617188,-0.2475586,0.2460938,0.1547852,-0.08984375
4531,7.875,-71.3125,-28.3125,-0.3935547,-0.1538086,-0.2705078,0.2451172,0.15625,-0.09375
4535,25.9375,-72.4375,-30.9375,-0.2583008,-0.2861328,-0.2475586,0.2402344,0.1601563,-0.1005859
4539,55.0625,-56.25,-32.5,-0.1962891,-0.3754883,-0.2207031,0.2368164,0.1601563,-0.105957
4543,89.3125,-48.1875,-26.8125,-0.1845703,-0.2900391,-0.1669922,0.2368164,0.1611328,-0.1142578
4547,102.5625,-46.25,-7.8125,-0.1420898,-0.02587891,-0.07470703,0.2329102,0.1601563,-0.1235352
4551,102.0625,-42.875,0,-0.1533203,0.1679688,0.1210938,0.2319336,0.1547852,-0.1318359
4555,92.9375,-34.5,-11.25,-0.1186523,0.4013672,0.3291016,0.230957,0.1547852,-0.1386719
4559,60.75,-23.6875,-29.625,-0.1728516,0.6303711,0.4135742,0.2294922,0.1513672,-0.1455078
4563,-2.9375,-24.75,-32.6875,-0.3125,0.4399414,0.3442383,0.2246094,0.1547852,-0.1508789
4567,-48.875,-31.625,-34.4375,-0.3588867,0.03222656,0.1328125,0.222168,0.1547852,-0.1508789
4571,-72.4375,-39.8125,-21.5625,-0.3432617,-0.3754883,-0.02441406,0.222168,0.1586914,-0.1508789
4575,-81.1875,-40.75,-8.9375,-0.1728516,-0.04882813,-0.1362305,0.21875,0.1635742,-0.1484375
4579,-67.0625,-20.125,9.375,-0.04101563,-0.6162109,-0.112793,0.2177734,0.1650391,-0.1455078
4583,-50.8125,19.0625,11.9375,0.03564453,-0.6474609,-0.1206055,0.2163086,0.1674805,-0.1425781
4587,-34.0625,53.1875,15.4375,-0.1264648,-0.6044922,-0.1630859,0.2202148,0.1674805,-0.137207
4591,-29.5,64.625,24.75,-0.2929688,-0.4570313,-0.2016602,0.21875,0.1674805,-0.1333008
4595,-33,61,29.9375,-0.4326172,-0.3950195,-0.2363281,0.2246094,0.1660156,-0.1279297
4599,-32.875,52.1875,32.125,-0.4555664,-0.4414063,-0.2475586,0.2294922,0.1650391,-0.1210938
4603,-15.5625,53.375,23,-0.4482422,-0.5151367,-0.2744141,0.230957,0.1635742,-0.1157227
4607,-8.25,54.1875,25.1875,-0.5410156,-0.3173828,-0.2744141,0.2329102,0.1625977,-0.1113281
4611,-22.375,49.4375,32.3125,-0.5834961,-0.1420898,-0.309082,0.2368164,0.1601563,-0.105957
4615,-35.0625,35.875,25.8125,-0.7426758,-0.2202148,-0.3325195,0.2392578,0.1611328,-0.1044922
4619,-37.8125,16.75,19.3125,-0.7504883,-0.3911133,-0.3398438,0.2426758,0.1586914,-0.09912109
4623,-30.0625,-2.25,26,-0.6611328,-0.5268555,-0.3051758,0.2426758,0.1586914,-0.09521484
4627,-14.125,-5.9375,29.375,-0.6108398,-0.5,-0.2363281,0.2436523,0.1586914,-0.09521484
4631,-3.875,-9.125,26.8125,-0.6264648,-0.3833008,-0.1821289,0.2475586,0.1547852,-0.09521484
4635,-12.125,-6.4375,29.5,-0.5063477,-0.2084961,-0.09375,0.2475586,0.1523438,-0.09667969
4639,-43.3125,4.8125,40.75,-0.4711914,-0.1269531,-0.05908203,0.25,0.1523438,-0.09521484
4644,-45.75,12.5,30.3125,-0.5795898,-0.4335938,-0.1362305,0.25,0.1499023,-0.09082031
4648,-31.0625,19.625,24.1875,-0.5952148,-0.581543,-0.2055664,0.253418,0.1489258,-0.08691406
4652,-15,26.5625,24.125,-0.715332,-0.6899414,-0.2978516,0.2543945,0.1474609,-0.08544922
4656,2.1875,21.3125,22.0625,-0.8706055,-0.6708984,-0.3706055,0.2592773,0.1474609,-0.08447266
4660,11.75,9.125,21.4375,-0.8818359,-0.4804688,-0.34375,0.2583008,0.1435547,-0.08300781
4664,-3.875,-6.4375,16.5,-0.9633789,-0.2587891,-0.2553711,0.2617188,0.1425781,-0.08300781
4668,-21.8125,-25.1875,12.6875,-0.9555664,-0.3833008,-0.2128906,0.2617188,0.1411133,-0.08300781
4672,-31.25,-39.625,16.875,-0.9169922,-0.5737305,-0.1821289,0.2592773,0.1401367,-0.08544922
4676,-27,-53.1875,27.1875,-0.9169922,-0.7753906,-0.1938477,0.2617188,0.1401367,-0.08447266
4680,-8.1875,-55.6875,34.75,-0.7890625,-0.8222656,-0.07470703,0.2626953,0.1362305,-0.08837891
4684,14.4375,-37.4375,25.8125,-0.7348633,-0.6318359,0.02880859,0.2626953,0.1376953,-0.09082031
4688,25.75,-16.125,5.8125,-0.8125,-0.4960938,0.07519531,0.2626953,0.1347656,-0.09521484
4692,23,-7.0625,-10.125,-0.9985352,-0.421875,0.05175781,0.2651367,0.1337891,-0.09912109
4696,7.5625,-13.875,-14.4375,-1.15332,-0.4453125,0.03271484,0.2617188,0.1337891,-0.09912109
4700,-5.875,-27.9375,-15.1875,-1.23877,-0.5737305,0.02490234,0.2617188,0.1347656,-0.1005859
4704,-6.4375,-34,-14.6875,-1.234863,-0.7290039,0.02099609,0.2602539,0.1347656,-0.1020508
4708,0.75,-29.6875,-22.125,-1.176758,-0.7368164,0.02099609,0.2592773,0.1386719,-0.105957
4712,4.1875,-17.5625,-24.6875,-1.184082,-0.7680664,0.04052734,0.2568359,0.1386719,-0.1074219
4716,0.875,-5.1875,-30.3125,-1.242188,-0.6748047,0.02099609,0.2558594,0.1411133,-0.1088867
4720,-13.75,-1.125,-39.125,-1.312012,-0.6821289,-0.04736328,0.253418,0.1435547,-0.1074219
4724,-22.25,-2.3125,-46.5625,-1.347168,-0.8339844,-0.1474609,0.2509766,0.1450195,-0.105957
4728,-23.5625,2.625,-46.5,-1.285156,-0.9814453,-0.1821289,0.25,0.1489258,-0.105957
4732,-16.8125,6.8125,-43.375,-1.308105,-1.121582,-0.2363281,0.2451172,0.15625,-0.1035156
4736,-10.5,6,-35.0625,-1.362793,-1.226563,-0.309082,0.2460938,0.15625,-0.1044922
4740,-9.75,-6.75,-20.625,-1.374023,-1.121582,-0.3515625,0.2426758,0.1611328,-0.1035156
4744,-13.5,-22.75,-8.1875,-1.393555,-1.066895,-0.3974609,0.2426758,0.1601563,-0.1035156
4748,-25.3125,-42.8125,2.25,-1.351074,-0.9116211,-0.4248047,0.2412109,0.1635742,-0.1020508
4752,-40.75,-51.8125,5.75,-1.20752,-0.8920898,-0.359375,0.2402344,0.1635742,-0.1044922
4756,-44.9375,-52.9375,6.5625,-1.12207,-0.9892578,-0.2246094,0.2402344,0.1650391,-0.105957
4760,-38.5625,-45,11.25,-1.033203,-1.036133,-0.1015625,0.2402344,0.1650391,-0.1074219
4764,-37.125,-37.75,21.875,-1.005859,-0.9814453,-0.005371094,0.237793,0.1635742,-0.1088867
4768,-37.8125,-22.75,28.8125,-0.9438477,-0.9853516,0.02099609,0.2392578,0.1650391,-0.1074219
4773,-25.0625,6.5,20.75,-1.091309,-1.055176,0.05957031,0.2392578,0.1625977,-0.105957
4777,-7.375,29.75,19.6875,-1.195801,-1.012695,0.005859375,0.2436523,0.1601563,-0.1044922
4781,-7.25,40.375,17.25,-1.401367,-0.7524414,-0.08203125,0.2451172,0.1586914,-0.1005859
4785,-35.5,25.0625,14.6875,-1.486328,-0.6357422,-0.1782227,0.2451172,0.1577148,-0.09912109
4789,-59.75,2.125,17.1875,-1.48291,-0.9506836,-0.2089844,0.2460938,0.1601563,-0.09375
4793,-59.5,-17.25,34.0625,-1.28125,-1.199219,-0.1630859,0.2475586,0.15625,-0.09082031
4797,-31,-21.75,42.5,-1.114746,-1.136719,-0.112793,0.2485352,0.1577148,-0.08984375
4801,-12.25,-21.0625,45.9375,-0.9169922,-0.7988281,-0.04003906,0.2509766,0.1513672,-0.08984375
4805,-7.125,-1.625,25.3125,-0.6845703,-0.5424805,0.009765625,0.253418,0.1499023,-0.08837891
4809,1.4375,39.125,-6.375,-0.5063477,-0.6357422,0.09423828,0.253418,0.1499023,-0.08984375
4813,20.8125,90.8125,-32.3125,-0.4946289,-0.6860352,0.02490234,0.2543945,0.1513672,-0.08447266
4817,36,101.9375,-32.625,-0.8198242,-0.5776367,-0.1591797,0.253418,0.1523438,-0.07763672
4821,35.125,77.0625,-26,-0.9907227,-0.3637695,-0.2822266,0.2519531,0.1547852,-0.07617188
4825,26.0625,35.1875,-28.875,-0.9248047,-0.2978516,-0.3398438,0.253418,0.1577148,-0.07080078
4829,16.625,7.25,-29.375,-0.7075195,-0.355957,-0.309082,0.25,0.1577148,-0.07324219
4833,13.1875,3.6875,-25.8125,-0.4672852,-0.5776367,-0.2744141,0.2485352,0.1601563,-0.07177734
4837,41.6875,8.5625,-12.75,-0.4052734,-0.6787109,-0.2939453,0.2460938,0.1611328,-0.07324219
4841,59.0625,8.5625,3.5,-0.4868164,-0.3364258,-0.3168945,0.2475586,0.1611328,-0.07617188
4845,65.5625,-11.0625,1.8125,-0.5410156,-0.1074219,-0.3823242,0.2460938,0.1586914,-0.07861328
4849,60.625,-25.1875,1.25,-0.3549805,-0.01806641,-0.34375,0.2485352,0.1586914,-0.08447266
4853,66,-31.4375,-2.9375,-0.4208984,-0.1772461,-0.3398438,0.2436523,0.15625,-0.08984375
4857,82.3125,-40.5625,-4.125,-0.4013672,-0.1035156,-0.2514648,0.2460938,0.1547852,-0.09521484
4861,75.375,-56.6875,7.1875,-0.3393555,0.1333008,-0.1054688,0.2426758,0.1538086,-0.1035156
4865,59.0625,-59.9375,6.6875,-0.1030273,0.2070313,0.005859375,0.2426758,0.1523438,-0.1113281
4869,50.9375,-39.8125,-12.5,-0.07617188,0.1020508,0.1289063,0.2426758,0.1499023,-0.1181641
4873,35.0625,-18.4375,-15,-0.1186523,0.1098633,0.2250977,0.2392578,0.1523438,-0.1235352
4877,7.0625,-8.875,-14.5,-0.246582,0.1293945,0.1982422,0.2392578,0.1513672,-0.1235352
4881,-22.75,-3.875,-18.8125,-0.3007813,0.03613281,0.07910156,0.237793,0.1538086,-0.1264648
4885,-46.6875,-10.3125,-8,-0.3125,-0.1269531,0.01708984,0.237793,0.1523438,-0.1235352
4889,-59.5625,-5,8.8125,-0.1962891,-0.3056641,-0.05517578,0.2368164,0.15625,-0.1210938
4893,-40.9375,23.3125,12.5,-0.1069336,-0.5073242,-0.1708984,0.2353516,0.1547852,-0.1181641
4897,-22.6875,63.5,19.1875,-0.1923828,-0.4804688,-0.2939453,0.2392578,0.15625,-0.1142578
4902,2.125,86.375,14.5,-0.5063477,-0.421875,-0.4516602,0.2436523,0.1538086,-0.1098633
4906,6.875,74.75,10.875,-0.8432617,-0.2006836,-0.5283203,0.2436523,0.1523438,-0.1035156
4910,-4.625,35.5625,5.875,-0.9438477,-0.08789063,-0.5209961,0.2426758,0.1523438,-0.09912109
4914,-16.1875,-2.4375,10.5,-0.8276367,-0.2241211,-0.4208984,0.2475586,0.1523438,-0.09765625
4918,-16.375,-11.3125,21.0625,-0.4711914,-0.324707,-0.2978516,0.2475586,0.1513672,-0.09667969
4922,-13.6875,12.0625,37.1875,-0.2929688,-0.3286133,-0.2246094,0.2485352,0.1489258,-0.09375
4926,0.375,40,30.0625,-0.4365234,-0.2978516,-0.2514648,0.2509766,0.1489258,-0.09228516
4930,3.6875,47.375,16.5,-0.6303711,-0.1655273,-0.3359375,0.2543945,0.1474609,-0.09228516
4934,-10.1875,31.8125,12.9375,-0.8237305,-0.1733398,-0.3706055,0.2568359,0.1459961,-0.08837891
4938,-23.5,7.5625,16.0625,-0.78125,-0.2822266,-0.3515625,0.2568359,0.1450195,-0.08447266
4942,-20,-7.3125,22.125,-0.7036133,-0.4296875,-0.2900391,0.2583008,0.1459961,-0.08154297
4946,-16,-16.1875,33.75,-0.6303711,-0.3676758,-0.2285156,0.2592773,0.1411133,-0.08544922
4950,-15.0625,-13.25,34.6875,-0.5991211,-0.371582,-0.1401367,0.2592773,0.1401367,-0.08300781
4954,-9.25,-4.8125,25.0625,-0.6416016,-0.4765625,-0.1362305,0.2641602,0.1376953,-0.08544922
4958,0.0625,8.25,18.4375,-0.6533203,-0.5112305,-0.128418,0.2651367,0.1362305,-0.08447266
4962,8.375,9.25,15.3125,-0.8666992,-0.4414063,-0.1782227,0.2651367,0.1337891,-0.08300781
4966,1.5625,-4.8125,15.5,-0.8706055,-0.402832,-0.1630859,0.2641602,0.1337891,-0.08544922
4970,-6.75,-19.125,24.25,-0.8510742,-0.503418,-0.1054688,0.2666016,0.1323242,-0.08447266
4974,-7.75,-22.1875,29.5,-0.7617188,-0.5737305,-0.02832031,0.269043,0.1313477,-0.08691406
4978,5.375,-13.3125,25.6875,-0.7426758,-0.5893555,-0.009277344,0.2666016,0.1274414,-0.08691406
4982,23.0625,0.3125,10.4375,-0.831543,-0.4179688,-0.01318359,0.269043,0.1264648,-0.08984375
4986,14.875,-3.4375,-4.4375,-1.033203,-0.2587891,-0.02832031,0.2709961,0.1235352,-0.08984375
4990,-11.9375,-26.25,-1.875,-1.099121,-0.3676758,-0.03222656,0.2709961,0.125,-0.08984375
4994,-25.3125,-46.5,2.4375,-0.9907227,-0.6162109,0.005859375,0.2700195,0.1274414,-0.09228516
4998,-16.4375,-44.9375,7.75,-0.8896484,-0.8339844,0.04443359,0.269043,0.125,-0.09521484
5002,7.5625,-26.25,-0.0625,-0.8745117,-0.8105469,0.06347656,0.2700195,0.125,-0.09667969
5006,14.875,-14.125,0,-1.037109,-0.7094727,0.09033203,0.2666016,0.125,-0.09912109
5010,-0.375,-20.875,13.1875,-1.071777,-0.6435547,0.1367188,0.2700195,0.125,-0.1005859
5014,-7.8125,-17.1875,21.3125,-1.095215,-0.7446289,0.1557617,0.2675781,0.125,-0.1044922
5018,4.8125,0.125,15.75,-1.253906,-0.7602539,0.125,0.2724609,0.1225586,-0.1020508
5022,9.375,4.375,12.5625,-1.389648,-0.6201172,0.04785156,0.2700195,0.1210938,-0.1020508
5026,6.9375,4.375,8.4375,-1.370117,-0.5893555,-0.01660156,0.2700195,0.1201172,-0.1044922
5031,2.3125,5.9375,2.25,-1.335449,-0.6162109,-0.04736328,0.2709961,0.1176758,-0.1044922
5035,-1.8125,8.3125,3.75,-1.335449,-0.6787109,-0.1206055,0.2709961,0.1201172,-0.1035156
5039,-1.25,11.9375,7.125,-1.351074,-0.6899414,-0.2167969,0.2709961,0.1186523,-0.1005859
5043,0.3125,21.125,6.1875,-1.420898,-0.6630859,-0.3359375,0.2724609,0.1186523,-0.1020508
5047,4.9375,25.25,-6.5625,-1.529297,-0.6513672,-0.4321289,0.2734375,0.1176758,-0.09765625
5051,0.5,17.0625,-13.5625,-1.67627,-0.6201172,-0.5244141,0.2734375,0.1186523,-0.09765625
5055,-10.1875,-9.0625,-15.3125,-1.738281,-0.6005859,-0.59375,0.2734375,0.1201172,-0.09667969
5059,-22.5,-41.25,-12.1875,-1.711426,-0.6630859,-0.5898438,0.2709961,0.1210938,-0.09912109
5063,-26.6875,-62,-10.5625,-1.521484,-0.7290039,-0.5170898,0.2709961,0.1235352,-0.09765625
5067,-17.6875,-64.625,-17.75,-1.381836,-0.8378906,-0.4321289,0.269043,0.125,-0.1035156
5071,-6.4375,-57.0625,-19.625,-1.339355,-0.8959961,-0.2631836,0.2651367,0.1264648,-0.1074219
5075,3.9375,-50.875,-14.1875,-1.362793,-0.8574219,-0.1362305,0.2641602,0.1264648,-0.1113281
5079,-4.0625,-47.625,-5,-1.269531,-0.6396484,-0.02050781,0.2617188,0.1289063,-0.1157227
5083,-20.5625,-39.9375,-8.9375,-1.261719,-0.565918,0.01367188,0.2592773,0.1274414,-0.1181641
5087,-36.125,-23.6875,-25.4375,-1.137695,-0.6821289,0.1098633,0.2602539,0.1289063,-0.1210938
5091,-34.625,6.75,-29.4375,-1.025391,-0.9619141,0.140625,0.2568359,0.1337891,-0.1181641
5095,-20.9375,38.8125,-35.75,-0.9438477,-1.102051,0.125,0.2543945,0.1362305,-0.1166992
5099,-2.3125,68.0625,-39.1875,-1.005859,-1.1875,0.04443359,0.2543945,0.1386719,-0.112793
5103,15.5,77.5625,-43.3125,-1.161133,-1.144531,-0.1323242,0.253418,0.1425781,-0.105957
5107,26.3125,55.125,-36.8125,-1.475098,-1.047363,-0.2670898,0.253418,0.1450195,-0.1020508
5111,22.875,6.0625,-23.6875,-1.57959,-0.8027344,-0.324707,0.253418,0.1474609,-0.09667969
5115,2.6875,-55.1875,-8.3125,-1.475098,-0.6435547,-0.3359375,0.2509766,0.1450195,-0.1035156
5119,-4.9375,-79.75,1.5,-0.862793,-0.7641602,-0.1552734,0.2475586,0.1474609,-0.1088867
5123,20.625,-50.4375,-14.6875,-0.3007813,-0.8920898,0.07128906,0.2485352,0.1489258,-0.1098633
5127,57.375,9.4375,-30.3125,-0.09130859,-0.6396484,0.1904297,0.2460938,0.1489258,-0.1157227
5131,72.5625,48.0625,-55.375,-0.4248047,-0.340332,-0.001464844,0.2436523,0.1513672,-0.1166992
5135,54.9375,39.5625,-58.3125,-0.7192383,-0.2314453,-0.1743164,0.2436523,0.1523438,-0.1181641
5139,40.5625,6.25,-34.375,-0.7426758,-0.4804688,-0.2514648,0.2402344,0.1538086,-0.1181641
5143,49.875,-20.0625,-4.9375,-0.5756836,-0.5620117,-0.1552734,0.237793,0.1547852,-0.1210938
5147,59,-26.75,22.0625,-0.4130859,-0.2509766,-0.04003906,0.237793,0.1538086,-0.125
5151,63.625,-22.0625,12.375,-0.3046875,0.05126953,-0.02050781,0.2392578,0.1513672,-0.1303711
5155,58.8125,-14.1875,-8.0625,-0.3549805,0.269043,-0.09765625,0.237793,0.1474609,-0.137207
5160,40.1875,-18.4375,-22.75,-0.4750977,0.2768555,-0.1821289,0.2368164,0.1474609,-0.137207
5164,26.75,-46.4375,-8.125,-0.5722656,0.03613281,-0.1860352,0.2353516,0.1459961,-0.1416016
5168,27.625,-79.625,7.9375,-0.4633789,-0.1733398,-0.1206055,0.2329102,0.1459961,-0.1494141
5172,54.375,-88.4375,-17.4375,-0.1923828,0.0009765625,0.04443359,0.2294922,0.1435547,-0.1547852
5176,29.5625,-72.0625,-19.5625,0.09765625,0.3544922,0.2983398,0.2260742,0.1411133,-0.1630859
5180,-6.25,-54.375,-30.625,-0.006347656,0.1796875,0.375,0.2202148,0.1435547,-0.168457
5184,-40.0625,-40.0625,-27.6875,-0.03710938,-0.04541016,0.3442383,0.21875,0.1459961,-0.1699219
5188,-54.5,-20.8125,-21.375,-0.09130859,-0.4570313,0.1479492,0.2177734,0.1489258,-0.168457
5192,-46.5625,1.375,-13.6875,-0.05273438,0.237793,-0.02050781,0.2138672,0.1538086,-0.1674805
5196,-18,23.25,9.4375,-0.215332,-0.7988281,-0.1401367,0.2138672,0.1547852,-0.1660156
5200,-5.4375,46,25.5,-0.2773438,-0.550293,-0.2436523,0.21875,0.15625,-0.1630859
5204,1.125,63.125,31.1875,-0.4672852,-0.5385742,-0.324707,0.2202148,0.1523438,-0.1606445
5208,8.8125,65.5,34.625,-0.6069336,-0.3950195,-0.3051758,0.2236328,0.1513672,-0.1547852
5212,4.6875,58.875,38.375,-0.6533203,-0.2392578,-0.2128906,0.2285156,0.1459961,-0.1523438
5216,0.25,55.375,31.5625,-0.6494141,-0.1811523,-0.2128906,0.2319336,0.1450195,-0.1484375
5220,-3.875,56.1875,26.125,-0.6845703,-0.2084961,-0.2436523,0.2353516,0.1435547,-0.1455078
5224,0,56.0625,21,-0.6611328,-0.3095703,-0.1938477,0.237793,0.1425781,-0.1425781
5228,-1.5,50.8125,24.8125,-0.6264648,-0.2045898,-0.1474609,0.2412109,0.1401367,-0.137207
5232,-4.9375,49.125,16.3125,-0.5141602,-0.1074219,-0.03613281,0.2436523,0.1386719,-0.1357422
5236,-12.25,51.4375,10.9375,-0.5102539,-0.1616211,0.001953125,0.2460938,0.1386719,-0.1289063
5240,-16.375,54.5625,10.125,-0.4633789,-0.1772461,0.02099609,0.2475586,0.1401367,-0.125
5244,-19.0625,56.9375,10.1875,-0.4868164,-0.1191406,0.01367188,0.2485352,0.1386719,-0.1225586
5248,-24.8125,57.5625,8.1875,-0.5371094,-0.1459961,-0.0859375,0.2519531,0.1386719,-0.1157227
5252,-25.75,50.875,10.125,-0.5722656,-0.3364258,-0.1630859,0.2543945,0.1376953,-0.1113281
5256,-19.125,48.1875,22,-0.6264648,-0.5112305,-0.2128906,0.2558594,0.1376953,-0.1035156
5260,-13.25,30.5,32.0625,-0.765625,-0.3481445,-0.2324219,0.2583008,0.1376953,-0.1020508
5264,-20.8125,11.8125,30.8125,-0.746582,-0.09179688,-0.1708984,0.2617188,0.1347656,-0.09765625
5268,-33.375,7.3125,11.8125,-0.6416016,-0.1381836,-0.112793,0.2626953,0.1347656,-0.09765625
5272,-26.6875,18.0625,10.625,-0.5874023,-0.7211914,-0.4594727,0.2626953,0.1337891,-0.09667969
5276,-4.8125,20.5625,25.6875,-0.6845703,-0.4570313,-0.1630859,0.2626953,0.1323242,-0.09375
5280,9.8125,23.6875,23.125,-0.8125,-0.3676758,-0.2128906,0.2651367,0.1313477,-0.09082031
5284,-1,11.1875,22.25,-0.9711914,-0.2045898,-0.1899414,0.2675781,0.1289063,-0.09228516
5289,-10.1875,1.75,10.25,-0.9248047,-0.3520508,-0.1362305,0.2675781,0.1289063,-0.08837891
5293,-9.875,0.875,1.9375,-0.9399414,-0.5927734,-0.1206055,0.2675781,0.1274414,-0.09082031
5297,0.8125,-5.75,3,-0.9907227,-0.6938477,-0.1401367,0.269043,0.1274414,-0.08837891
5301,2.5625,-11,19.625,-0.9365234,-0.6513672,-0.07861328,0.2709961,0.125,-0.08837891
5305,10.125,-6.1875,17.5625,-0.9399414,-0.6748047,-0.07470703,0.269043,0.1264648,-0.09082031
5309,16.1875,-3.25,17.125,-0.9672852,-0.7446289,-0.09765625,0.2700195,0.1225586,-0.09228516
5313,18,-6.8125,17.375,-1.056641,-0.7211914,-0.109375,0.2700195,0.1210938,-0.09082031
5317,21.3125,-14.5625,24.875,-1.11084,-0.7368164,-0.07470703,0.2724609,0.1210938,-0.09375
5321,23.3125,-10.0625,21.875,-1.07959,-0.5620117,-0.01660156,0.2749023,0.1162109,-0.09521484
