Packet number,Gyroscope X (deg/s),Gyroscope Y (deg/s),Gyroscope Z (deg/s),Accelerometer X (g),Accelerometer Y (g),Accelerometer Z (g),Magnetometer X (G),Magnetometer Y (G),Magnetometer Z (G)
1,-60.375,-96.75,23.375,0.7602539,0.2416992,0.07128906,-0.3007813,-0.1181641,-0.00390625
5,-40,-121.1875,5.5,0.9658203,0.140625,0.1865234,-0.2998047,-0.1157227,0.00390625
9,-11.75,-36.6875,14.125,1.29541,-0.02587891,0.1098633,-0.2998047,-0.1157227,0.01074219
13,11,-10.5625,30.625,1.059082,0.09033203,0.1748047,-0.2983398,-0.1132813,0.01171875
17,18.3125,-6.6875,42.375,0.9423828,0.09814453,0.07519531,-0.2983398,-0.109375,0.01318359
21,21.875,-7.3125,51.0625,0.9389648,0.15625,0.125,-0.3017578,-0.1069336,0.01611328
25,20.1875,-7.5,46.75,0.8999023,0.2070313,0.09423828,-0.3032227,-0.1020508,0.01611328
29,18.75,-14.4375,37.5,0.8803711,0.1875,0.05175781,-0.3032227,-0.09716797,0.01611328
33,18.5,-21.1875,34.6875,0.9311523,0.203125,0.02490234,-0.3007813,-0.09423828,0.01855469
37,22.9375,-31.9375,33,0.8920898,0.1640625,-0.04394531,-0.3032227,-0.09179688,0.02001953
41,30.125,-47.9375,17.625,0.7954102,0.1835938,-0.1362305,-0.3041992,-0.08837891,0.02539063
45,22.9375,-60.9375,13.5,1.0625,0.203125,-0.08984375,-0.3017578,-0.08691406,0.03076172
49,10.0625,-55.3125,41.4375,1.082031,0.1679688,-0.2246094,-0.3017578,-0.08447266,0.03515625
53,7.25,-70.1875,24.125,0.8652344,0.2456055,-0.3901367,-0.3017578,-0.08203125,0.0390625
57,1.9375,-88.75,16.125,1.004395,0.1875,-0.5170898,-0.2983398,-0.08056641,0.04589844
61,-12.8125,-90.75,18.0625,1.186523,0.2456055,-0.5322266,-0.2973633,-0.078125,0.05273438
65,-25.375,-91.875,4.8125,1.074219,0.2299805,-0.6401367,-0.2949219,-0.078125,0.06201172
69,-30.375,-99.75,-5.875,1.198242,0.08251953,-0.6552734,-0.2915039,-0.078125,0.06884766
73,-32,-100.625,-2.1875,1.179199,-0.002441406,-0.6708984,-0.2866211,-0.08056641,0.07714844
77,-17.4375,-113.25,-5.0625,1.132324,-0.1308594,-0.7094727,-0.2851563,-0.08447266,0.08544922
81,0.375,-123.375,1.3125,1.22168,-0.09960938,-0.6899414,-0.2807617,-0.08447266,0.09326172
85,19.625,-132.75,-5.625,1.241211,-0.05273438,-0.7094727,-0.2734375,-0.08544922,0.1044922
89,29.8125,-143.5,-6.875,1.26416,0.01269531,-0.7094727,-0.2661133,-0.08837891,0.1166992
93,22.125,-156,0.5,1.22168,0.105957,-0.7441406,-0.2636719,-0.08837891,0.1259766
97,0.6875,-172.5625,6.0625,1.202148,0.21875,-0.8017578,-0.2519531,-0.08837891,0.1425781
101,-57.125,-191.25,17.4375,1.101563,0.3349609,-0.6708984,-0.2426758,-0.08544922,0.1586914
105,-72.4375,-213.4375,-1.4375,1.299316,0.2226563,-0.8823242,-0.234375,-0.08544922,0.1699219
109,-106.1875,-218,4.8125,1.43457,0.4633789,-0.6787109,-0.2246094,-0.08447266,0.1831055
113,-77.625,-243.5625,-12.75,1.175293,-0.5307617,-0.9360352,-0.2128906,-0.09179688,0.1928711
117,-68.4375,-242.625,9.75,1.624512,-0.1420898,-0.5825195,-0.2006836,-0.09570313,0.1967773
122,-62.375,-241.0625,6.375,1.523926,-0.08007813,-0.4824219,-0.1865234,-0.1005859,0.2104492
126,-53.75,-232.375,15,1.674805,-0.1420898,-0.3515625,-0.168457,-0.1054688,0.2202148
130,-40.625,-215.625,24.0625,1.461914,-0.1347656,-0.378418,-0.1567383,-0.1069336,0.2270508
134,-11.3125,-213.8125,28.5,1.194336,-0.1035156,-0.7978516,-0.1425781,-0.1083984,0.2333984
138,17.25,-226,19.3125,0.9697266,0.07861328,-1.147949,-0.1245117,-0.109375,0.2402344
142,36.625,-251,3.0625,1.074219,0.1796875,-1.147949,-0.1137695,-0.1054688,0.2485352
146,32.75,-255.1875,2.25,1.287598,0.3779297,-0.9555664,-0.09375,-0.1030273,0.2539063
150,11.625,-250.8125,-3.4375,1.291504,0.5058594,-0.8671875,-0.07324219,-0.09960938,0.2583008
154,-16,-249.5,-17.375,1.275879,0.5175781,-0.609375,-0.06054688,-0.09814453,0.2636719
158,-36.5,-220.1875,-23.5,1.244629,0.2456055,-0.4555664,-0.04150391,-0.09814453,0.2651367
162,-24.6875,-207.125,-24.5,0.9077148,-0.07226563,-0.5053711,-0.02246094,-0.1020508,0.2651367
166,1,-195.375,-9.1875,0.8613281,-0.2587891,-0.559082,-0.01171875,-0.09960938,0.2651367
170,30.6875,-196.1875,2.6875,0.6362305,-0.1928711,-0.6054688,0.005859375,-0.09960938,0.2651367
174,42,-187.8125,9.8125,0.6289063,-0.04541016,-0.4208984,0.02001953,-0.09179688,0.2651367
178,30.875,-156.125,23.5,0.8149414,0.004882813,-0.05908203,0.03076172,-0.09179688,0.2636719
182,18.9375,-121.75,23.3125,0.4155273,0.121582,-0.1708984,0.04150391,-0.08935547,0.2636719
186,4.25,-99.75,12.625,0.4155273,0.1953125,-0.2363281,0.05078125,-0.08691406,0.2607422
190,-5.6875,-79.8125,-0.3125,0.3496094,0.15625,-0.1938477,0.05566406,-0.08691406,0.2583008
194,-13.3125,-50.375,-9,0.4077148,0.08642578,-0.05908203,0.06152344,-0.08837891,0.2583008
198,-22.125,-21.5625,-4.1875,0.2797852,-0.01806641,-0.02050781,0.06542969,-0.08691406,0.2607422
202,-20.375,2.3125,-0.125,0.2797852,-0.1577148,0.1518555,0.06640625,-0.08691406,0.2583008
206,-10.4375,37.125,4.5625,0.3110352,-0.1538086,0.1479492,0.06542969,-0.08935547,0.2583008
210,-4.375,65.4375,5.3125,0.3227539,-0.08789063,-0.0859375,0.06152344,-0.09082031,0.2568359
214,2.5625,70.1875,0.0625,-0.02587891,0.06298828,-0.574707,0.05810547,-0.09082031,0.2592773
218,2.9375,62.625,-4.875,0.159668,0.05908203,-0.5478516,0.05224609,-0.09082031,0.2607422
222,-6.4375,73.6875,-1.4375,0.2993164,0.02050781,-0.3208008,0.04638672,-0.09179688,0.2592773
226,-16.9375,96.8125,-0.8125,0.4116211,-0.05664063,-0.1401367,0.04248047,-0.09423828,0.2607422
230,-22.8125,130.25,1.9375,0.6635742,-0.1694336,-0.04003906,0.03417969,-0.09423828,0.262207
234,-17.9375,158.5625,15.8125,0.4892578,-0.1113281,-0.5517578,0.02246094,-0.09716797,0.262207
238,-10.625,154.75,16.4375,0.5009766,-0.02587891,-0.6479492,0.01269531,-0.1020508,0.2607422
242,-14.4375,163.875,26.75,0.7333984,0.07470703,-0.4785156,0.002441406,-0.1030273,0.2651367
246,-28.875,186.5625,26.4375,1.13623,0.09814453,-0.1362305,-0.01269531,-0.1069336,0.262207
251,-37.75,228.6875,32.6875,1.361328,-0.01025391,-0.1743164,-0.0234375,-0.1083984,0.2592773
255,-17.625,244.75,54.4375,0.9541016,0.06298828,-1.151855,-0.04394531,-0.1157227,0.2592773
259,8.8125,201.25,23.375,0.644043,0.3740234,-1.420898,-0.06152344,-0.1157227,0.2583008
263,10.4375,195.5625,17.6875,1.16748,0.3232422,-1.163086,-0.07226563,-0.1142578,0.2539063
267,-12.8125,190.875,22.5,1.209961,0.2495117,-0.8364258,-0.08789063,-0.1142578,0.2514648
271,-25.1875,210.5625,31.75,1.605469,0.02050781,-0.6171875,-0.1054688,-0.1157227,0.2460938
275,-18.8125,230.9375,26.75,1.616699,-0.1459961,-0.6552734,-0.1162109,-0.1166992,0.2402344
279,21,237,28.3125,1.670898,-0.421875,-0.7363281,-0.1342773,-0.1166992,0.2333984
283,68.0625,232.625,38.75,1.399902,-0.2900391,-0.9746094,-0.1533203,-0.1118164,0.2270508
287,88.0625,222.3125,30.1875,1.550781,-0.03759766,-0.7939453,-0.1650391,-0.1054688,0.2211914
291,63.1875,234.3125,33.6875,1.663574,0.1796875,-0.5283203,-0.1831055,-0.09814453,0.2133789
295,32.8125,237.8125,30.5625,1.682617,0.08642578,-0.4013672,-0.199707,-0.08935547,0.2036133
299,24.5625,244.625,34.625,1.706055,-0.1420898,-0.3745117,-0.2089844,-0.08935547,0.1943359
303,33.875,243.3125,38.625,1.616699,-0.2431641,-0.4052734,-0.2255859,-0.08447266,0.1791992
307,48.75,237.3125,43.875,1.624512,-0.2783203,-0.3823242,-0.2387695,-0.08447266,0.1640625
311,56.9375,238.375,50.5,1.620605,-0.2470703,-0.4248047,-0.2485352,-0.08203125,0.1518555
315,59.125,235,57.25,1.554688,-0.1459961,-0.4824219,-0.2636719,-0.07421875,0.1303711
319,49.25,236,54.5,1.589844,0.004882813,-0.4516602,-0.2758789,-0.06298828,0.1083984
323,25.4375,235.0625,54.1875,1.500488,0.03613281,-0.4707031,-0.2827148,-0.05810547,0.09472656
327,6,226,61.8125,1.384277,-0.07226563,-0.5629883,-0.2924805,-0.05078125,0.07324219
331,3.1875,207.75,63.75,1.299316,-0.1381836,-0.6708984,-0.3017578,-0.04296875,0.05419922
335,13.4375,196.375,63.6875,1.322266,-0.1694336,-0.7133789,-0.3041992,-0.03564453,0.0390625
339,25.375,184.3125,61.25,1.147949,-0.1074219,-0.8017578,-0.3081055,-0.02929688,0.02539063
343,30.25,162.9375,51.5625,1.027832,0.04736328,-0.8745117,-0.3105469,-0.02197266,0.00390625
347,24.1875,142.875,48.9375,0.9389648,0.1020508,-0.9633789,-0.3125,-0.01708984,-0.005371094
351,14.6875,114.75,39.625,0.7915039,0.2612305,-1.097656,-0.3105469,-0.01318359,-0.01904297
355,2.1875,85.0625,29.1875,0.7529297,0.253418,-1.125,-0.3115234,-0.009277344,-0.02978516
359,-1.3125,50.5,19.625,0.6328125,0.2416992,-1.178711,-0.3115234,-0.008300781,-0.03369141
363,-0.1875,14.125,10.1875,0.659668,0.203125,-1.13623,-0.3115234,-0.005859375,-0.03369141
367,-0.5,-20.3125,3.125,0.659668,0.2148438,-1.066895,-0.3115234,-0.004394531,-0.03808594
371,-2.5625,-53.625,-7.75,0.7294922,0.2109375,-0.9785156,-0.3105469,-0.004394531,-0.03515625
375,-4.5,-78.625,-17.5,0.8417969,0.1835938,-0.9248047,-0.3125,-0.006835938,-0.02978516
380,-0.75,-102.3125,-28.875,0.8496094,0.140625,-1.001465,-0.3115234,-0.008300781,-0.01757813
384,-0.25,-133.1875,-38,0.8535156,0.1484375,-1.047852,-0.3115234,-0.01074219,-0.01220703
388,-10.5,-164.6875,-35.8125,1.023926,0.1914063,-1.070801,-0.309082,-0.015625,0.0009765625
392,-26.4375,-190.4375,-41.3125,1.121094,0.203125,-1.125,-0.3081055,-0.02197266,0.01708984
396,-33.875,-217.75,-55,1.330078,0.09033203,-1.047852,-0.3066406,-0.02441406,0.03222656
400,-27.6875,-239.6875,-64.375,1.500488,-0.1113281,-0.9555664,-0.2998047,-0.03320313,0.05126953
404,-10.9375,-256,-65.25,1.659668,-0.2509766,-0.8632813,-0.293457,-0.04199219,0.07421875
408,-2.6875,-272.125,-52.75,1.678711,-0.1811523,-0.8632813,-0.2866211,-0.04833984,0.08935547
412,-20.75,-281.0625,-43.375,1.806641,0.004882813,-0.9477539,-0.2724609,-0.05712891,0.1166992
416,-57,-293.625,-49.5,1.717773,0.1914063,-1.259277,-0.2553711,-0.06591797,0.1411133
420,-75.625,-330.5,-62.625,1.884277,-0.03759766,-1.359375,-0.2436523,-0.06933594,0.1616211
424,-58.625,-333.625,-82.625,1.926758,-0.3134766,-1.355469,-0.2236328,-0.07080078,0.1845703
428,-42.6875,-384.125,-90.5,1.918945,-0.7446289,-1.482422,-0.2045898,-0.07714844,0.2021484
432,5.5625,-389.375,-56.8125,2.853027,-0.3208008,-1.040039,-0.184082,-0.08300781,0.2158203
436,-21.125,-362,-26.1875,2.845215,0.04003906,-0.894043,-0.1542969,-0.08837891,0.2333984
440,-64.625,-363.6875,-24.9375,2.450195,0.253418,-0.840332,-0.1269531,-0.09326172,0.2446289
444,-93.1875,-354.875,-19.625,2.368652,0.2768555,-0.8710938,-0.1069336,-0.09814453,0.2514648
448,-87.4375,-350.125,-49.25,2.035156,0.253418,-1.043945,-0.07714844,-0.1054688,0.2553711
452,-55,-342.4375,-72.875,1.984863,0.03613281,-0.9555664,-0.04833984,-0.1108398,0.2607422
456,-38.125,-336.125,-67.6875,1.670898,0.05908203,-0.8901367,-0.03076172,-0.1132813,0.2607422
460,-45.6875,-326.9375,-51.875,1.663574,0.05126953,-0.574707,-0.0009765625,-0.1132813,0.2607422
464,-47.375,-301.75,-32.3125,1.484863,-0.09960938,-0.3286133,0.0234375,-0.1166992,0.2583008
468,-22.8125,-269.5625,-33.8125,1.376465,-0.02197266,-0.02832031,0.03808594,-0.1166992,0.2553711
472,-3.375,-218.25,-51.8125,1.159668,0.06689453,0.1210938,0.05957031,-0.1157227,0.2514648
476,-0.0625,-178.5,-64.4375,0.6713867,0.1098633,0.07910156,0.07470703,-0.1132813,0.2485352
480,-9.5,-152.5,-60,0.690918,-0.02197266,0.1982422,0.08447266,-0.1108398,0.2460938
484,-25.6875,-112.375,-35.1875,0.4970703,-0.09179688,0.2211914,0.09521484,-0.1108398,0.2416992
488,-35.4375,-88.75,-26.125,0.3574219,-0.1035156,0.2675781,0.1035156,-0.1108398,0.2402344
492,-39.9375,-51.75,-20.75,0.3691406,-0.1381836,0.4018555,0.109375,-0.1132813,0.2392578
496,-33.1875,-18.1875,-21.625,0.2412109,-0.2353516,0.3671875,0.1103516,-0.1142578,0.2363281
500,-15.5,9.375,-22.4375,0.2294922,-0.2900391,0.2441406,0.112793,-0.1157227,0.2363281
504,4.125,27.6875,-20.9375,0.01660156,-0.2900391,0.02880859,0.1118164,-0.1142578,0.2363281
509,11.5,37.3125,-6.625,-0.04492188,-0.2084961,-0.1401367,0.1103516,-0.1132813,0.2348633
513,10.75,39.9375,4.1875,-0.04882813,-0.1347656,-0.1245117,0.1069336,-0.1132813,0.237793
517,9.0625,54.5,11.3125,0.1171875,-0.1269531,-0.09375,0.1044922,-0.1142578,0.2416992
521,14.3125,72.875,12,0.2026367,-0.1655273,-0.1435547,0.09960938,-0.1132813,0.2416992
525,25.8125,93.5,11.75,0.2490234,-0.1733398,-0.2978516,0.09375,-0.1132813,0.2416992
529,34.3125,110.0625,12.625,0.3457031,-0.1269531,-0.4091797,0.09033203,-0.1108398,0.2431641
533,26.3125,126,22.5625,0.3227539,0.02441406,-0.4824219,0.07861328,-0.109375,0.2470703
537,3.4375,140.625,33.3125,0.5087891,0.03613281,-0.4052734,0.06982422,-0.1108398,0.25
541,-11.1875,166.8125,46.25,0.6713867,0.0009765625,-0.4707031,0.06298828,-0.109375,0.2514648
545,-1.5625,189.5,48,0.6518555,0.06689453,-0.8710938,0.04980469,-0.1157227,0.2539063
549,10.625,189.8125,34.75,0.5551758,0.2070313,-0.9980469,0.03173828,-0.1166992,0.2568359
553,-3.25,190.5625,38.875,0.7060547,0.2612305,-0.8208008,0.0234375,-0.1181641,0.2568359
557,-31.25,200.5625,53.625,1.128418,0.121582,-0.4208984,0.008300781,-0.1181641,0.2583008
561,-39.0625,233.3125,81.375,1.516113,-0.06445313,-0.5053711,-0.01025391,-0.1254883,0.2592773
565,-5.75,257.8125,70.5,1.244629,0.07861328,-0.809082,-0.02099609,-0.1308594,0.2568359
569,19.375,257.3125,54,1.399902,0.07861328,-0.8168945,-0.04492188,-0.1293945,0.2568359
573,33.5625,259.25,52.125,1.384277,0.1640625,-0.8129883,-0.06738281,-0.1269531,0.2539063
577,23.75,262.9375,55.5625,1.706055,0.2338867,-0.6171875,-0.08056641,-0.1245117,0.2539063
581,-3.625,279.5,66.375,1.930664,0.1679688,-0.4628906,-0.1044922,-0.1220703,0.2460938
585,-9.375,296.75,72.625,1.911133,-0.01416016,-0.5244141,-0.128418,-0.1196289,0.2348633
589,7.625,300.625,78.125,1.926758,-0.2006836,-0.59375,-0.1435547,-0.1166992,0.230957
593,48.875,302.6875,83.0625,1.814453,-0.2431641,-0.878418,-0.1699219,-0.1118164,0.2172852
597,96.5,292.1875,59.625,1.632324,-0.08398438,-1.01709,-0.1914063,-0.1005859,0.2080078
601,90.375,277.9375,50.8125,1.713867,0.203125,-0.9169922,-0.203125,-0.09570313,0.2011719
605,32.25,270.375,65.25,1.856934,0.253418,-0.7363281,-0.222168,-0.08691406,0.1845703
609,-17.6875,264.625,91.5,1.880371,0.07470703,-0.6977539,-0.237793,-0.08544922,0.1655273
613,-28.625,254.9375,104.1875,1.830078,-0.1459961,-0.7363281,-0.2509766,-0.07958984,0.1479492
617,-9.4375,252.875,108.9375,1.837891,-0.2861328,-0.8017578,-0.2661133,-0.07177734,0.1259766
621,28.0625,250.4375,92.8125,1.702148,-0.2275391,-0.9169922,-0.2807617,-0.05810547,0.105957
625,48.5625,236.25,78.4375,1.605469,-0.09179688,-0.9555664,-0.2875977,-0.05175781,0.09082031
629,43.875,219.5625,72.75,1.554688,0.05517578,-0.9399414,-0.2958984,-0.04199219,0.0703125
633,23.75,202.375,77.3125,1.372559,0.1254883,-1.032227,-0.3017578,-0.03173828,0.04882813
638,10.5,175.125,69.6875,1.163574,0.1601563,-1.097656,-0.3056641,-0.02441406,0.03613281
642,8.75,149.0625,61.625,1.175293,0.07861328,-1.05957,-0.3081055,-0.01806641,0.02148438
646,18.5625,127.75,51.8125,0.9350586,0.1254883,-1.121094,-0.309082,-0.009277344,0.0078125
650,26.8125,95.6875,35.875,0.7680664,0.203125,-1.113281,-0.309082,-0.008300781,-0.001464844
654,23.75,65.625,29.3125,0.7021484,0.2338867,-1.040039,-0.3105469,-0.005859375,-0.009277344
658,16.125,35.375,24.375,0.6015625,0.2729492,-0.9633789,-0.3105469,-0.0004882813,-0.01464844
662,11.25,9.1875,16.5,0.609375,0.2338867,-0.8823242,-0.3105469,0,-0.01757813
666,12.75,-11.625,5.0625,0.6132813,0.2109375,-0.8056641,-0.3105469,0,-0.01611328
670,18.9375,-32.125,-8.875,0.6015625,0.1875,-0.7553711,-0.3115234,0.001464844,-0.01464844
674,23.8125,-53.6875,-21.375,0.6210938,0.171875,-0.7207031,-0.309082,0.001464844,-0.01367188
678,21.4375,-77.1875,-28.875,0.7138672,0.1601563,-0.7055664,-0.309082,-0.003417969,-0.006835938
682,16.4375,-93.1875,-33.375,0.8222656,0.1640625,-0.7441406,-0.309082,-0.004394531,0.0009765625
686,6,-110,-38.6875,0.8803711,0.2456055,-0.8325195,-0.3105469,-0.008300781,0.0078125
690,-5.25,-132.375,-53.9375,0.9462891,0.2456055,-0.9785156,-0.309082,-0.01318359,0.01708984
694,4.375,-150,-73.0625,1.113281,0.06298828,-1.009277,-0.3066406,-0.02050781,0.03222656
698,18.9375,-167.875,-83.875,1.206055,0.02832031,-1.113281,-0.3032227,-0.02587891,0.04199219
702,26.625,-191.0625,-89.25,1.202148,0.04394531,-1.213379,-0.2983398,-0.03466797,0.05664063
706,13.125,-218.5,-77.75,1.357422,0.1445313,-1.259277,-0.2924805,-0.04199219,0.07568359
710,-11.1875,-248.1875,-71.25,1.508301,0.1098633,-1.282715,-0.2866211,-0.04833984,0.09228516
714,-24.8125,-269.1875,-67.75,1.740723,-0.002441406,-1.293945,-0.2758789,-0.05810547,0.1123047
718,-19.6875,-293.9375,-77.875,1.884277,-0.1616211,-1.217285,-0.2578125,-0.06835938,0.1396484
722,9.5,-305.3125,-83.8125,2.271973,-0.324707,-1.005371,-0.2485352,-0.07080078,0.1572266
726,22.5625,-309.0625,-77.9375,2.244629,-0.2124023,-0.859375,-0.2280273,-0.07324219,0.1806641
730,-1.8125,-318.5625,-53.25,2.330078,-0.01025391,-0.7861328,-0.2089844,-0.07568359,0.1982422
734,-51,-326.3125,-26.8125,2.345215,0.105957,-0.7363281,-0.1972656,-0.078125,0.2089844
738,-85,-322.625,-24.25,2.314453,0.07080078,-0.8168945,-0.1708984,-0.08691406,0.2241211
742,-76.125,-317.25,-39.5,2.058594,-0.07226563,-1.094238,-0.1459961,-0.09423828,0.237793
746,-41.3125,-327.875,-50,1.915039,-0.08789063,-1.251953,-0.128418,-0.1020508,0.2416992
750,-21.125,-341.1875,-48.9375,1.63623,0.1601563,-1.663574,-0.1010742,-0.1069336,0.2485352
754,-23.375,-388.8125,-45.9375,1.601563,0.3818359,-1.971191,-0.07128906,-0.109375,0.2583008
758,-35,-428.625,-51.125,1.791016,0.4321289,-1.924805,-0.04980469,-0.109375,0.2592773
762,-33.75,-444.25,-59.5625,2.395508,0.21875,-1.132324,-0.01269531,-0.1108398,0.2592773
767,-38.9375,-399.75,-42.0625,2.620605,-0.01806641,-0.005371094,0.02148438,-0.1118164,0.2592773
771,-36.6875,-317,-9.6875,2.298828,-0.2163086,0.9560547,0.04150391,-0.1108398,0.2553711
775,-17.5,-195.375,-11.25,1.876465,-0.1811523,1.132813,0.06396484,-0.1118164,0.2485352
779,17.4375,-108.625,-43.6875,0.8691406,-0.006347656,0.5327148,0.07470703,-0.1108398,0.2460938
783,28.3125,-90.5,-58.4375,0.2685547,0.21875,-0.001464844,0.07958984,-0.1054688,0.2470703
787,-11.8125,-94.1875,-38.8125,0.2836914,0.3041992,0.144043,0.08789063,-0.1020508,0.2446289
791,-78.4375,-72.875,-10.375,0.3227539,0.2148438,0.159668,0.09375,-0.1030273,0.2416992
795,-104,-57.5625,-7.9375,0.2104492,-0.09570313,0.1713867,0.09863281,-0.1083984,0.2416992
799,-83.75,-31.375,-10.1875,0.3999023,-0.4375,0.2597656,0.09960938,-0.1166992,0.237793
803,-25.3125,-0.5,-26.8125,0.1948242,-0.6474609,0.2172852,0.1010742,-0.1181641,0.2348633
807,23,20.3125,-26.6875,0.1210938,-0.534668,0.02490234,0.1020508,-0.1206055,0.2363281
811,46.25,28.0625,-14.3125,0.0009765625,-0.4067383,-0.1591797,0.09960938,-0.1157227,0.237793
815,52.125,29.9375,5.1875,-0.02978516,-0.1269531,-0.3168945,0.09863281,-0.1132813,0.2416992
819,36.125,34.5625,15.4375,0.03564453,0.105957,-0.2900391,0.09765625,-0.1083984,0.2402344
823,17.0625,47.3125,18.4375,0.1518555,0.09814453,-0.2861328,0.09277344,-0.109375,0.2431641
827,16.9375,66.625,12.75,0.2529297,-0.002441406,-0.3129883,0.08886719,-0.1069336,0.2416992
831,24.6875,87.375,6.25,0.2646484,-0.02587891,-0.4628906,0.08691406,-0.1069336,0.2446289
835,22.6875,101.875,8.1875,0.3149414,0.01269531,-0.4824219,0.07958984,-0.1069336,0.2446289
839,12.375,117.375,20,0.3691406,-0.002441406,-0.5629883,0.07226563,-0.1069336,0.25
843,8.375,125.1875,27.5625,0.3808594,0.0009765625,-0.5400391,0.06298828,-0.1054688,0.2470703
847,0.0625,142.25,38.5,0.6401367,0.05126953,-0.5244141,0.05566406,-0.1054688,0.2514648
851,-4.0625,163.625,44.5625,0.7680664,0.09033203,-0.5551758,0.04248047,-0.1108398,0.2514648
855,0.75,186,37.25,0.7333984,0.1445313,-0.6977539,0.03417969,-0.1118164,0.2539063
859,2.875,193.9375,36.3125,0.8457031,0.105957,-0.7207031,0.01904297,-0.1132813,0.2568359
863,-2.0625,207.125,43,1.078125,0.06689453,-0.5864258,0.003417969,-0.1157227,0.2568359
867,-6.9375,227.1875,56.5,1.326172,-0.02587891,-0.4936523,-0.006835938,-0.1166992,0.2583008
871,33.875,257.8125,67.75,1.175293,-0.01416016,-1.313477,-0.02587891,-0.1196289,0.2583008
875,77.875,243.8125,9.375,0.5009766,0.3623047,-1.659668,-0.04833984,-0.1157227,0.2592773
879,46.125,219.125,20.6875,0.7255859,0.4868164,-1.58252,-0.06054688,-0.1108398,0.2592773
883,-20.3125,191.25,61.1875,0.7915039,0.3505859,-1.224609,-0.07714844,-0.1083984,0.2553711
887,-61.8125,180.5625,95.125,1.368652,0.02832031,-0.6171875,-0.09375,-0.109375,0.2514648
891,-43.8125,209.375,101.625,1.810547,-0.3017578,-0.4130859,-0.1054688,-0.1108398,0.2460938
896,34.9375,236.625,77.6875,1.612793,-0.3637695,-0.7363281,-0.1235352,-0.109375,0.2416992
900,111.625,237,31.5625,1.237305,0.004882813,-1.113281,-0.1435547,-0.1005859,0.2348633
904,108.6875,217.0625,6.5625,1.147949,0.4555664,-1.070801,-0.1557617,-0.09423828,0.2294922
908,40.4375,202.3125,14.375,1.364746,0.4946289,-0.7709961,-0.1733398,-0.08544922,0.2172852
912,-17.75,202.9375,30.875,1.585938,0.269043,-0.5053711,-0.1875,-0.08300781,0.2104492
916,-37.4375,219.25,36.5625,1.740723,0.008789063,-0.34375,-0.1972656,-0.08300781,0.206543
920,-30.1875,235.6875,41.9375,1.647949,-0.1772461,-0.3745117,-0.2114258,-0.08056641,0.1914063
924,1.625,230.25,35.1875,1.469727,-0.2431641,-0.4628906,-0.2280273,-0.07958984,0.1791992
928,28.9375,224.75,31.3125,1.52002,-0.2470703,-0.4282227,-0.2353516,-0.078125,0.1699219
932,32.875,222.6875,43.8125,1.5625,-0.1308594,-0.3745117,-0.2485352,-0.07714844,0.1508789
936,16.4375,223.9375,59.625,1.558594,-0.03369141,-0.3666992,-0.2617188,-0.07421875,0.1313477
940,-1.0625,217.8125,70.4375,1.43457,-0.03369141,-0.4208984,-0.2700195,-0.06835938,0.1166992
944,-3.3125,208.625,70.875,1.442383,-0.1191406,-0.3974609,-0.2817383,-0.06054688,0.09912109
948,9.5625,203.3125,68.9375,1.43457,-0.1928711,-0.4360352,-0.2890625,-0.05322266,0.08007813
952,25.75,197.9375,64.5,1.361328,-0.1733398,-0.5170898,-0.293457,-0.046875,0.06884766
956,38.5625,188.125,60.5,1.237305,-0.09570313,-0.6015625,-0.3007813,-0.03808594,0.04980469
960,37.75,172.3125,60.125,1.101563,-0.006347656,-0.6821289,-0.3041992,-0.03173828,0.03076172
964,31,151.625,56.875,1.000488,0.09423828,-0.8017578,-0.3056641,-0.02441406,0.02001953
968,22.625,126.0625,51.0625,0.9077148,0.1484375,-0.894043,-0.3081055,-0.01806641,0.006347656
972,14,104.125,42.75,0.8574219,0.2109375,-1.005371,-0.309082,-0.01464844,-0.00390625
976,4.875,76.5,29.3125,0.7490234,0.1992188,-1.040039,-0.3081055,-0.01074219,-0.009277344
980,0.9375,47.8125,19.9375,0.7529297,0.1254883,-1.01709,-0.309082,-0.006835938,-0.01611328
984,-1.375,20.75,17.6875,0.7060547,0.1098633,-0.9785156,-0.3081055,-0.004394531,-0.02294922
988,-1.1875,-11.0625,11.1875,0.6870117,0.08251953,-0.9360352,-0.3105469,-0.003417969,-0.02050781
992,1.8125,-38.1875,2.375,0.7373047,0.09033203,-0.8901367,-0.309082,-0.003417969,-0.02148438
996,5.25,-64.0625,-9.1875,0.8261719,0.1176758,-0.8325195,-0.309082,-0.003417969,-0.01367188
1000,7.4375,-86.6875,-23.125,0.8842773,0.1367188,-0.7978516,-0.3115234,-0.006835938,-0.009277344
1004,7.4375,-102.9375,-38.9375,0.9580078,0.1523438,-0.8168945,-0.309082,-0.009277344,-0.00390625
1008,1.0625,-115.5,-45.9375,0.9658203,0.1992188,-0.9746094,-0.3081055,-0.01464844,0.009277344
1012,-5.5625,-141.0625,-54.3125,0.8652344,0.2495117,-1.244141,-0.309082,-0.01806641,0.01708984
1016,-9.125,-176.375,-67.625,0.9194336,0.2226563,-1.363281,-0.3056641,-0.0234375,0.03076172
1020,-12.625,-213.4375,-68.625,1.151855,0.1254883,-1.251953,-0.2998047,-0.03320313,0.04980469
1025,-16.125,-245.5,-70.1875,1.426758,0.04736328,-1.028809,-0.2958984,-0.03710938,0.06347656
1029,-19,-257.9375,-73.375,1.853027,-0.01416016,-0.6977539,-0.2875977,-0.04589844,0.08691406
1033,-24.8125,-248.3125,-80.5,1.946289,0.05126953,-0.6401367,-0.2758789,-0.05566406,0.1123047
1037,-33.5625,-254.25,-94.75,1.833984,0.0009765625,-0.6748047,-0.2661133,-0.06298828,0.1259766
1041,-41.1875,-267.1875,-91.6875,1.93457,-0.1538086,-0.6323242,-0.2509766,-0.07324219,0.1464844
1045,-46.4375,-279.125,-72.0625,1.895996,-0.2392578,-0.6015625,-0.2363281,-0.07958984,0.168457
1049,-55.4375,-287.5625,-48.3125,2.008301,-0.1772461,-0.6552734,-0.2246094,-0.08300781,0.1791992
1053,-63.375,-279.25,-42.1875,1.93457,-0.1191406,-0.8129883,-0.206543,-0.09082031,0.1967773
1057,-53.8125,-283.625,-49.5625,1.582031,-0.1577148,-1.125,-0.1865234,-0.09716797,0.2119141
1061,-31.4375,-308.625,-44.125,1.698242,-0.2900391,-1.182617,-0.1723633,-0.1044922,0.2172852
1065,-6.125,-318.6875,-25,1.678711,-0.2241211,-1.371094,-0.1474609,-0.1083984,0.2294922
1069,7.3125,-336.3125,-24.1875,1.644043,0.121582,-1.609375,-0.1201172,-0.1083984,0.2402344
1073,-17.5625,-362.875,-28.25,1.63623,0.4125977,-1.670898,-0.1030273,-0.1108398,0.25
1077,-59.5,-385.4375,-41.6875,2.101074,0.3544922,-1.213379,-0.07324219,-0.1118164,0.2539063
1081,-101.3125,-365.875,-20.5,2.446289,0.1757813,-0.559082,-0.04248047,-0.1181641,0.2607422
1085,-119.625,-317.25,-6.5,2.221191,-0.1191406,-0.1938477,-0.0234375,-0.1230469,0.2568359
1089,-90,-270.25,-17.625,1.760254,-0.2900391,-0.05517578,0.0009765625,-0.1308594,0.2524414
1093,-41.875,-222.8125,-31.125,1.376465,-0.3676758,0.06738281,0.01904297,-0.1333008,0.25
1097,0.25,-186.9375,-35.375,0.8999023,-0.2084961,-0.009277344,0.03076172,-0.1333008,0.2485352
1101,2.3125,-163.625,-27.625,0.7451172,0.0009765625,0.1132813,0.04394531,-0.1293945,0.2470703
1105,-25.375,-132.6875,-6.5625,0.6401367,0.05908203,0.1826172,0.05566406,-0.1293945,0.2446289
1109,-48,-101.9375,4.5,0.527832,0.06689453,0.09814453,0.06152344,-0.1293945,0.2460938
1113,-49.75,-78.5625,-5.6875,0.3730469,-0.03369141,0.09423828,0.06982422,-0.1333008,0.2431641
1117,-29.5,-49.6875,-16.4375,0.4428711,-0.2045898,0.1210938,0.07470703,-0.1357422,0.2392578
1121,-5.5,-25.8125,-23,0.2373047,-0.2626953,0.09814453,0.07617188,-0.1357422,0.2392578
1125,1.75,-6.9375,-12.625,0.3071289,-0.2045898,0.1904297,0.07714844,-0.1357422,0.2392578
1129,3.5,19.125,-1,0.2412109,-0.1538086,0.09033203,0.07861328,-0.1357422,0.2392578
1133,4.75,34.375,4.0625,0.2138672,-0.06445313,0.009765625,0.07714844,-0.1357422,0.2402344
1137,4.3125,52.0625,5.25,0.1831055,-0.006347656,-0.128418,0.07373047,-0.1357422,0.2402344
1141,5.3125,63.5,5.75,0.1635742,-0.02587891,-0.1591797,0.07128906,-0.1367188,0.2402344
1145,10.6875,81.1875,7.625,0.2954102,-0.07617188,-0.08984375,0.06640625,-0.1367188,0.2416992
1149,14.5625,102.8125,12.4375,0.4116211,-0.1152344,-0.06689453,0.06054688,-0.1342773,0.2431641
1154,16.1875,129.1875,19.375,0.5859375,-0.1191406,-0.1245117,0.05078125,-0.1357422,0.2446289
1158,18.8125,155.8125,24.75,0.659668,-0.07226563,-0.3208008,0.04394531,-0.1357422,0.2446289
1162,23.9375,172.625,27.6875,0.6948242,-0.02197266,-0.4594727,0.03076172,-0.1357422,0.2470703
1166,20.625,189.4375,32.875,0.7641602,0.09423828,-0.6323242,0.01757813,-0.1367188,0.2485352
1170,11.875,195.125,35.75,0.8183594,0.05517578,-0.6401367,0.006835938,-0.1367188,0.2485352
1174,8,206,41.75,0.9931641,-0.002441406,-0.5864258,-0.0078125,-0.1381836,0.25
1178,15.3125,223.1875,49.25,1.248535,-0.05273438,-0.6591797,-0.02587891,-0.1381836,0.25
1182,30.9375,234.5625,44.9375,1.22168,0.04394531,-0.7592773,-0.0390625,-0.1396484,0.2514648
1186,35.9375,242.125,47.6875,1.411621,0.06689453,-0.8476563,-0.05664063,-0.1367188,0.25
1190,32.375,247.1875,43.9375,1.22168,0.2885742,-1.055664,-0.07714844,-0.1342773,0.2460938
1194,13.5,236.9375,39.9375,1.411621,0.2299805,-0.859375,-0.09033203,-0.1357422,0.2460938
1198,-7.25,241.375,48.875,1.69043,0.09423828,-0.6206055,-0.1103516,-0.1308594,0.2392578
1202,-18.375,254.875,58.6875,1.926758,-0.06445313,-0.4399414,-0.1303711,-0.1308594,0.2324219
1206,-12,268.75,70.375,1.977051,-0.2241211,-0.4013672,-0.1450195,-0.1293945,0.2255859
1210,14.3125,282.6875,90.3125,1.89209,-0.2978516,-0.6748047,-0.1674805,-0.1254883,0.2158203
1214,51.375,275.5,76.375,1.361328,0.04394531,-1.144043,-0.1875,-0.1196289,0.2050781
1218,60.625,246.375,58.6875,1.43457,0.09814453,-1.109375,-0.2006836,-0.1108398,0.1967773
1222,45.125,228.6875,66.5,1.531738,0.1445313,-0.9516602,-0.21875,-0.1054688,0.1806641
1226,23,217.875,73.25,1.706055,0.08251953,-0.7822266,-0.2319336,-0.09960938,0.1699219
1230,0.75,222.0625,84.3125,1.794922,0.04003906,-0.6669922,-0.2412109,-0.09570313,0.1586914
1234,-12.5,227.1875,91.8125,1.791016,-0.01806641,-0.6787109,-0.2543945,-0.08935547,0.1396484
1238,-16.5625,225.1875,99.8125,1.713867,-0.06054688,-0.7055664,-0.2675781,-0.078125,0.1206055
1242,-8.5625,213.875,100.0625,1.59375,-0.09570313,-0.7207031,-0.2744141,-0.07177734,0.1069336
1246,3.625,203.8125,97.75,1.605469,-0.1074219,-0.6708984,-0.2866211,-0.06298828,0.08789063
1250,19.125,196.75,90.9375,1.484863,-0.09179688,-0.6821289,-0.293457,-0.05078125,0.06884766
1254,34.5,187.1875,83.4375,1.407715,-0.06445313,-0.6552734,-0.2998047,-0.04443359,0.05810547
1258,41,176.6875,82.375,1.279785,0.01660156,-0.6787109,-0.3032227,-0.03564453,0.04199219
1262,40,157.5,81.8125,1.09375,0.1098633,-0.6977539,-0.3066406,-0.0234375,0.02392578
1266,36.25,139.4375,76.875,1.008301,0.171875,-0.6977539,-0.3081055,-0.01806641,0.01464844
1270,34.375,124.8125,62.375,0.9580078,0.2226563,-0.6787109,-0.309082,-0.01074219,0.00390625
1274,42.0625,116.0625,39,0.9038086,0.1992188,-0.6977539,-0.3081055,-0.004394531,-0.01220703
1278,52.1875,100.625,17.5625,0.7641602,0.1640625,-0.7553711,-0.309082,-0.001953125,-0.01904297
1283,63.625,75.5625,5.25,0.6171875,0.1254883,-0.7822266,-0.309082,-0.0004882813,-0.02832031
1287,70.1875,44.3125,-6.0625,0.5395508,0.1445313,-0.7822266,-0.309082,-0.0004882813,-0.03662109
1291,63.5625,18.0625,-10.375,0.527832,0.2109375,-0.7363281,-0.309082,0,-0.03662109
1295,39.3125,-7.3125,-6.125,0.5551758,0.2729492,-0.6821289,-0.309082,-0.003417969,-0.03955078
1299,11.8125,-33.4375,-7.6875,0.5473633,0.2729492,-0.6552734,-0.309082,-0.004394531,-0.03808594
1303,-4.8125,-59.5625,-14.8125,0.6518555,0.1875,-0.5976563,-0.3105469,-0.003417969,-0.03515625
1307,-13.5625,-80.5625,-20.25,0.7680664,0.121582,-0.5170898,-0.309082,-0.005859375,-0.02978516
1311,-11.875,-97.4375,-30.6875,0.8803711,0.05908203,-0.4785156,-0.3105469,-0.009277344,-0.02148438
1315,-3.9375,-112.6875,-42,0.9775391,0.06689453,-0.4785156,-0.3105469,-0.01074219,-0.01367188
1319,-2.9375,-122.3125,-46.6875,1.05127,0.1020508,-0.5400391,-0.3115234,-0.01708984,-0.00390625
1323,-10.9375,-136.3125,-50.75,1.035645,0.1601563,-0.628418,-0.309082,-0.02050781,0.009277344
1327,-22.4375,-156.875,-58,1.105469,0.1875,-0.6748047,-0.309082,-0.02685547,0.01855469
1331,-32.25,-173.4375,-65.0625,1.225586,0.1796875,-0.6899414,-0.3041992,-0.03320313,0.03369141
1335,-40.9375,-190.6875,-68.125,1.353516,0.1293945,-0.6669922,-0.3017578,-0.04296875,0.05126953
1339,-46.6875,-205.875,-71.5625,1.46582,0.105957,-0.6669922,-0.2973633,-0.046875,0.06494141
1343,-49.5625,-217.125,-78.8125,1.601563,0.09814453,-0.6171875,-0.2890625,-0.05957031,0.08398438
1347,-56.625,-223.5625,-87.4375,1.628418,0.07470703,-0.609375,-0.2792969,-0.06933594,0.1044922
1351,-66.4375,-230.125,-87.9375,1.702148,0.04736328,-0.6132813,-0.2700195,-0.07421875,0.1152344
1355,-78.875,-235.875,-85.3125,1.686523,0.04003906,-0.6401367,-0.2592773,-0.08691406,0.1357422
1359,-93.5,-241.4375,-78.25,1.709961,-0.006347656,-0.6860352,-0.2436523,-0.09814453,0.1533203
1363,-107.3125,-239.8125,-68.9375,1.725586,-0.01025391,-0.7709961,-0.2329102,-0.1044922,0.1640625
1367,-93.5625,-240,-82.4375,1.748535,-0.1850586,-0.7402344,-0.2172852,-0.1157227,0.1806641
1371,-53.0625,-234.375,-94.8125,1.709961,-0.2548828,-0.7285156,-0.2021484,-0.1269531,0.1899414
1375,-16.1875,-235.4375,-96.6875,1.628418,-0.1928711,-0.6899414,-0.1889648,-0.1333008,0.1982422
1379,-2.75,-235.0625,-81.9375,1.624512,-0.06054688,-0.7094727,-0.1723633,-0.1381836,0.2089844
1383,-5.25,-233.6875,-65.1875,1.539551,0.07861328,-0.7749023,-0.1518555,-0.1430664,0.2172852
1387,-6.5,-230.25,-63.125,1.388184,0.2495117,-1.001465,-0.1401367,-0.1469727,0.2241211
1391,-5.4375,-249.9375,-82.5,1.306641,0.3857422,-1.05957,-0.1201172,-0.1494141,0.2294922
1395,-18.8125,-256.3125,-89.5,1.550781,0.3310547,-0.878418,-0.09863281,-0.1518555,0.2363281
1399,-34.0625,-252.0625,-84.5,1.516113,0.237793,-0.7402344,-0.08203125,-0.1533203,0.237793
1403,-36.9375,-238.3125,-74.875,1.419434,0.1796875,-0.8979492,-0.06152344,-0.1582031,0.2402344
1407,-22.5,-242.1875,-84.6875,1.085938,0.2226563,-1.147949,-0.04248047,-0.1621094,0.2446289
1412,-9,-256.4375,-96.375,1.082031,0.1992188,-1.063477,-0.02832031,-0.1606445,0.2446289
1416,-4.75,-258.8125,-89.1875,1.194336,0.1137695,-0.7822266,-0.006835938,-0.1582031,0.2460938
1420,-10.375,-237.625,-74.625,1.271973,0.02832031,-0.3129883,0.01513672,-0.1591797,0.2416992
1424,-11.9375,-198.25,-57.5,1.202148,-0.02587891,-0.02832031,0.02734375,-0.1567383,0.2392578
1428,-3.0625,-151.6875,-49.8125,1.000488,-0.03369141,0.1367188,0.04248047,-0.1557617,0.2392578
1432,3.4375,-110.4375,-43.3125,0.7216797,0.05517578,0.1098633,0.05224609,-0.1542969,0.2363281
1436,4.375,-85.25,-48.9375,0.3925781,0.1333008,0.01367188,0.05810547,-0.1518555,0.237793
1440,-8.625,-64.25,-42,0.4233398,0.05908203,0.1098633,0.06298828,-0.1508789,0.2363281
1444,-32.6875,-35.125,-17.625,0.4038086,0.008789063,0.2290039,0.06787109,-0.1494141,0.2333984
1448,-50.1875,-3.375,-1.0625,0.3886719,-0.05273438,0.2172852,0.07226563,-0.1533203,0.2348633
1452,-50.25,26,5.3125,0.3305664,-0.1152344,0.08251953,0.06884766,-0.1557617,0.2324219
1456,-33.3125,45.0625,2.375,0.2138672,-0.1152344,-0.1323242,0.06542969,-0.1591797,0.2333984
1460,-9.5625,51.8125,-2.75,0.09033203,-0.1308594,-0.3051758,0.06298828,-0.1621094,0.2324219
1464,5.9375,52.125,-0.6875,0.08251953,-0.1347656,-0.324707,0.05810547,-0.1630859,0.2324219
1468,9.375,57.875,14.8125,0.1635742,-0.1308594,-0.2475586,0.05712891,-0.1621094,0.2363281
1472,7.8125,70.125,28.5,0.2875977,-0.1191406,-0.1708984,0.05322266,-0.1621094,0.2333984
1476,14.0625,89.5625,34.375,0.3999023,-0.1152344,-0.2514648,0.04492188,-0.1621094,0.2363281
1480,19.6875,107.875,38.375,0.5317383,-0.08398438,-0.2592773,0.0390625,-0.1630859,0.2348633
1484,23.1875,127.0625,47.375,0.5512695,-0.05273438,-0.3359375,0.03320313,-0.1621094,0.237793
1488,20.1875,144.125,52.5625,0.7021484,-0.01025391,-0.2783203,0.0234375,-0.1606445,0.2392578
1492,9,167.375,64.8125,0.9077148,-0.01416016,-0.2128906,0.01171875,-0.1645508,0.237793
1496,0.375,193.375,80.9375,1.085938,-0.02978516,-0.2900391,0.0009765625,-0.1630859,0.2402344
1500,8.125,212.5,89.1875,1.121094,-0.06054688,-0.4169922,-0.01416016,-0.1669922,0.2402344
1504,44.3125,230.0625,84,1.113281,-0.02978516,-0.644043,-0.03417969,-0.1645508,0.2392578
1508,96.3125,231.875,60.9375,1.105469,0.06298828,-0.7285156,-0.04833984,-0.1606445,0.2402344
1512,112.75,246.25,35.625,1.454102,0.3310547,-0.5517578,-0.06494141,-0.1518555,0.2402344
1516,74.25,273.625,22.25,1.942383,0.4672852,-0.2397461,-0.08300781,-0.1469727,0.2416992
1520,37.875,322.5,30.8125,2.10498,0.2768555,-0.3515625,-0.1020508,-0.1445313,0.2402344
1524,33.25,328.5625,42.75,1.597656,0.1137695,-0.9018555,-0.1259766,-0.1396484,0.230957
1528,50.125,308,47.9375,1.48877,0.03222656,-1.105469,-0.1494141,-0.1357422,0.2211914
1532,59.125,288.125,51.0625,1.543457,0.140625,-1.01709,-0.1674805,-0.1279297,0.2119141
1536,38.0625,272.0625,56.3125,1.752441,0.2768555,-0.7133789,-0.1899414,-0.1220703,0.2011719
1541,4.9375,269.125,64.75,2.000488,0.2495117,-0.4746094,-0.2089844,-0.1166992,0.1875
1545,-10.0625,278.1875,66.5,2.108887,0.1796875,-0.4052734,-0.2211914,-0.1132813,0.1777344
1549,-10.375,281.625,70.25,2.046875,0.03613281,-0.4707031,-0.237793,-0.109375,0.1586914
1553,5.375,277.625,80.8125,1.89209,0.0009765625,-0.6245117,-0.253418,-0.1054688,0.1342773
1557,19.1875,264.125,74.5,1.787598,0.1254883,-0.6513672,-0.2636719,-0.09814453,0.1191406
1561,10.625,254.75,71.8125,1.814453,0.2148438,-0.5786133,-0.2768555,-0.09082031,0.1000977
1565,-10.4375,246.1875,76,1.706055,0.1796875,-0.6054688,-0.2915039,-0.08300781,0.07421875
1569,-20.25,229.375,79.625,1.628418,0.1098633,-0.6323242,-0.293457,-0.07568359,0.06201172
1573,-17.4375,212.6875,76.8125,1.546875,0.04003906,-0.644043,-0.3017578,-0.06933594,0.03759766
1577,-5.5,194.6875,75.4375,1.399902,-0.03759766,-0.7094727,-0.3081055,-0.05957031,0.02001953
1581,10.4375,173,75.75,1.233398,-0.02978516,-0.7822266,-0.309082,-0.05566406,0.0078125
1585,22.5625,151.125,75.8125,1.13623,0.05126953,-0.84375,-0.3105469,-0.04589844,-0.009277344
1589,26.375,125.5625,67.375,0.9389648,0.1835938,-0.9169922,-0.3115234,-0.03808594,-0.02587891
1593,20.5,95.4375,57,0.8496094,0.2416992,-0.9326172,-0.3115234,-0.03466797,-0.03125
1597,9.3125,71.625,49.125,0.8110352,0.2807617,-0.8823242,-0.3115234,-0.02832031,-0.04052734
1601,1.9375,47.625,36.1875,0.7255859,0.253418,-0.8325195,-0.3105469,-0.0234375,-0.04638672
1605,2.875,24.125,28.1875,0.6557617,0.1679688,-0.7822266,-0.309082,-0.01953125,-0.05029297
1609,13.0625,-1.25,18.3125,0.578125,0.1601563,-0.7670898,-0.309082,-0.01708984,-0.05029297
1613,24.625,-27.6875,7.6875,0.6171875,0.1757813,-0.7094727,-0.3105469,-0.01953125,-0.05175781
1617,29,-51.75,-2.25,0.6635742,0.2456055,-0.6899414,-0.3105469,-0.01806641,-0.04736328
1621,22.3125,-71.125,-11.9375,0.7568359,0.300293,-0.6748047,-0.309082,-0.01953125,-0.04052734
1625,9.5,-91.25,-23.5,0.7602539,0.3466797,-0.7363281,-0.3105469,-0.01953125,-0.03515625
1629,-4.25,-114.375,-33.6875,0.8417969,0.3583984,-0.8129883,-0.3115234,-0.0234375,-0.02832031
1633,-19.875,-138.625,-41.9375,0.9389648,0.3349609,-0.8901367,-0.309082,-0.02685547,-0.01757813
1637,-29.375,-163.75,-50.8125,1.02002,0.2612305,-0.9785156,-0.3105469,-0.03076172,-0.001464844
1641,-26.4375,-190,-63.1875,1.163574,0.15625,-0.9555664,-0.3081055,-0.03710938,0.01074219
1645,-18,-206.3125,-74.125,1.450195,0.1020508,-0.8129883,-0.3056641,-0.04589844,0.03076172
1649,-19.75,-216.25,-80.375,1.539551,0.15625,-0.6977539,-0.3007813,-0.05322266,0.04882813
1653,-38.5625,-231.5625,-78.6875,1.674805,0.121582,-0.5898438,-0.2958984,-0.05957031,0.06347656
1657,-53.6875,-231.5,-80.0625,1.954102,-0.002441406,-0.3862305,-0.2875977,-0.06835938,0.08544922
1661,-34.9375,-224.1875,-95.5,2.097168,-0.3793945,-0.2436523,-0.2758789,-0.08203125,0.105957
1665,19.625,-203.6875,-103.875,2.19043,-0.5927734,-0.07470703,-0.2685547,-0.08837891,0.1191406
1670,55.25,-188.5625,-85.875,1.907715,-0.3134766,-0.1474609,-0.2578125,-0.09570313,0.1357422
1674,33.8125,-201.5625,-59.1875,1.69043,0.1796875,-0.2397461,-0.2446289,-0.09814453,0.1518555
1678,-25.125,-216.875,-42.8125,1.585938,0.4052734,-0.378418,-0.237793,-0.09814453,0.1601563
1682,-70.0625,-233.4375,-41.75,1.601563,0.2963867,-0.3901367,-0.2246094,-0.1054688,0.175293
1686,-57.6875,-230.0625,-52,1.698242,-0.1152344,-0.3632813,-0.2089844,-0.1118164,0.1875
1690,-2.9375,-225.3125,-65.4375,1.458008,-0.1113281,-0.5864258,-0.199707,-0.1181641,0.1953125
1694,22.125,-229.25,-65.6875,1.275879,0.2265625,-0.9555664,-0.1831055,-0.1220703,0.206543
1698,6,-255.875,-63,1.035645,0.4282227,-1.255371,-0.1625977,-0.1245117,0.2172852
1702,-13.625,-285.6875,-63.125,1.395996,0.3466797,-1.182617,-0.1494141,-0.1254883,0.2241211
1706,-8.5,-285.3125,-63.375,1.709961,0.2070313,-0.9130859,-0.1259766,-0.1308594,0.2348633
1710,-2.125,-280.1875,-64.5,1.725586,0.2495117,-0.7631836,-0.1020508,-0.1308594,0.2402344
1714,-2.375,-272.375,-62.5,1.504395,0.2729492,-0.894043,-0.08886719,-0.1333008,0.2446289
1718,-1.125,-280,-61.25,1.516113,0.253418,-0.7592773,-0.06396484,-0.1333008,0.2485352
1722,4.25,-261.4375,-60.5,1.473633,0.1953125,-0.5708008,-0.04248047,-0.1318359,0.2514648
1726,12.375,-238.1875,-63.1875,1.438477,0.1367188,-0.2089844,-0.02832031,-0.1308594,0.2514648
1730,20,-201.0625,-62,1.229492,0.1137695,0.04443359,-0.01025391,-0.1293945,0.2514648
1734,13.5,-161.25,-51.4375,1.035645,0.1176758,0.105957,0.004394531,-0.1254883,0.2524414
1738,7.0625,-130.0625,-40.875,0.6362305,0.01660156,-0.1474609,0.01269531,-0.1245117,0.2524414
1742,7.3125,-119.375,-34.0625,0.4697266,0.0009765625,-0.128418,0.0234375,-0.1220703,0.2514648
1746,-11,-99.125,-21.1875,0.4853516,0.05908203,0.1289063,0.03076172,-0.1206055,0.2514648
1750,-44.1875,-65.8125,-8.625,0.574707,0.04003906,0.4174805,0.03417969,-0.1196289,0.2524414
1754,-60.125,-17.1875,-5.3125,0.5009766,-0.08789063,0.3442383,0.03808594,-0.1230469,0.2470703
1758,-49.625,10.625,-8.3125,0.2993164,-0.1967773,0.07910156,0.0390625,-0.1279297,0.2485352
1762,-26,24.25,-8.1875,0.1870117,-0.2822266,-0.1323242,0.03808594,-0.1308594,0.2485352
1766,-3,30.5625,-2.125,0.1289063,-0.2744141,-0.2670898,0.03662109,-0.1318359,0.2485352
1770,3.3125,34.1875,11.125,0.1171875,-0.1074219,-0.2978516,0.03320313,-0.1333008,0.2470703
1774,-5.0625,41.75,19.75,0.1518555,0.008789063,-0.2324219,0.03076172,-0.1318359,0.2485352
1778,-11,54.3125,27.3125,0.2915039,-0.01416016,-0.1743164,0.02832031,-0.1342773,0.25
1782,-3.8125,73.625,26.875,0.4233398,-0.09179688,-0.1015625,0.02246094,-0.1357422,0.2485352
1786,7.625,97.3125,34.5625,0.5395508,-0.1269531,-0.2631836,0.01904297,-0.1357422,0.2485352
1790,25.375,107.5,35.8125,0.3769531,-0.06835938,-0.4902344,0.01074219,-0.1342773,0.25
1794,32.4375,112.5,41.5625,0.5356445,0.02050781,-0.5551758,0.002441406,-0.1342773,0.25
1799,26.9375,118.6875,48.8125,0.59375,0.1293945,-0.4707031,-0.004394531,-0.1333008,0.25
1803,8.1875,134.8125,53.5,0.8803711,0.171875,-0.1860352,-0.01269531,-0.1318359,0.2514648
1807,-17.5,171.625,65.8125,1.279785,0.07470703,0.01367188,-0.02490234,-0.1333008,0.2514648
1811,-7.8125,205.875,76.625,0.9155273,0.008789063,-0.6899414,-0.03662109,-0.1367188,0.25
1815,23.9375,190.3125,61.8125,0.8652344,0.1020508,-0.8364258,-0.05224609,-0.1357422,0.2485352
1819,33.75,191.5,58,0.9736328,0.2495117,-0.9091797,-0.06884766,-0.1333008,0.2470703
1823,20.125,188.625,54.3125,1.209961,0.3271484,-0.59375,-0.07958984,-0.1333008,0.2485352
1827,-15.625,206.5,62.25,1.512207,0.269043,-0.2900391,-0.09472656,-0.1308594,0.2402344
1831,-30.5625,237.4375,87.4375,1.702148,0.02441406,-0.5283203,-0.112793,-0.1318359,0.237793
1835,5.875,238.375,68.8125,0.9350586,-0.006347656,-1.174805,-0.1293945,-0.1318359,0.2324219
1839,54.8125,197.1875,57.25,1.089844,-0.09960938,-1.163086,-0.1474609,-0.1269531,0.2270508
1843,87.4375,186,52.8125,1.399902,0.02441406,-0.809082,-0.1625977,-0.1166992,0.2172852
1847,82.75,187.3125,52.5,1.647949,0.1523438,-0.4746094,-0.1723633,-0.1132813,0.21875
1851,61.75,197.5625,51.5,1.822266,0.1601563,-0.2436523,-0.1865234,-0.1020508,0.2104492
1855,45,213.8125,54.5,1.984863,0.05908203,-0.1474609,-0.2021484,-0.09326172,0.2011719
1859,52.25,232.0625,45.1875,1.915039,-0.08789063,-0.2016602,-0.2104492,-0.08935547,0.1914063
1863,77.25,238.3125,34.75,1.841797,-0.2006836,-0.2822266,-0.2255859,-0.08203125,0.1791992
1867,95.8125,240.125,29.8125,1.798828,-0.1928711,-0.3398438,-0.237793,-0.07568359,0.1640625
1871,101.25,240.6875,33.9375,1.802734,-0.09179688,-0.3706055,-0.2485352,-0.07324219,0.1508789
1875,81.4375,247,43.0625,1.779785,0.06298828,-0.3862305,-0.2602539,-0.06591797,0.1303711
1879,54.6875,244.375,45.25,1.663574,0.07861328,-0.4321289,-0.2758789,-0.05712891,0.1083984
1883,33.375,239,46.75,1.612793,0.01269531,-0.4824219,-0.2827148,-0.05175781,0.09326172
1887,26.125,230.375,43.8125,1.578125,-0.08007813,-0.5283203,-0.293457,-0.04443359,0.0703125
1891,24.6875,226.1875,48.125,1.585938,-0.09179688,-0.5551758,-0.3007813,-0.03808594,0.04736328
1895,26.3125,217.75,44.0625,1.42334,-0.04882813,-0.628418,-0.3041992,-0.03320313,0.03369141
1899,23.5,203.75,37.0625,1.318359,-0.006347656,-0.6787109,-0.3081055,-0.02929688,0.01464844
1903,16.8125,185.75,34.75,1.186523,0.04003906,-0.7475586,-0.3105469,-0.0234375,-0.005371094
1907,7.25,166.0625,34.125,1.089844,0.07080078,-0.8056641,-0.3115234,-0.02050781,-0.01757813
1911,3.9375,141.5,27.5625,0.9350586,0.02441406,-0.8745117,-0.3115234,-0.01806641,-0.03271484
1915,16.1875,115.75,19.1875,0.8261719,-0.05664063,-0.8979492,-0.3105469,-0.01464844,-0.04638672
1919,33.4375,88.9375,13.125,0.7021484,-0.06445313,-0.9516602,-0.3081055,-0.01464844,-0.05566406
1923,44.3125,58.375,10.0625,0.5859375,0.03222656,-0.9633789,-0.3081055,-0.01171875,-0.06103516
1928,45.0625,25.25,6.6875,0.527832,0.06689453,-0.9287109,-0.309082,-0.01318359,-0.06787109
1932,39.8125,-5.4375,5.375,0.5200195,0.09814453,-0.8632813,-0.3066406,-0.01171875,-0.06787109
1936,30.5625,-34.125,4.1875,0.5551758,0.1176758,-0.809082,-0.3066406,-0.01171875,-0.06787109
1940,24.375,-66.4375,-1.8125,0.6015625,0.1137695,-0.7324219,-0.3081055,-0.01464844,-0.06396484
1944,16.125,-93,-3.9375,0.7412109,0.1098633,-0.6323242,-0.309082,-0.01464844,-0.05957031
1948,4.1875,-112.3125,-5.3125,0.9077148,0.15625,-0.6015625,-0.309082,-0.01464844,-0.05029297
1952,-10.25,-126.25,-16,0.9814453,0.1953125,-0.644043,-0.3105469,-0.01464844,-0.03515625
1956,-22.6875,-146.9375,-28.6875,0.9970703,0.1679688,-0.7324219,-0.3105469,-0.01708984,-0.02832031
1960,-34.625,-169.4375,-33.625,1.066406,0.1020508,-0.824707,-0.309082,-0.02050781,-0.01367188
1964,-44.25,-195.125,-34.3125,1.151855,0.06298828,-0.8745117,-0.3081055,-0.02587891,0.004882813
1968,-50.875,-222.3125,-36.75,1.302734,0.02832031,-0.84375,-0.3066406,-0.02832031,0.01708984
1972,-54.5,-242.0625,-43.75,1.500488,0.008789063,-0.7402344,-0.3041992,-0.03564453,0.04199219
1976,-55.875,-250.5,-53.6875,1.736816,-0.01806641,-0.5898438,-0.2958984,-0.04296875,0.06347656
1980,-55.4375,-251.8125,-60.9375,1.837891,-0.1074219,-0.5014648,-0.2890625,-0.046875,0.08251953
1984,-51.625,-253.9375,-61.6875,1.818359,-0.1191406,-0.5131836,-0.2758789,-0.05712891,0.1044922
1988,-48.75,-262.0625,-61.25,1.802734,-0.1074219,-0.5668945,-0.2636719,-0.06591797,0.1289063
1992,-55.5,-271.375,-53.75,1.779785,-0.08398438,-0.5864258,-0.253418,-0.06933594,0.144043
1996,-65.5625,-281,-41.1875,1.822266,-0.1113281,-0.609375,-0.2363281,-0.07324219,0.1640625
2000,-66.875,-286.9375,-31.6875,1.806641,-0.1074219,-0.6787109,-0.2211914,-0.078125,0.1845703
2004,-57,-286.0625,-34.25,1.725586,-0.002441406,-0.8901367,-0.2114258,-0.08203125,0.1943359
2008,-30.5625,-292.5,-58.5,1.52002,0.1293945,-1.236328,-0.1899414,-0.09082031,0.2080078
2012,-4.625,-311.0625,-83.625,1.403809,0.2495117,-1.475098,-0.1665039,-0.09814453,0.2211914
2016,-17.625,-345.4375,-76.875,1.670898,0.3896484,-1.38623,-0.1508789,-0.1030273,0.230957
2020,-58.5625,-363.25,-56.125,2.004395,0.3662109,-1.097656,-0.1210938,-0.1069336,0.2431641
2024,-81.8125,-356.5,-52.125,2.128418,0.1523438,-0.8476563,-0.09033203,-0.1166992,0.25
2028,-60.25,-338.875,-64.4375,2.089844,-0.08007813,-0.7133789,-0.07128906,-0.1206055,0.2539063
2032,-6.25,-305.25,-83.9375,2.054688,-0.1538086,-0.6015625,-0.04394531,-0.1245117,0.2553711
2036,27.9375,-263.75,-84.5,1.620605,0.02441406,-0.7167969,-0.01757813,-0.1245117,0.2553711
2040,35.625,-255.9375,-83.1875,1.229492,0.1757813,-0.6787109,-0.004394531,-0.1206055,0.2553711
2044,7.8125,-241.8125,-60.3125,1.0625,0.2456055,-0.5478516,0.01757813,-0.1157227,0.2553711
2048,-27.4375,-229.6875,-33.9375,0.9116211,0.1679688,-0.4360352,0.03320313,-0.1142578,0.2514648
2052,-40.875,-217,-19.0625,0.7719727,0.02441406,-0.2397461,0.04492188,-0.1142578,0.2485352
2057,-44.75,-189.3125,-4.25,0.8457031,-0.08789063,-0.1166992,0.06054688,-0.1166992,0.2460938
2061,-29.9375,-150.3125,-4.4375,0.7412109,-0.1308594,0.08251953,0.07373047,-0.1166992,0.2416992
2065,-7.5,-110.3125,-16.0625,0.5898438,-0.08789063,0.1518555,0.07958984,-0.1181641,0.2392578
2069,-1.3125,-78.75,-19.125,0.5356445,-0.02197266,0.3291016,0.08691406,-0.1181641,0.2392578
2073,-20.125,-37.3125,-7.25,0.5395508,0.0009765625,0.390625,0.09130859,-0.1181641,0.2363281
2077,-29.3125,-1.125,-3.375,0.4541016,-0.09960938,0.3095703,0.09277344,-0.1181641,0.237793
2081,-15.3125,28,-5.4375,0.2646484,-0.1616211,0.06738281,0.09130859,-0.1181641,0.2348633
2085,-0.0625,39.125,-4.5,0.125,-0.1347656,-0.03222656,0.08886719,-0.1196289,0.237793
2089,1.25,49.5,7.375,0.1713867,-0.08007813,-0.04003906,0.08789063,-0.1196289,0.237793
2093,-0.625,62.75,15.8125,0.2255859,-0.06835938,-0.05517578,0.08447266,-0.1220703,0.237793
2097,6.6875,81.8125,17.6875,0.3149414,-0.1269531,-0.1054688,0.07714844,-0.1220703,0.2402344
2101,18.1875,100.25,19.4375,0.4038086,-0.1269531,-0.1630859,0.07373047,-0.1220703,0.2392578
2105,22.5,120,26.1875,0.5317383,-0.06445313,-0.1591797,0.06542969,-0.1220703,0.2446289
2109,14.875,142.75,37,0.6791992,-0.01416016,-0.1977539,0.05810547,-0.1220703,0.2460938
2113,6.9375,165.625,45.6875,0.7836914,-0.01806641,-0.2324219,0.04882813,-0.1230469,0.2460938
2117,8.0625,194.875,54.1875,0.9541016,-0.002441406,-0.5209961,0.03662109,-0.1254883,0.2485352
2121,20.875,212.25,42.9375,0.8222656,0.09033203,-0.644043,0.01904297,-0.1269531,0.2514648
2125,8,218.0625,47.375,1.055176,0.1953125,-0.5551758,0.009277344,-0.1269531,0.2524414
2129,-22.5625,229.375,69.5625,1.322266,0.1796875,-0.4321289,-0.006835938,-0.1269531,0.2539063
2133,-39.0625,248.25,90,1.539551,0.1254883,-0.5244141,-0.02832031,-0.1318359,0.2524414
2137,-31.25,268.8125,87.5625,1.624512,0.1137695,-0.6132813,-0.04150391,-0.1333008,0.25
2141,-14.8125,281.625,89.25,1.632324,0.05908203,-0.8710938,-0.06396484,-0.1381836,0.2470703
2145,10.5625,271.5,75.3125,1.550781,0.09423828,-0.9130859,-0.09130859,-0.1357422,0.2460938
2149,19.0625,263.5,75.5,1.864746,0.07861328,-0.7939453,-0.1054688,-0.1333008,0.2431641
2153,17.4375,260.625,86.75,1.961914,0.05517578,-0.7402344,-0.1269531,-0.1308594,0.2348633
2157,25.5625,248.5625,96,1.969238,-0.002441406,-0.7441406,-0.1494141,-0.1230469,0.2280273
2161,47.3125,257.0625,96.8125,2.209961,0.04003906,-0.8325195,-0.1640625,-0.1166992,0.2226563
2165,60.375,277.25,73.3125,1.996582,0.2226563,-0.9902344,-0.184082,-0.1054688,0.2119141
2169,57.8125,279.375,55.375,1.864746,0.1835938,-1.074707,-0.2045898,-0.09960938,0.1982422
2173,46,273.125,65.75,1.888184,0.09033203,-1.070801,-0.2163086,-0.09423828,0.1860352
2177,35.625,265.1875,81.0625,1.849121,0.07080078,-1.020996,-0.2329102,-0.08935547,0.1699219
2181,30.5625,255.9375,89.375,1.73291,0.07080078,-0.9824219,-0.2519531,-0.07958984,0.1464844
2186,31.4375,252.25,90.8125,1.748535,0.06298828,-0.9438477,-0.2617188,-0.07177734,0.1328125
2190,37.1875,250.375,85.9375,1.608887,0.1254883,-1.013184,-0.2758789,-0.05957031,0.1137695
2194,40.3125,241.125,70.0625,1.426758,0.1796875,-1.078613,-0.2900391,-0.05078125,0.08789063
2198,36.875,224.875,62.9375,1.330078,0.1875,-1.086426,-0.293457,-0.04443359,0.07421875
2202,34.8125,204.875,60.125,1.124512,0.15625,-1.140137,-0.3007813,-0.03564453,0.05419922
2206,34.75,174.75,50.8125,0.9423828,0.2226563,-1.178711,-0.3041992,-0.02929688,0.03515625
2210,29.8125,145.3125,42.5625,0.8339844,0.2495117,-1.155762,-0.3081055,-0.0234375,0.02392578
2214,22.4375,118.5625,38.3125,0.7021484,0.2651367,-1.178711,-0.309082,-0.01953125,0.009277344
2218,16.5625,87.9375,31.25,0.5473633,0.2807617,-1.20166,-0.309082,-0.015625,-0.001464844
2222,14.375,54.875,20.1875,0.4580078,0.2924805,-1.20166,-0.3115234,-0.01171875,-0.00390625
2226,9.875,22.9375,9.5,0.4350586,0.300293,-1.155762,-0.3115234,-0.01318359,-0.006835938
2230,2.5,-10.125,0.8125,0.4233398,0.284668,-1.08252,-0.3125,-0.01074219,-0.009277344
2234,-2.5625,-39.875,-8.25,0.4970703,0.237793,-1.005371,-0.3125,-0.01318359,-0.009277344
2238,-4.8125,-67.25,-18.3125,0.5629883,0.1953125,-0.9091797,-0.3125,-0.01074219,-0.00390625
2242,-4.8125,-89.9375,-27.25,0.6791992,0.1523438,-0.840332,-0.3105469,-0.01464844,0.00390625
2246,-3.625,-114.9375,-36.9375,0.7412109,0.1254883,-0.8168945,-0.309082,-0.01953125,0.01074219
2250,-4.3125,-133.375,-44.875,0.9038086,0.121582,-0.7900391,-0.3066406,-0.0234375,0.02148438
2254,-8,-149.6875,-49.1875,1.02002,0.1137695,-0.7900391,-0.3041992,-0.02685547,0.03613281
2258,-14.9375,-164.1875,-53.625,1.121094,0.105957,-0.8286133,-0.3041992,-0.02929688,0.04443359
2262,-25.375,-180.25,-53.8125,1.229492,0.1137695,-0.8476563,-0.2983398,-0.03808594,0.06201172
2266,-37.75,-193,-57.5625,1.283691,0.09423828,-0.9130859,-0.2915039,-0.04589844,0.07861328
2270,-45.125,-210.9375,-59.75,1.330078,0.05126953,-0.9980469,-0.2866211,-0.04931641,0.09228516
2274,-41,-228.375,-68,1.42334,0.01269531,-1.074707,-0.2768555,-0.05810547,0.1098633
2278,-33.9375,-244.375,-71.9375,1.616699,-0.03369141,-1.020996,-0.2651367,-0.06933594,0.1313477
2282,-31,-255.625,-67.8125,1.740723,-0.08007813,-0.9941406,-0.253418,-0.07421875,0.1450195
2286,-17.6875,-271.4375,-71.5625,1.76416,-0.1269531,-1.055664,-0.237793,-0.08203125,0.1655273
2290,-4.0625,-279.6875,-67.5,1.922852,-0.1499023,-1.036133,-0.21875,-0.08544922,0.1860352
2294,6.5,-288.0625,-61.8125,1.779785,0.01269531,-1.213379,-0.2080078,-0.08935547,0.199707
2298,3.75,-310.75,-72.125,1.771973,0.15625,-1.297852,-0.1875,-0.09326172,0.2133789
2302,-25.3125,-332.375,-57.4375,1.922852,0.1835938,-1.232422,-0.1640625,-0.09716797,0.2270508
2306,-67.125,-339.3125,-28.375,2.155273,0.05126953,-1.013184,-0.1435547,-0.1030273,0.237793
2310,-99.9375,-331.875,-8.5625,2.128418,-0.04150391,-0.8515625,-0.1176758,-0.1118164,0.2446289
2315,-103,-313.25,5.1875,2.03125,-0.1538086,-0.8554688,-0.09130859,-0.1220703,0.25
2319,-51.1875,-294.0625,-27.6875,1.484863,-0.06835938,-1.30957,-0.07324219,-0.1245117,0.2524414
2323,20.8125,-299.25,-93.8125,1.268066,-0.006347656,-1.486328,-0.04736328,-0.1293945,0.2553711
2327,50.6875,-308.375,-97.375,1.353516,0.05517578,-1.274902,-0.02246094,-0.1220703,0.2592773
2331,30.125,-311.3125,-55.0625,1.39209,0.1601563,-1.005371,-0.004394531,-0.1206055,0.2592773
2335,-1.4375,-304.875,-24.6875,1.415527,0.2729492,-0.7939453,0.02001953,-0.1166992,0.2553711
2339,-25.8125,-283,-20.125,1.454102,0.2338867,-0.5209961,0.04248047,-0.1142578,0.2514648
2343,-24.375,-250.875,-31.0625,1.16748,0.1293945,-0.4013672,0.05712891,-0.1157227,0.2485352
2347,-0.5,-222,-48.0625,1.000488,0.05126953,-0.1821289,0.07617188,-0.1132813,0.2446289
2351,12.5625,-182.1875,-48.9375,0.9155273,0.07861328,-0.005371094,0.09033203,-0.1108398,0.2392578
2355,6.1875,-146.375,-44.0625,0.6210938,0.1176758,0.05957031,0.09863281,-0.1083984,0.237793
2359,-15.75,-121.75,-26.6875,0.5161133,0.06298828,0.125,0.1079102,-0.1044922,0.2324219
2363,-41.1875,-96.875,-0.5,0.4853516,-0.04541016,0.2788086,0.1176758,-0.1044922,0.230957
2367,-48.4375,-59.875,13.5625,0.559082,-0.1538086,0.3979492,0.1210938,-0.1069336,0.2270508
2371,-37.5625,-15.625,8.4375,0.5161133,-0.1459961,0.3481445,0.125,-0.109375,0.2241211
2375,-26.375,24.3125,-1,0.3769531,-0.09570313,0.2250977,0.125,-0.1118164,0.2255859
2379,-19.75,47.3125,-3.875,0.2026367,-0.08789063,-0.01660156,0.1235352,-0.1157227,0.2241211
2383,-12.8125,55.75,-5.75,0.1054688,-0.09179688,-0.1708984,0.1186523,-0.1157227,0.2241211
2387,-12.5625,58.8125,-2.25,0.1054688,-0.1347656,-0.1860352,0.1142578,-0.1181641,0.2280273
2391,-12.5625,68.625,12.5625,0.1713867,-0.2241211,-0.1630859,0.1103516,-0.1166992,0.2280273
2395,-3,81.875,27.125,0.3032227,-0.2822266,-0.2089844,0.1044922,-0.1196289,0.230957
2399,18.125,101.125,32.6875,0.4350586,-0.1967773,-0.3129883,0.09960938,-0.1206055,0.230957
2403,33.25,123.3125,28.5625,0.4892578,-0.04150391,-0.4130859,0.09521484,-0.1220703,0.2324219
2407,32.875,140,26.5625,0.4931641,0.05908203,-0.4399414,0.08691406,-0.1206055,0.237793
2411,18.3125,159.8125,33.9375,0.675293,0.04394531,-0.4208984,0.07470703,-0.1220703,0.2416992
2415,9.6875,183.5625,50.1875,0.7915039,0.01269531,-0.574707,0.06640625,-0.1230469,0.2446289
2419,15.875,208.125,54.5625,0.7680664,0.1137695,-0.8745117,0.05224609,-0.1230469,0.2470703
2423,23.4375,211.8125,40.5625,0.6362305,0.2070313,-1.074707,0.03564453,-0.1230469,0.2514648
2427,21.375,214.4375,41.625,0.8110352,0.1640625,-1.070801,0.0234375,-0.1254883,0.2514648
2431,13.625,218.0625,50.5625,0.8652344,0.1254883,-1.070801,0.006835938,-0.1269531,0.2539063
2435,7.9375,226.1875,70.75,1.047363,0.05126953,-1.094238,-0.01025391,-0.1254883,0.2568359
2439,20.125,240.0625,83.875,0.9931641,-0.06445313,-1.274902,-0.02490234,-0.1254883,0.2583008
2444,66.625,236.5,68.4375,0.6635742,0.05908203,-1.805664,-0.04589844,-0.1230469,0.2583008
2448,125.125,177.625,12.5,0.1791992,0.1137695,-2.009766,-0.06494141,-0.1166992,0.2568359
2452,136.25,125.1875,-14.875,0.5551758,0.237793,-1.617188,-0.07324219,-0.1069336,0.2553711
2456,96.5,105,7.625,1.078125,0.1914063,-1.066895,-0.08300781,-0.09814453,0.2583008
2460,36.625,112.6875,36.75,1.550781,0.203125,-0.5976563,-0.09130859,-0.08935547,0.2568359
2464,0.1875,152.8125,56.6875,1.942383,0.07080078,-0.3632813,-0.09960938,-0.08837891,0.2539063
2468,-6.1875,213.5,61.4375,1.826172,0.09814453,-0.4902344,-0.1152344,-0.08544922,0.25
2472,11.25,231.625,37.625,1.357422,0.04003906,-0.7553711,-0.1352539,-0.08056641,0.2446289
2476,27.375,229.6875,16.5,1.237305,0.02441406,-0.8515625,-0.1459961,-0.08056641,0.2392578
2480,26.1875,219.3125,15.4375,1.225586,-0.02978516,-0.7978516,-0.1650391,-0.07568359,0.2324219
2484,9.5,212.25,30.125,1.306641,-0.08789063,-0.6748047,-0.1806641,-0.06835938,0.2211914
2488,-13.6875,212.5,53.125,1.407715,0.1176758,-0.6245117,-0.1923828,-0.06835938,0.2143555
2492,-16.1875,215.8125,42.375,1.426758,-0.1113281,-0.5131836,-0.2045898,-0.06689453,0.2050781
2496,-8.625,214.25,68.5625,1.322266,-0.3637695,-0.6899414,-0.21875,-0.06835938,0.1889648
2500,56.25,201.375,66,1.237305,-0.1577148,-0.7749023,-0.2280273,-0.06445313,0.1777344
2504,55.4375,186.625,57.75,1.353516,-0.2163086,-0.7207031,-0.2426758,-0.05810547,0.1630859
2508,50.875,185.8125,60.3125,1.260254,-0.04541016,-0.7167969,-0.253418,-0.04931641,0.1479492
2512,48.625,181.25,47.1875,1.194336,0.04736328,-0.7822266,-0.2617188,-0.04052734,0.137207
2516,40.5,175.75,36.625,1.22168,0.03222656,-0.7207031,-0.2700195,-0.03564453,0.1220703
2520,29.625,174.9375,35.6875,1.182617,0.02050781,-0.7324219,-0.2792969,-0.02832031,0.105957
2524,22,165.125,34.5625,1.082031,-0.002441406,-0.7592773,-0.2851563,-0.02441406,0.09619141
2528,22.25,149.5625,29.75,1.016113,-0.04882813,-0.7709961,-0.2924805,-0.01806641,0.08105469
2532,24.0625,134.1875,26.0625,0.9853516,-0.05273438,-0.7475586,-0.2949219,-0.01464844,0.06787109
2536,25.8125,119.9375,22.4375,0.9233398,-0.01025391,-0.7553711,-0.2973633,-0.01171875,0.05957031
2540,26.75,100.75,16,0.8149414,0.008789063,-0.7939453,-0.3017578,-0.009277344,0.04736328
2544,27.4375,82.375,10.0625,0.7836914,0.05908203,-0.7939453,-0.3032227,-0.008300781,0.0390625
2548,27.375,61.75,1.125,0.6870117,0.1137695,-0.8129883,-0.3017578,-0.008300781,0.03515625
2552,24.1875,37.25,-4.8125,0.6054688,0.1367188,-0.84375,-0.3056641,-0.004394531,0.02832031
2556,18.5,9.4375,-9,0.5708008,0.1601563,-0.8632813,-0.3041992,-0.006835938,0.02539063
2560,14.6875,-13.6875,-16.25,0.6401367,0.1992188,-0.8515625,-0.3041992,-0.005859375,0.02539063
2564,8.375,-32.625,-27.5,0.6557617,0.2456055,-0.8862305,-0.3056641,-0.008300781,0.02832031
2568,-0.25,-50.75,-39.5625,0.6674805,0.2456055,-0.9248047,-0.3066406,-0.01318359,0.03222656
2573,-10.75,-74.625,-47.625,0.6948242,0.1875,-0.9438477,-0.3041992,-0.01464844,0.03613281
2577,-20.1875,-100.5625,-52.125,0.7602539,0.1445313,-0.9208984,-0.3032227,-0.02050781,0.04443359
2581,-30,-121.0625,-51.625,0.8803711,0.09423828,-0.9707031,-0.3007813,-0.02587891,0.05419922
2585,-38.0625,-139.8125,-56.4375,0.9580078,0.08251953,-1.024902,-0.2983398,-0.03076172,0.06201172
2589,-43.375,-160,-65.5625,1.027832,0.06298828,-1.15918,-0.2924805,-0.03808594,0.07714844
2593,-43.125,-191.4375,-73.1875,1.151855,-0.04882813,-1.19043,-0.2851563,-0.04589844,0.09228516
2597,-43.25,-221.6875,-65.3125,1.341797,-0.1230469,-1.163086,-0.2817383,-0.05175781,0.1044922
2601,-46.75,-246.6875,-54,1.500488,-0.1230469,-1.101563,-0.2685547,-0.06298828,0.125
2605,-52.5625,-264.3125,-49.9375,1.678711,-0.08007813,-1.036133,-0.2553711,-0.06933594,0.1450195
2609,-60.3125,-268.5625,-52,1.856934,-0.04882813,-0.9326172,-0.2436523,-0.07568359,0.1601563
2613,-69.0625,-260.9375,-52.25,1.86084,-0.04150391,-0.878418,-0.2270508,-0.08447266,0.1791992
2617,-73.1875,-261.625,-55.25,1.775879,-0.1308594,-0.8017578,-0.2089844,-0.08935547,0.1953125
2621,-69.6875,-263.8125,-45.125,1.822266,-0.2006836,-0.7055664,-0.1972656,-0.09570313,0.206543
2625,-56.375,-258.1875,-42.5,1.783691,-0.1459961,-0.6513672,-0.1748047,-0.1030273,0.21875
2629,-40.6875,-245,-46.8125,1.729004,-0.04150391,-0.6708984,-0.1582031,-0.109375,0.2270508
2633,-26.25,-234.375,-49.25,1.605469,-0.03759766,-0.7670898,-0.1450195,-0.1132813,0.2324219
2637,-9.875,-231.5,-53.3125,1.314453,0.02441406,-1.032227,-0.1259766,-0.1181641,0.2392578
2641,2.25,-248,-57.0625,1.209961,0.07080078,-1.197754,-0.1069336,-0.1220703,0.2446289
2645,6.3125,-260.5625,-52.75,1.175293,0.1137695,-1.282715,-0.09130859,-0.1220703,0.2485352
2649,0,-277.25,-53.3125,1.047363,0.171875,-1.317383,-0.06982422,-0.1206055,0.2539063
2653,-8.8125,-299.875,-38.875,1.229492,0.09814453,-1.26709,-0.04736328,-0.1206055,0.2553711
2657,-2.75,-306.375,-36.6875,1.345703,0.06298828,-1.070801,-0.02929688,-0.1220703,0.2592773
2661,5.625,-300.375,-32.6875,1.407715,0.1020508,-0.8476563,-0.003417969,-0.1206055,0.2553711
2665,9.1875,-281,-34.9375,1.26416,0.1914063,-0.7670898,0.01904297,-0.1166992,0.2553711
2669,7,-265.75,-40.9375,1.237305,0.171875,-0.4902344,0.03173828,-0.1166992,0.2539063
2673,-3.375,-225,-27.875,1.209961,0.15625,-0.2705078,0.05566406,-0.1132813,0.2524414
2677,-7.6875,-190.625,-27.9375,0.9350586,0.1098633,-0.04394531,0.06982422,-0.109375,0.2460938
2681,-6.1875,-152.875,-26,0.8803711,0.05517578,0.009765625,0.08203125,-0.1083984,0.2431641
2685,-2.5,-113.1875,-30.875,0.625,0.08642578,-0.005371094,0.09033203,-0.1083984,0.2446289
2689,-6.5,-85.6875,-27.375,0.4541016,0.1098633,-0.08984375,0.09619141,-0.1083984,0.2392578
2693,-14.625,-70.3125,-24.4375,0.2915039,0.09423828,-0.06298828,0.1010742,-0.1054688,0.2348633
2697,-26.6875,-52.9375,-12.9375,0.3457031,-0.01025391,0.06347656,0.105957,-0.1054688,0.2348633
2702,-37.875,-29.625,4.4375,0.3847656,-0.1308594,0.2402344,0.109375,-0.1069336,0.2333984
2706,-39.0625,5.0625,20,0.5239258,-0.2275391,0.2944336,0.1103516,-0.1083984,0.2294922
2710,-21,48.8125,17.3125,0.4580078,-0.1655273,0.1367188,0.1079102,-0.1142578,0.2294922
2714,1.8125,74.375,1.625,0.3188477,-0.08789063,-0.03613281,0.1035156,-0.1157227,0.2363281
2718,15.5625,88.1875,-8.8125,0.2607422,-0.04541016,-0.1245117,0.1010742,-0.1142578,0.2348633
2722,8.625,99.3125,-3,0.3925781,-0.06835938,-0.01660156,0.09375,-0.1132813,0.237793
2726,-5.5625,126.5,16.875,0.625,-0.1381836,-0.06298828,0.08544922,-0.1157227,0.237793
2730,-11.25,155.9375,27.5625,0.6518555,-0.1538086,-0.1938477,0.07958984,-0.1157227,0.2402344
2734,-4.875,180.4375,32.75,0.6635742,-0.1230469,-0.4785156,0.06787109,-0.1196289,0.2446289
2738,2.3125,186.6875,31,0.6713867,-0.06445313,-0.4902344,0.0546875,-0.1220703,0.2460938
2742,-4.375,200.625,49.75,0.9853516,-0.1191406,-0.4863281,0.04492188,-0.1254883,0.2514648
2746,-9,227,59.125,0.9350586,0.004882813,-0.7094727,0.02734375,-0.1269531,0.2524414
2750,-11.5625,229.6875,61.5625,0.9892578,-0.006347656,-0.8286133,0.009277344,-0.1318359,0.2539063
2754,-3.5625,231.125,60.1875,1.121094,-0.02587891,-0.840332,-0.003417969,-0.1342773,0.2524414
2758,-2.875,227.25,65.1875,1.376465,-0.02978516,-0.6748047,-0.0234375,-0.1342773,0.2524414
2762,-3.4375,238.4375,85.125,1.760254,-0.06054688,-0.5825195,-0.04150391,-0.1357422,0.2514648
2766,16.125,265.0625,108,1.822266,0.04736328,-0.894043,-0.05664063,-0.1342773,0.2524414
2770,52.5,270.875,68.1875,1.42334,0.2456055,-1.228516,-0.08056641,-0.1308594,0.2514648
2774,72.1875,237.375,34.5625,1.48877,0.3466797,-1.151855,-0.1010742,-0.1245117,0.2460938
2778,61.5,219.4375,11.875,1.826172,0.300293,-0.8901367,-0.1162109,-0.1181641,0.2431641
2782,38.5,237.6875,15,2.202148,0.1796875,-0.7016602,-0.1352539,-0.1132813,0.2392578
2786,19.625,274.6875,41.125,2.349121,0.03222656,-0.6669922,-0.1533203,-0.1083984,0.230957
2790,11.6875,305.0625,66,2.093262,-0.06445313,-0.9326172,-0.1708984,-0.1054688,0.2241211
2794,26.25,304.9375,77.0625,1.810547,-0.1035156,-1.251953,-0.1914063,-0.1020508,0.2089844
2798,51.1875,282.0625,75.4375,1.674805,-0.09570313,-1.305664,-0.2128906,-0.09423828,0.1914063
2802,70.625,267.375,73.5,1.698242,-0.07617188,-1.232422,-0.2280273,-0.08837891,0.1777344
2806,79.8125,261.25,71.8125,1.698242,-0.002441406,-1.217285,-0.2446289,-0.078125,0.1601563
2810,78.8125,252.625,66.375,1.616699,0.1367188,-1.217285,-0.2617188,-0.06591797,0.1381836
2814,63.625,246.5,58.5,1.550781,0.203125,-1.20166,-0.2709961,-0.05810547,0.1259766
2818,42.125,233.375,51.8125,1.341797,0.2148438,-1.205566,-0.2841797,-0.04833984,0.1044922
2822,24.125,214.5625,48.4375,1.175293,0.1523438,-1.232422,-0.2924805,-0.04199219,0.08398438
2826,14.8125,192.4375,45.5,1.008301,0.1137695,-1.248047,-0.2973633,-0.03564453,0.07177734
2831,14.25,168.25,40,0.8457031,0.05126953,-1.236328,-0.3017578,-0.03076172,0.05273438
2835,19.0625,141.5625,36.5,0.6713867,0.03613281,-1.236328,-0.3056641,-0.02685547,0.03613281
2839,24.5,112.625,30.375,0.5395508,0.06298828,-1.19043,-0.3081055,-0.02441406,0.02832031
2843,27,82.4375,24.375,0.3959961,0.1137695,-1.155762,-0.309082,-0.02050781,0.01855469
2847,24,48.9375,17.125,0.3071289,0.1914063,-1.109375,-0.309082,-0.01806641,0.01074219
2851,17.4375,18.625,8.6875,0.2954102,0.2226563,-1.047852,-0.3125,-0.01806641,0.0078125
2855,9.75,-9.75,3.25,0.3149414,0.2226563,-1.028809,-0.3115234,-0.01708984,0.009277344
2859,5.375,-35.1875,5.3125,0.3999023,0.2338867,-1.001465,-0.3105469,-0.015625,0.009277344
2863,-0.25,-60.125,-1.5,0.4506836,0.300293,-0.9941406,-0.3115234,-0.015625,0.01318359
2867,-8,-87,-17.75,0.5009766,0.3662109,-0.9785156,-0.309082,-0.01806641,0.02001953
2871,-19.125,-112.0625,-36.75,0.644043,0.3583984,-0.9746094,-0.309082,-0.01953125,0.02832031
2875,-30.625,-128.5,-50.25,0.8378906,0.2924805,-0.9863281,-0.3056641,-0.0234375,0.03759766
2879,-37.0625,-144.875,-60.75,0.9736328,0.237793,-0.9980469,-0.3032227,-0.02929688,0.04980469
2883,-45.375,-163.5,-64.25,1.101563,0.1992188,-1.001465,-0.2983398,-0.03955078,0.06640625
2887,-53.5,-179.9375,-69.3125,1.19043,0.15625,-1.013184,-0.2924805,-0.04443359,0.07421875
2891,-56.375,-199.125,-74.375,1.302734,0.1098633,-1.032227,-0.2866211,-0.05175781,0.09326172
2895,-56.625,-218.4375,-74.875,1.446289,0.06689453,-1.032227,-0.2783203,-0.06298828,0.1113281
2899,-56.0625,-232.3125,-74.8125,1.59375,0.05126953,-1.009277,-0.2709961,-0.06933594,0.125
2903,-61.1875,-238.3125,-69.375,1.725586,0.04394531,-1.066895,-0.2568359,-0.08056641,0.1396484
2907,-82.25,-235.4375,-63.6875,1.663574,0.1020508,-1.182617,-0.2402344,-0.09326172,0.1616211
2911,-109.25,-249.375,-58.375,1.550781,0.02832031,-1.382324,-0.2319336,-0.09960938,0.1723633
2915,-120.3125,-279.75,-50.375,1.616699,-0.08789063,-1.409668,-0.2128906,-0.109375,0.1875
2919,-120.25,-312.4375,-43.8125,1.76416,-0.1381836,-1.26709,-0.1938477,-0.1206055,0.2021484
2923,-114.875,-326.8125,-48.5625,2.054688,-0.1459961,-1.043945,-0.1757813,-0.1279297,0.2104492
2927,-102.9375,-314.625,-55.5625,2.283203,-0.1113281,-0.809082,-0.1533203,-0.1396484,0.2226563
2931,-83.375,-284.75,-63.25,2.26416,-0.2353516,-0.5864258,-0.1269531,-0.1508789,0.230957
2935,-44.6875,-251.75,-64.5,2.023926,-0.2509766,-0.5668945,-0.1113281,-0.1582031,0.2348633
2939,5,-233.3125,-71.5,1.709961,-0.2202148,-0.609375,-0.09130859,-0.1606445,0.2392578
2943,49.4375,-217.0625,-72.5625,1.481445,-0.04882813,-0.7016602,-0.07128906,-0.1621094,0.2416992
2947,72.25,-202.125,-71.375,1.248535,0.15625,-0.9130859,-0.05908203,-0.1582031,0.2446289
2951,81.0625,-193.875,-63.375,0.7993164,0.5175781,-1.297852,-0.04150391,-0.1508789,0.2485352
2955,53.75,-229.3125,-89.25,0.578125,0.6962891,-1.409668,-0.02246094,-0.1430664,0.2514648
2960,12.375,-251.8125,-85.3125,0.8535156,0.5605469,-1.301758,-0.01171875,-0.1396484,0.2524414
2964,-24.75,-259.6875,-77.0625,0.8959961,0.3974609,-1.086426,0.01074219,-0.1396484,0.2514648
2968,-50.1875,-260.5625,-63.1875,1.105469,0.1953125,-0.8017578,0.03417969,-0.1396484,0.2485352
2972,-65,-238.625,-57.9375,1.244629,0.05908203,-0.4785156,0.04638672,-0.1396484,0.2446289
2976,-71.125,-194.5,-53.125,1.202148,-0.006347656,-0.2978516,0.06542969,-0.1445313,0.237793
2980,-63.8125,-159.0625,-70.0625,0.7993164,-0.06835938,-0.2900391,0.07958984,-0.1445313,0.2348633
2984,-51.3125,-138.875,-81.5625,0.6362305,-0.1347656,-0.2324219,0.08691406,-0.1445313,0.230957
2988,-56.125,-126.625,-65.4375,0.5356445,-0.1655273,-0.109375,0.09765625,-0.1469727,0.2270508
2992,-67.8125,-107.8125,-35.5,0.5395508,-0.2744141,0.009765625,0.1069336,-0.1469727,0.2211914
2996,-62.4375,-81.5,-1.75,0.5239258,-0.3833008,0.05566406,0.1142578,-0.1508789,0.21875
3000,-33.3125,-52.5625,15.8125,0.4814453,-0.3676758,0.04052734,0.1186523,-0.1542969,0.2143555
3004,4.5625,-23.3125,19.3125,0.4155273,-0.1616211,0.02099609,0.1201172,-0.1557617,0.2158203
3008,24.125,-1.875,13.1875,0.3496094,0.02441406,0.07128906,0.1201172,-0.1557617,0.2119141
3012,26.125,19.9375,13.625,0.3886719,0.09423828,0.1557617,0.1210938,-0.1557617,0.2143555
3016,16.25,49.1875,26.875,0.5395508,0.04736328,0.2250977,0.1201172,-0.1557617,0.2158203
3020,11.25,94.625,45.8125,0.574707,0.1137695,0.1171875,0.1142578,-0.1542969,0.2172852
3024,11.75,126.5,51.625,0.4467773,0.1757813,-0.128418,0.105957,-0.1582031,0.2211914
3028,15.5,134.6875,45.75,0.3496094,0.2885742,-0.3325195,0.09619141,-0.1582031,0.2211914
3032,6.3125,137.125,33.25,0.4428711,0.3120117,-0.3398438,0.08789063,-0.1582031,0.2241211
3036,-14.25,152.1875,45,0.7529297,0.1914063,-0.2670898,0.07861328,-0.1606445,0.2294922
3040,-31.125,183.0625,83.5625,1.059082,0.01660156,-0.2978516,0.06542969,-0.1645508,0.2294922
3044,-27.25,220.3125,100.3125,0.8769531,0.09423828,-0.6323242,0.05224609,-0.1704102,0.2324219
3048,-3.4375,222.375,86.25,0.7993164,0.07861328,-0.8823242,0.03564453,-0.1757813,0.2333984
3052,32.3125,217.5,62.0625,0.8261719,0.08642578,-0.9633789,0.01660156,-0.1767578,0.2348633
3056,53.5625,212.9375,55.0625,1.027832,0.02832031,-0.9516602,0.004394531,-0.1767578,0.2402344
3060,70,224.125,58.6875,1.066406,0.05908203,-1.066895,-0.01171875,-0.1733398,0.2431641
3064,97.8125,240.125,56.25,1.023926,0.1757813,-1.363281,-0.03320313,-0.1669922,0.2431641
3068,127.625,256.875,8.125,0.9619141,0.3740234,-1.536621,-0.04492188,-0.1621094,0.2446289
3072,142.4375,238.4375,-41.0625,0.8881836,0.4790039,-1.520996,-0.06298828,-0.1542969,0.2470703
3076,132.125,222.25,-85.0625,1.337891,0.5878906,-1.105469,-0.08203125,-0.140625,0.25
3080,82.625,237.625,-88.8125,1.640137,0.6108398,-0.6860352,-0.09130859,-0.1357422,0.2446289
3084,2.9375,251.3125,-52.5625,1.706055,0.5913086,-0.5361328,-0.1103516,-0.1342773,0.2402344
3089,-74.9375,259.625,11.25,1.729004,0.4438477,-0.5361328,-0.1303711,-0.1367188,0.2333984
3093,-101.3125,271.875,51.875,1.535645,0.21875,-0.7939453,-0.1450195,-0.1396484,0.2241211
3097,-67.8125,257.25,53.75,1.268066,0.105957,-0.9399414,-0.1650391,-0.1420898,0.2119141
3101,-23.8125,243.875,39,1.411621,0.1523438,-0.8208008,-0.1816406,-0.1420898,0.199707
3105,-20.125,246.1875,45.4375,1.46582,0.2807617,-0.7285156,-0.1962891,-0.140625,0.1943359
3109,-42.125,238.4375,65.5,1.484863,0.3310547,-0.6821289,-0.2089844,-0.1430664,0.1762695
3113,-22,257.75,89.4375,2.027832,-0.4609375,-0.6591797,-0.2294922,-0.1420898,0.1586914
3117,-32.875,219.4375,49.125,0.9970703,0.3701172,-0.574707,-0.2402344,-0.1381836,0.1450195
3121,-39.8125,211.5,98.5625,1.779785,0.269043,-0.7939453,-0.2519531,-0.1333008,0.1274414
3125,-44.4375,196.9375,93.3125,1.430664,0.1875,-0.7861328,-0.2661133,-0.1269531,0.1083984
3129,-28.625,176.375,87,1.380371,0.171875,-0.7285156,-0.2734375,-0.1220703,0.09765625
3133,-12.875,168.375,80.875,1.399902,0.1445313,-0.6938477,-0.2817383,-0.1132813,0.08007813
3137,7.3125,166.6875,68.75,1.237305,0.09423828,-0.6938477,-0.2915039,-0.1044922,0.06787109
3141,33.4375,160.3125,57,1.0625,0.02050781,-0.7285156,-0.2924805,-0.1005859,0.05664063
3145,58.375,148,56.125,1.035645,0.01660156,-0.7631836,-0.2998047,-0.09326172,0.04199219
3149,74.9375,133.5625,56.6875,0.9155273,0.1523438,-0.8017578,-0.3032227,-0.08691406,0.02832031
3153,84,113.5625,47.75,0.8378906,0.2612305,-0.7939453,-0.3032227,-0.08300781,0.02294922
3157,85.75,98.6875,35.125,0.7719727,0.3427734,-0.7900391,-0.3081055,-0.07568359,0.01171875
3161,85.4375,83.0625,19.0625,0.690918,0.3857422,-0.8129883,-0.309082,-0.07324219,0.004882813
3165,88.5,61.125,2.25,0.5820313,0.4013672,-0.84375,-0.3115234,-0.07080078,-0.001464844
3169,87.6875,36.25,-9.5625,0.5239258,0.4165039,-0.8554688,-0.3105469,-0.06933594,-0.005371094
3173,81.9375,8.8125,-15.3125,0.4970703,0.4282227,-0.8862305,-0.3105469,-0.07177734,-0.008300781
3177,66.9375,-21.75,-15.75,0.4970703,0.4633789,-0.9360352,-0.3105469,-0.07080078,-0.006835938
3181,46.9375,-56.1875,-12.875,0.5473633,0.4750977,-0.9516602,-0.3105469,-0.07177734,-0.00390625
3185,25.125,-87.375,-13.3125,0.644043,0.5136719,-0.9594727,-0.3105469,-0.07324219,0.002441406
3189,2.625,-115.3125,-21.8125,0.7021484,0.4907227,-1.001465,-0.3081055,-0.07421875,0.009277344
3193,-7.5,-150.0625,-29.125,0.7099609,0.3310547,-1.113281,-0.3066406,-0.07714844,0.02294922
3197,-13,-181.3125,-27.9375,0.8496094,0.1835938,-1.117188,-0.3041992,-0.08056641,0.03759766
3201,-22.25,-213.75,-14.0625,0.9311523,0.1254883,-1.113281,-0.2998047,-0.08300781,0.04980469
3205,-30.5,-242.625,-7.625,1.175293,0.121582,-1.028809,-0.2915039,-0.08544922,0.06884766
3209,-39.3125,-251.875,-11.625,1.454102,0.1484375,-0.9707031,-0.2841797,-0.08837891,0.09228516
3213,-47.625,-250.8125,-24.5,1.589844,0.1523438,-0.9438477,-0.2768555,-0.09179688,0.1069336
3218,-52.5625,-251.5,-33.0625,1.644043,0.04394531,-0.9555664,-0.2636719,-0.09716797,0.1274414
3222,-51.375,-255,-38.6875,1.647949,-0.05664063,-0.9824219,-0.2470703,-0.1044922,0.1464844
3226,-39,-267.75,-36.625,1.628418,-0.1191406,-1.051758,-0.2363281,-0.109375,0.1601563
3230,-25.25,-286.5,-32.3125,1.674805,-0.09960938,-1.032227,-0.2197266,-0.1132813,0.1806641
3234,-17.6875,-296,-28.6875,1.833984,-0.002441406,-0.9360352,-0.199707,-0.1157227,0.1982422
3238,-14.0625,-290.5,-29.25,1.938477,0.06298828,-0.859375,-0.1865234,-0.1166992,0.2089844
3242,-4.5625,-274.9375,-42.8125,1.853027,0.15625,-0.9130859,-0.1650391,-0.1166992,0.2226563
3246,9.6875,-264.3125,-46.9375,1.686523,0.1679688,-1.101563,-0.1450195,-0.1220703,0.230957
3250,30.875,-268.0625,-63.875,1.310547,0.2456055,-1.351563,-0.128418,-0.1245117,0.2392578
3254,34.8125,-294.875,-60,1.337891,0.315918,-1.444336,-0.1054688,-0.1254883,0.2470703
3258,16.8125,-322,-41,1.395996,0.3701172,-1.375,-0.08056641,-0.1245117,0.2553711
3262,-16.375,-339.875,-13.9375,1.550781,0.3974609,-1.224609,-0.06152344,-0.1245117,0.2568359
3266,-46.875,-336.75,7.5,1.674805,0.3740234,-1.128418,-0.03320313,-0.1269531,0.2583008
3270,-37.5625,-329.625,-24.1875,1.388184,0.3310547,-1.182617,-0.006835938,-0.1293945,0.2607422
3274,12.6875,-339.75,-74,1.268066,0.2924805,-1.209473,0.01171875,-0.1279297,0.2553711
3278,61.5625,-354.5625,-132.6875,1.0625,0.4555664,-1.109375,0.04052734,-0.1220703,0.2514648
3282,51.4375,-356.5,-137.75,1.314453,0.4204102,-0.7861328,0.07128906,-0.1142578,0.2460938
3286,10.1875,-321.125,-77.625,1.341797,0.203125,-0.6513672,0.08789063,-0.109375,0.2402344
3290,-17.8125,-280.6875,-45.3125,1.031738,0.07470703,-0.4902344,0.1118164,-0.1020508,0.2324219
3294,-24.4375,-249.5625,-13.875,0.8999023,-0.03759766,-0.3398438,0.1293945,-0.1020508,0.2211914
3298,-19.9375,-200,9.625,0.8574219,-0.06445313,-0.1323242,0.1401367,-0.1030273,0.2158203
3302,-10.375,-153.4375,4.875,0.5551758,0.03613281,0.01367188,0.1547852,-0.1044922,0.2104492
3306,-1.8125,-117.5625,-5.1875,0.5820313,0.02050781,0.2133789,0.1630859,-0.1030273,0.2036133
3310,0.25,-70.0625,-4.625,0.5668945,0.09814453,0.2636719,0.1689453,-0.1005859,0.2011719
3314,-2,-33.375,-18.9375,0.3339844,0.2109375,0.08251953,0.1723633,-0.1020508,0.1982422
3318,-11.1875,-13.1875,-27.625,0.2255859,0.15625,-0.001464844,0.1738281,-0.09960938,0.1953125
3322,-26,4,-13.875,0.2797852,-0.03759766,0.08251953,0.1738281,-0.09960938,0.1953125
3326,-37.4375,28.75,12.0625,0.3378906,-0.1733398,0.1557617,0.1738281,-0.1020508,0.1953125
3330,-32,60,30.875,0.4736328,-0.2861328,0.1748047,0.1699219,-0.1054688,0.1967773
3334,-6.8125,94.75,30.875,0.4155273,-0.2470703,-0.001464844,0.1689453,-0.1069336,0.1982422
3338,26.375,118.25,14.875,0.3730469,-0.08398438,-0.1860352,0.1591797,-0.1108398,0.2036133
3342,40.375,133.8125,-5.125,0.3149414,0.1293945,-0.3554688,0.1533203,-0.109375,0.206543
3347,21.4375,147.0625,-0.0625,0.4697266,0.1333008,-0.3012695,0.144043,-0.1083984,0.2119141
3351,-13.0625,168,28.375,0.675293,0.02832031,-0.2592773,0.1342773,-0.1083984,0.21875
3355,-23,194.8125,57.125,0.7719727,-0.02587891,-0.5170898,0.1235352,-0.1142578,0.2226563
3359,1.375,212.75,38.625,0.5668945,0.05517578,-0.840332,0.112793,-0.1157227,0.2280273
3363,23.3125,211.8125,21.4375,0.6713867,0.1293945,-0.894043,0.09863281,-0.1181641,0.2333984
3367,14.6875,214.25,28.625,0.9423828,0.2070313,-0.8671875,0.08300781,-0.1206055,0.2416992
3371,-9.9375,236.875,65.375,1.070313,0.3271484,-1.028809,0.07226563,-0.1206055,0.2446289
3375,-28.125,242,77,0.9155273,0.4360352,-1.282715,0.05322266,-0.1254883,0.25
3379,-34.3125,250.6875,69.125,0.9462891,0.4399414,-1.447754,0.03417969,-0.1308594,0.2539063
3383,-27.5625,241.75,53.5,1.000488,0.3779297,-1.444336,0.02001953,-0.1333008,0.2553711
3387,-52,247.4375,72.75,1.345703,0.3623047,-1.224609,0,-0.1396484,0.2568359
3391,-57.5,251.5,94.875,1.357422,0.1757813,-1.305664,-0.0234375,-0.1420898,0.2568359
3395,-23.8125,257.9375,72.875,1.39209,0.1484375,-1.320801,-0.03662109,-0.1445313,0.2553711
3399,4.9375,258.5,60.625,1.52002,0.1992188,-1.26709,-0.06054688,-0.1455078,0.2514648
3403,16.3125,263.375,59.3125,1.558594,0.2924805,-1.255371,-0.08398438,-0.1420898,0.25
3407,16.625,264.6875,64.25,1.554688,0.3505859,-1.228516,-0.09863281,-0.1381836,0.2470703
3411,7.875,266.625,70.625,1.546875,0.3701172,-1.193848,-0.1220703,-0.1357422,0.2402344
3415,3.0625,267.875,76.125,1.59375,0.3081055,-1.144043,-0.1459961,-0.1308594,0.2324219
3419,2.625,268.3125,80.125,1.546875,0.2924805,-1.155762,-0.1591797,-0.1279297,0.2255859
3423,6.9375,270.5,81.625,1.578125,0.1914063,-1.101563,-0.1806641,-0.1254883,0.2104492
3427,17.8125,267.5,80.1875,1.430664,0.140625,-1.15918,-0.2006836,-0.1181641,0.1953125
3431,33.875,253.75,73.125,1.368652,0.1176758,-1.166992,-0.2172852,-0.1132813,0.1821289
3435,44.3125,244.4375,69.3125,1.291504,0.1796875,-1.205566,-0.234375,-0.1030273,0.1655273
3439,44,230.25,62.125,1.198242,0.2729492,-1.182617,-0.2509766,-0.09570313,0.1479492
3443,34.125,216.9375,60.5625,1.082031,0.2885742,-1.174805,-0.2617188,-0.08935547,0.1381836
3447,25.8125,195.5,58.75,0.9194336,0.2768555,-1.232422,-0.2724609,-0.08300781,0.1220703
3451,22.6875,170.75,53.5625,0.7797852,0.2768555,-1.248047,-0.2827148,-0.07568359,0.105957
3455,20.8125,143.125,47.5,0.6479492,0.253418,-1.224609,-0.2890625,-0.07080078,0.09765625
3459,21.625,118.125,40.3125,0.5395508,0.269043,-1.20166,-0.293457,-0.06591797,0.08251953
3463,27.0625,92.125,28.8125,0.4467773,0.284668,-1.186523,-0.2958984,-0.06054688,0.07421875
3467,31.6875,66.1875,12.8125,0.3613281,0.3583984,-1.182617,-0.2983398,-0.05810547,0.06884766
3471,32.75,38.625,-2.4375,0.2758789,0.3974609,-1.205566,-0.2998047,-0.05566406,0.06201172
3476,30.8125,7.25,-15.1875,0.2255859,0.4125977,-1.193848,-0.3007813,-0.05566406,0.06103516
3480,28.3125,-23.3125,-22.125,0.2216797,0.4165039,-1.221191,-0.3007813,-0.05712891,0.05957031
3484,21.3125,-58.75,-28.625,0.2490234,0.4790039,-1.251953,-0.3007813,-0.05712891,0.06494141
3488,4.125,-87.9375,-32.0625,0.3847656,0.5019531,-1.232422,-0.2983398,-0.06054688,0.0703125
3492,-14.8125,-115.5625,-37.3125,0.4697266,0.4399414,-1.240234,-0.2973633,-0.06445313,0.07568359
3496,-28.375,-142.9375,-40.8125,0.625,0.3349609,-1.228516,-0.2915039,-0.06689453,0.08935547
3500,-36.5625,-169.125,-43.6875,0.7099609,0.2495117,-1.255371,-0.2841797,-0.07324219,0.1030273
3504,-39.5625,-196.1875,-42.8125,0.8920898,0.1679688,-1.224609,-0.2783203,-0.078125,0.1123047
3508,-40.9375,-212,-46.125,1.008301,0.140625,-1.232422,-0.2675781,-0.08447266,0.1303711
3512,-36.8125,-228,-53.75,1.147949,0.1137695,-1.282715,-0.2543945,-0.09082031,0.1464844
3516,-35.125,-239.5625,-57.6875,1.333984,0.1679688,-1.293945,-0.2446289,-0.09716797,0.1572266
3520,-39.3125,-246.5625,-62.5625,1.330078,0.2338867,-1.413086,-0.2294922,-0.1054688,0.1762695
3524,-38.8125,-263.5625,-71,1.299316,0.1992188,-1.586426,-0.2080078,-0.1132813,0.1943359
3528,-23.25,-285.4375,-74.125,1.403809,0.1484375,-1.682617,-0.1948242,-0.1181641,0.2036133
3532,-5.625,-313.1875,-69.9375,1.531738,0.237793,-1.647949,-0.1708984,-0.1245117,0.21875
3536,-6.25,-320.0625,-74.6875,1.876465,0.4555664,-1.494141,-0.1450195,-0.1269531,0.2324219
3540,-28.5,-315.125,-78.8125,2.140137,0.5097656,-1.320801,-0.1269531,-0.1308594,0.2402344
3544,-55.75,-302.125,-82.3125,2.213379,0.4052734,-1.197754,-0.09960938,-0.1396484,0.2485352
3548,-69.9375,-285.1875,-74.4375,2.182617,0.1601563,-1.047852,-0.07568359,-0.1455078,0.2485352
3552,-56.375,-269.0625,-71.5625,1.833984,0.0009765625,-1.070801,-0.05908203,-0.1508789,0.25
3556,-17.4375,-261.125,-79.5625,1.612793,-0.07617188,-1.105469,-0.03515625,-0.1567383,0.25
3560,25.3125,-253.0625,-69.6875,1.399902,-0.01025391,-1.078613,-0.01269531,-0.1567383,0.25
3564,49.6875,-248.9375,-63.875,1.198242,0.1953125,-1.066895,0.002441406,-0.1533203,0.2485352
3568,55.375,-238.875,-58.5,0.8457031,0.5097656,-1.367188,0.02246094,-0.1479492,0.2485352
3572,47.875,-255.8125,-81.3125,0.6557617,0.7197266,-1.532715,0.04150391,-0.1420898,0.2460938
3576,29,-270.0625,-92.375,0.8300781,0.5683594,-1.367188,0.05712891,-0.1367188,0.2431641
3580,-0.5625,-276.1875,-63.625,0.9970703,0.3388672,-1.040039,0.07470703,-0.1333008,0.237793
3584,-18.75,-264.5625,-31.25,1.05127,0.237793,-0.8129883,0.09863281,-0.1293945,0.230957
3588,-14.875,-244.25,-36.375,0.9311523,0.1640625,-0.644043,0.109375,-0.1269531,0.2280273
3592,9.75,-214.8125,-44.1875,0.8183594,0.06689453,-0.5209961,0.1259766,-0.1254883,0.2172852
3596,54.8125,-195.3125,-66.125,0.644043,0.0009765625,-0.2783203,0.1391602,-0.1181641,0.2104492
3600,65.8125,-171.25,-56,0.675293,0.1640625,-0.01318359,0.1459961,-0.1118164,0.206543
3605,33.6875,-135.9375,-36.5,0.7294922,0.2807617,0.2021484,0.1582031,-0.1044922,0.2021484
3609,-14.1875,-86,-15.4375,0.6557617,0.2495117,0.3056641,0.1665039,-0.1005859,0.1982422
3613,-34.9375,-45.75,-15.3125,0.4541016,0.1137695,0.1713867,0.1699219,-0.1005859,0.1943359
3617,-31.6875,-17.6875,-14.3125,0.3847656,-0.09570313,0.1943359,0.1713867,-0.1030273,0.1943359
3621,-25.8125,4.0625,-2.8125,0.3613281,-0.1694336,0.2329102,0.1748047,-0.1030273,0.1914063
3625,-23.625,31.75,9.9375,0.4580078,-0.2124023,0.3056641,0.1723633,-0.1030273,0.1953125
3629,-17.9375,65.5,14.4375,0.3847656,-0.2006836,0.1748047,0.1699219,-0.1083984,0.1967773
3633,-2,96.5625,10.5,0.2797852,-0.1889648,-0.05908203,0.1630859,-0.109375,0.1982422
3637,8.9375,98.125,10,0.05908203,-0.03759766,-0.2900391,0.1606445,-0.109375,0.2011719
3641,4.25,104.625,22,0.3691406,-0.04882813,-0.1669922,0.1533203,-0.1108398,0.206543
3645,-13,129.5,45.9375,0.6328125,-0.07226563,-0.01318359,0.1450195,-0.1118164,0.2080078
3649,-27.3125,167.0625,72.375,0.9580078,-0.07617188,-0.01660156,0.1401367,-0.1142578,0.2133789
3653,-21,209.8125,76.0625,0.9350586,0.07470703,-0.3666992,0.1259766,-0.1245117,0.2172852
3657,-1,235.375,49.625,0.7490234,0.2807617,-0.7670898,0.1103516,-0.1293945,0.2226563
3661,9,240.3125,29.25,0.7568359,0.4052734,-0.9091797,0.09960938,-0.1308594,0.2270508
3665,-13.6875,246.25,37.4375,1.066406,0.3701172,-0.7900391,0.08300781,-0.1342773,0.2348633
3669,-44.3125,260.75,71.25,1.403809,0.2148438,-0.7246094,0.06542969,-0.1381836,0.2363281
3673,-45.75,285.25,96.8125,1.458008,0.2109375,-0.9746094,0.05078125,-0.1445313,0.2416992
3677,-7.125,300.375,68.875,1.217773,0.1992188,-1.324707,0.02832031,-0.1508789,0.2485352
3681,48.0625,292.1875,36.875,1.182617,0.21875,-1.467285,0.003417969,-0.1518555,0.25
3685,69.4375,283.8125,25.4375,1.481445,0.3232422,-1.378906,-0.01025391,-0.1479492,0.2524414
3689,56.125,285.375,37.5625,1.787598,0.3935547,-1.213379,-0.03515625,-0.1420898,0.2568359
3693,23,299.875,71.6875,2.012207,0.3544922,-1.109375,-0.05908203,-0.1367188,0.2539063
3697,3.3125,315.4375,93.125,1.918945,0.3662109,-1.244141,-0.07714844,-0.1342773,0.2539063
3701,4.125,311.625,93.0625,1.740723,0.3349609,-1.363281,-0.1044922,-0.1293945,0.2485352
3705,14.875,309.125,84.9375,1.744629,0.2924805,-1.405762,-0.1328125,-0.1269531,0.2392578
3709,23.125,307.875,82.375,1.756348,0.2109375,-1.416992,-0.1494141,-0.1220703,0.2324219
3713,27.4375,299.9375,85.375,1.76416,0.1835938,-1.394043,-0.1748047,-0.1166992,0.2211914
3717,21.125,296,97.6875,1.748535,0.203125,-1.297852,-0.199707,-0.109375,0.2050781
3721,8.1875,288.8125,102.6875,1.597656,0.300293,-1.344238,-0.2172852,-0.1020508,0.1889648
3725,-2.375,277.875,92.5625,1.558594,0.2729492,-1.363281,-0.2353516,-0.09326172,0.1699219
3729,-0.9375,267.0625,79.75,1.484863,0.1640625,-1.394043,-0.2553711,-0.08447266,0.1494141
3734,9.5625,252.625,67.6875,1.345703,0.07470703,-1.405762,-0.2651367,-0.07958984,0.1342773
3738,20.5,237.6875,59.4375,1.171387,0.01269531,-1.371094,-0.2792969,-0.07080078,0.1137695
3742,30.875,217.8125,53.9375,0.9462891,0.03613281,-1.382324,-0.2890625,-0.06298828,0.09228516
3746,37.625,191.875,47.4375,0.7641602,0.07080078,-1.336426,-0.293457,-0.05957031,0.08007813
3750,34.3125,160.25,48.75,0.6015625,0.1796875,-1.301758,-0.3007813,-0.05175781,0.06201172
3754,21.3125,127,51.4375,0.5317383,0.2416992,-1.197754,-0.3056641,-0.046875,0.04736328
3758,6,100.9375,55.8125,0.4775391,0.269043,-1.070801,-0.3066406,-0.04296875,0.04052734
3762,-0.25,72.5,53.75,0.3652344,0.2924805,-1.028809,-0.3105469,-0.03710938,0.03076172
3766,3.4375,40.25,42.5,0.3305664,0.2963867,-0.9516602,-0.3105469,-0.03173828,0.02539063
3770,12,12.625,28.25,0.3886719,0.3041992,-0.8979492,-0.3105469,-0.02929688,0.02148438
3774,19.125,-9.625,12.25,0.4038086,0.3623047,-0.894043,-0.3105469,-0.02685547,0.02294922
3778,19.9375,-28.5625,-4.3125,0.3691406,0.4321289,-0.9941406,-0.3081055,-0.02685547,0.02392578
3782,13.375,-52.375,-18.875,0.2685547,0.5332031,-1.170898,-0.309082,-0.02685547,0.02685547
3786,-2.875,-92.3125,-36.6875,0.3266602,0.5449219,-1.301758,-0.3066406,-0.02929688,0.03369141
3790,-25.125,-132.6875,-29.1875,0.543457,0.3583984,-1.236328,-0.3041992,-0.03320313,0.04736328
3794,-40.9375,-166.75,-18.1875,0.7412109,0.2299805,-1.128418,-0.3032227,-0.03564453,0.05273438
3798,-49.6875,-194,-20.5625,1.09375,0.1445313,-0.9438477,-0.2983398,-0.03955078,0.0703125
3802,-41.4375,-194,-37,1.419434,0.008789063,-0.7475586,-0.2900391,-0.04589844,0.08789063
3806,-15.0625,-184.6875,-66.5625,1.43457,0.004882813,-0.7514648,-0.2851563,-0.04833984,0.09912109
3810,14.5625,-183.4375,-93.0625,1.438477,-0.04150391,-0.8129883,-0.2768555,-0.05712891,0.1191406
3814,34.5625,-182.5625,-104,1.395996,0.02832031,-0.9633789,-0.2661133,-0.06689453,0.1313477
3818,32.5625,-193.5,-85.8125,1.450195,0.02050781,-1.032227,-0.2602539,-0.07324219,0.1425781
3822,19,-214.375,-64,1.42334,0.07080078,-1.074707,-0.2470703,-0.07958984,0.1586914
3826,2.875,-246.6875,-48.0625,1.43457,0.05126953,-1.105469,-0.2304688,-0.08300781,0.1762695
3830,-7.5625,-268.3125,-35.6875,1.768066,-0.01806641,-0.9785156,-0.2211914,-0.08544922,0.1889648
3834,-16.875,-265.75,-28.625,1.880371,0.09814453,-1.001465,-0.1982422,-0.08837891,0.2050781
3838,-29.9375,-265,-34.9375,1.849121,0.09033203,-1.051758,-0.1782227,-0.09082031,0.2202148
3842,-30.5,-266.625,-48.9375,1.775879,-0.006347656,-1.117188,-0.1665039,-0.09716797,0.2280273
3846,-16.75,-269.4375,-52.9375,1.682617,-0.1230469,-1.221191,-0.1435547,-0.1005859,0.237793
3850,4.125,-278.875,-52.6875,1.539551,-0.09960938,-1.301758,-0.1201172,-0.1044922,0.2460938
3854,13.4375,-279.75,-46.1875,1.496582,0.04394531,-1.38623,-0.1044922,-0.1054688,0.25
3858,3.125,-291.625,-34.25,1.364746,0.1679688,-1.44043,-0.07958984,-0.1054688,0.2568359
3863,-7.25,-296.3125,-31,1.399902,0.21875,-1.478516,-0.05566406,-0.1083984,0.2607422
3867,-20.5625,-293.1875,-35.0625,1.271973,0.3544922,-1.551758,-0.0390625,-0.1083984,0.262207
3871,-39.75,-312.1875,-28.625,1.310547,0.2456055,-1.501953,-0.01611328,-0.1108398,0.2592773
3875,-54.4375,-318.0625,-13.6875,1.492676,0.06298828,-1.20166,0.01074219,-0.1132813,0.2583008
3879,-59.125,-310.0625,1.5,1.450195,0.02050781,-1.051758,0.02587891,-0.1157227,0.2539063
3883,-40.625,-296.875,-3.5625,1.361328,-0.08398438,-0.8823242,0.04882813,-0.1181641,0.25
3887,-12.625,-279.3125,-2.4375,1.361328,-0.1694336,-0.559082,0.06982422,-0.1166992,0.2392578
3891,8.625,-243.375,-12.8125,1.012207,0.1020508,-0.6362305,0.08300781,-0.1166992,0.237793
3895,20.5625,-232.5625,-29.3125,0.8183594,0.09423828,-0.4555664,0.09960938,-0.1142578,0.2324219
3899,21.25,-215.8125,-18.625,0.8339844,-0.002441406,-0.1401367,0.1152344,-0.1083984,0.2255859
3903,8.125,-178.25,3.9375,0.8032227,0.0009765625,0.1328125,0.125,-0.1054688,0.2226563
3907,-4.125,-137.5,15.5625,0.6948242,-0.03759766,0.3330078,0.1357422,-0.1044922,0.2172852
3911,-3.625,-88.8125,23.3125,0.7060547,-0.08789063,0.4482422,0.1450195,-0.1044922,0.2133789
3915,6.0625,-40.625,19.375,0.6210938,-0.06445313,0.5249023,0.1459961,-0.1044922,0.2133789
3919,13.4375,3.625,1.375,0.4619141,0.1098633,0.3442383,0.1474609,-0.1044922,0.2104492
3923,12.125,33.1875,-16.875,0.3535156,0.140625,0.2290039,0.1450195,-0.1030273,0.2119141
3927,1.25,61.3125,-23.5625,0.2490234,0.1679688,0.005859375,0.1459961,-0.1030273,0.2119141
3931,-13.125,75.6875,-23.8125,0.1210938,0.08642578,-0.09765625,0.1425781,-0.1020508,0.2158203
3935,-24.875,83.4375,-9.4375,0.1791992,-0.09179688,-0.05908203,0.1357422,-0.1030273,0.2202148
3939,-26,93.6875,10.9375,0.2993164,-0.2822266,0.005859375,0.1318359,-0.1044922,0.2211914
3943,-10.125,110.625,29.5625,0.4853516,-0.3911133,0.02880859,0.1235352,-0.1083984,0.2211914
3947,17.0625,140.9375,40.125,0.7373047,-0.3364258,0.001953125,0.1152344,-0.109375,0.2270508
3951,42.8125,179.8125,35.875,0.7333984,-0.002441406,-0.3745117,0.1103516,-0.1108398,0.2280273
3955,54.8125,200.625,3.375,0.4736328,0.2963867,-0.7094727,0.09619141,-0.1083984,0.2348633
3959,38.75,198.375,-16.75,0.6015625,0.3193359,-0.6899414,0.08300781,-0.1069336,0.2402344
3963,3.625,209,-6,0.9697266,0.1254883,-0.4863281,0.07226563,-0.1069336,0.2446289
3967,-26.1875,240.125,33.875,1.407715,-0.04541016,-0.4667969,0.06054688,-0.1108398,0.2470703
3971,-34.5625,277.0625,61.4375,1.419434,-0.06445313,-0.7363281,0.0390625,-0.1166992,0.2524414
3975,-21.5625,293.25,48.875,0.9350586,0.2495117,-1.409668,0.0234375,-0.1196289,0.2539063
3979,6.5625,255.375,10.0625,0.9892578,0.04736328,-1.486328,0.0009765625,-0.1220703,0.2568359
3983,42.125,241.25,3.8125,1.558594,-0.1308594,-1.170898,-0.01757813,-0.1220703,0.2592773
3987,52.125,247.5,29.75,1.973145,-0.1538086,-0.9326172,-0.03173828,-0.1196289,0.2592773
3992,52.6875,263.5625,59.875,2.093262,-0.08398438,-0.9091797,-0.05322266,-0.1132813,0.2592773
3996,58.875,285.6875,61.625,2.070313,0.140625,-1.020996,-0.07470703,-0.1083984,0.2583008
4000,47.5,317.3125,37.5,1.736816,0.5097656,-1.401855,-0.09472656,-0.1030273,0.2539063
4004,24.25,312,0.4375,1.527832,0.3857422,-1.640137,-0.1201172,-0.09716797,0.2485352
4008,13.3125,291.75,1.125,1.663574,0.1137695,-1.547852,-0.1474609,-0.09716797,0.2416992
4012,15.1875,277.75,11.5625,1.628418,-0.07617188,-1.405762,-0.1591797,-0.09423828,0.2324219
4016,22.4375,272.125,24.1875,1.566406,-0.1616211,-1.240234,-0.1816406,-0.09179688,0.2172852
4020,33.75,266.25,36.125,1.543457,-0.2124023,-1.251953,-0.2021484,-0.08691406,0.2050781
4024,49.1875,251.3125,43.375,1.481445,-0.1113281,-1.286133,-0.2163086,-0.08300781,0.1928711
4028,56.6875,237.0625,41.0625,1.46582,0.008789063,-1.228516,-0.2329102,-0.07568359,0.175293
4032,54.125,231.0625,33.875,1.357422,0.105957,-1.221191,-0.2495117,-0.06835938,0.1572266
4036,43.125,219.0625,32.4375,1.217773,0.121582,-1.236328,-0.2578125,-0.06445313,0.1450195
4040,39.0625,199.625,32.375,1.109375,0.1367188,-1.263184,-0.2709961,-0.05712891,0.1274414
4044,35.4375,183.9375,28.75,1.039551,0.15625,-1.205566,-0.2783203,-0.05322266,0.1113281
4048,29.3125,167.4375,24.9375,0.8496094,0.203125,-1.224609,-0.2851563,-0.05078125,0.1015625
4052,24.6875,141.1875,18.3125,0.6713867,0.1679688,-1.193848,-0.2915039,-0.04589844,0.08544922
4056,25.625,119.125,16.0625,0.559082,0.15625,-1.209473,-0.2958984,-0.04296875,0.07177734
4060,23.25,90.8125,14.8125,0.4194336,0.2265625,-1.213379,-0.2998047,-0.04199219,0.06640625
4064,16.375,60.9375,12.25,0.3378906,0.2768555,-1.209473,-0.2998047,-0.04052734,0.05810547
4068,8.125,33.1875,9.1875,0.3496094,0.2807617,-1.147949,-0.3032227,-0.03710938,0.05273438
4072,0.9375,6.8125,1.625,0.2797852,0.315918,-1.15918,-0.3056641,-0.03564453,0.05126953
4076,-4.1875,-23.6875,-8.5,0.3339844,0.253418,-1.13623,-0.3056641,-0.03710938,0.05126953
4080,-5.8125,-50.0625,-14.5,0.3886719,0.2299805,-1.132324,-0.3017578,-0.03955078,0.05664063
4084,-10,-79.4375,-22.375,0.4467773,0.2265625,-1.151855,-0.3041992,-0.04052734,0.05664063
4088,-17.875,-103.8125,-27.25,0.5161133,0.2265625,-1.217285,-0.2998047,-0.04199219,0.06787109
4092,-27.75,-129.625,-32.1875,0.59375,0.2299805,-1.363281,-0.2973633,-0.04589844,0.07861328
4096,-38.375,-159.1875,-34.25,0.6713867,0.1484375,-1.467285,-0.2915039,-0.05078125,0.08789063
4100,-45,-195.875,-25.5,0.8149414,0.03613281,-1.463379,-0.2841797,-0.0546875,0.1044922
4104,-42.6875,-229.6875,-18,1.089844,-0.04150391,-1.401855,-0.2744141,-0.06054688,0.1220703
4108,-34.5,-252.0625,-17.5,1.403809,-0.02197266,-1.293945,-0.2651367,-0.06298828,0.1342773
4112,-30.25,-260.75,-24.5,1.597656,0.04736328,-1.186523,-0.2495117,-0.06689453,0.1572266
4116,-27.375,-260.5,-35.6875,1.655762,-0.01416016,-1.140137,-0.234375,-0.07324219,0.1762695
4121,-5.0625,-267.1875,-44,1.655762,-0.2124023,-1.244141,-0.222168,-0.07568359,0.1889648
4125,27.0625,-288.0625,-43.3125,1.682617,-0.2045898,-1.274902,-0.2006836,-0.078125,0.2050781
4129,40.5,-290.5,-26.25,1.876465,-0.06445313,-1.147949,-0.1782227,-0.07958984,0.2241211
4133,22,-278.0625,-10.6875,1.736816,0.1254883,-1.117188,-0.1650391,-0.07714844,0.2324219
4137,-15.3125,-276.8125,1.125,1.574219,0.2456055,-1.351563,-0.1435547,-0.078125,0.2431641
4141,-39.625,-292.0625,8.25,1.674805,0.1020508,-1.394043,-0.1201172,-0.08203125,0.2514648
4145,-51.875,-294.25,-2.3125,1.666992,0.07080078,-1.313477,-0.1020508,-0.08544922,0.2583008
4149,-62.5,-296.0625,-7.1875,1.736816,0.004882813,-1.213379,-0.07714844,-0.08935547,0.2607422
4153,-71.3125,-290.9375,-9.6875,1.841797,-0.09570313,-1.05957,-0.05078125,-0.09960938,0.2651367
4157,-76.9375,-275.0625,-0.375,1.771973,-0.1074219,-0.9438477,-0.03662109,-0.1030273,0.2636719
4161,-71.9375,-252.625,1.4375,1.426758,-0.02587891,-1.047852,-0.01269531,-0.1083984,0.262207
4165,-63,-249.5625,-25.125,1.047363,0.04394531,-1.113281,0.003417969,-0.1132813,0.2583008
4169,-48.5,-251.1875,-32.3125,1.22168,-0.1152344,-0.9594727,0.01904297,-0.1157227,0.2539063
4173,-38.25,-235.5625,-21.8125,1.244629,-0.1459961,-0.6860352,0.03564453,-0.1166992,0.2485352
4177,-31.5625,-213.5625,-2.625,1.0625,-0.06835938,-0.559082,0.0546875,-0.1157227,0.2470703
4181,-28.5,-193.375,-9.6875,0.7641602,0.09423828,-0.5629883,0.06396484,-0.1196289,0.2402344
4185,-27.875,-180,-19.75,0.6171875,0.1601563,-0.6669922,0.07714844,-0.1166992,0.2392578
4189,-29.0625,-174.5625,-33.5,0.4077148,0.2109375,-0.7939453,0.08886719,-0.1181641,0.2348633
4193,-26.4375,-177.1875,-41.3125,0.3378906,0.121582,-0.7861328,0.09863281,-0.1157227,0.2324219
4197,-22.125,-173.25,-34.3125,0.3457031,-0.01025391,-0.6591797,0.1103516,-0.1157227,0.2255859
4201,-20.25,-165.0625,-15.4375,0.4077148,-0.09570313,-0.5092773,0.1225586,-0.1142578,0.2202148
4205,-14.0625,-146.375,6.25,0.3959961,-0.02197266,-0.4936523,0.1308594,-0.1132813,0.2158203
4209,3.75,-130.1875,2.4375,0.2954102,0.1445313,-0.4824219,0.1401367,-0.1157227,0.2119141
4213,14.8125,-114.6875,-14.5,0.1518555,0.2612305,-0.4169922,0.1474609,-0.1118164,0.206543
4217,3.0625,-100.5,-12.25,0.2875977,0.2416992,-0.1166992,0.1533203,-0.1108398,0.206543
4221,-15.75,-64.125,6.3125,0.4775391,0.1640625,0.09814453,0.1606445,-0.109375,0.2036133
4225,-33,-19.6875,24.4375,0.4775391,0.04736328,0.3095703,0.1630859,-0.1132813,0.1982422
4229,-39.0625,23.6875,36.5,0.4467773,0.02441406,0.2788086,0.1630859,-0.1142578,0.1967773
4233,-25.9375,62.125,20.4375,0.3417969,0.1254883,0.01708984,0.1591797,-0.1220703,0.2011719
4237,-12.25,92.125,-3.3125,0.1713867,0.2070313,-0.2822266,0.1547852,-0.1206055,0.2011719
4241,-14.875,92.6875,-15.375,-0.03320313,0.1953125,-0.4360352,0.1499023,-0.1220703,0.2050781
4245,-25.8125,92.8125,-6.625,0.1171875,-0.02978516,-0.3168945,0.1450195,-0.1230469,0.2080078
4250,-28.0625,107.375,15.0625,0.2724609,-0.2314453,-0.2055664,0.1376953,-0.1254883,0.2089844
4254,-13.375,126.6875,29.125,0.3305664,-0.2744141,-0.3168945,0.1308594,-0.1279297,0.2119141
4258,8,141.5,33.375,0.3378906,-0.09960938,-0.4863281,0.1210938,-0.1308594,0.2158203
4262,19.3125,153.75,26.9375,0.3999023,0.07080078,-0.5825195,0.1103516,-0.1333008,0.21875
4266,18.25,163.5,20.125,0.4580078,0.07861328,-0.5898438,0.105957,-0.1333008,0.2241211
4270,12.6875,174.0625,24.0625,0.7216797,-0.05664063,-0.4477539,0.09277344,-0.1342773,0.2270508
4274,10.5,197.75,39.125,0.9736328,-0.1381836,-0.4863281,0.08203125,-0.1357422,0.2324219
4278,19.0625,215.375,55.9375,0.9580078,-0.1538086,-0.6821289,0.07226563,-0.1396484,0.2348633
4282,35.4375,218,61.8125,0.8730469,0.02441406,-0.9594727,0.0546875,-0.140625,0.2392578
4286,42.5,216.6875,53.8125,1.039551,0.08251953,-1.028809,0.03808594,-0.1420898,0.2446289
4290,61.0625,232.75,42.75,1.113281,0.1293945,-1.170898,0.02734375,-0.1396484,0.2470703
4294,66.6875,238.75,30.1875,1.233398,0.1679688,-1.094238,0.009277344,-0.1367188,0.2524414
4298,56.6875,249.1875,30.5625,1.539551,0.1445313,-0.9326172,-0.01025391,-0.1308594,0.2524414
4302,46.25,269.0625,39.5625,1.644043,0.1020508,-0.9633789,-0.0234375,-0.1279297,0.2568359
4306,41,279.125,40.1875,1.612793,0.1137695,-1.070801,-0.04589844,-0.1254883,0.2583008
4310,44.6875,284.625,40.875,1.554688,0.15625,-1.274902,-0.07128906,-0.1220703,0.2553711
4314,41.0625,281.6875,35.5625,1.52002,0.1914063,-1.328613,-0.08398438,-0.1181641,0.2539063
4318,34.75,275.125,36.75,1.539551,0.1176758,-1.301758,-0.1103516,-0.1118164,0.2485352
4322,28.4375,269.9375,45.6875,1.674805,-0.006347656,-1.221191,-0.1342773,-0.1083984,0.2402344
4326,26.8125,272.25,61.375,1.775879,-0.06835938,-1.19043,-0.1494141,-0.1044922,0.2363281
4330,29,275.8125,73.4375,1.833984,-0.07617188,-1.155762,-0.1708984,-0.09814453,0.2255859
4334,34.875,278.125,76.1875,1.740723,0.0009765625,-1.259277,-0.1948242,-0.08935547,0.2104492
4338,41.375,265.6875,70.25,1.655762,0.0009765625,-1.263184,-0.2089844,-0.08691406,0.2011719
4342,49.9375,258.4375,64.125,1.585938,0.0009765625,-1.270996,-0.2280273,-0.07714844,0.1831055
4346,57.125,246.375,60.5625,1.438477,0.04003906,-1.336426,-0.2446289,-0.06835938,0.1640625
4350,60.875,231.9375,55.25,1.310547,0.1254883,-1.320801,-0.2553711,-0.06054688,0.1508789
4354,56.9375,213.125,49.625,1.140137,0.203125,-1.340332,-0.2675781,-0.05078125,0.1328125
4358,49.75,194.0625,44.375,1.004395,0.2651367,-1.344238,-0.2783203,-0.04589844,0.1152344
4362,39.8125,172.9375,36.1875,0.8920898,0.284668,-1.320801,-0.2841797,-0.03955078,0.1015625
4366,33,151.75,26.1875,0.7641602,0.2768555,-1.26709,-0.2900391,-0.03466797,0.08691406
4370,28.625,131.5625,18.3125,0.6557617,0.2338867,-1.217285,-0.2973633,-0.02929688,0.07421875
4374,30.5,106.0625,9.25,0.4814453,0.2226563,-1.221191,-0.2983398,-0.02832031,0.06347656
4379,33.875,72.125,-4,0.2915039,0.2768555,-1.274902,-0.3007813,-0.02587891,0.05517578
4383,29.125,39.125,-15.8125,0.2797852,0.3232422,-1.244141,-0.3032227,-0.02685547,0.04980469
4387,13.5,6.875,-19.125,0.2490234,0.3310547,-1.244141,-0.3041992,-0.02832031,0.04882813
4391,-5.75,-25,-16.25,0.2758789,0.2963867,-1.251953,-0.3017578,-0.02832031,0.04882813
4395,-19.4375,-59.9375,-17.4375,0.3149414,0.2573242,-1.270996,-0.3032227,-0.03076172,0.05419922
4399,-24.625,-99.625,-23.6875,0.4272461,0.1992188,-1.240234,-0.3017578,-0.03320313,0.05957031
4403,-24.6875,-126.4375,-31.6875,0.6674805,0.1640625,-1.182617,-0.2983398,-0.03710938,0.0703125
4407,-25.3125,-147.875,-41.3125,0.7294922,0.1953125,-1.217285,-0.2949219,-0.04052734,0.08105469
4411,-25.25,-174.125,-53.125,0.8378906,0.1523438,-1.263184,-0.2900391,-0.04296875,0.09082031
4415,-25,-193.3125,-55.75,0.9775391,0.15625,-1.33252,-0.2827148,-0.05322266,0.1083984
4419,-30.9375,-219.25,-52.6875,1.109375,0.140625,-1.367188,-0.2734375,-0.05810547,0.125
4423,-37.8125,-248.25,-43.5,1.322266,0.1176758,-1.420898,-0.2636719,-0.06298828,0.137207
4427,-46.0625,-271.8125,-41.4375,1.535645,0.1367188,-1.297852,-0.2470703,-0.07080078,0.1586914
4431,-50.5,-278.5625,-43.8125,1.744629,0.1098633,-1.186523,-0.2294922,-0.07714844,0.1791992
4435,-45.75,-276.375,-59.1875,1.830078,0.08642578,-1.055664,-0.2172852,-0.08203125,0.1899414
4439,-38.125,-268.4375,-72.625,1.806641,0.04394531,-1.005371,-0.1982422,-0.09082031,0.2080078
4443,-28.0625,-266,-68.0625,1.760254,-0.04882813,-0.9091797,-0.1748047,-0.09716797,0.2211914
4447,-16.125,-265.625,-58.0625,1.666992,-0.05273438,-0.8862305,-0.1601563,-0.1020508,0.2294922
4451,-2.9375,-268.1875,-45.75,1.655762,-0.02197266,-0.8364258,-0.1376953,-0.1054688,0.2416992
4455,-0.125,-263.0625,-35.75,1.578125,0.05908203,-0.8017578,-0.1176758,-0.109375,0.2470703
4459,-4.0625,-249.5625,-43.125,1.523926,0.1953125,-0.8364258,-0.1020508,-0.1108398,0.2524414
4463,-0.8125,-230.75,-58.875,1.407715,0.1953125,-0.9399414,-0.08056641,-0.1132813,0.2553711
4467,3.625,-219.1875,-69.5,1.194336,0.1679688,-1.078613,-0.06152344,-0.1132813,0.2592773
4471,-4.9375,-215.4375,-77.375,0.7602539,0.3896484,-1.490234,-0.04589844,-0.1157227,0.2607422
4475,-17.5625,-243.8125,-82.5,0.7216797,0.1875,-1.69043,-0.02832031,-0.1166992,0.262207
4479,-23,-277.6875,-51.9375,0.9736328,0.02832031,-1.729004,-0.005859375,-0.1181641,0.2583008
4483,-25.3125,-301.375,-31.6875,1.202148,-0.05273438,-1.490234,0.01074219,-0.1206055,0.2553711
4487,-20.9375,-296.9375,-12.75,1.48877,-0.1616211,-1.113281,0.03417969,-0.1196289,0.2514648
4491,-7.75,-257.6875,-12.75,1.268066,-0.006347656,-1.063477,0.0546875,-0.1181641,0.2460938
4495,11.125,-244.3125,-32.875,0.9814453,0.1098633,-1.182617,0.06396484,-0.1181641,0.2431641
4499,18.5625,-231.6875,-41.6875,0.8032227,0.2495117,-1.259277,0.08300781,-0.1132813,0.2363281
4503,-4.5,-229.625,-33.0625,0.675293,0.3857422,-1.197754,0.09960938,-0.1108398,0.230957
4508,-49.1875,-215.5,-6.8125,0.8730469,0.2651367,-0.8554688,0.109375,-0.1083984,0.2270508
4512,-91.1875,-186.4375,15.8125,0.7915039,0.07861328,-0.5170898,0.1210938,-0.109375,0.21875
4516,-96.875,-148,24.25,0.6171875,-0.09179688,-0.4169922,0.1318359,-0.1166992,0.2104492
4520,-55.875,-126.5,6.125,0.3925781,-0.1694336,-0.2553711,0.1376953,-0.1206055,0.2080078
4524,-20.125,-106.9375,-7.875,0.2954102,-0.05273438,-0.02050781,0.1450195,-0.1230469,0.2050781
4528,-19,-87.25,5.1875,0.4658203,0.03613281,0.3520508,0.1508789,-0.1245117,0.199707
4532,-33.375,-44,20.9375,0.6171875,0.07861328,0.4868164,0.1567383,-0.1245117,0.2011719
4536,-40.625,3.875,22.0625,0.5668945,0.1293945,0.3637695,0.1591797,-0.1279297,0.1982422
4540,-35.0625,37.375,8.6875,0.2875977,0.1484375,0.08642578,0.1567383,-0.1308594,0.2011719
4544,-26.625,48,-2.625,-0.02978516,0.2070313,-0.1938477,0.1533203,-0.1333008,0.1967773
4548,-22.375,37.25,-6.875,-0.07226563,0.1176758,-0.1860352,0.1508789,-0.1333008,0.2011719
4552,-18.625,40.4375,2.3125,0.0009765625,-0.01025391,-0.1245117,0.1499023,-0.1367188,0.2050781
4556,-5.8125,45.5,13.5,0.1635742,-0.1538086,-0.03222656,0.1459961,-0.1367188,0.2036133
4560,17.875,65.5,21,0.3032227,-0.1772461,-0.05126953,0.1425781,-0.1396484,0.2021484
4564,47.3125,86.5,12.5625,0.3110352,-0.04150391,-0.2167969,0.1367188,-0.1367188,0.2050781
4568,63.5,105.9375,0.0625,0.3032227,0.105957,-0.378418,0.1333008,-0.1342773,0.2080078
4572,58.375,118.5625,-2.4375,0.3305664,0.1914063,-0.3862305,0.1269531,-0.1308594,0.2143555
4576,39.125,135.375,5.3125,0.5512695,0.1254883,-0.2978516,0.1166992,-0.1293945,0.2172852
4580,24.1875,165.4375,18.6875,0.6713867,0.07470703,-0.394043,0.1118164,-0.1293945,0.2202148
4584,25.8125,188.0625,21.875,0.7373047,0.0009765625,-0.5209961,0.09960938,-0.1279297,0.2241211
4588,31.375,212.375,18.375,0.7333984,0.06298828,-0.7514648,0.08886719,-0.1279297,0.230957
4592,29.6875,219.25,19.375,0.8652344,0.04736328,-0.7363281,0.07861328,-0.1308594,0.237793
4596,19,232.0625,37.8125,1.179199,0.0009765625,-0.6708984,0.06152344,-0.1293945,0.2392578
4600,9.0625,251,63.875,1.399902,-0.002441406,-0.7207031,0.04394531,-0.1318359,0.2470703
4604,10.4375,272.375,71.6875,1.275879,0.140625,-1.005371,0.03173828,-0.1342773,0.2485352
4608,19.9375,275.875,62.625,1.310547,0.1176758,-1.121094,0.009277344,-0.1342773,0.2524414
4612,31.8125,277.125,64.6875,1.271973,0.1367188,-1.297852,-0.01171875,-0.1333008,0.2553711
4616,46.1875,269.5,53.625,1.248535,0.1640625,-1.348145,-0.02685547,-0.1333008,0.2553711
4620,56.4375,272.5625,40.9375,1.260254,0.15625,-1.44043,-0.04833984,-0.1269531,0.2539063
4624,61.4375,269.375,32.4375,1.322266,0.1679688,-1.436523,-0.07226563,-0.1245117,0.2539063
4628,57,269.8125,30,1.500488,0.2416992,-1.348145,-0.08886719,-0.1181641,0.2524414
4632,37.5,274.4375,22.5625,1.779785,0.3623047,-1.232422,-0.1113281,-0.1118164,0.2485352
4637,10.8125,287,13.375,1.918945,0.3193359,-1.163086,-0.1328125,-0.1083984,0.2402344
4641,-6.25,292.5625,21.375,1.876465,0.1367188,-1.113281,-0.1508789,-0.1044922,0.2333984
4645,-3.6875,286.625,37.25,1.771973,0.0009765625,-1.140137,-0.1748047,-0.1030273,0.2211914
4649,21.0625,274,43.8125,1.678711,0.004882813,-1.155762,-0.1962891,-0.09960938,0.206543
4653,35.4375,265.4375,38.375,1.678711,0.1484375,-1.140137,-0.2089844,-0.09814453,0.1928711
4657,34.0625,259.8125,38.625,1.608887,0.1953125,-1.097656,-0.2280273,-0.09326172,0.1777344
4661,29.0625,251.9375,38.625,1.52002,0.203125,-1.074707,-0.2436523,-0.08691406,0.1586914
4665,24.25,243.5,40.6875,1.419434,0.2070313,-1.063477,-0.2553711,-0.08203125,0.1479492
4669,22.1875,227.25,39.4375,1.306641,0.2338867,-1.074707,-0.2700195,-0.07568359,0.1235352
4673,21.125,210.0625,35.25,1.217773,0.2416992,-1.070801,-0.2807617,-0.07177734,0.105957
4677,20.0625,191.6875,27.5,1.105469,0.2338867,-1.055664,-0.2851563,-0.06835938,0.09619141
4681,19.0625,172.875,19.3125,0.9775391,0.21875,-1.028809,-0.2915039,-0.06591797,0.07714844
4685,15.5,153.0625,15.125,0.8417969,0.203125,-1.013184,-0.2998047,-0.06201172,0.06347656
4689,9.1875,128.125,17.6875,0.7177734,0.1835938,-0.9746094,-0.2998047,-0.05957031,0.05126953
4693,2.5625,103.625,24.1875,0.6210938,0.1523438,-0.9707031,-0.3056641,-0.05810547,0.04052734
4697,1.0625,74.6875,30.6875,0.4428711,0.121582,-0.9902344,-0.3056641,-0.05712891,0.03369141
4701,5.125,44.875,30,0.3730469,0.1679688,-0.9902344,-0.3081055,-0.0546875,0.02685547
4705,10.375,18.75,21.3125,0.3496094,0.2109375,-0.9902344,-0.3081055,-0.05078125,0.02392578
4709,13.625,-7.5,12.25,0.3266602,0.2416992,-1.024902,-0.309082,-0.046875,0.02148438
4713,8.625,-39.0625,3.25,0.3574219,0.2573242,-1.032227,-0.3105469,-0.046875,0.02685547
4717,1.125,-65.875,-1.125,0.4428711,0.2265625,-0.9980469,-0.309082,-0.046875,0.02685547
4721,-3.3125,-91.875,-8.625,0.5395508,0.203125,-0.9555664,-0.3056641,-0.046875,0.03613281
4725,-3.5,-111.8125,-18.5625,0.6328125,0.1835938,-0.9594727,-0.3056641,-0.04931641,0.04296875
4729,-4.625,-133.125,-30.375,0.7138672,0.171875,-0.9902344,-0.3017578,-0.05078125,0.05517578
4733,-7.0625,-154,-33.875,0.8110352,0.1176758,-1.055664,-0.2973633,-0.0546875,0.06787109
4737,-9.375,-178.5625,-29.1875,0.8730469,0.09423828,-1.174805,-0.293457,-0.05810547,0.07861328
4741,-11.8125,-207.625,-19.5625,1.023926,0.08251953,-1.240234,-0.2875977,-0.06201172,0.09619141
4745,-15.75,-234.1875,-14.1875,1.248535,0.1020508,-1.170898,-0.2768555,-0.06298828,0.1166992
4749,-18.1875,-249.1875,-15.1875,1.473633,0.1020508,-1.078613,-0.2685547,-0.06689453,0.1303711
4753,-17,-254.3125,-21.125,1.682617,0.15625,-0.9785156,-0.2543945,-0.06933594,0.1494141
4757,-20.5625,-247.875,-25.6875,1.659668,0.1679688,-1.036133,-0.237793,-0.07421875,0.1708984
4761,-36.375,-260.5,-23.9375,1.512207,0.2109375,-1.224609,-0.2270508,-0.07568359,0.1821289
4766,-55.5625,-282.9375,-13.5,1.46582,0.1137695,-1.351563,-0.2089844,-0.08056641,0.199707
4770,-63.25,-306.6875,0.375,1.585938,0.02050781,-1.359375,-0.1875,-0.08691406,0.2143555
4774,-61.1875,-309.75,-9.5625,1.849121,0.06689453,-1.151855,-0.1708984,-0.08935547,0.2280273
4778,-49.0625,-281.875,-43.1875,1.938477,0.1137695,-1.009277,-0.1474609,-0.09814453,0.237793
4782,-33.625,-265.5625,-69.8125,1.756348,0.01269531,-0.9941406,-0.1245117,-0.1030273,0.2470703
4786,-24.4375,-256.375,-68.5625,1.492676,0.05126953,-1.147949,-0.1103516,-0.1054688,0.2514648
4790,-28.1875,-262.375,-64.1875,1.326172,0.1293945,-1.340332,-0.08642578,-0.1132813,0.2553711
4794,-41.4375,-272.4375,-54.6875,1.198242,0.203125,-1.463379,-0.06152344,-0.1166992,0.2592773
4798,-53.9375,-286.375,-49.375,1.345703,0.1176758,-1.394043,-0.04589844,-0.1196289,0.2592773
4802,-58.5,-277.25,-32.25,1.454102,0.1333008,-1.340332,-0.02099609,-0.1245117,0.2583008
4806,-64.75,-270.4375,-35.25,1.217773,0.2807617,-1.409668,0,-0.1293945,0.2539063
4810,-80.0625,-265.5,-34.3125,1.155762,0.3896484,-1.63623,0.01513672,-0.1342773,0.25
4814,-94.5625,-274.25,-35,0.8920898,0.3662109,-2.013672,0.03417969,-0.1396484,0.2470703
4818,-84.75,-332.4375,-61.9375,0.8959961,0.1796875,-1.875,0.0546875,-0.1430664,0.2363281
4822,-49.375,-350.4375,-73.8125,1.508301,-0.2509766,-1.163086,0.07128906,-0.1430664,0.230957
4826,-3.0625,-297.875,-40.6875,2.078125,-0.4492188,-0.05126953,0.09521484,-0.1430664,0.2226563
4830,10.25,-204,-24.875,1.574219,-0.05273438,0.4018555,0.112793,-0.1367188,0.2143555
4834,-4.375,-134.75,-24.6875,0.9350586,0.3271484,0.2021484,0.1201172,-0.1357422,0.2143555
4838,-31.375,-106.9375,-27.4375,0.5859375,0.4052734,0.1479492,0.128418,-0.1318359,0.2080078
4842,-56.6875,-81.6875,-23.875,0.4970703,0.171875,0.2329102,0.1342773,-0.1333008,0.2080078
4846,-72.9375,-51.25,-8.3125,0.578125,-0.09570313,0.3867188,0.1401367,-0.1357422,0.2050781
4850,-65.125,-17.6875,4.375,0.4350586,-0.340332,0.3056641,0.1416016,-0.1367188,0.2050781
4854,-34.4375,5.5625,10.875,0.3032227,-0.3442383,0.105957,0.1425781,-0.1445313,0.199707
4858,-1.3125,17.625,5.5625,0.125,-0.2006836,-0.1054688,0.1401367,-0.1455078,0.2021484
4862,19.0625,18.25,-2.625,0.06689453,-0.1152344,-0.1245117,0.1391602,-0.1455078,0.2050781
4866,27.875,26.8125,-3.5,0.1635742,-0.1152344,-0.01660156,0.1376953,-0.1430664,0.2021484
4870,28.5,46.25,6.0625,0.2451172,-0.1269531,0.005859375,0.1367188,-0.1420898,0.2036133
4874,32.3125,64.25,13.0625,0.2138672,-0.08789063,-0.07470703,0.1318359,-0.140625,0.2050781
4878,41.875,78.125,15.875,0.2529297,-0.07617188,-0.1591797,0.1269531,-0.140625,0.2089844
4882,51.125,94.4375,17.0625,0.3071289,-0.01025391,-0.2207031,0.125,-0.1367188,0.2143555
4886,51.5,112.6875,18.4375,0.4619141,0.04394531,-0.2089844,0.1176758,-0.1357422,0.2119141
4890,42.5,140.0625,24.0625,0.7021484,0.05517578,-0.1782227,0.1103516,-0.1357422,0.21875
4895,32.5625,173,30,0.7568359,0.04003906,-0.34375,0.1020508,-0.1367188,0.2211914
4899,32.4375,194.8125,39.625,0.8881836,-0.02978516,-0.4863281,0.09130859,-0.1342773,0.2255859
4903,39.0625,221.25,46.5625,0.7255859,0.1679688,-0.8823242,0.07617188,-0.1367188,0.230957
4907,41.625,213.25,39.5,0.7490234,0.1835938,-0.9326172,0.06787109,-0.1367188,0.2348633
4911,38.1875,221,41.9375,1.078125,0.1333008,-0.8286133,0.04980469,-0.1357422,0.2416992
4915,30.0625,233.75,50.4375,1.326172,0.05126953,-0.7441406,0.03417969,-0.1367188,0.2460938
4919,26.9375,254.125,66.625,1.644043,0.03222656,-0.7285156,0.0234375,-0.1367188,0.2485352
4923,35.25,279.375,68.5,1.550781,0.1367188,-0.9980469,0.003417969,-0.1342773,0.2514648
4927,45.6875,276.125,52.9375,1.407715,0.2148438,-1.213379,-0.02001953,-0.1342773,0.2553711
4931,55.5625,269.625,30.8125,1.535645,0.2265625,-1.193848,-0.03515625,-0.1308594,0.2553711
4935,49.875,265.0625,13.75,1.570313,0.2109375,-1.163086,-0.05810547,-0.1254883,0.2553711
4939,34.9375,263.5625,4.875,1.768066,0.1254883,-1.047852,-0.07958984,-0.1220703,0.2568359
4943,26.25,277.75,6.3125,2.046875,-0.01025391,-0.9980469,-0.09619141,-0.1196289,0.2524414
4947,26.5625,297.1875,21.3125,2.256348,-0.1035156,-1.028809,-0.1201172,-0.1157227,0.2460938
4951,30.1875,317.875,37.875,2.163086,-0.08007813,-1.151855,-0.1435547,-0.1118164,0.2363281
4955,41.5625,321.375,49.5625,2.042969,-0.08789063,-1.286133,-0.1601563,-0.1069336,0.2294922
4959,50.1875,317.625,57.9375,1.942383,0.04736328,-1.371094,-0.1889648,-0.1005859,0.2104492
4963,44.8125,312.375,64.375,1.895996,0.171875,-1.432617,-0.2128906,-0.09179688,0.1953125
4967,33.9375,301.625,66.0625,1.814453,0.2265625,-1.459473,-0.2270508,-0.08691406,0.1806641
4971,23.6875,289.3125,69.9375,1.752441,0.1992188,-1.467285,-0.2470703,-0.078125,0.1586914
4975,20,275.625,78.5625,1.59375,0.1796875,-1.501953,-0.2675781,-0.06933594,0.1357422
4979,21,258.4375,77.3125,1.411621,0.2495117,-1.536621,-0.2758789,-0.06201172,0.1181641
4983,22.125,236.625,71.125,1.194336,0.3081055,-1.536621,-0.2866211,-0.05566406,0.09619141
4987,20.5,216.625,64.625,1.012207,0.3740234,-1.524902,-0.2958984,-0.04833984,0.07714844
4991,16.125,184.625,52.4375,0.7021484,0.4204102,-1.494141,-0.3007813,-0.04296875,0.06494141
4995,13.75,153.0625,40.75,0.578125,0.3779297,-1.38623,-0.3056641,-0.03564453,0.04443359
4999,11.9375,129.8125,31.0625,0.4931641,0.3544922,-1.251953,-0.309082,-0.03466797,0.03076172
5003,8.125,108.375,21.875,0.3496094,0.3193359,-1.155762,-0.309082,-0.03076172,0.02539063
5007,1.8125,84.1875,16.25,0.2915039,0.2456055,-1.028809,-0.3105469,-0.02832031,0.01611328
5011,-3.9375,59.875,15.5625,0.2412109,0.1875,-0.9438477,-0.3105469,-0.02685547,0.004882813
5015,-1.6875,16.75,5.5625,0.1171875,0.1484375,-0.8710938,-0.3105469,-0.02685547,0.00390625
5019,11.5,-23.25,-8.25,0.2646484,0.08642578,-0.8017578,-0.3115234,-0.02587891,0.002441406
5024,28.25,-53.9375,-19.9375,0.4350586,0.07080078,-0.6591797,-0.3115234,-0.02441406,0.006347656
5028,36,-66.625,-24.5,0.7060547,0.1523438,-0.5361328,-0.3105469,-0.02587891,0.01074219
5032,27.875,-76.875,-34.75,0.7490234,0.269043,-0.5786133,-0.3105469,-0.02929688,0.01708984
5036,14.25,-92.8125,-48.125,0.7836914,0.3193359,-0.6401367,-0.309082,-0.03320313,0.02539063
5040,-0.5625,-110.625,-58.4375,0.8222656,0.2963867,-0.7475586,-0.3081055,-0.03808594,0.03222656
5044,-10.875,-132.375,-59.875,0.8730469,0.2109375,-0.824707,-0.3056641,-0.04296875,0.04296875
5048,-17.8125,-153.75,-54.375,0.9697266,0.1601563,-0.8671875,-0.3017578,-0.05078125,0.05664063
5052,-24.9375,-171.125,-47.0625,1.023926,0.1254883,-0.9248047,-0.2983398,-0.05566406,0.06640625
5056,-27.625,-188.875,-46.9375,1.175293,0.15625,-0.9287109,-0.2924805,-0.06201172,0.08398438
5060,-29.875,-201.875,-57.5625,1.299316,0.1992188,-0.9326172,-0.2817383,-0.06835938,0.1030273
5064,-33.5,-215.75,-62.4375,1.411621,0.1640625,-0.9555664,-0.2768555,-0.07324219,0.1137695
5068,-34.625,-226.5625,-61,1.48877,0.1176758,-0.9633789,-0.2636719,-0.08056641,0.1328125
5072,-34.0625,-240.625,-57.25,1.481445,0.07470703,-1.01709,-0.2519531,-0.08837891,0.1518555
5076,-32.25,-260.5625,-46.3125,1.550781,0.02832031,-1.047852,-0.2387695,-0.09179688,0.1640625
5080,-29.3125,-269.0625,-43.6875,1.752441,0.1020508,-1.020996,-0.222168,-0.09960938,0.1821289
5084,-29.4375,-263.0625,-48.875,1.826172,0.140625,-1.009277,-0.203125,-0.1030273,0.199707
5088,-28.375,-257.25,-55.0625,1.768066,0.1875,-1.009277,-0.1914063,-0.1083984,0.2104492
5092,-24.9375,-254.375,-67.1875,1.72168,0.1953125,-1.001465,-0.168457,-0.1142578,0.2211914
5096,-26.25,-255.0625,-69.4375,1.698242,0.1757813,-0.9399414,-0.1474609,-0.1196289,0.2324219
5100,-34.5625,-253.375,-55.9375,1.686523,0.09423828,-0.8823242,-0.1342773,-0.1230469,0.237793
5104,-40.6875,-246.9375,-39.1875,1.612793,0.105957,-0.8901367,-0.1113281,-0.1308594,0.2431641
5108,-43.125,-238.4375,-36.5625,1.574219,0.140625,-0.8325195,-0.09033203,-0.1342773,0.25
5112,-40,-223.5,-43.0625,1.516113,0.1953125,-0.7978516,-0.07714844,-0.1381836,0.25
5116,-34.9375,-208.75,-55.3125,1.388184,0.2070313,-0.8129883,-0.05810547,-0.1420898,0.2524414
5120,-27.5625,-191.0625,-63.0625,1.101563,0.2226563,-0.9555664,-0.04248047,-0.1469727,0.25
5124,-15.3125,-178.8125,-88.5,0.5551758,0.3779297,-1.501953,-0.03076172,-0.1479492,0.25
5128,1.875,-230.75,-107.3125,0.4194336,0.1293945,-1.686523,-0.01513672,-0.1479492,0.2470703
5132,4.6875,-270.8125,-62.9375,0.8535156,0.1098633,-1.478516,0.008300781,-0.1469727,0.25
5136,-0.625,-283.6875,-46.375,0.8457031,0.21875,-1.394043,0.02246094,-0.1455078,0.2470703
5140,-6.9375,-298.3125,-28.4375,1.163574,0.1445313,-1.128418,0.04638672,-0.1430664,0.2402344
5144,6.3125,-280.25,-23.6875,1.206055,0.1875,-0.8979492,0.06298828,-0.140625,0.2348633
5148,35.9375,-261.8125,-57.6875,0.9116211,0.4555664,-0.8710938,0.07470703,-0.1367188,0.230957
5153,46,-249.5625,-85.3125,0.8496094,0.5566406,-0.7133789,0.09521484,-0.1308594,0.2270508
5157,27.6875,-224.5625,-78.625,0.7490234,0.5449219,-0.5439453,0.112793,-0.1220703,0.21875
5161,-9.0625,-194.4375,-54.125,0.6401367,0.5332031,-0.5478516,0.1210938,-0.1196289,0.2158203
5165,-46.25,-177.9375,-28,0.5395508,0.2573242,-0.3129883,0.1357422,-0.1181641,0.2089844
5169,-64.25,-152,0.5,0.5200195,-0.03369141,-0.1362305,0.1450195,-0.1196289,0.2021484
5173,-52.5625,-126.5,22.0625,0.5239258,-0.2705078,0.1098633,0.1533203,-0.1220703,0.1982422
5177,-28,-91.625,37.75,0.7099609,-0.387207,0.3979492,0.1591797,-0.1254883,0.1943359
5181,-5.625,-34.4375,49.1875,0.7915039,-0.2822266,0.5019531,0.1630859,-0.1279297,0.1914063
5185,5.625,31.5625,41.8125,0.7641602,-0.02587891,0.4404297,0.1630859,-0.1318359,0.1889648
5189,3.625,91,26.625,0.4389648,0.2651367,0.06347656,0.1591797,-0.1318359,0.1943359
5193,-15.1875,94.5625,8.5625,-0.01416016,0.4985352,-0.2475586,0.1533203,-0.1357422,0.199707
5197,-46.5625,84.3125,-3.625,0.05126953,0.3271484,-0.1938477,0.1484375,-0.1342773,0.199707
5201,-77.625,92.4375,16.6875,0.1870117,0.01660156,-0.07080078,0.144043,-0.1396484,0.2021484
5205,-89.75,102.9375,51.8125,0.3378906,-0.2587891,-0.02050781,0.1357422,-0.1479492,0.199707
5209,-76.125,120.25,85.8125,0.4619141,-0.355957,-0.09765625,0.1293945,-0.1533203,0.2036133
5213,-35.5625,136.375,89.6875,0.3730469,-0.2548828,-0.3515625,0.1186523,-0.1645508,0.2036133
5217,16.6875,140.125,75,0.4736328,-0.1152344,-0.4282227,0.1079102,-0.1679688,0.206543
5221,52.8125,153.125,54.875,0.7373047,0.02050781,-0.3129883,0.1010742,-0.1694336,0.2104492
5225,58.375,179.8125,56,1.128418,0.05517578,-0.1938477,0.09130859,-0.1694336,0.2143555
5229,43.75,217.0625,86.5625,1.426758,0.02832031,-0.2436523,0.07470703,-0.1704102,0.21875
5233,51.5,258.5,92.25,1.194336,0.2109375,-0.7514648,0.06542969,-0.1733398,0.2241211
5237,70.6875,265,74.375,1.13623,0.203125,-0.9360352,0.04492188,-0.1704102,0.2324219
5241,73.625,274.375,80.9375,1.407715,0.15625,-0.8862305,0.02587891,-0.1679688,0.2392578
5245,60.5,290.625,104.75,1.605469,0.1098633,-0.8671875,0.01269531,-0.1655273,0.2416992
5249,50.1875,289.6875,134,1.694336,0.09814453,-0.9516602,-0.01269531,-0.1621094,0.2460938
5253,58.125,288.375,149.4375,1.895996,0.1523438,-1.032227,-0.04150391,-0.1567383,0.2470703
5257,67,294.75,132.375,1.868652,0.3388672,-1.213379,-0.05810547,-0.1533203,0.2485352
5261,68.75,299.5625,113.3125,1.872559,0.3701172,-1.375,-0.08544922,-0.1430664,0.2460938
5265,63.75,295.4375,99.5625,1.810547,0.2963867,-1.394043,-0.112793,-0.1318359,0.2431641
5269,50.3125,292.375,106,1.911133,0.1914063,-1.394043,-0.1318359,-0.1269531,0.2363281
5273,39.5,290.25,118.25,1.89209,0.1484375,-1.424805,-0.1542969,-0.1142578,0.2280273
5277,33.5625,288.1875,123.3125,1.864746,0.1367188,-1.498047,-0.1806641,-0.1069336,0.21875
