Packet number,Gyroscope X (deg/s),Gyroscope Y (deg/s),Gyroscope Z (deg/s),Accelerometer X (g),Accelerometer Y (g),Accelerometer Z (g),Magnetometer X (G),Magnetometer Y (G),Magnetometer Z (G)
2,-52.4375,-23.3125,-22,0.1484375,-1.094238,0.2402344,-0.03320313,0.2651367,0.03076172
6,-50.0625,-17,-18.625,0.1445313,-1.15625,0.3251953,-0.03515625,0.2651367,0.03613281
10,-43.3125,-12.25,-16,0.1445313,-1.199219,0.3945313,-0.03515625,0.2612305,0.04296875
14,-34.4375,-7.125,-11.6875,0.1289063,-1.152344,0.4057617,-0.03759766,0.2612305,0.04736328
18,-28.375,-7.3125,-10.625,0.1015625,-1.086426,0.3710938,-0.0390625,0.2587891,0.04882813
22,-22.25,-9.375,-10.8125,0.1132813,-1.086426,0.3828125,-0.03759766,0.2573242,0.04980469
26,-15.125,-6.25,-8.5,0.1367188,-1.05127,0.390625,-0.04150391,0.2573242,0.05419922
30,-10.875,-2.25,-7.25,0.1518555,-1.032227,0.3598633,-0.04003906,0.2563477,0.05419922
34,-4.5625,2.0625,-6.5625,0.1445313,-1.070801,0.355957,-0.04003906,0.2587891,0.05419922
38,4.625,7.4375,-2.8125,0.1289063,-1.074707,0.3330078,-0.04248047,0.2563477,0.05517578
42,9.3125,8.5,-2.75,0.1054688,-1.016602,0.2709961,-0.04150391,0.2573242,0.05517578
46,13.0625,8.4375,-3.3125,0.1054688,-1.024414,0.2133789,-0.04248047,0.2573242,0.05273438
50,15.4375,10.125,-0.9375,0.09765625,-1.036133,0.1713867,-0.04150391,0.2573242,0.05273438
54,16.3125,11.25,2.3125,0.1015625,-1.000977,0.09033203,-0.04248047,0.2587891,0.04882813
58,13.8125,11.3125,4.5625,0.1015625,-1.012695,-0.001464844,-0.04248047,0.2573242,0.04882813
62,8.5625,10.875,9.5625,0.1484375,-1.059082,-0.1474609,-0.04150391,0.2587891,0.04736328
66,2.8125,11.625,13.375,0.2138672,-0.9970703,-0.3398438,-0.04150391,0.2587891,0.04736328
70,-9.25,12.4375,9.25,0.2836914,-0.9428711,-0.5053711,-0.04150391,0.2597656,0.04736328
74,-23.3125,9.375,-1.625,0.2724609,-0.8417969,-0.6708984,-0.04150391,0.2612305,0.04736328
78,-43.1875,3.4375,-15.4375,0.2836914,-0.7988281,-0.7978516,-0.04248047,0.2573242,0.04882813
82,-64.75,-0.5625,-25.625,0.2758789,-0.7680664,-0.9360352,-0.04248047,0.2573242,0.05419922
87,-94,-8.125,-31.0625,0.2177734,-0.7988281,-1.01709,-0.04394531,0.2563477,0.05957031
91,-119.5625,-14.125,-27.5,0.1870117,-0.8647461,-1.01709,-0.04736328,0.25,0.0703125
95,-147.3125,-20.0625,-20.625,0.1635742,-0.9272461,-0.9941406,-0.04980469,0.2475586,0.08251953
99,-165.1875,-25,-17,0.190918,-1.043945,-0.9594727,-0.04980469,0.2412109,0.09228516
103,-178.625,-33.625,-18.625,0.2104492,-1.074707,-0.9746094,-0.04980469,0.2338867,0.1069336
107,-191.1875,-43.375,-23.625,0.2333984,-1.036133,-1.101563,-0.05224609,0.2250977,0.125
111,-207.3125,-50.375,-24.5625,0.3266602,-1.070801,-1.263184,-0.05078125,0.2172852,0.1357422
115,-232.0625,-38.875,-22.625,0.4155273,-0.9467773,-1.413086,-0.05078125,0.2036133,0.1547852
119,-271.375,-11.75,-4.75,0.2915039,-1.102051,-1.501953,-0.05078125,0.1875,0.1738281
123,-306.25,7.75,20.9375,-0.04882813,-1.374023,-1.590332,-0.05078125,0.1762695,0.1875
127,-310.0625,-12,12.375,-0.3125,-1.71582,-1.524902,-0.05078125,0.1538086,0.2050781
131,-306,-62.8125,1.9375,-0.4130859,-1.976074,-1.367188,-0.04589844,0.1289063,0.2202148
135,-301.5625,-111.875,13.1875,-0.2773438,-2.162598,-1.151855,-0.04248047,0.1113281,0.230957
139,-303,-145,34.3125,-0.01806641,-2.20166,-0.9052734,-0.03417969,0.08740234,0.2460938
143,-296.6875,-149.125,49.1875,0.3032227,-2.120117,-0.6513672,-0.02001953,0.06005859,0.2539063
147,-288.5625,-131.625,59.875,0.4853516,-2.015137,-0.4594727,-0.01269531,0.04492188,0.2607422
151,-266.375,-102.1875,58.625,0.5708008,-1.840332,-0.2861328,-0.0009765625,0.01611328,0.2651367
155,-235.8125,-72.3125,44.875,0.6132813,-1.45166,-0.3286133,0.008300781,-0.004394531,0.269043
159,-223.4375,-39,25.0625,0.644043,-1.047363,-0.5400391,0.01171875,-0.01806641,0.2705078
163,-222.9375,-2.25,-0.75,0.5395508,-0.7719727,-0.6938477,0.01660156,-0.03808594,0.269043
167,-227.75,27.25,0.75,0.1635742,-0.9506836,-0.6245117,0.01660156,-0.05712891,0.2675781
171,-218.3125,33.1875,19.625,-0.2192383,-0.9580078,-0.5786133,0.01513672,-0.06835938,0.2636719
175,-196.5625,4.5,24.8125,-0.4482422,-0.9814453,-0.4936523,0.01171875,-0.08691406,0.2636719
179,-161.75,-45.5,9.75,-0.4633789,-0.8457031,-0.4169922,0.01513672,-0.1005859,0.2583008
183,-127.1875,-84.0625,4.625,-0.2080078,-0.7250977,-0.3168945,0.01904297,-0.1083984,0.2568359
187,-107.6875,-89.8125,6.8125,0.09765625,-0.7055664,-0.109375,0.02832031,-0.1157227,0.2553711
191,-76.625,-54.125,19.1875,0.3305664,-0.6748047,0.09033203,0.03564453,-0.1254883,0.2514648
195,-47.6875,-7.375,24.25,0.3808594,-0.5737305,0.1098633,0.03564453,-0.1269531,0.25
199,-13.5625,24.875,13.3125,0.2412109,-0.3911133,-0.08203125,0.03662109,-0.1293945,0.2514648
203,9.75,33.875,4.9375,0.04345703,-0.3173828,-0.2016602,0.03564453,-0.1293945,0.2485352
207,27.0625,26.25,4.875,-0.09130859,-0.1928711,-0.324707,0.03173828,-0.1293945,0.25
211,32.8125,10.875,0.3125,-0.09912109,-0.09570313,-0.4013672,0.03076172,-0.1254883,0.2514648
216,38.375,7,0.875,-0.01025391,-0.2006836,-0.3632813,0.03173828,-0.1245117,0.2524414
220,47.3125,14.0625,3.4375,0.05126953,-0.1811523,-0.4282227,0.02832031,-0.1230469,0.2539063
224,50.125,25.25,4.625,0.04736328,-0.2241211,-0.378418,0.02734375,-0.1196289,0.2539063
228,60.375,35.875,7.5,0.04345703,-0.371582,-0.3168945,0.0234375,-0.1142578,0.2568359
232,77.8125,43.375,10.25,0.03955078,-0.5073242,-0.1821289,0.02148438,-0.1108398,0.2568359
236,107.9375,52.9375,9.5625,0.1635742,-0.6513672,-0.2055664,0.01660156,-0.1044922,0.2583008
240,131.625,72.0625,5.1875,0.2954102,-0.5463867,-0.3398438,0.01074219,-0.09570313,0.262207
244,144.4375,100.3125,6.0625,0.3574219,-0.6240234,-0.4555664,0.005859375,-0.08837891,0.2636719
248,153.6875,125.4375,9.125,0.2836914,-0.7172852,-0.4785156,-0.005859375,-0.07714844,0.262207
252,174,128.3125,11.125,0.1132813,-0.9467773,-0.6323242,-0.01757813,-0.06201172,0.2661133
256,194.875,120.0625,13.0625,0.1367188,-0.6938477,-0.9326172,-0.02490234,-0.05322266,0.2675781
260,185.9375,111.25,9.75,-0.002441406,-0.6669922,-1.070801,-0.03759766,-0.03564453,0.2661133
264,189,72,6.5,-0.3510742,-1.008789,-1.066895,-0.04589844,-0.02050781,0.2636719
268,212.0625,2.125,3.1875,-0.5371094,-1.199219,-1.032227,-0.05078125,-0.008300781,0.2651367
272,231.75,-48.6875,12.875,-0.3393555,-1.207031,-1.005371,-0.04736328,0.008789063,0.262207
276,234.0625,-65.125,17.875,0.07861328,-0.7680664,-1.19043,-0.04248047,0.03027344,0.2607422
280,200.5625,-49.8125,17.1875,0.3496094,-0.9038086,-0.9438477,-0.03759766,0.04394531,0.2568359
284,190.8125,-11.6875,33.6875,0.3925781,-1.276855,-0.7016602,-0.03515625,0.0625,0.2514648
288,197.8125,15.6875,31.8125,0.2758789,-1.428223,-0.5400391,-0.03417969,0.07861328,0.2470703
292,215.125,24.4375,31.1875,0.159668,-1.455566,-0.6630859,-0.03173828,0.09130859,0.2402344
296,218.5625,18.625,24.4375,0.1518555,-1.1875,-0.8554688,-0.03417969,0.1088867,0.2324219
300,207.6875,15,14.375,0.1445313,-1.164063,-0.8979492,-0.03076172,0.1289063,0.2211914
304,197,13.0625,14.125,0.1015625,-1.245605,-0.7861328,-0.03320313,0.1401367,0.2143555
308,191.9375,17.9375,22,0.109375,-1.459473,-0.574707,-0.03173828,0.15625,0.206543
312,194.875,30.5625,31.5,0.09033203,-1.533203,-0.4282227,-0.03076172,0.1689453,0.1967773
316,199.4375,41.8125,40.625,0.05126953,-1.568359,-0.3632813,-0.02929688,0.1772461,0.1875
320,202.375,45.25,47.375,-0.01416016,-1.541016,-0.4248047,-0.02929688,0.1923828,0.1738281
324,201.6875,37.375,51.6875,-0.08398438,-1.501953,-0.4785156,-0.02929688,0.2050781,0.1572266
328,201.875,25.1875,61,-0.09912109,-1.498535,-0.5092773,-0.02832031,0.2114258,0.1479492
332,196.125,10.1875,64,-0.1030273,-1.350586,-0.5170898,-0.02490234,0.2250977,0.1289063
336,188.5625,1.625,64.875,-0.03320313,-1.358398,-0.4360352,-0.02001953,0.2338867,0.1123047
340,188.9375,4.1875,65,0.04345703,-1.408691,-0.3862305,-0.01513672,0.2397461,0.09912109
345,185.5,11.25,61.375,0.09375,-1.300293,-0.394043,-0.01025391,0.2485352,0.08007813
349,174.375,22.25,62.3125,0.1015625,-1.269043,-0.4013672,-0.003417969,0.2548828,0.06347656
353,164.625,27.9375,65,0.05126953,-1.199219,-0.4707031,0,0.2573242,0.05273438
357,151.0625,17.5,58.0625,-0.02587891,-1.074707,-0.5629883,0.006835938,0.2636719,0.03613281
361,139.4375,3,53.1875,-0.02197266,-1.08252,-0.5864258,0.01269531,0.2651367,0.02294922
365,126.6875,-7.9375,50.5625,0.02441406,-0.9541016,-0.628418,0.01660156,0.2675781,0.01171875
369,107.9375,-14.3125,44.3125,0.1054688,-0.8457031,-0.6630859,0.02148438,0.2675781,0
373,86.0625,-15,37.125,0.1674805,-0.7832031,-0.6787109,0.02587891,0.2685547,-0.008300781
377,62.8125,-15.25,30.5,0.1831055,-0.7524414,-0.6899414,0.02978516,0.2700195,-0.01464844
381,45.6875,-15.75,22.6875,0.2104492,-0.7172852,-0.7285156,0.03173828,0.2700195,-0.02050781
385,23.25,-18.5,9.1875,0.2529297,-0.5385742,-0.8017578,0.03173828,0.2685547,-0.02441406
389,-5.0625,-20.9375,-6.6875,0.2875977,-0.5112305,-0.8515625,0.03564453,0.2700195,-0.02587891
393,-36.1875,-21.6875,-19.4375,0.3188477,-0.5307617,-0.8823242,0.03173828,0.2700195,-0.02587891
397,-65.75,-21.5625,-29.1875,0.3071289,-0.5620117,-0.8862305,0.03076172,0.2700195,-0.02050781
401,-90.9375,-24.1875,-45.1875,0.3188477,-0.6357422,-0.8554688,0.02832031,0.2709961,-0.01464844
405,-112.6875,-21.125,-58.1875,0.3613281,-0.7368164,-0.8325195,0.02490234,0.2700195,-0.00390625
409,-139.125,-13.375,-67.75,0.3691406,-0.7368164,-0.8515625,0.01660156,0.2685547,0.006347656
413,-165.625,-5.6875,-75.75,0.3417969,-0.9038086,-0.8823242,0.01171875,0.2675781,0.01611328
417,-188.625,-0.8125,-81.875,0.2758789,-0.9541016,-0.9785156,0.004394531,0.262207,0.03369141
421,-218.75,-6.8125,-87.5625,0.1635742,-1.040039,-1.051758,-0.003417969,0.2573242,0.05126953
425,-244.4375,-28.3125,-94.375,-0.01806641,-1.207031,-1.101563,-0.01171875,0.2524414,0.06787109
429,-266.125,-67.0625,-103.0625,-0.1806641,-1.34668,-1.140137,-0.02001953,0.2436523,0.09472656
433,-292.6875,-105.0625,-103.375,-0.1728516,-1.385742,-1.086426,-0.0234375,0.2314453,0.1191406
437,-324.1875,-119.6875,-90.375,-0.02197266,-1.517578,-1.036133,-0.02832031,0.2172852,0.137207
441,-355.0625,-107,-63.875,0.1132813,-1.606934,-1.097656,-0.02685547,0.1987305,0.1669922
445,-381.9375,-77.75,-32.375,0.159668,-1.805176,-1.170898,-0.0234375,0.1738281,0.1943359
449,-377.625,-34.4375,16.4375,0.08642578,-2.306641,-1.070801,-0.0234375,0.1577148,0.2104492
453,-349.8125,-19.1875,28,-0.2773438,-2.120117,-1.109375,-0.01855469,0.1289063,0.2294922
457,-319.875,-57.125,7,-0.4829102,-2.162598,-1.125,-0.01757813,0.1000977,0.2431641
461,-291.125,-107.9375,9.75,-0.3549805,-2.150879,-1.043945,-0.01416016,0.08007813,0.2524414
465,-271.3125,-138.5625,22.5625,-0.01806641,-1.914063,-0.9824219,-0.004394531,0.05371094,0.2592773
469,-259,-129.9375,23.625,0.3847656,-1.486816,-0.9477539,0.006835938,0.03125,0.2675781
474,-261.4375,-89.875,29.3125,0.6518555,-1.253418,-0.9785156,0.01416016,0.01513672,0.2675781
478,-276.9375,-36.4375,35.5625,0.6401367,-1.171875,-1.005371,0.02148438,-0.01074219,0.269043
482,-279,-4.75,25.8125,0.5087891,-1.144531,-1.047852,0.0234375,-0.03710938,0.2705078
486,-277.25,11.25,9.3125,0.3305664,-1.175781,-0.8979492,0.0234375,-0.05322266,0.269043
490,-258.0625,21.375,8.875,0.2255859,-1.22998,-0.8286133,0.02246094,-0.07568359,0.2661133
494,-240.5625,17.9375,2.9375,0.1132813,-1.020508,-0.8286133,0.02001953,-0.09716797,0.262207
498,-225.875,7.625,-5.6875,0.1831055,-0.6708984,-0.9091797,0.02001953,-0.1083984,0.2592773
502,-229.0625,-3.6875,-18.25,0.1518555,-0.6083984,-0.840332,0.02148438,-0.1279297,0.2524414
506,-225.5625,-11.375,-29.625,0.05126953,-0.5698242,-0.6245117,0.0234375,-0.1455078,0.2470703
510,-210.5625,-16.125,-23.8125,-0.1186523,-0.9814453,-0.3325195,0.02734375,-0.1557617,0.2416992
514,-149.125,-13.125,2.8125,-0.2080078,-1.21875,-0.001464844,0.02978516,-0.1704102,0.2348633
518,-94.375,-12.625,9.1875,-0.2080078,-0.8686523,0.1289063,0.02978516,-0.1767578,0.2294922
522,-45.25,-16.9375,-7,-0.1030273,-0.6474609,-0.05126953,0.03076172,-0.1831055,0.2294922
526,-7.1875,-14.5625,-29.4375,0.09375,-0.3325195,-0.3666992,0.03076172,-0.1845703,0.2270508
530,8.375,3.375,-48.5,0.1831055,0.03613281,-0.6015625,0.03417969,-0.1821289,0.2270508
534,7.0625,34.5625,-39.125,0.1367188,0.03222656,-0.5361328,0.03808594,-0.1821289,0.2280273
538,-1.9375,69.75,-15.125,-0.02197266,0.121582,-0.4438477,0.03320313,-0.1821289,0.2280273
542,-5.5625,77.6875,2.5625,-0.328125,-0.08398438,-0.4052734,0.02978516,-0.1821289,0.2294922
546,15.25,53.1875,6.6875,-0.5024414,-0.3095703,-0.3862305,0.02490234,-0.1806641,0.230957
550,44.625,14.1875,5.125,-0.4482422,-0.3676758,-0.4360352,0.02001953,-0.1806641,0.230957
554,63.375,-13.75,3.0625,-0.1650391,-0.3520508,-0.4477539,0.02148438,-0.1757813,0.2324219
558,77.125,-15.875,0.25,0.1132813,-0.3134766,-0.4052734,0.02148438,-0.1733398,0.2333984
562,87.3125,6,-4.3125,0.2568359,-0.2124023,-0.394043,0.02148438,-0.1679688,0.2363281
566,95.0625,31.1875,-2.5,0.2373047,-0.3095703,-0.4052734,0.02001953,-0.1606445,0.2392578
570,104.6875,54,11.625,0.2177734,-0.4804688,-0.3666992,0.01660156,-0.1557617,0.2416992
574,121.875,74.9375,28.4375,0.2177734,-0.6630859,-0.3359375,0.01171875,-0.1479492,0.2460938
578,149.3125,92.3125,36.875,0.2797852,-0.6044922,-0.5708008,0.002441406,-0.140625,0.25
582,157.75,102.625,32,0.2954102,-0.4492188,-0.7441406,-0.004394531,-0.1318359,0.2524414
586,161.875,105.9375,29.4375,0.2993164,-0.6748047,-0.7553711,-0.01416016,-0.1196289,0.2568359
590,172,109.4375,29.5,0.2490234,-0.9038086,-0.628418,-0.02490234,-0.1044922,0.2592773
594,198.3125,112.75,41.8125,0.2138672,-1.210938,-0.6899414,-0.03173828,-0.09570313,0.262207
598,224.75,106,41.5625,0.206543,-1.036133,-0.9130859,-0.04394531,-0.078125,0.2651367
603,229.875,86.8125,36.9375,0.175293,-1.016602,-1.105469,-0.05078125,-0.05810547,0.2675781
607,230.5625,58.3125,23.9375,0.1635742,-1.070801,-1.078613,-0.05664063,-0.04589844,0.2675781
611,233.6875,40.75,18.625,0.2294922,-1.222656,-0.9360352,-0.06298828,-0.02441406,0.2651367
615,244.625,51.4375,30,0.3769531,-1.580078,-0.7670898,-0.06640625,-0.0004882813,0.2651367
619,268.6875,68.5625,44.125,0.3691406,-1.568359,-0.8862305,-0.06738281,0.01269531,0.2651367
623,272.3125,59.6875,42.8125,0.2138672,-1.455566,-1.074707,-0.07226563,0.03857422,0.2568359
627,271.8125,33.6875,38.5,0.1831055,-1.583984,-1.063477,-0.07568359,0.06640625,0.25
631,281.125,14.9375,36.0625,0.2451172,-1.548828,-1.051758,-0.07324219,0.08251953,0.2446289
635,281.8125,15.5,36.9375,0.3305664,-1.517578,-1.005371,-0.07128906,0.1064453,0.230957
639,275.875,29.25,49.5625,0.3808594,-1.556641,-0.9863281,-0.07128906,0.1289063,0.2211914
643,261.875,38.125,60.875,0.3730469,-1.560547,-0.9785156,-0.07324219,0.1450195,0.2104492
647,260.0625,39.75,58.875,0.3847656,-1.645996,-0.9516602,-0.07226563,0.1660156,0.1943359
651,258,37.9375,54.5,0.3417969,-1.521484,-0.9824219,-0.06884766,0.1835938,0.175293
655,247.875,34.9375,54.5,0.3188477,-1.490723,-0.9707031,-0.06982422,0.1962891,0.1616211
659,237.0625,30.625,58.125,0.3305664,-1.486816,-0.9477539,-0.06738281,0.2124023,0.1396484
663,229.8125,27.9375,56.1875,0.3457031,-1.455566,-0.9091797,-0.06152344,0.2236328,0.1191406
667,220.4375,26.5625,53.125,0.3305664,-1.358398,-0.9018555,-0.06054688,0.2348633,0.1069336
671,206.375,22.625,51.5625,0.2993164,-1.241699,-0.9091797,-0.05419922,0.2451172,0.08691406
675,189.9375,13.875,51,0.2797852,-1.125488,-0.9052734,-0.05078125,0.2539063,0.06640625
679,175.3125,4.9375,44.75,0.3339844,-0.9658203,-0.8901367,-0.04589844,0.2597656,0.05517578
683,156.8125,-1.0625,34.625,0.3847656,-0.8378906,-0.8632813,-0.04394531,0.262207,0.03613281
687,137.1875,-2.6875,27.1875,0.3925781,-0.6899414,-0.8554688,-0.04003906,0.2675781,0.02294922
691,112.6875,-4.625,21.1875,0.3886719,-0.5307617,-0.894043,-0.03759766,0.2685547,0.01464844
695,85.5625,-7.25,10.5,0.4155273,-0.453125,-0.8979492,-0.03662109,0.2709961,0.00390625
699,59.625,-7.75,3.1875,0.3886719,-0.4140625,-0.8823242,-0.03515625,0.2700195,-0.00390625
703,32.125,-12.625,-3.9375,0.2954102,-0.3325195,-0.8979492,-0.03417969,0.2709961,-0.006835938
707,5.3125,-31.125,-13.75,0.1948242,-0.3325195,-0.9208984,-0.03515625,0.2709961,-0.008300781
711,-17.0625,-61.1875,-24.625,0.1484375,-0.3598633,-0.9091797,-0.03515625,0.2724609,-0.008300781
715,-33.1875,-97.6875,-41.6875,0.1367188,-0.4257813,-0.9208984,-0.0390625,0.2709961,-0.005371094
719,-51.875,-131.75,-55.4375,0.159668,-0.4296875,-0.9672852,-0.04248047,0.2700195,-0.001464844
723,-77.8125,-146.875,-54.3125,0.2993164,-0.5,-0.9707031,-0.04589844,0.2685547,0.0078125
727,-113.25,-134.0625,-40.5625,0.4736328,-0.5424805,-0.9672852,-0.04980469,0.2675781,0.01708984
732,-155.875,-91.8125,-21.8125,0.6054688,-0.5776367,-0.9707031,-0.05078125,0.2651367,0.02832031
736,-198.1875,-44.8125,-7.25,0.5668945,-0.7368164,-1.051758,-0.05078125,0.2597656,0.04882813
740,-232,-16.3125,-5.125,0.3730469,-0.8920898,-1.182617,-0.05224609,0.2548828,0.06347656
744,-257.4375,-19.5,-8.8125,0.190918,-1.191406,-1.232422,-0.05224609,0.2460938,0.08544922
748,-266.375,-36.3125,-12.8125,0.1831055,-1.48291,-1.19043,-0.05322266,0.2348633,0.1098633
752,-267.5,-50.25,-25.3125,0.2451172,-1.556641,-1.132324,-0.05224609,0.2250977,0.1259766
756,-272.4375,-56.3125,-35.25,0.3032227,-1.626465,-1.155762,-0.05224609,0.2084961,0.1479492
760,-284.375,-54.5625,-35.625,0.3149414,-1.677246,-1.178711,-0.05224609,0.1914063,0.1723633
764,-300.4375,-51.25,-23.25,0.2568359,-1.781738,-1.209473,-0.05224609,0.1772461,0.1875
768,-312.75,-51.5,-3.625,0.2333984,-1.855957,-1.209473,-0.04833984,0.15625,0.2089844
772,-326.6875,-49.8125,11.9375,0.2451172,-1.781738,-1.20166,-0.04394531,0.1298828,0.2255859
776,-338.75,-39.125,30.625,0.2836914,-1.859863,-1.125,-0.04248047,0.1137695,0.237793
780,-332.5,-32.5,34.5625,0.2797852,-1.968262,-1.121094,-0.03759766,0.08398438,0.25
784,-307.125,-36.625,9.625,0.3149414,-1.840332,-1.163086,-0.03417969,0.05371094,0.262207
788,-282.625,-47,-17.25,0.3847656,-1.692383,-1.224609,-0.03320313,0.03515625,0.2636719
792,-269.375,-47.3125,-40.3125,0.3886719,-1.350586,-1.33252,-0.02929688,0.008789063,0.269043
796,-281.6875,-43.8125,-43.8125,0.3535156,-1.428223,-1.26709,-0.02832031,-0.01708984,0.2714844
800,-285.5,-32.25,-28.8125,0.2568359,-1.443848,-1.221191,-0.02587891,-0.03320313,0.2705078
804,-289.6875,-35,-10.125,0.04345703,-1.432129,-1.151855,-0.02246094,-0.06054688,0.2705078
808,-277.6875,-57.3125,-3.8125,-0.03320313,-1.214844,-1.140137,-0.01757813,-0.08544922,0.2651367
812,-271.1875,-86.0625,-4.875,0.05126953,-0.9506836,-1.197754,-0.01269531,-0.09960938,0.2607422
816,-271.5625,-103.5,-7.3125,0.2529297,-0.9619141,-1.051758,-0.004394531,-0.1220703,0.2553711
820,-267.4375,-97.3125,0,0.3769531,-0.8574219,-0.8823242,0.003417969,-0.140625,0.2485352
824,-260.5625,-76.8125,19.3125,0.3847656,-0.9814453,-0.5283203,0.01074219,-0.1542969,0.2431641
828,-236.9375,-60.9375,26.125,0.2875977,-0.8764648,-0.34375,0.01660156,-0.171875,0.2348633
832,-189,-52.25,20.4375,0.2758789,-0.9233398,-0.1860352,0.02148438,-0.1879883,0.2241211
836,-144.25,-45.375,2.5,0.3305664,-0.6044922,-0.1552734,0.02246094,-0.1958008,0.2202148
840,-108.9375,-31.1875,-4.3125,0.3227539,-0.6977539,0.07519531,0.02978516,-0.2045898,0.2143555
844,-85.5625,-0.5,-0.9375,0.3613281,-0.2314453,-0.05126953,0.03076172,-0.2104492,0.2104492
848,-66.625,17,0.875,0.175293,-0.519043,0.05566406,0.03173828,-0.2128906,0.2080078
852,-22.1875,26.875,4.125,0.08642578,-0.5385742,0.1328125,0.02978516,-0.2158203,0.206543
856,17.25,28.75,-5.25,0.08251953,-0.4453125,0.05957031,0.02734375,-0.2158203,0.2080078
861,54.375,29.875,-21.6875,0.1367188,-0.3134766,-0.1206055,0.02734375,-0.2143555,0.2089844
865,66,31.4375,-38.875,0.140625,-0.04150391,-0.309082,0.02587891,-0.2104492,0.2119141
869,68.9375,41.0625,-36.5625,0.1171875,-0.1230469,-0.3632813,0.02490234,-0.2045898,0.2143555
873,71.5,54,-25.1875,-0.01806641,-0.1538086,-0.3862305,0.02246094,-0.203125,0.2172852
877,79.5625,52.5,-8.75,-0.1884766,-0.2666016,-0.4438477,0.02001953,-0.1967773,0.2202148
881,95.8125,33.8125,-1.0625,-0.2661133,-0.2431641,-0.559082,0.01513672,-0.1918945,0.2226563
885,112.25,7.25,-6.375,-0.1806641,-0.2822266,-0.628418,0.01416016,-0.1879883,0.2255859
889,129.375,-8.8125,-14.875,0.0009765625,-0.3325195,-0.6513672,0.01171875,-0.1791992,0.2294922
893,146.1875,-1.9375,-24.1875,0.1674805,-0.2900391,-0.7016602,0.01269531,-0.1704102,0.2324219
897,157.125,19.1875,-21,0.2529297,-0.4101563,-0.7900391,0.01171875,-0.1655273,0.237793
901,165.25,37.6875,-25.3125,0.1831055,-0.2124023,-0.9672852,0.01171875,-0.1533203,0.2431641
905,157.6875,43.1875,-12.8125,0.07080078,-0.4609375,-0.9091797,0.01074219,-0.1396484,0.2460938
909,166.9375,45.5,4.1875,0.04345703,-0.7524414,-0.7978516,0.006835938,-0.1342773,0.2514648
913,180.75,44.4375,15.25,0.08642578,-0.9038086,-0.7207031,0.0009765625,-0.1196289,0.2539063
917,205.125,44.8125,19.875,0.2373047,-1.105957,-0.7514648,-0.003417969,-0.1083984,0.2607422
921,230.6875,47.3125,6.8125,0.3574219,-0.8959961,-0.9287109,-0.005859375,-0.09570313,0.2636719
925,229.1875,41.25,-7.375,0.3417969,-0.9350586,-0.9707031,-0.01171875,-0.078125,0.269043
929,234.4375,44.875,-12.0625,0.4194336,-0.9931641,-0.9863281,-0.01416016,-0.05566406,0.269043
933,229.125,61.3125,-3.125,0.4389648,-1.121582,-0.8862305,-0.01611328,-0.04199219,0.269043
937,230.625,81.4375,21.125,0.3847656,-1.342773,-0.8325195,-0.02099609,-0.02197266,0.2705078
941,238.9375,87.375,36.375,0.3417969,-1.455566,-0.8823242,-0.02929688,0,0.269043
945,248.3125,82.0625,34.6875,0.3457031,-1.42041,-0.9746094,-0.03515625,0.01611328,0.2651367
949,259,72.3125,28.5,0.3574219,-1.432129,-1.113281,-0.04003906,0.04003906,0.2607422
953,264.1875,69.3125,29.8125,0.4580078,-1.269043,-1.205566,-0.04492188,0.06640625,0.2553711
957,253.0625,81.875,35.5,0.4970703,-1.207031,-1.217285,-0.04589844,0.08251953,0.25
961,238.75,97.875,51.5625,0.4541016,-1.358398,-1.178711,-0.05224609,0.1049805,0.2392578
965,225.6875,99.5625,61.375,0.3378906,-1.439941,-1.163086,-0.05664063,0.1264648,0.2294922
969,229.5,82.25,58,0.2333984,-1.638184,-1.13623,-0.05908203,0.1401367,0.2202148
973,243.875,56,42.25,0.2333984,-1.67334,-1.05957,-0.06298828,0.1538086,0.2036133
977,262.0625,39.875,25.75,0.3110352,-1.645996,-1.024902,-0.06298828,0.1762695,0.1875
981,264.8125,34.0625,18.9375,0.3032227,-1.529297,-1.001465,-0.06396484,0.1884766,0.1723633
985,263.5625,31.4375,16.125,0.3847656,-1.509766,-0.9633789,-0.06396484,0.2060547,0.1508789
990,270.5,31.125,-16.125,0.5629883,-1.517578,-0.8056641,-0.06396484,0.2211914,0.1274414
994,278.4375,43,-46,0.609375,-1.284668,-0.8554688,-0.06640625,0.2299805,0.1123047
998,257.125,59.875,-47.6875,0.543457,-1.129395,-0.8901367,-0.07324219,0.2412109,0.08691406
1002,219.4375,70.75,-24.1875,0.4194336,-0.9116211,-0.9018555,-0.078125,0.25,0.06347656
1006,177.8125,68.875,2.9375,0.3227539,-0.7792969,-0.9248047,-0.078125,0.2524414,0.04882813
1010,142.9375,59,16.5,0.3188477,-0.6860352,-0.8823242,-0.07958984,0.2587891,0.03369141
1014,114,49.6875,20.4375,0.3574219,-0.6591797,-0.8476563,-0.078125,0.2612305,0.01855469
1018,93.0625,42.6875,17.9375,0.3691406,-0.6396484,-0.8129883,-0.07568359,0.2612305,0.01074219
1022,78.375,35.4375,10.4375,0.3613281,-0.5541992,-0.809082,-0.07568359,0.262207,-0.001464844
1026,56.6875,24.4375,2.5,0.3149414,-0.4257813,-0.840332,-0.07568359,0.2636719,-0.005371094
1030,28.625,8.5,-5.75,0.2954102,-0.3208008,-0.8862305,-0.07470703,0.2661133,-0.009277344
1034,1.375,-2.625,-10,0.3110352,-0.3134766,-0.859375,-0.07568359,0.2661133,-0.01074219
1038,-31.625,-10.875,-9.875,0.2797852,-0.2431641,-0.8979492,-0.07714844,0.2651367,-0.01074219
1042,-69.8125,-16.875,-1.5,0.2797852,-0.3134766,-0.9360352,-0.07714844,0.2651367,-0.008300781
1046,-103.4375,-18.0625,6.0625,0.3305664,-0.4140625,-0.9516602,-0.07714844,0.2651367,0
1050,-130.8125,-19.875,-0.8125,0.3808594,-0.484375,-0.9941406,-0.07568359,0.262207,0.01318359
1054,-149.3125,-22.8125,-15.5625,0.4077148,-0.6977539,-0.9707031,-0.07568359,0.2597656,0.02148438
1058,-164.4375,-24.0625,-27.6875,0.3730469,-0.7133789,-1.01709,-0.07958984,0.2563477,0.03613281
1062,-190.25,-33.25,-33.0625,0.3110352,-0.8647461,-1.047852,-0.08203125,0.2524414,0.05517578
1066,-214.6875,-35.3125,-22.125,0.3110352,-1.000977,-1.036133,-0.08203125,0.2475586,0.06787109
1070,-233.375,-36.375,-16.1875,0.3847656,-1.342773,-0.9902344,-0.08300781,0.2363281,0.08935547
1074,-208.5,-33.5,-32.5,0.5048828,-1.576172,-0.8901367,-0.08398438,0.2260742,0.1098633
1078,-177.75,-51.25,-74.4375,0.3730469,-1.622559,-0.9902344,-0.08642578,0.2197266,0.1191406
1082,-145.375,-88.5625,-93.8125,0.2490234,-1.894531,-0.9594727,-0.08886719,0.2075195,0.1396484
1086,-121.625,-111.125,-74.5625,0.3227539,-1.914063,-0.878418,-0.09228516,0.1962891,0.1533203
1090,-124,-115.125,-53.625,0.5126953,-1.661621,-0.8979492,-0.09033203,0.1884766,0.1601563
1094,-167.6875,-109.8125,-50,0.6870117,-1.370117,-0.9594727,-0.08789063,0.1801758,0.1738281
1098,-222.1875,-95.8125,-44,0.7099609,-1.606934,-0.8862305,-0.08544922,0.1650391,0.1875
1102,-257.9375,-83.1875,-28.625,0.6557617,-1.758789,-0.859375,-0.08203125,0.1538086,0.1982422
1106,-278.8125,-86.375,-21.6875,0.6054688,-1.968262,-0.8208008,-0.078125,0.1313477,0.2133789
1110,-285.375,-92.6875,-22.875,0.527832,-1.785645,-0.9477539,-0.07226563,0.1088867,0.2294922
1114,-297.0625,-117.75,-33.5625,0.4775391,-1.649902,-1.13623,-0.07128906,0.08984375,0.237793
1119,-314.75,-127.5,-18.6875,0.5859375,-1.606934,-1.317383,-0.06054688,0.06396484,0.2485352
1123,-335.3125,-127.5625,-9,0.6791992,-1.626465,-1.251953,-0.05224609,0.03613281,0.2583008
1127,-351.375,-103.8125,26.5625,0.7568359,-1.824707,-1.205566,-0.04394531,0.01367188,0.262207
1131,-347.625,-107.4375,14.9375,0.5512695,-1.381836,-1.58252,-0.03173828,-0.015625,0.2661133
1135,-352.4375,-154.5625,-32.5625,0.5473633,-1.15625,-1.778809,-0.0234375,-0.04589844,0.2661133
1139,-376.25,-186.5,-54.3125,0.7099609,-1.210938,-1.355469,-0.01171875,-0.06689453,0.2636719
1143,-370.9375,-155.1875,-12.125,1.101563,-1.871094,-0.1938477,0.004394531,-0.09570313,0.2583008
1147,-310.75,-74.9375,4.625,1.182617,-1.9375,0.9213867,0.01416016,-0.1230469,0.25
1151,-171.5,-5.625,-45.375,1.05127,-1.781738,1.29834,0.01904297,-0.1357422,0.2460938
1155,-65.375,11.375,-105.1875,0.5161133,-0.8725586,0.7446289,0.02246094,-0.1445313,0.2431641
1159,-28.9375,14.5,-114.5625,0.1948242,-0.4179688,0.2133789,0.0234375,-0.1445313,0.2416992
1163,-32.75,18.125,-93.625,-0.09912109,-0.1347656,-0.04003906,0.02490234,-0.1469727,0.2431641
1167,-49.1875,28.625,-40.25,-0.1611328,-0.2666016,0.009765625,0.02490234,-0.1469727,0.2416992
1171,-49.4375,36.75,-3.625,-0.2001953,-0.2509766,-0.1054688,0.0234375,-0.1518555,0.2402344
1175,-32.625,26.8125,-0.9375,-0.1342773,-0.355957,-0.05126953,0.02001953,-0.1518555,0.2392578
1179,0.1875,21.8125,-4.75,-0.07617188,-0.421875,0.05175781,0.01904297,-0.1533203,0.2392578
1183,29.5,20.1875,-10.25,-0.05273438,-0.3520508,-0.02832031,0.01660156,-0.1518555,0.237793
1187,49.5,21.1875,-12.75,-0.07617188,-0.2275391,-0.2397461,0.01660156,-0.1533203,0.2392578
1191,60.6875,16.5,-9.0625,-0.1499023,-0.1381836,-0.3901367,0.01416016,-0.1479492,0.2416992
1195,61.25,10.625,6.375,-0.1264648,-0.1967773,-0.3745117,0.01269531,-0.1445313,0.2431641
1199,70.8125,13.125,17.4375,0.02832031,-0.3173828,-0.3554688,0.01416016,-0.140625,0.2431641
1203,86.8125,23.75,17.75,0.2104492,-0.4453125,-0.2744141,0.01171875,-0.1357422,0.2446289
1207,112.25,41,12.625,0.2724609,-0.5229492,-0.3554688,0.006835938,-0.1293945,0.2485352
1211,132.1875,54.125,9,0.2373047,-0.4882813,-0.5092773,0.005859375,-0.1245117,0.2514648
1215,141.8125,64.875,16.25,0.2646484,-0.550293,-0.559082,0.0009765625,-0.1157227,0.2524414
1219,153.25,75.625,21.5625,0.2875977,-0.5854492,-0.7285156,-0.004394531,-0.1054688,0.2553711
1223,158.75,76.5625,23.25,0.2954102,-0.5737305,-0.7822266,-0.01025391,-0.09570313,0.2583008
1227,161.0625,84.5,36.0625,0.4194336,-0.7094727,-0.7441406,-0.01757813,-0.08544922,0.2607422
1231,161.3125,101.625,53.0625,0.5820313,-0.8613281,-0.5786133,-0.02587891,-0.07421875,0.262207
1235,178.8125,121.0625,64.5,0.6791992,-1.062988,-0.7822266,-0.03320313,-0.06445313,0.2651367
1239,195.8125,118.75,38.1875,0.6015625,-0.7641602,-0.9863281,-0.04248047,-0.04833984,0.2636719
1243,193.9375,111,37.4375,0.574707,-0.9467773,-1.036133,-0.05322266,-0.03173828,0.2651367
1248,192.5,107.875,39.6875,0.6328125,-0.9350586,-0.9438477,-0.05908203,-0.02050781,0.262207
1252,186.375,118.875,56.125,0.7099609,-1.15625,-0.8554688,-0.06884766,-0.001953125,0.2607422
1256,189.5,123.1875,66.75,0.659668,-1.22998,-0.9208984,-0.078125,0.01513672,0.2583008
1260,196.9375,111.3125,63.75,0.59375,-1.175781,-0.9941406,-0.08300781,0.03027344,0.2524414
1264,203.1875,86.3125,62,0.5126953,-1.226563,-1.109375,-0.09228516,0.04882813,0.2470703
1268,206.375,55.0625,46.875,0.527832,-1.1875,-1.043945,-0.09619141,0.06738281,0.2402344
1272,206.25,46.75,45.375,0.6870117,-1.308105,-0.8710938,-0.09619141,0.08251953,0.2363281
1276,200.6875,56,47.9375,0.7373047,-1.296387,-0.7861328,-0.09960938,0.1000977,0.2280273
1280,194.1875,68.6875,51.25,0.7099609,-1.432129,-0.7133789,-0.1010742,0.1186523,0.2172852
1284,194.0625,75.375,57.125,0.6401367,-1.455566,-0.7055664,-0.1020508,0.1298828,0.2104492
1288,194.0625,76.1875,59.625,0.625,-1.447754,-0.6977539,-0.1020508,0.1459961,0.1967773
1292,191.25,75.625,60,0.6015625,-1.374023,-0.7016602,-0.1054688,0.1625977,0.1845703
1296,187.75,73.625,59.125,0.5898438,-1.385742,-0.6708984,-0.1069336,0.1713867,0.175293
1300,184,73.4375,58.0625,0.5512695,-1.338867,-0.6787109,-0.1044922,0.1860352,0.1572266
1304,180.625,73.5,62.375,0.527832,-1.381836,-0.6513672,-0.1044922,0.1972656,0.1411133
1308,176.1875,68.9375,62.5625,0.4580078,-1.284668,-0.6860352,-0.1030273,0.2075195,0.1303711
1312,173.8125,58.1875,60.375,0.4194336,-1.296387,-0.6708984,-0.1020508,0.2197266,0.1123047
1316,171.1875,48.125,59.5625,0.3999023,-1.191406,-0.6899414,-0.09863281,0.2299805,0.09912109
1320,161.75,36.4375,54.5,0.3730469,-1.05127,-0.7055664,-0.09716797,0.2338867,0.08691406
1324,152.4375,26.4375,51.625,0.3808594,-1.036133,-0.6977539,-0.09228516,0.2426758,0.0703125
1328,141.8125,16.125,43.0625,0.3999023,-0.9194336,-0.7207031,-0.08886719,0.2485352,0.05517578
1332,132.75,12.75,38.6875,0.4428711,-0.8881836,-0.6938477,-0.08544922,0.2509766,0.04589844
1336,115.5625,13,32.625,0.4428711,-0.6787109,-0.7553711,-0.08203125,0.2563477,0.03515625
1340,94.0625,12.6875,27.4375,0.3999023,-0.6044922,-0.7978516,-0.078125,0.2587891,0.02392578
1344,69.0625,9.625,26.6875,0.3730469,-0.5385742,-0.8554688,-0.078125,0.2597656,0.01708984
1348,48.75,8.0625,22.1875,0.4038086,-0.3989258,-1.001465,-0.07568359,0.262207,0.009277344
1352,20.6875,2.8125,9.1875,0.4077148,-0.2314453,-1.178711,-0.07226563,0.262207,0.006347656
1356,-13.4375,-4.75,-4.4375,0.3339844,-0.1850586,-1.313477,-0.07324219,0.2636719,0.00390625
1360,-55.625,-20.5,-11.125,0.2724609,-0.2006836,-1.371094,-0.07470703,0.262207,0.0078125
1364,-91.5625,-36.3125,-10.4375,0.2875977,-0.3833008,-1.282715,-0.07470703,0.262207,0.01611328
1368,-126.125,-47.8125,-11.1875,0.3457031,-0.484375,-1.186523,-0.07568359,0.2612305,0.02392578
1372,-154.6875,-51.1875,-15.0625,0.4311523,-0.7446289,-1.055664,-0.07568359,0.2573242,0.03613281
1377,-172.4375,-46.75,-17.1875,0.4931641,-1.008789,-0.9516602,-0.07714844,0.2524414,0.05419922
1381,-187.8125,-38.5,-24.9375,0.5161133,-0.9775391,-0.9477539,-0.07714844,0.2475586,0.06787109
1385,-208.0625,-36.1875,-34.75,0.4658203,-1.125488,-0.9555664,-0.08056641,0.2387695,0.08691406
1389,-222.8125,-37.8125,-38.5,0.4116211,-1.253418,-0.9477539,-0.08203125,0.2299805,0.1069336
1393,-238.5625,-42.875,-36,0.3808594,-1.374023,-0.9438477,-0.08398438,0.2211914,0.1206055
1397,-254,-46.75,-26.875,0.3730469,-1.525391,-0.9633789,-0.08398438,0.2075195,0.1396484
1401,-261,-50.5625,-22.3125,0.3847656,-1.521484,-1.08252,-0.08398438,0.1899414,0.1630859
1405,-281.5625,-61.875,-23.125,0.3847656,-1.37793,-1.236328,-0.08203125,0.1772461,0.1777344
1409,-297.375,-73.75,-16.8125,0.4038086,-1.622559,-1.336426,-0.08056641,0.1577148,0.1982422
1413,-300.625,-92.8125,-31.3125,0.4541016,-1.374023,-1.628906,-0.07568359,0.1347656,0.2143555
1417,-309.1875,-106.6875,-60.0625,0.6479492,-1.626465,-1.574707,-0.07324219,0.1176758,0.2280273
1421,-322.25,-89.9375,-55.25,0.7680664,-1.882813,-1.297852,-0.06738281,0.08984375,0.2416992
1425,-332.875,-58.375,-33.5,0.8183594,-2.174316,-1.117188,-0.06494141,0.06005859,0.2514648
1429,-321.4375,-39.4375,-29.1875,0.6518555,-1.917969,-1.297852,-0.06152344,0.03759766,0.2592773
1433,-315.875,-53.0625,-42.625,0.559082,-1.533203,-1.659668,-0.05908203,0.01025391,0.2636719
1437,-329,-86.375,-64.1875,0.6791992,-1.175781,-1.952148,-0.05566406,-0.02050781,0.2661133
1441,-363.6875,-74.9375,-72.6875,1.09375,-1.486816,-1.397949,-0.04980469,-0.04052734,0.2651367
1445,-378.625,10.1875,-28.1875,1.074219,-2.088867,-0.6748047,-0.04394531,-0.07568359,0.2636719
1449,-345.0625,70.25,14.25,0.4506836,-2.073242,-0.309082,-0.04736328,-0.1030273,0.2583008
1453,-272.25,37.6875,3.8125,-0.1884766,-1.848145,-0.3129883,-0.04980469,-0.1206055,0.25
1457,-186.875,-48,-38.0625,-0.2001953,-1.315918,-0.3554688,-0.05078125,-0.140625,0.2431641
1461,-141.1875,-96.5625,-64.125,0.1445313,-0.8378906,-0.2631836,-0.04003906,-0.1508789,0.2392578
1465,-127.1875,-84.75,-51.8125,0.4038086,-0.5854492,-0.1206055,-0.03320313,-0.1567383,0.2363281
1469,-129.875,-35.875,-19.9375,0.4233398,-0.5463867,0.09033203,-0.02685547,-0.1655273,0.2348633
1473,-121.5,21.3125,21.4375,0.2646484,-0.6318359,0.144043,-0.02490234,-0.1733398,0.2280273
1477,-89.75,37.6875,24.875,-0.04882813,-0.4921875,-0.05126953,-0.02832031,-0.1767578,0.2280273
1481,-53.3125,13.75,0.125,-0.1884766,-0.4067383,-0.1821289,-0.02929688,-0.1831055,0.2241211
1485,-22.75,-18.5625,-22.25,-0.1962891,-0.3134766,-0.2514648,-0.02685547,-0.1855469,0.2226563
1489,-7.375,-35.3125,-31.8125,-0.08007813,-0.1308594,-0.2783203,-0.02587891,-0.1845703,0.2226563
1493,-5.6875,-28.8125,-21.5,0.004882813,-0.1733398,-0.1591797,-0.02246094,-0.1855469,0.2241211
1497,0.375,-9.875,0.5625,-0.01416016,-0.2392578,-0.109375,-0.02099609,-0.1845703,0.2226563
1501,15.5625,-0.8125,12.125,-0.06054688,-0.2705078,-0.1821289,-0.02001953,-0.1855469,0.2241211
1506,37.875,-10.5625,7.4375,-0.1186523,-0.2241211,-0.3359375,-0.02001953,-0.1855469,0.2226563
1510,53.6875,-26.25,-1,-0.03320313,-0.1269531,-0.4555664,-0.02099609,-0.1821289,0.2255859
1514,62.8125,-29.375,-3.375,0.1054688,-0.1499023,-0.4321289,-0.01855469,-0.1791992,0.2280273
1518,73.5625,-14.5625,1.125,0.159668,-0.2666016,-0.4248047,-0.01757813,-0.1767578,0.2294922
1522,86.25,-0.25,10.0625,0.09765625,-0.3520508,-0.4594727,-0.01611328,-0.171875,0.230957
1526,104.5625,7.875,21.0625,0.1210938,-0.4609375,-0.4975586,-0.01855469,-0.1669922,0.2324219
1530,128.3125,13.5625,16.25,0.1870117,-0.3017578,-0.7016602,-0.01855469,-0.1606445,0.2363281
1534,133.1875,13.9375,12.8125,0.2026367,-0.355957,-0.6938477,-0.02099609,-0.1533203,0.2416992
1538,143.25,21.5625,22.4375,0.2373047,-0.6005859,-0.6015625,-0.0234375,-0.1445313,0.2446289
1542,157.6875,33.8125,33.5,0.2646484,-0.6591797,-0.6513672,-0.02685547,-0.1342773,0.2485352
1546,176.5,42.3125,38.4375,0.3496094,-0.8535156,-0.7016602,-0.03173828,-0.1206055,0.2539063
1550,203.4375,53.3125,23.4375,0.4194336,-0.7563477,-0.7900391,-0.03515625,-0.1118164,0.2539063
1554,208,63.125,21.25,0.3769531,-0.9350586,-0.7749023,-0.04150391,-0.09716797,0.2592773
1558,211.0625,65.8125,33.0625,0.3071289,-1.140625,-0.7822266,-0.04736328,-0.078125,0.262207
1562,222.125,47.0625,39.5625,0.2294922,-1.331055,-0.8671875,-0.05224609,-0.06835938,0.262207
1566,249.5625,17.75,29.25,0.3613281,-1.160156,-1.140137,-0.05419922,-0.046875,0.2661133
1570,251.25,3.8125,-2.375,0.6054688,-0.8842773,-1.232422,-0.05566406,-0.02441406,0.269043
1574,245.4375,30.625,-4.875,0.7875977,-1.15625,-1.094238,-0.05419922,-0.01074219,0.2661133
1578,232.6875,75.75,13.1875,0.690918,-1.133301,-1.094238,-0.06054688,0.01269531,0.2636719
1582,218.875,96.125,33.8125,0.4814453,-1.179688,-1.128418,-0.06396484,0.03515625,0.2592773
1586,213.3125,92.375,48.375,0.3339844,-1.338867,-1.101563,-0.07128906,0.04638672,0.2553711
1590,219.4375,72.1875,51.25,0.2993164,-1.45166,-1.070801,-0.07958984,0.06884766,0.2446289
1594,228.375,46.5,43.625,0.3266602,-1.405273,-1.094238,-0.07958984,0.08984375,0.2392578
1598,226.8125,28.3125,34.5,0.4155273,-1.331055,-1.040039,-0.08056641,0.1025391,0.2333984
1602,225.125,26.5,35.125,0.5087891,-1.397461,-0.9477539,-0.08056641,0.1225586,0.2211914
1606,220.0625,36.125,37.4375,0.5668945,-1.381836,-0.878418,-0.08056641,0.1411133,0.2104492
1610,216.875,53.125,42.6875,0.5629883,-1.467285,-0.8515625,-0.08056641,0.1523438,0.2011719
1614,214.125,66.5625,52.0625,0.4697266,-1.397461,-0.84375,-0.08203125,0.1699219,0.1845703
1618,207.375,66.4375,53.5625,0.3730469,-1.315918,-0.8979492,-0.08056641,0.1835938,0.168457
1622,201.875,53.9375,44.125,0.3149414,-1.26123,-0.9052734,-0.08300781,0.1972656,0.1586914
1626,201.125,37.3125,34.125,0.2724609,-1.300293,-0.8979492,-0.08056641,0.2099609,0.1396484
1630,197.1875,22.9375,25.5625,0.2646484,-1.121582,-0.9169922,-0.078125,0.2226563,0.1206055
1635,182.25,16.75,26.9375,0.3032227,-1.059082,-0.8745117,-0.078125,0.2299805,0.1113281
1639,166.25,17.25,34.75,0.3149414,-1.012695,-0.8286133,-0.07568359,0.2373047,0.09472656
1643,152.5625,15.5625,36.4375,0.3266602,-0.9038086,-0.8364258,-0.07226563,0.2451172,0.08105469
1647,140.3125,9.75,31.5,0.3032227,-0.7949219,-0.84375,-0.07128906,0.2485352,0.0703125
1651,127.6875,2.1875,24.125,0.2836914,-0.6821289,-0.8286133,-0.06640625,0.2524414,0.05810547
1655,114.625,-7.125,19.9375,0.2490234,-0.6240234,-0.8325195,-0.06640625,0.2573242,0.04443359
1659,106.8125,-19.0625,13.3125,0.2490234,-0.6005859,-0.8286133,-0.06396484,0.2597656,0.03759766
1663,104.625,-33.875,2.1875,0.2685547,-0.534668,-0.9360352,-0.06298828,0.2612305,0.02685547
1667,82.25,-56.125,-24.75,0.2797852,-0.06054688,-1.290039,-0.06152344,0.2636719,0.02294922
1671,35.9375,-70.8125,-50.6875,0.3691406,-0.2124023,-1.274902,-0.06298828,0.2651367,0.01708984
1675,-8.5625,-61.4375,-37.5,0.4077148,-0.2705078,-1.232422,-0.06738281,0.2636719,0.01611328
1679,-67.625,-39.75,-13.5625,0.4428711,-0.3017578,-1.163086,-0.06884766,0.262207,0.02001953
1683,-120.125,-13.75,10,0.4311523,-0.5112305,-1.063477,-0.06982422,0.2612305,0.02539063
1687,-155.6875,4.875,19.25,0.4350586,-0.7250977,-0.9941406,-0.06982422,0.2573242,0.04052734
1691,-178.25,9.4375,4.75,0.3730469,-0.7485352,-1.024902,-0.06738281,0.2548828,0.05517578
1695,-194.875,-1.75,-19.0625,0.2954102,-0.8920898,-1.074707,-0.06884766,0.2509766,0.06640625
1699,-206.5625,-20.75,-32.6875,0.2685547,-1.062988,-1.063477,-0.07128906,0.2436523,0.08544922
1703,-221.5625,-35.5,-35.4375,0.3032227,-1.164063,-1.028809,-0.07324219,0.2314453,0.105957
1707,-237.8125,-43.5625,-34.4375,0.3378906,-1.296387,-0.9555664,-0.07324219,0.2250977,0.1191406
1711,-252.5,-44.1875,-29.0625,0.4038086,-1.412598,-0.9018555,-0.07470703,0.2099609,0.1396484
1715,-263.375,-37.375,-21.4375,0.4272461,-1.501953,-0.8979492,-0.07568359,0.1938477,0.1616211
1719,-272.1875,-34,-20.875,0.4389648,-1.537109,-0.9018555,-0.07470703,0.1811523,0.1738281
1723,-275.875,-32.6875,-21.625,0.4311523,-1.599121,-0.9169922,-0.07324219,0.1611328,0.1953125
1727,-277.75,-34.875,-20.5625,0.3886719,-1.618652,-0.9438477,-0.07226563,0.1401367,0.2133789
1731,-275.875,-40.5625,-20.6875,0.3999023,-1.564453,-1.020996,-0.07226563,0.125,0.2211914
1735,-276.9375,-43.625,-28.0625,0.4233398,-1.533203,-1.040039,-0.07128906,0.1025391,0.2363281
1739,-274.6875,-38.75,-15.1875,0.4233398,-1.653809,-1.028809,-0.06884766,0.07861328,0.2460938
1743,-268.8125,-26.875,-11.8125,0.4350586,-1.424316,-1.070801,-0.06738281,0.06103516,0.2524414
1747,-272.4375,-15.75,-6,0.4311523,-1.467285,-1.078613,-0.06640625,0.03369141,0.2592773
1751,-265.4375,-5.75,-4.5,0.3925781,-1.412598,-1.078613,-0.06494141,0.01123047,0.262207
1755,-256.875,-0.1875,-9,0.3613281,-1.342773,-1.08252,-0.06640625,-0.005859375,0.2651367
1759,-245.4375,0.6875,-10.0625,0.3071289,-1.241699,-1.125,-0.06640625,-0.02587891,0.2661133
1764,-238.4375,-8.4375,-18.75,0.3110352,-0.9077148,-1.355469,-0.06494141,-0.04931641,0.2636719
1768,-253.9375,-25.25,-34.9375,0.3149414,-0.8457031,-1.351563,-0.06494141,-0.06298828,0.2636719
1772,-259.5625,-26.6875,-23.5625,0.3227539,-1.140625,-1.094238,-0.06298828,-0.08837891,0.2592773
1776,-253.75,-18.0625,-1.625,0.2875977,-1.160156,-0.8745117,-0.05810547,-0.1069336,0.2553711
1780,-234.375,-17.25,3,0.2255859,-1.036133,-0.7709961,-0.05566406,-0.1196289,0.25
1784,-209.75,-25.5625,-8.5,0.2568359,-0.8803711,-0.6513672,-0.05419922,-0.1357422,0.2460938
1788,-179.0625,-29.625,-24.0625,0.2993164,-0.7407227,-0.5864258,-0.05078125,-0.1508789,0.2392578
1792,-160,-30,-31.1875,0.2758789,-0.6396484,-0.3974609,-0.04980469,-0.1582031,0.2363281
1796,-132.625,-23.9375,-24.125,0.2607422,-0.7211914,-0.2436523,-0.04394531,-0.1679688,0.2324219
1800,-101,-15.0625,-22.3125,0.2177734,-0.565918,-0.1630859,-0.0390625,-0.1757813,0.2294922
1804,-74.125,-7.25,-17,0.1674805,-0.5698242,-0.06298828,-0.0390625,-0.1821289,0.2270508
1808,-40.1875,-0.6875,-16.125,0.175293,-0.4140625,-0.1708984,-0.03662109,-0.1879883,0.2255859
1812,-21.9375,3,-21.625,0.1713867,-0.2202148,-0.2089844,-0.03662109,-0.1870117,0.2226563
1816,-12.5,8.25,-19.1875,0.1210938,-0.2509766,-0.1860352,-0.03515625,-0.1879883,0.2241211
1820,1.75,12.3125,-11.1875,0.05126953,-0.324707,-0.1401367,-0.03662109,-0.1870117,0.2241211
1824,21,12.5,-4.6875,0.02050781,-0.324707,-0.1591797,-0.03662109,-0.1870117,0.2270508
1828,42.5625,10.3125,-2.9375,0.03564453,-0.2822266,-0.2705078,-0.03662109,-0.1855469,0.2241211
1832,56.8125,6.125,-5.5625,0.07080078,-0.1230469,-0.3862305,-0.03662109,-0.1831055,0.2241211
1836,59.5,3.5,-4.9375,0.09375,-0.09570313,-0.3862305,-0.03759766,-0.1806641,0.2294922
1840,65.1875,3.875,1.375,0.05517578,-0.2822266,-0.3359375,-0.0390625,-0.1767578,0.2270508
1844,81.4375,1.0625,9.125,0.04345703,-0.4570313,-0.309082,-0.0390625,-0.1733398,0.230957
1848,106.875,-2.75,10.5,0.1054688,-0.5073242,-0.394043,-0.04003906,-0.1655273,0.2348633
1852,130.5625,-3.5625,6.0625,0.1948242,-0.4609375,-0.5361328,-0.04150391,-0.1606445,0.2333984
1856,147.375,-0.5,-4.4375,0.2646484,-0.402832,-0.609375,-0.04003906,-0.1518555,0.2416992
1860,156.125,7.9375,-5.3125,0.2685547,-0.6083984,-0.5244141,-0.04248047,-0.1420898,0.2446289
1864,172,22.9375,5.9375,0.2724609,-0.8378906,-0.5708008,-0.04394531,-0.1333008,0.2470703
1868,191.1875,32.875,13.0625,0.2724609,-0.8417969,-0.6860352,-0.04589844,-0.1220703,0.2514648
1872,204.375,36.75,16.6875,0.2954102,-0.9350586,-0.7861328,-0.05078125,-0.1054688,0.2553711
1876,221.375,36.375,9.8125,0.3417969,-0.8417969,-0.9672852,-0.05419922,-0.09326172,0.2592773
1880,218.1875,28.0625,-4.8125,0.3339844,-0.7602539,-1.15918,-0.05664063,-0.07568359,0.262207
1884,224.25,24.5625,-29.25,0.4389648,-0.9389648,-1.217285,-0.05908203,-0.05810547,0.2651367
1888,233.0625,43.1875,-49.5625,0.4892578,-0.9814453,-1.232422,-0.06152344,-0.04589844,0.2651367
1893,231.9375,63.125,-56.25,0.4116211,-0.9775391,-1.305664,-0.06494141,-0.02685547,0.2651367
1897,225.3125,70,-41.6875,0.3496094,-1.043945,-1.248047,-0.07226563,-0.005859375,0.2636719
1901,215.25,75.3125,-12.375,0.3266602,-1.109863,-1.101563,-0.07470703,0.006347656,0.2592773
1905,204.8125,70.0625,18.5625,0.2875977,-1.148438,-1.020996,-0.08203125,0.02490234,0.2553711
1909,200.375,53.75,32.9375,0.3808594,-1.214844,-1.036133,-0.08544922,0.04492188,0.2514648
1913,205.5625,39.4375,28.5625,0.4814453,-1.207031,-1.055664,-0.08886719,0.05859375,0.2470703
1917,205.3125,31,20.8125,0.5317383,-1.207031,-1.009277,-0.09130859,0.07763672,0.2402344
1921,201.5625,32.6875,27.875,0.559082,-1.22998,-0.9287109,-0.09228516,0.09619141,0.2333984
1925,197.125,43.1875,44.5625,0.6015625,-1.362305,-0.8129883,-0.09130859,0.1074219,0.2294922
1929,196.875,58.375,57.9375,0.5820313,-1.350586,-0.824707,-0.09375,0.125,0.2172852
1933,194.125,61,64.3125,0.5087891,-1.319336,-0.8364258,-0.09472656,0.1425781,0.2036133
1937,190.0625,48.5625,61.875,0.4619141,-1.237793,-0.8208008,-0.09472656,0.1523438,0.1967773
1941,193.1875,34.6875,55.9375,0.4736328,-1.269043,-0.7783203,-0.09472656,0.1674805,0.1821289
1945,193.75,28.625,52.3125,0.5317383,-1.207031,-0.7207031,-0.09375,0.1835938,0.168457
1949,189.375,32.0625,51.125,0.5708008,-1.148438,-0.7016602,-0.09228516,0.1923828,0.1572266
1953,178.9375,37.0625,51.0625,0.5668945,-1.094238,-0.6591797,-0.08886719,0.2060547,0.1396484
1957,168.1875,43.375,55.6875,0.5200195,-1.008789,-0.6708984,-0.08886719,0.2163086,0.1259766
1961,157.8125,41.8125,50.9375,0.4970703,-0.9077148,-0.6899414,-0.08398438,0.2226563,0.1166992
1965,146.5,35.3125,41.375,0.4697266,-0.8535156,-0.6938477,-0.08203125,0.2324219,0.1000977
1969,140.4375,32.25,32.0625,0.4658203,-0.8417969,-0.7246094,-0.07958984,0.2426758,0.08398438
1973,131.75,32.5,25.875,0.4428711,-0.7446289,-0.7822266,-0.07714844,0.2451172,0.07714844
1977,114.9375,33.375,20.5,0.4038086,-0.6357422,-0.859375,-0.07714844,0.25,0.06494141
1981,91.75,33,22.8125,0.3417969,-0.5229492,-0.9169922,-0.07568359,0.2524414,0.05517578
1985,60.5625,26.875,21.3125,0.2915039,-0.453125,-0.9594727,-0.07470703,0.2573242,0.04882813
1989,32.5,18.3125,20.875,0.2646484,-0.4335938,-0.9672852,-0.07128906,0.2573242,0.04199219
1993,8.5,8.625,19.625,0.2451172,-0.402832,-0.9824219,-0.07226563,0.2587891,0.0390625
1997,-15.8125,-1.9375,14.25,0.2685547,-0.340332,-1.040039,-0.07128906,0.2587891,0.04052734
2001,-42.0625,-11.1875,4.375,0.3110352,-0.2666016,-1.140137,-0.06884766,0.2587891,0.04296875
2005,-73.3125,-20.875,-7.875,0.3227539,-0.2861328,-1.178711,-0.06884766,0.2573242,0.04736328
2009,-103.9375,-27.8125,-14.25,0.3188477,-0.4101563,-1.163086,-0.06982422,0.2563477,0.05517578
2013,-132.4375,-31.0625,-16.625,0.3378906,-0.519043,-1.147949,-0.07128906,0.25,0.06494141
2017,-160.1875,-31.5,-17.875,0.3730469,-0.6591797,-1.140137,-0.07226563,0.2460938,0.07714844
2022,-186.3125,-29,-19,0.3886719,-0.7680664,-1.151855,-0.07128906,0.2426758,0.09228516
2026,-209.375,-27.3125,-22.75,0.3886719,-0.8496094,-1.19043,-0.07324219,0.2338867,0.1083984
2030,-232.4375,-30.8125,-26.5625,0.3535156,-0.9892578,-1.232422,-0.07324219,0.21875,0.1274414
2034,-248.1875,-38.875,-30.6875,0.3886719,-1.22998,-1.186523,-0.07324219,0.2099609,0.1411133
2038,-253.8125,-43.5,-37.5,0.4350586,-1.397461,-1.101563,-0.07568359,0.1923828,0.1616211
2042,-254.6875,-43.0625,-43.0625,0.4814453,-1.544922,-1.047852,-0.07714844,0.1748047,0.1821289
2046,-254.6875,-36.9375,-42.1875,0.4931641,-1.606934,-1.070801,-0.07568359,0.1625977,0.1943359
2050,-250,-30.4375,-38.6875,0.543457,-1.638184,-1.155762,-0.07470703,0.1411133,0.2119141
2054,-248.625,-23.25,-49.75,0.5708008,-1.432129,-1.297852,-0.07470703,0.1201172,0.2255859
2058,-249.625,-19.625,-58.125,0.5512695,-1.455566,-1.394043,-0.07714844,0.1088867,0.2333984
2062,-251.25,-19.875,-61.375,0.4814453,-1.436035,-1.378906,-0.078125,0.08496094,0.2446289
2066,-255.875,-24.875,-59.3125,0.3959961,-1.490723,-1.297852,-0.07714844,0.06103516,0.2485352
2070,-258.3125,-34.6875,-56.625,0.3378906,-1.583984,-1.151855,-0.078125,0.04394531,0.2539063
2074,-259.4375,-53.5,-57,0.3339844,-1.638184,-1.020996,-0.078125,0.01855469,0.2592773
2078,-250.5,-79.6875,-58.9375,0.3457031,-1.708008,-0.9287109,-0.07324219,-0.006835938,0.262207
2082,-239.375,-111.5625,-71.875,0.4311523,-1.509766,-0.84375,-0.06738281,-0.02197266,0.2651367
2086,-227.4375,-137.8125,-76.9375,0.5976563,-1.160156,-1.028809,-0.05908203,-0.04443359,0.2661133
2090,-231.25,-144.9375,-101.75,0.8842773,-0.8144531,-1.063477,-0.04589844,-0.06445313,0.2651367
2094,-243.25,-100.125,-97.3125,1.031738,-0.8339844,-0.8901367,-0.03515625,-0.08056641,0.2636719
2098,-261.9375,-22.625,-65.1875,0.8769531,-0.9311523,-0.7167969,-0.02929688,-0.1005859,0.2592773
2102,-262,32,-25.5625,0.5200195,-0.9970703,-0.7094727,-0.02587891,-0.1230469,0.2539063
2106,-250.1875,39.0625,-27.5,0.1289063,-0.7641602,-0.7978516,-0.02832031,-0.1342773,0.25
2110,-217.1875,6.5,-38.125,-0.1572266,-0.6748047,-0.9633789,-0.03076172,-0.1533203,0.2402344
2114,-191.0625,-57.875,-65.25,-0.2773438,-0.6396484,-0.840332,-0.02832031,-0.1669922,0.2348633
2118,-157.8125,-91.6875,-51.0625,0.04736328,-0.7602539,-0.5361328,-0.02246094,-0.1743164,0.230957
2122,-137.8125,-73.375,-34,0.2568359,-0.6201172,-0.2592773,-0.01416016,-0.1845703,0.2270508
2126,-118.625,-46.3125,-22.0625,0.1328125,-0.4101563,-0.2744141,-0.0078125,-0.1943359,0.2211914
2130,-101.5625,-45.1875,-17.625,0.008789063,-0.3481445,-0.2900391,-0.004394531,-0.1982422,0.2202148
2134,-84,-46.8125,-15.5625,0.1132813,-0.2163086,-0.1782227,0.0009765625,-0.2045898,0.2158203
2138,-71.8125,-19.125,-5.125,0.1948242,-0.3793945,0.06738281,0.005859375,-0.2094727,0.2119141
2142,-47.25,19.6875,18.1875,0.06689453,-0.5541992,0.1479492,0.003417969,-0.2128906,0.2104492
2146,-13.625,32.875,35,-0.1303711,-0.6977539,0.105957,0.002441406,-0.2167969,0.2089844
2151,35.125,21.125,44.6875,-0.1767578,-0.7949219,-0.009277344,-0.0009765625,-0.2158203,0.2089844
2155,84.1875,-1.875,39.25,-0.05273438,-0.484375,-0.2016602,-0.005859375,-0.2119141,0.2119141
2159,109.75,-18.625,15.1875,0.09033203,-0.1035156,-0.3359375,-0.005859375,-0.2070313,0.2133789
2163,112.3125,-17.75,5.4375,0.2529297,-0.09570313,-0.2861328,-0.005859375,-0.2006836,0.2202148
2167,116.875,11.0625,20.4375,0.3496094,-0.3481445,-0.1630859,-0.003417969,-0.1933594,0.2211914
2171,129.375,46.5,39.1875,0.3339844,-0.4335938,-0.2861328,-0.0078125,-0.1894531,0.2255859
2175,148,63.5,45.125,0.2529297,-0.3598633,-0.628418,-0.01416016,-0.1791992,0.2294922
2179,154.125,52.0625,33.9375,0.1518555,-0.1928711,-0.878418,-0.01757813,-0.1733398,0.237793
2183,151.9375,32.375,28.4375,0.1635742,-0.3833008,-0.8476563,-0.0234375,-0.1630859,0.237793
2187,159.25,26.5625,34.375,0.2373047,-0.6860352,-0.7402344,-0.02929688,-0.1494141,0.2460938
2191,182.1875,32.8125,50.125,0.3266602,-0.8496094,-0.8208008,-0.03076172,-0.1430664,0.2470703
2195,205.625,32.9375,36.1875,0.3496094,-0.6123047,-1.125,-0.03662109,-0.1308594,0.2524414
2199,217.375,22,15.6875,0.4038086,-0.4257813,-1.401855,-0.03662109,-0.1118164,0.2583008
2203,206.875,19.6875,2.125,0.4814453,-0.3989258,-1.355469,-0.04003906,-0.1005859,0.262207
2207,186.1875,40.5625,20.3125,0.5629883,-0.6513672,-1.193848,-0.04150391,-0.08447266,0.2661133
2211,178.625,68.6875,38.4375,0.5200195,-0.9311523,-1.043945,-0.04736328,-0.06933594,0.269043
2215,197.0625,83.6875,55.6875,0.4658203,-1.152344,-1.105469,-0.05322266,-0.05712891,0.2675781
2219,216.6875,71.8125,38,0.3691406,-0.9116211,-1.282715,-0.05810547,-0.03955078,0.2705078
2223,218.1875,42.875,16.8125,0.3496094,-0.9389648,-1.317383,-0.06494141,-0.015625,0.2675781
2227,222.0625,27.375,9.75,0.4233398,-1.036133,-1.228516,-0.06396484,-0.004394531,0.2661133
2231,220.875,27.6875,12.4375,0.4970703,-1.004883,-1.170898,-0.06738281,0.01513672,0.2651367
2235,214.9375,41.9375,19.4375,0.5551758,-1.05127,-1.105469,-0.07128906,0.03857422,0.2592773
2239,205.0625,59.125,27.125,0.543457,-1.032227,-1.121094,-0.07226563,0.05126953,0.2553711
2243,195.9375,72.4375,31.5,0.5126953,-1.117676,-1.047852,-0.07568359,0.07128906,0.25
2247,192.75,79.5625,38.375,0.4155273,-1.160156,-1.005371,-0.07958984,0.08740234,0.2402344
2251,189.9375,73.25,45.5,0.3339844,-1.140625,-0.9980469,-0.08300781,0.1010742,0.2348633
2255,190.375,61.4375,48.4375,0.3339844,-1.222656,-0.9091797,-0.08544922,0.1176758,0.2255859
2259,194.75,51.1875,51.125,0.3417969,-1.237793,-0.8168945,-0.08886719,0.1337891,0.2143555
2263,196.9375,43.6875,54.6875,0.3959961,-1.257324,-0.7475586,-0.08886719,0.1459961,0.2050781
2267,194.0625,37.8125,51.625,0.4311523,-1.167969,-0.7475586,-0.08886719,0.1611328,0.1914063
2271,190.375,35.8125,40.4375,0.4775391,-1.179688,-0.6938477,-0.08789063,0.1748047,0.1777344
2275,190.125,38.625,38.0625,0.4814453,-1.207031,-0.6708984,-0.08789063,0.1860352,0.1699219
2280,185.3125,40.125,37.625,0.4311523,-1.15625,-0.6787109,-0.08789063,0.1987305,0.1533203
2284,177.375,37.125,39.125,0.3925781,-1.062988,-0.7285156,-0.08642578,0.2114258,0.137207
2288,163.9375,33.3125,36.3125,0.3925781,-1.055176,-0.6552734,-0.08544922,0.2172852,0.1259766
2292,151.8125,32.9375,37.25,0.4116211,-1.098145,-0.628418,-0.08300781,0.2250977,0.1113281
2296,141.4375,32.625,36.0625,0.3999023,-1.133301,-0.5898438,-0.08300781,0.2363281,0.09765625
2300,138.625,29.3125,28.8125,0.3691406,-1.055176,-0.6132813,-0.078125,0.2397461,0.08691406
2304,130.0625,17.375,21.25,0.3110352,-0.9311523,-0.7016602,-0.07714844,0.2460938,0.07421875
2308,117.9375,-0.5,11.0625,0.2685547,-0.7753906,-0.7939453,-0.07568359,0.25,0.06347656
2312,99,-20.9375,-2.0625,0.2724609,-0.6162109,-0.8823242,-0.07568359,0.2548828,0.05517578
2316,73.625,-32.6875,-8.4375,0.3305664,-0.4453125,-0.9018555,-0.07470703,0.2548828,0.04882813
2320,44.6875,-26.625,2,0.4233398,-0.4492188,-0.9130859,-0.07324219,0.2563477,0.04443359
2324,15.4375,-7.5625,18.6875,0.4580078,-0.3481445,-0.9516602,-0.07324219,0.2597656,0.04052734
2328,-15.8125,9.375,25.6875,0.4194336,-0.2045898,-1.028809,-0.06982422,0.2612305,0.04052734
2332,-51.1875,10.5,19.375,0.3417969,-0.1269531,-1.174805,-0.06884766,0.2587891,0.04443359
2336,-83.8125,-3.25,1.8125,0.2954102,-0.1499023,-1.251953,-0.06884766,0.2587891,0.04736328
2340,-109.875,-22.375,-17.8125,0.2836914,-0.2202148,-1.255371,-0.06982422,0.2563477,0.05664063
2344,-135.3125,-37.875,-34.3125,0.3339844,-0.2900391,-1.263184,-0.07226563,0.25,0.06640625
2348,-163.875,-44.125,-42.1875,0.3691406,-0.4648438,-1.26709,-0.07128906,0.2475586,0.07861328
2352,-189.3125,-42.875,-41.625,0.4077148,-0.6552734,-1.305664,-0.07568359,0.2412109,0.09326172
2356,-217.5625,-38.5625,-41.4375,0.4272461,-0.7641602,-1.320801,-0.07714844,0.2299805,0.1123047
2360,-240.5625,-33.125,-41.0625,0.4350586,-0.9116211,-1.320801,-0.078125,0.2197266,0.1259766
2364,-261.25,-30.0625,-43.25,0.4233398,-1.008789,-1.432617,-0.07958984,0.2050781,0.1479492
2368,-286.5625,-36.0625,-50,0.3769531,-1.191406,-1.471191,-0.08203125,0.1875,0.168457
2372,-299.75,-44.625,-46.125,0.3496094,-1.521484,-1.44043,-0.08203125,0.1713867,0.1831055
2376,-306.5,-51.75,-36.5,0.3378906,-1.618652,-1.397949,-0.08300781,0.1489258,0.2050781
2380,-308.3125,-59.1875,-33.1875,0.3925781,-1.758789,-1.382324,-0.08056641,0.1210938,0.2241211
2384,-302,-60.5625,-31.875,0.4931641,-1.972168,-1.236328,-0.078125,0.1049805,0.2333984
2388,-280.125,-56.1875,-31.75,0.5898438,-2.022949,-1.113281,-0.07324219,0.08007813,0.2460938
2392,-255.9375,-46.25,-31.875,0.6171875,-1.968262,-1.055664,-0.07226563,0.05517578,0.2539063
2396,-233.625,-32.5625,-27,0.6289063,-1.828613,-1.024902,-0.07226563,0.03857422,0.2592773
2400,-241.1875,-20,-12.6875,0.6674805,-1.657715,-0.9633789,-0.07128906,0.01611328,0.262207
2404,-240.6875,0.5625,-1.25,0.644043,-1.681152,-0.8671875,-0.06884766,-0.004394531,0.2675781
2409,-239.375,10.6875,-7.125,0.5126953,-1.370117,-0.8745117,-0.06884766,-0.01953125,0.2651367
2413,-225.1875,1.9375,-20.625,0.3574219,-1.276855,-0.9633789,-0.06884766,-0.03955078,0.2636719
2417,-201.75,-27.9375,-42.4375,0.2758789,-0.8764648,-1.244141,-0.06982422,-0.05957031,0.262207
2421,-203.375,-58.9375,-82.8125,0.3188477,-0.4570313,-1.420898,-0.06396484,-0.07177734,0.262207
2425,-237.0625,-72.25,-77.875,0.3574219,-0.7290039,-1.197754,-0.05908203,-0.09179688,0.2592773
2429,-256.8125,-62.5625,-47.4375,0.3305664,-0.8339844,-1.028809,-0.05224609,-0.1132813,0.2539063
2433,-258,-56.125,-16.75,0.2797852,-1.012695,-0.9902344,-0.04833984,-0.1254883,0.2524414
2437,-241.1875,-58.375,-19.8125,0.3032227,-0.6240234,-1.070801,-0.04248047,-0.1430664,0.2446289
2441,-243.5,-75.125,-42.5,0.2373047,-0.402832,-1.13623,-0.03417969,-0.1621094,0.2392578
2445,-245.875,-90.25,-52.375,0.2529297,-0.5698242,-0.840332,-0.02832031,-0.1733398,0.2348633
2449,-237.375,-85.75,-32.0625,0.2373047,-0.8261719,-0.4516602,-0.01855469,-0.1894531,0.2255859
2453,-199.5,-62.0625,-0.4375,0.3110352,-1.016602,-0.109375,-0.01025391,-0.2045898,0.2172852
2457,-140.25,-44.1875,-14.5625,0.3574219,-0.7832031,0.1713867,-0.0078125,-0.2104492,0.2133789
2461,-76.6875,-31.6875,-36.75,0.4541016,-0.7133789,0.2368164,-0.001953125,-0.2192383,0.2089844
2465,-19.8125,-8.6875,-59.0625,0.4467773,-0.4453125,0.2480469,0.003417969,-0.2231445,0.206543
2469,8.0625,25.0625,-46.25,0.3613281,-0.3481445,0.144043,0.004394531,-0.2246094,0.2021484
2473,12.75,46.125,-29.875,0.07470703,-0.1269531,0.04052734,0.003417969,-0.2216797,0.206543
2477,22,49.25,-6.125,-0.07226563,-0.3017578,-0.04736328,0.0009765625,-0.2192383,0.2080078
2481,41.75,41.625,4.75,-0.1303711,-0.2470703,-0.1323242,-0.001953125,-0.2192383,0.206543
2485,60.8125,30.5625,6.8125,-0.1303711,-0.2626953,-0.1899414,-0.004394531,-0.2158203,0.2080078
2489,82.8125,19.1875,6.1875,-0.1147461,-0.2431641,-0.2861328,-0.006835938,-0.2128906,0.2133789
2493,94.75,7.9375,1.875,-0.06445313,-0.1420898,-0.394043,-0.006835938,-0.2080078,0.2158203
2497,105.9375,1.25,-0.25,-0.002441406,-0.2124023,-0.3974609,-0.009277344,-0.2006836,0.2172852
2501,122.8125,5.4375,1.3125,0.09033203,-0.2353516,-0.4438477,-0.009277344,-0.1967773,0.2211914
2505,133.375,17.6875,7.9375,0.1171875,-0.355957,-0.4438477,-0.01269531,-0.1879883,0.2255859
2509,149.6875,34.375,20.125,0.1289063,-0.5073242,-0.4746094,-0.01416016,-0.1806641,0.2280273
2513,169.6875,43,27.875,0.159668,-0.5385742,-0.7094727,-0.01855469,-0.1704102,0.2363281
2517,187.875,42.5,19.25,0.1948242,-0.4414063,-0.894043,-0.02246094,-0.1630859,0.2392578
2521,192.5625,42.625,13.875,0.2255859,-0.46875,-0.9941406,-0.02685547,-0.1494141,0.2460938
2525,191.3125,47,21.0625,0.1948242,-0.6669922,-0.9091797,-0.03320313,-0.1357422,0.2485352
2529,193.625,54.1875,42.25,0.2104492,-0.8686523,-0.8364258,-0.03515625,-0.1279297,0.2524414
2533,209.6875,61.0625,66.3125,0.2724609,-1.207031,-0.9091797,-0.0390625,-0.1108398,0.2592773
2538,237.1875,51.0625,58.625,0.3535156,-0.7641602,-1.259277,-0.04736328,-0.09179688,0.262207
2542,227.25,40.5,39.75,0.4658203,-0.7446289,-1.244141,-0.04980469,-0.07714844,0.2651367
2546,217.8125,48.8125,37.125,0.4853516,-1.040039,-1.05957,-0.05419922,-0.05712891,0.2661133
2550,214.0625,67.8125,55.9375,0.5048828,-1.42041,-0.840332,-0.06054688,-0.03955078,0.269043
2554,227.375,91.6875,87.3125,0.5009766,-1.711914,-0.7514648,-0.06396484,-0.02587891,0.269043
2558,250,89.5,90.125,0.4697266,-1.692383,-0.8632813,-0.07128906,-0.0004882813,0.2636719
2562,278.4375,68.6875,44.125,0.578125,-1.583984,-0.9555664,-0.07568359,0.02246094,0.262207
2566,300.9375,55.25,-4.25,0.644043,-1.591309,-1.051758,-0.08056641,0.04248047,0.2583008
2570,298.125,50.875,-26.5625,0.5200195,-1.393555,-1.205566,-0.08300781,0.06884766,0.2460938
2574,276.625,62.6875,1.0625,0.527832,-1.669434,-1.094238,-0.08642578,0.09228516,0.237793
2578,270.3125,93.625,59.8125,0.559082,-1.630371,-1.066895,-0.09033203,0.1088867,0.2270508
2582,253.6875,100.75,85.125,0.4853516,-1.509766,-1.121094,-0.09228516,0.1323242,0.2119141
2586,250.625,87.8125,89,0.4428711,-1.529297,-1.121094,-0.09716797,0.1538086,0.1943359
2590,248.25,64.5,85.125,0.4233398,-1.459473,-1.151855,-0.09619141,0.1660156,0.1821289
2594,242.25,40.875,77.8125,0.4775391,-1.42041,-1.097656,-0.09472656,0.1875,0.1630859
2598,236.4375,30.3125,73.4375,0.5820313,-1.45166,-1.032227,-0.09228516,0.2050781,0.1425781
2602,229.375,35.0625,78.5,0.6635742,-1.42041,-0.9863281,-0.08886719,0.2163086,0.1313477
2606,215.875,43.625,83.125,0.6518555,-1.34668,-0.9707031,-0.08300781,0.2299805,0.105957
2610,200.6875,47,87,0.6132813,-1.214844,-0.9555664,-0.07714844,0.2412109,0.08935547
2614,185.5,40.8125,79.875,0.5668945,-1.094238,-0.9248047,-0.07470703,0.2460938,0.07568359
2618,175.8125,28.8125,66.1875,0.5356445,-0.9736328,-0.9360352,-0.06640625,0.2548828,0.05810547
2622,163.875,11.5625,45.375,0.4814453,-0.7753906,-0.9516602,-0.05810547,0.262207,0.0390625
2626,151.875,-6.5,27.125,0.4428711,-0.6318359,-0.9824219,-0.05810547,0.262207,0.02832031
2630,133.75,-21.0625,9,0.4580078,-0.4179688,-1.009277,-0.05322266,0.2661133,0.01611328
2634,102.8125,-25.875,-2.875,0.5087891,-0.2241211,-1.032227,-0.05419922,0.2675781,0.006347656
2638,62.75,-20.9375,-4.8125,0.5317383,-0.08789063,-1.070801,-0.05566406,0.2709961,-0.001464844
2642,17.5,-10,-2.4375,0.527832,-0.01416016,-1.13623,-0.05566406,0.2700195,-0.005371094
2646,-28.125,-5.3125,-5.875,0.4892578,0.004882813,-1.15918,-0.05664063,0.2685547,-0.005371094
2650,-64.1875,-8.5625,-19.6875,0.4428711,-0.09960938,-1.140137,-0.05419922,0.2685547,-0.002441406
2654,-90.375,-16.5,-39.625,0.4116211,-0.2431641,-1.08252,-0.05908203,0.2700195,0.00390625
2658,-114.1875,-25.5625,-57.5625,0.3691406,-0.3793945,-1.040039,-0.06152344,0.2675781,0.01464844
2662,-136.75,-33.0625,-65.625,0.3378906,-0.503418,-1.066895,-0.06738281,0.2636719,0.02294922
2667,-162.375,-38.125,-65.0625,0.3378906,-0.6240234,-1.074707,-0.07226563,0.2587891,0.03759766
2671,-190.6875,-40.125,-60.3125,0.3496094,-0.7524414,-1.105469,-0.07714844,0.2524414,0.05664063
2675,-217.75,-37.125,-55,0.4233398,-0.9350586,-1.086426,-0.08056641,0.2460938,0.06884766
2679,-239.3125,-32.5,-57.375,0.4506836,-1.121582,-1.101563,-0.08544922,0.2373047,0.09228516
2683,-255.6875,-28.1875,-61.375,0.4775391,-1.362305,-1.078613,-0.08789063,0.2226563,0.1152344
2687,-267,-27.75,-62.875,0.4428711,-1.517578,-1.090332,-0.09033203,0.2138672,0.1303711
2691,-279.0625,-35.1875,-59.0625,0.3925781,-1.638184,-1.125,-0.09375,0.1938477,0.1518555
2695,-287.375,-47.3125,-54.0625,0.3886719,-1.708008,-1.19043,-0.09716797,0.1748047,0.1738281
2699,-291.9375,-60.9375,-54.125,0.4931641,-1.809082,-1.15918,-0.09472656,0.1625977,0.1875
2703,-277.9375,-72.3125,-74.625,0.609375,-1.890625,-1.155762,-0.09716797,0.1362305,0.2080078
2707,-254.8125,-96.5625,-105,0.578125,-1.890625,-1.217285,-0.09472656,0.1152344,0.2211914
2711,-228.75,-134.6875,-129.3125,0.5161133,-1.692383,-1.359375,-0.09375,0.09863281,0.2333984
2715,-231.375,-164.8125,-129.1875,0.5898438,-1.517578,-1.455566,-0.08789063,0.07519531,0.2446289
2719,-256.25,-159,-98.25,0.7954102,-1.513672,-1.375,-0.07568359,0.04882813,0.2539063
2723,-289,-116.6875,-50.0625,0.9194336,-1.630371,-1.251953,-0.07128906,0.03125,0.2607422
2727,-314.0625,-67.5,-15.875,0.8457031,-1.626465,-1.178711,-0.06396484,0.001464844,0.2651367
2731,-321.0625,-34.25,-2,0.7719727,-1.704102,-0.9980469,-0.05908203,-0.02587891,0.2675781
2735,-303.25,-22.3125,-0.25,0.5898438,-1.61084,-0.9746094,-0.05810547,-0.046875,0.2651367
2739,-276.75,-45.1875,-27.3125,0.3999023,-1.125488,-1.128418,-0.05566406,-0.07177734,0.2636719
2743,-265.3125,-73,-51.5625,0.4077148,-1.040039,-1.151855,-0.04980469,-0.09423828,0.2607422
2747,-261.5625,-88.1875,-60.75,0.3847656,-0.8574219,-1.109375,-0.04394531,-0.1108398,0.2583008
2751,-267,-90.1875,-50.125,0.3999023,-0.9580078,-0.8901367,-0.03417969,-0.1308594,0.2514648
2755,-250.375,-75.8125,-40.9375,0.4541016,-0.9311523,-0.6977539,-0.02587891,-0.1508789,0.2446289
2759,-222.4375,-70.875,-43.8125,0.4194336,-0.7641602,-0.8017578,-0.0234375,-0.1606445,0.237793
2763,-197.9375,-79.5625,-67.375,0.3808594,-0.5229492,-0.840332,-0.01416016,-0.1757813,0.230957
2767,-179.5,-74.625,-58.25,0.4233398,-0.5620117,-0.7133789,-0.003417969,-0.1870117,0.2255859
2771,-182.125,-54.25,-41.3125,0.4814453,-0.3017578,-0.4902344,0.0009765625,-0.1943359,0.2211914
2775,-183.875,-14.625,-16.5,0.4970703,-0.5424805,-0.1245117,0.005859375,-0.2045898,0.2119141
2779,-152.9375,32.625,11.1875,0.3847656,-0.7563477,0.159668,0.008300781,-0.2167969,0.206543
2783,-101.1875,53.1875,17.25,0.09033203,-0.7753906,0.3017578,0.005859375,-0.2216797,0.2021484
2787,-37.1875,48.625,19.625,-0.1186523,-0.7949219,0.340332,0.0009765625,-0.2255859,0.199707
2791,12.375,16.625,2.9375,-0.2387695,-0.46875,0.125,-0.001953125,-0.2280273,0.1982422
2796,52.25,-5.25,-7.125,-0.08007813,-0.4375,0.05175781,-0.001953125,-0.2255859,0.199707
2800,75.1875,-10.1875,-8,0.07470703,-0.1733398,-0.1323242,-0.0009765625,-0.2207031,0.2036133
2804,79.875,4.8125,-3.6875,0.2333984,-0.02978516,-0.1821289,-0.003417969,-0.2158203,0.206543
2808,75.0625,34.75,13.5625,0.2529297,-0.06835938,-0.2055664,-0.001953125,-0.2119141,0.2104492
2812,77.75,51.9375,21,0.109375,-0.1655273,-0.2436523,-0.005859375,-0.2070313,0.2119141
2816,93.3125,53.75,25.9375,-0.01025391,-0.3442383,-0.2900391,-0.01025391,-0.203125,0.2133789
2820,119,42.875,28.9375,-0.04492188,-0.4765625,-0.3325195,-0.01513672,-0.2006836,0.2172852
2824,146.125,31.5,26.625,0.03173828,-0.4492188,-0.4208984,-0.01855469,-0.1918945,0.2202148
2828,170.4375,23.6875,25,0.125,-0.4453125,-0.6787109,-0.02246094,-0.1821289,0.2255859
2832,180.6875,17.125,14.9375,0.2294922,-0.2587891,-0.809082,-0.02490234,-0.1743164,0.2294922
2836,175.0625,36.3125,30.625,0.4077148,-0.5112305,-0.6821289,-0.02832031,-0.1621094,0.2348633
2840,172.5625,72.0625,61.25,0.4506836,-0.7753906,-0.5517578,-0.03173828,-0.1508789,0.2402344
2844,187.4375,87.4375,80.9375,0.3457031,-0.8535156,-0.8129883,-0.0390625,-0.1420898,0.2460938
2848,207.0625,69.875,68.875,0.3110352,-0.8764648,-0.9980469,-0.04833984,-0.1269531,0.25
2852,235.5625,41.25,45.25,0.3613281,-0.6669922,-1.363281,-0.05566406,-0.109375,0.2539063
2856,233.4375,17.3125,12.375,0.4736328,-0.4921875,-1.375,-0.05810547,-0.09716797,0.2583008
2860,213.5625,38.375,30.5625,0.625,-0.7094727,-1.174805,-0.06152344,-0.07958984,0.262207
2864,187.5,73,66.875,0.5859375,-0.9077148,-1.043945,-0.06396484,-0.06201172,0.2636719
2868,183.875,91.125,95.25,0.5239258,-1.253418,-0.9902344,-0.06884766,-0.05078125,0.262207
2872,201.4375,76.4375,89.125,0.4194336,-1.288574,-1.05957,-0.07714844,-0.02929688,0.2651367
2876,225.5625,50.0625,75.25,0.4814453,-1.374023,-1.051758,-0.08300781,-0.008300781,0.262207
2880,240.375,32.0625,59.0625,0.5898438,-1.300293,-1.032227,-0.08398438,0.006347656,0.2583008
2884,252.625,28.5625,47.875,0.644043,-1.171875,-1.13623,-0.08544922,0.03125,0.2539063
2888,239.4375,38.375,48.75,0.7216797,-1.094238,-1.13623,-0.08642578,0.05371094,0.25
2892,215.6875,61.25,69.25,0.7294922,-1.226563,-1.051758,-0.08789063,0.06982422,0.2446289
2896,202.6875,77.375,88.25,0.6557617,-1.416504,-0.9672852,-0.08886719,0.08984375,0.2348633
2900,205.0625,77.9375,93.0625,0.5356445,-1.467285,-0.9902344,-0.09130859,0.1113281,0.2270508
2904,212.625,61.4375,83.6875,0.4658203,-1.479004,-0.9824219,-0.09228516,0.1235352,0.2211914
2908,223,43.6875,74.25,0.4467773,-1.45166,-1.005371,-0.09228516,0.1411133,0.2080078
2912,228.625,26.75,53.5625,0.4775391,-1.513672,-0.8208008,-0.09130859,0.1611328,0.1914063
2916,225.6875,28.875,58.375,0.4697266,-1.312012,-0.9633789,-0.08886719,0.1723633,0.1821289
2920,216.875,30.375,56.4375,0.5317383,-1.245605,-0.8979492,-0.08789063,0.1899414,0.1630859
2925,210.75,37.6875,56.6875,0.527832,-1.249512,-0.8710938,-0.08398438,0.2036133,0.1479492
2929,201.75,43.5625,57.25,0.4853516,-1.160156,-0.8823242,-0.08203125,0.2138672,0.1342773
2933,189.625,37.625,48.6875,0.4389648,-1.055176,-0.8862305,-0.07958984,0.2260742,0.1152344
2937,179.4375,29.125,39.375,0.4194336,-1.059082,-0.84375,-0.07714844,0.2348633,0.09912109
2941,168.25,23.8125,38.3125,0.3999023,-1.008789,-0.7939453,-0.07568359,0.2397461,0.08691406
2945,156.375,21.5625,38.1875,0.4116211,-0.9077148,-0.7861328,-0.07324219,0.2485352,0.07421875
2949,143.125,20.6875,36.8125,0.4116211,-0.8144531,-0.8017578,-0.06884766,0.2539063,0.05810547
2953,123.5,13.25,27.0625,0.3847656,-0.5927734,-0.8710938,-0.06640625,0.2563477,0.04736328
2957,101.75,1.4375,11.9375,0.3769531,-0.503418,-0.8901367,-0.06396484,0.2587891,0.03613281
2961,80.5,-6.625,2.5,0.4116211,-0.4335938,-0.8823242,-0.06494141,0.262207,0.02832031
2965,53.1875,-7.125,-1.75,0.4389648,-0.3286133,-0.8862305,-0.06298828,0.262207,0.02392578
2969,24.25,-4.375,-2.8125,0.4428711,-0.2783203,-0.9287109,-0.06054688,0.2636719,0.02148438
2973,-4.1875,-5.125,-11.25,0.4194336,-0.1269531,-1.070801,-0.06396484,0.2651367,0.01708984
2977,-41.625,-17.5625,-30.25,0.3613281,-0.05664063,-1.163086,-0.06298828,0.2675781,0.01855469
2981,-73.625,-32.875,-44.1875,0.3496094,-0.2509766,-1.13623,-0.06640625,0.262207,0.02392578
2985,-99.25,-45.5625,-54.625,0.3574219,-0.4101563,-1.109375,-0.07128906,0.2597656,0.03369141
2989,-120.6875,-49.4375,-60.3125,0.4194336,-0.6201172,-1.047852,-0.07470703,0.2587891,0.04443359
2993,-145.125,-43.75,-63.5625,0.4389648,-0.6318359,-1.090332,-0.07958984,0.2524414,0.05664063
2997,-176.875,-39.25,-64.4375,0.3847656,-0.7290039,-1.140137,-0.08398438,0.2460938,0.0703125
3001,-206.25,-40.5625,-58.1875,0.3417969,-0.9853516,-1.151855,-0.08544922,0.2387695,0.08398438
3005,-229.8125,-44.6875,-51.5625,0.3378906,-1.125488,-1.125,-0.09130859,0.2275391,0.1015625
3009,-246,-50.375,-48.625,0.3886719,-1.354492,-1.055664,-0.09375,0.2148438,0.1274414
3013,-247.9375,-54.9375,-51.125,0.4580078,-1.564453,-0.9707031,-0.09375,0.2036133,0.1411133
3017,-245.4375,-57.8125,-59,0.5087891,-1.521484,-0.9746094,-0.09472656,0.1860352,0.1601563
3021,-253.5,-60.25,-57.4375,0.527832,-1.630371,-0.9326172,-0.09472656,0.1674805,0.1806641
3025,-259.125,-61.875,-49.25,0.5087891,-1.552734,-0.9902344,-0.09375,0.15625,0.1914063
3029,-271.25,-66.5,-39.375,0.5048828,-1.595215,-1.020996,-0.09472656,0.1362305,0.2080078
3033,-276.75,-69.875,-28.375,0.5551758,-1.653809,-1.020996,-0.08886719,0.1113281,0.2255859
3037,-276.3125,-64.75,-26.5625,0.6870117,-1.692383,-0.9477539,-0.08886719,0.09619141,0.2348633
3041,-262.3125,-54.375,-39.25,0.6982422,-1.591309,-0.9287109,-0.08642578,0.07275391,0.2431641
3045,-256.4375,-48.375,-47.4375,0.6362305,-1.48291,-0.9824219,-0.08300781,0.04736328,0.2524414
3049,-250.1875,-46.8125,-49.0625,0.5239258,-1.389648,-1.036133,-0.08056641,0.03027344,0.2568359
3054,-246.625,-54.25,-48.5625,0.4311523,-1.276855,-1.109375,-0.078125,0.004882813,0.262207
3058,-240.5625,-61.125,-38.9375,0.4233398,-1.233887,-1.15918,-0.07324219,-0.01464844,0.2636719
3062,-245.4375,-69.1875,-40.3125,0.3808594,-1.05127,-1.193848,-0.06982422,-0.03173828,0.2651367
3066,-253.5,-71.6875,-24.8125,0.3652344,-1.144531,-1.178711,-0.06396484,-0.05566406,0.2636719
3070,-255.0625,-76.5,-15.25,0.3496094,-1.210938,-1.128418,-0.05664063,-0.07714844,0.2636719
3074,-237.6875,-74.8125,-21.375,0.3769531,-1.000977,-1.20166,-0.05322266,-0.09082031,0.2592773
3078,-231.75,-75.6875,-30.25,0.2993164,-0.8613281,-1.144043,-0.04736328,-0.1108398,0.2539063
3082,-223.9375,-83.6875,-40.3125,0.2104492,-0.5268555,-1.170898,-0.03759766,-0.1279297,0.2514648
3086,-223.0625,-106.75,-53.3125,0.1557617,-0.2241211,-1.30957,-0.03173828,-0.1381836,0.25
3090,-238.125,-125.125,-55.8125,0.2333984,-0.2470703,-1.109375,-0.02099609,-0.1557617,0.2431641
3094,-252.0625,-113.75,-7.375,0.2954102,-0.7563477,-0.7441406,-0.009277344,-0.1733398,0.2333984
3098,-242.625,-80.8125,47.375,0.3886719,-0.7832031,-0.574707,-0.001953125,-0.1831055,0.2270508
3102,-226.25,-57.1875,56.375,0.3417969,-0.7832031,-0.34375,0.0009765625,-0.1992188,0.2172852
3106,-179.875,-42.4375,50.6875,0.2758789,-0.9038086,-0.1054688,0.006835938,-0.2128906,0.2089844
3110,-126.3125,-39.9375,41.8125,0.206543,-0.8496094,0.105957,0.004394531,-0.2207031,0.206543
3114,-66.4375,-26.5,49.3125,0.3808594,-0.6044922,0.06738281,0.006835938,-0.2270508,0.2011719
3118,-35.5625,-9.1875,29.9375,0.3613281,-0.4335938,0.1748047,0.006835938,-0.2294922,0.1982422
3122,7.4375,10.375,20.875,0.3188477,-0.4375,0.07910156,0.005859375,-0.2294922,0.1982422
3126,30.625,26.1875,16,0.2607422,-0.2045898,-0.1206055,0.005859375,-0.2294922,0.199707
3130,46.125,40.25,11.0625,0.190918,-0.1538086,-0.2128906,0.0009765625,-0.2255859,0.2011719
3134,55.5,45.9375,10.375,0.03564453,-0.04882813,-0.4091797,-0.0009765625,-0.2255859,0.199707
3138,54.8125,36.25,12.6875,-0.1069336,-0.1035156,-0.4628906,-0.004394531,-0.2207031,0.2036133
3142,65.5625,20.4375,15.5,-0.1806641,-0.1459961,-0.4902344,-0.0078125,-0.2182617,0.206543
3146,78.25,2.375,18.1875,-0.1499023,-0.1811523,-0.4667969,-0.009277344,-0.2119141,0.2089844
3150,96.6875,-9.5625,13.625,-0.02587891,-0.1733398,-0.5400391,-0.01269531,-0.2094727,0.2104492
3154,114.4375,-14.125,4.625,0.1132813,-0.2509766,-0.5708008,-0.01269531,-0.2016602,0.2143555
3158,134.6875,-4.6875,-0.5,0.2685547,-0.2392578,-0.7094727,-0.01171875,-0.1992188,0.21875
3162,138.125,11.625,-8.375,0.2724609,-0.1152344,-0.824707,-0.01025391,-0.1904297,0.2241211
3166,145.125,29.1875,-2.5625,0.2216797,-0.3364258,-0.8129883,-0.01513672,-0.1806641,0.2294922
3170,156.1875,45.6875,12.75,0.159668,-0.4648438,-0.8017578,-0.01757813,-0.1743164,0.2324219
3174,168.8125,55.875,30.5,0.1445313,-0.6899414,-0.7900391,-0.0234375,-0.1645508,0.2402344
3178,189.5,59.6875,38.625,0.2138672,-0.6669922,-0.9326172,-0.02929688,-0.1508789,0.2431641
3183,199.75,58.3125,33.625,0.3417969,-0.6162109,-1.024902,-0.03320313,-0.140625,0.2485352
3187,215.75,61.6875,25.4375,0.4155273,-0.6591797,-1.074707,-0.04003906,-0.1254883,0.2553711
3191,220.375,67.75,25.0625,0.3959961,-0.8300781,-1.066895,-0.04833984,-0.1083984,0.2583008
3195,219.3125,72.8125,37.9375,0.3496094,-0.9814453,-1.009277,-0.05322266,-0.09716797,0.2607422
3199,230.375,68.1875,48.6875,0.3339844,-0.8647461,-1.147949,-0.05908203,-0.07568359,0.2636719
3203,222.875,60.1875,39.6875,0.4233398,-0.6669922,-1.248047,-0.06494141,-0.05566406,0.2636719
3207,215.125,53.625,20.875,0.4311523,-0.6357422,-1.290039,-0.06738281,-0.04199219,0.2651367
3211,202.5625,40.1875,3.0625,0.2954102,-0.7949219,-1.274902,-0.07470703,-0.02197266,0.2636719
3215,194.875,27.125,14,0.190918,-1.121582,-1.121094,-0.07470703,-0.004394531,0.2636719
3219,200.1875,28.1875,38.75,0.3149414,-1.210938,-0.9785156,-0.07714844,0.007324219,0.2607422
3223,203.4375,38.5625,47.375,0.3808594,-1.288574,-0.9248047,-0.07958984,0.02636719,0.2583008
3227,215.625,42.0625,50.1875,0.3032227,-1.42041,-0.9399414,-0.07958984,0.04736328,0.2524414
3231,225.8125,29.5,45.4375,0.2333984,-1.381836,-1.009277,-0.08203125,0.0625,0.2514648
3235,233.9375,10,38,0.2490234,-1.362305,-0.9824219,-0.08203125,0.08398438,0.2431641
3239,240.75,1.125,36.9375,0.3457031,-1.401367,-0.8979492,-0.078125,0.1049805,0.2324219
3243,240.75,9.1875,41.0625,0.4580078,-1.34668,-0.8745117,-0.08056641,0.1186523,0.2270508
3247,238,27.8125,52,0.4853516,-1.479004,-0.824707,-0.07714844,0.1386719,0.2143555
3251,238.625,45.0625,63.5,0.4619141,-1.548828,-0.8208008,-0.07714844,0.1577148,0.1967773
3255,234.1875,52.25,66.625,0.4389648,-1.42041,-0.9248047,-0.07568359,0.1699219,0.1845703
3259,226.75,48.125,60.25,0.3847656,-1.494629,-0.8710938,-0.07324219,0.1860352,0.1699219
3263,227.625,39.375,56.875,0.3417969,-1.505859,-0.8286133,-0.07128906,0.2050781,0.1508789
3267,229.875,30,52.1875,0.3378906,-1.471191,-0.7939453,-0.07128906,0.2148438,0.1357422
3271,224.3125,25.0625,50.3125,0.3574219,-1.280762,-0.84375,-0.06640625,0.2275391,0.1166992
3275,202.125,20.125,48.375,0.3652344,-1.043945,-0.894043,-0.06298828,0.2387695,0.09765625
3279,181.3125,15.5,44.5625,0.3378906,-0.9506836,-0.9169922,-0.06054688,0.2451172,0.08691406
3283,162.9375,6.375,37.8125,0.3149414,-0.7680664,-0.9707031,-0.05566406,0.2524414,0.06787109
3287,142,-6.125,24.25,0.3110352,-0.5229492,-1.051758,-0.05078125,0.2573242,0.05273438
3291,121.25,-20.125,15.125,0.2836914,-0.453125,-1.101563,-0.04980469,0.262207,0.04589844
3295,92.4375,-31.75,7.125,0.3071289,-0.2431641,-1.178711,-0.05078125,0.2651367,0.03369141
3299,57.5625,-39.1875,0,0.3378906,-0.1308594,-1.236328,-0.04589844,0.2661133,0.02685547
3303,20.5625,-35.625,-3.1875,0.4038086,-0.02197266,-1.278809,-0.04736328,0.2661133,0.02539063
3307,-20.8125,-24.875,-7.5625,0.4814453,0.01269531,-1.305664,-0.04833984,0.2661133,0.02685547
3312,-63.875,-10.25,-14,0.4970703,0.02441406,-1.328613,-0.04736328,0.2675781,0.02832031
3316,-106.875,-0.6875,-21.25,0.3959961,-0.07617188,-1.328613,-0.04833984,0.2651367,0.03369141
3320,-143.3125,-2.625,-27.5625,0.2915039,-0.2822266,-1.297852,-0.05078125,0.262207,0.04443359
3324,-171.0625,-11.0625,-31.25,0.2373047,-0.4804688,-1.251953,-0.05419922,0.2573242,0.06103516
3328,-195.875,-21.5,-36.75,0.2490234,-0.6474609,-1.232422,-0.05664063,0.2509766,0.0703125
3332,-212.4375,-27.9375,-43.3125,0.3305664,-0.8457031,-1.20166,-0.05908203,0.2451172,0.08935547
3336,-229.25,-27.0625,-51.125,0.3886719,-0.9853516,-1.193848,-0.06298828,0.2338867,0.1123047
3340,-246.1875,-23.0625,-53.4375,0.4038086,-1.21875,-1.170898,-0.06640625,0.2236328,0.125
3344,-260.875,-18.9375,-48.375,0.4038086,-1.389648,-1.197754,-0.06884766,0.2114258,0.1464844
3348,-272.5625,-20.3125,-46.75,0.4077148,-1.490723,-1.228516,-0.06982422,0.1914063,0.168457
3352,-277.75,-24.75,-50.8125,0.4541016,-1.622559,-1.213379,-0.07324219,0.1772461,0.1821289
3356,-273.625,-32.5625,-64.9375,0.4853516,-1.700195,-1.209473,-0.07714844,0.1547852,0.2011719
3360,-271.25,-41.8125,-77.375,0.4931641,-1.708008,-1.232422,-0.07958984,0.1323242,0.2172852
3364,-275.625,-46.5625,-73.5,0.5200195,-1.758789,-1.209473,-0.07714844,0.1162109,0.2280273
3368,-282.75,-43.5625,-58.5625,0.4970703,-1.649902,-1.244141,-0.07714844,0.09228516,0.2402344
3372,-298.0625,-43.625,-43.125,0.4619141,-1.475098,-1.375,-0.07470703,0.06396484,0.2524414
3376,-312.625,-47.8125,-33.4375,0.4853516,-1.544922,-1.359375,-0.07470703,0.04492188,0.2583008
3380,-301.625,-40.4375,-36.375,0.5898438,-1.513672,-1.270996,-0.07226563,0.01513672,0.2651367
3384,-297.0625,-32.75,-43.5625,0.5708008,-1.385742,-1.251953,-0.06884766,-0.01318359,0.2651367
3388,-297.625,-29,-48.375,0.543457,-1.249512,-1.259277,-0.06884766,-0.03173828,0.2661133
3392,-304.4375,-27.1875,-51.25,0.5317383,-1.171875,-1.301758,-0.06494141,-0.05957031,0.2661133
3396,-302.25,-32.8125,-55.875,0.4428711,-0.9233398,-1.478516,-0.06152344,-0.08935547,0.2636719
3400,-303.5625,-49.75,-67.5,0.4775391,-0.8183594,-1.520996,-0.05908203,-0.1054688,0.2568359
3404,-300.5,-51.75,-79.9375,0.543457,-0.7290039,-1.471191,-0.05224609,-0.1308594,0.25
3408,-300.4375,-34.9375,-68.3125,0.4506836,-0.9077148,-1.297852,-0.04736328,-0.1542969,0.2431641
3412,-295.1875,-25.0625,-39.1875,0.140625,-1.043945,-1.117188,-0.04394531,-0.1704102,0.2333984
3416,-277.3125,-41.8125,-26.1875,0.03955078,-0.8535156,-1.078613,-0.0390625,-0.1879883,0.2226563
3420,-255.3125,-60.375,-19.75,0.109375,-0.9506836,-0.859375,-0.03320313,-0.2055664,0.2133789
3424,-222.8125,-63.1875,-20.3125,0.2490234,-0.8066406,-0.5898438,-0.03076172,-0.2158203,0.206543
3428,-187.6875,-51.3125,-23.3125,0.3305664,-0.6630859,-0.4091797,-0.02246094,-0.2294922,0.1982422
3432,-154.6875,-30.75,-16.0625,0.2797852,-0.7753906,-0.1245117,-0.01855469,-0.2368164,0.1889648
3436,-115.3125,-8.75,-8.0625,0.175293,-0.6860352,0.02490234,-0.01611328,-0.2416992,0.1845703
3441,-73.75,0.5625,-1.875,0.03564453,-0.6708984,0.07128906,-0.01269531,-0.2480469,0.1806641
3445,-36.1875,-1,-0.8125,-0.06445313,-0.5737305,0.09033203,-0.01416016,-0.2504883,0.1791992
3449,-1.1875,-6.25,3.3125,-0.06835938,-0.534668,0.07519531,-0.01269531,-0.2519531,0.1762695
3453,23.9375,-9.875,5,-0.03320313,-0.3911133,0.005859375,-0.01171875,-0.2495117,0.1762695
3457,41.8125,-15.8125,2.125,0.01269531,-0.2900391,-0.06689453,-0.01269531,-0.2495117,0.1791992
3461,63.375,-16.0625,1.3125,0.06689453,-0.3598633,-0.05908203,-0.01171875,-0.2470703,0.1806641
3465,84.75,-6,-0.875,0.1367188,-0.1967773,-0.1513672,-0.01171875,-0.2416992,0.1860352
3469,96.6875,5.75,2,0.1289063,-0.1733398,-0.2285156,-0.01269531,-0.2368164,0.1889648
3473,107.5625,15.3125,10.1875,0.07861328,-0.3017578,-0.2631836,-0.01269531,-0.2358398,0.1928711
3477,125.4375,21.0625,14.0625,0.07470703,-0.2548828,-0.4248047,-0.01513672,-0.2294922,0.1982422
3481,140.8125,22,18.5625,0.09033203,-0.3017578,-0.6132813,-0.01855469,-0.2216797,0.2021484
3485,150.375,20.3125,11.1875,0.09765625,-0.1035156,-0.824707,-0.02099609,-0.2167969,0.206543
3489,155,14.25,10.9375,0.07470703,-0.3208008,-0.878418,-0.0234375,-0.2070313,0.2119141
3493,165.125,13.875,17.3125,0.09765625,-0.3950195,-0.8979492,-0.02587891,-0.1967773,0.21875
3497,173.6875,15.0625,27.5625,0.159668,-0.3325195,-1.028809,-0.02832031,-0.1918945,0.2241211
3501,178.1875,15.5625,27.4375,0.2373047,-0.3676758,-1.128418,-0.03076172,-0.1806641,0.2324219
3505,187.5625,20.1875,27.125,0.3110352,-0.3598633,-1.213379,-0.03417969,-0.1669922,0.2363281
3509,183,25.875,32.375,0.3378906,-0.3637695,-1.290039,-0.03662109,-0.1591797,0.2416992
3513,178.3125,31.5,36.25,0.4116211,-0.08789063,-1.428711,-0.03759766,-0.1469727,0.2485352
3517,159.125,44,38.9375,0.4580078,-0.09179688,-1.428711,-0.04492188,-0.1318359,0.2539063
3521,140.8125,59.75,51.375,0.4428711,-0.2045898,-1.394043,-0.04833984,-0.1230469,0.2553711
3525,120.8125,68.1875,64.625,0.3613281,-0.3208008,-1.363281,-0.05419922,-0.1118164,0.2583008
3529,115.375,62.875,72.75,0.3110352,-0.5112305,-1.313477,-0.06054688,-0.1005859,0.2607422
3533,121.6875,48.5625,71.375,0.3535156,-0.5112305,-1.328613,-0.06494141,-0.09179688,0.2607422
3537,128.0625,33.1875,43.625,0.5161133,-0.2783203,-1.363281,-0.07128906,-0.08056641,0.262207
3541,134.875,33.0625,22.875,0.6054688,-0.6162109,-1.209473,-0.07568359,-0.06835938,0.2675781
3545,146.1875,49.8125,19.875,0.5859375,-0.7641602,-1.128418,-0.07568359,-0.05957031,0.2651367
3549,150.9375,62.5625,25.375,0.4272461,-1.032227,-1.055664,-0.08203125,-0.04589844,0.2661133
3553,163.625,65.1875,39.875,0.3149414,-1.22998,-0.9672852,-0.08642578,-0.03076172,0.2661133
3557,179.125,58.625,55.6875,0.2373047,-1.334961,-0.9326172,-0.09033203,-0.01953125,0.2636719
3561,194.125,39.875,58.3125,0.2373047,-1.214844,-1.001465,-0.09472656,-0.0004882813,0.2607422
3565,204.125,16.6875,43.0625,0.2797852,-1.191406,-0.9516602,-0.09375,0.01855469,0.2592773
3570,217.125,0.9375,29.625,0.3457031,-1.21875,-0.8671875,-0.09375,0.03369141,0.2583008
3574,229,1.25,27.5625,0.4272461,-1.280762,-0.8056641,-0.09375,0.05273438,0.2514648
3578,232.3125,17.125,37,0.4814453,-1.296387,-0.7553711,-0.09375,0.07519531,0.2460938
3582,228.9375,33.75,53.125,0.4350586,-1.276855,-0.824707,-0.09375,0.08740234,0.237793
3586,222.25,40.0625,64.0625,0.3691406,-1.338867,-0.8325195,-0.09228516,0.1098633,0.2280273
3590,227.5,38.125,67.3125,0.3339844,-1.42041,-0.8476563,-0.09228516,0.1289063,0.2143555
3594,232.8125,27.25,60.3125,0.3032227,-1.29248,-0.9326172,-0.09228516,0.1435547,0.206543
3598,230.0625,23.4375,60.5,0.3808594,-1.334961,-0.8632813,-0.08789063,0.1625977,0.1899414
3602,218.5,40.8125,80.5,0.5239258,-1.284668,-0.8168945,-0.08642578,0.1811523,0.1723633
3606,197.375,76.0625,112.625,0.6171875,-1.233887,-0.7783203,-0.08203125,0.1923828,0.1630859
3610,187.875,95.4375,127.8125,0.4736328,-1.148438,-0.8901367,-0.078125,0.2084961,0.144043
3614,189,69.9375,107.75,0.2333984,-0.9467773,-1.13623,-0.07324219,0.2226563,0.1289063
3618,189.25,11.625,63.5,0.1054688,-0.8144531,-1.236328,-0.06738281,0.2314453,0.1152344
3622,188,-36.8125,33.625,0.1948242,-0.6474609,-1.240234,-0.06298828,0.2426758,0.09912109
3626,170.75,-41,27.125,0.5976563,-0.3989258,-1.197754,-0.05908203,0.25,0.08251953
3630,122.9375,14.75,60.4375,0.9038086,-0.1889648,-1.117188,-0.05664063,0.2548828,0.07421875
3634,77.5,68.625,76.4375,0.8032227,-0.04541016,-1.286133,-0.05224609,0.2587891,0.06201172
3638,28.5,59.625,36.1875,0.5048828,0.2495117,-1.459473,-0.04589844,0.2597656,0.05664063
3642,0.5,12.1875,-23.1875,0.2607422,0.004882813,-1.44043,-0.04736328,0.2597656,0.05517578
3646,-13.8125,-44.1875,-61.9375,0.2104492,-0.06054688,-1.397949,-0.04833984,0.262207,0.05517578
3650,-40.875,-86.6875,-86,0.3574219,-0.01025391,-1.367188,-0.05322266,0.2587891,0.05810547
3654,-82.6875,-92.3125,-85.6875,0.59375,-0.03759766,-1.301758,-0.05810547,0.2563477,0.06347656
3658,-134.875,-72,-71.375,0.6401367,-0.07617188,-1.324707,-0.06298828,0.25,0.07421875
3662,-190,-57.9375,-53.1875,0.5161133,-0.2241211,-1.428711,-0.06982422,0.2451172,0.08935547
3666,-239.875,-49.9375,-35.6875,0.4736328,-0.4375,-1.432617,-0.06982422,0.2363281,0.1044922
3670,-278.5625,-35.875,-16.5,0.5200195,-0.7871094,-1.401855,-0.06884766,0.2250977,0.1259766
3674,-300.5,-16.6875,-7.9375,0.5356445,-1.032227,-1.363281,-0.06982422,0.2075195,0.1508789
3678,-305.9375,-6.375,-20.375,0.5161133,-1.237793,-1.397949,-0.07226563,0.1938477,0.1669922
3682,-299.0625,-6.4375,-49.5625,0.4853516,-1.284668,-1.432617,-0.07324219,0.1713867,0.1889648
3686,-298.6875,-13.4375,-74.375,0.4233398,-1.443848,-1.471191,-0.07568359,0.1459961,0.2089844
3690,-301.375,-20.3125,-78.6875,0.3886719,-1.595215,-1.486328,-0.08056641,0.1313477,0.2172852
3694,-310.875,-18.1875,-61.75,0.3769531,-1.727539,-1.475098,-0.08203125,0.1035156,0.2348633
3699,-318.875,-10.3125,-40.5,0.3613281,-1.758789,-1.494141,-0.08203125,0.07373047,0.2514648
3703,-325.3125,-3,-26.9375,0.3305664,-1.777832,-1.455566,-0.08544922,0.05273438,0.2568359
3707,-321.5625,0.5,-20.9375,0.2915039,-1.836426,-1.394043,-0.08398438,0.02392578,0.2607422
3711,-309.0625,2.8125,-19.5,0.2758789,-1.80127,-1.33252,-0.08544922,-0.005859375,0.2651367
3715,-295.8125,2.875,-13.5,0.2875977,-1.618652,-1.26709,-0.08642578,-0.0234375,0.2636719
3719,-283.8125,5,-14.3125,0.3574219,-1.315918,-1.297852,-0.08642578,-0.05078125,0.2651367
3723,-277.6875,9.625,-20.625,0.4194336,-1.125488,-1.328613,-0.08642578,-0.07714844,0.262207
3727,-269.25,13.1875,-31.1875,0.4194336,-0.9970703,-1.282715,-0.08642578,-0.09326172,0.2553711
3731,-253.25,12.75,-49.6875,0.3886719,-0.8881836,-1.263184,-0.08642578,-0.1166992,0.25
3735,-238.75,9.5,-64.8125,0.3457031,-0.8613281,-1.174805,-0.08398438,-0.1342773,0.2416992
3739,-220.9375,11.375,-66.125,0.3457031,-0.7563477,-1.109375,-0.08398438,-0.1494141,0.2392578
3743,-207.1875,18.6875,-54.8125,0.3110352,-0.6318359,-1.097656,-0.08203125,-0.1679688,0.2294922
3747,-201.4375,27.375,-47.0625,0.3305664,-0.3325195,-1.147949,-0.08203125,-0.1821289,0.2211914
3751,-203.375,21.125,-42.6875,0.2255859,-0.2241211,-1.244141,-0.08056641,-0.1918945,0.2158203
3755,-202.875,-1,-71.25,0.175293,-0.05273438,-1.336426,-0.07714844,-0.2045898,0.2080078
3759,-197.9375,-29.3125,-90.3125,0.190918,-0.1538086,-1.286133,-0.07324219,-0.2167969,0.1982422
3763,-196.8125,-41.8125,-92.8125,0.2412109,-0.1308594,-1.217285,-0.06738281,-0.2270508,0.1914063
3767,-204.75,-43.5625,-79.5,0.2104492,-0.2744141,-1.074707,-0.05664063,-0.2368164,0.1831055
3771,-195.125,-51.125,-66.6875,0.09765625,-0.3325195,-0.8710938,-0.04833984,-0.2519531,0.1738281
3775,-169.25,-75.8125,-77.75,0.07861328,-0.324707,-0.7783203,-0.04248047,-0.2568359,0.1699219
3779,-148.3125,-93.25,-89,0.140625,-0.4335938,-0.4975586,-0.03173828,-0.2670898,0.1616211
3783,-109.9375,-91.1875,-81.3125,0.2685547,-0.6938477,-0.09765625,-0.01855469,-0.2753906,0.1547852
3787,-67.1875,-63.125,-53.6875,0.3071289,-0.8183594,0.3017578,-0.01025391,-0.2783203,0.1518555
3791,-24.3125,-25.5625,-18.875,0.2568359,-0.8725586,0.5136719,-0.005859375,-0.2807617,0.1479492
3795,25.4375,7.0625,9.1875,0.2412109,-0.6630859,0.3710938,-0.003417969,-0.2817383,0.1508789
3799,60.875,32.1875,20,0.3574219,-0.03369141,-0.128418,-0.004394531,-0.2792969,0.1518555
3803,52.0625,45.4375,18.1875,0.3305664,0.300293,-0.3974609,-0.009277344,-0.2753906,0.15625
3807,43.0625,46.4375,1.1875,0.1948242,0.2573242,-0.4130859,-0.01269531,-0.2719727,0.1572266
3811,48.8125,36.375,-13.5625,-0.01416016,-0.06835938,-0.2900391,-0.01416016,-0.2695313,0.1616211
3815,75.5625,21.25,-13.9375,-0.1342773,-0.2900391,-0.2363281,-0.01416016,-0.2695313,0.1630859
3819,102.8125,9.5625,-6.5625,-0.08007813,-0.2353516,-0.3515625,-0.01611328,-0.2631836,0.1669922
3823,117.1875,4.875,-3.0625,0.05126953,-0.09960938,-0.5014648,-0.01757813,-0.2617188,0.1708984
3828,127.5,6.875,-1.8125,0.1484375,-0.08789063,-0.6015625,-0.01611328,-0.2543945,0.1777344
3832,140.0625,14.6875,-6.1875,0.1831055,0.004882813,-0.6860352,-0.02001953,-0.2480469,0.1831055
3836,149.8125,20.1875,-10.375,0.1518555,-0.03369141,-0.7822266,-0.02001953,-0.2416992,0.1860352
3840,159.8125,22.3125,-9.25,0.06298828,-0.2084961,-0.7822266,-0.02246094,-0.2329102,0.1943359
3844,173.9375,20.3125,6.9375,-0.002441406,-0.5,-0.7631836,-0.02490234,-0.2246094,0.2011719
3848,196.9375,19.3125,23.75,0.07861328,-0.5463867,-0.8364258,-0.02685547,-0.2167969,0.206543
3852,214.875,19.625,18.9375,0.1987305,-0.355957,-1.063477,-0.03173828,-0.2045898,0.2143555
3856,225.75,20.9375,15.4375,0.3305664,-0.3134766,-1.205566,-0.03515625,-0.1904297,0.2241211
3860,218.4375,29.1875,2.75,0.3496094,-0.06835938,-1.328613,-0.03662109,-0.1791992,0.2324219
3864,207.5625,37.5,15.9375,0.2607422,-0.581543,-1.155762,-0.0390625,-0.1679688,0.2392578
3868,218.875,43.3125,35.5625,0.2026367,-0.6977539,-1.155762,-0.04492188,-0.1494141,0.2446289
3872,226.4375,40.3125,45.1875,0.190918,-0.9233398,-1.109375,-0.04833984,-0.1396484,0.2485352
3876,248.6875,31.0625,47.9375,0.2412109,-0.9428711,-1.240234,-0.05322266,-0.1206055,0.2539063
3880,243.9375,16.4375,33.5625,0.3496094,-0.8300781,-1.286133,-0.05419922,-0.09960938,0.2636719
3884,250.75,14.4375,27.8125,0.4506836,-1.086426,-1.170898,-0.05664063,-0.08447266,0.2636719
3888,258.75,26.5625,30,0.4697266,-1.152344,-1.113281,-0.05810547,-0.06201172,0.2675781
3892,264.625,43.75,46.1875,0.4506836,-1.358398,-1.070801,-0.06298828,-0.03710938,0.269043
3896,265.6875,52.4375,63.75,0.3808594,-1.354492,-1.15918,-0.06494141,-0.01953125,0.2675781
3900,260.3125,47,70.125,0.3305664,-1.338867,-1.186523,-0.06884766,0.006347656,0.269043
3904,262.625,37.375,65.75,0.3149414,-1.424316,-1.182617,-0.06982422,0.03125,0.2607422
3908,267.75,27.5,61.1875,0.2836914,-1.486816,-1.186523,-0.06982422,0.04980469,0.2583008
3912,273.875,18.0625,59,0.2758789,-1.533203,-1.197754,-0.06982422,0.07617188,0.2514648
3916,280.875,15.25,61.4375,0.3378906,-1.544922,-1.20166,-0.06982422,0.1010742,0.2402344
3920,278.375,19.0625,67.5,0.3613281,-1.443848,-1.248047,-0.06982422,0.1186523,0.230957
3924,265.75,22.25,67.5625,0.3769531,-1.370117,-1.251953,-0.06640625,0.1425781,0.2133789
3928,258.1875,23.8125,61.75,0.3808594,-1.381836,-1.240234,-0.06152344,0.1601563,0.199707
3932,252,23.6875,56.3125,0.3378906,-1.350586,-1.236328,-0.06054688,0.1762695,0.1845703
3936,243.75,18.875,57.8125,0.2646484,-1.296387,-1.240234,-0.05810547,0.1972656,0.1669922
3940,232.3125,12.875,61.375,0.2993164,-1.203125,-1.217285,-0.05419922,0.2114258,0.1464844
3944,218.3125,10.0625,58.625,0.3613281,-1.05127,-1.221191,-0.05224609,0.2226563,0.1328125
3948,201.6875,8.0625,48.75,0.3999023,-0.8881836,-1.19043,-0.04492188,0.2348633,0.1166992
3952,183.4375,5.4375,38.5,0.3886719,-0.7563477,-1.170898,-0.0390625,0.2436523,0.09765625
3957,166.875,1.0625,26.625,0.3847656,-0.5776367,-1.13623,-0.04003906,0.2485352,0.08691406
3961,145.625,-3.6875,14.5,0.3808594,-0.387207,-1.121094,-0.0390625,0.2548828,0.07177734
3965,114.75,-9.75,2.375,0.3613281,-0.1538086,-1.101563,-0.03662109,0.2612305,0.05957031
3969,83.625,-14.5,-5.8125,0.3574219,-0.1035156,-1.032227,-0.03515625,0.2612305,0.05273438
3973,56.375,-16.625,-11.375,0.3535156,-0.03759766,-0.9633789,-0.03417969,0.2636719,0.04589844
3977,28.875,-14.6875,-16.625,0.3925781,-0.1420898,-0.9516602,-0.03515625,0.2651367,0.04052734
3981,3.9375,-5.875,-27.125,0.4619141,-0.1850586,-0.9633789,-0.03759766,0.2636719,0.0390625
3985,-26.125,1.5625,-41.9375,0.4233398,-0.2626953,-0.9633789,-0.04150391,0.2651367,0.04199219
3989,-48.625,6.4375,-53.0625,0.3769531,-0.3950195,-0.9824219,-0.04492188,0.262207,0.04443359
3993,-73.8125,3.9375,-63.875,0.3305664,-0.3598633,-1.074707,-0.04736328,0.2612305,0.04980469
3997,-105.125,-1.5,-70.5625,0.3266602,-0.4882813,-1.121094,-0.05322266,0.2587891,0.05419922
4001,-129.5625,-3.4375,-70,0.3613281,-0.7446289,-1.078613,-0.06152344,0.2524414,0.06787109
4005,-146.9375,-3.3125,-72.4375,0.3925781,-0.8647461,-1.066895,-0.06396484,0.2485352,0.07714844
4009,-166.8125,-5.3125,-80.25,0.4428711,-0.9697266,-1.070801,-0.06982422,0.2412109,0.09082031
4013,-181.25,-7.375,-84.8125,0.4541016,-1.1875,-1.032227,-0.078125,0.2324219,0.1098633
4017,-192.0625,-16.8125,-90.8125,0.4541016,-1.233887,-1.109375,-0.08398438,0.2236328,0.1181641
4021,-208,-32.3125,-102.625,0.4697266,-1.29248,-1.140137,-0.09033203,0.2114258,0.137207
4025,-222.375,-45.5625,-100.375,0.5009766,-1.408691,-1.147949,-0.09960938,0.1948242,0.1547852
4029,-239.4375,-52.8125,-92.5,0.5708008,-1.424316,-1.147949,-0.1010742,0.1826172,0.1669922
4033,-253.75,-56.4375,-87.5625,0.6557617,-1.428223,-1.26709,-0.1020508,0.1611328,0.1845703
4037,-268.375,-63.9375,-93.875,0.7138672,-1.323242,-1.428711,-0.1030273,0.1386719,0.2036133
4041,-294,-71.75,-97.875,0.7099609,-1.207031,-1.613281,-0.1054688,0.1225586,0.2143555
4045,-323.0625,-73.5,-95.8125,0.690918,-1.393555,-1.621094,-0.1044922,0.09521484,0.2270508
4049,-343.1875,-71.125,-83.75,0.6328125,-1.556641,-1.58252,-0.1010742,0.0625,0.2416992
4053,-353.5625,-74,-72.625,0.609375,-1.867188,-1.424805,-0.09960938,0.03857422,0.25
4057,-345.9375,-83.8125,-57.5,0.609375,-2.131836,-1.221191,-0.09375,0.004882813,0.2568359
4061,-323.375,-98.875,-49.125,0.5898438,-2.104492,-0.9902344,-0.08642578,-0.02587891,0.2607422
4065,-291.4375,-118.5625,-43.1875,0.5317383,-1.968262,-0.8056641,-0.08300781,-0.04589844,0.2636719
4069,-259.0625,-136.8125,-35.875,0.559082,-1.622559,-0.7749023,-0.07128906,-0.07177734,0.262207
4073,-232.75,-143.3125,-35,0.6171875,-1.284668,-0.7709961,-0.05908203,-0.09423828,0.2607422
4077,-221.625,-128.9375,-20.5,0.659668,-1.133301,-0.628418,-0.05224609,-0.1054688,0.2592773
4081,-209.3125,-99.6875,-7.4375,0.6518555,-0.8842773,-0.609375,-0.04003906,-0.1230469,0.2539063
4086,-204.625,-65.625,2.375,0.6054688,-0.7753906,-0.574707,-0.03320313,-0.1396484,0.2485352
4090,-190.5625,-34,3.4375,0.4892578,-0.7524414,-0.5400391,-0.02929688,-0.1494141,0.2446289
4094,-168.1875,-17.0625,0.9375,0.3149414,-0.6748047,-0.59375,-0.02587891,-0.1621094,0.2392578
4098,-145.4375,-22.6875,-15,0.1367188,-0.3754883,-0.7783203,-0.0234375,-0.1733398,0.2324219
4102,-132.4375,-44.125,-36.5625,0.07861328,-0.2861328,-0.7822266,-0.02099609,-0.1791992,0.2294922
4106,-116,-54.0625,-44.1875,0.1132813,-0.2744141,-0.7055664,-0.01611328,-0.1870117,0.2270508
4110,-110.0625,-52.1875,-35.375,0.09375,-0.2509766,-0.6552734,-0.009277344,-0.1943359,0.2211914
4114,-105.5,-46,-15.25,0.04345703,-0.3950195,-0.4628906,-0.006835938,-0.1982422,0.21875
4118,-83.8125,-37.25,11.3125,0.08251953,-0.4804688,-0.309082,-0.003417969,-0.2045898,0.2133789
4122,-56.1875,-29.75,18.625,0.1054688,-0.402832,-0.2016602,0,-0.2080078,0.2119141
4126,-31.5,-25.5,15.75,0.1713867,-0.2783203,-0.1977539,0,-0.2104492,0.2104492
4130,-9.6875,-19.875,3.4375,0.2138672,-0.3017578,-0.1708984,0.0009765625,-0.2128906,0.2104492
4134,19.6875,-6.1875,-3.0625,0.2255859,-0.340332,-0.1323242,0.002441406,-0.2119141,0.2104492
4138,42.5,7.6875,-7.5,0.159668,-0.2626953,-0.2167969,0.003417969,-0.2119141,0.2089844
4142,61.1875,16.9375,-6.8125,0.1210938,-0.1889648,-0.3208008,0.0009765625,-0.2070313,0.2133789
4146,72.25,22.75,-5.5625,0.09033203,-0.1074219,-0.4091797,0.0009765625,-0.203125,0.2172852
4150,76.4375,26.1875,1.5625,0.06689453,-0.1733398,-0.4555664,0,-0.2016602,0.21875
4154,82.75,26,9.4375,0.05517578,-0.1811523,-0.4667969,-0.0009765625,-0.1958008,0.2226563
4158,91.4375,25.0625,16.625,0.07861328,-0.2822266,-0.4399414,-0.004394531,-0.1894531,0.2226563
4162,114.875,26.6875,17.75,0.1713867,-0.4921875,-0.4248047,-0.006835938,-0.1845703,0.2270508
4166,142.4375,35.0625,15.125,0.2685547,-0.6083984,-0.4282227,-0.01171875,-0.1791992,0.2294922
4170,163.9375,45.1875,8.6875,0.3110352,-0.6044922,-0.5283203,-0.01416016,-0.1679688,0.2348633
4174,186.8125,53.75,6.0625,0.3535156,-0.7133789,-0.7094727,-0.01757813,-0.1621094,0.2392578
4178,203.375,57.6875,-5.0625,0.3227539,-0.4765625,-0.9477539,-0.02246094,-0.1479492,0.2460938
4182,199.75,63.0625,6.375,0.3032227,-0.6591797,-0.9707031,-0.02929688,-0.1318359,0.2524414
4186,200.625,79,29.5625,0.3188477,-0.8027344,-0.8979492,-0.03076172,-0.1206055,0.2524414
4190,200.25,93.75,55.5,0.3574219,-1.05127,-0.8554688,-0.0390625,-0.1069336,0.2583008
4194,215.0625,99.375,65.25,0.3847656,-1.043945,-0.9980469,-0.05078125,-0.08691406,0.2607422
4198,233.125,85.8125,59.3125,0.3652344,-0.9580078,-1.293945,-0.05664063,-0.07324219,0.2651367
4202,243.625,48.1875,16.9375,0.2915039,-0.4375,-1.574707,-0.06152344,-0.05175781,0.2675781
4206,231.25,22,-6.25,0.3808594,-0.6240234,-1.428711,-0.06494141,-0.02929688,0.2675781
4210,209.6875,33.25,14.8125,0.5009766,-0.8105469,-1.178711,-0.06738281,-0.01708984,0.2661133
4215,192,65.625,51.6875,0.5668945,-1.15625,-0.9360352,-0.06884766,0.001464844,0.2651367
4219,193.0625,85,68.625,0.5126953,-1.358398,-0.9018555,-0.07568359,0.02148438,0.2592773
4223,209.8125,73.875,58.5625,0.4233398,-1.358398,-1.005371,-0.07714844,0.03613281,0.2592773
4227,227,47.0625,35.375,0.3574219,-1.37793,-1.036133,-0.08300781,0.05517578,0.25
4231,237.5625,26.5625,27.5,0.3959961,-1.385742,-0.9863281,-0.08544922,0.07763672,0.2446289
4235,240.4375,26.1875,33.5625,0.5009766,-1.385742,-0.894043,-0.08398438,0.09228516,0.2392578
4239,236.5,39.5,47.5,0.5512695,-1.327148,-0.894043,-0.08544922,0.1152344,0.2270508
4243,228.3125,49.1875,54.25,0.5317383,-1.327148,-0.878418,-0.08544922,0.1337891,0.2158203
4247,225.5625,49.0625,54.875,0.4853516,-1.304199,-0.9018555,-0.08642578,0.1489258,0.2036133
4251,221.625,39.6875,44.3125,0.4428711,-1.245605,-0.8632813,-0.08544922,0.1625977,0.1899414
4255,219.8125,33.6875,39.5,0.4467773,-1.280762,-0.8364258,-0.08544922,0.1811523,0.1723633
4259,216.25,30.8125,37.8125,0.4541016,-1.249512,-0.8364258,-0.08544922,0.1914063,0.1616211
4263,207.5,30.6875,40.8125,0.4389648,-1.15625,-0.8208008,-0.08300781,0.2075195,0.1425781
4267,196.75,31.875,42.1875,0.4541016,-1.055176,-0.8515625,-0.08203125,0.21875,0.125
4271,181.6875,32,39.6875,0.4506836,-0.9506836,-0.8515625,-0.08056641,0.2275391,0.1152344
4275,165.3125,28.6875,36.6875,0.4272461,-0.8764648,-0.8862305,-0.078125,0.2363281,0.09765625
4279,147.9375,23.3125,30.6875,0.4194336,-0.8183594,-0.9091797,-0.07568359,0.2451172,0.08251953
4283,133.5625,21.8125,24.6875,0.4541016,-0.8027344,-0.8554688,-0.07568359,0.2475586,0.07324219
4287,118.4375,22.9375,17.8125,0.4272461,-0.6748047,-0.8554688,-0.07324219,0.25,0.05957031
4291,97.5,17.375,9.625,0.3574219,-0.5385742,-0.9018555,-0.07128906,0.2573242,0.04980469
4295,71.75,8.4375,3.625,0.3266602,-0.46875,-0.9130859,-0.06982422,0.2563477,0.04589844
4299,44.3125,-1.4375,-0.5,0.3149414,-0.402832,-0.9169922,-0.07128906,0.2573242,0.03759766
4303,18.6875,-11.125,-5.6875,0.3339844,-0.3911133,-0.9052734,-0.06982422,0.2587891,0.03369141
4307,-4.125,-17.4375,-15.1875,0.3847656,-0.3950195,-0.878418,-0.07128906,0.2573242,0.03759766
4311,-24.75,-20.375,-26.4375,0.3999023,-0.4257813,-0.8745117,-0.07226563,0.2573242,0.03515625
4315,-47.75,-20.3125,-32.875,0.4077148,-0.4375,-0.8901367,-0.07470703,0.2573242,0.04052734
4319,-74.3125,-19.9375,-34.8125,0.3808594,-0.4609375,-0.9594727,-0.07714844,0.2548828,0.04443359
4323,-104.1875,-23.5625,-36.25,0.3417969,-0.46875,-1.005371,-0.08056641,0.2539063,0.05126953
4327,-132.25,-27.5625,-37.5625,0.3769531,-0.5541992,-1.043945,-0.08203125,0.2485352,0.06347656
4331,-157.375,-32.625,-41.9375,0.3574219,-0.6787109,-1.074707,-0.08398438,0.2460938,0.07324219
4335,-177.3125,-38.8125,-43.875,0.3959961,-0.8686523,-1.043945,-0.08789063,0.2373047,0.08789063
4339,-190.1875,-40.75,-46.1875,0.4619141,-1.016602,-1.013184,-0.09033203,0.2275391,0.1069336
4344,-203,-44.875,-51.8125,0.4580078,-1.012695,-1.08252,-0.09130859,0.2211914,0.1206055
4348,-219.25,-53.125,-54.8125,0.4970703,-1.148438,-1.109375,-0.09228516,0.2084961,0.1396484
4352,-232.1875,-57.5625,-49.5625,0.5551758,-1.179688,-1.232422,-0.09472656,0.1914063,0.1586914
4356,-253.1875,-60.8125,-40.875,0.6210938,-1.1875,-1.378906,-0.09619141,0.1787109,0.1708984
4360,-262.3125,-55.6875,-44.5,0.8110352,-1.354492,-1.416992,-0.09375,0.1625977,0.1889648
4364,-272.0625,-43.6875,-55.75,0.8457031,-1.29248,-1.467285,-0.09228516,0.1401367,0.2080078
4368,-291.375,-30.4375,-64.3125,0.7490234,-1.412598,-1.478516,-0.09130859,0.1235352,0.2172852
4372,-312.125,-29.75,-63.4375,0.609375,-1.708008,-1.467285,-0.09228516,0.09619141,0.230957
4376,-323.375,-40.4375,-45.375,0.4389648,-1.9375,-1.382324,-0.09228516,0.06884766,0.2446289
4380,-329.625,-62.75,-24,0.3417969,-2.073242,-1.240234,-0.09130859,0.04736328,0.2514648
4384,-328.875,-88.0625,-4.6875,0.3417969,-2.084961,-1.086426,-0.08642578,0.01757813,0.2568359
4388,-309,-104.8125,4.1875,0.4580078,-2.225098,-0.7631836,-0.078125,-0.01318359,0.2636719
4392,-264.25,-112.0625,3.5625,0.543457,-2.015137,-0.5092773,-0.07226563,-0.02832031,0.2636719
4396,-216.0625,-116.9375,-12.875,0.559082,-1.556641,-0.5053711,-0.06298828,-0.05078125,0.2651367
4400,-184.375,-120.125,-37.9375,0.59375,-1.074707,-0.6206055,-0.05224609,-0.07080078,0.2651367
4404,-166.125,-112.8125,-53.1875,0.609375,-0.7446289,-0.809082,-0.04492188,-0.07958984,0.2636719
4408,-173.25,-88.5,-65.25,0.5708008,-0.2861328,-1.032227,-0.03515625,-0.09423828,0.2636719
4412,-203.5,-57.6875,-39.125,0.4541016,-0.565918,-0.9672852,-0.02929688,-0.1083984,0.2583008
4416,-223.125,-25,1.875,0.2529297,-0.5966797,-0.8632813,-0.02490234,-0.1206055,0.2553711
4420,-228.375,-13.3125,28.375,0.02832031,-0.8066406,-0.7631836,-0.02246094,-0.1367188,0.2470703
4424,-203.75,-29.6875,20.1875,-0.1611328,-0.6513672,-0.7939453,-0.02001953,-0.1518555,0.2416992
4428,-169.5,-70,0.875,-0.1420898,-0.6821289,-0.7207031,-0.02001953,-0.1606445,0.2392578
4432,-142.8125,-101,-14.3125,0.05908203,-0.534668,-0.5014648,-0.01416016,-0.1704102,0.2324219
4436,-118.875,-89.6875,-12.25,0.3535156,-0.4765625,-0.3325195,-0.0009765625,-0.1791992,0.2294922
4440,-99.625,-56.25,-11.5,0.4272461,-0.324707,-0.3208008,0.0009765625,-0.1831055,0.2255859
4444,-89.125,-21.5,-9.75,0.3378906,-0.1889648,-0.4169922,0.004394531,-0.1894531,0.2226563
4448,-88,0,-0.625,0.159668,-0.1347656,-0.4360352,0.005859375,-0.1943359,0.21875
4452,-80.3125,6.5625,7.5,-0.02978516,-0.2275391,-0.34375,0.008300781,-0.1992188,0.2158203
4456,-61.5625,-0.25,26.8125,-0.2348633,-0.4570313,-0.1245117,0.006835938,-0.203125,0.2133789
4460,-25.8125,-15.5,39.8125,-0.1962891,-0.4609375,-0.09375,0.005859375,-0.2080078,0.2104492
4464,13.3125,-28.3125,32.875,0.04736328,-0.4067383,-0.1245117,0.008300781,-0.2055664,0.2133789
4468,45.8125,-22.5,13.0625,0.3110352,-0.1577148,-0.2553711,0.008300781,-0.2070313,0.2143555
4473,58.4375,-1.875,-5.3125,0.4233398,-0.01806641,-0.3823242,0.006835938,-0.2045898,0.2172852
4477,61.4375,25.4375,-10.5625,0.3339844,-0.02978516,-0.4052734,0.006835938,-0.2006836,0.2172852
4481,66.8125,45.375,-3.5625,0.1518555,-0.1420898,-0.3823242,0.005859375,-0.1967773,0.21875
4485,77.4375,49.5,10.0625,-0.01806641,-0.2900391,-0.4013672,0.002441406,-0.1918945,0.2226563
4489,95.6875,36.0625,19.1875,-0.1225586,-0.3754883,-0.4438477,0,-0.1894531,0.2255859
4493,120.125,17.25,20.25,-0.01025391,-0.46875,-0.4975586,-0.004394531,-0.1831055,0.2280273
4497,146.25,6.125,9.0625,0.1674805,-0.371582,-0.6132813,-0.006835938,-0.1757813,0.2324219
4501,158.1875,6,-7.3125,0.3188477,-0.2939453,-0.6899414,-0.0078125,-0.1669922,0.2348633
4505,162.0625,18.0625,-9.8125,0.3188477,-0.5,-0.6401367,-0.009277344,-0.1567383,0.2402344
4509,175.8125,34.125,-0.5,0.2797852,-0.7719727,-0.5898438,-0.01025391,-0.1445313,0.2460938
4513,196.6875,47.25,11.375,0.2412109,-1.000977,-0.5898438,-0.01416016,-0.1342773,0.25
4517,222.9375,50.125,12.8125,0.2724609,-1.024414,-0.7592773,-0.02001953,-0.1220703,0.2539063
4521,241.4375,43.75,-0.4375,0.3266602,-0.9038086,-0.9863281,-0.02490234,-0.1030273,0.2607422
4525,247.9375,41.6875,-16.375,0.4428711,-0.8105469,-1.097656,-0.02832031,-0.08935547,0.2636719
4529,243.5,54.5,-23.3125,0.4775391,-0.8613281,-1.086426,-0.03076172,-0.07080078,0.2661133
4533,238.875,73.375,-7.9375,0.4272461,-1.040039,-1.086426,-0.03515625,-0.04833984,0.2705078
4537,232.6875,92.125,18.6875,0.3652344,-1.11377,-1.109375,-0.04003906,-0.03320313,0.2705078
4541,228.5625,99.4375,39.75,0.3613281,-1.090332,-1.236328,-0.04833984,-0.01171875,0.2675781
4545,218.9375,99.0625,43.0625,0.4038086,-1.020508,-1.30957,-0.05664063,0.01123047,0.2661133
4549,215.125,82.4375,31.8125,0.3227539,-1.148438,-1.290039,-0.06152344,0.02148438,0.262207
4553,222.6875,61.6875,23.6875,0.3227539,-1.296387,-1.244141,-0.06738281,0.04248047,0.2568359
4557,228.6875,50.3125,21.25,0.3691406,-1.308105,-1.213379,-0.07128906,0.06494141,0.25
4561,230.3125,45,23.375,0.4194336,-1.203125,-1.255371,-0.07324219,0.07861328,0.2446289
4565,223.1875,43,25.375,0.4658203,-1.090332,-1.293945,-0.07470703,0.09765625,0.2363281
4569,211.125,42.625,23.6875,0.5200195,-1.016602,-1.305664,-0.07714844,0.1186523,0.2270508
4573,195.4375,43.5,16.125,0.5473633,-0.9389648,-1.224609,-0.07958984,0.1298828,0.21875
4577,184.3125,49.9375,16.125,0.5317383,-1.004883,-1.121094,-0.07958984,0.1435547,0.2050781
4581,173,54.8125,21.4375,0.4541016,-1.02832,-1.009277,-0.08300781,0.1586914,0.1943359
4585,163.125,56.0625,32,0.3999023,-1.152344,-0.8476563,-0.08398438,0.1689453,0.1860352
4589,158.0625,46.1875,35.875,0.3305664,-1.171875,-0.7514648,-0.08544922,0.1801758,0.1738281
4593,158.625,26.5,31,0.3496094,-1.203125,-0.7016602,-0.08642578,0.1938477,0.1601563
4597,162.0625,12.5,19,0.4233398,-1.179688,-0.5898438,-0.08642578,0.2001953,0.1533203
4602,159.625,9.6875,15.3125,0.4892578,-1.175781,-0.4824219,-0.08544922,0.2084961,0.1396484
4606,148.6875,14.875,22.9375,0.5200195,-1.164063,-0.3515625,-0.08398438,0.2172852,0.1303711
4610,139.8125,23.8125,28,0.5395508,-1.098145,-0.2939453,-0.08203125,0.2250977,0.1166992
4614,143.375,31.6875,17.75,0.5551758,-1.11377,-0.3168945,-0.08056641,0.2324219,0.1044922
4618,151.25,35.125,-0.5,0.4775391,-0.8959961,-0.5131836,-0.08203125,0.2397461,0.08935547
4622,144.9375,31.75,-17.6875,0.3652344,-0.6669922,-0.7167969,-0.08056641,0.2426758,0.08007813
4626,128.8125,24.125,-22.875,0.2451172,-0.5112305,-0.9018555,-0.08300781,0.2451172,0.0703125
4630,101.9375,18.375,-14.9375,0.2490234,-0.46875,-0.9594727,-0.08544922,0.25,0.05664063
4634,69.0625,17.125,-3.5625,0.2875977,-0.340332,-1.01709,-0.08642578,0.2509766,0.04882813
4638,35.875,17.8125,-3.1875,0.3378906,-0.3442383,-1.01709,-0.08886719,0.2524414,0.04199219
4642,8.5625,18.3125,-8.875,0.3032227,-0.355957,-0.9707031,-0.08886719,0.2509766,0.04052734
4646,-18.3125,7.375,-14.625,0.2104492,-0.3950195,-0.9633789,-0.09033203,0.2539063,0.03759766
4650,-42.25,-10.25,-16,0.175293,-0.4882813,-0.9477539,-0.09033203,0.2509766,0.04199219
4654,-66.0625,-26.25,-15.625,0.2255859,-0.5893555,-0.8901367,-0.09228516,0.25,0.04589844
4658,-83.6875,-33.875,-17.625,0.3071289,-0.6201172,-0.9130859,-0.09228516,0.2485352,0.05419922
4662,-104.3125,-37.75,-26.75,0.3730469,-0.6318359,-0.9477539,-0.09375,0.2451172,0.06201172
4666,-122.4375,-36.4375,-31,0.3999023,-0.7485352,-0.9672852,-0.09619141,0.2412109,0.07324219
4670,-146.1875,-38.125,-30.8125,0.3613281,-0.7792969,-0.9824219,-0.09619141,0.2373047,0.08398438
4674,-170.6875,-41.1875,-24.3125,0.3652344,-0.9389648,-0.9633789,-0.09716797,0.2285156,0.1000977
4678,-189.5625,-45.5,-20.0625,0.3847656,-1.074707,-0.9438477,-0.09716797,0.2197266,0.1137695
4682,-201.4375,-51.0625,-19.1875,0.4233398,-1.191406,-0.9438477,-0.09716797,0.2099609,0.1274414
4686,-213.5,-55.875,-24.5,0.4931641,-1.253418,-0.9287109,-0.09619141,0.1987305,0.144043
4690,-222.4375,-53.125,-25.25,0.5708008,-1.358398,-0.9130859,-0.09619141,0.1835938,0.1630859
4694,-236.5,-50.5625,-24.3125,0.5512695,-1.350586,-0.9326172,-0.09375,0.1748047,0.1762695
4698,-250.9375,-50.5,-15.75,0.4853516,-1.37793,-0.9707031,-0.09375,0.15625,0.1914063
4702,-270.6875,-57.375,-5.4375,0.4116211,-1.37793,-0.9941406,-0.09033203,0.1376953,0.2089844
4706,-291.875,-68.5625,9.3125,0.4077148,-1.338867,-1.101563,-0.08642578,0.1225586,0.21875
4710,-307.25,-73.75,13,0.574707,-1.537109,-1.028809,-0.08056641,0.1000977,0.2333984
4714,-292.5625,-67.6875,-6.625,0.6674805,-1.362305,-1.051758,-0.07568359,0.07128906,0.2460938
4718,-281.125,-64.3125,-35.3125,0.7412109,-1.401367,-0.9824219,-0.07226563,0.05615234,0.2524414
4722,-263.4375,-51.625,-46.1875,0.690918,-1.42041,-0.8901367,-0.06884766,0.02880859,0.2592773
4726,-252.3125,-39.5625,-42.3125,0.6054688,-1.257324,-0.9555664,-0.06640625,0.002441406,0.2675781
4731,-248.25,-30.875,-32.1875,0.4970703,-1.269043,-0.9902344,-0.06494141,-0.01171875,0.2661133
4735,-237.8125,-34.0625,-28,0.3496094,-0.9619141,-1.13623,-0.06298828,-0.03564453,0.2661133
4739,-233.75,-43.5,-22.875,0.3188477,-1.032227,-1.097656,-0.05908203,-0.05712891,0.2675781
4743,-217.125,-51.5,-25.6875,0.3886719,-0.9428711,-1.078613,-0.05419922,-0.06933594,0.2636719
4747,-196.9375,-52.3125,-47,0.4658203,-0.6123047,-1.178711,-0.05078125,-0.08935547,0.2636719
4751,-197.8125,-51.875,-55.375,0.3769531,-0.503418,-1.297852,-0.04492188,-0.1054688,0.2568359
4755,-202.9375,-56.9375,-51.5625,0.3305664,-0.3056641,-1.478516,-0.04394531,-0.1157227,0.2539063
4759,-214.5,-67.75,-61.4375,0.3886719,0.04736328,-1.886719,-0.03417969,-0.1342773,0.25
4763,-262.25,-74.8125,-61,0.3227539,-0.2006836,-1.905762,-0.02832031,-0.1494141,0.2446289
4767,-295.0625,-63.8125,-14.25,0.2607422,-0.7329102,-1.397949,-0.02246094,-0.1645508,0.2363281
4771,-299.5,-49.375,38.1875,0.1289063,-1.334961,-0.6977539,-0.01611328,-0.1831055,0.2270508
4775,-246.1875,-53.1875,44.6875,0.1713867,-1.144531,-0.359375,-0.01416016,-0.2016602,0.2143555
4779,-173.6875,-65.625,11.75,0.3999023,-1.15625,-0.06298828,-0.01025391,-0.2104492,0.2089844
4783,-107.4375,-55.4375,-32.0625,0.5820313,-0.4960938,-0.04736328,-0.006835938,-0.2192383,0.2050781
4787,-80.375,-23.875,-40.6875,0.5161133,-0.4726563,0.01708984,0,-0.2246094,0.2011719
4791,-58.6875,15.625,-23.9375,0.2797852,-0.4648438,0.1171875,0,-0.2270508,0.199707
4795,-29.9375,43.25,6.125,-0.03320313,-0.6669922,0.159668,0.002441406,-0.2294922,0.1967773
4799,-1.5625,41.8125,24.8125,-0.1650391,-0.4140625,-0.02441406,-0.001953125,-0.2294922,0.1953125
4803,20.125,26.4375,22.6875,-0.06054688,-0.1459961,-0.2900391,-0.005859375,-0.2294922,0.1953125
4807,34.6875,9.4375,1.125,0.05908203,0.07080078,-0.4516602,-0.006835938,-0.2270508,0.1967773
4811,38.3125,6.25,-14.5625,0.09375,0.1757813,-0.4785156,-0.0078125,-0.2231445,0.1982422
4815,36.5,12.75,-9.6875,0.03955078,0.02441406,-0.3823242,-0.0078125,-0.2246094,0.2011719
4819,42.25,18.8125,9.25,-0.08007813,-0.08398438,-0.3666992,-0.0078125,-0.2192383,0.2021484
4823,52.4375,10.25,24.875,-0.1108398,-0.2241211,-0.3745117,-0.009277344,-0.2167969,0.2036133
4827,74.25,0.5625,27.375,-0.002441406,-0.2241211,-0.4013672,-0.01171875,-0.2143555,0.2050781
4831,91,-6.625,20,0.1289063,-0.1967773,-0.4628906,-0.01416016,-0.2119141,0.2089844
4835,112,-7.0625,4.3125,0.2568359,-0.1499023,-0.5517578,-0.01513672,-0.2055664,0.2133789
4839,127.1875,0,-4.6875,0.2724609,-0.2275391,-0.5786133,-0.01416016,-0.203125,0.2172852
4843,137.9375,14.875,6.1875,0.2333984,-0.3989258,-0.5439453,-0.01513672,-0.1933594,0.2202148
4847,151.8125,31.4375,23.4375,0.2026367,-0.5581055,-0.5517578,-0.01757813,-0.1855469,0.2255859
4851,174.25,39.125,37.75,0.2333984,-0.6474609,-0.6899414,-0.02001953,-0.1791992,0.230957
4855,189.125,37.125,26.75,0.2568359,-0.4375,-0.9018555,-0.02587891,-0.1669922,0.237793
4860,199.9375,29.0625,14.0625,0.3071289,-0.4296875,-1.051758,-0.03076172,-0.1542969,0.2416992
4864,197.75,29.625,11,0.3691406,-0.5541992,-1.013184,-0.03076172,-0.1430664,0.2470703
4868,196.9375,44.8125,27.8125,0.3652344,-0.8535156,-0.8745117,-0.03515625,-0.1293945,0.2524414
4872,203,60.625,51.1875,0.3496094,-1.070801,-0.8168945,-0.04150391,-0.1132813,0.2583008
4876,223.8125,61,60.125,0.3535156,-1.15625,-0.9594727,-0.04589844,-0.1005859,0.2583008
4880,238.5,45.125,43.125,0.3959961,-0.9272461,-1.155762,-0.05078125,-0.08203125,0.2636719
4884,242.125,33.125,29.0625,0.4970703,-1.086426,-1.128418,-0.05566406,-0.06054688,0.2661133
4888,249.8125,39.0625,25.25,0.59375,-1.257324,-1.055664,-0.05664063,-0.04589844,0.2675781
4892,255.375,57.875,31.75,0.6171875,-1.300293,-1.05957,-0.06152344,-0.02197266,0.269043
4896,256.5625,73.8125,40.5625,0.543457,-1.265137,-1.140137,-0.06640625,0.002441406,0.2651367
4900,256.5625,77.75,48.625,0.4389648,-1.284668,-1.221191,-0.07128906,0.01855469,0.262207
4904,253.125,66.75,50.5,0.3886719,-1.272949,-1.282715,-0.07324219,0.04492188,0.2568359
4908,254.125,48.1875,43.8125,0.3730469,-1.443848,-1.236328,-0.07958984,0.06982422,0.2485352
4912,260.125,35.9375,35.5625,0.4541016,-1.490723,-1.147949,-0.07958984,0.08496094,0.2431641
4916,264.3125,35.625,34.4375,0.5048828,-1.494629,-1.121094,-0.07958984,0.1088867,0.2333984
4920,257.875,41.0625,39.875,0.5126953,-1.459473,-1.086426,-0.08056641,0.1323242,0.2172852
4924,254,46.4375,47.6875,0.4931641,-1.455566,-1.101563,-0.08398438,0.1450195,0.2080078
4928,244.5625,44.5625,46.125,0.4775391,-1.37793,-1.105469,-0.08300781,0.1650391,0.1914063
4932,237.375,38.6875,40.4375,0.4506836,-1.323242,-1.097656,-0.08203125,0.1835938,0.1723633
4936,229.8125,33.1875,36.5625,0.4272461,-1.272949,-1.094238,-0.08203125,0.1948242,0.1616211
4940,221.875,30.5,34.8125,0.4580078,-1.241699,-1.066895,-0.08056641,0.2075195,0.1425781
4944,207.4375,30.625,33.5625,0.4658203,-1.098145,-1.08252,-0.07714844,0.2226563,0.1220703
4948,191.5,31.375,30.8125,0.4814453,-0.9736328,-1.078613,-0.07568359,0.2285156,0.1113281
4952,171.5,29.375,25.8125,0.4467773,-0.8066406,-1.086426,-0.07568359,0.2387695,0.09228516
4956,152.875,25.8125,19.375,0.4428711,-0.6591797,-1.078613,-0.07470703,0.2460938,0.07568359
4960,132.5,21.625,11.0625,0.3959961,-0.503418,-1.074707,-0.07324219,0.2509766,0.06884766
4964,109.875,15.625,8.4375,0.3417969,-0.4296875,-1.047852,-0.07128906,0.2524414,0.05517578
4968,85.125,7.4375,4.875,0.3149414,-0.324707,-1.051758,-0.07226563,0.2563477,0.04443359
4972,54.6875,-1.75,-1.75,0.3110352,-0.2744141,-1.043945,-0.06982422,0.2573242,0.04052734
4976,27.875,-6,-1.75,0.3110352,-0.2392578,-1.036133,-0.07226563,0.2587891,0.03613281
4980,-4.375,-9.8125,-5.8125,0.3417969,-0.2587891,-0.9902344,-0.07128906,0.2597656,0.03515625
4984,-31.25,-11.625,-9.6875,0.3613281,-0.2626953,-1.005371,-0.07226563,0.2587891,0.03759766
4989,-63.875,-14.75,-20,0.3691406,-0.3056641,-1.005371,-0.07226563,0.2587891,0.0390625
4993,-91.125,-19.625,-25.875,0.3227539,-0.4296875,-1.032227,-0.07324219,0.2563477,0.04882813
4997,-113.75,-25.4375,-29.875,0.3417969,-0.581543,-1.01709,-0.07714844,0.2524414,0.05517578
5001,-135.0625,-28.75,-34.25,0.3691406,-0.6474609,-1.024902,-0.07958984,0.2485352,0.06640625
5005,-149.4375,-30.9375,-39.875,0.4194336,-0.8144531,-0.9941406,-0.08056641,0.2426758,0.08251953
5009,-165.25,-30.8125,-46.0625,0.4233398,-0.7910156,-1.013184,-0.08203125,0.2373047,0.09082031
5013,-186.625,-32.6875,-46.25,0.4038086,-0.9619141,-1.028809,-0.08544922,0.2275391,0.1069336
5017,-207.3125,-34.0625,-40.5625,0.4272461,-1.055176,-1.020996,-0.08886719,0.21875,0.125
5021,-225.6875,-33.5625,-38.5,0.4541016,-1.245605,-0.9785156,-0.08886719,0.2075195,0.137207
5025,-237.4375,-31.625,-34.625,0.4389648,-1.323242,-0.9785156,-0.09130859,0.1938477,0.15625
5029,-249.25,-30.375,-30.75,0.4311523,-1.405273,-0.9902344,-0.09228516,0.1762695,0.1762695
5033,-259.9375,-33.3125,-37.9375,0.4467773,-1.436035,-1.013184,-0.09228516,0.1650391,0.1875
5037,-269.8125,-41.625,-39.875,0.3808594,-1.572266,-1.001465,-0.09130859,0.1450195,0.2050781
5041,-271.1875,-50.25,-26.625,0.3457031,-1.67334,-1.009277,-0.09130859,0.1210938,0.2211914
5045,-274.4375,-58.5625,-13.5,0.3730469,-1.556641,-1.047852,-0.08886719,0.1049805,0.2280273
5049,-269.8125,-60,-13.3125,0.4814453,-1.505859,-1.113281,-0.08398438,0.08105469,0.2431641
5053,-257.875,-55.625,-19.5,0.543457,-1.160156,-1.375,-0.08300781,0.05859375,0.2514648
5057,-279.625,-56.4375,-35.1875,0.4658203,-1.136719,-1.494141,-0.07958984,0.04150391,0.2568359
5061,-285.5,-54.375,-9.875,0.3535156,-1.471191,-1.467285,-0.07568359,0.01367188,0.2607422
5065,-287.5625,-59.3125,4,0.3691406,-1.517578,-1.351563,-0.07226563,-0.01318359,0.2636719
5069,-263.6875,-55.4375,-2,0.4658203,-1.517578,-1.278809,-0.06640625,-0.02832031,0.2651367
5073,-257,-55.625,-13.125,0.4194336,-1.408691,-1.232422,-0.06396484,-0.05322266,0.2661133
5077,-246.75,-60.1875,-28.5,0.4077148,-1.102051,-1.293945,-0.05908203,-0.07421875,0.2651367
5081,-244.5,-65.1875,-31.125,0.3886719,-1.245605,-1.070801,-0.05224609,-0.08691406,0.2583008
5085,-230.875,-61,-21.875,0.3496094,-1.175781,-0.859375,-0.04492188,-0.1069336,0.2568359
5089,-211.6875,-49.25,-11.75,0.3613281,-0.9233398,-0.8325195,-0.04003906,-0.1254883,0.2514648
5093,-204.4375,-43.3125,-10.75,0.3305664,-0.8999023,-0.7055664,-0.03662109,-0.1342773,0.25
5097,-176,-34.375,-9.875,0.3417969,-0.7792969,-0.6362305,-0.03320313,-0.1494141,0.2431641
5101,-159.8125,-33.5625,-15.75,0.3652344,-0.387207,-0.7553711,-0.02929688,-0.1606445,0.237793
5105,-159.5625,-32.1875,-29.125,0.3691406,-0.3095703,-0.7246094,-0.02832031,-0.1679688,0.2348633
5109,-151.5625,-20.0625,-24.1875,0.2993164,-0.3173828,-0.7055664,-0.02246094,-0.1791992,0.2294922
5113,-152.375,-13.9375,-13,0.2138672,-0.2045898,-0.7475586,-0.01855469,-0.1870117,0.2270508
5118,-149.1875,-15.3125,-4.5625,0.1713867,-0.1269531,-0.7861328,-0.01757813,-0.1967773,0.2226563
5122,-147.875,-24.4375,-3.25,0.109375,-0.2275391,-0.5864258,-0.01513672,-0.2045898,0.2158203
5126,-124.9375,-31.375,1.5625,0.206543,-0.2084961,-0.4975586,-0.01171875,-0.2143555,0.2119141
5130,-117.3125,-34.3125,-10.3125,0.2836914,-0.2705078,-0.2055664,-0.0078125,-0.2182617,0.2080078
5134,-77.875,-14.3125,-1.875,0.3613281,-0.6083984,0.08642578,-0.005859375,-0.2255859,0.2021484
5138,-37.75,10.25,-1.375,0.3378906,-0.3520508,0.01367188,-0.005859375,-0.2304688,0.2011719
5142,-9.8125,20.375,-11.3125,0.175293,-0.1074219,-0.2553711,-0.005859375,-0.2294922,0.1982422
5146,1.3125,14.75,-12.75,0.07470703,0.05126953,-0.4208984,-0.005859375,-0.2294922,0.199707
5150,2.875,8.0625,-9,0.04736328,0.1098633,-0.4248047,-0.005859375,-0.2304688,0.1982422
5154,8.0625,10.1875,1.75,0.02441406,-0.09570313,-0.2900391,-0.004394531,-0.2294922,0.199707
5158,27.0625,14.3125,11.4375,0.004882813,-0.2241211,-0.2397461,-0.0078125,-0.2280273,0.1982422
5162,53.0625,9.4375,8.3125,0.01660156,-0.09179688,-0.4169922,-0.0078125,-0.2270508,0.199707
5166,66.5,-3.9375,-9.5625,0.06298828,0.1835938,-0.7133789,-0.0078125,-0.2246094,0.2011719
5170,66.3125,-9.75,-19.8125,0.1210938,0.09814453,-0.6860352,-0.009277344,-0.2207031,0.2050781
5174,70.0625,1,-10.75,0.07861328,-0.03759766,-0.5898438,-0.0078125,-0.2158203,0.2104492
5178,79.3125,11.25,5.625,-0.002441406,-0.2509766,-0.5131836,-0.009277344,-0.2128906,0.2089844
5182,102.375,8.375,12.1875,0.0009765625,-0.1850586,-0.6899414,-0.01171875,-0.2080078,0.2104492
5186,116.1875,-1.4375,0.8125,0.1132813,0.01660156,-0.9091797,-0.01171875,-0.2016602,0.2172852
5190,117.375,-2.0625,-4.1875,0.206543,-0.006347656,-0.9360352,-0.01269531,-0.1967773,0.2202148
5194,113.125,12.5625,7.375,0.2333984,-0.1420898,-0.7861328,-0.01416016,-0.1894531,0.2270508
5198,119.9375,31.25,23.5,0.2216797,-0.3442383,-0.7167969,-0.01513672,-0.1845703,0.230957
5202,135.5625,42.9375,34.8125,0.2373047,-0.4804688,-0.7441406,-0.01855469,-0.1782227,0.230957
5206,158.75,48.5,29.25,0.2915039,-0.3793945,-0.9169922,-0.02490234,-0.1679688,0.2363281
5210,162.9375,45.1875,17.75,0.2685547,-0.3989258,-1.009277,-0.02929688,-0.1567383,0.2402344
5214,171.8125,37.8125,10.5625,0.2294922,-0.5463867,-0.9707031,-0.03515625,-0.1494141,0.2431641
5218,182.3125,36,13.3125,0.2646484,-0.7329102,-0.8286133,-0.0390625,-0.1357422,0.2470703
5222,197.6875,40.1875,24,0.2915039,-0.9775391,-0.7285156,-0.04248047,-0.1220703,0.2553711
5226,227.4375,42.0625,22.5625,0.4038086,-1.179688,-0.7285156,-0.04492188,-0.1108398,0.2568359
5230,258.4375,39.375,-1.9375,0.4775391,-1.074707,-0.8515625,-0.04980469,-0.09326172,0.262207
5234,274.9375,26.125,-42.75,0.4775391,-1.086426,-0.8979492,-0.05224609,-0.06835938,0.2651367
