Packet number,Gyroscope X (deg/s),Gyroscope Y (deg/s),Gyroscope Z (deg/s),Accelerometer X (g),Accelerometer Y (g),Accelerometer Z (g),Magnetometer X (G),Magnetometer Y (G),Magnetometer Z (G)
1,-2.125,0.75,-2.5625,-0.7504883,-0.5463867,0.03662109,0.2319336,0.1459961,0.02539063
5,-11,-3.5625,-8.4375,-0.715332,-0.5854492,0.04785156,0.230957,0.1459961,0.02392578
9,-11.6875,-2.6875,-15.8125,-0.6572266,-0.6552734,0.09033203,0.2294922,0.1459961,0.02392578
13,-5.0625,-2,-32.4375,-0.6376953,-0.7211914,0.1171875,0.2294922,0.1474609,0.02539063
17,6.3125,-1.9375,-45.125,-0.7036133,-0.7680664,0.1132813,0.2270508,0.1499023,0.02539063
21,12.5625,-0.25,-40.0625,-0.6806641,-0.6821289,0.07910156,0.2246094,0.1538086,0.02392578
25,6.25,7.5625,-31.125,-0.6689453,-0.6083984,0.001953125,0.222168,0.15625,0.02392578
29,-1.5625,11.1875,-19.625,-0.6845703,-0.5966797,-0.109375,0.2211914,0.1577148,0.02685547
33,-12.4375,16.625,-12.75,-0.6069336,-0.5737305,-0.2167969,0.2202148,0.1611328,0.02539063
37,-21.4375,26.0625,-7.6875,-0.5332031,-0.6201172,-0.3666992,0.2177734,0.1611328,0.02978516
41,-27.625,39.75,-8.6875,-0.4672852,-0.6474609,-0.5014648,0.2177734,0.1601563,0.03222656
46,-36.75,54.75,-4.75,-0.4750977,-0.6396484,-0.6591797,0.215332,0.1586914,0.03515625
50,-51.125,68.625,3.0625,-0.5102539,-0.6201172,-0.7553711,0.215332,0.1601563,0.04443359
54,-67.4375,81.375,3.5625,-0.4946289,-0.6201172,-0.8168945,0.2119141,0.15625,0.04980469
58,-83,92.125,-6.5625,-0.5527344,-0.6748047,-0.84375,0.2104492,0.15625,0.06103516
62,-97.5,97.8125,-17.4375,-0.6650391,-0.7290039,-0.8325195,0.2070313,0.1523438,0.07177734
66,-109.4375,101.625,-28.9375,-0.7348633,-0.8105469,-0.7749023,0.2021484,0.1523438,0.08398438
70,-119.25,106.4375,-39.4375,-0.7890625,-0.8686523,-0.7670898,0.1938477,0.1499023,0.09765625
74,-127.25,116.625,-40.25,-0.8198242,-0.9272461,-0.7324219,0.1879883,0.1474609,0.1123047
78,-131.9375,133.625,-35.0625,-0.8393555,-0.9467773,-0.7363281,0.1806641,0.1435547,0.1220703
82,-135.9375,151.3125,-28.9375,-0.8857422,-0.9775391,-0.7133789,0.1699219,0.1411133,0.1396484
86,-138.0625,165.25,-23.8125,-0.9711914,-1.047363,-0.6977539,0.1591797,0.1347656,0.15625
90,-140.625,167.1875,-19.75,-1.083496,-1.016602,-0.7441406,0.1547852,0.1274414,0.1699219
94,-149.5625,160.3125,-23.0625,-1.125977,-0.9389648,-0.8017578,0.1416016,0.1210938,0.1845703
98,-160.0625,143.875,-28.4375,-1.168945,-0.9853516,-0.8745117,0.1293945,0.1113281,0.2011719
102,-171.5625,134.3125,-27.875,-1.052734,-0.9970703,-0.8823242,0.1210938,0.1035156,0.2080078
106,-175.5625,139.875,-21.1875,-0.9091797,-1.094238,-0.9169922,0.1118164,0.09228516,0.2172852
110,-167.1875,160.3125,-19.625,-0.8007813,-1.102051,-0.9326172,0.09765625,0.08007813,0.2280273
114,-160.8125,181.3125,-14.375,-0.8198242,-1.004883,-1.036133,0.08544922,0.07275391,0.2348633
118,-166.375,187.5625,-10.875,-0.8896484,-0.9541016,-1.121094,0.07226563,0.06103516,0.2431641
122,-175.25,180.875,-18.125,-0.8354492,-0.9428711,-1.217285,0.05322266,0.04638672,0.2524414
126,-179.8125,181.125,-31.6875,-0.6572266,-0.9038086,-1.182617,0.04394531,0.03759766,0.2553711
130,-174,196.4375,-33.6875,-0.5952148,-0.8920898,-1.209473,0.02832031,0.02392578,0.2607422
134,-176.25,217.8125,-26.4375,-0.7114258,-0.8803711,-1.121094,0.008300781,0.007324219,0.262207
138,-177.375,223.5625,-15.75,-0.8935547,-0.9194336,-0.9863281,-0.001953125,-0.0004882813,0.2636719
142,-176.5,215.3125,-14.25,-0.8164063,-0.7753906,-0.9555664,-0.02099609,-0.015625,0.2636719
146,-179.9375,201.25,-18,-0.6611328,-0.6044922,-1.109375,-0.03662109,-0.03173828,0.2607422
150,-194.4375,205.1875,-23.5625,-0.4404297,-0.5927734,-1.070801,-0.04736328,-0.04296875,0.2592773
154,-203.375,214.0625,-32.8125,-0.3046875,-0.4335938,-1.028809,-0.06054688,-0.05810547,0.2568359
158,-209.9375,229.0625,-21.4375,-0.6611328,-0.6977539,-0.7709961,-0.07568359,-0.07714844,0.2514648
162,-165.75,200.5625,27.8125,-1.013672,-0.8417969,-0.3862305,-0.08789063,-0.08447266,0.2446289
166,-141.8125,157.5625,32.6875,-0.765625,-0.3481445,-0.2553711,-0.09863281,-0.09716797,0.2392578
170,-137.8125,88.75,4.4375,-0.6264648,-0.4179688,-0.324707,-0.1069336,-0.1083984,0.2333984
175,-119.75,44.75,-32.0625,0.0009765625,-0.5698242,-0.1474609,-0.1079102,-0.1142578,0.2294922
179,-75.5,57.3125,-41.25,0.2294922,-0.6821289,0.03662109,-0.109375,-0.1245117,0.2270508
183,-19.8125,76.3125,-25.4375,-0.03320313,-0.6513672,0.1713867,-0.112793,-0.1293945,0.2241211
187,26.4375,65.25,-12.4375,-0.3354492,-0.3911133,0.2094727,-0.1152344,-0.1293945,0.2226563
191,51.375,26.6875,-9.9375,-0.4365234,-0.1811523,0.06738281,-0.1176758,-0.1279297,0.2226563
195,55.9375,-12.75,-10.4375,-0.3164063,-0.04882813,-0.1401367,-0.1176758,-0.1230469,0.2226563
199,49.25,-42.625,-16.1875,-0.08007813,0.04394531,-0.3398438,-0.1162109,-0.1220703,0.2255859
203,36.0625,-50.5625,-19,0.08251953,0.05517578,-0.394043,-0.112793,-0.1181641,0.2270508
207,38.625,-44.875,-12,0.1015625,-0.07617188,-0.3325195,-0.1103516,-0.1166992,0.2294922
211,51.4375,-36.4375,0.0625,-0.06054688,-0.1381836,-0.2592773,-0.109375,-0.1142578,0.2294922
215,67.25,-49.1875,10.4375,-0.2773438,-0.1733398,-0.2705078,-0.1069336,-0.1108398,0.2324219
219,78.75,-70.875,14.5,-0.3588867,-0.2626953,-0.2939453,-0.1054688,-0.1054688,0.2333984
223,93.875,-92.4375,12.5625,-0.3203125,-0.3442383,-0.3632813,-0.1030273,-0.09960938,0.2363281
227,113.0625,-107.9375,10.3125,-0.28125,-0.4257813,-0.4863281,-0.09863281,-0.09326172,0.2416992
231,129.125,-114.8125,7.375,-0.2387695,-0.421875,-0.5283203,-0.09130859,-0.08203125,0.2446289
235,147.5625,-111.9375,16.625,-0.4287109,-0.4882813,-0.4360352,-0.08789063,-0.07568359,0.2460938
239,171.25,-121.875,32,-0.7036133,-0.6708984,-0.5361328,-0.08203125,-0.06201172,0.2514648
243,177.8125,-153.9375,29.9375,-0.6962891,-0.6044922,-0.8325195,-0.07324219,-0.04833984,0.2539063
247,171.375,-184.25,7.625,-0.5644531,-0.6005859,-1.013184,-0.06494141,-0.03955078,0.2568359
251,158.75,-199.9375,-12.375,-0.5024414,-0.6474609,-1.174805,-0.05322266,-0.0234375,0.2607422
255,146.375,-207.8125,-19.9375,-0.4672852,-0.7910156,-1.278809,-0.03515625,-0.01318359,0.262207
259,154.375,-190.6875,-11.75,-0.2661133,-0.8300781,-1.274902,-0.0234375,-0.001953125,0.2675781
263,166.75,-149.3125,9.9375,-0.3046875,-0.9350586,-1.144043,-0.01171875,0.008789063,0.2636719
267,180.875,-121.3125,30.125,-0.6533203,-1.000977,-0.9746094,0.0009765625,0.02392578,0.2636719
271,189.5625,-122.125,42,-1.056641,-1.164063,-0.824707,0.008300781,0.03369141,0.2607422
275,196.1875,-147.8125,53.8125,-1.289063,-1.280762,-0.7749023,0.01904297,0.05126953,0.2568359
279,189.6875,-187.125,46.4375,-1.141602,-1.214844,-0.9438477,0.03564453,0.06738281,0.2485352
283,176.75,-206,29.6875,-0.8237305,-1.241699,-0.9707031,0.04980469,0.07617188,0.2431641
287,182.5625,-196.9375,28.6875,-0.6611328,-1.362305,-0.9672852,0.06884766,0.08984375,0.2348633
291,200.5,-164.25,40,-0.6342773,-1.432129,-0.859375,0.08544922,0.1025391,0.2226563
295,220.9375,-131.9375,53.875,-0.78125,-1.45166,-0.8208008,0.09521484,0.1113281,0.2143555
299,234.6875,-118.1875,66.9375,-1.017578,-1.350586,-0.7939453,0.105957,0.1274414,0.2011719
304,225,-126.5,70.75,-1.11084,-1.167969,-0.8208008,0.1176758,0.1401367,0.1845703
308,200.375,-148.375,66.0625,-1.168945,-1.094238,-0.8208008,0.1259766,0.1499023,0.1708984
312,178.375,-163.875,66.3125,-1.060547,-1.117676,-0.7783203,0.1376953,0.1577148,0.1479492
316,167.1875,-161.3125,70.5625,-0.9399414,-1.15625,-0.7167969,0.1547852,0.1635742,0.1289063
320,162.3125,-150.5625,78,-0.8857422,-1.15625,-0.6977539,0.1630859,0.1674805,0.1137695
324,156,-142.0625,81.6875,-0.8549805,-1.117676,-0.7167969,0.1772461,0.1699219,0.09472656
328,144.3125,-136.0625,77,-0.7851563,-1.024414,-0.7475586,0.1889648,0.1699219,0.07421875
332,127.75,-134.5,68.875,-0.78125,-0.9658203,-0.7514648,0.1962891,0.1699219,0.06201172
336,112,-138,55.375,-0.6728516,-0.8725586,-0.8056641,0.2055664,0.1674805,0.04589844
340,92.4375,-133.5,43.5,-0.5292969,-0.7949219,-0.824707,0.2128906,0.1674805,0.02832031
344,76.1875,-120.9375,35.875,-0.3666992,-0.7524414,-0.824707,0.2202148,0.1674805,0.01855469
348,64.5625,-101.5,29.8125,-0.2700195,-0.7211914,-0.8515625,0.222168,0.1660156,0.004882813
352,50.0625,-79.8125,20.75,-0.1611328,-0.5966797,-0.894043,0.2260742,0.1650391,-0.006835938
356,30.1875,-59.375,13.9375,-0.1459961,-0.5424805,-0.9438477,0.2270508,0.1625977,-0.01074219
360,4.375,-42.8125,4.1875,-0.08398438,-0.4067383,-1.08252,0.2270508,0.1611328,-0.02050781
364,-24.4375,-23.5,-4.5625,-0.04101563,-0.402832,-1.113281,0.2294922,0.1611328,-0.02050781
368,-47.25,-2.0625,-13.75,-0.04882813,-0.3989258,-1.217285,0.2270508,0.1611328,-0.01611328
372,-74.375,29.75,-22.125,0.01660156,-0.3520508,-1.240234,0.2285156,0.1635742,-0.01464844
376,-98.9375,71.375,-15.875,-0.08007813,-0.4921875,-1.155762,0.2236328,0.1625977,-0.00390625
380,-112.0625,109.1875,-10.75,-0.230957,-0.6240234,-1.063477,0.2211914,0.1650391,0.00390625
384,-125.4375,137.25,-14.6875,-0.3974609,-0.7329102,-0.9980469,0.21875,0.1635742,0.02148438
388,-134.9375,151.875,-27,-0.5605469,-0.8417969,-0.9672852,0.2138672,0.1611328,0.0390625
392,-144.5625,163.1875,-40.4375,-0.6767578,-0.9428711,-0.9208984,0.2104492,0.1625977,0.05273438
396,-150.5,175.125,-46.1875,-0.7504883,-1.020508,-0.9326172,0.2011719,0.1611328,0.07324219
400,-156.5,196.5625,-43.75,-0.7773438,-1.109863,-0.9052734,0.1879883,0.1586914,0.09619141
404,-157.875,219.9375,-35.625,-0.9208984,-1.183594,-0.9360352,0.1796875,0.15625,0.1123047
408,-165.6875,237.875,-30.125,-1.052734,-1.164063,-0.9902344,0.1665039,0.1513672,0.137207
412,-181.75,240.25,-25.125,-1.161133,-1.117676,-1.213379,0.1499023,0.1401367,0.1616211
416,-205.5625,236.1875,-22,-1.114746,-1.070801,-1.401855,0.1376953,0.1323242,0.1762695
420,-227.1875,241.5625,-17.25,-1.005859,-1.125488,-1.55957,0.1210938,0.1201172,0.2011719
424,-238.0625,265.0625,-8.6875,-1.052734,-1.308105,-1.586426,0.1044922,0.1035156,0.21875
428,-232.6875,296.1875,6.4375,-1.157227,-1.459473,-1.551758,0.08789063,0.09228516,0.2280273
433,-222.875,322.25,16.1875,-1.223145,-1.467285,-1.632813,0.06298828,0.07519531,0.2446289
437,-213.9375,325.125,-3.1875,-1.157227,-1.354492,-1.778809,0.03320313,0.05615234,0.2553711
441,-224.25,319.4375,-35.625,-1.15332,-1.338867,-1.894043,0.01416016,0.04492188,0.2592773
445,-237.9375,319.3125,-63,-1.157227,-1.416504,-1.828613,-0.01416016,0.02490234,0.262207
449,-228.625,323,-60.625,-1.54834,-1.71582,-1.432617,-0.04394531,0.00390625,0.2607422
453,-194.5625,314.9375,-28.0625,-1.610352,-1.544922,-1.066895,-0.06152344,-0.008300781,0.2583008
457,-172.5625,293.6875,-8.8125,-1.405273,-1.160156,-0.9326172,-0.08300781,-0.02587891,0.2524414
461,-171.375,257.3125,-17.5,-1.129883,-0.8222656,-0.9130859,-0.1030273,-0.03955078,0.2431641
465,-177,211.375,-37.875,-0.8125,-0.6708984,-0.9746094,-0.1152344,-0.04833984,0.237793
469,-174,182.3125,-60.0625,-0.5874023,-0.6279297,-0.7402344,-0.1245117,-0.06298828,0.2324219
473,-156.5,166.4375,-41.875,-0.699707,-0.7250977,-0.4477539,-0.1352539,-0.07958984,0.2270508
477,-126.875,153.4375,-20.6875,-0.6225586,-0.5893555,-0.1401367,-0.1401367,-0.08837891,0.2211914
481,-97.0625,134.6875,-3.25,-0.6455078,-0.46875,-0.03613281,-0.1474609,-0.09716797,0.2158203
485,-72.3125,100.625,2.25,-0.4868164,-0.3325195,-0.1362305,-0.1542969,-0.1044922,0.2089844
489,-61.25,72.1875,-13.5,-0.2041016,-0.1889648,-0.1821289,-0.1582031,-0.1069336,0.2050781
493,-50.9375,57.25,-21.5,-0.2661133,-0.1889648,-0.03613281,-0.1591797,-0.1108398,0.2011719
497,-27.8125,34.6875,-14.125,-0.296875,-0.2045898,-0.02441406,-0.1616211,-0.1157227,0.199707
501,-8.75,18.5625,-10.0625,-0.246582,-0.1074219,-0.02832031,-0.1640625,-0.1166992,0.1982422
505,5.8125,3.3125,-0.6875,-0.1381836,-0.09179688,-0.1669922,-0.1616211,-0.1181641,0.199707
509,15.8125,-6,6,-0.04101563,0.04003906,-0.1938477,-0.1616211,-0.1157227,0.1982422
513,17.75,-14.125,4.5625,-0.01025391,0.05126953,-0.2592773,-0.1625977,-0.1166992,0.1982422
517,12.0625,-26.875,3.3125,-0.08789063,0.05908203,-0.2939453,-0.1601563,-0.1118164,0.2011719
521,12.1875,-45.8125,3.6875,-0.08398438,-0.01416016,-0.324707,-0.1591797,-0.1132813,0.2011719
525,18.1875,-59.5,1.625,-0.01025391,-0.04882813,-0.3706055,-0.1591797,-0.1132813,0.2021484
529,26.3125,-72.1875,0.8125,-0.06835938,-0.09570313,-0.4707031,-0.1557617,-0.1108398,0.206543
533,33.625,-84.8125,-0.4375,-0.05273438,-0.1113281,-0.5361328,-0.1518555,-0.109375,0.2089844
537,45,-91.75,0.875,-0.1420898,-0.2202148,-0.5170898,-0.1474609,-0.109375,0.2133789
541,70.4375,-107.8125,4.6875,-0.1767578,-0.2939453,-0.5668945,-0.1425781,-0.1044922,0.2158203
545,89.4375,-116.625,9.25,-0.215332,-0.3017578,-0.6362305,-0.1367188,-0.09570313,0.2202148
549,101.5,-129.8125,12.0625,-0.2041016,-0.3208008,-0.7592773,-0.1318359,-0.09179688,0.2226563
553,112.5,-138.6875,13.6875,-0.2348633,-0.4101563,-0.7978516,-0.1245117,-0.08300781,0.2294922
557,128.6875,-146.3125,15.75,-0.3935547,-0.550293,-0.7167969,-0.1162109,-0.07421875,0.2363281
562,153.1875,-158.5625,25.8125,-0.6303711,-0.7172852,-0.7363281,-0.1113281,-0.06689453,0.2392578
566,172.0625,-177.375,44.8125,-0.362793,-0.5966797,-1.117188,-0.1010742,-0.0546875,0.2470703
570,174.3125,-171.1875,43.0625,-0.1845703,-0.5776367,-1.224609,-0.08886719,-0.03710938,0.25
574,166.4375,-160.3125,39.875,-0.1962891,-0.4960938,-1.259277,-0.08300781,-0.02685547,0.2539063
578,145.3125,-146.6875,44.625,-0.4365234,-0.5229492,-1.221191,-0.06982422,-0.01171875,0.2592773
582,124.8125,-154.4375,45.1875,-0.6264648,-0.5073242,-1.228516,-0.05810547,0,0.2583008
586,109.25,-170.375,44,-0.746582,-0.6201172,-1.193848,-0.05078125,0.006347656,0.2607422
590,103.0625,-191.4375,43.5,-0.7270508,-0.7211914,-1.213379,-0.03417969,0.01513672,0.262207
594,102,-196.0625,36,-0.6376953,-0.8066406,-1.15918,-0.01757813,0.02636719,0.2636719
598,104.9375,-193,29.5,-0.7387695,-0.9389648,-1.070801,-0.006835938,0.03027344,0.2636719
602,117.9375,-190.6875,27.125,-0.9091797,-1.055176,-0.9438477,0.01171875,0.04003906,0.2607422
606,128.9375,-193.75,33,-1.017578,-1.05127,-0.9052734,0.03173828,0.05126953,0.2583008
610,135.3125,-200.5,40.3125,-1.099121,-1.043945,-0.9130859,0.04248047,0.05615234,0.2553711
614,142.125,-211.5,42.5625,-1.118652,-1.043945,-0.9326172,0.06298828,0.06738281,0.2485352
618,146.1875,-216.625,45.875,-1.071777,-1.043945,-0.9438477,0.08447266,0.07763672,0.2416992
622,150,-211.5,48.125,-1.048828,-1.055176,-0.9287109,0.09619141,0.08398438,0.230957
626,153.75,-206,48.6875,-1.048828,-1.047363,-0.9287109,0.112793,0.09228516,0.2211914
630,155.3125,-200.25,49.5625,-1.087402,-1.024414,-0.9091797,0.1293945,0.1010742,0.206543
634,156.625,-199.5625,56.125,-1.165039,-1.016602,-0.9091797,0.1367188,0.1098633,0.1914063
638,155.1875,-199.4375,61.9375,-1.099121,-0.9467773,-0.9438477,0.1557617,0.1162109,0.1738281
642,148.625,-191,63.0625,-1.017578,-0.9467773,-0.9326172,0.1738281,0.1235352,0.1533203
646,145.5,-181.25,66.625,-0.9868164,-0.9467773,-0.9360352,0.1855469,0.1274414,0.1396484
650,139.3125,-172.5625,69.6875,-0.9091797,-0.8803711,-0.9399414,0.199707,0.1289063,0.1206055
654,124.875,-161.625,61.1875,-0.8046875,-0.7988281,-0.9248047,0.2119141,0.1313477,0.09912109
658,112.1875,-157.625,52.875,-0.8085938,-0.8261719,-0.9018555,0.21875,0.1298828,0.08789063
662,100.625,-153.75,45.5625,-0.6962891,-0.7641602,-0.8979492,0.230957,0.1298828,0.0703125
666,86.25,-140.875,37.5625,-0.4946289,-0.6591797,-0.9091797,0.2392578,0.1289063,0.05126953
670,69.3125,-123.375,29.6875,-0.3974609,-0.6083984,-0.9130859,0.2412109,0.1274414,0.04199219
674,53.9375,-105.375,20.9375,-0.2734375,-0.5268555,-0.9208984,0.2460938,0.1274414,0.02978516
678,37.875,-87.3125,10.5,-0.1884766,-0.503418,-0.9287109,0.25,0.1274414,0.01855469
682,23,-64.8125,2.5625,-0.1108398,-0.4648438,-0.9130859,0.25,0.1264648,0.01318359
686,6.125,-38.4375,-4.75,-0.05664063,-0.4257813,-0.9169922,0.2509766,0.1274414,0.0078125
691,-12,-8.9375,-10.1875,-0.06445313,-0.402832,-0.9248047,0.2543945,0.1274414,0.006347656
695,-29.25,17.8125,-13.375,-0.1225586,-0.4140625,-0.9326172,0.2509766,0.1274414,0.0078125
699,-44.5625,41.625,-20.3125,-0.1650391,-0.4804688,-0.9360352,0.2485352,0.1289063,0.01074219
703,-53.8125,62.75,-29.1875,-0.1611328,-0.5,-0.9785156,0.2460938,0.1313477,0.01855469
707,-68.4375,89.8125,-41.125,-0.1806641,-0.4960938,-1.043945,0.2460938,0.1323242,0.02392578
711,-87.4375,117.5,-48.125,-0.3203125,-0.5463867,-1.066895,0.2392578,0.1323242,0.03515625
715,-106,140.1875,-51.8125,-0.4555664,-0.6123047,-1.055664,0.2329102,0.1347656,0.05126953
719,-121.8125,159.625,-50.875,-0.6225586,-0.7250977,-1.036133,0.2285156,0.1362305,0.06494141
723,-134,176,-46.8125,-0.7231445,-0.8300781,-1.047852,0.21875,0.1347656,0.08251953
727,-138.6875,189.875,-56.1875,-0.7929688,-0.9389648,-1.055664,0.2080078,0.1362305,0.1044922
731,-141.125,203.0625,-65.625,-0.8745117,-0.9931641,-1.063477,0.1987305,0.1337891,0.1191406
735,-148.875,212.3125,-69.6875,-1.005859,-1.000977,-1.144043,0.1821289,0.1313477,0.1396484
739,-164.375,216.1875,-66.625,-1.07959,-1.000977,-1.248047,0.1650391,0.125,0.1630859
743,-179.0625,226.5,-57.9375,-1.056641,-1.032227,-1.320801,0.1508789,0.1201172,0.1777344
747,-185.5,243.1875,-45.25,-1.067871,-1.121582,-1.375,0.1333008,0.1098633,0.1982422
751,-179.875,259.75,-46.25,-1.145508,-1.241699,-1.324707,0.1142578,0.09863281,0.2211914
755,-172.3125,264.3125,-55.6875,-1.277344,-1.1875,-1.336426,0.09765625,0.08984375,0.2294922
759,-181.625,258.25,-59.6875,-1.393555,-1.109863,-1.359375,0.07373047,0.07861328,0.2402344
763,-198.3125,243.8125,-55.25,-1.463379,-1.152344,-1.359375,0.05078125,0.06396484,0.2514648
767,-212.4375,229.8125,-47.9375,-1.370117,-1.148438,-1.317383,0.03417969,0.05517578,0.2553711
771,-221,224,-37.5,-1.25,-1.183594,-1.248047,0.01171875,0.03515625,0.2607422
775,-219.0625,219.125,-32.125,-1.157227,-1.226563,-1.147949,-0.0078125,0.01513672,0.2661133
779,-206.625,207.1875,-34,-1.005859,-1.160156,-1.113281,-0.02099609,0.004882813,0.2705078
783,-191.875,193.0625,-39.125,-0.878418,-1.129395,-1.032227,-0.03662109,-0.01318359,0.2651367
787,-173.5,185.125,-48.5625,-0.5756836,-0.9506836,-1.040039,-0.05224609,-0.03076172,0.2636719
791,-165.75,192,-57.875,-0.4829102,-0.7792969,-1.113281,-0.06152344,-0.04052734,0.2607422
795,-165.1875,192.625,-58.625,-0.5063477,-0.7055664,-1.105469,-0.07714844,-0.0546875,0.2568359
799,-164.625,191.875,-60.25,-0.4248047,-0.5698242,-1.063477,-0.09033203,-0.07080078,0.25
803,-169.6875,195.875,-53.875,-0.5488281,-0.5073242,-0.8862305,-0.09863281,-0.078125,0.2446289
807,-173.0625,177,-47.5625,-0.8432617,-0.453125,-0.628418,-0.1103516,-0.09423828,0.237793
811,-168.8125,131.25,-30.5,-0.9594727,-0.4492188,-0.34375,-0.1176758,-0.1083984,0.2294922
815,-155.0625,85.6875,-16.75,-0.7617188,-0.453125,-0.1435547,-0.1220703,-0.1181641,0.2270508
820,-132.4375,59.8125,-10.1875,-0.4091797,-0.4414063,-0.06689453,-0.1245117,-0.1279297,0.2172852
824,-99.9375,53.125,2.625,-0.3242188,-0.5151367,0.08642578,-0.1269531,-0.1381836,0.2133789
828,-61.1875,45.0625,16.375,-0.3549805,-0.4414063,0.1479492,-0.128418,-0.1420898,0.2119141
832,-26.625,24.9375,21.375,-0.3862305,-0.324707,0.144043,-0.1293945,-0.1455078,0.2080078
836,1.5625,-6.75,19.25,-0.3823242,-0.2353516,0.06347656,-0.1328125,-0.1479492,0.2089844
840,20.6875,-32.375,14.25,-0.1884766,-0.1230469,-0.09375,-0.1318359,-0.1445313,0.2119141
844,25,-38.9375,4.6875,0.04736328,0.004882813,-0.2475586,-0.1293945,-0.1430664,0.2119141
848,30.875,-39.375,-1.875,-0.07226563,-0.1191406,-0.2592773,-0.1303711,-0.140625,0.2119141
852,46.4375,-47.0625,-2.25,-0.1533203,-0.1113281,-0.3012695,-0.1293945,-0.1381836,0.2133789
856,57.8125,-55,0.375,-0.2773438,-0.08398438,-0.3359375,-0.1235352,-0.1333008,0.2172852
860,65.625,-73,9.25,-0.4248047,-0.1230469,-0.3745117,-0.1220703,-0.1318359,0.2211914
864,69.9375,-94.4375,18.3125,-0.4985352,-0.1967773,-0.4052734,-0.1201172,-0.1254883,0.2241211
868,79.9375,-121.125,19.25,-0.4482422,-0.2978516,-0.5092773,-0.1152344,-0.1206055,0.2294922
872,95.8125,-137.125,13.6875,-0.3393555,-0.3793945,-0.6323242,-0.1079102,-0.1142578,0.2333984
876,116.5625,-144.0625,11.75,-0.3901367,-0.5698242,-0.6899414,-0.1030273,-0.109375,0.237793
880,146.75,-147.5,14.4375,-0.4907227,-0.6938477,-0.7285156,-0.09472656,-0.09960938,0.2431641
884,174.0625,-150.0625,26.5,-0.699707,-0.7832031,-0.7670898,-0.08544922,-0.08691406,0.2514648
888,191,-165.25,36.4375,-0.6962891,-0.6669922,-1.051758,-0.07714844,-0.07568359,0.2568359
892,184.8125,-176.5,34.5,-0.6845703,-0.5893555,-1.217285,-0.06640625,-0.05810547,0.2607422
896,169.125,-194,27.5,-0.7192383,-0.5424805,-1.382324,-0.05419922,-0.04296875,0.2636719
900,143.4375,-209.75,12.5625,-0.699707,-0.5620117,-1.471191,-0.04150391,-0.03564453,0.269043
904,125.5625,-212,4.9375,-0.6186523,-0.6552734,-1.447754,-0.02246094,-0.0234375,0.2705078
908,122.5,-208,6.5625,-0.7387695,-0.8378906,-1.317383,-0.005859375,-0.01318359,0.2705078
912,139.875,-205.125,14.8125,-0.9130859,-0.9775391,-1.248047,0.006835938,-0.004394531,0.2705078
916,156.875,-196.6875,29.5625,-1.075684,-1.066895,-1.251953,0.02490234,0.008789063,0.2675781
920,161.8125,-200.6875,32.8125,-1.133789,-1.008789,-1.305664,0.04638672,0.02001953,0.2675781
924,156.5,-213.8125,25.9375,-1.114746,-0.9389648,-1.359375,0.05810547,0.03027344,0.262207
928,144.0625,-221,15,-0.9868164,-0.8417969,-1.324707,0.07714844,0.04248047,0.2539063
932,143.125,-222.3125,12.5,-0.9711914,-0.9155273,-1.232422,0.09960938,0.05371094,0.2460938
936,151.625,-214.6875,20.0625,-1.017578,-0.9892578,-1.197754,0.1103516,0.06005859,0.2392578
940,157.9375,-204,27.8125,-1.025391,-0.9580078,-1.155762,0.128418,0.07128906,0.2255859
944,156.8125,-197.6875,29.875,-1.041016,-0.8764648,-1.151855,0.1450195,0.08251953,0.2104492
949,149.4375,-194.1875,25.75,-0.9907227,-0.7753906,-1.08252,0.1533203,0.08886719,0.1967773
953,144.625,-192.375,19.75,-0.9985352,-0.7719727,-1.051758,0.1699219,0.09863281,0.1806641
957,142.4375,-184.5625,19.9375,-0.9399414,-0.8144531,-0.9980469,0.1855469,0.1049805,0.1586914
961,140.1875,-172.0625,26.875,-0.8935547,-0.8105469,-0.9672852,0.1938477,0.1113281,0.1464844
965,137.375,-161.8125,30.8125,-0.8007813,-0.7446289,-0.9672852,0.2070313,0.1162109,0.1274414
969,126.25,-151.0625,24.9375,-0.6884766,-0.6044922,-0.9824219,0.2163086,0.1201172,0.1083984
973,108.125,-144.5625,11.0625,-0.6342773,-0.5307617,-0.9863281,0.2211914,0.1225586,0.09912109
977,90.8125,-137.6875,3.875,-0.5795898,-0.5229492,-0.9941406,0.2285156,0.125,0.08251953
981,70.9375,-124.125,2.6875,-0.4130859,-0.4179688,-0.9863281,0.2353516,0.1274414,0.06347656
985,52.125,-106.75,0.8125,-0.3085938,-0.3989258,-0.9746094,0.237793,0.1298828,0.05810547
989,38.6875,-87.125,-1.0625,-0.1923828,-0.371582,-0.9746094,0.2402344,0.1298828,0.04589844
993,27.5625,-60.9375,-1.5,-0.1108398,-0.355957,-0.9633789,0.2412109,0.1298828,0.0390625
997,12.625,-33.6875,-1.625,-0.08007813,-0.2783203,-0.9941406,0.2436523,0.1323242,0.03759766
1001,-6.125,-12.75,-0.375,-0.2001953,-0.3173828,-0.9941406,0.2451172,0.1313477,0.03369141
1005,-23,1.5,-2.9375,-0.1962891,-0.2939453,-0.9672852,0.2426758,0.1313477,0.03613281
1009,-42.375,21.9375,-9,-0.1767578,-0.2939453,-0.9438477,0.2426758,0.1298828,0.03515625
1013,-59.75,45.6875,-16.9375,-0.2543945,-0.387207,-0.9516602,0.2412109,0.1313477,0.0390625
1017,-64.5625,65.5,-17,-0.3320313,-0.5229492,-0.9287109,0.2392578,0.1313477,0.04882813
1021,-67.5,92.8125,-17.875,-0.3164063,-0.5268555,-0.9477539,0.2368164,0.1298828,0.05517578
1025,-73.6875,122.5,-16.375,-0.4633789,-0.5776367,-0.9824219,0.2319336,0.1298828,0.06787109
1029,-83.0625,148.1875,-13.75,-0.5834961,-0.6435547,-1.013184,0.2260742,0.1289063,0.08251953
1033,-95.5,171.0625,-17.3125,-0.7192383,-0.6474609,-1.078613,0.2211914,0.1274414,0.09326172
1037,-114.25,186.0625,-17.125,-0.8549805,-0.6552734,-1.121094,0.2119141,0.125,0.1098633
1041,-137.0625,199.375,-12.4375,-0.9672852,-0.6787109,-1.163086,0.1987305,0.1201172,0.1303711
1045,-154.0625,209.1875,-12.75,-1.052734,-0.8417969,-1.151855,0.1904297,0.1162109,0.144043
1049,-158.8125,218.75,-11.6875,-1.087402,-0.9853516,-1.163086,0.1772461,0.1074219,0.168457
1053,-156.9375,230.625,-12.125,-1.087402,-1.012695,-1.174805,0.1591797,0.09619141,0.1875
1057,-157.3125,238.875,-15.3125,-1.106934,-0.9619141,-1.236328,0.1474609,0.08984375,0.2021484
1061,-166.8125,242.1875,-17.5625,-1.187988,-0.9428711,-1.30957,0.1318359,0.08007813,0.21875
1065,-176.6875,241.125,-14.625,-1.285156,-0.9814453,-1.293945,0.1118164,0.06640625,0.2348633
1069,-181.375,240.125,-5.5625,-1.273438,-1.008789,-1.221191,0.09765625,0.05761719,0.2431641
1073,-177.625,241.5,-0.75,-1.187988,-1.040039,-1.213379,0.07861328,0.04150391,0.2539063
1078,-171.6875,244.8125,-3.625,-1.149414,-1.008789,-1.232422,0.05712891,0.03027344,0.262207
1082,-163.6875,245.6875,-5.625,-1.180664,-1.040039,-1.301758,0.0390625,0.01855469,0.2651367
1086,-158.6875,246.4375,-3.375,-1.269531,-1.004883,-1.228516,0.01757813,0.00390625,0.269043
1090,-156.375,230.875,1.5625,-1.191895,-0.7910156,-1.248047,-0.004394531,-0.005859375,0.2714844
1094,-171.8125,217.1875,-6.125,-0.9868164,-0.565918,-1.286133,-0.01757813,-0.01708984,0.269043
1098,-181.875,194.0625,-14.625,-0.7348633,-0.4960938,-1.375,-0.03515625,-0.03466797,0.2661133
1102,-188.375,194.8125,-18.5,-0.5253906,-0.534668,-1.413086,-0.05224609,-0.04833984,0.2661133
1106,-190.0625,202.6875,-13.875,-0.4594727,-0.5893555,-1.424805,-0.06152344,-0.05957031,0.2636719
1110,-182.375,216.8125,-14.75,-0.3666992,-0.5541992,-1.424805,-0.07568359,-0.07714844,0.2553711
1114,-178.75,231.75,-5.8125,-0.4482422,-0.4765625,-1.375,-0.09033203,-0.09179688,0.2470703
1118,-179.0625,231.375,-2.5625,-0.5605469,-0.3833008,-1.259277,-0.1010742,-0.09960938,0.2402344
1122,-179,215.8125,-16.875,-0.4130859,-0.2978516,-1.324707,-0.1162109,-0.1132813,0.230957
1126,-192.3125,207.3125,-24.125,-0.5644531,-0.3286133,-1.109375,-0.1259766,-0.1279297,0.2202148
1130,-183.3125,175.625,-1.1875,-0.8198242,-0.503418,-0.6552734,-0.1352539,-0.1367188,0.2119141
1134,-161.9375,154.75,29.5,-0.5795898,-0.4648438,-0.3168945,-0.1411133,-0.1542969,0.2011719
1138,-137.4375,129.8125,34.75,-0.5488281,-0.5268555,-0.1166992,-0.1533203,-0.1621094,0.1928711
1142,-101.75,90.375,23.375,-0.362793,-0.5966797,0.04785156,-0.1567383,-0.1669922,0.1860352
1146,-58.3125,66.75,3.75,-0.1225586,-0.5893555,0.1210938,-0.1616211,-0.1733398,0.1806641
1150,-12.6875,48.375,-7.25,-0.08789063,-0.4648438,0.1826172,-0.1625977,-0.1757813,0.1762695
1154,14.625,30.8125,-11.75,-0.2426758,-0.2509766,0.1328125,-0.1650391,-0.1767578,0.1738281
1158,26,-1.3125,-12,-0.347168,-0.1269531,0.05566406,-0.1650391,-0.1743164,0.175293
1162,35.6875,-30.625,-12.3125,-0.2583008,-0.1420898,-0.03613281,-0.1640625,-0.1733398,0.1777344
1166,54.9375,-43.375,-13.5625,0.03955078,-0.1420898,-0.1591797,-0.1625977,-0.171875,0.1791992
1170,68,-38.5,-16.625,0.1557617,-0.04541016,-0.3476563,-0.1582031,-0.1694336,0.1806641
1174,68.75,-40.5,-14.875,-0.03320313,0.03613281,-0.378418,-0.1567383,-0.1645508,0.1845703
1178,60.4375,-56.3125,-14,-0.215332,0.08642578,-0.3823242,-0.1557617,-0.1645508,0.1889648
1182,55.25,-81.375,-10.75,-0.3125,0.02441406,-0.3666992,-0.1533203,-0.1567383,0.1943359
1186,61.4375,-106.875,-11.5625,-0.1962891,-0.07226563,-0.4824219,-0.1484375,-0.1542969,0.1967773
1190,75.8125,-119.6875,-15.25,-0.06445313,-0.1811523,-0.5864258,-0.1435547,-0.1533203,0.2021484
1194,96.375,-120.6875,-14.5625,-0.06835938,-0.3017578,-0.6206055,-0.1367188,-0.1479492,0.2089844
1198,118.1875,-123.6875,-12,-0.2700195,-0.3520508,-0.6669922,-0.1303711,-0.1381836,0.2172852
1202,141.1875,-135.125,-10.6875,-0.3432617,-0.355957,-0.7592773,-0.1245117,-0.1357422,0.21875
1207,165.8125,-145.5625,-8.3125,-0.2543945,-0.3598633,-0.9785156,-0.1176758,-0.1230469,0.2270508
1211,172.8125,-140.75,-1.6875,-0.296875,-0.2744141,-1.144043,-0.1103516,-0.1108398,0.237793
1215,158.8125,-149.5625,8.5625,-0.5834961,-0.3056641,-1.186523,-0.1030273,-0.1020508,0.2392578
1219,143.375,-168.875,11.1875,-0.7387695,-0.4179688,-1.121094,-0.09375,-0.08837891,0.2460938
1223,145.3125,-192.1875,12.5,-0.6806641,-0.6005859,-1.170898,-0.08398438,-0.078125,0.2539063
1227,158.3125,-196.3125,10.5625,-0.4907227,-0.7055664,-1.232422,-0.07470703,-0.06933594,0.2568359
1231,174,-191.6875,6.3125,-0.3706055,-0.6474609,-1.420898,-0.05810547,-0.0546875,0.2651367
1235,166.6875,-186.4375,5.0625,-0.6030273,-0.5776367,-1.509277,-0.04394531,-0.04199219,0.2661133
1239,146.75,-198.0625,3.5,-0.8393555,-0.6005859,-1.44043,-0.03320313,-0.03173828,0.2714844
1243,141.0625,-218.3125,9.5625,-1.141602,-0.8686523,-1.248047,-0.01513672,-0.01806641,0.2714844
1247,158,-238.4375,20.5,-1.165039,-0.9931641,-1.121094,0.004394531,-0.008300781,0.2714844
1251,168.875,-248.8125,24.125,-1.060547,-0.9736328,-1.30957,0.02246094,0.00390625,0.2705078
1255,172.125,-244.875,23.75,-0.6455078,-0.8066406,-1.498047,0.04394531,0.01757813,0.2651367
1259,163.875,-220.9375,14.125,-0.6225586,-0.7329102,-1.520996,0.06787109,0.03027344,0.2592773
1263,156.75,-214.625,17,-0.8666992,-0.7602539,-1.420898,0.07958984,0.04003906,0.2514648
1267,153.3125,-208.1875,23.9375,-0.9594727,-0.8066406,-1.26709,0.1010742,0.04882813,0.2460938
1271,155.875,-207,29.375,-1.067871,-0.8574219,-1.205566,0.1176758,0.06103516,0.2363281
1275,150.5625,-197,24,-0.9052734,-0.7407227,-1.155762,0.128418,0.06738281,0.2255859
1279,145.6875,-185.1875,26.5625,-0.9750977,-0.7910156,-1.105469,0.1416016,0.07861328,0.2089844
1283,140.5,-173.1875,34.75,-0.9790039,-0.7680664,-1.066895,0.1557617,0.08984375,0.1943359
1287,133.5,-171.25,37.0625,-0.9326172,-0.7055664,-1.05957,0.1665039,0.09521484,0.1831055
1291,121.8125,-166.875,33.6875,-0.8276367,-0.6435547,-1.043945,0.1806641,0.1025391,0.1640625
1295,110.125,-159.5,29.8125,-0.7348633,-0.6162109,-1.043945,0.1938477,0.1074219,0.1494141
1299,98.25,-146.125,26.625,-0.6108398,-0.5966797,-1.043945,0.2011719,0.1113281,0.137207
1303,91.625,-129.75,30.875,-0.5605469,-0.6240234,-1.024902,0.2104492,0.1137695,0.125
1307,85.875,-109.1875,34.5625,-0.4130859,-0.5698242,-1.032227,0.2202148,0.1137695,0.1113281
1311,74.25,-87.5,32.5,-0.3393555,-0.4648438,-1.078613,0.2260742,0.1162109,0.1015625
1315,55.5625,-71.25,25.4375,-0.3007813,-0.3911133,-1.117188,0.2294922,0.1162109,0.09082031
1319,33.375,-55.4375,15.9375,-0.1884766,-0.3325195,-1.151855,0.2329102,0.1152344,0.08691406
1323,12.625,-35.75,5.75,-0.07617188,-0.340332,-1.186523,0.2353516,0.1162109,0.08105469
1327,-4.4375,-7.3125,-4.125,0.004882813,-0.3637695,-1.232422,0.237793,0.1176758,0.07861328
1331,-18.375,24.625,-9.5,0.01269531,-0.3676758,-1.274902,0.237793,0.1162109,0.08007813
1336,-32.6875,55.5,-12.75,-0.06054688,-0.387207,-1.317383,0.2353516,0.1162109,0.08251953
1340,-49.5625,85.0625,-18.0625,-0.09912109,-0.3442383,-1.351563,0.2319336,0.1152344,0.08935547
1344,-69.1875,110.75,-20.9375,-0.2001953,-0.3793945,-1.409668,0.2270508,0.1162109,0.1000977
1348,-90.125,137.5,-26.4375,-0.262207,-0.4375,-1.424805,0.2211914,0.1137695,0.1069336
1352,-108.3125,161.4375,-31.625,-0.4208984,-0.5385742,-1.432617,0.2128906,0.1113281,0.1235352
1356,-124.25,182.5625,-35.8125,-0.5449219,-0.6357422,-1.420898,0.2011719,0.1074219,0.1425781
1360,-135.5,202.5,-33.75,-0.6767578,-0.7446289,-1.405762,0.1928711,0.1049805,0.1518555
1364,-144.1875,223.6875,-31.5,-0.7617188,-0.7988281,-1.413086,0.1748047,0.09863281,0.1723633
1368,-151.125,240.0625,-32.125,-0.9287109,-0.8535156,-1.455566,0.1557617,0.08984375,0.1928711
1372,-160,250.3125,-31.1875,-1.087402,-0.8535156,-1.486328,0.1416016,0.08105469,0.2089844
1376,-171.625,255.8125,-26.5,-1.219238,-0.8881836,-1.463379,0.125,0.06884766,0.2270508
1380,-178.625,257.625,-19.875,-1.285156,-0.9467773,-1.428711,0.1035156,0.05761719,0.2416992
1384,-179.5,260,-15.9375,-1.25,-0.9736328,-1.436523,0.08886719,0.04736328,0.2485352
1388,-180.25,268.4375,-12.625,-1.242188,-0.9736328,-1.382324,0.06787109,0.03369141,0.2636719
1392,-184.125,271.125,-8.25,-1.312012,-0.9619141,-1.355469,0.0390625,0.02001953,0.2661133
1396,-194.625,268.9375,-13.375,-1.161133,-0.8496094,-1.33252,0.02246094,0.01025391,0.269043
1400,-209.8125,268.9375,-15.5,-1.001953,-0.8496094,-1.382324,-0.001953125,-0.008300781,0.2714844
1404,-207.5,270.1875,-17.6875,-0.8085938,-0.8881836,-1.355469,-0.02832031,-0.02441406,0.2705078
1408,-196.125,271.5625,-10.875,-0.6845703,-0.7641602,-1.447754,-0.04394531,-0.03808594,0.269043
1412,-191.875,269.25,-11.1875,-0.7617188,-0.6005859,-1.455566,-0.06396484,-0.0546875,0.262207
1416,-185.625,244.9375,-12.1875,-0.8974609,-0.5385742,-1.405762,-0.08398438,-0.06933594,0.2539063
1420,-177.25,217.5625,0.3125,-0.8125,-0.4804688,-1.363281,-0.09619141,-0.08056641,0.2485352
1424,-172.9375,209.4375,6.0625,-0.4594727,-0.3637695,-1.367188,-0.109375,-0.09326172,0.237793
1428,-165.3125,212,10.5625,-0.1459961,-0.3793945,-1.459473,-0.1235352,-0.1069336,0.2294922
1432,-163.5625,227.3125,8.0625,-0.1806641,-0.3325195,-1.428711,-0.1328125,-0.1142578,0.2226563
1436,-168.125,220.0625,-2.5,-0.3588867,-0.2470703,-1.274902,-0.1450195,-0.1269531,0.2089844
1440,-170.5,197.6875,-14.5,-0.4091797,-0.2470703,-1.094238,-0.1557617,-0.1381836,0.1982422
1444,-169.6875,173.0625,-20,-0.6147461,-0.2744141,-0.7939453,-0.1640625,-0.1469727,0.1899414
1448,-160.125,138.625,-12.6875,-0.5722656,-0.402832,-0.5244141,-0.168457,-0.1606445,0.1791992
1452,-132.9375,120.125,5.25,-0.2661133,-0.5,-0.3129883,-0.1748047,-0.1694336,0.1699219
1456,-93.625,109.875,13.1875,-0.1147461,-0.4570313,-0.1743164,-0.1772461,-0.1757813,0.1616211
1460,-71.25,90.9375,7,-0.3393555,-0.3286133,0.005859375,-0.1816406,-0.1791992,0.1547852
1465,-51.4375,44.75,-8.4375,-0.4868164,-0.3481445,0.2060547,-0.1865234,-0.1845703,0.1464844
1469,-14.25,2.6875,-18.0625,-0.3125,-0.4609375,0.2788086,-0.184082,-0.1855469,0.1464844
1473,29.625,-11.875,-17.25,-0.02978516,-0.3442383,0.05175781,-0.184082,-0.1870117,0.1464844
1477,54.5625,-20.25,-15.5,0.1054688,-0.1381836,-0.2167969,-0.1831055,-0.1855469,0.1479492
1481,58.0625,-14.75,-15.4375,0.1635742,0.08251953,-0.3012695,-0.1816406,-0.1831055,0.1518555
1485,47.375,-21.375,-16.0625,-0.1186523,0.2226563,-0.2861328,-0.1806641,-0.1806641,0.1547852
1489,35.875,-46.625,-13.4375,-0.2734375,0.1914063,-0.2631836,-0.1782227,-0.1791992,0.1572266
1493,34.6875,-73,-7.8125,-0.2700195,0.03613281,-0.2475586,-0.1772461,-0.1806641,0.1601563
1497,48.3125,-93.4375,-7.3125,-0.1381836,-0.1308594,-0.2978516,-0.1733398,-0.1757813,0.1640625
1501,73.4375,-103.875,-9.5,0.02832031,-0.1850586,-0.394043,-0.168457,-0.1743164,0.1699219
1505,97,-101.6875,-13.5625,0.02832031,-0.1459961,-0.5131836,-0.1665039,-0.171875,0.1762695
1509,113.625,-108.9375,-16.5625,-0.2041016,-0.08789063,-0.5825195,-0.1601563,-0.1645508,0.1831055
1513,119.875,-133.3125,-13.4375,-0.5410156,-0.1459961,-0.59375,-0.1542969,-0.1557617,0.1889648
1517,143.875,-163.3125,-4.5625,-0.2734375,-0.2587891,-0.8286133,-0.1508789,-0.1518555,0.1967773
1521,167.4375,-154.375,6.875,-0.1147461,-0.2666016,-0.9941406,-0.1425781,-0.1430664,0.206543
1525,169,-147.4375,21.375,-0.2851563,-0.2392578,-1.132324,-0.1352539,-0.1279297,0.2172852
1529,156.375,-157.25,27.25,-0.6264648,-0.3598633,-1.094238,-0.1303711,-0.1181641,0.2226563
1533,146.5625,-187.875,20.375,-0.6572266,-0.402832,-1.147949,-0.1220703,-0.1083984,0.2294922
1537,139.5,-214.1875,-6.6875,-0.5566406,-0.4726563,-1.240234,-0.1103516,-0.09716797,0.2402344
1541,137,-236.5,-41.9375,-0.4521484,-0.503418,-1.359375,-0.09863281,-0.08691406,0.2460938
1545,133.25,-239.9375,-60.4375,-0.5834961,-0.6357422,-1.371094,-0.08203125,-0.07958984,0.2553711
1549,147.1875,-249.375,-59.4375,-0.8510742,-0.8339844,-1.351563,-0.06152344,-0.07080078,0.2636719
1553,164.125,-249.6875,-45.8125,-0.9438477,-0.8647461,-1.351563,-0.04833984,-0.06298828,0.2675781
1557,176.9375,-251.8125,-30.1875,-0.8393555,-0.7792969,-1.478516,-0.02587891,-0.05078125,0.2714844
1561,181.9375,-242.5625,-29.1875,-0.7270508,-0.7211914,-1.567383,-0.004394531,-0.03466797,0.2773438
1565,178.875,-235.3125,-23.75,-0.9326172,-0.7485352,-1.571289,0.01171875,-0.02197266,0.2744141
1569,178.625,-240.375,-20.625,-1.067871,-0.8144531,-1.536621,0.03320313,-0.006835938,0.2729492
1573,179.625,-243.375,-19.8125,-1.141602,-0.8647461,-1.486328,0.05566406,0.008789063,0.269043
1577,180.375,-243.625,-17.0625,-1.161133,-0.8881836,-1.45166,0.07128906,0.01855469,0.2636719
1581,180.875,-240.625,-12.25,-1.141602,-0.8725586,-1.444336,0.09277344,0.03369141,0.2583008
1585,180.5625,-237.9375,-4.25,-1.125977,-0.8647461,-1.459473,0.1118164,0.04882813,0.2431641
1589,174.25,-227.0625,0.9375,-0.9790039,-0.8144531,-1.471191,0.1225586,0.05859375,0.2333984
1594,168.1875,-214.875,3.25,-1.009766,-0.7949219,-1.428711,0.1416016,0.07519531,0.2158203
1598,165.375,-208.125,6.4375,-0.9672852,-0.7949219,-1.363281,0.1557617,0.08740234,0.1967773
1602,166.5625,-199.5,8.125,-0.9208984,-0.8144531,-1.297852,0.1674805,0.09375,0.1845703
1606,169.875,-190.0625,11.5,-0.8393555,-0.7792969,-1.286133,0.1821289,0.1049805,0.1669922
1610,158.8125,-170.125,12.125,-0.6303711,-0.6201172,-1.293945,0.1948242,0.1137695,0.1425781
1614,139.625,-151.125,10.6875,-0.6030273,-0.565918,-1.259277,0.2021484,0.1201172,0.1313477
1618,123.75,-140.5625,11.5,-0.5253906,-0.550293,-1.213379,0.2128906,0.1264648,0.1123047
1622,106.0625,-122.625,11.625,-0.3320313,-0.4726563,-1.15918,0.21875,0.1298828,0.09619141
1626,87.5625,-102.5,12.125,-0.2929688,-0.4609375,-1.105469,0.222168,0.1323242,0.08789063
1630,68.875,-83.5625,9.0625,-0.1499023,-0.387207,-1.086426,0.2270508,0.1323242,0.07568359
1634,45.375,-60.0625,0.75,-0.06054688,-0.324707,-1.078613,0.230957,0.1337891,0.06884766
1638,22,-34.875,-4.625,-0.04882813,-0.3056641,-1.047852,0.2329102,0.1376953,0.06347656
1642,0,-10.25,-4.8125,-0.03710938,-0.3173828,-1.01709,0.2319336,0.1362305,0.05810547
1646,-18.625,17.0625,-1.75,-0.02978516,-0.371582,-1.009277,0.2319336,0.1376953,0.06103516
1650,-31,42.375,-4.5625,-0.06054688,-0.3950195,-1.01709,0.2319336,0.1362305,0.06347656
1654,-42.5,63.75,-11.4375,-0.1147461,-0.3793945,-1.040039,0.2294922,0.1347656,0.0703125
1658,-60.6875,84.5625,-18.25,-0.1420898,-0.340332,-1.055664,0.2260742,0.1347656,0.07568359
1662,-80.4375,102.8125,-24.4375,-0.2119141,-0.3793945,-1.121094,0.222168,0.1362305,0.08251953
1666,-95.625,120.8125,-30.8125,-0.215332,-0.4140625,-1.232422,0.2163086,0.1347656,0.09619141
1670,-111.5625,145.375,-31.875,-0.2583008,-0.4375,-1.320801,0.2080078,0.1313477,0.1123047
1674,-130.625,170.75,-27.875,-0.3901367,-0.484375,-1.378906,0.2021484,0.1289063,0.125
1678,-146.3125,192.25,-25.75,-0.5253906,-0.6162109,-1.463379,0.1889648,0.1225586,0.1396484
1682,-154.125,214.1875,-28.0625,-0.6689453,-0.7792969,-1.467285,0.1748047,0.1152344,0.1655273
1686,-153,231.375,-32.8125,-0.8935547,-0.9272461,-1.471191,0.1640625,0.1113281,0.1762695
1690,-149.6875,238.25,-35.375,-1.041016,-0.9580078,-1.467285,0.1450195,0.1010742,0.1982422
1694,-151.0625,235,-42.6875,-1.137695,-0.9389648,-1.455566,0.1269531,0.08984375,0.2143555
1698,-165.0625,223.75,-49.9375,-1.25,-0.9658203,-1.436523,0.1103516,0.08251953,0.2294922
1702,-184.4375,208.8125,-49.875,-1.292969,-1.078613,-1.390137,0.09277344,0.06982422,0.2402344
1706,-195.25,200.375,-45.5625,-1.157227,-1.144531,-1.313477,0.07373047,0.05517578,0.2539063
1710,-196.25,205,-41.25,-1.056641,-1.175781,-1.178711,0.06152344,0.04638672,0.2583008
1714,-184.875,207.5625,-28.8125,-1.009766,-1.171875,-1.209473,0.04052734,0.03027344,0.2651367
1718,-175.5625,215.0625,-18.25,-0.8935547,-1.105957,-1.297852,0.02001953,0.01367188,0.2705078
1723,-174.0625,221.8125,-18,-0.8432617,-0.9853516,-1.278809,0.005859375,0.004882813,0.2714844
1727,-173.75,216.5,-9.9375,-0.8007813,-0.8920898,-1.344238,-0.01416016,-0.009277344,0.2714844
1731,-180.75,217.8125,-8.375,-0.6962891,-0.7910156,-1.286133,-0.03417969,-0.02441406,0.2705078
1735,-186.125,212.8125,-0.8125,-0.7075195,-0.7988281,-1.33252,-0.04492188,-0.03710938,0.2675781
1739,-192.0625,206.6875,-4.25,-0.5175781,-0.6591797,-1.371094,-0.06152344,-0.05175781,0.2636719
1743,-200.375,201.25,-6.625,-0.5214844,-0.6591797,-1.390137,-0.07958984,-0.06933594,0.2568359
1747,-203.75,194.6875,-9.5,-0.2661133,-0.5698242,-1.394043,-0.08886719,-0.078125,0.2524414
1751,-207.75,208.3125,-14.8125,-0.262207,-0.5927734,-1.286133,-0.1010742,-0.09716797,0.2431641
1755,-193.8125,209.6875,3.6875,-0.5683594,-0.7719727,-1.147949,-0.1152344,-0.1118164,0.2324219
1759,-170.0625,205.375,18.375,-0.6767578,-0.7211914,-0.809082,-0.1235352,-0.1206055,0.2255859
1763,-138.5625,181.1875,35.0625,-0.8974609,-0.7524414,-0.4746094,-0.1352539,-0.1279297,0.2133789
1767,-99.375,132.5,33.3125,-0.7578125,-0.5927734,-0.2475586,-0.1450195,-0.1357422,0.2050781
1771,-75.3125,86.5,22.9375,-0.5488281,-0.5073242,-0.1860352,-0.1508789,-0.140625,0.199707
1775,-52.75,52.4375,-1.125,-0.07617188,-0.3056641,-0.2514648,-0.1533203,-0.1430664,0.1967773
1779,-40.5625,48.875,-17.375,0.01660156,-0.2900391,-0.2055664,-0.1542969,-0.1479492,0.1967773
1783,-19.875,38.625,-21.5625,-0.1381836,-0.2626953,-0.1630859,-0.1567383,-0.1508789,0.1928711
1787,0.1875,21.25,-16.8125,-0.2231445,-0.1616211,-0.1708984,-0.1582031,-0.1508789,0.1889648
1791,10.5,2.125,-4.8125,-0.3085938,-0.09179688,-0.1899414,-0.1582031,-0.1508789,0.1899414
1795,16.375,-21.625,7.1875,-0.2929688,-0.07226563,-0.2553711,-0.1567383,-0.1508789,0.1914063
1799,20.875,-39.25,16.875,-0.1186523,-0.1035156,-0.309082,-0.1557617,-0.1494141,0.1914063
1803,26.8125,-42.875,16.0625,0.08642578,-0.1113281,-0.34375,-0.1533203,-0.1469727,0.1967773
1807,38.5,-43.75,15.625,0.04736328,-0.2006836,-0.3476563,-0.1533203,-0.1445313,0.1967773
1811,53.0625,-48.25,12.8125,-0.05664063,-0.2626953,-0.324707,-0.1508789,-0.1420898,0.1982422
1815,68.4375,-62.625,12.5625,-0.1845703,-0.2900391,-0.34375,-0.1494141,-0.1367188,0.2011719
1819,80.25,-81.375,16.375,-0.2773438,-0.3208008,-0.3554688,-0.1474609,-0.1342773,0.206543
1823,95.75,-103.4375,19.0625,-0.2773438,-0.3911133,-0.4707031,-0.1425781,-0.1254883,0.2104492
1827,112.625,-118.8125,17.5,-0.1264648,-0.4101563,-0.644043,-0.1401367,-0.1196289,0.2172852
1831,125.4375,-118.4375,12.8125,-0.05664063,-0.402832,-0.7592773,-0.1352539,-0.1142578,0.2211914
1835,131.5625,-123.0625,13.6875,-0.2661133,-0.4804688,-0.8554688,-0.128418,-0.1030273,0.2294922
1839,140.8125,-138,10.875,-0.3125,-0.4726563,-0.9438477,-0.1210938,-0.09179688,0.2333984
1843,144.3125,-147,14.375,-0.5024414,-0.581543,-0.9399414,-0.1152344,-0.08447266,0.237793
1847,152.625,-162.6875,18.6875,-0.6030273,-0.6630859,-0.9824219,-0.1069336,-0.07324219,0.2460938
1852,160.0625,-175.375,20.125,-0.5913086,-0.7446289,-1.051758,-0.09375,-0.05810547,0.2524414
1856,167.875,-185.125,19.6875,-0.6572266,-0.8574219,-1.097656,-0.08544922,-0.04931641,0.2583008
1860,178.875,-192.5,14.125,-0.6376953,-0.9697266,-1.128418,-0.07226563,-0.03564453,0.2607422
1864,197.1875,-196.8125,15.875,-0.6923828,-1.105957,-1.13623,-0.05566406,-0.02197266,0.2661133
1868,223,-197.375,11.125,-0.6611328,-1.233887,-1.163086,-0.04394531,-0.008300781,0.2675781
1872,248.0625,-193.25,-2.5625,-0.6494141,-1.241699,-1.228516,-0.02685547,0.01025391,0.2675781
1876,259.125,-186,-10.125,-0.8046875,-1.171875,-1.259277,-0.01025391,0.03125,0.2661133
1880,257.8125,-183.75,0.1875,-1.001953,-1.129395,-1.301758,0.0009765625,0.04882813,0.262207
1884,244.0625,-183.9375,26.625,-1.048828,-1.11377,-1.301758,0.01904297,0.07128906,0.2539063
1888,229.25,-186.4375,48.75,-1.052734,-1.160156,-1.313477,0.03417969,0.08886719,0.2460938
1892,217.8125,-191.875,59.75,-0.9672852,-1.237793,-1.297852,0.04882813,0.1010742,0.2392578
1896,210,-198.3125,59.3125,-0.8354492,-1.210938,-1.348145,0.06542969,0.1176758,0.2255859
1900,205.0625,-198,51,-0.7387695,-1.253418,-1.355469,0.08203125,0.1323242,0.2080078
1904,200.4375,-187.125,56.3125,-0.7036133,-1.22998,-1.328613,0.09375,0.1425781,0.1967773
1908,193.8125,-171.75,71.25,-0.6884766,-1.1875,-1.297852,0.1118164,0.1538086,0.175293
1912,180.1875,-159.1875,79.25,-0.6069336,-1.066895,-1.301758,0.1293945,0.1635742,0.1572266
1916,160.4375,-150.1875,73.8125,-0.5756836,-1.02832,-1.248047,0.1391602,0.1660156,0.144043
1920,144.875,-145.75,69.0625,-0.5449219,-1.012695,-1.193848,0.1533203,0.1723633,0.1259766
1924,130.4375,-138.6875,62.625,-0.4169922,-0.9541016,-1.121094,0.1665039,0.1748047,0.1083984
1928,115.125,-126,54.5,-0.3320313,-0.8647461,-1.01709,0.1738281,0.1762695,0.09472656
1932,100.4375,-110.4375,54.0625,-0.3085938,-0.8647461,-0.9248047,0.1831055,0.1762695,0.08105469
1936,88.3125,-94.9375,50.5,-0.1962891,-0.7832031,-0.8862305,0.1914063,0.1772461,0.06640625
1940,71.25,-79.8125,39.1875,-0.1069336,-0.6513672,-0.8710938,0.1962891,0.1762695,0.05810547
1944,52.625,-69.125,23.375,-0.06445313,-0.5463867,-0.840332,0.199707,0.1762695,0.04980469
1948,31.125,-60.5625,10.375,-0.04882813,-0.4375,-0.8515625,0.203125,0.1762695,0.04199219
1952,7.75,-50.5625,0,0.0009765625,-0.402832,-0.840332,0.2055664,0.1762695,0.03759766
1956,-9,-35.6875,-8.3125,0.08251953,-0.4335938,-0.7783203,0.2070313,0.1748047,0.03613281
1960,-22.1875,-12.125,-17.9375,0.1870117,-0.421875,-0.8017578,0.2070313,0.1762695,0.03515625
1964,-34.75,20.4375,-23.3125,0.1518555,-0.4804688,-0.840332,0.2055664,0.1787109,0.03759766
1968,-43.6875,49.875,-21.6875,0.02050781,-0.4960938,-0.894043,0.2011719,0.1801758,0.04199219
1972,-57.5,76.4375,-21.75,-0.04882813,-0.4648438,-0.9672852,0.1972656,0.1801758,0.04589844
1976,-78.5,97.6875,-24.5625,-0.1225586,-0.4140625,-1.094238,0.1948242,0.1787109,0.05419922
1981,-108.625,116.0625,-27.3125,-0.2543945,-0.4335938,-1.170898,0.1889648,0.1772461,0.06787109
1985,-134.4375,128.6875,-27.875,-0.3974609,-0.6083984,-1.166992,0.184082,0.1738281,0.08544922
1989,-147.0625,138.0625,-34.625,-0.4790039,-0.8378906,-1.144043,0.1782227,0.1713867,0.09619141
1993,-151.125,150.75,-46.1875,-0.5063477,-0.9658203,-1.151855,0.1689453,0.1674805,0.1166992
1997,-160.75,167.25,-51.875,-0.6069336,-1.000977,-1.182617,0.1567383,0.1635742,0.1357422
2001,-173.25,181.0625,-41.5625,-0.7543945,-1.066895,-1.193848,0.1484375,0.1577148,0.1479492
2005,-191.75,194.9375,-30.0625,-0.7543945,-0.9931641,-1.270996,0.1318359,0.1489258,0.1669922
2009,-210.4375,207.625,-21.9375,-0.9091797,-1.210938,-1.240234,0.1152344,0.1376953,0.1889648
2013,-195.1875,202.5625,-31.875,-0.9326172,-1.385742,-1.197754,0.1044922,0.1274414,0.2021484
2017,-184.0625,204.6875,-45.6875,-0.9013672,-1.300293,-1.209473,0.08691406,0.1137695,0.2211914
2021,-186.6875,210.4375,-48.0625,-1.005859,-1.253418,-1.217285,0.06787109,0.1000977,0.2333984
2025,-192.6875,206.375,-37.625,-1.091309,-1.226563,-1.217285,0.0546875,0.09130859,0.2431641
2029,-199.5625,201.6875,-26.75,-1.056641,-1.179688,-1.221191,0.0390625,0.07519531,0.2539063
2033,-203.5,197.0625,-17,-0.9633789,-1.086426,-1.240234,0.01757813,0.06005859,0.2607422
2037,-205.5625,194.6875,-5.0625,-0.8974609,-1.02832,-1.278809,0.004394531,0.04638672,0.2636719
2041,-211.875,192.8125,-5,-0.730957,-0.8881836,-1.336426,-0.01171875,0.02734375,0.2661133
2045,-214.5,192.875,-5.9375,-0.7929688,-0.9814453,-1.274902,-0.03076172,0.01025391,0.269043
2049,-202.8125,188.8125,0.625,-0.7773438,-0.9892578,-1.170898,-0.04003906,-0.003417969,0.2661133
2053,-186.625,187.625,5.125,-0.6030273,-0.9077148,-1.140137,-0.05419922,-0.02050781,0.2675781
2057,-168.1875,189.75,1.125,-0.3320313,-0.7719727,-1.221191,-0.07324219,-0.03466797,0.262207
2061,-161.0625,211.375,-23,-0.03320313,-0.5424805,-1.444336,-0.08300781,-0.04443359,0.2568359
2065,-175.1875,238.75,-36.4375,-0.347168,-0.5541992,-1.428711,-0.09960938,-0.05810547,0.2485352
2069,-178.625,233,-31.4375,-0.6923828,-0.5927734,-1.232422,-0.1162109,-0.07177734,0.2416992
2073,-168.9375,208.3125,-13.9375,-0.8354492,-0.6552734,-0.9326172,-0.1259766,-0.08300781,0.2348633
2077,-148.875,175.1875,-2.6875,-0.4521484,-0.4609375,-0.8710938,-0.1376953,-0.09423828,0.2241211
2081,-139.875,163.4375,-17.0625,0.02832031,-0.3134766,-0.9707031,-0.1508789,-0.1044922,0.2143555
2085,-139.25,171.875,-38.1875,0.190918,-0.2900391,-1.01709,-0.1533203,-0.1132813,0.2104492
2089,-142.9375,176.4375,-44.25,-0.05273438,-0.2861328,-0.8901367,-0.1625977,-0.1230469,0.1967773
2093,-139.9375,162.0625,-37.75,-0.4287109,-0.355957,-0.6323242,-0.1708984,-0.1357422,0.1875
2097,-126.3125,124.6875,-23.875,-0.6108398,-0.3208008,-0.3901367,-0.1748047,-0.140625,0.1806641
2101,-107.625,82.5,-7.75,-0.5756836,-0.3598633,-0.2285156,-0.1791992,-0.1518555,0.1723633
2105,-85.9375,44.125,-6.0625,-0.1459961,-0.2744141,-0.2939453,-0.1816406,-0.1567383,0.1655273
2110,-69.125,37.3125,-10.0625,-0.02978516,-0.324707,-0.1821289,-0.1816406,-0.1621094,0.1616211
2114,-40.75,21.5,-5.875,-0.1650391,-0.3950195,-0.08984375,-0.184082,-0.1669922,0.1586914
2118,-8.1875,1.375,-4.5,-0.1069336,-0.2900391,-0.1206055,-0.1816406,-0.1669922,0.1586914
2122,16.375,-17.75,-4.625,-0.1650391,-0.2314453,-0.1513672,-0.1831055,-0.1655273,0.1572266
2126,35.875,-40.375,-1.6875,-0.1611328,-0.1733398,-0.2592773,-0.1791992,-0.1655273,0.1616211
2130,44.8125,-52.8125,1.875,-0.03710938,-0.08007813,-0.34375,-0.1806641,-0.1630859,0.1630859
2134,51.3125,-61.1875,2.3125,-0.05273438,-0.06054688,-0.4130859,-0.1782227,-0.1606445,0.168457
2138,58.6875,-74.5,3.75,-0.03710938,-0.04150391,-0.4902344,-0.1748047,-0.1606445,0.1708984
2142,63.375,-82.5,2.25,-0.01416016,-0.06054688,-0.559082,-0.1723633,-0.1542969,0.175293
2146,69.5,-91.75,3.9375,-0.1303711,-0.1269531,-0.5976563,-0.1708984,-0.1494141,0.1806641
2150,79.6875,-106.375,7,-0.1845703,-0.1538086,-0.6401367,-0.1665039,-0.1469727,0.1845703
2154,91.25,-121.1875,9.1875,-0.1069336,-0.1811523,-0.7749023,-0.1616211,-0.1420898,0.1928711
2158,104.1875,-126.375,1.375,0.05517578,-0.1889648,-0.9052734,-0.1567383,-0.1381836,0.1982422
2162,112.625,-118.8125,-1.125,-0.09130859,-0.2705078,-0.9707031,-0.1533203,-0.1308594,0.2050781
2166,119.9375,-117.9375,10.4375,-0.2773438,-0.3364258,-0.9863281,-0.1459961,-0.1206055,0.2143555
2170,127.75,-125.0625,31.75,-0.4287109,-0.3950195,-1.032227,-0.1411133,-0.1157227,0.21875
2174,136.3125,-140,48.25,-0.1884766,-0.3637695,-1.213379,-0.1352539,-0.1054688,0.2270508
2178,137.75,-136,50.375,-0.07617188,-0.3637695,-1.293945,-0.128418,-0.09326172,0.2348633
2182,132.6875,-138.25,33.5625,-0.2661133,-0.46875,-1.317383,-0.1220703,-0.08544922,0.237793
2186,131.75,-156.75,22.0625,-0.5371094,-0.6044922,-1.263184,-0.112793,-0.07324219,0.2460938
2190,134.75,-178.6875,19.5,-0.5605469,-0.6630859,-1.270996,-0.1010742,-0.06054688,0.2539063
2194,139.375,-191.75,16.375,-0.3046875,-0.6201172,-1.375,-0.08886719,-0.05175781,0.2583008
2198,140.75,-186.5,15.5,-0.1650391,-0.5737305,-1.467285,-0.07568359,-0.04199219,0.2636719
2202,141.8125,-175.125,14.4375,-0.1420898,-0.5737305,-1.509277,-0.05810547,-0.03076172,0.2675781
2206,140.125,-165.375,17.8125,-0.3393555,-0.6396484,-1.467285,-0.04980469,-0.02197266,0.2714844
2210,142.0625,-165.125,24.0625,-0.5566406,-0.7524414,-1.363281,-0.03320313,-0.006835938,0.2744141
2214,146.1875,-170.4375,28,-0.730957,-0.8535156,-1.286133,-0.01611328,0.004882813,0.2744141
2218,149.4375,-182.8125,26.875,-0.7890625,-0.8261719,-1.301758,-0.005859375,0.01123047,0.2758789
2222,147.9375,-192.6875,21.625,-0.7695313,-0.8066406,-1.324707,0.01074219,0.02636719,0.2744141
2226,144.625,-199.875,15.625,-0.7773438,-0.8183594,-1.297852,0.03076172,0.04003906,0.269043
2230,143.25,-203.75,16.1875,-0.7270508,-0.8222656,-1.305664,0.04150391,0.04638672,0.2651367
2234,143.875,-198.5,21.6875,-0.746582,-0.8881836,-1.221191,0.06054688,0.05761719,0.2583008
2239,151.625,-194.5625,32.75,-0.7578125,-0.8764648,-1.186523,0.07861328,0.07128906,0.2460938
2243,152.375,-184,39.9375,-0.6572266,-0.8027344,-1.221191,0.09033203,0.07763672,0.2363281
2247,144.875,-170.375,38.9375,-0.6533203,-0.7407227,-1.209473,0.1044922,0.09130859,0.2270508
2251,137.0625,-166.875,36.375,-0.7036133,-0.7172852,-1.178711,0.1210938,0.1010742,0.2119141
2255,126,-163.8125,34.875,-0.6533203,-0.6787109,-1.13623,0.1333008,0.1049805,0.2021484
2259,115.8125,-157.25,35.5625,-0.5292969,-0.6318359,-1.109375,0.1459961,0.1123047,0.1889648
2263,106.125,-144.25,35,-0.4326172,-0.6123047,-1.070801,0.1616211,0.1186523,0.175293
2267,99,-130.8125,33.9375,-0.3745117,-0.6279297,-1.070801,0.1689453,0.1235352,0.1655273
2271,89.75,-110.125,31.4375,-0.2773438,-0.5893555,-1.047852,0.1782227,0.1264648,0.1547852
2275,81.4375,-90.625,28.5625,-0.2543945,-0.5463867,-1.040039,0.1879883,0.1274414,0.144043
2279,68.5,-74.625,26.5625,-0.1728516,-0.453125,-1.040039,0.1904297,0.1313477,0.1357422
2283,52.375,-57.375,24.3125,-0.06445313,-0.3598633,-1.028809,0.1962891,0.1323242,0.1274414
2287,34.75,-39.9375,17.9375,-0.01025391,-0.3481445,-1.040039,0.2011719,0.1323242,0.1220703
2291,16.1875,-21,11.9375,-0.01416016,-0.340332,-1.028809,0.2045898,0.1337891,0.1206055
2295,2.4375,-6.8125,6.3125,-0.02978516,-0.3754883,-1.005371,0.2045898,0.1337891,0.1206055
2299,-8.4375,9.25,-3.125,0.01269531,-0.3989258,-1.005371,0.2055664,0.1337891,0.1191406
2303,-22.5,30.9375,-14.75,-0.01025391,-0.387207,-1.063477,0.2045898,0.1313477,0.1166992
2307,-36.6875,51.5625,-22.0625,-0.03320313,-0.3833008,-1.109375,0.2021484,0.1323242,0.1235352
2311,-50.3125,74.8125,-26.8125,-0.01806641,-0.387207,-1.155762,0.1987305,0.1337891,0.1303711
2315,-63.25,101.5,-30,-0.03710938,-0.387207,-1.232422,0.1928711,0.1323242,0.1357422
2319,-81.5,126.9375,-31.375,-0.1611328,-0.3598633,-1.324707,0.1831055,0.1313477,0.1450195
2323,-101.875,146.9375,-28.5625,-0.2543945,-0.3833008,-1.382324,0.1757813,0.1264648,0.1586914
2327,-119.5,164.875,-29.25,-0.3549805,-0.503418,-1.390137,0.1665039,0.1235352,0.168457
2331,-126.5,175.3125,-33.5625,-0.4711914,-0.6474609,-1.359375,0.1523438,0.1152344,0.1821289
2335,-131.25,183.9375,-40.0625,-0.5410156,-0.7016602,-1.351563,0.1376953,0.1088867,0.2011719
2339,-137.625,190.875,-41.8125,-0.6030273,-0.7211914,-1.371094,0.125,0.1035156,0.2089844
2343,-148.25,200.1875,-40.5,-0.6611328,-0.7753906,-1.375,0.109375,0.09375,0.2241211
2347,-155.625,206.75,-33.875,-0.7617188,-0.8183594,-1.367188,0.08789063,0.08398438,0.2392578
2351,-157.4375,212.0625,-25.25,-0.8164063,-0.8764648,-1.38623,0.07617188,0.07373047,0.2470703
2355,-152.5625,217.8125,-18.25,-0.8510742,-0.9428711,-1.367188,0.05712891,0.06103516,0.2583008
2359,-145.5,218.1875,-16.75,-0.8935547,-0.9697266,-1.375,0.03564453,0.04882813,0.2661133
2363,-143.75,215.75,-18.9375,-0.8125,-0.8881836,-1.420898,0.02246094,0.03857422,0.2675781
2368,-146.375,212.4375,-24.125,-0.8007813,-0.8686523,-1.467285,0.002441406,0.02880859,0.2714844
2372,-145.75,207.75,-24.6875,-0.7075195,-0.8613281,-1.482422,-0.01855469,0.01757813,0.2744141
2376,-140.375,205.4375,-15.625,-0.5024414,-0.7602539,-1.55957,-0.03076172,0.006347656,0.2714844
2380,-139,228.375,-23.1875,-0.2348633,-0.6787109,-1.694336,-0.05078125,-0.005859375,0.2714844
2384,-146.9375,243.6875,-18.4375,-0.6572266,-0.7988281,-1.698242,-0.07128906,-0.01953125,0.2651367
2388,-148.1875,236.6875,-13.3125,-0.8818359,-0.9116211,-1.567383,-0.08398438,-0.02587891,0.2607422
2392,-137.0625,220.3125,-5.5625,-0.9287109,-0.9389648,-1.351563,-0.1030273,-0.03808594,0.2524414
2396,-118.375,205.125,-4.875,-0.6962891,-0.7719727,-1.248047,-0.1201172,-0.04833984,0.2460938
2400,-111.375,196.25,-7.5625,-0.4482422,-0.5581055,-1.274902,-0.128418,-0.05566406,0.2402344
2404,-121.25,181.4375,-13.25,-0.1533203,-0.3598633,-1.444336,-0.1411133,-0.06201172,0.230957
2408,-143.6875,177.0625,-39.6875,0.03173828,-0.2314453,-1.459473,-0.1533203,-0.07324219,0.2226563
2412,-158.625,173.5,-48.1875,-0.1923828,-0.3598633,-1.244141,-0.1601563,-0.08203125,0.2143555
2416,-150.875,157.875,-35.5625,-0.1962891,-0.421875,-1.047852,-0.1674805,-0.09716797,0.2050781
2420,-135.625,157.9375,-27.875,-0.04101563,-0.402832,-0.9091797,-0.1733398,-0.1054688,0.1967773
2424,-121.375,156.5,-27.4375,0.0009765625,-0.3793945,-0.9208984,-0.1791992,-0.1142578,0.1899414
2428,-115.4375,151.625,-32.5,0.01660156,-0.3056641,-0.8745117,-0.1865234,-0.1245117,0.1806641
2432,-113.875,141.25,-34.5,-0.1342773,-0.2705078,-0.7324219,-0.1914063,-0.1333008,0.1699219
2436,-111.125,117.375,-34.625,-0.2583008,-0.2275391,-0.5400391,-0.1938477,-0.1396484,0.1630859
2440,-101.875,89.25,-38.125,-0.1806641,-0.2084961,-0.4282227,-0.1972656,-0.1494141,0.15625
2444,-88,69.4375,-32.5625,-0.08789063,-0.1655273,-0.34375,-0.1982422,-0.1533203,0.1494141
2448,-72.25,60.625,-23.25,-0.07617188,-0.2006836,-0.2167969,-0.2021484,-0.1621094,0.1464844
2452,-56.1875,44.6875,-10.75,-0.1767578,-0.1928711,-0.1435547,-0.2006836,-0.1630859,0.1396484
2456,-37.1875,23.625,-3.1875,-0.1533203,-0.1967773,-0.109375,-0.2021484,-0.1679688,0.137207
2460,-14.0625,8.625,-0.1875,0.004882813,-0.1655273,-0.1435547,-0.2006836,-0.1694336,0.1381836
2464,5.375,1.3125,4.875,0.004882813,-0.1269531,-0.1743164,-0.2021484,-0.1694336,0.1357422
2468,18.3125,-9.875,2.5,-0.01416016,-0.006347656,-0.2436523,-0.2021484,-0.1679688,0.137207
2472,22.375,-29.25,-2.5,-0.03320313,0.05908203,-0.324707,-0.2021484,-0.1694336,0.1396484
2476,24.75,-45.4375,-4.0625,0.05126953,0.07470703,-0.4282227,-0.199707,-0.1669922,0.1411133
2480,26.875,-53.4375,-2.375,0.1445313,0.08642578,-0.4975586,-0.1982422,-0.1679688,0.144043
2484,32.8125,-58.75,0.6875,0.2026367,0.105957,-0.5629883,-0.1982422,-0.1630859,0.1450195
2488,35.3125,-63.5,2.625,0.2568359,0.1601563,-0.6245117,-0.1962891,-0.1621094,0.1479492
2492,36.8125,-69.5,1.0625,0.2915039,0.140625,-0.7167969,-0.1923828,-0.1606445,0.1533203
2497,38.1875,-74.1875,-1.1875,0.2026367,0.09033203,-0.7363281,-0.1914063,-0.1582031,0.15625
2501,45.1875,-87.8125,-2.1875,0.1015625,0.03222656,-0.7441406,-0.1889648,-0.1567383,0.1601563
2505,58.25,-102.4375,-0.375,0.1367188,-0.02197266,-0.7861328,-0.184082,-0.1533203,0.1669922
2509,71.375,-109,2.125,0.4116211,-0.002441406,-1.009277,-0.1806641,-0.1508789,0.1723633
2513,75.625,-96.8125,-1.625,0.4892578,0.03222656,-1.05957,-0.1757813,-0.1455078,0.1762695
2517,75.8125,-91.4375,-1.875,0.1635742,-0.03369141,-0.9863281,-0.1723633,-0.1420898,0.1831055
2521,82.9375,-109.25,-0.625,-0.2348633,-0.2241211,-0.824707,-0.168457,-0.1367188,0.1899414
2525,107.375,-145.5625,3.4375,-0.006347656,-0.3173828,-0.9863281,-0.1625977,-0.1318359,0.1953125
2529,133.125,-138.5,-9.5625,0.5708008,-0.2392578,-1.186523,-0.1557617,-0.1220703,0.206543
2533,135.6875,-106.875,-12.5,0.4272461,-0.1577148,-1.30957,-0.1533203,-0.1196289,0.2119141
2537,130,-99.4375,-13.125,0.03173828,-0.1772461,-1.236328,-0.1450195,-0.1108398,0.2172852
2541,129.0625,-112.4375,-2.625,-0.4091797,-0.3676758,-1.036133,-0.1411133,-0.1005859,0.2270508
2545,143.75,-142.375,14.9375,-0.5371094,-0.4570313,-1.013184,-0.1367188,-0.09423828,0.2280273
2549,164.125,-180.25,36.4375,-0.347168,-0.402832,-1.163086,-0.1259766,-0.07958984,0.237793
2553,185.375,-212.625,48.0625,-0.04101563,-0.3911133,-1.509277,-0.112793,-0.06689453,0.2485352
2557,147.6875,-162.3125,42,0.8457031,-0.03759766,-1.625,-0.1020508,-0.05566406,0.2524414
2561,115.3125,-100.5,25.625,0.190918,-0.3676758,-1.375,-0.09228516,-0.04589844,0.2568359
2565,123.125,-103.875,35.8125,-0.3164063,-0.5893555,-1.166992,-0.08300781,-0.03320313,0.2583008
2569,137.75,-117.875,50.6875,-0.5102539,-0.6162109,-1.078613,-0.07470703,-0.02587891,0.262207
2573,156.8125,-148.9375,59.8125,-0.5175781,-0.581543,-1.166992,-0.06640625,-0.01171875,0.262207
2577,145.5,-153.8125,50.5625,0.07080078,-0.2900391,-1.45166,-0.05322266,0.002441406,0.2651367
2581,93,-107.5625,16.0625,0.09375,-0.3095703,-1.301758,-0.04248047,0.01025391,0.2651367
2585,88.25,-114.625,0.25,-0.5722656,-0.7055664,-1.147949,-0.03515625,0.01855469,0.2651367
2589,99.6875,-131.8125,7.1875,-0.6455078,-0.8066406,-0.9594727,-0.0234375,0.02636719,0.2661133
2593,118.1875,-137.5625,17.375,-0.7075195,-0.8842773,-0.8710938,-0.01611328,0.03369141,0.2636719
2597,138.3125,-142.625,34.5625,-0.7426758,-0.8725586,-0.878418,0,0.04394531,0.2651367
2601,140.5,-140.75,37.75,-0.5488281,-0.7016602,-0.9941406,0.01269531,0.05761719,0.2607422
2605,124.75,-133.0625,28.4375,-0.6186523,-0.6821289,-0.9785156,0.02148438,0.06494141,0.2592773
2609,116.5625,-144.5,25,-0.7734375,-0.7524414,-0.9477539,0.03564453,0.07519531,0.2514648
2613,113.75,-155.5625,27.75,-0.765625,-0.7753906,-0.9169922,0.04882813,0.08251953,0.2460938
2617,116.9375,-159.25,37.8125,-0.7734375,-0.8378906,-0.8632813,0.05810547,0.08740234,0.2416992
2621,120.3125,-156.1875,51.625,-0.6611328,-0.7719727,-0.8901367,0.07373047,0.09619141,0.2348633
2626,110.1875,-142.4375,49.75,-0.5410156,-0.6860352,-0.9130859,0.08789063,0.1049805,0.2255859
2630,99.8125,-136.625,41.1875,-0.6455078,-0.7211914,-0.9052734,0.09521484,0.1098633,0.2172852
2634,94.1875,-139.5,38.3125,-0.6884766,-0.7211914,-0.9052734,0.1069336,0.1152344,0.2089844
2638,90.4375,-139.6875,37.4375,-0.6376953,-0.7016602,-0.8823242,0.1225586,0.1201172,0.1967773
2642,86.3125,-133.875,36.375,-0.5952148,-0.6938477,-0.859375,0.128418,0.1235352,0.1889648
2646,85.375,-126.75,35.25,-0.5644531,-0.6899414,-0.8745117,0.1416016,0.1298828,0.1777344
2650,83.5,-114.3125,33.625,-0.5371094,-0.6669922,-0.8862305,0.1533203,0.1323242,0.168457
2654,78.125,-103.25,36.8125,-0.5410156,-0.6279297,-0.9091797,0.1606445,0.1362305,0.1601563
2658,69.375,-90.875,40.4375,-0.4868164,-0.5385742,-0.894043,0.1699219,0.1376953,0.1533203
2662,56.6875,-82.375,38.3125,-0.4365234,-0.4960938,-0.8823242,0.1757813,0.1386719,0.1396484
2666,45.5625,-71.5,36,-0.3901367,-0.503418,-0.8710938,0.1831055,0.1376953,0.1357422
2670,32.5625,-57.0625,31.375,-0.3164063,-0.4570313,-0.8745117,0.1865234,0.1401367,0.1289063
2674,20.6875,-42.9375,29.0625,-0.3164063,-0.4765625,-0.84375,0.1938477,0.1401367,0.1259766
2678,10.9375,-29.5625,27,-0.2851563,-0.4921875,-0.809082,0.1962891,0.1376953,0.1235352
2682,2.5625,-15.8125,24.625,-0.2851563,-0.5,-0.7978516,0.1972656,0.1376953,0.1206055
2686,-8.375,-3.625,19.875,-0.28125,-0.5,-0.7749023,0.199707,0.1337891,0.1220703
2690,-19,7.5,13.125,-0.2773438,-0.519043,-0.7475586,0.2011719,0.1313477,0.1191406
2694,-29.6875,18.875,0.9375,-0.2929688,-0.5385742,-0.7246094,0.1987305,0.1323242,0.1206055
2698,-37.4375,28.3125,-8,-0.3510742,-0.581543,-0.6708984,0.1972656,0.1298828,0.1259766
2702,-42.625,38.25,-12.75,-0.4052734,-0.6240234,-0.644043,0.1962891,0.1313477,0.1259766
2706,-45.4375,48.6875,-14.1875,-0.4404297,-0.6474609,-0.628418,0.1938477,0.1274414,0.1357422
2710,-48.5,60.3125,-14.4375,-0.4868164,-0.6513672,-0.6323242,0.1904297,0.1274414,0.1396484
2714,-50.8125,69.375,-13.875,-0.5292969,-0.6591797,-0.6245117,0.1855469,0.1274414,0.1425781
2718,-54.25,77.125,-14.625,-0.5527344,-0.6474609,-0.6206055,0.1821289,0.125,0.1508789
2722,-59.8125,81.75,-17.4375,-0.5991211,-0.6474609,-0.6513672,0.1748047,0.1225586,0.1572266
2726,-65.125,82.5,-19.75,-0.6494141,-0.6821289,-0.6362305,0.1699219,0.1210938,0.1616211
2730,-68.1875,83.0625,-21.6875,-0.6611328,-0.7055664,-0.609375,0.1630859,0.1176758,0.1723633
2734,-67.5,85.875,-23.5,-0.6728516,-0.7446289,-0.5898438,0.1557617,0.1152344,0.1791992
2738,-62.4375,87.1875,-29,-0.6845703,-0.7792969,-0.5517578,0.1499023,0.1113281,0.1860352
2742,-55.5625,87.75,-34.375,-0.7192383,-0.8066406,-0.5131836,0.1416016,0.1098633,0.1943359
2746,-49.5625,85.9375,-36.75,-0.7617188,-0.8105469,-0.4824219,0.1342773,0.1088867,0.2011719
2750,-43.25,82.6875,-38.25,-0.8007813,-0.8027344,-0.4438477,0.128418,0.1049805,0.206543
