Packet number,Gyroscope X (deg/s),Gyroscope Y (deg/s),Gyroscope Z (deg/s),Accelerometer X (g),Accelerometer Y (g),Accelerometer Z (g),Magnetometer X (G),Magnetometer Y (G),Magnetometer Z (G)
1,1.5625,30.5625,-28.875,-0.7387695,0.5058594,-0.001464844,0.2451172,-0.2480469,0.0009765625
5,2.5625,46.25,-22.0625,-0.8046875,0.4907227,-0.1435547,0.2460938,-0.2456055,0.002441406
9,4.1875,73.8125,-26,-0.7773438,0.6069336,-0.04394531,0.2460938,-0.2441406,0.004882813
13,6.0625,74.75,4.5,-1.176758,0.4399414,-0.2705078,0.2475586,-0.2416992,0.01074219
17,12.5625,69.5625,20,-1.075684,0.4360352,-0.3051758,0.2451172,-0.2431641,0.01855469
21,37,85.625,12.3125,-0.7114258,0.3349609,-0.3359375,0.2412109,-0.2441406,0.02294922
25,53.5625,121.75,38.75,-0.8276367,0.5605469,-0.4628906,0.2412109,-0.2416992,0.03222656
29,57.625,144,37,-0.6611328,0.5761719,-0.6513672,0.2353516,-0.2441406,0.04589844
33,77.6875,165.3125,-14.625,-0.6186523,0.5058594,-0.5976563,0.2319336,-0.2431641,0.05517578
37,100.4375,172.5625,-41.0625,-1.013672,0.6186523,-0.6748047,0.2285156,-0.2368164,0.07324219
42,100.625,149.9375,-15.25,-1.180664,0.8012695,-0.7246094,0.2236328,-0.2294922,0.09228516
46,102.6875,144.0625,-42.4375,-0.8393555,0.6655273,-0.6977539,0.2211914,-0.2246094,0.1030273
50,115.6875,168.125,-51.5625,-0.8432617,0.6420898,-0.8515625,0.2163086,-0.2158203,0.1191406
54,128.8125,185.5625,-40.5,-0.9287109,0.6499023,-0.9130859,0.2080078,-0.2045898,0.1396484
58,131.25,187.625,-37.875,-1.25,0.8442383,-0.9707031,0.2021484,-0.1982422,0.1533203
62,130.5625,172.75,-37.75,-1.133789,0.7470703,-0.9438477,0.1928711,-0.1879883,0.1699219
66,138.5,185.625,-37.5625,-1.001953,0.6962891,-0.9438477,0.1806641,-0.1782227,0.1875
70,142.5,202.5,-35.8125,-1.044922,0.7817383,-0.9746094,0.1748047,-0.1694336,0.1953125
74,140.0625,219,-39.75,-1.168945,0.8012695,-1.009277,0.1616211,-0.1582031,0.2089844
78,144.25,212.875,-44.375,-1.505859,0.7470703,-0.9091797,0.1474609,-0.1430664,0.2226563
82,161.875,182.4375,-52.6875,-1.595215,0.7739258,-0.7670898,0.1376953,-0.1318359,0.230957
86,178,157.5,-51.125,-1.315918,0.7236328,-0.6054688,0.1235352,-0.1181641,0.2392578
90,168.5,162.0625,-56,-1.11084,0.8984375,-0.6860352,0.112793,-0.09716797,0.25
94,139.8125,179.0625,-85.125,-0.9130859,0.8671875,-0.8364258,0.1020508,-0.08447266,0.2514648
98,121.5,189.6875,-86.8125,-1.041016,0.6108398,-0.8476563,0.08886719,-0.07080078,0.2553711
102,125.5625,168.75,-71.125,-1.009766,0.4360352,-0.9052734,0.07373047,-0.05957031,0.2583008
106,136.125,163.8125,-71,-0.8085938,0.3896484,-0.9287109,0.06542969,-0.05078125,0.2592773
110,130.3125,163.0625,-75.6875,-0.8588867,0.4321289,-0.9438477,0.05322266,-0.03808594,0.2592773
114,121.9375,167.5625,-80.25,-0.7036133,0.3041992,-1.032227,0.0390625,-0.02587891,0.2607422
118,124.3125,185.1875,-102,-0.4672852,0.203125,-1.140137,0.02832031,-0.01708984,0.2607422
122,140.75,199.875,-69.3125,-0.715332,0.3349609,-1.094238,0.01269531,-0.008300781,0.262207
126,150,208.8125,-39.25,-0.5605469,0.2416992,-0.7822266,-0.0009765625,0.002441406,0.2568359
130,143.375,213.0625,-19.9375,-0.8046875,0.5097656,-0.5092773,-0.01269531,0.01025391,0.2553711
134,114,170.3125,32.8125,-1.125977,0.5332031,-0.2207031,-0.02685547,0.02001953,0.2514648
138,69.8125,132.5,9,-0.5991211,0.3466797,0.04443359,-0.04150391,0.02734375,0.2460938
142,42.375,112.125,-8.25,-0.6376953,0.1176758,0.09423828,-0.04736328,0.02880859,0.2446289
146,42.8125,71.1875,-10.125,-0.6572266,-0.07617188,0.2402344,-0.05322266,0.03271484,0.2460938
150,49.0625,20.4375,4.875,-0.5644531,0.06689453,0.2944336,-0.05908203,0.03515625,0.2446289
154,40.25,-15.9375,11.0625,-0.4482422,0.171875,0.2944336,-0.05908203,0.03613281,0.2402344
158,37.1875,-38.375,16.5625,-0.2851563,0.09814453,0.1635742,-0.05566406,0.04150391,0.2402344
162,21.5625,-35.75,38.9375,-0.1303711,0.1757813,-0.1977539,-0.05322266,0.04394531,0.2392578
166,-9.1875,-39.625,31.0625,-0.08789063,0.03613281,-0.2436523,-0.04980469,0.04492188,0.2416992
171,-21.25,-49.875,25.25,-0.2661133,-0.08398438,-0.1899414,-0.04736328,0.04394531,0.2416992
175,-14.3125,-78.9375,23.3125,-0.4750977,-0.1420898,-0.08984375,-0.04150391,0.04394531,0.2416992
179,-2.375,-111.375,28.5,-0.5683594,-0.03369141,-0.1977539,-0.03515625,0.04492188,0.2416992
183,-4.9375,-136.125,22.8125,-0.5214844,0.08642578,-0.3476563,-0.02587891,0.04492188,0.2446289
187,-23.125,-144.625,38.875,-0.4169922,0.3041992,-0.5053711,-0.01513672,0.04638672,0.2431641
191,-51.0625,-137.9375,47.4375,-0.3666992,0.3857422,-0.4863281,-0.009277344,0.04736328,0.2446289
195,-80.625,-138.625,50.375,-0.6455078,0.4477539,-0.5322266,0.002441406,0.04492188,0.2485352
199,-109.125,-150.9375,49.4375,-0.6884766,0.3701172,-0.7783203,0.01513672,0.03613281,0.25
203,-121.375,-154.625,49.6875,-0.7851563,0.2226563,-0.8823242,0.0234375,0.03125,0.2514648
207,-119.5625,-158.875,43.9375,-0.8276367,0.08642578,-0.8671875,0.03808594,0.02392578,0.2539063
211,-102.3125,-169.0625,53.0625,-1.083496,0.1333008,-0.7783203,0.04980469,0.01513672,0.2539063
215,-87.375,-189.5625,57.8125,-1.199707,0.2070313,-0.7592773,0.06054688,0.007324219,0.2539063
219,-92.3125,-205.625,62.75,-1.199707,0.3818359,-1.043945,0.07617188,0,0.2514648
223,-106.875,-197.0625,47.375,-0.9829102,0.3388672,-1.066895,0.09277344,-0.01074219,0.25
227,-110.0625,-189.5,52.6875,-1.137695,0.3505859,-1.036133,0.1035156,-0.015625,0.2485352
231,-105,-185.1875,50.5,-1.180664,0.3466797,-0.878418,0.1210938,-0.02929688,0.2431641
235,-100.0625,-184.9375,59.4375,-1.370117,0.5332031,-0.8017578,0.1342773,-0.04052734,0.2363281
239,-105.75,-194.375,62.4375,-1.48291,0.6069336,-0.7363281,0.1450195,-0.04931641,0.2333984
243,-117.0625,-199.8125,55.1875,-1.40918,0.6186523,-0.7822266,0.1630859,-0.06054688,0.2255859
247,-121,-198.8125,48.9375,-1.37793,0.5605469,-0.7553711,0.1748047,-0.07421875,0.2143555
251,-119.125,-196.0625,47.3125,-1.351074,0.5566406,-0.7514648,0.1855469,-0.08056641,0.2089844
255,-113.8125,-187.625,38.4375,-1.242188,0.5253906,-0.7167969,0.2011719,-0.09423828,0.1953125
259,-103.3125,-174.8125,30,-1.246094,0.5371094,-0.6977539,0.2119141,-0.1044922,0.1845703
263,-90.875,-164.8125,28.1875,-1.215332,0.5488281,-0.6479492,0.21875,-0.109375,0.1762695
267,-90.875,-176,51.3125,-1.614258,0.7119141,-0.6860352,0.2319336,-0.1196289,0.1601563
271,-103.125,-191.3125,63,-1.385742,0.7158203,-0.6938477,0.2402344,-0.1308594,0.1425781
275,-117.625,-184.9375,51.75,-1.315918,0.6381836,-0.7324219,0.2475586,-0.1396484,0.1328125
279,-124.1875,-180.625,52.25,-1.261719,0.5410156,-0.7324219,0.2543945,-0.1508789,0.1113281
283,-120.5625,-174,48.1875,-1.191895,0.3974609,-0.7553711,0.2626953,-0.1621094,0.09472656
287,-107.8125,-164.75,49.875,-1.087402,0.3271484,-0.7553711,0.2651367,-0.1704102,0.08105469
291,-97.8125,-151.75,51.4375,-1.067871,0.3662109,-0.7592773,0.2709961,-0.1791992,0.06201172
295,-94.625,-140.5,50.875,-1.044922,0.3779297,-0.7514648,0.2724609,-0.1870117,0.04736328
300,-93.9375,-127.125,45.4375,-0.9248047,0.3041992,-0.7475586,0.2724609,-0.1918945,0.03515625
304,-89.625,-108.0625,37.125,-0.8549805,0.2338867,-0.7631836,0.2734375,-0.1992188,0.02001953
308,-84.625,-86.25,28.25,-0.7387695,0.15625,-0.7670898,0.2734375,-0.203125,0.0078125
312,-76.125,-61.0625,22.25,-0.6962891,0.05908203,-0.8017578,0.2734375,-0.2055664,0
316,-60.875,-37.125,17.4375,-0.6611328,-0.03759766,-0.8056641,0.2734375,-0.2080078,-0.008300781
320,-41.5625,-16.8125,10.4375,-0.6455078,-0.08789063,-0.8056641,0.2734375,-0.2104492,-0.01220703
324,-20.9375,2.5,5,-0.6806641,-0.07226563,-0.7861328,0.2749023,-0.2119141,-0.01367188
328,-1.625,21.1875,-3.125,-0.6806641,-0.04150391,-0.7978516,0.2734375,-0.2119141,-0.01220703
332,15.5625,44.8125,-15.125,-0.6611328,0.01269531,-0.7900391,0.2734375,-0.2104492,-0.01074219
336,30.5625,64.25,-16.3125,-0.699707,0.07080078,-0.8325195,0.2724609,-0.2104492,-0.006835938
340,44.3125,90.3125,-21.6875,-0.6186523,0.09423828,-0.8823242,0.2734375,-0.2080078,0.0009765625
344,56.375,117.1875,-26.9375,-0.7543945,0.1484375,-0.9477539,0.2724609,-0.203125,0.01171875
348,69.375,139.125,-30.5,-0.8354492,0.1953125,-0.9785156,0.2724609,-0.2016602,0.02294922
352,82.625,161,-32.9375,-0.9248047,0.2729492,-0.9902344,0.2724609,-0.1958008,0.03759766
356,95.625,180.3125,-34.1875,-1.052734,0.3427734,-0.9785156,0.2675781,-0.1904297,0.05517578
360,107.4375,191.875,-31.25,-1.211426,0.3779297,-0.9902344,0.2651367,-0.1855469,0.06884766
364,121.0625,202.5,-36.875,-1.23877,0.4013672,-0.9980469,0.2583008,-0.1757813,0.08935547
368,132.875,215.9375,-43.25,-1.358887,0.4711914,-1.01709,0.25,-0.1630859,0.1123047
372,144.1875,226.3125,-43.25,-1.459473,0.5097656,-1.05957,0.2436523,-0.1567383,0.125
376,158.5625,239.5,-43.75,-1.443848,0.5214844,-1.013184,0.2329102,-0.1420898,0.1479492
380,178.375,253.3125,-30.125,-1.501953,0.6186523,-0.9360352,0.215332,-0.1293945,0.175293
384,183.1875,254.375,-14.875,-1.661133,0.8828125,-0.9902344,0.2055664,-0.1196289,0.1875
388,165.75,250.625,-19.0625,-1.67627,0.956543,-1.086426,0.1879883,-0.1054688,0.206543
392,137.3125,256.25,-36.1875,-1.413086,0.8710938,-1.263184,0.1674805,-0.09179688,0.2226563
396,125.625,275.25,-40.875,-1.467285,0.7973633,-1.359375,0.1547852,-0.08203125,0.230957
400,131.125,288.1875,-32.1875,-1.533203,0.7236328,-1.251953,0.1333008,-0.06689453,0.2431641
404,154.3125,277.125,-8.125,-1.761719,0.7197266,-1.090332,0.1103516,-0.0546875,0.2514648
408,172.6875,252.75,9.5625,-1.699707,0.793457,-0.9824219,0.09521484,-0.04443359,0.2539063
412,167.4375,238.6875,-3.6875,-1.629883,0.8208008,-0.9360352,0.07226563,-0.02832031,0.2583008
416,153.375,225.1875,-25.125,-1.45166,0.6811523,-0.8632813,0.05566406,-0.01318359,0.2592773
420,144.5625,216.5,-37.375,-1.172852,0.5058594,-0.8515625,0.04248047,-0.006835938,0.2607422
424,153.6875,204,-32.4375,-1.145508,0.4633789,-0.6552734,0.0234375,0.006347656,0.2583008
429,154.0625,181.0625,-19.0625,-1.033203,0.5332031,-0.559082,0.008300781,0.01855469,0.2583008
433,137.9375,166.1875,-18.25,-0.8549805,0.5292969,-0.4667969,0,0.02490234,0.2524414
437,112.625,150.125,-23.625,-0.746582,0.4985352,-0.3706055,-0.01269531,0.03515625,0.25
441,85.6875,133.75,-33.875,-0.7036133,0.3857422,-0.3051758,-0.02246094,0.04150391,0.2460938
445,73.6875,114.1875,-35,-0.5527344,0.1835938,-0.2285156,-0.03173828,0.04492188,0.2446289
449,72.625,89.625,-28.6875,-0.5102539,0.15625,-0.1669922,-0.03759766,0.04736328,0.2431641
453,71.625,64.6875,-15.625,-0.4130859,0.1953125,-0.1166992,-0.04492188,0.04980469,0.2392578
457,56.9375,48.0625,-11.4375,-0.2661133,0.2456055,-0.09765625,-0.05078125,0.05615234,0.2392578
461,36.25,31.25,-7.625,-0.2348633,0.2924805,-0.09765625,-0.05322266,0.05859375,0.2363281
465,14.5625,16.25,-4.625,-0.215332,0.2338867,-0.03222656,-0.05419922,0.06005859,0.2363281
469,-4.3125,0.5,-2.375,-0.1806641,0.1796875,-0.06689453,-0.05566406,0.06005859,0.2348633
473,-19.75,-10.0625,-2,-0.1728516,0.1020508,-0.1245117,-0.05419922,0.06005859,0.2348633
477,-29.125,-25,0.8125,-0.1884766,0.02832031,-0.1977539,-0.05224609,0.05615234,0.2348633
481,-34,-39.125,3.25,-0.1689453,-0.002441406,-0.2705078,-0.05224609,0.05517578,0.2363281
485,-34.625,-50.8125,7.75,-0.2080078,-0.01416016,-0.3286133,-0.04980469,0.05517578,0.2392578
489,-35,-65.9375,15.375,-0.3046875,0.07080078,-0.3666992,-0.04394531,0.05273438,0.2392578
493,-39.4375,-82.0625,20.3125,-0.3046875,0.140625,-0.3666992,-0.04150391,0.04980469,0.2392578
497,-51.0625,-97.4375,23.5,-0.4013672,0.2768555,-0.3974609,-0.03320313,0.04882813,0.2431641
501,-66.875,-116.5,27.1875,-0.5024414,0.3041992,-0.4360352,-0.02490234,0.04492188,0.2431641
505,-80.875,-137.875,32.25,-0.5644531,0.2885742,-0.6171875,-0.02001953,0.04394531,0.2470703
509,-89.75,-145.75,34.4375,-0.5214844,0.1875,-0.7285156,-0.0078125,0.03515625,0.2514648
513,-96.8125,-148.875,36.5625,-0.5332031,0.171875,-0.8476563,0.004394531,0.03027344,0.2539063
517,-90.375,-155.6875,45.3125,-0.8125,0.1835938,-0.7514648,0.01171875,0.02636719,0.2539063
521,-80.125,-181.3125,61.0625,-1.125977,0.3583984,-0.5864258,0.02734375,0.02148438,0.2553711
525,-88.3125,-209.5,69.9375,-1.187988,0.5644531,-0.574707,0.04150391,0.01367188,0.2553711
529,-116.25,-221.3125,60.0625,-1.075684,0.5410156,-0.7822266,0.05322266,0.01025391,0.2553711
533,-131.375,-219.6875,51.4375,-1.157227,0.4790039,-0.8901367,0.07373047,-0.0004882813,0.2539063
537,-141.0625,-209.1875,46.5625,-1.125977,0.4360352,-0.8862305,0.09277344,-0.01464844,0.2524414
541,-137.5,-207.75,45.3125,-1.312012,0.4555664,-0.7749023,0.1020508,-0.0234375,0.2485352
545,-130.5625,-223.8125,54.9375,-1.498047,0.5952148,-0.6630859,0.1210938,-0.03710938,0.2431641
549,-134.3125,-236.3125,64.8125,-1.45166,0.7626953,-0.7094727,0.1416016,-0.05175781,0.237793
553,-151.875,-232.75,58.5625,-1.393555,0.8325195,-0.7670898,0.1533203,-0.06201172,0.2294922
558,-165.25,-217.4375,56.5625,-1.447754,0.8286133,-0.7553711,0.1699219,-0.08056641,0.2202148
562,-170.125,-213.5,61.0625,-1.513672,0.7353516,-0.7094727,0.1855469,-0.09423828,0.2080078
566,-158.75,-213.875,66.6875,-1.501953,0.6303711,-0.6669922,0.1962891,-0.1054688,0.199707
570,-143.375,-218.25,72,-1.560059,0.7041016,-0.644043,0.2094727,-0.1220703,0.1806641
574,-136.625,-227.0625,83.375,-1.595215,0.8364258,-0.609375,0.2236328,-0.1357422,0.1630859
578,-137.5625,-222.8125,87.1875,-1.541016,0.953125,-0.609375,0.2329102,-0.1494141,0.1494141
582,-146.0625,-219.125,88.0625,-1.505859,0.9296875,-0.6860352,0.2436523,-0.1655273,0.125
586,-152.75,-215.125,88.9375,-1.413086,0.8051758,-0.7783203,0.25,-0.1806641,0.1044922
590,-150.75,-206.0625,84.4375,-1.331543,0.6923828,-0.8632813,0.253418,-0.1918945,0.08789063
594,-143.5625,-193.25,77.6875,-1.257813,0.6264648,-0.8862305,0.2568359,-0.2070313,0.06347656
598,-132.9375,-177.625,71.25,-1.168945,0.5605469,-0.9130859,0.2592773,-0.2192383,0.04296875
602,-118.9375,-158.25,61.8125,-1.052734,0.4750977,-0.9399414,0.2583008,-0.2255859,0.02832031
606,-104.5,-139.75,57.625,-1.044922,0.4282227,-0.9633789,0.2592773,-0.2319336,0.009277344
610,-93.25,-127.5,56,-0.9711914,0.3349609,-0.9326172,0.2583008,-0.2382813,-0.006835938
614,-79.6875,-109.875,48.4375,-0.8046875,0.2226563,-0.9018555,0.2558594,-0.2416992,-0.01611328
618,-68.5,-85.75,38,-0.6572266,0.1293945,-0.8515625,0.253418,-0.2495117,-0.03125
622,-58.875,-57.625,29.125,-0.5913086,0.07861328,-0.8168945,0.2509766,-0.2495117,-0.04052734
626,-49.125,-28.5,17.4375,-0.5644531,0.05126953,-0.8286133,0.2485352,-0.2504883,-0.04345703
630,-37.375,-1.5625,2.5,-0.5488281,0.01269531,-0.8017578,0.2485352,-0.2543945,-0.04882813
634,-19.25,20.25,-8.1875,-0.5527344,-0.04150391,-0.7592773,0.25,-0.2519531,-0.05273438
638,8,39.0625,-13.5625,-0.5683594,-0.07226563,-0.7207031,0.25,-0.2504883,-0.04882813
642,39.1875,55.125,-17.625,-0.6303711,-0.04150391,-0.7016602,0.2509766,-0.2519531,-0.04492188
646,69.875,70.375,-23,-0.6650391,0.01269531,-0.7016602,0.2519531,-0.2480469,-0.03808594
650,96.1875,85.625,-26.5,-0.7036133,0.1137695,-0.7285156,0.2543945,-0.2470703,-0.02832031
654,112.375,102.125,-33.375,-0.746582,0.2416992,-0.7670898,0.2568359,-0.2431641,-0.01464844
658,117.5625,124.875,-47.75,-0.7695313,0.3857422,-0.8208008,0.2558594,-0.2382813,0
662,116.375,150.3125,-59.3125,-0.878418,0.4946289,-0.8632813,0.2568359,-0.234375,0.01171875
666,119.5625,172.9375,-62.4375,-0.9091797,0.4750977,-0.9130859,0.2568359,-0.2280273,0.02978516
670,130.6875,196.1875,-61.125,-1.013672,0.5058594,-0.9672852,0.2558594,-0.2167969,0.05419922
674,143.375,212.375,-55.5,-1.211426,0.6030273,-1.013184,0.2543945,-0.2104492,0.06640625
678,150.0625,227.0625,-51.1875,-1.25,0.777832,-1.051758,0.2485352,-0.1982422,0.09326172
682,140.5,250.125,-47.375,-1.277344,0.9799805,-1.113281,0.2402344,-0.1845703,0.1181641
687,121.1875,276.25,-44,-1.234863,1.108398,-1.174805,0.2319336,-0.1782227,0.1342773
691,94.75,312,-47.4375,-1.308105,1.174316,-1.270996,0.2163086,-0.1630859,0.1586914
695,80.8125,327.875,-62.5,-1.614258,1.131836,-1.26709,0.1962891,-0.1533203,0.1845703
699,91.5625,318.8125,-59.5625,-1.719238,0.9375,-1.232422,0.184082,-0.1469727,0.1982422
703,127.5,308.375,-38.3125,-1.70752,0.8671875,-1.155762,0.1591797,-0.1357422,0.21875
707,166.5,298.5,-11.375,-1.703613,0.9140625,-1.094238,0.1367188,-0.1206055,0.2333984
711,192.75,292.4375,15.875,-1.765625,1.084961,-1.036133,0.1225586,-0.109375,0.2446289
715,185.5625,290.75,28.625,-1.618164,1.287109,-0.9399414,0.09765625,-0.09179688,0.2568359
719,147.875,286.5,19.4375,-1.618164,1.217285,-0.9672852,0.07373047,-0.07568359,0.2607422
723,113.6875,265.875,-9.125,-1.393555,0.7587891,-1.224609,0.05712891,-0.06689453,0.2651367
727,124.375,249.375,-33.375,-1.184082,0.1835938,-1.528809,0.03564453,-0.0546875,0.2675781
731,184.4375,256.9375,-30.125,-1.187988,-0.02587891,-1.467285,0.01269531,-0.04296875,0.269043
735,238.0625,242,-1.1875,-1.265625,0.269043,-1.38623,-0.0009765625,-0.03173828,0.2661133
739,274.625,224.875,24.375,-1.234863,0.5566406,-1.086426,-0.01855469,-0.009277344,0.262207
743,275.25,193.6875,40.125,-1.184082,0.855957,-0.824707,-0.03759766,0.01269531,0.2524414
747,232.625,174,24.9375,-0.8125,0.9838867,-0.628418,-0.04589844,0.02490234,0.2485352
751,161.9375,175.3125,3.125,-0.7426758,0.9799805,-0.2783203,-0.05664063,0.04150391,0.2416992
755,100.125,158.8125,-8.1875,-0.7504883,0.7001953,-0.001464844,-0.06982422,0.04736328,0.2348633
759,75.4375,110.375,-4.1875,-0.8046875,0.3544922,0.09423828,-0.07568359,0.05273438,0.2324219
763,76.1875,59.0625,7.8125,-0.6147461,0.1679688,0.1479492,-0.08300781,0.05615234,0.2270508
767,70.9375,17.125,23.9375,-0.4868164,0.2299805,0.04052734,-0.08544922,0.0625,0.2255859
771,58.0625,-8,13.0625,-0.262207,0.2148438,-0.02832031,-0.08398438,0.06494141,0.2241211
775,38.9375,-19.4375,-2,-0.08007813,0.2226563,-0.1782227,-0.08203125,0.06884766,0.2226563
779,20.8125,-20.375,-10,-0.02978516,0.1992188,-0.1938477,-0.08203125,0.07275391,0.2241211
783,7.375,-27.625,-5.25,-0.01025391,0.1484375,-0.1938477,-0.08056641,0.07275391,0.2226563
787,-1.5,-33.9375,3.5,0.004882813,0.1640625,-0.2397461,-0.078125,0.07275391,0.2211914
791,-13.6875,-40.4375,13.4375,0.004882813,0.1601563,-0.2631836,-0.07470703,0.07128906,0.2241211
795,-26.9375,-42.4375,17.9375,0.02050781,0.1523438,-0.3012695,-0.07470703,0.07275391,0.2255859
799,-44.625,-39.75,14.0625,0.02050781,0.1293945,-0.359375,-0.06982422,0.06982422,0.2270508
803,-58.1875,-41.625,11,-0.1303711,0.121582,-0.3359375,-0.06640625,0.06738281,0.2270508
807,-67.875,-57.8125,14,-0.3393555,0.2148438,-0.324707,-0.06494141,0.06396484,0.2280273
811,-80.1875,-88.1875,19.0625,-0.4443359,0.2924805,-0.324707,-0.05908203,0.06103516,0.230957
816,-92.6875,-116.625,23.375,-0.4985352,0.3349609,-0.4707031,-0.05224609,0.05761719,0.2348633
820,-103.8125,-135.5,22.75,-0.4790039,0.2573242,-0.5283203,-0.04492188,0.05371094,0.2392578
824,-111.1875,-151.75,27.0625,-0.5566406,0.2338867,-0.7441406,-0.03417969,0.04492188,0.2431641
828,-111.75,-159.6875,31.5625,-0.6147461,0.171875,-0.8632813,-0.02099609,0.04003906,0.2460938
832,-114.5,-177.6875,19.0625,-0.5410156,0.02441406,-1.19043,-0.01416016,0.03515625,0.25
836,-94.8125,-178.6875,19.1875,-0.6069336,-0.03759766,-1.213379,0.0009765625,0.02636719,0.2539063
840,-72.625,-190.0625,40.1875,-0.5834961,-0.03369141,-1.182617,0.01660156,0.02001953,0.2583008
844,-47,-185.625,73.9375,-0.6416016,0.1953125,-1.024902,0.02734375,0.01855469,0.2583008
848,-50,-178.75,101.4375,-0.7036133,0.4711914,-0.9477539,0.04248047,0.01123047,0.2568359
852,-84.25,-167.0625,95.125,-0.5756836,0.4594727,-1.274902,0.05957031,0.004882813,0.2553711
856,-112.625,-135.625,52.3125,-0.6455078,0.4321289,-1.270996,0.06884766,0.001464844,0.2553711
860,-133.8125,-126.4375,30,-0.9672852,0.5097656,-1.128418,0.07958984,-0.01074219,0.2539063
864,-131.1875,-137.125,41,-1.133789,0.4555664,-0.894043,0.09130859,-0.02197266,0.2524414
868,-117.5,-156.4375,61.125,-1.211426,0.5136719,-0.7861328,0.09960938,-0.03076172,0.2524414
872,-108.875,-169.9375,71.5625,-1.242188,0.6655273,-0.7133789,0.112793,-0.04296875,0.2470703
876,-121.1875,-182.25,70.9375,-1.269531,0.8012695,-0.7514648,0.1269531,-0.05712891,0.2431641
880,-133.4375,-186.9375,66.375,-1.149414,0.6772461,-0.8286133,0.1367188,-0.06591797,0.2392578
884,-135.5625,-182.25,68.125,-1.087402,0.5644531,-0.9208984,0.1508789,-0.08056641,0.230957
888,-129.5625,-177.5,64.5,-1.048828,0.5019531,-0.9130859,0.1665039,-0.09814453,0.2211914
892,-117.3125,-176.0625,69.375,-1.129883,0.5878906,-0.8515625,0.1748047,-0.1054688,0.2143555
896,-109,-177.0625,77.375,-1.133789,0.7392578,-0.7670898,0.1865234,-0.1196289,0.2036133
900,-114,-175.8125,80.0625,-1.141602,0.9023438,-0.7441406,0.1972656,-0.1342773,0.1899414
904,-126.1875,-169.375,79.5625,-1.07959,0.921875,-0.7246094,0.2045898,-0.140625,0.1821289
908,-132.5625,-157.25,80.1875,-1.041016,0.855957,-0.7167969,0.2128906,-0.1582031,0.1669922
912,-133.75,-147.5625,82.125,-1.067871,0.8325195,-0.6899414,0.2202148,-0.1704102,0.1494141
916,-135.4375,-143.25,82.4375,-1.07959,0.8051758,-0.6860352,0.2236328,-0.1831055,0.1411133
920,-133.375,-138.5625,79.5625,-1.067871,0.7817383,-0.6669922,0.2285156,-0.1967773,0.1259766
924,-128.3125,-131.1875,74.5625,-1.005859,0.7236328,-0.6323242,0.2319336,-0.2119141,0.1069336
928,-126.0625,-123.9375,71.25,-0.9946289,0.7470703,-0.6362305,0.2329102,-0.2192383,0.09765625
932,-124.875,-113.4375,70.0625,-0.8818359,0.6845703,-0.6054688,0.2329102,-0.2304688,0.08105469
936,-119,-95.0625,69,-0.8432617,0.6264648,-0.5976563,0.2353516,-0.2407227,0.06494141
940,-117.25,-78.9375,64.25,-0.8125,0.5913086,-0.628418,0.2329102,-0.2495117,0.05664063
945,-114.4375,-59.625,50.9375,-0.7192383,0.4790039,-0.6787109,0.2319336,-0.2583008,0.04296875
949,-110.25,-36.25,33.75,-0.6376953,0.3505859,-0.7670898,0.230957,-0.2631836,0.03369141
953,-102.375,-11.375,18.375,-0.6147461,0.2265625,-0.8745117,0.2294922,-0.2670898,0.02685547
957,-88.125,-0.0625,11.4375,-0.765625,0.105957,-0.9399414,0.2294922,-0.2695313,0.02001953
961,-55.4375,5.125,3.4375,-0.7036133,-0.07617188,-0.9326172,0.2294922,-0.2719727,0.01464844
965,-15.4375,12.9375,-1.4375,-0.6767578,-0.05664063,-0.9399414,0.2285156,-0.2729492,0.01464844
969,16.5,27.5,-5.625,-0.6147461,0.03613281,-0.9052734,0.2285156,-0.2729492,0.01464844
973,34.0625,46.375,-15.375,-0.5991211,0.15625,-0.9091797,0.2294922,-0.2705078,0.01708984
977,42.3125,70.5625,-29.6875,-0.6030273,0.2226563,-0.9018555,0.2294922,-0.2695313,0.02392578
981,47.6875,95.1875,-49.3125,-0.6376953,0.2495117,-0.894043,0.230957,-0.265625,0.03076172
985,57.25,116.5625,-62.3125,-0.7231445,0.269043,-0.878418,0.230957,-0.2607422,0.04199219
989,70.6875,133.375,-67.6875,-0.8125,0.3081055,-0.9091797,0.230957,-0.2529297,0.05419922
993,86.5,148.6875,-71.1875,-0.8549805,0.3466797,-0.9516602,0.230957,-0.2456055,0.06640625
997,100.875,168,-73.3125,-0.8745117,0.4360352,-0.9824219,0.230957,-0.2368164,0.08398438
1001,112.6875,184.875,-74.5625,-0.9946289,0.5527344,-0.9594727,0.2285156,-0.2270508,0.09619141
1005,126.3125,195.625,-73.5,-1.099121,0.6303711,-0.9672852,0.2260742,-0.2167969,0.1152344
1009,140.75,200.5,-73.75,-1.219238,0.7158203,-0.9941406,0.2163086,-0.2016602,0.1342773
1013,152.25,201.3125,-76,-1.234863,0.8208008,-1.009277,0.2119141,-0.1918945,0.1494141
1017,157.75,210.4375,-74.5625,-1.168945,0.8984375,-1.040039,0.2011719,-0.1733398,0.1708984
1021,160.0625,226.4375,-63.625,-1.215332,0.9643555,-1.090332,0.1879883,-0.1582031,0.1889648
1025,165.3125,239.25,-49.3125,-1.273438,0.9643555,-1.113281,0.1772461,-0.1479492,0.2021484
1029,174.9375,246.375,-25.6875,-1.32373,0.9492188,-1.224609,0.1606445,-0.1318359,0.2202148
1033,184.3125,248.375,-10.375,-1.397461,0.9492188,-1.232422,0.1416016,-0.1157227,0.2348633
1037,177.5625,235.6875,-14.5625,-1.447754,0.9453125,-1.290039,0.128418,-0.1069336,0.2416992
1041,173.0625,226.4375,-25.9375,-1.432129,0.7739258,-1.251953,0.109375,-0.08837891,0.2514648
1045,182.125,217.8125,-39.25,-1.273438,0.7666016,-1.217285,0.09277344,-0.07080078,0.2592773
1049,192.875,210.8125,-38.6875,-1.292969,0.6655273,-1.151855,0.07958984,-0.05810547,0.2607422
1053,193.5,199.4375,-24.3125,-1.191895,0.7509766,-1.209473,0.06152344,-0.03955078,0.2675781
1057,188.375,207.8125,-23.5625,-0.9946289,0.6772461,-1.125,0.04638672,-0.0234375,0.2661133
1061,177.6875,214.875,-28,-1.005859,0.6884766,-1.170898,0.03320313,-0.01074219,0.2661133
1065,173.125,210.75,-22.625,-1.037109,0.5800781,-1.109375,0.01416016,0.00390625,0.2607422
1069,170.5,200.6875,-35.375,-0.78125,0.4282227,-1.090332,-0.001953125,0.01855469,0.2583008
1074,174.75,204.5,-34.875,-0.8393555,0.4829102,-0.8862305,-0.01269531,0.02636719,0.2539063
1078,169.125,195.4375,-18.8125,-0.9091797,0.5800781,-0.6401367,-0.02832031,0.03759766,0.2485352
1082,155.9375,168.625,4.625,-0.8857422,0.6499023,-0.4052734,-0.04394531,0.04980469,0.2416992
1086,129.625,136.75,16.4375,-0.5488281,0.5371094,-0.3901367,-0.05078125,0.05615234,0.2392578
1090,100.9375,122.6875,4.6875,-0.4482422,0.4711914,-0.2246094,-0.05908203,0.06640625,0.2333984
1094,71.375,103.6875,-5.5,-0.362793,0.315918,-0.1860352,-0.06884766,0.06982422,0.2280273
1098,61.625,87,-4.0625,-0.4365234,0.253418,0.02099609,-0.07226563,0.07275391,0.2270508
1102,49.3125,51,5.5625,-0.4711914,0.3041992,0.1289063,-0.07958984,0.07617188,0.2241211
1106,29.625,11.3125,10.3125,-0.3974609,0.3193359,0.1367188,-0.08056641,0.07763672,0.2211914
1110,6.375,-14.125,2.8125,-0.2700195,0.253418,0.04052734,-0.08056641,0.07861328,0.2202148
1114,-10.625,-29.875,-4.3125,-0.1572266,0.105957,-0.128418,-0.078125,0.07861328,0.2226563
1118,-16.4375,-37,-11,-0.1069336,0.06298828,-0.1821289,-0.07714844,0.07861328,0.2226563
1122,-22.0625,-47.4375,-10.0625,-0.09912109,0.09033203,-0.2167969,-0.07568359,0.07763672,0.2211914
1126,-28.875,-57.3125,-0.875,-0.09521484,0.1640625,-0.2055664,-0.07226563,0.07617188,0.2241211
1130,-43.5625,-66.75,7.75,-0.1030273,0.2885742,-0.2089844,-0.06640625,0.07373047,0.2255859
1134,-66.3125,-71.875,10.8125,-0.1923828,0.4086914,-0.1938477,-0.06298828,0.07275391,0.2294922
1138,-93.8125,-87.8125,8.125,-0.3588867,0.4204102,-0.2631836,-0.05810547,0.06738281,0.230957
1142,-111.125,-111.5625,5.75,-0.4633789,0.3193359,-0.4013672,-0.05224609,0.06396484,0.2363281
1146,-112.8125,-134.9375,9.6875,-0.5292969,0.2963867,-0.4594727,-0.04492188,0.05615234,0.237793
1150,-110.5625,-160.5625,23.9375,-0.6264648,0.3388672,-0.6171875,-0.03417969,0.04980469,0.2431641
1154,-107.25,-181.75,37.625,-0.7578125,0.4750977,-0.6054688,-0.02099609,0.04394531,0.2470703
1158,-119.625,-209.875,51.625,-0.8549805,0.5722656,-0.8208008,-0.01025391,0.04003906,0.2539063
1162,-131.875,-227,51.6875,-0.7270508,0.3740234,-1.08252,0.006835938,0.03125,0.2539063
1166,-129.625,-220.75,36.0625,-0.6962891,0.3388672,-1.144043,0.02587891,0.02148438,0.2592773
1170,-131.875,-215.9375,36.9375,-0.7270508,0.4086914,-1.259277,0.03808594,0.01269531,0.2592773
1174,-128.6875,-197.875,53.5,-0.7075195,0.4633789,-1.193848,0.05712891,0.002441406,0.2592773
1178,-138.375,-184.625,69.6875,-0.715332,0.5253906,-1.244141,0.07470703,-0.009277344,0.2592773
1182,-146.75,-162.375,70.125,-0.6455078,0.3779297,-1.351563,0.08203125,-0.01953125,0.2568359
1186,-147,-140.625,35.8125,-0.7426758,0.2963867,-1.313477,0.09765625,-0.03564453,0.2553711
1190,-134.1875,-136.6875,29.5,-1.060547,0.3857422,-1.163086,0.109375,-0.04931641,0.2524414
1194,-122.8125,-148.0625,45.4375,-1.234863,0.5761719,-0.9516602,0.1166992,-0.05810547,0.2485352
1198,-121.9375,-160.9375,60.1875,-1.315918,0.8208008,-0.7900391,0.1293945,-0.06933594,0.2446289
1203,-138.875,-168.5,62.75,-1.393555,1.022949,-0.7441406,0.1425781,-0.08447266,0.237793
1207,-161.0625,-171.125,58.1875,-1.343262,0.9916992,-0.8168945,0.1508789,-0.09423828,0.2324219
1211,-173.875,-165.75,52,-1.312012,0.8867188,-0.8515625,0.1630859,-0.1108398,0.2226563
1215,-174.8125,-165.4375,51.5,-1.366211,0.824707,-0.8515625,0.1748047,-0.1279297,0.2119141
1219,-164.4375,-168.25,56,-1.393555,0.7705078,-0.8017578,0.184082,-0.140625,0.2011719
1223,-151.3125,-178,66.25,-1.428223,0.8051758,-0.7709961,0.1948242,-0.1557617,0.1860352
1227,-143.3125,-187.125,73.4375,-1.374023,0.8442383,-0.7402344,0.2055664,-0.1733398,0.1699219
1231,-141.25,-189.0625,69.5625,-1.285156,0.8442383,-0.7324219,0.2128906,-0.1806641,0.1586914
1235,-137.8125,-186.6875,69.25,-1.230957,0.8051758,-0.7055664,0.21875,-0.1967773,0.137207
1239,-132.875,-183.5,71.25,-1.180664,0.7895508,-0.7094727,0.2260742,-0.2104492,0.1166992
1243,-127.6875,-172.5625,71.9375,-1.063965,0.7548828,-0.6977539,0.2270508,-0.2192383,0.1044922
1247,-126.1875,-159.25,70.9375,-1.017578,0.7392578,-0.6977539,0.230957,-0.2319336,0.08544922
1251,-124.1875,-145.8125,70.4375,-0.9711914,0.6733398,-0.6821289,0.2329102,-0.2416992,0.06787109
1255,-120.625,-131.1875,64.5625,-0.9326172,0.6225586,-0.6708984,0.2319336,-0.2504883,0.05419922
1259,-118.375,-117.4375,53.375,-0.878418,0.5566406,-0.6938477,0.2329102,-0.2592773,0.04052734
1263,-113.875,-101.8125,39.4375,-0.7734375,0.4243164,-0.7285156,0.2319336,-0.265625,0.02148438
1267,-101.4375,-83.6875,29.8125,-0.6767578,0.2885742,-0.7631836,0.2319336,-0.2670898,0.01318359
1271,-87.125,-62.25,22.1875,-0.5834961,0.2109375,-0.7900391,0.2319336,-0.2729492,0
1275,-73.875,-35.5625,16.5625,-0.4868164,0.1333008,-0.8208008,0.2294922,-0.2753906,-0.009277344
1279,-57.625,-3.875,9.9375,-0.4208984,0.03613281,-0.84375,0.2294922,-0.2768555,-0.01367188
1283,-39.875,22.75,-0.8125,-0.4633789,0.03222656,-0.8515625,0.230957,-0.2768555,-0.01757813
1287,-21.25,42.4375,-15.8125,-0.5102539,0.05517578,-0.8325195,0.230957,-0.2783203,-0.01611328
1291,-3.625,55.9375,-32.9375,-0.5952148,0.09423828,-0.8671875,0.2319336,-0.2768555,-0.01464844
1295,18,66.1875,-45.375,-0.5952148,0.05126953,-0.9091797,0.2329102,-0.2729492,-0.01074219
1299,47.875,79.875,-51,-0.6147461,0.04003906,-0.9746094,0.234375,-0.2680664,-0.00390625
1303,79.75,98,-52.8125,-0.5795898,0.05517578,-1.013184,0.2368164,-0.265625,0.00390625
1307,110,121.25,-51.8125,-0.6494141,0.1953125,-1.043945,0.2392578,-0.2592773,0.01855469
1311,129.75,143.8125,-52.8125,-0.746582,0.3662109,-1.063477,0.2392578,-0.2529297,0.03515625
1315,137.8125,168,-63.25,-0.878418,0.5332031,-1.078613,0.237793,-0.2456055,0.04736328
1319,140.5625,186.75,-72.125,-1.029297,0.6186523,-1.074707,0.237793,-0.2358398,0.0703125
1323,150.375,203.8125,-74.8125,-1.184082,0.6186523,-1.090332,0.2329102,-0.2246094,0.09326172
1327,166.5,220.625,-69.8125,-1.25,0.6459961,-1.186523,0.2294922,-0.2119141,0.1069336
1332,184.8125,240.625,-63.125,-1.304199,0.6923828,-1.340332,0.222168,-0.1982422,0.137207
1336,199.9375,251.1875,-67.75,-1.525391,0.8828125,-1.397949,0.2104492,-0.1831055,0.1586914
1340,200.5,243.3125,-82.4375,-1.70752,1.057617,-1.375,0.2021484,-0.1679688,0.175293
1344,204.5,238.5,-91,-1.691895,1.04248,-1.313477,0.1879883,-0.1469727,0.1943359
1348,217.5,238.875,-80.8125,-1.75,1.09668,-1.305664,0.1689453,-0.1245117,0.2143555
1352,230.3125,242,-63.9375,-1.757813,1.174316,-1.205566,0.1606445,-0.109375,0.2270508
1356,234.5,247.625,-48.75,-1.67627,1.232422,-1.066895,0.1401367,-0.08837891,0.237793
1360,218.9375,249.875,-46.125,-1.742188,1.39209,-0.9018555,0.1210938,-0.06298828,0.2485352
1364,182.875,245.875,-48.75,-1.629883,1.349121,-0.7783203,0.105957,-0.05078125,0.2553711
1368,144.5625,244.3125,-51.5,-1.420898,1.108398,-0.7783203,0.08544922,-0.03320313,0.2592773
1372,118.5,247.3125,-55,-1.114746,0.7080078,-0.8168945,0.06396484,-0.02050781,0.2636719
1376,108.6875,250.625,-63.25,-0.9633789,0.3349609,-1.028809,0.05078125,-0.01318359,0.2636719
1380,128.25,250.625,-69.9375,-0.9130859,0.05126953,-1.066895,0.02832031,-0.0004882813,0.2651367
1384,160.375,234.1875,-53.4375,-1.029297,0.1137695,-1.128418,0.008300781,0.01123047,0.262207
1388,192.5,213.0625,-38.125,-0.8085938,0.1137695,-0.9824219,-0.005859375,0.01855469,0.2583008
1392,208.375,200.9375,-30.75,-0.6884766,0.3818359,-0.9902344,-0.0234375,0.03369141,0.2524414
1396,198.3125,207,-31.4375,-0.6611328,0.6616211,-0.7285156,-0.03759766,0.04882813,0.2460938
1400,151,200.8125,-33.375,-0.6767578,0.8671875,-0.5131836,-0.04736328,0.05761719,0.2402344
1404,98.9375,183.9375,-27.1875,-0.7504883,0.7470703,-0.2553711,-0.06494141,0.06494141,0.230957
1408,67.4375,149.4375,-20.4375,-0.7617188,0.4633789,-0.03613281,-0.07568359,0.07128906,0.2241211
1412,54.1875,100.75,-17.875,-0.699707,0.2495117,0.05175781,-0.08300781,0.06982422,0.2226563
1416,49.875,57.5625,-10.375,-0.6069336,0.1640625,0.1479492,-0.09033203,0.07519531,0.2172852
1420,40.4375,16.25,-4.9375,-0.5214844,0.2109375,0.1328125,-0.09130859,0.07617188,0.21875
1424,23.125,-17,-7.0625,-0.3862305,0.2299805,0.04785156,-0.09375,0.07861328,0.2172852
1428,4.6875,-42,-8.875,-0.2387695,0.1914063,-0.09375,-0.09228516,0.07861328,0.2158203
1432,-11.6875,-51.25,-11.4375,-0.09130859,0.1445313,-0.2324219,-0.09033203,0.07861328,0.2172852
1436,-22.4375,-50.0625,-13.0625,0.0009765625,0.03613281,-0.3129883,-0.08642578,0.07861328,0.21875
1440,-25.8125,-50.75,-11.375,-0.02978516,0.03613281,-0.4052734,-0.08300781,0.07617188,0.21875
1444,-27.9375,-55.5625,-2.5625,-0.08007813,0.1098633,-0.4248047,-0.07958984,0.07519531,0.2226563
1448,-38.9375,-62.75,9.4375,-0.09130859,0.1992188,-0.4399414,-0.07714844,0.07373047,0.2226563
1452,-55.1875,-67.4375,19.0625,-0.1381836,0.2495117,-0.4516602,-0.07470703,0.07275391,0.2270508
1456,-76.625,-78.5625,19.625,-0.2426758,0.253418,-0.5478516,-0.06738281,0.06738281,0.230957
1461,-87.0625,-89.4375,16.5625,-0.3085938,0.1640625,-0.5400391,-0.06396484,0.06396484,0.230957
1465,-91.9375,-108.0625,20.125,-0.4907227,0.21875,-0.5708008,-0.05810547,0.06005859,0.2348633
1469,-98.6875,-131.5625,25.25,-0.5795898,0.2495117,-0.6323242,-0.04833984,0.05517578,0.2392578
1473,-103.625,-157,36.5,-0.7504883,0.2807617,-0.8168945,-0.04003906,0.04980469,0.2431641
1477,-106.875,-181.0625,34.8125,-0.5683594,0.09033203,-0.9902344,-0.02832031,0.04394531,0.25
1481,-96.25,-178.9375,35.5,-0.6186523,0.2265625,-0.9980469,-0.01269531,0.03613281,0.2514648
1485,-102.1875,-182.4375,45.6875,-0.7387695,0.4399414,-0.9785156,-0.001953125,0.03271484,0.2553711
1489,-113.8125,-187.5,60.5,-0.8974609,0.5175781,-0.9672852,0.01171875,0.02490234,0.2583008
1493,-138.3125,-204.375,66.9375,-0.7695313,0.3623047,-1.248047,0.02832031,0.01123047,0.2607422
1497,-134.9375,-193.1875,58.125,-0.6767578,0.2265625,-1.244141,0.04150391,0.007324219,0.262207
1501,-128.375,-159.0625,50.5625,-0.5683594,0.4438477,-1.166992,0.05810547,-0.006835938,0.262207
1505,-141.125,-130.125,38.375,-0.78125,0.7275391,-1.036133,0.06982422,-0.01953125,0.262207
1509,-153.4375,-126.0625,53.4375,-1.114746,0.793457,-0.9633789,0.07861328,-0.03076172,0.2607422
1513,-164.8125,-149.5625,68.1875,-1.261719,0.6577148,-1.005371,0.09033203,-0.04833984,0.2607422
1517,-160.75,-165.625,57.8125,-1.095215,0.3818359,-1.128418,0.1010742,-0.06298828,0.2568359
1521,-149.5625,-164.875,40.375,-1.095215,0.3779297,-1.128418,0.1118164,-0.07421875,0.2524414
1525,-137.0625,-172.4375,35.9375,-1.187988,0.3818359,-1.08252,0.1259766,-0.08935547,0.2470703
1529,-117.625,-182.125,45.375,-1.230957,0.5058594,-0.9785156,0.1376953,-0.1020508,0.2402344
1533,-110.375,-191.0625,58.3125,-1.227051,0.7236328,-0.9130859,0.1499023,-0.1108398,0.2324219
1537,-120,-192.25,68.5625,-1.149414,0.90625,-0.8901367,0.1616211,-0.1245117,0.2202148
1541,-139.9375,-182.6875,70.25,-1.106934,0.953125,-0.9018555,0.1772461,-0.1367188,0.2050781
1545,-153.9375,-166.1875,63.6875,-1.114746,0.8671875,-0.8710938,0.1855469,-0.1479492,0.1982422
1549,-160.5625,-157.875,53.5,-1.157227,0.7666016,-0.8554688,0.1962891,-0.1645508,0.1806641
1553,-155.875,-155.8125,51.625,-1.176758,0.6733398,-0.7939453,0.2045898,-0.1806641,0.1640625
1557,-145.875,-159.3125,53.4375,-1.234863,0.6499023,-0.7592773,0.2119141,-0.1904297,0.15625
1561,-135.9375,-164.25,57.3125,-1.199707,0.6499023,-0.7441406,0.2177734,-0.2055664,0.1357422
1565,-127.4375,-160.125,57.8125,-1.114746,0.6381836,-0.7167969,0.2236328,-0.2182617,0.1181641
1569,-123.6875,-147.75,53.75,-1.017578,0.6459961,-0.6938477,0.2260742,-0.2231445,0.1069336
1573,-123.875,-134.625,47.25,-0.9477539,0.6030273,-0.7016602,0.2285156,-0.2329102,0.08789063
1577,-121.6875,-119.25,37.8125,-0.878418,0.5019531,-0.7167969,0.2319336,-0.2416992,0.07177734
1581,-112.4375,-107.125,30.25,-0.8588867,0.3857422,-0.7324219,0.2329102,-0.2480469,0.06201172
1585,-96.125,-97.875,25.3125,-0.7929688,0.300293,-0.7207031,0.2368164,-0.2519531,0.04736328
1590,-75.5,-88.125,23.8125,-0.715332,0.2456055,-0.7207031,0.2353516,-0.2583008,0.03613281
1594,-58.5625,-74.5625,17.3125,-0.6376953,0.2265625,-0.7363281,0.2353516,-0.2617188,0.02832031
1598,-46.0625,-57.125,10.0625,-0.5253906,0.1835938,-0.7553711,0.2353516,-0.2631836,0.01855469
1602,-33.1875,-32.75,2,-0.4829102,0.1445313,-0.7783203,0.2353516,-0.265625,0.01464844
1606,-18.625,-5.9375,-1.625,-0.4443359,0.1098633,-0.7822266,0.2368164,-0.2641602,0.01074219
1610,-2.3125,18,-5.125,-0.4594727,0.06298828,-0.8168945,0.2368164,-0.265625,0.009277344
1614,17,37.5,-11,-0.4907227,0.02441406,-0.859375,0.2368164,-0.265625,0.01074219
1618,34.9375,52.75,-21.6875,-0.5141602,0.04003906,-0.9130859,0.237793,-0.2641602,0.01611328
1622,56,68.8125,-33.1875,-0.5683594,0.05517578,-0.9477539,0.237793,-0.2631836,0.02539063
1626,79.4375,85,-40.875,-0.5913086,0.1098633,-0.9555664,0.237793,-0.2568359,0.03369141
1630,100.375,104.5,-46.5,-0.6264648,0.21875,-0.9824219,0.2368164,-0.2543945,0.04052734
1634,116.6875,124.5,-50.625,-0.6884766,0.3193359,-1.009277,0.2412109,-0.2470703,0.05517578
1638,129,141.6875,-56.5625,-0.8125,0.4360352,-1.055664,0.2368164,-0.2358398,0.07324219
1642,135.875,155.25,-65.25,-0.9438477,0.5253906,-1.121094,0.2353516,-0.2304688,0.08544922
1646,140.25,169.3125,-78.0625,-1.013672,0.5761719,-1.170898,0.230957,-0.2167969,0.1069336
1650,137.6875,190.125,-95,-1.048828,0.7197266,-1.248047,0.2285156,-0.2045898,0.125
1654,124.6875,219.25,-110.9375,-1.052734,0.8208008,-1.297852,0.2211914,-0.1918945,0.1357422
1658,102.75,246.4375,-122.25,-1.215332,0.987793,-1.375,0.215332,-0.1743164,0.1586914
1662,75.3125,259.9375,-131.9375,-1.351074,1.034668,-1.44043,0.2021484,-0.1582031,0.1821289
1666,62.0625,268.75,-132.3125,-1.397461,0.972168,-1.45166,0.1928711,-0.1479492,0.1943359
1670,68.625,276.0625,-115.75,-1.439941,0.90625,-1.371094,0.1738281,-0.1342773,0.2119141
1674,88.6875,283.4375,-82.4375,-1.618164,0.953125,-1.278809,0.1533203,-0.1230469,0.2270508
1678,108.3125,283.4375,-59,-1.866211,0.987793,-1.109375,0.1391602,-0.1142578,0.2348633
1682,122.5625,268.6875,-48.0625,-1.932129,0.9682617,-0.9326172,0.1186523,-0.1020508,0.2485352
1686,131.9375,252.5625,-36.3125,-1.881836,0.9604492,-0.8056641,0.09619141,-0.08837891,0.2568359
1690,125.25,242.1875,-25.625,-1.657227,0.9375,-0.7207031,0.08447266,-0.07714844,0.2607422
1694,105.625,241.375,-15.9375,-1.397461,0.7705078,-0.7592773,0.06298828,-0.06591797,0.2675781
1698,94.3125,244,-15.375,-1.106934,0.4711914,-0.8823242,0.04248047,-0.0546875,0.2675781
1702,109.8125,248.6875,-7,-0.9711914,0.1523438,-0.8710938,0.03076172,-0.04833984,0.269043
1706,135.375,252.1875,9.8125,-0.9438477,0.15625,-0.9438477,0.008300781,-0.03955078,0.269043
1710,154.1875,251.5625,18.5,-0.9868164,0.1640625,-0.7861328,-0.01513672,-0.02441406,0.2675781
1714,148.5625,217.6875,13.9375,-1.087402,0.3818359,-0.9248047,-0.02587891,-0.01806641,0.2636719
1719,141.6875,196.25,-4.1875,-0.8745117,0.2495117,-0.8862305,-0.04248047,-0.006835938,0.2583008
1723,133.75,186.375,-24,-0.6147461,0.1445313,-0.7475586,-0.05664063,0.00390625,0.2553711
1727,127.5,181,-6.5625,-0.7114258,0.2807617,-0.5400391,-0.06640625,0.01123047,0.25
1731,107.1875,150,8.3125,-0.7851563,0.5136719,-0.2089844,-0.07958984,0.01757813,0.2446289
1735,62.1875,99.1875,-8.375,-0.8046875,0.6264648,0.01367188,-0.08886719,0.02490234,0.2392578
1739,24.75,46.8125,-20.75,-0.6303711,0.4243164,-0.01318359,-0.09228516,0.02636719,0.237793
1743,12.625,19.6875,-24,-0.3432617,0.09814453,-0.01318359,-0.09716797,0.02636719,0.2363281
1747,23.0625,-9,-14.375,-0.4169922,0.02050781,-0.07470703,-0.09619141,0.02636719,0.2363281
1751,33.9375,-42.25,-7.1875,-0.3320313,0.05517578,-0.1206055,-0.09472656,0.02734375,0.237793
1755,39.75,-67.75,-6.9375,-0.2734375,0.1367188,-0.1743164,-0.09130859,0.03027344,0.237793
1759,28.5,-85.9375,-9.375,-0.1845703,0.2416992,-0.2670898,-0.08544922,0.03125,0.2402344
1763,4.4375,-90.875,-15.875,-0.05273438,0.2456055,-0.3168945,-0.08056641,0.03369141,0.2392578
1767,-13.3125,-90.25,-12.625,-0.03320313,0.1293945,-0.3554688,-0.07470703,0.03369141,0.2431641
1771,-22.9375,-90.625,-0.5625,0.004882813,0.05517578,-0.378418,-0.06884766,0.03271484,0.2431641
1775,-25.5625,-88.375,15.8125,-0.06445313,0.01660156,-0.3823242,-0.06494141,0.03125,0.2460938
1779,-26.5625,-91.6875,29.75,-0.2583008,0.04736328,-0.3706055,-0.05419922,0.03125,0.2485352
1783,-30.375,-106.5625,37.625,-0.4946289,0.1293945,-0.4091797,-0.04980469,0.03027344,0.2485352
1787,-44.9375,-128.75,30.75,-0.5566406,0.1445313,-0.5629883,-0.04248047,0.02880859,0.2514648
1791,-57.625,-142.4375,17.9375,-0.4711914,0.07080078,-0.6323242,-0.03173828,0.02490234,0.2539063
1795,-59.0625,-148.6875,22.625,-0.5371094,0.06298828,-0.6245117,-0.02246094,0.02246094,0.2539063
1799,-51.875,-160.125,41.5,-0.7270508,0.1137695,-0.4824219,-0.01171875,0.02001953,0.2568359
1803,-49,-184.6875,63.5,-0.9868164,0.3120117,-0.5209961,0.002441406,0.01611328,0.2583008
1807,-73,-209.0625,60.8125,-0.9091797,0.3740234,-0.9169922,0.01904297,0.01123047,0.2592773
1811,-100.3125,-198.75,25.6875,-0.5913086,0.2573242,-1.078613,0.02978516,0.007324219,0.2592773
1815,-111.375,-180.5,17.9375,-0.7504883,0.1445313,-1.009277,0.04638672,0,0.2607422
1819,-85.25,-179.625,48.375,-0.9399414,0.04394531,-0.8017578,0.06152344,-0.009277344,0.2592773
1823,-53.125,-189.875,84.1875,-1.161133,0.284668,-0.6401367,0.07226563,-0.015625,0.2583008
1827,-51.4375,-208.8125,101.0625,-1.366211,0.6459961,-0.6401367,0.08789063,-0.02197266,0.2568359
1831,-85.1875,-219.125,83.0625,-1.246094,0.6845703,-0.8168945,0.1069336,-0.03076172,0.2514648
1835,-108.1875,-219.5,49.75,-1.223145,0.4750977,-0.9169922,0.1186523,-0.03808594,0.2460938
1839,-112.4375,-220.5,35.625,-1.261719,0.4243164,-0.9399414,0.1367188,-0.04931641,0.2392578
1843,-96.4375,-229.5625,45.5625,-1.405273,0.4052734,-0.8710938,0.1547852,-0.06201172,0.2294922
1848,-74.1875,-247.3125,56.875,-1.486328,0.5136719,-0.8129883,0.1665039,-0.06835938,0.2241211
1852,-67.5625,-254.375,59.25,-1.443848,0.6811523,-0.7783203,0.1855469,-0.07714844,0.2089844
1856,-78.3125,-249.75,65.375,-1.351074,0.7666016,-0.7861328,0.2011719,-0.08544922,0.1953125
1860,-97.8125,-228.9375,70.4375,-1.227051,0.809082,-0.7900391,0.2138672,-0.09423828,0.1845703
1864,-116.25,-206.5,76.1875,-1.308105,0.7392578,-0.7514648,0.2285156,-0.1054688,0.1669922
1868,-124.3125,-196.0625,81.375,-1.385742,0.6147461,-0.7167969,0.2402344,-0.1220703,0.1464844
1872,-119,-190.3125,86.9375,-1.40918,0.4985352,-0.6708984,0.2475586,-0.1293945,0.1342773
1876,-105.875,-186.25,92.875,-1.443848,0.4711914,-0.6245117,0.253418,-0.1455078,0.1166992
1880,-94.75,-183.875,98.375,-1.436035,0.4907227,-0.5976563,0.2592773,-0.1606445,0.09765625
1884,-90.125,-177.875,95.3125,-1.385742,0.5253906,-0.5668945,0.2617188,-0.1694336,0.08398438
1888,-94,-166.5625,90.625,-1.261719,0.5449219,-0.5551758,0.269043,-0.1831055,0.06787109
1892,-102.625,-145.4375,81.125,-1.168945,0.5175781,-0.5283203,0.269043,-0.1943359,0.04736328
1896,-108.9375,-129.25,77.5625,-1.141602,0.3935547,-0.5361328,0.2700195,-0.2016602,0.03759766
1900,-104.0625,-114.125,71.9375,-1.063965,0.2495117,-0.5400391,0.2675781,-0.2119141,0.02148438
1904,-91.1875,-100.4375,65.25,-0.9907227,0.1484375,-0.5244141,0.2651367,-0.2207031,0.0078125
1908,-78.1875,-86.4375,55.25,-0.9365234,0.140625,-0.5786133,0.2666016,-0.2231445,0
1912,-69.25,-70.4375,41.6875,-0.831543,0.1254883,-0.6171875,0.2626953,-0.2280273,-0.01220703
1916,-61.875,-52.375,28.375,-0.746582,0.105957,-0.6552734,0.2602539,-0.234375,-0.02050781
1920,-55.625,-33.1875,16,-0.6728516,0.07470703,-0.6860352,0.2617188,-0.2329102,-0.02441406
1924,-45.1875,-10.1875,6.3125,-0.5644531,0.02441406,-0.7055664,0.2602539,-0.2368164,-0.03125
1928,-29.375,16.0625,-3,-0.5063477,-0.04882813,-0.7670898,0.2602539,-0.2358398,-0.03369141
1932,-3.8125,38.6875,-8.625,-0.5449219,-0.07617188,-0.7939453,0.2592773,-0.2368164,-0.03369141
1936,24.6875,55.9375,-13.5,-0.5952148,-0.02587891,-0.8017578,0.2617188,-0.2368164,-0.02734375
1940,50.4375,72,-21.4375,-0.6264648,0.06298828,-0.8168945,0.2617188,-0.2329102,-0.02148438
1944,71.375,88.8125,-30.4375,-0.6650391,0.1640625,-0.8286133,0.2626953,-0.2329102,-0.01464844
1948,87.75,109,-37.625,-0.6303711,0.2456055,-0.8823242,0.2626953,-0.2280273,-0.00390625
1952,100.625,139.875,-40.0625,-0.6962891,0.3583984,-0.8862305,0.2626953,-0.2231445,0.01171875
1956,106.0625,165,-40.1875,-0.7929688,0.4399414,-0.9248047,0.2626953,-0.2192383,0.02539063
1960,116.375,189.625,-38.6875,-0.9248047,0.4829102,-0.894043,0.2602539,-0.2119141,0.04443359
1964,128.75,205.75,-35.4375,-1.067871,0.5722656,-0.9130859,0.2583008,-0.203125,0.06640625
1968,135.5625,220.125,-37.8125,-1.165039,0.6811523,-0.9091797,0.2543945,-0.1982422,0.08105469
1972,137.1875,229.875,-40.75,-1.242188,0.7275391,-0.9130859,0.2460938,-0.1855469,0.1069336
1977,141.9375,243.375,-37.5,-1.23877,0.7080078,-0.9360352,0.2353516,-0.1757813,0.1289063
1981,153.6875,252.1875,-22.125,-1.32373,0.7509766,-0.9438477,0.2294922,-0.1645508,0.144043
1985,164.625,254.1875,-5.8125,-1.471191,0.9296875,-0.9169922,0.2138672,-0.1494141,0.168457
1989,157.25,241.5625,9.0625,-1.575684,1.135742,-0.8901367,0.1928711,-0.1396484,0.1928711
1993,135.75,234.1875,2.625,-1.463379,1.174316,-0.8554688,0.1821289,-0.1318359,0.2021484
1997,104.3125,236.1875,-24.375,-1.362793,1.108398,-1.005371,0.1640625,-0.1230469,0.2172852
2001,86.0625,250.25,-50.5625,-1.273438,0.8671875,-0.9902344,0.1450195,-0.1142578,0.2324219
2005,98.5,254.0625,-31.0625,-1.428223,0.7001953,-0.9863281,0.1342773,-0.1083984,0.2402344
2009,140.4375,239.375,7.3125,-1.479004,0.5644531,-0.9633789,0.1152344,-0.09570313,0.2470703
2013,184.875,222.8125,33.4375,-1.366211,0.6147461,-0.9208984,0.09375,-0.08056641,0.2568359
2017,194.75,199.75,40.75,-1.230957,0.7666016,-1.094238,0.08203125,-0.06933594,0.262207
2021,174.9375,197.125,1.5625,-0.8896484,0.7158203,-1.293945,0.06787109,-0.05175781,0.2636719
2025,145.375,222.0625,-56.25,-0.7270508,0.5878906,-1.394043,0.04882813,-0.03710938,0.2675781
2029,142.125,241.625,-63.4375,-0.8164063,0.3779297,-1.344238,0.03564453,-0.02929688,0.2661133
2033,169.5,242.0625,-31.75,-0.9091797,0.3388672,-1.286133,0.01416016,-0.01464844,0.2661133
2037,184.4375,235.375,-3.9375,-0.6264648,0.3310547,-1.632813,-0.005859375,0,0.262207
2041,192.875,263.875,-16.4375,-0.5024414,0.3349609,-1.670898,-0.01855469,0.007324219,0.2592773
2045,193,285,-12.75,-0.6030273,0.5214844,-1.494141,-0.04150391,0.02246094,0.2539063
2049,189.6875,299.125,15.4375,-0.7929688,0.6577148,-0.9326172,-0.06298828,0.03759766,0.2460938
2053,163.4375,274.125,43.3125,-1.029297,0.8598633,-0.3398438,-0.078125,0.04492188,0.2363281
2057,117.375,209.5,34.4375,-1.253906,0.9604492,0.1557617,-0.09619141,0.05371094,0.2270508
2061,63.1875,115.125,11.375,-1.20752,0.6733398,0.4213867,-0.1079102,0.06103516,0.21875
2065,36.5,37.625,-12,-0.9130859,0.2963867,0.4790039,-0.1113281,0.06396484,0.2172852
2069,25.5,-29.375,-23.625,-0.7504883,0.2070313,0.2519531,-0.1137695,0.06396484,0.2158203
2073,20.625,-74.5,-32.8125,-0.3706055,0.07080078,-0.06298828,-0.1103516,0.06494141,0.2202148
2077,20.875,-90.875,-32.1875,-0.05273438,-0.04150391,-0.324707,-0.109375,0.06494141,0.2202148
2081,29.5,-80.6875,-22.625,0.1635742,-0.04541016,-0.359375,-0.1020508,0.06640625,0.2202148
2085,29,-70.6875,-6.25,0.1635742,0.1757813,-0.3012695,-0.09619141,0.06884766,0.2241211
2089,10.9375,-62.375,6.875,0.1948242,0.3623047,-0.2363281,-0.09228516,0.06884766,0.2226563
2093,-24.9375,-50.75,11.8125,0.1210938,0.4399414,-0.2744141,-0.08789063,0.06982422,0.2226563
2097,-59.8125,-41.75,9.75,0.004882813,0.2885742,-0.3359375,-0.08642578,0.06738281,0.2255859
2101,-79.9375,-45.5,5.4375,-0.1767578,0.1254883,-0.3666992,-0.08300781,0.06396484,0.2280273
2106,-81.125,-65.6875,3.25,-0.3320313,0.01269531,-0.3974609,-0.07958984,0.06005859,0.230957
2110,-73.625,-92.0625,2.5,-0.3745117,0.02050781,-0.4321289,-0.07470703,0.05517578,0.2333984
2114,-72.1875,-115.5,6.75,-0.4326172,0.1020508,-0.5708008,-0.06982422,0.05126953,0.2392578
2118,-72.4375,-134.6875,10.375,-0.3432617,0.06298828,-0.7016602,-0.05908203,0.04882813,0.2402344
2122,-68.25,-142.125,19.5,-0.4013672,0.21875,-0.6899414,-0.04980469,0.04394531,0.2446289
2126,-78.75,-152.0625,29.5625,-0.5410156,0.4868164,-0.6054688,-0.04150391,0.04003906,0.2460938
2130,-104.5,-168.25,39,-0.7192383,0.6577148,-0.6977539,-0.02929688,0.03759766,0.2514648
2134,-132.9375,-181.25,28.6875,-0.6611328,0.5332031,-0.8862305,-0.01513672,0.03027344,0.2553711
2138,-148.9375,-185.75,21.9375,-0.796875,0.4594727,-1.032227,-0.003417969,0.02490234,0.2592773
2142,-150.5,-192.5,15.8125,-0.7890625,0.3349609,-1.063477,0.01074219,0.01123047,0.262207
2146,-134.25,-200.5,27.125,-1.033203,0.4594727,-0.9438477,0.02832031,-0.001953125,0.2651367
2150,-122.4375,-216.625,54.875,-1.157227,0.6845703,-0.8979492,0.04052734,-0.009277344,0.2636719
2154,-133.9375,-228.75,71.8125,-1.242188,0.8984375,-1.028809,0.05957031,-0.01953125,0.2636719
2158,-171.3125,-226.375,46.1875,-0.9013672,0.7314453,-1.305664,0.07861328,-0.03466797,0.2592773
2162,-192.5,-199.5,1.625,-0.9790039,0.6264648,-1.351563,0.09033203,-0.04589844,0.2592773
2166,-192.375,-196.6875,-3,-1.180664,0.4907227,-1.251953,0.109375,-0.06445313,0.2539063
2170,-163.3125,-203,21.6875,-1.389648,0.5097656,-1.070801,0.1235352,-0.08203125,0.2470703
2174,-138.4375,-217,48.5,-1.475098,0.7158203,-0.9360352,0.1357422,-0.09179688,0.2402344
2178,-138.0625,-224.1875,57.75,-1.436035,0.9643555,-0.894043,0.1523438,-0.1083984,0.2294922
2182,-158.125,-218,49.75,-1.351074,1.088867,-0.8823242,0.1674805,-0.1230469,0.2172852
2186,-180.625,-208.75,43.375,-1.296875,1.026855,-0.8979492,0.1772461,-0.1293945,0.2080078
2190,-190.4375,-194.5,44.5625,-1.273438,0.9257813,-0.8901367,0.1928711,-0.1445313,0.1899414
2194,-187.6875,-189.1875,55.3125,-1.304199,0.8286133,-0.8901367,0.2055664,-0.1621094,0.168457
2198,-176.0625,-188.25,64.4375,-1.261719,0.7666016,-0.8823242,0.2138672,-0.1743164,0.15625
2202,-164.3125,-184.0625,65.5,-1.23877,0.7666016,-0.894043,0.222168,-0.1933594,0.137207
2206,-155.25,-178.3125,63.3125,-1.176758,0.7470703,-0.9130859,0.2260742,-0.2080078,0.1123047
2210,-147.625,-168.9375,58.25,-1.103027,0.7236328,-0.8979492,0.234375,-0.2167969,0.1015625
2214,-140.8125,-157.4375,54.3125,-1.029297,0.6733398,-0.8862305,0.2368164,-0.2270508,0.08251953
2218,-133.1875,-145.125,51.5,-0.9633789,0.6108398,-0.8745117,0.237793,-0.2392578,0.06103516
2222,-123.5625,-129.875,46.1875,-0.8706055,0.5175781,-0.8671875,0.2412109,-0.2441406,0.04980469
2226,-111.6875,-115.0625,42.8125,-0.8276367,0.4321289,-0.8710938,0.237793,-0.2519531,0.03369141
2230,-99.8125,-98.0625,36.6875,-0.6962891,0.315918,-0.8632813,0.2402344,-0.2583008,0.02001953
2235,-85.125,-77.1875,27.75,-0.6225586,0.21875,-0.840332,0.2402344,-0.2607422,0.0078125
2239,-70.5,-55.5625,19.6875,-0.5722656,0.1484375,-0.840332,0.2392578,-0.2641602,-0.001464844
2243,-55.0625,-32.5625,10.5625,-0.5292969,0.05517578,-0.8364258,0.2368164,-0.2670898,-0.008300781
2247,-34.4375,-11.375,2.125,-0.5063477,-0.03369141,-0.8515625,0.2368164,-0.2680664,-0.01074219
2251,-9.5625,8.875,-3,-0.5063477,-0.09960938,-0.8710938,0.237793,-0.2670898,-0.01220703
2255,20.5625,27.4375,-8.5625,-0.5102539,-0.1191406,-0.9091797,0.237793,-0.2680664,-0.01220703
2259,50.0625,46.5625,-16.125,-0.5102539,-0.07617188,-0.9438477,0.2392578,-0.265625,-0.009277344
2263,76.625,68.375,-25.8125,-0.5253906,-0.002441406,-0.9633789,0.2392578,-0.2641602,-0.001464844
2267,95.75,92.8125,-36.0625,-0.5683594,0.1293945,-0.9824219,0.2402344,-0.2607422,0.0078125
2271,108.875,111.875,-46.375,-0.7270508,0.2768555,-1.032227,0.2412109,-0.2558594,0.01708984
2275,123.625,129.125,-59.25,-0.8007813,0.3310547,-1.036133,0.2402344,-0.2504883,0.03515625
2279,138.1875,143.3125,-69.9375,-0.8935547,0.4907227,-1.086426,0.2412109,-0.2407227,0.05273438
2283,150.9375,163.1875,-75.625,-0.9130859,0.5683594,-1.132324,0.2402344,-0.234375,0.06494141
2287,166.1875,185.5625,-69.75,-1.029297,0.6577148,-1.174805,0.237793,-0.2216797,0.08691406
2291,184.125,202.5,-58.875,-1.161133,0.7470703,-1.174805,0.2329102,-0.2070313,0.1113281
2295,194.625,212.625,-54.9375,-1.319824,0.8945313,-1.144043,0.2285156,-0.1958008,0.1259766
2299,195.5,219.6875,-57.0625,-1.374023,0.987793,-1.121094,0.21875,-0.1791992,0.1508789
2303,191.6875,229.0625,-63.625,-1.436035,1.022949,-1.08252,0.2070313,-0.1606445,0.1738281
2307,189.125,236.8125,-63.125,-1.471191,0.9995117,-1.090332,0.1948242,-0.1469727,0.1875
2311,193.375,241.3125,-54.375,-1.556152,0.9799805,-1.086426,0.1796875,-0.1293945,0.2080078
2315,196.6875,240.625,-49.4375,-1.533203,0.9643555,-1.08252,0.1591797,-0.1108398,0.2241211
2319,198.75,239.6875,-47.375,-1.552246,0.987793,-1.078613,0.1474609,-0.1005859,0.2333984
2323,196.125,237.875,-45.5,-1.40918,0.956543,-1.047852,0.1308594,-0.07958984,0.2460938
2327,192.3125,239.0625,-37.3125,-1.405273,0.890625,-1.094238,0.1103516,-0.06054688,0.2524414
2331,186.5,237.4375,-43.9375,-1.277344,0.7587891,-1.144043,0.09619141,-0.04833984,0.2568359
2335,176.625,243.375,-64.4375,-1.048828,0.5332031,-1.317383,0.07470703,-0.02832031,0.2607422
2339,182.5,262.9375,-87.25,-0.9438477,0.3193359,-1.344238,0.05322266,-0.01171875,0.262207
2343,204.875,277.4375,-89.5,-1.029297,0.2265625,-1.363281,0.03808594,0,0.262207
2347,237.5,279.8125,-72.375,-1.095215,0.3310547,-1.263184,0.01171875,0.02001953,0.2592773
2351,250.375,261.75,-43.75,-1.118652,0.5761719,-1.140137,-0.01171875,0.04003906,0.2539063
2355,228.5,228.4375,-14.375,-1.223145,0.8945313,-0.9980469,-0.0234375,0.05273438,0.2446289
2359,167.5,180.5625,-25.875,-0.9672852,0.8286133,-0.8017578,-0.04003906,0.06884766,0.237793
2364,114.125,166.9375,-60.1875,-0.715332,0.5097656,-0.7246094,-0.05322266,0.07617188,0.2280273
2368,82.1875,154.375,-85.6875,-0.6455078,0.2729492,-0.6591797,-0.06298828,0.08105469,0.2270508
2372,76.375,130.25,-77.9375,-0.6225586,0.1333008,-0.4707031,-0.07568359,0.08105469,0.21875
2376,78.5625,95.0625,-48.125,-0.5566406,0.2265625,-0.3632813,-0.08544922,0.08251953,0.2133789
2380,73.9375,67.5625,-15.375,-0.3974609,0.3349609,-0.2055664,-0.09033203,0.08740234,0.2143555
2384,51.625,42.3125,12.25,-0.3393555,0.3779297,-0.1977539,-0.09375,0.08886719,0.2089844
2388,29.1875,29.9375,19.6875,-0.1420898,0.203125,-0.1591797,-0.09472656,0.09130859,0.2080078
2392,13.1875,27.625,16.75,-0.1845703,0.1875,-0.109375,-0.09716797,0.09228516,0.2050781
2396,-3.6875,9.5,21.25,-0.3164063,0.2226563,-0.06298828,-0.09716797,0.09228516,0.206543
2400,-18.125,-14.9375,18,-0.2929688,0.171875,-0.09375,-0.09716797,0.09228516,0.206543
2404,-35.375,-40.0625,14.0625,-0.2929688,0.1679688,-0.1938477,-0.09619141,0.09375,0.2080078
2408,-52.1875,-60.1875,8.0625,-0.1342773,0.02050781,-0.324707,-0.09130859,0.09130859,0.2104492
2412,-54.875,-57.8125,-4.4375,0.03564453,-0.1694336,-0.4321289,-0.08789063,0.08984375,0.2133789
2416,-45.9375,-55.6875,-3.25,-0.05273438,-0.1616211,-0.4248047,-0.08398438,0.08642578,0.2143555
2420,-36.9375,-62.4375,14.4375,-0.1225586,-0.01025391,-0.378418,-0.08056641,0.08251953,0.2202148
2424,-40.75,-73.625,32.1875,-0.1884766,0.1757813,-0.4130859,-0.07568359,0.08251953,0.2202148
2428,-59.9375,-86.5,39.5625,-0.2583008,0.2963867,-0.5014648,-0.06982422,0.08007813,0.2211914
2432,-83.1875,-96.125,37.875,-0.296875,0.253418,-0.6132813,-0.06494141,0.07861328,0.2241211
2436,-100.3125,-99.5,20.625,-0.28125,0.1523438,-0.7441406,-0.05664063,0.07275391,0.2324219
2440,-111.75,-108.1875,-0.4375,-0.4013672,0.1445313,-0.8129883,-0.05078125,0.06884766,0.2333984
2444,-115,-125.5,-4.0625,-0.4555664,0.1293945,-0.8745117,-0.04394531,0.06103516,0.2392578
2448,-107.0625,-139.1875,8.9375,-0.5253906,0.1992188,-0.878418,-0.03320313,0.05371094,0.2446289
2452,-105.25,-156.75,37.75,-0.7075195,0.3349609,-0.9208984,-0.02685547,0.04980469,0.2460938
2456,-120.5,-173.4375,42.1875,-0.5102539,0.2416992,-1.13623,-0.01269531,0.04248047,0.2514648
2460,-121.875,-159.0625,23.25,-0.5449219,0.140625,-1.128418,0.0009765625,0.03271484,0.2553711
2464,-115.6875,-161.375,22.375,-0.7695313,0.2456055,-1.040039,0.008300781,0.02636719,0.2583008
2468,-103.625,-176.25,37.4375,-1.037109,0.3896484,-0.9018555,0.02148438,0.01611328,0.262207
2472,-96.875,-202.125,65.5,-1.273438,0.5952148,-0.824707,0.04052734,0.008789063,0.262207
2476,-110.25,-222.1875,84.875,-1.215332,0.7041016,-0.9399414,0.05078125,0.002441406,0.262207
2480,-143.6875,-216.875,69.875,-0.8706055,0.5722656,-1.186523,0.07128906,-0.009277344,0.2592773
2484,-166.375,-190.125,38.875,-0.8745117,0.4750977,-1.232422,0.08886719,-0.02685547,0.2583008
2488,-170.375,-177.6875,37.1875,-1.12207,0.4282227,-1.13623,0.1010742,-0.03808594,0.2568359
2493,-153.25,-185.125,53,-1.370117,0.4282227,-1.013184,0.1166992,-0.05566406,0.25
2497,-131.5,-206.75,75.75,-1.525391,0.5800781,-0.9287109,0.1308594,-0.06933594,0.2446289
2501,-125.0625,-220.875,89.4375,-1.339355,0.6845703,-0.9169922,0.144043,-0.08056641,0.237793
2505,-133.4375,-207.6875,84.1875,-1.223145,0.824707,-0.9477539,0.1582031,-0.09716797,0.2270508
2509,-154.75,-193.0625,74.25,-1.211426,0.8867188,-0.9594727,0.1748047,-0.109375,0.2158203
2513,-174.3125,-183.4375,68.75,-1.234863,0.8481445,-0.9707031,0.1821289,-0.1220703,0.2080078
2517,-182.5625,-178,66.625,-1.257813,0.777832,-0.9707031,0.1972656,-0.1396484,0.1899414
2521,-179.6875,-179.0625,69.0625,-1.265625,0.6694336,-0.9555664,0.2080078,-0.1567383,0.1738281
2525,-163.9375,-176.25,76.125,-1.199707,0.5605469,-0.9360352,0.2128906,-0.1704102,0.1601563
2529,-143.1875,-167.375,75.625,-1.145508,0.5332031,-0.9018555,0.222168,-0.1904297,0.1425781
2533,-126.3125,-159.4375,78.75,-1.12207,0.5800781,-0.8979492,0.2270508,-0.2016602,0.1259766
2537,-116.9375,-153.4375,80.4375,-1.133789,0.6303711,-0.8745117,0.230957,-0.2119141,0.1123047
2541,-116.125,-148.5,73.4375,-1.001953,0.5878906,-0.8745117,0.2329102,-0.2246094,0.09472656
2545,-114.9375,-135.4375,64.4375,-0.8818359,0.5136719,-0.8710938,0.2353516,-0.2368164,0.08105469
2549,-109.5625,-114.125,56.125,-0.7617188,0.4052734,-0.840332,0.234375,-0.2407227,0.06640625
2553,-104.1875,-90.625,45.25,-0.7036133,0.3466797,-0.7978516,0.2368164,-0.2495117,0.05126953
2557,-97.125,-74.0625,33.5625,-0.6884766,0.300293,-0.7514648,0.2368164,-0.2568359,0.04052734
2561,-85.75,-60.375,23.9375,-0.699707,0.237793,-0.7475586,0.2353516,-0.2607422,0.03515625
2565,-69.625,-47.8125,13.9375,-0.6611328,0.15625,-0.7709961,0.2353516,-0.2631836,0.02392578
2569,-51.25,-33.375,3.875,-0.5756836,0.09423828,-0.7822266,0.2368164,-0.265625,0.01611328
2573,-30.3125,-14.0625,-4.5625,-0.5175781,0.04736328,-0.7900391,0.2353516,-0.265625,0.01171875
2577,-8.8125,8,-8.6875,-0.4790039,0.01269531,-0.824707,0.2368164,-0.2670898,0.01074219
2581,13.5625,34,-16.125,-0.4946289,0.02050781,-0.8476563,0.2368164,-0.265625,0.01074219
2585,31.8125,55,-25.9375,-0.5795898,0.07470703,-0.8823242,0.2368164,-0.2641602,0.01464844
2589,48.9375,70.1875,-40.375,-0.6186523,0.08251953,-0.894043,0.2392578,-0.2607422,0.02148438
2593,69,84.625,-56.0625,-0.6455078,0.1098633,-0.9326172,0.2402344,-0.2558594,0.03076172
2597,89.875,103.8125,-64.9375,-0.6455078,0.1640625,-0.9785156,0.2402344,-0.2495117,0.0390625
2601,108.25,122.9375,-65.75,-0.7036133,0.2456055,-1.047852,0.2412109,-0.2431641,0.05419922
2605,127.875,144,-62.8125,-0.7426758,0.3120117,-1.086426,0.2402344,-0.2329102,0.0703125
2609,146.9375,159.5,-59.8125,-0.8354492,0.4013672,-1.117188,0.2392578,-0.2255859,0.08398438
2613,165.0625,170.875,-57.8125,-0.9672852,0.5214844,-1.078613,0.2368164,-0.2143555,0.1044922
2617,177.6875,177.6875,-57.5,-1.071777,0.6303711,-1.032227,0.2294922,-0.2006836,0.1235352
2622,185.6875,184.0625,-57.375,-1.137695,0.7353516,-1.009277,0.2246094,-0.1879883,0.137207
2626,188.1875,191.125,-58.125,-1.145508,0.7856445,-0.9863281,0.215332,-0.171875,0.1572266
2630,186.875,204.5,-57.625,-1.187988,0.840332,-1.040039,0.2045898,-0.1557617,0.1791992
2634,187.25,212.8125,-53.375,-1.289063,0.8325195,-1.005371,0.1962891,-0.140625,0.1899414
2638,188.9375,211.375,-47.4375,-1.428223,0.8286133,-0.9863281,0.1796875,-0.1245117,0.2089844
2642,195.625,197.75,-48.25,-1.567871,0.824707,-0.894043,0.1640625,-0.1054688,0.2226563
2646,199.5625,175.1875,-51.25,-1.57959,0.8325195,-0.859375,0.1533203,-0.09326172,0.2333984
2650,200.25,158.5,-53.25,-1.467285,0.793457,-0.8901367,0.1416016,-0.07324219,0.2416992
2654,191.125,150.5625,-54.375,-1.172852,0.6616211,-1.028809,0.1269531,-0.05322266,0.2446289
2658,183.625,161.6875,-59.5625,-1.041016,0.5683594,-1.170898,0.1176758,-0.04199219,0.2485352
2662,173.8125,172.25,-58.625,-0.9750977,0.4868164,-1.328613,0.1044922,-0.02050781,0.2539063
2666,178.8125,188.875,-66.5,-0.9633789,0.4086914,-1.293945,0.09033203,-0.003417969,0.2539063
2670,187.25,198.75,-64,-1.11084,0.5136719,-1.221191,0.07861328,0.007324219,0.2539063
2674,183.5625,192.8125,-53.3125,-1.168945,0.5722656,-1.170898,0.05957031,0.02636719,0.2539063
2678,168.9375,184.625,-49.375,-1.087402,0.4829102,-1.186523,0.04248047,0.04248047,0.2514648
2682,152.875,182.75,-66.6875,-0.878418,0.300293,-1.19043,0.03320313,0.05126953,0.2485352
2686,138.875,191.875,-92.9375,-0.746582,0.2265625,-1.236328,0.01660156,0.06103516,0.2431641
2690,130.4375,202.25,-116.375,-0.715332,0.2148438,-1.105469,0,0.07275391,0.2392578
2694,130.625,201.1875,-108.125,-0.8085938,0.300293,-0.9130859,-0.01513672,0.07763672,0.2333984
2698,124.5,177.9375,-67.6875,-0.878418,0.4086914,-0.7514648,-0.03173828,0.08496094,0.2270508
2702,110.125,147.625,-44.0625,-0.6650391,0.3544922,-0.5976563,-0.04589844,0.09130859,0.2202148
2706,97.625,127.9375,-40.75,-0.5566406,0.3271484,-0.4785156,-0.05224609,0.09521484,0.2172852
2710,78.1875,107.375,-39.625,-0.4985352,0.3349609,-0.3208008,-0.06054688,0.09765625,0.2133789
2714,63.375,86.1875,-30.6875,-0.4829102,0.300293,-0.1513672,-0.06982422,0.1010742,0.2089844
2718,49.5,54.5625,-19.25,-0.4482422,0.2963867,-0.06689453,-0.07470703,0.1025391,0.2050781
2722,34.4375,23.6875,-4.5,-0.4013672,0.315918,-0.06298828,-0.07714844,0.1064453,0.2036133
2726,14.125,-0.875,1.6875,-0.246582,0.2265625,-0.09765625,-0.07714844,0.1074219,0.2021484
2730,-1.9375,-11.1875,0.75,-0.1147461,0.105957,-0.1899414,-0.07714844,0.1064453,0.2011719
2734,-9.5625,-12.3125,-6.25,-0.1069336,0.05908203,-0.2397461,-0.07714844,0.1049805,0.2036133
2738,-19.1875,-23.75,-6.6875,-0.1303711,0.06689453,-0.2978516,-0.07568359,0.1049805,0.2036133
2742,-25.625,-35.8125,0.9375,-0.1225586,0.08642578,-0.3208008,-0.07226563,0.1064453,0.2036133
2746,-34.1875,-48.125,14.5,-0.1264648,0.09033203,-0.3632813,-0.07226563,0.1035156,0.206543
2751,-44.5,-58.0625,31.125,-0.1689453,0.1176758,-0.4477539,-0.06884766,0.1035156,0.2089844
2755,-55.3125,-62.1875,36.9375,-0.1420898,0.06298828,-0.5053711,-0.06396484,0.1010742,0.2104492
2759,-61.0625,-65.4375,33.625,-0.2504883,0.1137695,-0.5244141,-0.05908203,0.09863281,0.2133789
2763,-73.4375,-82.5,33.875,-0.4208984,0.2299805,-0.5517578,-0.05419922,0.09619141,0.2172852
2767,-97.5625,-109.125,35.9375,-0.5449219,0.2885742,-0.6787109,-0.04980469,0.09228516,0.21875
2771,-120.9375,-129.375,26.75,-0.4169922,0.121582,-0.809082,-0.04003906,0.08740234,0.2226563
2775,-127.5625,-128.875,17.125,-0.4326172,0.05908203,-0.878418,-0.02832031,0.08007813,0.230957
2779,-121.9375,-135.8125,11.25,-0.5874023,0.04736328,-0.809082,-0.02587891,0.07373047,0.2363281
2783,-107.875,-158,22.75,-0.8745117,0.1796875,-0.8129883,-0.01416016,0.06738281,0.2416992
2787,-112.875,-190.25,41.9375,-0.9790039,0.300293,-0.9516602,-0.001953125,0.05859375,0.2470703
2791,-122.6875,-206.5625,43.1875,-0.8085938,0.1875,-1.005371,0.009277344,0.05273438,0.2470703
2795,-128.1875,-199.5625,38.375,-0.699707,0.1484375,-1.086426,0.02832031,0.04394531,0.2514648
2799,-118.5625,-181.6875,33.875,-0.831543,0.203125,-0.9902344,0.04394531,0.03271484,0.2539063
2803,-112.875,-186.4375,50.5625,-1.172852,0.4516602,-0.9248047,0.05322266,0.02636719,0.2539063
2807,-118.0625,-204,75.3125,-1.343262,0.6264648,-0.8745117,0.07128906,0.01513672,0.2539063
2811,-140.25,-217.3125,91.4375,-1.265625,0.7080078,-0.9785156,0.09033203,0.002441406,0.2524414
2815,-169.9375,-206.8125,78.375,-1.063965,0.5332031,-1.117188,0.1035156,-0.009277344,0.2514648
2819,-183.75,-190.625,57.75,-1.145508,0.4165039,-1.170898,0.1201172,-0.02685547,0.2460938
2823,-178.375,-184.5,49.125,-1.289063,0.3310547,-1.105469,0.1357422,-0.04443359,0.2416992
2827,-160.5625,-191.625,56.875,-1.463379,0.4052734,-1.028809,0.1474609,-0.05957031,0.2363281
2831,-145.75,-206.8125,72.8125,-1.509766,0.5292969,-0.9824219,0.1630859,-0.07421875,0.2270508
2835,-141.875,-211,75.625,-1.40918,0.6538086,-0.9633789,0.1782227,-0.09179688,0.2143555
2839,-145.75,-204.9375,74.375,-1.312012,0.7353516,-0.9594727,0.1904297,-0.1005859,0.2080078
2843,-153.5,-190.6875,70.25,-1.253906,0.7080078,-0.9399414,0.203125,-0.1196289,0.1899414
2847,-158.6875,-179.4375,69.5,-1.261719,0.6772461,-0.9287109,0.2163086,-0.1367188,0.175293
2851,-157.0625,-173.6875,65.8125,-1.265625,0.6303711,-0.9208984,0.2211914,-0.1455078,0.1616211
2855,-152.125,-170.75,54.75,-1.242188,0.5913086,-0.8979492,0.230957,-0.1630859,0.144043
2859,-144.3125,-165,44.0625,-1.168945,0.5410156,-0.894043,0.2368164,-0.1757813,0.1289063
2863,-132.0625,-160.25,39.6875,-1.172852,0.5175781,-0.84375,0.2426758,-0.1831055,0.1166992
2867,-120,-157.3125,37.75,-1.091309,0.4672852,-0.840332,0.25,-0.1943359,0.09619141
2871,-105.875,-150.875,40.75,-1.07959,0.4360352,-0.8364258,0.253418,-0.2016602,0.08105469
2875,-93,-144.25,43.5,-0.9555664,0.3896484,-0.8476563,0.2543945,-0.2094727,0.06884766
2880,-79.75,-127.9375,36,-0.8393555,0.3623047,-0.840332,0.2568359,-0.2158203,0.05273438
2884,-72.625,-108.25,27.9375,-0.7695313,0.3310547,-0.8017578,0.2592773,-0.2192383,0.0390625
2888,-69.5625,-87.875,20.5625,-0.6455078,0.2729492,-0.7670898,0.2583008,-0.2246094,0.02832031
2892,-66.375,-63.25,12.4375,-0.5913086,0.1953125,-0.7553711,0.2592773,-0.2294922,0.02001953
2896,-59.75,-40.625,3.5,-0.5141602,0.07861328,-0.7324219,0.2617188,-0.2304688,0.01171875
2900,-46,-17.0625,-2.5625,-0.4750977,-0.02978516,-0.7324219,0.2617188,-0.2319336,0.01074219
2904,-24,7.3125,-0.125,-0.4287109,-0.1269531,-0.7514648,0.2602539,-0.2319336,0.00390625
2908,-0.0625,32,4.0625,-0.4555664,-0.1347656,-0.7861328,0.2626953,-0.2304688,0.00390625
2912,21.375,53.4375,6.875,-0.5253906,-0.07617188,-0.8129883,0.2617188,-0.2319336,0.006347656
2916,38.5625,72.125,-0.5625,-0.5449219,-0.02197266,-0.8364258,0.2592773,-0.2304688,0.01464844
2920,50.3125,86.625,-17.0625,-0.6303711,0.06298828,-0.840332,0.2592773,-0.2294922,0.02294922
2924,62.625,101,-34.625,-0.6533203,0.04736328,-0.859375,0.2583008,-0.2255859,0.03076172
2928,78.5625,116.0625,-44.8125,-0.730957,0.09423828,-0.8979492,0.2583008,-0.2231445,0.04199219
2932,95.6875,130.375,-47.1875,-0.7773438,0.1367188,-0.9555664,0.2568359,-0.2143555,0.05517578
2936,117.25,149.5,-45.5,-0.8085938,0.1796875,-0.9863281,0.2543945,-0.2094727,0.06640625
2940,139.375,166.8125,-38.3125,-0.8896484,0.284668,-1.040039,0.2509766,-0.2006836,0.08691406
2944,164,188.4375,-27.9375,-0.9555664,0.3623047,-1.074707,0.2451172,-0.1894531,0.1083984
2948,181.9375,203.5,-21.25,-1.137695,0.5878906,-1.105469,0.2392578,-0.1806641,0.1206055
2952,180.875,203.25,-41.25,-1.351074,0.7817383,-1.086426,0.2285156,-0.1679688,0.1450195
2956,169.125,197.875,-70.1875,-1.381836,0.8129883,-1.090332,0.2202148,-0.1518555,0.1655273
2960,165.75,203.9375,-81.125,-1.312012,0.7314453,-1.043945,0.2128906,-0.1420898,0.1791992
2964,161.9375,212.9375,-68.3125,-1.253906,0.7158203,-1.178711,0.1987305,-0.1206055,0.1928711
2968,163.4375,232.9375,-55.4375,-1.087402,0.5605469,-1.305664,0.1831055,-0.1020508,0.2104492
2972,175.5625,252.75,-45.5,-1.25,0.5952148,-1.432617,0.1713867,-0.09326172,0.2211914
2976,182.125,248.3125,-45.5625,-1.521484,0.6186523,-1.420898,0.1499023,-0.07421875,0.2363281
2980,190.3125,236.75,-55.375,-1.672363,0.6811523,-1.320801,0.1308594,-0.05712891,0.2470703
2984,195.25,217.9375,-64.0625,-1.711426,0.7119141,-1.251953,0.1176758,-0.04052734,0.2485352
2988,196.875,205.9375,-61.5,-1.629883,0.7666016,-1.205566,0.09863281,-0.02050781,0.2539063
2992,182.9375,200.5625,-68.3125,-1.327637,0.6962891,-1.282715,0.08056641,-0.0004882813,0.2583008
2996,172.6875,207.5625,-72.4375,-1.20752,0.5097656,-1.44043,0.06787109,0.008789063,0.2553711
3000,178.5,214.6875,-75,-1.099121,0.3232422,-1.44043,0.04980469,0.02734375,0.2553711
3004,197.25,215.375,-53.0625,-1.211426,0.3388672,-1.351563,0.03173828,0.04394531,0.25
3009,221.25,200.5,-29.875,-1.195801,0.4477539,-1.125,0.02148438,0.05273438,0.2460938
3013,217,173.5625,-6.0625,-1.168945,0.7587891,-0.9672852,0.003417969,0.06982422,0.237793
3017,174.0625,162.6875,-28.375,-0.6342773,0.6655273,-1.032227,-0.005859375,0.08496094,0.230957
3021,120.4375,187,-77,-0.4052734,0.4907227,-1.078613,-0.01611328,0.08886719,0.2241211
3025,77.1875,207,-104.3125,-0.2773438,0.04003906,-1.163086,-0.03320313,0.09375,0.2202148
3029,91,227.5625,-98.125,-0.4443359,-0.1967773,-0.9287109,-0.04980469,0.09619141,0.2143555
3033,124.0625,209.4375,-30.0625,-0.6650391,-0.03759766,-0.6401367,-0.06298828,0.1000977,0.2104492
3037,138,181.5,19.3125,-0.6455078,0.3544922,-0.3051758,-0.07714844,0.1064453,0.2021484
3041,96.5625,153.625,22.0625,-0.5527344,0.7275391,-0.1323242,-0.08544922,0.1088867,0.1928711
3045,29.8125,134,-16.9375,-0.5141602,0.4594727,-0.04736328,-0.09130859,0.1152344,0.1928711
3049,-1.3125,90.375,-25.3125,-0.8164063,0.140625,0.04052734,-0.09960938,0.1137695,0.1889648
3053,22.25,45.25,-25.375,-0.4482422,-0.2353516,0.1098633,-0.1044922,0.1123047,0.1831055
3057,17.1875,10.1875,-17.875,-0.4482422,0.1796875,0.07128906,-0.1079102,0.1123047,0.1845703
3061,-0.6875,-14.5625,-10.125,-0.3666992,0.253418,0.125,-0.1079102,0.1113281,0.1845703
3065,-20.75,-46.375,-6.25,-0.2734375,0.2070313,-0.05517578,-0.1103516,0.1123047,0.1860352
3069,-33.8125,-57.375,-11.8125,0.01269531,0.01269531,-0.2592773,-0.1044922,0.1113281,0.1875
3073,-43.875,-49.75,-17.6875,0.09375,-0.08789063,-0.4052734,-0.1030273,0.1088867,0.1914063
3077,-42.875,-46.25,-9.5625,-0.02587891,-0.1074219,-0.3823242,-0.1010742,0.1049805,0.1943359
3081,-39.9375,-57.25,7.3125,-0.1186523,0.008789063,-0.3168945,-0.09716797,0.1025391,0.1943359
3085,-47.3125,-70.375,21.125,-0.2270508,0.237793,-0.2744141,-0.09472656,0.1025391,0.1982422
3089,-74.1875,-87.125,19.3125,-0.230957,0.3120117,-0.4052734,-0.08886719,0.09863281,0.199707
3093,-101.0625,-95.3125,10.3125,-0.3125,0.2729492,-0.4785156,-0.08300781,0.09765625,0.2021484
3097,-119.0625,-112.0625,2.0625,-0.3935547,0.121582,-0.6669922,-0.07714844,0.09228516,0.2104492
3101,-119.1875,-126.5,0.6875,-0.4633789,0.1098633,-0.6513672,-0.07128906,0.08740234,0.2143555
3105,-121.875,-147.0625,15.4375,-0.6303711,0.315918,-0.6591797,-0.06396484,0.08105469,0.21875
3109,-130.5625,-171.125,37.5,-0.796875,0.4946289,-0.6708984,-0.05322266,0.07373047,0.2270508
3113,-147.375,-196.3125,56.9375,-0.8896484,0.5488281,-0.8017578,-0.04003906,0.06738281,0.2363281
3117,-173.3125,-204.125,46.9375,-0.7192383,0.4516602,-1.117188,-0.03076172,0.06103516,0.2402344
3121,-196,-189.875,4.375,-0.7231445,0.4013672,-1.174805,-0.01416016,0.04736328,0.2485352
3125,-207.5,-197.625,-17.1875,-1.005859,0.4633789,-1.217285,0,0.03369141,0.2553711
3129,-198,-219.625,1.6875,-1.227051,0.5253906,-1.13623,0.01074219,0.02246094,0.2592773
3133,-190,-236.5,36.25,-1.157227,0.6884766,-1.178711,0.02978516,0.006347656,0.262207
3138,-199.9375,-221.0625,34.4375,-0.9477539,0.7739258,-1.221191,0.04736328,-0.01074219,0.2651367
3142,-226.875,-210.625,12.0625,-0.9091797,0.6459961,-1.578613,0.06152344,-0.02685547,0.2651367
3146,-216.8125,-205.4375,-3.125,-0.862793,0.1254883,-1.628906,0.07861328,-0.04833984,0.262207
3150,-169.3125,-205.4375,27.3125,-1.017578,0.1367188,-1.528809,0.09521484,-0.06689453,0.2583008
3154,-133.75,-209.5625,59.1875,-1.133789,0.4282227,-1.351563,0.1079102,-0.078125,0.2553711
3158,-126.625,-210.875,66.6875,-1.269531,0.8012695,-1.248047,0.125,-0.09179688,0.2460938
3162,-143.375,-210.6875,54.8125,-1.32373,0.9799805,-1.182617,0.1416016,-0.1083984,0.2348633
3166,-162.25,-204.5,39.0625,-1.265625,0.9414063,-1.19043,0.1523438,-0.1166992,0.2280273
3170,-170.1875,-189.5,29.875,-1.261719,0.809082,-1.166992,0.1689453,-0.1333008,0.2133789
3174,-162.75,-187.6875,39.75,-1.296875,0.6538086,-1.113281,0.1821289,-0.1479492,0.199707
3178,-145.5,-187.125,51.625,-1.253906,0.5761719,-1.05957,0.1914063,-0.1567383,0.1899414
3182,-132.125,-186.6875,59.4375,-1.23877,0.6108398,-1.001465,0.2021484,-0.1743164,0.1708984
3186,-125.25,-186,62.875,-1.215332,0.6303711,-0.9438477,0.2138672,-0.1870117,0.1508789
3190,-117.75,-176.25,58.1875,-1.083496,0.5644531,-0.9208984,0.2177734,-0.1967773,0.1411133
3194,-108.625,-161.3125,49.4375,-1.075684,0.6108398,-0.840332,0.2246094,-0.2055664,0.1220703
3198,-105.75,-150.9375,49.375,-1.009766,0.6030273,-0.8017578,0.2294922,-0.2192383,0.1044922
3202,-101.25,-136.5625,51.0625,-0.9326172,0.5410156,-0.7246094,0.2329102,-0.2231445,0.09326172
3206,-96.875,-125.6875,49.625,-0.9248047,0.4985352,-0.6821289,0.2353516,-0.2329102,0.08007813
3210,-90.6875,-116.125,41,-0.8046875,0.3427734,-0.7016602,0.237793,-0.2407227,0.06494141
3214,-78.5,-103.375,31.4375,-0.7036133,0.2573242,-0.7207031,0.237793,-0.2441406,0.05517578
3218,-66.75,-90.0625,23.3125,-0.6303711,0.2148438,-0.7631836,0.237793,-0.2504883,0.04199219
3222,-56.8125,-72.375,15.4375,-0.5253906,0.1640625,-0.809082,0.2392578,-0.2519531,0.03369141
3226,-42.9375,-53.75,7.1875,-0.4326172,0.04736328,-0.9018555,0.2412109,-0.2568359,0.02685547
3230,-20.125,-35.125,-1.0625,-0.3164063,-0.1152344,-1.070801,0.2392578,-0.2568359,0.02148438
3234,10.3125,-2.8125,-6.25,-0.1611328,-0.1733398,-1.182617,0.2392578,-0.2568359,0.01855469
3238,34.0625,37.25,-1,-0.1420898,-0.1113281,-1.259277,0.2412109,-0.2583008,0.02148438
3242,54.5,75.75,-0.0625,-0.2700195,-0.05664063,-1.263184,0.2402344,-0.2568359,0.02539063
3246,75.875,97.5625,-9.1875,-0.4248047,-0.006347656,-1.213379,0.2392578,-0.2529297,0.03613281
3250,100.125,112.5,-23.9375,-0.5410156,0.04736328,-1.186523,0.237793,-0.2495117,0.04589844
3254,123.375,123.8125,-34.875,-0.6416016,0.1293945,-1.20166,0.2353516,-0.2456055,0.06103516
3258,143.625,137.25,-45.125,-0.6845703,0.2070313,-1.270996,0.2329102,-0.2368164,0.07714844
3262,167.4375,159,-46,-0.7578125,0.3232422,-1.293945,0.230957,-0.2280273,0.09228516
3267,186.9375,181.625,-39.0625,-0.9326172,0.5332031,-1.259277,0.2270508,-0.2192383,0.1137695
3271,200,193.75,-34.875,-1.137695,0.7041016,-1.20166,0.21875,-0.203125,0.137207
3275,210,198.0625,-36.6875,-1.304199,0.824707,-1.182617,0.2119141,-0.1943359,0.1518555
3279,215.6875,201.625,-43.9375,-1.389648,0.9453125,-1.19043,0.2011719,-0.1757813,0.1723633
3283,213.375,203.3125,-58.5,-1.413086,1.01123,-1.19043,0.1879883,-0.1557617,0.1914063
3287,207.0625,209.6875,-61.625,-1.366211,0.9995117,-1.255371,0.1796875,-0.1420898,0.2036133
3291,209.9375,226.875,-53.75,-1.319824,0.9335938,-1.263184,0.1616211,-0.1206055,0.2211914
3295,211.8125,231.75,-38.9375,-1.45166,0.9956055,-1.274902,0.1450195,-0.09960938,0.2363281
3299,213.375,224.25,-28.5,-1.397461,0.8945313,-1.30957,0.1333008,-0.08837891,0.2431641
3303,210.875,215.75,-41.375,-1.219238,0.7001953,-1.420898,0.1142578,-0.06689453,0.2524414
3307,209.3125,219.375,-67.8125,-1.195801,0.7158203,-1.428711,0.09521484,-0.04443359,0.2583008
3311,194.5,223.5625,-81.875,-1.176758,0.7275391,-1.459473,0.08300781,-0.02832031,0.2607422
3315,199.75,232,-81.5,-1.234863,0.7080078,-1.278809,0.06298828,-0.008300781,0.2636719
3319,202.5625,218.4375,-48.0625,-1.327637,0.8632813,-1.128418,0.04248047,0.01123047,0.2607422
3323,194.4375,198.6875,-17.6875,-1.176758,0.840332,-1.047852,0.02832031,0.02246094,0.2592773
3327,182.5,191.5,-24.6875,-0.8935547,0.6342773,-1.013184,0.01416016,0.03857422,0.2524414
3331,161.4375,191.375,-39.3125,-0.8237305,0.6147461,-1.001465,-0.001953125,0.05126953,0.2460938
3335,137.5,189.4375,-46.625,-0.7543945,0.4516602,-0.9248047,-0.01269531,0.05859375,0.2431641
3339,129,184.625,-43.125,-0.7617188,0.2651367,-0.7978516,-0.02832031,0.06738281,0.2392578
3343,128.0625,165.5625,-40.625,-0.6650391,0.09423828,-0.8515625,-0.04150391,0.07763672,0.2294922
3347,133.25,153.0625,-42.4375,-0.5175781,0.004882813,-0.9399414,-0.04980469,0.07861328,0.2270508
3351,128.75,151.5,-50.5625,-0.28125,-0.1616211,-1.151855,-0.06298828,0.08740234,0.21875
3355,135.6875,170.6875,-76.1875,-0.04101563,-0.3637695,-1.224609,-0.07568359,0.09375,0.2104492
3359,144.375,208.0625,-80.625,-0.002441406,-0.1655273,-1.090332,-0.08544922,0.09863281,0.206543
3363,136.75,235.5625,-55.0625,-0.1884766,0.1875,-0.8515625,-0.1020508,0.1035156,0.1943359
3367,98.25,216.4375,-7.875,-0.6923828,0.5991211,-0.4746094,-0.1176758,0.1074219,0.1831055
3371,53.75,148.625,17.375,-0.7773438,0.3544922,-0.1669922,-0.128418,0.1098633,0.1738281
3375,43.375,93.375,1.6875,-0.765625,-0.02978516,-0.0859375,-0.1342773,0.1137695,0.1699219
3379,39.75,31.125,-28.1875,-0.730957,-0.09570313,-0.08203125,-0.1391602,0.1152344,0.1640625
3383,29.875,-29.875,-39.8125,-0.5371094,0.04003906,-0.1552734,-0.1401367,0.1123047,0.1640625
3387,20.1875,-61.8125,-49.125,-0.1303711,0.008789063,-0.2514648,-0.1401367,0.1123047,0.1640625
3391,10.75,-71.625,-40.6875,0.04345703,0.08251953,-0.3666992,-0.1352539,0.1098633,0.168457
3396,2.75,-65.625,-21.1875,0.2490234,0.07861328,-0.4013672,-0.1352539,0.1123047,0.1699219
3400,-10.6875,-50.625,0.875,0.3227539,0.08251953,-0.4477539,-0.1303711,0.1098633,0.1708984
3404,-22.125,-38.4375,21.5,0.1948242,0.08251953,-0.4282227,-0.1293945,0.1113281,0.1723633
3408,-35.5,-40.8125,29.125,0.05908203,0.07861328,-0.4248047,-0.1269531,0.1113281,0.1738281
3412,-49.625,-51.125,23.375,-0.05273438,0.09814453,-0.4248047,-0.1220703,0.1088867,0.175293
3416,-68,-70.5,17.4375,-0.1611328,0.1367188,-0.4863281,-0.1186523,0.1074219,0.1791992
3420,-82.375,-87.8125,5.9375,-0.08007813,0.0009765625,-0.6132813,-0.1152344,0.1074219,0.1845703
3424,-88.9375,-91.8125,-0.625,-0.08398438,-0.02978516,-0.6860352,-0.1103516,0.1025391,0.1889648
3428,-92.5625,-102.625,1.75,-0.09130859,-0.09179688,-0.8208008,-0.1069336,0.09863281,0.1967773
3432,-88.25,-106.6875,12.5625,-0.1728516,-0.02197266,-0.7978516,-0.09863281,0.09521484,0.199707
3436,-93.6875,-117,27.5,-0.2387695,0.07470703,-0.8671875,-0.09472656,0.09130859,0.206543
3440,-101.1875,-124.0625,36.5,-0.3203125,0.06298828,-0.8901367,-0.08642578,0.08642578,0.2119141
3444,-111.8125,-133.1875,34.875,-0.3393555,-0.02978516,-1.047852,-0.07958984,0.08496094,0.2172852
3448,-112.5,-137.6875,28.375,-0.4130859,-0.1347656,-1.132324,-0.06884766,0.08007813,0.2226563
3452,-106.875,-147.1875,22.625,-0.4594727,-0.1347656,-1.186523,-0.05908203,0.07373047,0.2294922
3456,-99.0625,-152.9375,28.25,-0.5253906,0.004882813,-1.132324,-0.05224609,0.06884766,0.2333984
3460,-100.6875,-163.125,45.875,-0.7036133,0.2612305,-1.070801,-0.0390625,0.0625,0.2416992
3464,-112.5625,-176.25,56.9375,-0.8125,0.3427734,-1.094238,-0.0234375,0.05761719,0.2460938
3468,-128.3125,-192.625,57.1875,-0.8354492,0.1875,-1.274902,-0.01416016,0.04882813,0.25
3472,-131.4375,-201.1875,19,-0.6186523,-0.09960938,-1.38623,0.003417969,0.04003906,0.2568359
3476,-128.375,-196.75,-5.0625,-0.7578125,0.121582,-1.344238,0.02001953,0.02880859,0.2592773
3480,-129.9375,-199.8125,-10.125,-0.8818359,0.2807617,-1.251953,0.03076172,0.02246094,0.2607422
3484,-120.4375,-198.4375,7.1875,-0.9477539,0.3466797,-1.147949,0.04736328,0.008789063,0.262207
3488,-120.875,-196.3125,31.375,-0.8432617,0.3935547,-1.20166,0.06298828,-0.001953125,0.262207
3492,-122.75,-181.8125,39.1875,-0.7734375,0.315918,-1.224609,0.07470703,-0.009277344,0.262207
3496,-124.75,-166.8125,34.6875,-0.8276367,0.3081055,-1.259277,0.09033203,-0.0234375,0.2583008
3500,-125.875,-158.75,29.25,-0.9013672,0.3505859,-1.209473,0.105957,-0.03710938,0.2553711
3504,-121.9375,-156.375,33.4375,-0.9594727,0.3896484,-1.163086,0.1142578,-0.04589844,0.2539063
3508,-115.5,-156.5,42.9375,-1.021484,0.4399414,-1.105469,0.1269531,-0.05810547,0.2470703
3512,-108.125,-158.125,56,-1.013672,0.4399414,-1.086426,0.1401367,-0.06933594,0.2460938
3516,-104.125,-157.5625,57.9375,-0.9365234,0.4555664,-1.105469,0.1499023,-0.07958984,0.2363281
3520,-107.125,-145.6875,50.3125,-0.9208984,0.5683594,-1.066895,0.1606445,-0.09082031,0.2270508
3525,-122.1875,-138.5,40.6875,-0.9248047,0.6303711,-1.051758,0.1738281,-0.1030273,0.2202148
3529,-133.75,-131.3125,30.75,-0.9169922,0.5839844,-1.001465,0.1806641,-0.1108398,0.2133789
3533,-139.5625,-131.8125,32.4375,-0.9672852,0.5371094,-0.9863281,0.1914063,-0.1245117,0.199707
3537,-131.875,-127.8125,34.125,-0.847168,0.3896484,-0.9746094,0.199707,-0.1396484,0.1928711
3541,-120.5,-120.9375,38.25,-0.8510742,0.3623047,-0.9555664,0.2045898,-0.1469727,0.1806641
3545,-109.9375,-113.625,42.125,-0.7773438,0.3349609,-0.9326172,0.2138672,-0.1582031,0.1708984
3549,-103.625,-105.75,41.125,-0.7734375,0.3466797,-0.9130859,0.21875,-0.1694336,0.1586914
3553,-98.875,-97.125,38.0625,-0.715332,0.2768555,-0.9018555,0.222168,-0.1757813,0.1508789
3557,-88,-85.5625,31.3125,-0.6806641,0.171875,-0.9130859,0.2270508,-0.1845703,0.1411133
3561,-73.625,-73.875,26.9375,-0.6455078,0.1523438,-0.8745117,0.2285156,-0.1918945,0.1313477
3565,-61.375,-59.25,23.4375,-0.5952148,0.121582,-0.8671875,0.230957,-0.1958008,0.1274414
3569,-50.125,-45.9375,17.5625,-0.6069336,0.1293945,-0.840332,0.234375,-0.203125,0.1206055
3573,-38.375,-34.3125,11.375,-0.5874023,0.09814453,-0.7861328,0.2353516,-0.2055664,0.1152344
3577,-24.375,-22.75,6.5,-0.6225586,0.1293945,-0.7055664,0.234375,-0.2080078,0.1113281
3581,-10.375,-13.4375,3.5625,-0.6728516,0.171875,-0.6015625,0.2368164,-0.2094727,0.1098633
3585,0.0625,-6.8125,1.3125,-0.6923828,0.253418,-0.5439453,0.2368164,-0.2080078,0.1083984
3589,6.625,3.9375,1.5,-0.6689453,0.3081055,-0.4477539,0.2368164,-0.2080078,0.1083984
3593,11.8125,16,4.25,-0.715332,0.3935547,-0.3398438,0.237793,-0.2104492,0.1098633
3597,14.1875,24.75,6.4375,-0.7851563,0.4907227,-0.2514648,0.2353516,-0.2080078,0.1113281
3601,11.625,23.6875,3.6875,-0.9052734,0.5605469,-0.2016602,0.234375,-0.2080078,0.1137695
3605,10.5,14.125,-6.6875,-0.9365234,0.5253906,-0.1630859,0.234375,-0.2080078,0.1123047
3609,13.125,5.5625,-12.25,-0.8818359,0.5253906,-0.1552734,0.2329102,-0.2070313,0.1181641
3613,14.0625,3.125,-10.9375,-0.8237305,0.5566406,-0.1435547,0.2329102,-0.2055664,0.1181641
3617,12.1875,3.5,-8.4375,-0.7890625,0.5605469,-0.1513672,0.2353516,-0.2045898,0.1191406
3621,11.25,4.25,-9.1875,-0.8164063,0.5449219,-0.1552734,0.234375,-0.2045898,0.1181641
3625,10.8125,1,-9.9375,-0.8354492,0.5488281,-0.1708984,0.234375,-0.2016602,0.1206055
3629,10.8125,-0.875,-11.375,-0.8007813,0.5566406,-0.1669922,0.234375,-0.2006836,0.1220703
3633,10.125,-2.0625,-9.3125,-0.8432617,0.5913086,-0.1435547,0.234375,-0.2006836,0.1191406
3637,7.8125,-5.125,-6.375,-0.8276367,0.6030273,-0.1435547,0.234375,-0.1992188,0.1206055
3641,6.9375,-2.875,-4.875,-0.78125,0.5913086,-0.1591797,0.2368164,-0.1992188,0.1206055
3645,2.75,-0.3125,-4.4375,-0.796875,0.6069336,-0.1669922,0.2353516,-0.1958008,0.1220703
3649,-1.875,0.4375,-5.375,-0.8125,0.5878906,-0.1669922,0.2353516,-0.1982422,0.1191406
