Packet number,Gyroscope X (deg/s),Gyroscope Y (deg/s),Gyroscope Z (deg/s),Accelerometer X (g),Accelerometer Y (g),Accelerometer Z (g),Magnetometer X (G),Magnetometer Y (G),Magnetometer Z (G)
0,-3.625,-4.3125,-3,0.3378906,0.9492188,0.125,-0.1069336,-0.3481445,0.02294922
4,-7.1875,-6.875,-0.5,0.3457031,0.9101563,0.1210938,-0.1054688,-0.3491211,0.02392578
8,-4.4375,-6.8125,-1.75,0.3613281,0.8945313,0.1098633,-0.1054688,-0.3505859,0.02392578
12,-2.1875,-3.6875,-8.5,0.3535156,0.9179688,0.1098633,-0.1054688,-0.3481445,0.02148438
16,0.1875,-2,-17.625,0.3266602,0.9257813,0.09814453,-0.1044922,-0.3491211,0.02294922
20,0.125,-3.875,-22.1875,0.3071289,0.9414063,0.05566406,-0.1020508,-0.3520508,0.02294922
24,-1.25,-6.125,-20.9375,0.3149414,0.953125,0.02099609,-0.1020508,-0.3520508,0.02294922
28,-0.25,-10.0625,-16.4375,0.2993164,0.9023438,-0.06689453,-0.1010742,-0.3530273,0.02148438
32,7.3125,-12.0625,-13.3125,0.2954102,0.8828125,-0.2016602,-0.09863281,-0.3505859,0.02148438
36,15.875,-11.25,-15.75,0.2724609,0.9375,-0.3398438,-0.09863281,-0.3530273,0.02392578
40,28.1875,-12.875,-20.5,0.2138672,0.9023438,-0.5053711,-0.09472656,-0.3530273,0.02685547
44,44.375,-15.875,-26.6875,0.1948242,0.9956055,-0.6171875,-0.09130859,-0.3520508,0.03076172
48,57.875,-15.375,-35.75,0.1674805,1.04248,-0.7749023,-0.09033203,-0.3505859,0.03222656
52,78.3125,-18.6875,-47.5,0.07861328,0.987793,-0.9052734,-0.08642578,-0.3505859,0.0390625
56,103.3125,-29.5625,-58.6875,0.05126953,0.9838867,-1.009277,-0.07958984,-0.3520508,0.04736328
60,130.125,-43.3125,-63.3125,0.1015625,1.003418,-1.066895,-0.07568359,-0.3491211,0.05664063
64,162.125,-53.3125,-61.875,0.175293,1.019043,-1.101563,-0.06884766,-0.3457031,0.0703125
68,194.625,-60.5,-60.6875,0.2104492,1.088867,-1.121094,-0.06152344,-0.3417969,0.08544922
72,222,-70.625,-63.375,0.2255859,1.283203,-1.078613,-0.05419922,-0.3369141,0.1000977
76,233.25,-83.375,-55,0.2294922,1.458008,-1.066895,-0.04736328,-0.3256836,0.1220703
81,246.25,-98.25,-53.25,0.2607422,1.493164,-1.047852,-0.03515625,-0.3154297,0.1411133
85,255.5,-109.625,-48.125,0.3305664,1.597656,-1.009277,-0.03173828,-0.3056641,0.1572266
89,266.4375,-114.5,-43.3125,0.3535156,1.578613,-1.013184,-0.02099609,-0.2880859,0.1762695
93,280.75,-114.625,-46.5625,0.3149414,1.574707,-1.097656,-0.01171875,-0.2705078,0.1943359
97,290,-121.75,-45.6875,0.3032227,1.702637,-1.117188,-0.004394531,-0.2558594,0.2050781
101,289.0625,-129.375,-42.0625,0.2724609,1.694824,-1.166992,0.008300781,-0.2368164,0.2202148
105,279.75,-130.4375,-47.375,0.2373047,1.644531,-1.394043,0.02001953,-0.2128906,0.230957
109,302.1875,-133,-61.3125,0.1518555,1.485352,-1.459473,0.02832031,-0.1958008,0.237793
113,308.625,-142.6875,-58.3125,0.1987305,1.683105,-1.563477,0.04248047,-0.1704102,0.2446289
117,326.5,-162.5625,-56.3125,0.2529297,1.59375,-1.505859,0.05566406,-0.1455078,0.25
121,343.5625,-165,-58.3125,0.4580078,1.722168,-1.244141,0.06396484,-0.1230469,0.2485352
125,346.75,-151.1875,-40.5625,0.6831055,2.013672,-0.7402344,0.07617188,-0.09570313,0.2485352
129,310.4375,-101.0625,-21.4375,0.9541016,2.172852,-0.1323242,0.08447266,-0.06933594,0.2485352
133,250.625,-32.1875,-19.125,0.8574219,2.099121,0.3056641,0.08544922,-0.0546875,0.2446289
137,189.125,23.375,-37.9375,0.3999023,1.613281,0.3637695,0.08447266,-0.03564453,0.2431641
141,138.5625,24.3125,-40.625,-0.02197266,1.073242,0.3212891,0.07958984,-0.02197266,0.2431641
145,93.6875,-8.75,-16.375,-0.1572266,0.7895508,0.2983398,0.07714844,-0.015625,0.2446289
149,48.6875,-40,8,-0.05664063,0.6616211,0.4326172,0.07714844,-0.01074219,0.2446289
153,0.375,-48.4375,21.5625,0.1557617,0.6577148,0.375,0.08203125,-0.008300781,0.2431641
157,-25.875,-26.375,8.75,0.2255859,0.2807617,0.2172852,0.08300781,-0.009277344,0.2416992
161,-29.875,-1.0625,0,0.2685547,0.1640625,0.08251953,0.08300781,-0.01318359,0.2416992
165,-42,15.1875,11.9375,0.2026367,0.2148438,0.02099609,0.08447266,-0.01708984,0.2416992
169,-55,18.9375,25.625,0.125,0.15625,-0.03222656,0.08056641,-0.01953125,0.2431641
173,-63.0625,18.75,32.3125,0.08251953,0.1523438,-0.05126953,0.08203125,-0.02587891,0.2446289
177,-81.4375,22.0625,32.75,0.1445313,0.3857422,-0.05517578,0.08056641,-0.02929688,0.2460938
181,-101.1875,29.0625,36.25,0.1791992,0.3466797,-0.05517578,0.08056641,-0.03710938,0.2485352
185,-114.3125,43,36.625,0.2333984,0.4594727,0.009765625,0.07958984,-0.04199219,0.2470703
189,-142.5625,49,45.25,0.2026367,0.7197266,-0.02832031,0.07714844,-0.05566406,0.2470703
193,-171.25,49.25,48.3125,0.1054688,0.7001953,-0.2553711,0.07617188,-0.06591797,0.2514648
197,-183.3125,41.0625,49.4375,0.08642578,0.8012695,-0.3325195,0.07226563,-0.078125,0.2460938
201,-201.25,34,53.4375,0.125,0.9140625,-0.3745117,0.07373047,-0.09423828,0.2485352
205,-222.9375,31.1875,60.125,0.2607422,1.17041,-0.3398438,0.07128906,-0.1069336,0.2485352
210,-247.5625,31.4375,74.75,0.3227539,1.217285,-0.3745117,0.06982422,-0.1254883,0.2460938
214,-255,39.8125,91.1875,0.5356445,1.349121,-0.3632813,0.06640625,-0.1469727,0.2392578
218,-255.5625,78.0625,90.75,0.7255859,1.586426,-0.3515625,0.06542969,-0.1606445,0.237793
222,-263.5,114.5625,89.25,0.7255859,1.660156,-0.5053711,0.05566406,-0.1845703,0.2324219
226,-255.8125,139.25,84.5,0.675293,1.757324,-0.4936523,0.04394531,-0.2045898,0.2255859
230,-260.9375,149.5,82.0625,0.659668,2.083496,-0.4477539,0.03564453,-0.2182617,0.2211914
234,-273.125,150,88.875,0.6557617,2.208008,-0.4169922,0.01904297,-0.2407227,0.2119141
238,-282.1875,149.125,86.5625,0.659668,2.211914,-0.4321289,0.002441406,-0.2607422,0.199707
242,-291.5,143.1875,89.1875,0.6171875,2.266113,-0.4902344,-0.006835938,-0.2744141,0.1889648
246,-294.9375,126.25,102.6875,0.5629883,2.208008,-0.5131836,-0.02099609,-0.2919922,0.1699219
250,-293.375,111.875,111.75,0.59375,2.219727,-0.5478516,-0.03515625,-0.3105469,0.1479492
254,-285.5,100.25,114.0625,0.59375,2.075684,-0.6323242,-0.04394531,-0.3193359,0.1289063
258,-273.75,93.3125,110.0625,0.6289063,1.978516,-0.6938477,-0.06054688,-0.3330078,0.1044922
262,-266.6875,93.375,119.0625,0.7333984,1.966797,-0.7592773,-0.07324219,-0.3408203,0.07714844
266,-257.125,105.6875,128.8125,0.7060547,1.842773,-0.8745117,-0.08398438,-0.3457031,0.05957031
270,-234.5625,116.0625,120.1875,0.59375,1.617188,-0.9594727,-0.1010742,-0.3481445,0.03369141
274,-205.625,123.5625,107.4375,0.5239258,1.512207,-1.063477,-0.1137695,-0.3466797,0.01074219
278,-177.25,127.4375,95.0625,0.3925781,1.364746,-1.155762,-0.1210938,-0.3466797,-0.005371094
282,-150.4375,121.5,74.0625,0.1791992,1.251953,-1.19043,-0.1318359,-0.3457031,-0.02441406
286,-133.5625,101.75,63.875,0.05126953,1.135742,-1.15918,-0.1391602,-0.3417969,-0.04199219
290,-112.875,80,53.6875,-0.04492188,0.8828125,-1.086426,-0.1425781,-0.3393555,-0.05273438
294,-85,61.1875,44.9375,-0.04101563,0.7314453,-0.9746094,-0.1435547,-0.3354492,-0.06640625
298,-54.375,49.375,36.1875,-0.04882813,0.6420898,-0.824707,-0.1484375,-0.3305664,-0.07470703
302,-24.75,39.8125,23.8125,-0.07617188,0.6069336,-0.6938477,-0.1484375,-0.3320313,-0.07861328
306,-0.875,32.625,9,-0.01806641,0.6577148,-0.5283203,-0.1484375,-0.328125,-0.08447266
310,15.375,31.375,-6.6875,0.03564453,0.6381836,-0.3823242,-0.1494141,-0.3305664,-0.08300781
314,32.875,28,-22.25,0.05126953,0.6342773,-0.324707,-0.1474609,-0.3305664,-0.08544922
318,46,17.8125,-31.1875,0.03173828,0.6694336,-0.2939453,-0.1435547,-0.3320313,-0.07861328
322,53.875,-1.125,-33.375,0.04736328,0.7275391,-0.2631836,-0.1425781,-0.3344727,-0.07763672
326,59.375,-17,-39.4375,0.08251953,0.7431641,-0.309082,-0.1411133,-0.3344727,-0.07470703
330,67.4375,-29.75,-49.5,0.1015625,0.7314453,-0.3901367,-0.1367188,-0.3378906,-0.06640625
334,83,-42.75,-57.25,0.1484375,0.7080078,-0.4707031,-0.1328125,-0.3417969,-0.06103516
339,103.75,-55.625,-59.75,0.2177734,0.7353516,-0.5014648,-0.128418,-0.3442383,-0.05273438
343,123.25,-63.625,-57,0.3188477,0.8364258,-0.5053711,-0.1259766,-0.3481445,-0.04052734
347,140.8125,-65.625,-57.25,0.3886719,0.9179688,-0.5014648,-0.1186523,-0.3505859,-0.02441406
351,158.75,-66.4375,-61.3125,0.3847656,0.9916992,-0.5244141,-0.1162109,-0.3505859,-0.01367188
355,175.125,-68.5,-62.1875,0.3959961,1.088867,-0.5478516,-0.109375,-0.3505859,0.002441406
359,194.6875,-69.6875,-63.1875,0.4194336,1.124023,-0.5551758,-0.1020508,-0.3520508,0.02148438
363,211.125,-75.375,-55.75,0.4541016,1.267578,-0.5629883,-0.09619141,-0.3491211,0.03759766
367,219.4375,-83.25,-43.5625,0.4697266,1.458008,-0.5551758,-0.08886719,-0.3457031,0.05957031
371,220.1875,-88.125,-49.75,0.4814453,1.644531,-0.5478516,-0.08203125,-0.3408203,0.08105469
375,218.375,-90.5,-65.0625,0.4853516,1.628906,-0.59375,-0.07226563,-0.3330078,0.09472656
379,222.75,-91.625,-70.375,0.4892578,1.609375,-0.6860352,-0.06494141,-0.3256836,0.1137695
383,238.25,-91.125,-69.375,0.5239258,1.500488,-0.7592773,-0.05419922,-0.3144531,0.137207
387,254.6875,-92,-62.375,0.5708008,1.632813,-0.824707,-0.04833984,-0.3056641,0.1494141
391,253.9375,-99.1875,-54.4375,0.5317383,1.807617,-0.8979492,-0.03759766,-0.2919922,0.1723633
395,253.0625,-114.3125,-54.375,0.4428711,1.76123,-0.9360352,-0.02832031,-0.2729492,0.1875
399,256.125,-135.875,-57.5625,0.5629883,1.862305,-0.878418,-0.02001953,-0.2617188,0.1967773
403,249.0625,-146.5625,-52.0625,0.7099609,1.928223,-0.7978516,-0.005859375,-0.2441406,0.2133789
407,239.9375,-150,-45.1875,0.6635742,1.733887,-0.8901367,0.008300781,-0.2270508,0.2241211
411,249.6875,-153.5625,-35.6875,0.6479492,1.644531,-0.878418,0.01757813,-0.2128906,0.230957
415,249.3125,-145.875,-27.875,0.6791992,1.562988,-0.8554688,0.03076172,-0.1918945,0.2392578
419,250.0625,-117.5625,-22.9375,0.6132813,1.411133,-1.020996,0.04248047,-0.171875,0.2431641
423,258.5,-82.25,-44.875,0.3496094,1.205566,-1.121094,0.04882813,-0.1582031,0.2460938
427,272.375,-68.5625,-58.1875,0.08251953,1.108398,-1.344238,0.05566406,-0.1342773,0.25
431,292.0625,-80.3125,-66.1875,-0.1069336,1.038574,-1.524902,0.05957031,-0.1108398,0.2539063
435,317.0625,-102.5,-57.3125,-0.1030273,1.073242,-1.498047,0.06298828,-0.09570313,0.2539063
439,338.375,-122.6875,-41.0625,0.1015625,1.294922,-1.132324,0.07128906,-0.06689453,0.2514648
443,329.625,-118.8125,-31.6875,0.3188477,1.372559,-0.6899414,0.07714844,-0.04052734,0.2460938
447,301.75,-83.9375,-29.5,0.5009766,1.574707,-0.109375,0.07958984,-0.02197266,0.2431641
451,226,-40.0625,-30.25,0.2993164,1.613281,0.2329102,0.08203125,0,0.2392578
455,152.25,-24.75,-39.0625,-0.01806641,1.217285,0.2749023,0.08056641,0.01611328,0.2348633
459,98.9375,-34,-43.25,-0.1845703,0.7895508,0.1518555,0.07958984,0.02392578,0.2333984
463,63.8125,-49.0625,-36,-0.1459961,0.5800781,0.1328125,0.08056641,0.02880859,0.2348633
468,22.75,-64.75,-19.125,-0.09521484,0.5097656,0.009765625,0.08300781,0.03369141,0.2294922
472,-2.6875,-79.1875,-8.25,-0.01416016,0.2612305,0.09033203,0.08544922,0.03369141,0.230957
476,-20,-72.375,-1.4375,0.2758789,0.300293,0.1635742,0.09033203,0.03369141,0.2280273
480,-38.5625,-35.8125,-6.4375,0.4541016,0.2924805,0.1479492,0.09765625,0.03027344,0.2280273
484,-50.4375,13.5625,-14.75,0.4428711,0.1835938,-0.01318359,0.09619141,0.02636719,0.2270508
488,-52.5625,44.5,-16.5625,0.175293,0.02050781,-0.2089844,0.09521484,0.02490234,0.2294922
492,-53,44.8125,-6.25,-0.01025391,0.05908203,-0.2939453,0.09277344,0.02148438,0.230957
496,-60.5,31.25,10.8125,-0.01025391,0.1098633,-0.2397461,0.09130859,0.02001953,0.2294922
500,-72.8125,28.9375,21.625,0.1518555,0.2651367,-0.1015625,0.09033203,0.01269531,0.2324219
504,-98.625,40.5625,26.5,0.2836914,0.5991211,-0.08203125,0.08886719,0.007324219,0.2333984
508,-136.8125,60.875,19.25,0.2685547,0.6772461,-0.3398438,0.08886719,0.002441406,0.2333984
512,-155.875,71.375,11.125,0.140625,0.5332031,-0.5786133,0.08544922,-0.008300781,0.2392578
516,-162.5625,67.3125,13.6875,0.03564453,0.4633789,-0.7094727,0.08203125,-0.02050781,0.2416992
520,-165.0625,48.3125,32.3125,0.04345703,0.5878906,-0.6132813,0.08056641,-0.02929688,0.2416992
524,-178.9375,28.875,60.5,0.2216797,0.840332,-0.4477539,0.07958984,-0.04199219,0.2470703
528,-210.0625,43.9375,82.9375,0.3496094,1.131836,-0.7900391,0.07861328,-0.05712891,0.2470703
532,-214.1875,72.75,55.0625,0.1948242,0.8945313,-0.9863281,0.07714844,-0.07080078,0.25
536,-204.8125,91,34,0.175293,1.034668,-1.009277,0.07470703,-0.08691406,0.25
540,-202.625,81.125,41.9375,0.1870117,1.150879,-0.84375,0.06640625,-0.1054688,0.2514648
544,-207.1875,75,69.0625,0.4038086,1.388184,-0.824707,0.06542969,-0.1142578,0.2524414
548,-220.5,102,76.1875,0.4116211,1.430664,-1.036133,0.05712891,-0.1357422,0.2514648
552,-207.375,133.125,51.0625,0.3071289,1.310547,-1.213379,0.04638672,-0.1542969,0.25
556,-196.25,148.5,29.5625,0.1987305,1.353027,-1.290039,0.03662109,-0.1645508,0.2470703
560,-188.9375,139.5,20.375,0.06298828,1.275391,-1.251953,0.02490234,-0.1806641,0.2446289
564,-190.6875,104.1875,27.3125,0.04736328,1.368652,-1.121094,0.01513672,-0.1967773,0.2392578
568,-199.8125,65.5625,48.1875,0.1987305,1.527832,-0.9438477,0.008300781,-0.2055664,0.2348633
572,-209.75,50.625,63.125,0.4194336,1.601563,-0.8129883,0,-0.2255859,0.2280273
576,-217.4375,67.75,58,0.574707,1.574707,-0.7553711,-0.006835938,-0.2392578,0.2172852
580,-216.0625,98.0625,44.5625,0.5708008,1.368652,-0.8476563,-0.01513672,-0.2519531,0.2089844
584,-196.9375,120.25,27,0.4541016,1.205566,-0.9594727,-0.0234375,-0.2670898,0.1953125
588,-180.125,117.8125,27.0625,0.3071289,1.251953,-0.9941406,-0.03320313,-0.2807617,0.1831055
592,-170,94.5,39.1875,0.2607422,1.248047,-0.8979492,-0.03759766,-0.2905273,0.175293
597,-171.8125,72.8125,55.75,0.3305664,1.279297,-0.8325195,-0.04736328,-0.3007813,0.1601563
601,-168.6875,66.9375,64.25,0.4389648,1.244141,-0.7978516,-0.05566406,-0.3105469,0.1450195
605,-160.9375,79,62.25,0.4389648,1.213379,-0.8208008,-0.06298828,-0.3154297,0.1357422
609,-147.9375,89.625,46.4375,0.3227539,1.112305,-0.859375,-0.07226563,-0.3232422,0.1206055
613,-137.0625,90.625,30.875,0.2255859,1.030762,-0.8823242,-0.08056641,-0.328125,0.105957
617,-127.125,81.5,28.4375,0.1948242,0.9838867,-0.8823242,-0.08544922,-0.3320313,0.09765625
621,-112.5,69.3125,30.4375,0.1445313,0.855957,-0.878418,-0.09033203,-0.3378906,0.08544922
625,-92.8125,57.625,33.125,0.1015625,0.7856445,-0.8745117,-0.09619141,-0.3408203,0.07324219
629,-77.375,46.4375,35.5,0.05517578,0.7587891,-0.878418,-0.09863281,-0.3417969,0.06787109
633,-57.3125,36.5,29,0.02441406,0.6884766,-0.8286133,-0.1030273,-0.3417969,0.05664063
637,-39,28,21.4375,0.03955078,0.7548828,-0.7822266,-0.1069336,-0.3432617,0.05419922
641,-26.3125,19.625,13.625,0.04345703,0.7739258,-0.7133789,-0.1079102,-0.3408203,0.05126953
645,-14.1875,9.5,8.75,0.04345703,0.7353516,-0.6591797,-0.1103516,-0.3432617,0.04736328
649,2.0625,-0.3125,3.6875,0.06298828,0.7197266,-0.6206055,-0.109375,-0.3432617,0.04589844
653,19.4375,-7.9375,-1.4375,0.08642578,0.7314453,-0.59375,-0.112793,-0.3442383,0.04736328
657,33.625,-14,-5.5625,0.09765625,0.7973633,-0.574707,-0.1103516,-0.3417969,0.04980469
661,41.8125,-23.125,-11.625,0.09375,0.824707,-0.59375,-0.1103516,-0.3408203,0.05419922
665,48.4375,-33.3125,-21.625,0.09765625,0.840332,-0.7094727,-0.1069336,-0.3393555,0.05810547
669,61.1875,-43.125,-27.8125,0.09375,0.7705078,-0.8168945,-0.1044922,-0.3393555,0.06347656
673,79.25,-50.3125,-32.875,0.1015625,0.7973633,-0.9208984,-0.1010742,-0.3408203,0.0703125
677,97.375,-59.875,-38.5,0.08642578,0.7856445,-0.9980469,-0.09716797,-0.3378906,0.07714844
681,125.1875,-71.125,-42.9375,0.1484375,0.8442383,-1.063477,-0.09130859,-0.3330078,0.08935547
685,152.8125,-80.0625,-44.5,0.2294922,1.003418,-1.047852,-0.08398438,-0.3291016,0.1044922
689,167.1875,-85.125,-46.3125,0.2797852,1.213379,-1.024902,-0.078125,-0.3256836,0.1137695
693,177.625,-91.6875,-51.4375,0.2758789,1.275391,-1.020996,-0.06884766,-0.3168945,0.1289063
697,190.0625,-99.3125,-56.8125,0.2797852,1.333496,-1.078613,-0.05908203,-0.3095703,0.1464844
701,206.375,-100.0625,-65.5625,0.3847656,1.407715,-1.086426,-0.05224609,-0.3007813,0.1572266
705,220.625,-95.25,-66.6875,0.4506836,1.512207,-1.074707,-0.04150391,-0.2866211,0.1762695
709,231,-90.875,-65.9375,0.4428711,1.578613,-1.051758,-0.03076172,-0.2744141,0.1914063
713,237.875,-91.5,-66.9375,0.3652344,1.625,-1.074707,-0.0234375,-0.2631836,0.2021484
717,236.1875,-104,-62.8125,0.3266602,1.749512,-1.043945,-0.01416016,-0.2441406,0.2143555
721,230.3125,-109.3125,-66.6875,0.3769531,1.694824,-1.040039,-0.0009765625,-0.2270508,0.2270508
726,225.375,-102.4375,-75.875,0.3417969,1.477539,-1.186523,0.006835938,-0.2158203,0.2324219
730,248.625,-101.75,-73.5625,0.2993164,1.380371,-1.290039,0.01757813,-0.1943359,0.2416992
734,271.4375,-111,-61.4375,0.3227539,1.477539,-1.144043,0.02978516,-0.171875,0.2470703
738,271.8125,-119.0625,-44.3125,0.3925781,1.644531,-1.086426,0.03808594,-0.1567383,0.2524414
742,268.625,-118,-50.5625,0.3457031,1.566895,-1.020996,0.04882813,-0.1342773,0.2553711
746,258.5625,-114.25,-56.9375,0.3613281,1.636719,-1.028809,0.05957031,-0.1083984,0.2539063
750,240.5,-100.8125,-73.375,0.2373047,1.298828,-1.15918,0.06396484,-0.09716797,0.2524414
754,252.4375,-95.75,-79.875,0.1948242,1.06543,-1.15918,0.06982422,-0.07421875,0.2514648
758,258.8125,-90.875,-75.8125,0.1445313,0.9799805,-1.163086,0.07714844,-0.0546875,0.25
762,260.8125,-102.125,-62.6875,0.1054688,0.9414063,-0.9052734,0.07958984,-0.04052734,0.2460938
766,243,-118,-23.9375,0.2607422,0.9956055,-0.6362305,0.08691406,-0.01953125,0.2416992
770,222.1875,-107.75,-5.1875,0.3925781,0.972168,-0.3706055,0.09277344,-0.001953125,0.2363281
774,184.5625,-69.0625,-16.25,0.3339844,0.9296875,-0.3974609,0.09521484,0.006347656,0.2294922
778,170.875,-34.9375,-44.875,0.04345703,0.5839844,-0.2861328,0.09521484,0.02001953,0.2280273
782,154.8125,-35.875,-48.125,-0.1108398,0.5371094,-0.1782227,0.09619141,0.03271484,0.2211914
786,115.375,-64.3125,-22.1875,-0.06054688,0.6499023,0.02099609,0.09521484,0.04003906,0.2211914
790,63,-83.8125,5.5625,0.1132813,0.5019531,0.1674805,0.09863281,0.04736328,0.2172852
794,26.3125,-79.1875,23.25,0.2607422,0.4790039,0.2636719,0.1044922,0.04980469,0.2133789
798,-9.5,-46.4375,14.4375,0.2993164,0.3310547,0.04443359,0.1079102,0.04882813,0.2133789
802,-10.8125,-6.3125,-8.8125,0.1791992,0.05517578,-0.05517578,0.1118164,0.04736328,0.2104492
806,-14.375,12,-10.8125,0.06298828,0.05126953,-0.1552734,0.1103516,0.04736328,0.2104492
810,-22.5625,12.75,-1.4375,0.004882813,0.07080078,-0.1669922,0.1118164,0.04638672,0.2143555
814,-35.8125,12.125,12.875,0.06689453,0.1137695,-0.1513672,0.109375,0.04638672,0.2133789
818,-48.5,25.875,22.5625,0.125,0.1254883,-0.2207031,0.109375,0.04248047,0.2172852
822,-55.375,45.4375,24.125,0.08642578,0.140625,-0.2592773,0.109375,0.04003906,0.2158203
826,-63.625,64.8125,16.3125,0.0009765625,0.2148438,-0.4477539,0.105957,0.03515625,0.2202148
830,-70.9375,72.1875,9.1875,-0.09521484,0.2495117,-0.5014648,0.1020508,0.02880859,0.2202148
834,-85,66.125,13.375,-0.06445313,0.3271484,-0.4824219,0.09863281,0.02734375,0.2211914
838,-105.375,59.0625,27.9375,0.05517578,0.5019531,-0.3974609,0.09765625,0.02148438,0.2294922
842,-135.125,62,41.25,0.1713867,0.6811523,-0.4707031,0.09521484,0.01123047,0.230957
846,-158.6875,76,39.375,0.1987305,0.6923828,-0.5439453,0.09277344,0.002441406,0.2324219
850,-178.0625,95.8125,36.25,0.175293,0.777832,-0.7822266,0.09033203,-0.008300781,0.237793
855,-184.875,106.3125,22.5,0.02441406,0.6655273,-0.8554688,0.08544922,-0.02197266,0.2431641
859,-191.75,94.9375,31.125,-0.02587891,0.8442383,-0.9746094,0.08056641,-0.03076172,0.2460938
863,-202.5625,72.3125,44.625,-0.04101563,0.8710938,-0.9438477,0.07617188,-0.04589844,0.2514648
867,-217,58.9375,64.75,0.09375,1.12793,-0.9824219,0.07226563,-0.06201172,0.2524414
871,-237.1875,68.625,59.125,0.02050781,1.030762,-1.290039,0.06982422,-0.07568359,0.2524414
875,-228.0625,79.6875,21.875,-0.07617188,0.8598633,-1.416992,0.06787109,-0.09570313,0.2539063
879,-217.6875,78.5,4.25,-0.09521484,0.7856445,-1.532715,0.05957031,-0.1132813,0.2553711
883,-193.9375,57,16.8125,-0.04882813,0.6923828,-1.397949,0.05566406,-0.1254883,0.2539063
887,-173.8125,33,51.625,0.109375,0.8984375,-1.155762,0.05224609,-0.1420898,0.2524414
891,-173.5625,38.3125,75.875,0.3613281,1.325684,-0.9360352,0.04736328,-0.1567383,0.25
895,-181.25,72.6875,58.3125,0.2724609,1.345215,-0.9248047,0.04248047,-0.1694336,0.2460938
899,-185.875,93.5,33.9375,0.1674805,1.46582,-0.9672852,0.03564453,-0.1831055,0.2431641
903,-194.0625,94.875,22.3125,0.06689453,1.36084,-0.9707031,0.02734375,-0.1992188,0.237793
907,-192.4375,78,25.5625,0.02832031,1.287109,-0.9248047,0.02001953,-0.2128906,0.2324219
911,-191.3125,57.5,42.1875,0.109375,1.36084,-0.8129883,0.01416016,-0.2255859,0.2255859
915,-197.9375,46.4375,57.3125,0.2568359,1.399902,-0.7094727,0.004394531,-0.2407227,0.2158203
919,-196.9375,50.75,66,0.3652344,1.317871,-0.6860352,0.0009765625,-0.2519531,0.2080078
923,-195.1875,61,66.1875,0.3959961,1.321777,-0.6821289,-0.005859375,-0.2670898,0.1967773
927,-190.0625,72.25,64.3125,0.3999023,1.263672,-0.6669922,-0.01416016,-0.2792969,0.1875
931,-181.5625,79.3125,62.9375,0.3457031,1.228516,-0.6748047,-0.02099609,-0.2905273,0.1762695
935,-174.5,78.4375,64.8125,0.3110352,1.209473,-0.6479492,-0.03076172,-0.3017578,0.1630859
939,-169.1875,75.1875,65.5625,0.2954102,1.205566,-0.609375,-0.04003906,-0.3105469,0.1494141
943,-159.0625,74.25,65.25,0.2954102,1.13916,-0.6206055,-0.04589844,-0.3154297,0.137207
947,-147.375,79.0625,61.1875,0.3110352,1.162598,-0.6171875,-0.05322266,-0.3232422,0.1235352
951,-141.625,83.5625,56.4375,0.2607422,1.150879,-0.6362305,-0.06298828,-0.3305664,0.1123047
955,-133.1875,85.25,46.5,0.2177734,1.104492,-0.6513672,-0.07128906,-0.3330078,0.1000977
959,-125.0625,80,39.25,0.1518555,1.053711,-0.6669922,-0.07714844,-0.3378906,0.08935547
963,-113.625,70.75,35.5625,0.09033203,0.9604492,-0.7094727,-0.08544922,-0.3408203,0.07177734
967,-100.375,57.1875,31.8125,0.04736328,0.9179688,-0.7514648,-0.08642578,-0.3432617,0.06640625
971,-85.1875,44.125,27.75,0.02050781,0.8286133,-0.7822266,-0.09228516,-0.3457031,0.05664063
975,-64.8125,33.1875,22.8125,0.01660156,0.7392578,-0.809082,-0.09375,-0.3466797,0.04980469
979,-42.625,24.6875,17.8125,0.03173828,0.7119141,-0.809082,-0.09960938,-0.3481445,0.04199219
984,-22.75,17.375,11.875,0.02441406,0.7509766,-0.7978516,-0.1010742,-0.3481445,0.04052734
988,-5.1875,9.3125,2.5625,0.02050781,0.7666016,-0.8056641,-0.1010742,-0.3491211,0.03759766
992,13.125,0.625,-7.0625,0.02050781,0.7548828,-0.824707,-0.1020508,-0.3491211,0.03613281
996,34.25,-7.875,-12.8125,0.02832031,0.7236328,-0.8632813,-0.1010742,-0.3481445,0.04052734
1000,58.5625,-14.625,-23,0.02441406,0.7275391,-0.9130859,-0.09716797,-0.3491211,0.04296875
1004,84,-24.4375,-27.375,0.02050781,0.7587891,-0.9477539,-0.09863281,-0.3481445,0.04980469
1008,105.75,-38.0625,-29.5,0.01660156,0.8286133,-1.013184,-0.09472656,-0.3457031,0.05957031
1012,124.125,-48.5,-35.9375,0.02441406,0.8828125,-1.147949,-0.08886719,-0.3432617,0.06787109
1016,153.9375,-52,-52.4375,0.02441406,0.8364258,-1.270996,-0.08398438,-0.3378906,0.07714844
1020,187.5,-57.125,-59,0.06298828,1.003418,-1.290039,-0.078125,-0.3369141,0.09326172
1024,211.625,-68.5,-58.3125,0.06298828,1.108398,-1.282715,-0.06982422,-0.3242188,0.1123047
1028,235.4375,-89.25,-56.25,0.08642578,1.255859,-1.240234,-0.06298828,-0.3232422,0.125
1032,249.8125,-111.5,-51.3125,0.2026367,1.493164,-1.166992,-0.05419922,-0.3095703,0.1464844
1036,251.9375,-119,-56.75,0.3339844,1.648438,-1.090332,-0.04248047,-0.2919922,0.168457
1040,254.5,-110,-74.0625,0.3496094,1.625,-1.209473,-0.03417969,-0.2817383,0.1821289
1044,273.0625,-102.0625,-91.75,0.3613281,1.512207,-1.240234,-0.0234375,-0.2631836,0.199707
1048,290.0625,-100.4375,-80.5,0.3925781,1.566895,-1.251953,-0.01171875,-0.2431641,0.2158203
1052,306,-111.1875,-64.8125,0.3730469,1.667969,-1.270996,-0.001953125,-0.2280273,0.2270508
1056,301.625,-123.875,-42.25,0.3925781,1.862305,-1.340332,0.008300781,-0.203125,0.2402344
1060,278.125,-120.125,-52.3125,0.2529297,1.737793,-1.698242,0.02246094,-0.1782227,0.2470703
1064,302.5625,-110.6875,-115.8125,0.07861328,1.154785,-1.98291,0.02978516,-0.1630859,0.2524414
1068,358.0625,-99.1875,-125.625,0.2412109,1.356934,-2.294434,0.04150391,-0.1333008,0.2583008
1072,418.5625,-106.5625,-110,0.2138672,1.473633,-2.125,0.0546875,-0.09814453,0.2607422
1076,463.0625,-134,-76.9375,0.3417969,1.737793,-1.967285,0.05957031,-0.07177734,0.2592773
1080,480.5625,-133.8125,-52.25,0.6635742,1.986328,-1.732422,0.06787109,-0.03320313,0.2524414
1084,426.1875,-92,-35.875,0.6948242,2.40625,-1.255371,0.07373047,0.00390625,0.2416992
1088,375.8125,-64.125,-61.25,0.3149414,1.749512,-0.7441406,0.07470703,0.02246094,0.2363281
1092,326.8125,-57.1875,-53.625,0.1132813,1.617188,-0.4248047,0.07617188,0.05126953,0.2241211
1096,262.6875,-80.625,-19.1875,-0.07226563,1.228516,-0.2089844,0.07470703,0.07275391,0.2158203
1100,216.4375,-102.0625,-1.9375,0.1015625,0.8867188,-0.05517578,0.07617188,0.08251953,0.2089844
1104,179.75,-97.4375,20.25,0.3149414,0.6655273,-0.02441406,0.08056641,0.09375,0.199707
1108,158.25,-68.625,22.5,0.4814453,0.4633789,0.05175781,0.08691406,0.1049805,0.1914063
1113,126.3125,-29.6875,26.3125,0.4311523,0.4790039,0.1098633,0.08789063,0.1098633,0.1889648
1117,90.25,-18,41.75,-0.07617188,0.3271484,-0.1323242,0.09130859,0.1186523,0.1831055
1121,74.75,-29.9375,23.375,-0.09912109,0.3974609,0.005859375,0.09375,0.1225586,0.1791992
1125,40.0625,-24.8125,5.75,-0.04882813,0.2963867,-0.02832031,0.09521484,0.1235352,0.175293
1129,18.9375,-19.125,-11.4375,0.008789063,0.203125,0.01708984,0.09619141,0.1264648,0.175293
1133,-6.5,-11.125,-15.1875,0.06689453,0.105957,0.02490234,0.09521484,0.1289063,0.1762695
1137,-25.5625,-4.75,-4.3125,0.1210938,0.0009765625,-0.1166992,0.09619141,0.1264648,0.1762695
1141,-27.125,14.3125,0.9375,0.190918,-0.1347656,-0.1630859,0.09375,0.1235352,0.175293
1145,-29.625,39.125,2.375,0.1289063,-0.02978516,-0.2167969,0.09375,0.1235352,0.1791992
1149,-43.125,45.0625,5.1875,-0.04882813,0.04003906,-0.3012695,0.09521484,0.1210938,0.1791992
1153,-61.4375,38.6875,2.0625,-0.1225586,0.05517578,-0.4130859,0.09130859,0.1176758,0.1831055
1157,-76.625,38.0625,-1.875,-0.03710938,0.04736328,-0.4516602,0.09033203,0.1152344,0.1831055
1161,-90.8125,44.375,-0.375,0.05126953,0.09423828,-0.4707031,0.09033203,0.1098633,0.1889648
1165,-107.625,52.0625,6.25,0.1289063,0.1914063,-0.4628906,0.08886719,0.1049805,0.1914063
1169,-129.1875,58.625,16.5,0.190918,0.3120117,-0.4628906,0.08544922,0.09765625,0.1953125
1173,-153.1875,69.375,25.5625,0.2216797,0.4672852,-0.5170898,0.08447266,0.09130859,0.1982422
1177,-188.9375,77.875,20.375,-0.01416016,0.5449219,-0.8710938,0.08203125,0.08105469,0.2080078
1181,-205.4375,61.1875,18.25,-0.2001953,0.4204102,-1.001465,0.07958984,0.06738281,0.2143555
1185,-218.75,37.625,38.25,-0.07617188,0.5761719,-0.9594727,0.08056641,0.05615234,0.2226563
1189,-236.5625,19.5,71.875,0.1987305,0.8520508,-0.7670898,0.08203125,0.04248047,0.2280273
1193,-269.9375,22.4375,116.3125,0.3959961,1.154785,-0.8017578,0.08544922,0.02148438,0.2324219
1197,-298.1875,44.6875,132.9375,0.2373047,1.007324,-1.117188,0.08691406,0.004882813,0.2402344
1201,-251.5,84.1875,77.75,0.09033203,0.4477539,-1.428711,0.08691406,-0.01953125,0.2446289
1205,-203.625,142.75,8.0625,0.2875977,0.6655273,-1.436523,0.08203125,-0.03710938,0.2524414
1209,-177.8125,171.125,0.375,0.2568359,0.7509766,-1.359375,0.07470703,-0.04833984,0.2568359
1213,-179.0625,156.75,41.6875,0.1791992,1.135742,-1.255371,0.06152344,-0.06201172,0.2607422
1217,-212.625,133,78.375,0.09033203,1.353027,-1.26709,0.04882813,-0.07714844,0.2636719
1221,-225.1875,107.125,82.6875,-0.03320313,1.255859,-1.394043,0.04052734,-0.09179688,0.2651367
1225,-227.375,102.125,63.5625,0.09033203,1.150879,-1.463379,0.02978516,-0.1108398,0.2651367
1229,-217.3125,112.75,38.375,0.2138672,1.154785,-1.44043,0.02001953,-0.1333008,0.2651367
1233,-214.5625,121.5625,25.0625,0.3613281,1.302734,-1.344238,0.01269531,-0.1455078,0.2607422
1237,-222.1875,122.375,32,0.4541016,1.372559,-1.255371,0,-0.1645508,0.2583008
1242,-224.0625,119.5625,46.5,0.4272461,1.302734,-1.293945,-0.009277344,-0.1831055,0.25
1246,-218.875,115.0625,45.9375,0.3808594,1.279297,-1.320801,-0.02001953,-0.1967773,0.2460938
1250,-212.6875,109.375,42.6875,0.3417969,1.244141,-1.340332,-0.02929688,-0.2143555,0.2348633
1254,-208.6875,105.1875,39.6875,0.3535156,1.205566,-1.320801,-0.04003906,-0.2319336,0.2241211
1258,-204.5625,98.625,38.9375,0.3071289,1.146973,-1.290039,-0.04492188,-0.2431641,0.2158203
1262,-196.9375,86.5,37.9375,0.2685547,1.077148,-1.244141,-0.05566406,-0.2592773,0.2011719
1266,-186.25,73.8125,40.9375,0.2646484,0.987793,-1.20166,-0.06396484,-0.2729492,0.1875
1270,-172.9375,64.3125,42.875,0.2836914,0.9492188,-1.109375,-0.07128906,-0.2792969,0.1791992
1274,-158.75,60.1875,41.6875,0.2758789,0.9179688,-1.028809,-0.078125,-0.2905273,0.1655273
1278,-148.375,57.5625,39.625,0.2529297,0.8945313,-0.9672852,-0.08544922,-0.2983398,0.1508789
1282,-136.375,51.375,40.9375,0.2104492,0.8325195,-0.9130859,-0.09033203,-0.3032227,0.1425781
1286,-120.875,45.0625,39.3125,0.1870117,0.777832,-0.859375,-0.09619141,-0.3081055,0.1289063
1290,-107.4375,44.1875,33.4375,0.1557617,0.7353516,-0.8168945,-0.1020508,-0.3144531,0.1206055
1294,-90.6875,42.3125,24.9375,0.1518555,0.7197266,-0.7285156,-0.1054688,-0.3178711,0.1152344
1298,-71,39.4375,23.25,0.2026367,0.7353516,-0.59375,-0.109375,-0.3193359,0.1044922
1302,-54.75,37.75,24.125,0.2490234,0.8710938,-0.4746094,-0.112793,-0.3232422,0.1000977
1306,-53.0625,38.75,15.125,0.2104492,0.8828125,-0.4477539,-0.1137695,-0.3217773,0.09619141
1310,-46.375,39.1875,2.9375,0.1367188,0.7392578,-0.5400391,-0.1176758,-0.3256836,0.08789063
1314,-33.4375,34.6875,-8.8125,0.03564453,0.6811523,-0.628418,-0.1186523,-0.3266602,0.08251953
1318,-19.6875,23.375,-18.25,0.01269531,0.6420898,-0.6748047,-0.1201172,-0.328125,0.08105469
1322,-5.6875,8.375,-20.6875,0.008789063,0.6303711,-0.7402344,-0.1201172,-0.3291016,0.08105469
1326,6.6875,-11.875,-19.4375,0.03173828,0.6655273,-0.7900391,-0.1162109,-0.3305664,0.07861328
1330,16.6875,-30,-21.9375,0.1054688,0.7080078,-0.8056641,-0.1152344,-0.3305664,0.08007813
1334,29,-40.0625,-28.1875,0.1713867,0.6616211,-0.840332,-0.1137695,-0.3320313,0.08251953
1338,47.1875,-45.6875,-36.4375,0.1870117,0.6381836,-0.9287109,-0.1069336,-0.3305664,0.08935547
1342,71.4375,-52.4375,-39.375,0.2026367,0.6147461,-1.005371,-0.1044922,-0.328125,0.09082031
1346,96.6875,-59.5625,-38,0.175293,0.6459961,-1.121094,-0.09960938,-0.3266602,0.1015625
1350,119.9375,-68.875,-37.625,0.1518555,0.7275391,-1.209473,-0.09375,-0.3242188,0.1123047
1354,140.875,-77.625,-42.25,0.08642578,0.7119141,-1.359375,-0.08886719,-0.3178711,0.1206055
1358,168.625,-90.1875,-51.875,0.06689453,0.7856445,-1.447754,-0.08203125,-0.3144531,0.1357422
1362,193.4375,-99.1875,-53.9375,0.125,0.9414063,-1.420898,-0.07226563,-0.3056641,0.1508789
1366,217.375,-106.125,-53.3125,0.1674805,1.061523,-1.394043,-0.06298828,-0.2983398,0.1640625
1371,238.8125,-108.125,-53.4375,0.2104492,1.259766,-1.378906,-0.05078125,-0.2817383,0.1791992
1375,252.375,-111.6875,-58.0625,0.1987305,1.473633,-1.375,-0.04003906,-0.265625,0.1982422
1379,254.8125,-120.8125,-65.125,0.1791992,1.601563,-1.367188,-0.03076172,-0.2529297,0.2104492
1383,257.1875,-136.375,-69.4375,0.2216797,1.605469,-1.378906,-0.02001953,-0.2329102,0.2255859
1387,259.875,-146.0625,-64.375,0.3457031,1.609375,-1.420898,-0.004394531,-0.2094727,0.2363281
1391,265.875,-151,-56.8125,0.4233398,1.559082,-1.463379,0.005859375,-0.1943359,0.2460938
1395,274.125,-149.4375,-54.875,0.5317383,1.52002,-1.475098,0.02001953,-0.1743164,0.2514648
1399,285.1875,-133,-57.875,0.609375,1.49707,-1.420898,0.03564453,-0.1479492,0.2568359
1403,286,-105.875,-61.4375,0.5317383,1.535645,-1.513184,0.04150391,-0.1318359,0.2583008
1407,277.125,-85.9375,-76.625,0.2529297,1.49707,-1.655762,0.0546875,-0.1030273,0.262207
1411,264.3125,-89.4375,-99.9375,0.1289063,1.49707,-1.705566,0.06054688,-0.08056641,0.2592773
1415,263.0625,-91.125,-110.875,0.1987305,1.263672,-1.770996,0.06542969,-0.06689453,0.2568359
1419,296.5,-90.6875,-117.9375,0.3266602,1.205566,-1.698242,0.06982422,-0.04199219,0.2524414
1423,308.8125,-90.4375,-105,0.3959961,1.244141,-1.540039,0.07373047,-0.01464844,0.2485352
1427,305.5,-105.375,-60.9375,0.4853516,1.317871,-1.117188,0.07861328,-0.0004882813,0.2431641
1431,278.5,-113.5625,-9.5,0.5708008,1.372559,-0.6552734,0.08203125,0.02148438,0.2324219
1435,236.75,-92.0625,11.1875,0.5009766,1.306641,-0.3862305,0.08447266,0.04150391,0.2241211
1439,201.375,-70.8125,1.3125,0.2373047,1.049805,-0.2397461,0.08691406,0.04882813,0.2211914
1443,168.3125,-58.4375,-16.5625,0.03173828,0.8520508,-0.1821289,0.08886719,0.06103516,0.2119141
1447,137.8125,-55.5,-21.75,0.08642578,0.6538086,-0.01660156,0.09033203,0.07275391,0.2089844
1451,106.6875,-50.375,-8.625,0.1328125,0.4907227,0.009765625,0.09277344,0.07861328,0.206543
1455,82.9375,-52.5625,10.8125,0.1484375,0.3120117,0.05566406,0.09375,0.08642578,0.2021484
1459,58.875,-47.625,30.625,0.1948242,0.3232422,0.05175781,0.09765625,0.08886719,0.1967773
1463,38.625,-21.3125,17.375,0.1987305,0.2226563,-0.001464844,0.09863281,0.08984375,0.1953125
1467,28.1875,5.5625,-6.5,0.02832031,0.140625,-0.1401367,0.09960938,0.09228516,0.1982422
1471,18.375,5.9375,-12.125,-0.1186523,0.105957,-0.09375,0.09960938,0.09619141,0.1953125
1475,-2.5625,-1.1875,1.8125,0.07080078,0.1523438,-0.01318359,0.09960938,0.09619141,0.1943359
1479,-20.4375,18.5,3.9375,0.2255859,0.03613281,-0.07080078,0.09960938,0.09765625,0.1943359
1483,-32.1875,44.875,-2.25,0.02441406,0.06298828,-0.2822266,0.09765625,0.09228516,0.1943359
1487,-47.9375,42.25,-5.625,-0.1923828,0.02441406,-0.4667969,0.09619141,0.09130859,0.1967773
1491,-52.5625,28.9375,-2.875,-0.09521484,-0.05664063,-0.4667969,0.09130859,0.08886719,0.2036133
1495,-57.6875,38.6875,2.3125,0.1518555,0.03613281,-0.4091797,0.09130859,0.08642578,0.2021484
1500,-70.0625,56.75,10.125,0.05126953,0.15625,-0.5053711,0.09033203,0.08398438,0.2050781
1504,-85.25,53.25,13.6875,-0.1030273,0.1484375,-0.5629883,0.08789063,0.07617188,0.2089844
1508,-103.25,52.5,13.0625,-0.006347656,0.237793,-0.6479492,0.08544922,0.07128906,0.2119141
1512,-116.5625,61.5625,10.4375,0.06298828,0.269043,-0.6669922,0.08447266,0.06640625,0.2172852
1516,-133.3125,65.125,13.5625,-0.05664063,0.3544922,-0.7514648,0.08203125,0.06005859,0.21875
1520,-151.6875,52.875,28,-0.04882813,0.5175781,-0.7631836,0.08056641,0.04882813,0.2241211
1524,-173.3125,47.1875,35.4375,-0.07226563,0.4165039,-0.9360352,0.08203125,0.04150391,0.2270508
1528,-174.6875,46.75,35.3125,0.06298828,0.4985352,-0.9091797,0.07958984,0.02734375,0.2324219
1532,-186.6875,57.3125,32.8125,0.1557617,0.7119141,-0.840332,0.07958984,0.01367188,0.2392578
1536,-199.125,69.5625,29,0.3227539,0.9682617,-0.7016602,0.07617188,0.00390625,0.2402344
1540,-223.375,77.9375,53.1875,0.3999023,1.108398,-0.7592773,0.07470703,-0.01171875,0.2470703
1544,-254.5625,93.5625,69.1875,0.1445313,0.9140625,-1.20166,0.07128906,-0.02929688,0.2514648
1548,-231.4375,98.8125,63.125,-0.2001953,0.4907227,-1.478516,0.06787109,-0.046875,0.2539063
1552,-202.25,103.9375,37.5,-0.1303711,0.8364258,-1.359375,0.05957031,-0.06445313,0.2583008
1556,-202.75,90.75,34.625,-0.04492188,1.088867,-1.140137,0.05224609,-0.07958984,0.2607422
1560,-202.75,66.0625,49.8125,0.1987305,1.228516,-0.9516602,0.04736328,-0.09179688,0.2651367
1564,-212.375,70.875,68.4375,0.4931641,1.426758,-0.9555664,0.04248047,-0.109375,0.2636719
1568,-223.6875,92.875,67.8125,0.3886719,1.321777,-1.132324,0.03320313,-0.1308594,0.2607422
1572,-219.8125,102.4375,59.8125,0.3227539,1.259766,-1.205566,0.02978516,-0.1445313,0.2583008
1576,-211.3125,108.375,52.5,0.2685547,1.213379,-1.248047,0.01660156,-0.1630859,0.2568359
1580,-211.25,104.8125,42.9375,0.2758789,1.275391,-1.213379,0.006835938,-0.1806641,0.2524414
1584,-214.4375,99.5,40.875,0.4155273,1.411133,-1.13623,-0.0009765625,-0.1943359,0.2470703
1588,-222.5625,99.6875,41.6875,0.5473633,1.43457,-1.08252,-0.01025391,-0.2094727,0.2363281
1592,-228.5,104.75,49.25,0.6171875,1.477539,-1.051758,-0.02099609,-0.2294922,0.2294922
1596,-220.6875,103.25,49.625,0.4697266,1.279297,-1.121094,-0.02929688,-0.2416992,0.21875
1600,-208.25,100.9375,45.8125,0.5126953,1.317871,-1.094238,-0.04003906,-0.2583008,0.2050781
1604,-202.5625,101.25,45.8125,0.5009766,1.275391,-1.047852,-0.04980469,-0.2719727,0.1899414
1608,-196,98.875,44.375,0.4619141,1.189941,-1.043945,-0.05810547,-0.2807617,0.1791992
1612,-188.875,98,42.9375,0.4467773,1.174316,-1.001465,-0.06738281,-0.2929688,0.1655273
1616,-181.9375,95.1875,38.75,0.3535156,1.081055,-1.024902,-0.078125,-0.3041992,0.1494141
1620,-170.25,88.625,35,0.3032227,0.9995117,-1.032227,-0.08203125,-0.3105469,0.137207
1624,-155.0625,80.0625,33.6875,0.2490234,0.824707,-1.028809,-0.09033203,-0.3193359,0.1191406
1629,-135.25,72.75,40.75,0.2451172,0.7392578,-0.9980469,-0.09619141,-0.3256836,0.105957
1633,-117.9375,67.5,45.1875,0.1635742,0.6962891,-0.9746094,-0.1010742,-0.328125,0.09765625
1637,-97.0625,58.6875,42,0.04736328,0.6147461,-0.9863281,-0.109375,-0.3305664,0.08691406
1641,-76.125,47.25,34.875,-0.03320313,0.6108398,-0.9863281,-0.1152344,-0.3320313,0.07568359
1645,-54.9375,37.6875,22.25,-0.06054688,0.5722656,-0.9785156,-0.1162109,-0.3330078,0.07177734
1649,-30.8125,28.4375,10.625,-0.09130859,0.5175781,-1.009277,-0.1201172,-0.3344727,0.06640625
1653,-5.5625,17.8125,3.8125,-0.1108398,0.4907227,-1.024902,-0.1210938,-0.3354492,0.06201172
1657,19.8125,-0.3125,1.5625,-0.1533203,0.5097656,-1.009277,-0.1201172,-0.3344727,0.06201172
1661,40.0625,-19.8125,-2.625,-0.1303711,0.5761719,-1.024902,-0.1210938,-0.3344727,0.06494141
1665,58.625,-38.1875,-11.9375,-0.1069336,0.5991211,-1.043945,-0.1176758,-0.3330078,0.0703125
1669,78.75,-51.3125,-21.8125,-0.02978516,0.6459961,-1.05957,-0.1162109,-0.3305664,0.07421875
1673,96.8125,-60.25,-32.0625,0.01660156,0.6694336,-1.074707,-0.1137695,-0.3305664,0.08398438
1677,121.6875,-67.6875,-40.25,0.08251953,0.7817383,-1.094238,-0.1079102,-0.3256836,0.09619141
1681,141.1875,-77.9375,-42.5,0.1015625,0.8325195,-1.125,-0.1030273,-0.3242188,0.1044922
1685,164.6875,-91.9375,-40.375,0.1674805,0.8867188,-1.121094,-0.09472656,-0.3168945,0.1181641
1689,185.375,-98.3125,-39.625,0.2177734,1.022949,-1.13623,-0.08642578,-0.3105469,0.1357422
1693,196.0625,-100.5625,-51.5625,0.2797852,1.283203,-1.097656,-0.08056641,-0.3032227,0.1479492
1697,199.0625,-99.75,-74.8125,0.2993164,1.368652,-1.070801,-0.06982422,-0.2954102,0.1655273
1701,212.875,-98.0625,-85,0.3999023,1.32959,-1.101563,-0.05810547,-0.2817383,0.1821289
1705,227.125,-99,-79.5625,0.4155273,1.39209,-1.117188,-0.04833984,-0.2705078,0.1928711
1709,233.1875,-108.9375,-65,0.4194336,1.46582,-1.15918,-0.03759766,-0.2543945,0.2080078
1713,232.5,-107.9375,-74.25,0.5395508,1.625,-1.117188,-0.0234375,-0.2382813,0.2211914
1717,229.5,-76.75,-111.5625,0.7641602,1.702637,-0.9746094,-0.01513672,-0.2246094,0.230957
1721,229.5625,-26.5,-132,0.8110352,1.617188,-0.9169922,-0.005859375,-0.2045898,0.2392578
1725,239,3.125,-126,0.6557617,1.461914,-0.8979492,0.002441406,-0.1845703,0.2470703
1729,236.5625,13.625,-100.6875,0.644043,1.562988,-0.8017578,0.005859375,-0.1704102,0.2524414
1733,226.5,17.5,-73.8125,0.4775391,1.438477,-0.7822266,0.008300781,-0.1508789,0.2592773
1737,209.9375,13.5,-59.5625,0.2333984,1.287109,-0.9555664,0.006835938,-0.1279297,0.2651367
1741,195.9375,-0.8125,-64,0.03564453,0.9995117,-1.163086,0.008300781,-0.1206055,0.2661133
1745,196,-28.0625,-68.8125,-0.04101563,0.6186523,-1.447754,0.009277344,-0.1005859,0.2661133
1749,228.625,-51.625,-46.1875,0.2026367,0.5332031,-1.494141,0.01171875,-0.08300781,0.269043
1753,253.875,-58.0625,-24,0.3227539,0.4633789,-1.632813,0.01660156,-0.06933594,0.269043
1758,297.3125,-50.125,-0.5625,0.5200195,0.6225586,-1.543945,0.02001953,-0.04833984,0.2651367
1762,308.625,-37.25,16.25,0.4619141,1.053711,-1.355469,0.0234375,-0.02441406,0.262207
1766,292.5,-39.875,12.9375,0.206543,1.193848,-1.344238,0.0234375,-0.008300781,0.2592773
1770,279.9375,-59.125,13.0625,-0.002441406,0.9179688,-1.33252,0.02587891,0.01269531,0.25
1774,277.4375,-78.375,27.0625,0.06689453,0.9335938,-1.113281,0.02832031,0.03515625,0.2431641
1778,263.375,-84.8125,53,0.1635742,0.8598633,-0.6513672,0.03320313,0.04882813,0.2392578
1782,230.625,-74.8125,70.3125,0.3110352,1.108398,-0.1743164,0.0390625,0.06738281,0.2294922
1786,158.5625,-48.625,57.25,0.1367188,1.267578,0.01708984,0.04248047,0.08007813,0.2226563
1790,100.5,-38.6875,15.3125,-0.2929688,0.777832,-0.03222656,0.04394531,0.08398438,0.2202148
1794,64.125,-46.5625,-2.75,-0.3203125,0.5878906,-0.1206055,0.04736328,0.09228516,0.2158203
1798,31.1875,-63.3125,-1.6875,-0.2041016,0.4013672,-0.1166992,0.05078125,0.09619141,0.2133789
1802,11.4375,-66.5,11.3125,0.09033203,0.2148438,0.01367188,0.05078125,0.09228516,0.2133789
1806,-8.5,-44.6875,16.5,0.1948242,0.284668,0.04052734,0.05566406,0.09521484,0.2119141
1810,-39.25,-25.8125,11.3125,0.1054688,0.3935547,-0.04736328,0.05810547,0.09228516,0.2119141
1814,-54,-14.5,-0.0625,-0.02197266,-0.002441406,-0.2553711,0.06054688,0.08984375,0.2119141
1818,-45.5,-5.0625,-9.8125,-0.06445313,-0.03759766,-0.4052734,0.06152344,0.08740234,0.2143555
1822,-49.3125,-8.875,-3.0625,-0.03320313,-0.04882813,-0.3823242,0.06152344,0.08496094,0.2172852
1826,-57.1875,-10.625,12.375,0.1132813,0.008789063,-0.2783203,0.06298828,0.08105469,0.2172852
1830,-67.75,10,15.4375,0.2294922,0.1875,-0.2861328,0.06396484,0.07617188,0.2202148
1834,-81.3125,36.9375,0.5625,0.1635742,0.1523438,-0.4208984,0.06396484,0.07128906,0.2211914
1838,-88.1875,48.5,-4.25,0.02050781,0.15625,-0.6054688,0.06396484,0.06738281,0.2211914
1842,-97.0625,42.8125,-1.9375,-0.04882813,0.171875,-0.644043,0.06298828,0.06103516,0.2255859
1846,-109.1875,36.4375,7.5,0.06298828,0.315918,-0.5517578,0.06054688,0.05615234,0.2280273
1850,-130.0625,41.25,17.25,0.1987305,0.5722656,-0.4628906,0.06054688,0.04736328,0.2294922
1854,-159.625,48.8125,20.375,0.1713867,0.6962891,-0.5209961,0.05810547,0.03857422,0.2363281
1858,-183,51.9375,23.125,0.1328125,0.8168945,-0.59375,0.05810547,0.02734375,0.2416992
1862,-197.125,60.0625,18.75,0.2026367,0.8632813,-0.6323242,0.05810547,0.01757813,0.2431641
1866,-207.6875,78.8125,4.8125,0.3188477,0.9956055,-0.644043,0.05224609,0,0.2485352
1870,-222.75,90.9375,7.5625,0.3959961,1.162598,-0.6669922,0.04882813,-0.01171875,0.2539063
1874,-235.0625,96.5,26.0625,0.4233398,1.20166,-0.6977539,0.04638672,-0.02441406,0.2583008
1878,-240.25,106.1875,48.75,0.4311523,1.380371,-0.7978516,0.03662109,-0.04199219,0.2607422
1882,-252.25,105.0625,50.5625,0.07861328,1.368652,-1.047852,0.02978516,-0.06445313,0.2661133
1887,-271.8125,69.9375,53.8125,-0.2080078,1.422852,-1.293945,0.02587891,-0.078125,0.269043
1891,-292.0625,35.6875,63,-0.06054688,1.255859,-1.471191,0.01757813,-0.1030273,0.2661133
1895,-282.6875,33,65.5,0.2373047,1.034668,-1.475098,0.01513672,-0.1293945,0.262207
1899,-259.5,54.6875,69.3125,0.5551758,1.186035,-1.344238,0.01269531,-0.1455078,0.2592773
1903,-242.5,81.5,63.9375,0.6518555,1.46582,-1.224609,0.004394531,-0.1679688,0.2553711
1907,-241,100.0625,62.875,0.644043,1.690918,-1.193848,-0.005859375,-0.1879883,0.2485352
1911,-245.9375,108,61.25,0.4853516,1.683105,-1.274902,-0.01416016,-0.203125,0.2431641
1915,-249.8125,100,60.875,0.3457031,1.675781,-1.33252,-0.02490234,-0.2231445,0.2294922
1919,-254.875,82.5,59.1875,0.3227539,1.644531,-1.301758,-0.03515625,-0.2431641,0.2172852
1923,-251.5625,72.125,51.5625,0.4428711,1.559082,-1.270996,-0.04150391,-0.2543945,0.2050781
1927,-241.125,79.125,40.125,0.6015625,1.442383,-1.178711,-0.04980469,-0.2744141,0.1889648
1931,-230.125,90.25,35.9375,0.6289063,1.345215,-1.094238,-0.05908203,-0.2905273,0.1723633
1935,-222.75,93.25,38.25,0.543457,1.248047,-1.074707,-0.06640625,-0.2993164,0.1586914
1939,-212,90.875,43.125,0.4892578,1.13916,-1.032227,-0.07226563,-0.3120117,0.1396484
1943,-196.9375,85.4375,48.25,0.3925781,1.022949,-1.01709,-0.08300781,-0.3217773,0.1206055
1947,-177.3125,80.5625,51.75,0.3305664,0.9604492,-0.9746094,-0.09033203,-0.3256836,0.1069336
1951,-156.3125,75.9375,48,0.2255859,0.8789063,-0.9477539,-0.09716797,-0.3320313,0.09228516
1955,-137.3125,70.0625,43.9375,0.1791992,0.8129883,-0.9018555,-0.1044922,-0.3378906,0.07324219
1959,-118.3125,68.3125,35.625,0.140625,0.7314453,-0.9018555,-0.109375,-0.3378906,0.06787109
1963,-97.625,65.3125,28.625,0.05126953,0.6733398,-0.9091797,-0.112793,-0.3408203,0.05419922
1967,-75.4375,55.8125,22.6875,-0.05273438,0.5683594,-0.9399414,-0.1162109,-0.3417969,0.04199219
1971,-52.5,41.125,15.75,-0.09521484,0.5488281,-0.9326172,-0.1186523,-0.3417969,0.0390625
1975,-29.375,26.25,8.5,-0.1186523,0.5175781,-0.9248047,-0.1210938,-0.3417969,0.03369141
1979,-5.375,13.9375,-0.0625,-0.08398438,0.5214844,-0.894043,-0.1210938,-0.3442383,0.02832031
1983,18.8125,4.1875,-7.75,-0.06445313,0.5019531,-0.8745117,-0.1220703,-0.3432617,0.03222656
1987,43.4375,-8.5,-10.125,-0.08007813,0.5371094,-0.8476563,-0.1210938,-0.3417969,0.03222656
1991,62.5,-25.8125,-11.3125,-0.06445313,0.6342773,-0.8286133,-0.1186523,-0.3432617,0.0390625
1995,74.75,-42.1875,-19.5625,-0.05664063,0.7158203,-0.8286133,-0.1186523,-0.3408203,0.04199219
1999,88.6875,-58.3125,-29.375,0.004882813,0.7509766,-0.8632813,-0.1137695,-0.3393555,0.05126953
2003,103.4375,-70.1875,-33.4375,0.07080078,0.7431641,-0.8823242,-0.1103516,-0.3369141,0.06347656
2007,125.0625,-79.1875,-38.8125,0.1518555,0.8129883,-0.8823242,-0.1069336,-0.3378906,0.07177734
2011,143.4375,-84.0625,-45.0625,0.2412109,0.956543,-0.8554688,-0.09960938,-0.3330078,0.08544922
2016,155.0625,-89.1875,-49.9375,0.2993164,1.120117,-0.8364258,-0.09228516,-0.328125,0.09912109
2020,157.75,-96.4375,-49.5625,0.3339844,1.251953,-0.8208008,-0.08544922,-0.3232422,0.1098633
2024,161,-107.0625,-49.5,0.3535156,1.275391,-0.8554688,-0.078125,-0.3193359,0.1274414
2028,175.6875,-112.1875,-50.4375,0.4389648,1.271484,-0.8710938,-0.06738281,-0.3105469,0.1450195
2032,187.25,-106.8125,-49.8125,0.5161133,1.368652,-0.8671875,-0.06152344,-0.3032227,0.15625
2036,190.8125,-100.9375,-41.1875,0.5317383,1.469727,-0.8364258,-0.05078125,-0.2929688,0.1699219
2040,182,-105.5,-22,0.5512695,1.628906,-0.7978516,-0.04150391,-0.2792969,0.1845703
2044,142.25,-112.875,5.375,0.5317383,1.791992,-0.7592773,-0.03417969,-0.2695313,0.1914063
2048,129.1875,-114.8125,-4.8125,0.4697266,1.481445,-0.824707,-0.02685547,-0.2607422,0.2036133
2052,157.75,-94.625,-50.375,0.5161133,1.259766,-0.8901367,-0.01855469,-0.2495117,0.2104492
2056,177.5,-64.5,-76,0.574707,1.39209,-0.8554688,-0.01025391,-0.2382813,0.2158203
2060,182.5625,-61.8125,-75.8125,0.3959961,1.298828,-0.824707,-0.001953125,-0.2270508,0.2255859
2064,179.6875,-82.625,-48.875,0.4311523,1.415039,-0.7709961,0.008300781,-0.2104492,0.2333984
2068,167.625,-100,-24.8125,0.4506836,1.376465,-0.7016602,0.01269531,-0.2016602,0.237793
2072,167.4375,-103.75,-23.625,0.4233398,1.259766,-0.7246094,0.02246094,-0.1879883,0.2392578
2076,176.0625,-91.5625,-40.9375,0.4194336,1.197754,-0.7978516,0.03173828,-0.1743164,0.2416992
2080,187.625,-61.25,-62,0.5317383,1.124023,-0.809082,0.03808594,-0.1655273,0.2460938
2084,198.375,-26.9375,-70.75,0.3730469,0.9995117,-0.9018555,0.04248047,-0.1469727,0.25
2088,191.875,-31.5,-55.75,0.03955078,0.987793,-1.178711,0.04638672,-0.1293945,0.2539063
2092,201.875,-67.75,-49.25,-0.1459961,0.7119141,-1.348145,0.05078125,-0.1181641,0.2539063
2096,226.1875,-92.5625,-37.125,0.1015625,0.8129883,-1.251953,0.05322266,-0.1030273,0.2539063
2100,238.3125,-105.125,-21.4375,0.3417969,0.9643555,-0.9399414,0.06152344,-0.08203125,0.2524414
2104,233,-98.125,-7.25,0.4970703,1.081055,-0.6401367,0.06542969,-0.06835938,0.2524414
2108,210.375,-78.4375,-4.5625,0.4736328,1.12793,-0.4863281,0.06982422,-0.05078125,0.2485352
2112,184.3125,-59.4375,-9.625,0.2685547,0.90625,-0.3666992,0.07470703,-0.03564453,0.2460938
2116,167.5625,-50.5625,-11.625,0.09375,0.7119141,-0.3515625,0.07861328,-0.02587891,0.2446289
2120,160.9375,-50.0625,-17.125,-0.04492188,0.4750977,-0.2783203,0.07958984,-0.01318359,0.2416992
2124,135.1875,-58,2.6875,0.09033203,0.777832,-0.1630859,0.08203125,-0.001953125,0.237793
2128,86.0625,-67.5,31.125,0.109375,0.6538086,-0.05126953,0.08203125,0.00390625,0.2363281
2132,51.1875,-55.8125,30.0625,0.1948242,0.5527344,-0.02832031,0.08789063,0.007324219,0.2333984
2136,25.6875,-28.4375,15.75,0.2104492,0.4790039,-0.05126953,0.09033203,0.008789063,0.2324219
2140,5.1875,2.125,-1.6875,0.1484375,0.4360352,-0.05517578,0.09277344,0.01025391,0.230957
2145,-18.6875,17.1875,-11.375,0.02050781,0.3662109,-0.1513672,0.09277344,0.01025391,0.2324219
2149,-37.375,20.75,-11.375,-0.002441406,0.3120117,-0.2592773,0.09033203,0.006347656,0.2324219
2153,-56.3125,23.25,-8.5625,-0.006347656,0.300293,-0.4013672,0.08789063,0.006347656,0.2348633
2157,-66.375,25.375,-5.375,-0.03320313,0.2070313,-0.5400391,0.08886719,0.002441406,0.2348633
2161,-68.5,25.0625,-1.6875,-0.08007813,0.140625,-0.6401367,0.08691406,-0.003417969,0.2363281
2165,-65.375,24.625,1.8125,-0.04882813,0.140625,-0.6479492,0.08789063,-0.005859375,0.237793
2169,-66.625,29.75,9.6875,0.109375,0.3232422,-0.5629883,0.08544922,-0.008300781,0.237793
2173,-78.75,40.6875,19.875,0.1948242,0.4633789,-0.4477539,0.08447266,-0.015625,0.2431641
2177,-104.4375,54.875,23.8125,0.2104492,0.6811523,-0.4902344,0.08300781,-0.01953125,0.2416992
2181,-127.4375,68.375,15.5625,0.1328125,0.7509766,-0.6323242,0.07958984,-0.02929688,0.2431641
2185,-147.8125,72.5625,3.0625,-0.05273438,0.6303711,-0.8710938,0.07617188,-0.04052734,0.2470703
2189,-149.4375,56.4375,7.25,-0.04101563,0.6225586,-0.8632813,0.07373047,-0.04589844,0.25
2193,-158,39.9375,29.0625,0.1484375,0.7509766,-0.6899414,0.07226563,-0.05810547,0.2485352
2197,-172.125,38.25,51.5625,0.3730469,1.019043,-0.5786133,0.07128906,-0.07177734,0.2514648
2201,-197.375,56.375,57.125,0.4155273,1.186035,-0.5825195,0.06787109,-0.08056641,0.2524414
2205,-212.5625,76.75,45.1875,0.2490234,1.13916,-0.8208008,0.06396484,-0.1005859,0.2539063
2209,-210.3125,84.875,27.4375,0.1674805,1.077148,-0.9326172,0.05810547,-0.1166992,0.2524414
2213,-211.125,88.5,22.125,0.1132813,1.061523,-1.078613,0.05322266,-0.1293945,0.2539063
2217,-205.8125,79.625,23.25,0.05908203,0.9414063,-1.097656,0.04638672,-0.1469727,0.2514648
2221,-197.4375,63.5625,39.75,0.1831055,1.045898,-1.020996,0.0390625,-0.1655273,0.2460938
2225,-198.4375,53.1875,59,0.3266602,1.189941,-0.894043,0.03320313,-0.1757813,0.2446289
2229,-199.9375,56.375,66.8125,0.4389648,1.267578,-0.8129883,0.02832031,-0.1933594,0.2392578
2233,-194.75,71.0625,64.25,0.4814453,1.267578,-0.7978516,0.01904297,-0.2119141,0.2333984
2237,-190.75,89.875,60,0.4814453,1.291016,-0.8710938,0.01416016,-0.2207031,0.2280273
2241,-184.0625,100.1875,52.6875,0.3886719,1.279297,-0.9326172,0.004394531,-0.2358398,0.21875
2245,-182.625,94.375,54.4375,0.3266602,1.298828,-0.9208984,-0.006835938,-0.2504883,0.2104492
2249,-180.5,83,60.1875,0.3496094,1.271484,-0.878418,-0.01513672,-0.2592773,0.2036133
2253,-178.4375,76.9375,62.375,0.4350586,1.302734,-0.84375,-0.02246094,-0.2729492,0.1914063
2257,-174,79.4375,57.5,0.5009766,1.302734,-0.7749023,-0.03320313,-0.2832031,0.1806641
2261,-167.8125,86.625,51.25,0.5200195,1.225098,-0.7402344,-0.0390625,-0.2919922,0.1708984
2265,-159.5625,95.125,52.375,0.5317383,1.166504,-0.7324219,-0.04833984,-0.3007813,0.1572266
2269,-150.6875,98.5,57.875,0.4272461,1.104492,-0.7402344,-0.05810547,-0.3105469,0.1450195
2274,-136.25,93.125,59.1875,0.3227539,1.057617,-0.7670898,-0.06494141,-0.3144531,0.1357422
2278,-126.1875,85.0625,59.625,0.3188477,1.073242,-0.7285156,-0.07470703,-0.3193359,0.1206055
2282,-122.5,81.4375,57.375,0.3110352,1.061523,-0.6977539,-0.08398438,-0.3266602,0.1098633
2286,-114,78.875,47.8125,0.2758789,0.9916992,-0.7094727,-0.09228516,-0.328125,0.1015625
2290,-99.125,75.1875,43.1875,0.2412109,0.9023438,-0.7324219,-0.09716797,-0.3320313,0.08935547
2294,-85.6875,69.625,43.5625,0.190918,0.8710938,-0.7553711,-0.1044922,-0.3344727,0.07861328
2298,-70.5,61.625,39.4375,0.109375,0.7817383,-0.7749023,-0.1069336,-0.3344727,0.07421875
2302,-56,51.625,34.625,0.07861328,0.7973633,-0.7783203,-0.1152344,-0.3369141,0.06640625
2306,-42.4375,42.1875,23.4375,0.05126953,0.777832,-0.7822266,-0.1176758,-0.3369141,0.05664063
2310,-27.3125,34.25,9.9375,0.05517578,0.7392578,-0.7709961,-0.1176758,-0.3354492,0.05419922
2314,-10.8125,25.75,-0.1875,0.03564453,0.6962891,-0.7631836,-0.1210938,-0.3369141,0.05126953
2318,7.6875,14.5625,-6.25,0.03564453,0.6616211,-0.7783203,-0.1201172,-0.3369141,0.05126953
2322,25.6875,2.1875,-10.1875,0.02832031,0.6577148,-0.7861328,-0.1210938,-0.3369141,0.05126953
2326,46.0625,-13.6875,-12.0625,0.03955078,0.6845703,-0.7900391,-0.1176758,-0.3354492,0.05419922
2330,62.1875,-31.1875,-10.6875,0.05908203,0.7548828,-0.7978516,-0.1162109,-0.3344727,0.05957031
2334,77.1875,-46.4375,-13.5625,0.07861328,0.8286133,-0.8056641,-0.1162109,-0.3344727,0.06494141
2338,92.375,-58.875,-21.0625,0.07470703,0.875,-0.8325195,-0.112793,-0.3320313,0.07324219
2342,104.3125,-70.875,-30.5625,0.1015625,0.9414063,-0.8745117,-0.1069336,-0.3291016,0.08398438
2346,117.0625,-81.25,-37.5625,0.1328125,0.9414063,-0.9326172,-0.1054688,-0.3291016,0.09082031
2350,140.5,-91.375,-44.0625,0.2026367,0.9453125,-0.9941406,-0.09863281,-0.3232422,0.105957
2354,161.75,-94.3125,-46.5,0.2915039,0.9799805,-1.040039,-0.08886719,-0.3178711,0.1206055
2358,186.375,-86,-56.6875,0.4038086,1.061523,-1.009277,-0.08398438,-0.3120117,0.1313477
2362,207.3125,-74.75,-66,0.4467773,1.143066,-0.9941406,-0.07470703,-0.3041992,0.1494141
2366,223.5,-66.1875,-74.4375,0.4736328,1.287109,-0.9594727,-0.06396484,-0.2919922,0.1669922
2370,231.1875,-66.4375,-73.4375,0.4194336,1.32959,-0.9824219,-0.05810547,-0.2817383,0.1762695
2374,238.9375,-80.9375,-64.4375,0.3613281,1.325684,-1.009277,-0.04736328,-0.2680664,0.1953125
2378,247.1875,-101.9375,-52.375,0.3691406,1.321777,-1.070801,-0.03759766,-0.2504883,0.2104492
2382,256.5625,-120.9375,-40.5625,0.4736328,1.415039,-1.109375,-0.03076172,-0.2368164,0.21875
2386,258.75,-121.25,-37.6875,0.6362305,1.489258,-1.066895,-0.01855469,-0.2182617,0.2333984
2390,250.875,-110.125,-35.8125,0.6401367,1.523926,-1.036133,-0.0078125,-0.1943359,0.2431641
2394,240.9375,-97.9375,-45.3125,0.5356445,1.438477,-1.01709,0,-0.1806641,0.2485352
2398,234.1875,-90.625,-57.9375,0.4272461,1.356934,-1.070801,0.01074219,-0.1621094,0.2583008
2403,229.9375,-90.875,-59.375,0.3535156,1.294922,-1.117188,0.01904297,-0.1396484,0.2592773
2407,218.6875,-91.5625,-59.3125,0.206543,1.092773,-1.297852,0.02587891,-0.1279297,0.262207
2411,219.375,-105.5,-57.0625,0.175293,1.034668,-1.394043,0.03417969,-0.1083984,0.2636719
2415,226.4375,-118.875,-50.625,0.206543,0.8710938,-1.375,0.04492188,-0.08837891,0.262207
2419,235.5625,-122.375,-35.25,0.3959961,1.04248,-1.255371,0.05078125,-0.07324219,0.2607422
2423,234.4375,-107.4375,-41.4375,0.3613281,0.9604492,-1.205566,0.06054688,-0.0546875,0.2592773
2427,239.5625,-93.25,-51.8125,0.3266602,0.8867188,-1.197754,0.06640625,-0.03564453,0.2539063
2431,240.5,-77,-47.4375,0.2373047,0.8945313,-1.155762,0.07226563,-0.0234375,0.2485352
2435,241.9375,-79.75,-25.875,0.1367188,0.7856445,-1.036133,0.07373047,-0.001953125,0.2460938
2439,243.1875,-82.3125,-16.75,0.2104492,0.7895508,-0.7016602,0.07714844,0.01757813,0.237793
2443,217.875,-67.0625,-9.75,0.4038086,1.022949,-0.2514648,0.07714844,0.02636719,0.2324219
2447,174.25,-37.9375,-6.3125,0.3691406,1.045898,0.05957031,0.07958984,0.04394531,0.2270508
2451,118.9375,-14.9375,-18.625,0.109375,1.030762,0.3364258,0.07861328,0.05371094,0.2241211
2455,66.3125,-6.25,-25.0625,0.09033203,0.9023438,0.3095703,0.08056641,0.05859375,0.2211914
2459,3.6875,-11.5,-21.6875,-0.1962891,0.5839844,-0.1591797,0.07861328,0.0625,0.2172852
2463,-2.125,-19.6875,-25.25,-0.1650391,0.02050781,-0.359375,0.07861328,0.0625,0.21875
2467,6,-24.6875,-13.875,-0.04101563,-0.04150391,-0.3632813,0.07958984,0.06396484,0.2202148
2471,1,-20.625,-4.25,0.08251953,0.1367188,-0.2939453,0.07958984,0.06396484,0.2172852
2475,-8.6875,0.4375,-10.1875,0.1870117,0.1333008,-0.2900391,0.08203125,0.0625,0.2211914
2479,-18.25,29.4375,-17.625,0.07470703,0.1293945,-0.4169922,0.08056641,0.06396484,0.2202148
2483,-31.5,40,-24.5,-0.2192383,0.1254883,-0.6401367,0.07617188,0.06103516,0.2202148
2487,-38.4375,20.5,-22.3125,-0.3203125,0.0009765625,-0.7475586,0.07617188,0.06103516,0.2241211
2491,-46.1875,4.5,-13.125,-0.1381836,-0.02978516,-0.7553711,0.07470703,0.05859375,0.2241211
2495,-47.4375,7.4375,-8.125,0.01660156,-0.03369141,-0.7207031,0.07470703,0.05615234,0.2270508
2499,-49.1875,22.1875,-8.4375,0.07861328,0.05126953,-0.7363281,0.07617188,0.05371094,0.2270508
2503,-53.625,35.25,-9.625,0.04736328,0.1445313,-0.7016602,0.06982422,0.04980469,0.2280273
2507,-68.3125,39.5,-9.75,0.01660156,0.269043,-0.6748047,0.06982422,0.04638672,0.2294922
2511,-85.375,41.1875,-7.0625,0.02832031,0.3310547,-0.6513672,0.06884766,0.04150391,0.2324219
2515,-99.75,43.375,-8.1875,-0.01025391,0.2885742,-0.7402344,0.06640625,0.03759766,0.2363281
2519,-103.9375,41.875,-6,0.05126953,0.3193359,-0.6977539,0.06152344,0.03027344,0.237793
2523,-118,42.375,3.9375,0.07470703,0.5097656,-0.6977539,0.06152344,0.02392578,0.2402344
2527,-129.75,39.0625,8.3125,0.1015625,0.5878906,-0.6513672,0.06054688,0.01757813,0.2446289
2532,-148.3125,42.75,17.375,0.1791992,0.7470703,-0.6708984,0.05810547,0.007324219,0.2470703
2536,-162.3125,51.25,17.5625,0.2294922,0.8867188,-0.6479492,0.05712891,-0.003417969,0.2514648
2540,-180.6875,66.125,17.9375,0.175293,1.01123,-0.7900391,0.05566406,-0.01171875,0.2524414
2544,-187.3125,73.625,9,0.140625,1.100586,-0.8056641,0.04980469,-0.02685547,0.2592773
2548,-200.75,77.5625,9.0625,0.175293,1.403809,-0.8286133,0.04638672,-0.04296875,0.262207
2552,-221,79.875,9.375,0.2216797,1.679688,-0.8017578,0.04150391,-0.05322266,0.2651367
2556,-261.75,88.5,0.5,0.3305664,1.908691,-0.809082,0.03662109,-0.07324219,0.2661133
2560,-295.4375,101.5,1.1875,0.3305664,1.780273,-0.9785156,0.02734375,-0.09716797,0.2675781
2564,-297.5,110.3125,-5.375,0.2797852,1.418945,-1.209473,0.02148438,-0.1142578,0.2675781
2568,-291.375,110.5625,-2.1875,0.1518555,1.236328,-1.348145,0.01171875,-0.1420898,0.2607422
2572,-278.9375,92.1875,5.625,0.1210938,1.084961,-1.313477,0.0009765625,-0.1669922,0.2553711
2576,-269.5625,77,20.625,0.2373047,1.077148,-1.217285,-0.0009765625,-0.1855469,0.25
2580,-260.3125,69.0625,29.625,0.3149414,1.154785,-1.166992,-0.01025391,-0.2055664,0.237793
2584,-251.4375,81,21.375,0.5048828,1.267578,-1.109375,-0.01855469,-0.2294922,0.2280273
2588,-247.0625,101.0625,18.3125,0.5200195,1.314453,-1.090332,-0.0234375,-0.2407227,0.2172852
2592,-240.3125,103.5625,17.6875,0.3574219,1.162598,-1.140137,-0.03320313,-0.2607422,0.2036133
2596,-225.8125,93.375,19.3125,0.3227539,1.13916,-1.197754,-0.04003906,-0.2768555,0.1875
2600,-213.625,81.4375,26.8125,0.3574219,1.20166,-1.209473,-0.04492188,-0.2895508,0.175293
2604,-207.8125,70.6875,32.6875,0.3378906,1.120117,-1.182617,-0.05419922,-0.3032227,0.1601563
2608,-192.4375,61.6875,29.25,0.3652344,1.04248,-1.113281,-0.06054688,-0.3144531,0.1425781
2612,-180.5625,59.5,27.75,0.4467773,1.034668,-1.05957,-0.06396484,-0.3208008,0.1328125
2616,-161.5,67.0625,21.625,0.4350586,0.8984375,-1.043945,-0.07128906,-0.3291016,0.1152344
2620,-135.625,74.3125,15.875,0.3925781,0.8129883,-0.9746094,-0.07568359,-0.3369141,0.1000977
2624,-115.9375,77.1875,16.875,0.2993164,0.8168945,-0.9130859,-0.078125,-0.3393555,0.09228516
2628,-102.0625,67.1875,20,0.1518555,0.8051758,-0.8671875,-0.08203125,-0.3442383,0.07861328
2632,-91.8125,49.8125,20.875,0.05126953,0.824707,-0.8325195,-0.08789063,-0.3466797,0.06884766
2636,-81,32.625,21.3125,-0.01806641,0.7431641,-0.7939453,-0.08789063,-0.3457031,0.06103516
2640,-67.4375,17.125,20.8125,-0.04492188,0.7041016,-0.7475586,-0.09033203,-0.3491211,0.05419922
2644,-48.3125,5.375,13.9375,-0.03710938,0.6459961,-0.7207031,-0.09228516,-0.3481445,0.04980469
2648,-27.875,-1.1875,5.9375,0.02832031,0.6694336,-0.7285156,-0.09228516,-0.3520508,0.04589844
2652,-7.1875,-5.3125,3.5,0.03955078,0.6342773,-0.7441406,-0.09228516,-0.3491211,0.04296875
2656,14.875,-11.1875,2.5625,0.05908203,0.6616211,-0.7324219,-0.09228516,-0.3505859,0.04443359
2661,33.8125,-14.125,-0.6875,0.05517578,0.6616211,-0.7709961,-0.09375,-0.3505859,0.04736328
2665,57.1875,-16.4375,-8.0625,0.03564453,0.6845703,-0.8168945,-0.09130859,-0.3505859,0.05273438
2669,81,-21.75,-12.125,0.04345703,0.7197266,-0.859375,-0.09130859,-0.3481445,0.05810547
2673,96.1875,-30.9375,-8.3125,0.03173828,0.7856445,-0.8901367,-0.09033203,-0.3457031,0.06103516
2677,114.4375,-45.375,-6.9375,0.03173828,0.8012695,-0.9208984,-0.08789063,-0.3457031,0.07324219
2681,130.625,-59.875,-5,0.09375,0.8710938,-0.9980469,-0.08398438,-0.3393555,0.08691406
2685,151.3125,-73.25,-8.4375,0.1518555,0.9682617,-1.020996,-0.08203125,-0.3344727,0.09619141
2689,166.9375,-79.25,-18.25,0.2490234,1.150879,-0.9980469,-0.078125,-0.3266602,0.1113281
2693,179.3125,-83.125,-29.0625,0.3149414,1.232422,-1.013184,-0.07128906,-0.3217773,0.1289063
2697,192.375,-87.625,-31.5,0.3691406,1.291016,-1.020996,-0.06738281,-0.3105469,0.1396484
2701,206.25,-95.4375,-24.375,0.3730469,1.333496,-1.01709,-0.05908203,-0.3032227,0.15625
2705,220.125,-99.4375,-25.25,0.4428711,1.298828,-1.01709,-0.04980469,-0.2866211,0.1738281
2709,237.6875,-94.1875,-28.375,0.5161133,1.403809,-1.063477,-0.04736328,-0.2768555,0.1860352
2713,247.5625,-84.75,-33.75,0.5395508,1.539551,-1.043945,-0.03759766,-0.2592773,0.2011719
2717,248.625,-82.375,-32.1875,0.4931641,1.566895,-1.005371,-0.03173828,-0.2392578,0.2172852
2721,245.75,-91.5625,-24.1875,0.4116211,1.52002,-1.040039,-0.0234375,-0.2280273,0.2255859
2725,250,-105.375,-16.25,0.3999023,1.442383,-1.090332,-0.01513672,-0.2070313,0.237793
2729,257.0625,-111.4375,-13.0625,0.5048828,1.442383,-1.013184,-0.005859375,-0.1870117,0.2485352
2733,253.3125,-103.375,-12.8125,0.574707,1.52002,-0.9672852,0.002441406,-0.171875,0.2514648
2737,245.9375,-93.875,-14.9375,0.4116211,1.341309,-1.01709,0.01074219,-0.1494141,0.2583008
2741,242.0625,-98.25,-18.875,0.3188477,1.32959,-1.117188,0.02001953,-0.1254883,0.262207
2745,232.6875,-107.4375,-12.6875,0.2685547,1.248047,-1.20166,0.02587891,-0.1142578,0.2607422
2749,229.9375,-106.25,-16.6875,0.1015625,0.8286133,-1.605469,0.03564453,-0.09423828,0.2636719
2753,272.6875,-100.875,-43.875,-0.08398438,0.4985352,-2.086426,0.04394531,-0.07324219,0.262207
2757,336.0625,-126.875,-57.75,-0.1533203,0.5566406,-2.16748,0.04882813,-0.05712891,0.2607422
2761,369.6875,-171,3.8125,0.2724609,1.225098,-1.686523,0.05957031,-0.02832031,0.2539063
2765,354.4375,-184.75,55.0625,0.6948242,1.59375,-0.9130859,0.06884766,-0.001953125,0.2446289
2769,315.8125,-128.8125,44,1.027832,1.772461,-0.112793,0.07861328,0.01269531,0.2363281
2773,249.875,-16.4375,-1.75,0.7412109,1.877441,0.3251953,0.08447266,0.03515625,0.2255859
2777,167.9375,26.125,-40.5,-0.1499023,1.493164,0.3945313,0.07958984,0.04980469,0.2211914
2781,87.75,-18.1875,-36.1875,-0.5253906,1.17041,0.3212891,0.07714844,0.05859375,0.2202148
2785,14.9375,-73.625,-17.9375,-0.3046875,0.8598633,0.2211914,0.07617188,0.0625,0.2211914
2790,-23.75,-85.8125,-12.4375,0.01269531,0.3310547,-0.08203125,0.08056641,0.0625,0.2172852
2794,-16.3125,-60.375,-10.25,0.2915039,0.0009765625,-0.1743164,0.08544922,0.06005859,0.2172852
2798,-5.25,-21,-2.375,0.3339844,-0.09570313,-0.2670898,0.08789063,0.05859375,0.2158203
2802,4.5,6.375,6.125,0.2646484,0.03613281,-0.2167969,0.08789063,0.05859375,0.2158203
2806,-2.75,25.9375,12,0.190918,0.2070313,-0.1362305,0.08789063,0.06005859,0.21875
2810,-21.9375,38.4375,7.25,-0.01025391,0.3310547,-0.1977539,0.08789063,0.05615234,0.2172852
2814,-46.5625,32.625,-1.125,-0.2041016,0.2807617,-0.3515625,0.08447266,0.05615234,0.2202148
2818,-61.75,20.3125,-8.625,-0.1767578,0.1098633,-0.4936523,0.08300781,0.05517578,0.2202148
2822,-69,16.125,-4.625,0.02050781,0.1098633,-0.4863281,0.08300781,0.04882813,0.2211914
2826,-78.9375,26.875,8.125,0.2451172,0.1679688,-0.4130859,0.08300781,0.04394531,0.2241211
2830,-89.75,47.75,15.9375,0.2836914,0.284668,-0.4399414,0.08300781,0.04248047,0.2270508
2834,-106.625,70.125,10.1875,0.175293,0.3662109,-0.6479492,0.08056641,0.03515625,0.2280273
2838,-114.4375,76.0625,-0.625,-0.05273438,0.2299805,-0.8515625,0.07470703,0.02734375,0.2324219
2842,-118.6875,66.375,1.9375,-0.06054688,0.3388672,-0.8364258,0.07226563,0.02148438,0.2363281
2846,-128.125,50,16.1875,0.04736328,0.4868164,-0.6708984,0.06982422,0.01513672,0.2392578
2850,-148.3125,46.5,33.4375,0.2797852,0.7705078,-0.5131836,0.06884766,0.004882813,0.2446289
2854,-177.375,59.8125,41.3125,0.2724609,0.9179688,-0.6860352,0.06787109,-0.003417969,0.2460938
2858,-194.375,64.5,32.25,-0.02587891,0.7392578,-0.9555664,0.06396484,-0.01953125,0.2514648
2862,-195.0625,52.3125,32.625,-0.05664063,0.7705078,-1.05957,0.06054688,-0.03320313,0.2539063
2866,-195.5625,44.8125,32.6875,0.1557617,0.8632813,-0.9287109,0.06152344,-0.04443359,0.2568359
2870,-197.875,55.875,44.75,0.3691406,0.9838867,-0.9018555,0.05712891,-0.06054688,0.2607422
2874,-205.0625,74.25,50.375,0.3149414,1.077148,-0.9672852,0.05322266,-0.07714844,0.2607422
2878,-217.625,79.8125,54.375,0.1831055,1.124023,-1.155762,0.04980469,-0.08935547,0.2607422
2882,-214.3125,70.25,53.6875,-0.002441406,0.9799805,-1.255371,0.04052734,-0.109375,0.262207
2886,-203,57.9375,51.0625,0.125,1.154785,-1.20166,0.03417969,-0.1279297,0.2607422
2890,-200.5,58.5,48.3125,0.3110352,1.310547,-1.070801,0.03173828,-0.140625,0.2583008
2894,-207,64.9375,47.875,0.4697266,1.508301,-0.9477539,0.02734375,-0.1591797,0.2568359
2898,-221.875,75.6875,54.6875,0.4970703,1.523926,-0.9594727,0.01757813,-0.1782227,0.25
2902,-221.1875,84.5,62.875,0.4853516,1.446289,-0.9633789,0.01074219,-0.1894531,0.2470703
2906,-217.875,95.6875,64.125,0.4467773,1.395996,-1.001465,0,-0.2094727,0.237793
2910,-211.875,100.4375,61.125,0.3457031,1.364746,-1.047852,-0.01025391,-0.2255859,0.2280273
2914,-206.25,97.5,55.25,0.3535156,1.384277,-1.001465,-0.02001953,-0.2368164,0.21875
2919,-206.4375,90.1875,52.3125,0.3227539,1.376465,-0.9902344,-0.02929688,-0.2558594,0.2089844
2923,-207.875,81.9375,57.0625,0.3769531,1.403809,-0.9360352,-0.03759766,-0.2695313,0.1953125
2927,-209,78,63.6875,0.3959961,1.333496,-0.9248047,-0.04492188,-0.2783203,0.1845703
2931,-197.625,75.8125,66.625,0.4038086,1.213379,-0.9130859,-0.05566406,-0.2905273,0.1699219
2935,-189.8125,79.3125,69.75,0.4233398,1.236328,-0.8979492,-0.06640625,-0.3032227,0.1508789
2939,-183.6875,82.125,67.75,0.3808594,1.217285,-0.8745117,-0.07226563,-0.3105469,0.1425781
2943,-172.1875,82.375,60.4375,0.3071289,1.088867,-0.8862305,-0.08300781,-0.3168945,0.1259766
2947,-155.25,78.5,55.0625,0.2875977,1.04248,-0.84375,-0.09228516,-0.3242188,0.1098633
2951,-143.75,74.25,52.25,0.2451172,1.015137,-0.8325195,-0.09716797,-0.3266602,0.09912109
2955,-130.4375,66.9375,48.6875,0.1870117,0.8984375,-0.7978516,-0.1030273,-0.3330078,0.08544922
2959,-114.5625,59,44.8125,0.1518555,0.8481445,-0.7822266,-0.112793,-0.3330078,0.07324219
2963,-97.6875,52.1875,40.375,0.1054688,0.7548828,-0.8056641,-0.1152344,-0.3354492,0.06347656
2967,-76.3125,46,33,0.03173828,0.6694336,-0.8056641,-0.1201172,-0.3369141,0.05419922
2971,-54.9375,38.75,24.3125,-0.03710938,0.6069336,-0.8632813,-0.1259766,-0.3369141,0.04589844
2975,-30.125,29.125,16,-0.1342773,0.4907227,-0.9399414,-0.1269531,-0.3378906,0.04296875
2979,-3.125,14.4375,7.75,-0.1962891,0.5019531,-1.01709,-0.1269531,-0.3369141,0.0390625
2983,20.0625,-5.25,-2.5625,-0.2348633,0.5175781,-1.051758,-0.128418,-0.3369141,0.0390625
2987,41.125,-27.75,-16.1875,-0.1884766,0.5449219,-1.05957,-0.128418,-0.3369141,0.04296875
2991,59.75,-42.25,-32.375,-0.01806641,0.6655273,-0.9746094,-0.1245117,-0.3354492,0.04882813
2995,74.5625,-47.9375,-46.375,0.07861328,0.6962891,-0.9594727,-0.1210938,-0.3393555,0.05419922
2999,96.875,-53.75,-57.375,0.109375,0.6616211,-0.9902344,-0.1162109,-0.3369141,0.06347656
3003,120.75,-60.6875,-61.75,0.1635742,0.7197266,-1.024902,-0.1079102,-0.3344727,0.07568359
3007,145.5,-69.3125,-62.1875,0.2104492,0.793457,-1.020996,-0.1020508,-0.3305664,0.08789063
3011,166.4375,-78.3125,-59.625,0.2836914,0.9414063,-0.9824219,-0.09716797,-0.3291016,0.09765625
3015,185.1875,-89.8125,-54.8125,0.3071289,1.034668,-0.9672852,-0.08642578,-0.3242188,0.1123047
3019,201.3125,-103.4375,-45.625,0.4194336,1.20166,-0.9438477,-0.07568359,-0.3154297,0.1328125
3023,207,-106.375,-43.25,0.4775391,1.353027,-0.9169922,-0.07128906,-0.3081055,0.1464844
3027,209.3125,-102.25,-56.0625,0.4892578,1.426758,-0.9208984,-0.06152344,-0.2983398,0.1616211
3031,215.1875,-95.375,-70.5625,0.4736328,1.407715,-0.9824219,-0.04980469,-0.2832031,0.1777344
3035,223.25,-93.3125,-74.125,0.4467773,1.411133,-1.028809,-0.04248047,-0.2729492,0.1899414
3039,228.25,-99,-58.125,0.4775391,1.442383,-1.043945,-0.03076172,-0.2568359,0.2050781
3043,231.6875,-106.5625,-40,0.4619141,1.52002,-1.043945,-0.01855469,-0.2407227,0.2172852
3048,226.125,-114.3125,-35.9375,0.4467773,1.648438,-1.009277,-0.01513672,-0.2294922,0.2280273
3052,219.5625,-116.1875,-48.125,0.4311523,1.59375,-1.024902,-0.0009765625,-0.2080078,0.2363281
3056,219.4375,-107,-59.9375,0.4658203,1.46582,-1.070801,0.01074219,-0.1918945,0.2460938
3060,219.9375,-95.875,-64.6875,0.3769531,1.310547,-1.170898,0.02001953,-0.1782227,0.25
3064,222.875,-98.6875,-58.25,0.2568359,1.189941,-1.270996,0.02832031,-0.1591797,0.2568359
3068,223.875,-112.125,-40.1875,0.140625,1.116211,-1.420898,0.04150391,-0.140625,0.2583008
3072,229.8125,-124.75,-34.9375,-0.01025391,0.987793,-1.670898,0.04638672,-0.1269531,0.2592773
3076,246.8125,-138.6875,-51.875,-0.04492188,0.9140625,-1.83252,0.05810547,-0.1044922,0.2592773
3080,270.8125,-149.8125,-65.125,0.1870117,1.092773,-1.694336,0.06884766,-0.08300781,0.2583008
3084,275.375,-148.625,-46.5,0.4038086,1.345215,-1.482422,0.07617188,-0.06933594,0.2524414
3088,269.1875,-144.0625,-35.5625,0.3886719,1.271484,-1.263184,0.08691406,-0.04443359,0.25
3092,260.6875,-139.625,-36.5625,0.5708008,1.438477,-0.894043,0.09521484,-0.0234375,0.2402344
3096,223.5,-114.5625,-33.3125,0.644043,1.450195,-0.5898438,0.1010742,-0.01318359,0.2363281
3100,185.6875,-89.9375,-37.9375,0.3769531,1.077148,-0.5283203,0.1044922,0.002441406,0.2294922
3104,164.75,-79.3125,-45.875,0.2255859,0.8481445,-0.378418,0.1069336,0.01757813,0.2226563
3108,128.9375,-77.375,-42.375,0.1518555,0.6811523,-0.2744141,0.1103516,0.02490234,0.2211914
3112,104.5,-82.75,-21.3125,0.1948242,0.4672852,-0.1166992,0.1118164,0.03369141,0.2143555
3116,86.375,-74,-3.1875,0.2724609,0.3818359,0.01367188,0.1152344,0.03857422,0.2104492
3120,68.375,-50.75,2.6875,0.2915039,0.3974609,0.05175781,0.1176758,0.04248047,0.2089844
3124,49.0625,-25.6875,2.4375,0.1635742,0.3662109,0.02490234,0.1186523,0.04882813,0.206543
3128,31.5625,-10.75,-3.875,-0.02587891,0.315918,-0.04736328,0.1201172,0.04980469,0.2050781
3132,10.75,-7.1875,-5.375,-0.09521484,0.315918,-0.06298828,0.1210938,0.05273438,0.206543
3136,-5.9375,-8.875,-1.25,-0.06835938,0.2070313,-0.01318359,0.1201172,0.05126953,0.206543
3140,-20.625,-3.0625,4.4375,0.05126953,0.2456055,-0.005371094,0.1210938,0.05273438,0.2050781
3144,-37.25,12.875,10.1875,0.1445313,0.3310547,-0.02441406,0.1225586,0.04980469,0.2050781
3148,-53.4375,31.625,10.8125,0.08642578,0.2807617,-0.1591797,0.1210938,0.04736328,0.206543
3152,-62.5625,46.5,9,-0.05664063,0.2148438,-0.3129883,0.1186523,0.04248047,0.2089844
3156,-66.0625,50.75,6.5625,-0.1303711,0.2148438,-0.394043,0.1166992,0.03857422,0.2133789
3160,-74.5625,49.0625,11.625,-0.09912109,0.3193359,-0.4248047,0.1176758,0.03369141,0.2119141
3164,-95.25,50.0625,16.3125,-0.06835938,0.4165039,-0.5170898,0.1152344,0.03125,0.2172852
3168,-112.5625,51.625,19.3125,-0.06054688,0.3935547,-0.6479492,0.112793,0.02392578,0.2202148
3172,-124.9375,52.6875,22.0625,-0.06054688,0.4013672,-0.7514648,0.112793,0.01513672,0.2241211
3177,-135.5,50.625,30.625,0.0009765625,0.4868164,-0.8017578,0.1103516,0.006347656,0.2255859
3181,-151.25,49,46.125,0.02050781,0.5761719,-0.8979492,0.1103516,0,0.2294922
3185,-163.25,53.625,45.5,-0.1650391,0.3427734,-1.240234,0.109375,-0.01464844,0.2324219
3189,-144.125,52.875,29.75,-0.1572266,0.315918,-1.293945,0.105957,-0.02441406,0.2348633
3193,-139.375,53,34.5625,0.03564453,0.5214844,-1.13623,0.105957,-0.03173828,0.237793
3197,-142.5625,50.4375,53.3125,0.206543,0.7041016,-0.9208984,0.1035156,-0.04296875,0.2402344
3201,-156.9375,57.125,82.5,0.4389648,1.030762,-0.7514648,0.1010742,-0.05712891,0.2446289
3205,-178.4375,86.125,94,0.4155273,1.12793,-0.84375,0.09960938,-0.06689453,0.2460938
3209,-188.125,117.5,83.1875,0.1987305,1.022949,-1.105469,0.09130859,-0.08447266,0.2485352
3213,-178.9375,125.75,53.3125,-0.09912109,0.809082,-1.248047,0.08300781,-0.1005859,0.2524414
3217,-173.625,112.8125,49.4375,0.01269531,1.019043,-1.140137,0.07470703,-0.109375,0.2524414
3221,-184.4375,94.9375,61.3125,0.140625,1.197754,-0.9130859,0.06640625,-0.1269531,0.2539063
3225,-194.5,83.3125,74.3125,0.3613281,1.302734,-0.8554688,0.05810547,-0.1430664,0.2524414
3229,-203.6875,90.875,82.9375,0.4853516,1.302734,-0.8554688,0.05078125,-0.1557617,0.2514648
3233,-199.125,111,70.6875,0.4389648,1.20166,-0.9130859,0.04150391,-0.1757813,0.2460938
3237,-188.75,126.125,61.1875,0.4389648,1.244141,-0.9863281,0.02832031,-0.1933594,0.2431641
3241,-180.25,131.6875,61.375,0.4272461,1.236328,-0.9941406,0.01660156,-0.2016602,0.2392578
3245,-178.4375,127.5625,73.5,0.4272461,1.310547,-0.9555664,0.006835938,-0.2182617,0.230957
3249,-184.75,120.8125,91.6875,0.4931641,1.399902,-0.9018555,-0.009277344,-0.2319336,0.2270508
3253,-188.3125,117.0625,98.5,0.5009766,1.349121,-0.9130859,-0.01757813,-0.2416992,0.21875
3257,-185.625,118.3125,94.75,0.543457,1.345215,-0.9287109,-0.03076172,-0.2558594,0.206543
3261,-179.6875,121.9375,93.1875,0.543457,1.291016,-0.9287109,-0.04736328,-0.2680664,0.1943359
3265,-171.3125,125.375,89.0625,0.5126953,1.248047,-0.9438477,-0.05664063,-0.2768555,0.1845703
3269,-164.5625,125.5,86.5,0.4775391,1.221191,-0.9248047,-0.06982422,-0.2841797,0.1699219
3273,-159.375,121.75,85.3125,0.4272461,1.182129,-0.894043,-0.08398438,-0.2954102,0.15625
3277,-151.875,111.0625,81.1875,0.3378906,1.162598,-0.9248047,-0.09375,-0.2983398,0.1450195
3281,-145.3125,99.625,76.125,0.3071289,1.09668,-0.9287109,-0.1054688,-0.3041992,0.1303711
3285,-136.625,90.6875,75.1875,0.2954102,1.049805,-0.9287109,-0.1186523,-0.3105469,0.1181641
3289,-126,81.1875,69.75,0.2216797,0.921875,-0.9287109,-0.1245117,-0.3095703,0.105957
3293,-106.9375,72.6875,65.8125,0.2026367,0.7548828,-0.9169922,-0.1342773,-0.3129883,0.09472656
3297,-83.8125,67.5,61.375,0.1674805,0.6811523,-0.9248047,-0.1411133,-0.3144531,0.08398438
3301,-59.1875,58.625,52.6875,0.07470703,0.6186523,-0.9477539,-0.1484375,-0.3154297,0.07568359
3306,-35.1875,47.8125,37.8125,0.03564453,0.6264648,-0.9326172,-0.1533203,-0.3129883,0.07177734
3310,-17.5625,37.8125,27.75,-0.002441406,0.6303711,-0.9477539,-0.1567383,-0.3129883,0.06347656
3314,0.3125,24.5625,15.5625,-0.09521484,0.5449219,-0.9902344,-0.1591797,-0.3120117,0.06347656
3318,20.8125,7,4.25,-0.1225586,0.5566406,-1.020996,-0.1616211,-0.3120117,0.06347656
3322,38.0625,-13.25,-4.5,-0.1381836,0.5527344,-1.055664,-0.1601563,-0.3120117,0.06347656
3326,58.0625,-36.625,-10.75,-0.09912109,0.5722656,-1.066895,-0.1616211,-0.3105469,0.0703125
3330,76.25,-56.5625,-21.75,-0.04882813,0.6108398,-1.109375,-0.1591797,-0.3095703,0.07714844
3334,91.375,-72.9375,-35.0625,-0.01416016,0.6962891,-1.151855,-0.1542969,-0.3081055,0.08544922
3338,104.375,-91,-52.5,-0.01416016,0.7236328,-1.228516,-0.1459961,-0.3041992,0.09228516
3342,123.625,-109.25,-67.3125,0.08642578,0.793457,-1.290039,-0.1391602,-0.3041992,0.1069336
3346,146.0625,-121.5625,-78.8125,0.2026367,0.8598633,-1.328613,-0.1269531,-0.3017578,0.1235352
3350,169.6875,-130.875,-83.75,0.3110352,0.9995117,-1.336426,-0.1201172,-0.296875,0.1313477
3354,183.0625,-136.875,-89.9375,0.4580078,1.251953,-1.270996,-0.1069336,-0.2905273,0.1508789
3358,189.0625,-141.375,-100.1875,0.527832,1.356934,-1.240234,-0.08886719,-0.2817383,0.1699219
3362,195.9375,-142.6875,-107.9375,0.644043,1.418945,-1.20166,-0.07958984,-0.2753906,0.1777344
3366,201.8125,-146.9375,-100.6875,0.6982422,1.438477,-1.205566,-0.06298828,-0.2631836,0.1953125
3370,210.375,-151.9375,-85.5,0.7568359,1.446289,-1.155762,-0.04492188,-0.2495117,0.2104492
3374,218.9375,-153,-70.875,0.7680664,1.411133,-1.155762,-0.03320313,-0.2407227,0.2211914
3378,236.5625,-154.875,-63.375,0.7529297,1.368652,-1.151855,-0.01855469,-0.2216797,0.230957
3382,249.25,-151.1875,-52.125,0.7602539,1.372559,-1.170898,-0.001953125,-0.2006836,0.2431641
3386,267.25,-145.625,-46.25,0.6328125,1.279297,-1.248047,0.006835938,-0.1870117,0.25
3390,272.4375,-135.625,-56.1875,0.6132813,1.461914,-1.217285,0.02148438,-0.1621094,0.2553711
3394,257.25,-128.75,-63.4375,0.4077148,1.395996,-1.251953,0.03320313,-0.1420898,0.2592773
3398,253.875,-146.9375,-65.25,0.3266602,1.314453,-1.224609,0.04248047,-0.1254883,0.2607422
3402,231,-158.6875,-48.5625,0.5317383,1.469727,-1.066895,0.05712891,-0.1005859,0.2592773
3406,199.875,-162.3125,-37.8125,0.4428711,1.283203,-1.013184,0.06884766,-0.08300781,0.2568359
3410,184.5625,-161.875,-33.75,0.4077148,1.084961,-1.043945,0.07861328,-0.07324219,0.2539063
3414,177.375,-154.9375,-52.25,0.2646484,0.9414063,-1.193848,0.09130859,-0.05957031,0.2485352
3418,187.0625,-147.5,-53.0625,0.2568359,0.6655273,-1.259277,0.09960938,-0.04052734,0.2446289
3422,199.1875,-132.75,-47.8125,0.2216797,0.5292969,-1.286133,0.105957,-0.03076172,0.237793
3426,217,-130,-43.6875,0.1210938,0.4946289,-1.251953,0.112793,-0.01464844,0.230957
3430,216.3125,-122.6875,-32,0.3886719,0.8051758,-0.9785156,0.1186523,0,0.2241211
3435,192.5625,-101.75,-33.125,0.3339844,0.8442383,-0.7592773,0.1225586,0.01025391,0.21875
3439,168.375,-84.5,-39,0.2954102,0.7817383,-0.574707,0.1259766,0.02392578,0.2119141
3443,140.625,-66.5,-39.25,0.1484375,0.6538086,-0.5053711,0.1269531,0.03759766,0.2050781
3447,118.375,-60.875,-39.5,-0.05273438,0.5488281,-0.4785156,0.128418,0.04492188,0.2036133
3451,100.375,-62.375,-44.8125,-0.07617188,0.3740234,-0.4169922,0.1308594,0.05126953,0.1982422
3455,86.125,-60.875,-29.375,0.1367188,0.3935547,-0.1899414,0.1318359,0.06103516,0.1928711
3459,57.5,-43.875,-14.5625,0.2451172,0.3896484,-0.02832031,0.1333008,0.06396484,0.1899414
3463,27.5625,-19.25,-12.5625,0.190918,0.4516602,-0.05908203,0.1318359,0.06884766,0.1875
3467,7.4375,-3.5625,-21.125,-0.006347656,0.253418,-0.1552734,0.1318359,0.06884766,0.1889648
3471,-8.4375,1.375,-18.875,-0.002441406,0.2573242,-0.1630859,0.1318359,0.06982422,0.1875
3475,-28.1875,6.75,-14.9375,0.01269531,0.2456055,-0.1708984,0.1318359,0.06982422,0.1889648
3479,-48.75,10.9375,-9.375,-0.02587891,0.1523438,-0.2705078,0.1308594,0.06884766,0.1899414
3483,-60.9375,16.125,-3.4375,-0.04882813,0.04736328,-0.3632813,0.128418,0.06640625,0.1928711
3487,-65.9375,22.9375,5.6875,-0.02587891,0.02832031,-0.4208984,0.128418,0.06396484,0.1943359
3491,-68.125,29.125,8.6875,-0.06835938,0.05908203,-0.4594727,0.1269531,0.05615234,0.1982422
3495,-71.5625,38.8125,5.3125,0.05908203,0.1914063,-0.4130859,0.128418,0.05371094,0.1982422
3499,-86.75,54.4375,4.375,0.1445313,0.3193359,-0.3745117,0.1259766,0.04882813,0.2011719
3503,-107,68.25,7.25,0.1713867,0.3779297,-0.4248047,0.125,0.04248047,0.2050781
3507,-127.5625,78.75,16.625,0.175293,0.5175781,-0.5053711,0.1225586,0.03857422,0.2089844
3511,-147.6875,82.5,24.5,0.08642578,0.5136719,-0.6206055,0.1201172,0.02734375,0.2143555
3515,-164,83.8125,28.8125,0.02050781,0.5644531,-0.7783203,0.1152344,0.01757813,0.2211914
3519,-176.5625,75.875,33,0.0009765625,0.5991211,-0.8056641,0.112793,0.008789063,0.2241211
3523,-188.8125,70.1875,43.5,0.08642578,0.6811523,-0.8632813,0.1118164,-0.004394531,0.2294922
3527,-193.125,70.75,50.625,0.2255859,0.7587891,-0.809082,0.109375,-0.01806641,0.2348633
3531,-198.5625,87.1875,56.1875,0.4350586,0.987793,-0.7861328,0.105957,-0.02832031,0.237793
3535,-212.25,114.75,51.3125,0.5087891,1.131836,-0.824707,0.1010742,-0.04589844,0.2402344
3539,-218.75,142.875,36.5625,0.3730469,1.045898,-0.9902344,0.09521484,-0.06298828,0.2485352
3543,-215.0625,161.25,21.375,0.1054688,1.003418,-1.255371,0.08691406,-0.07958984,0.2524414
3547,-205.25,157.8125,0.5,-0.1264648,0.8828125,-1.38623,0.07373047,-0.09326172,0.2553711
3551,-202.25,135.125,3.25,-0.1264648,0.9799805,-1.416992,0.06298828,-0.1108398,0.2583008
3555,-205.1875,105.125,17.6875,0.05908203,1.053711,-1.328613,0.05566406,-0.1230469,0.2583008
3559,-206.3125,88.5625,36.8125,0.3535156,1.158691,-1.20166,0.04736328,-0.1396484,0.2583008
3564,-201.3125,95.875,50.6875,0.5859375,1.267578,-1.147949,0.03662109,-0.1567383,0.2539063
3568,-196.9375,120,50.375,0.5668945,1.310547,-1.19043,0.03076172,-0.1704102,0.25
3572,-189.625,136.9375,40.6875,0.4658203,1.298828,-1.248047,0.01904297,-0.1870117,0.2485352
3576,-181.6875,142.6875,33.4375,0.3769531,1.267578,-1.259277,0.004394531,-0.203125,0.2392578
3580,-176.3125,138.875,31.8125,0.3149414,1.275391,-1.228516,-0.004394531,-0.2143555,0.2363281
3584,-177.5625,126.875,38.0625,0.3032227,1.325684,-1.170898,-0.01611328,-0.2294922,0.2280273
3588,-185.625,116.9375,43.5,0.3496094,1.403809,-1.105469,-0.02832031,-0.2431641,0.2158203
3592,-192.3125,111.75,45.75,0.3457031,1.275391,-1.08252,-0.03662109,-0.2519531,0.2104492
3596,-185.125,109.125,43.3125,0.3378906,1.13916,-1.086426,-0.04736328,-0.2670898,0.1967773
3600,-171.875,105.5625,39.3125,0.3227539,1.120117,-1.063477,-0.05810547,-0.2783203,0.1831055
3604,-167.6875,99.4375,40.3125,0.3188477,1.124023,-1.040039,-0.06396484,-0.2856445,0.1723633
3608,-164.5625,87.4375,44.5625,0.2568359,1.019043,-1.01709,-0.07324219,-0.296875,0.1601563
3612,-155.375,75.9375,49.3125,0.2490234,0.9257813,-1.001465,-0.08203125,-0.3056641,0.1450195
3616,-143.125,69.0625,49.875,0.2568359,0.8984375,-0.9477539,-0.08789063,-0.3095703,0.1357422
3620,-124.4375,64.6875,40.5625,0.2216797,0.824707,-0.9169922,-0.09472656,-0.3144531,0.1235352
3624,-106.5,63.3125,33.25,0.2216797,0.7705078,-0.8671875,-0.1030273,-0.3193359,0.1098633
3628,-89,62.3125,26.625,0.1831055,0.6923828,-0.840332,-0.1054688,-0.3232422,0.1044922
3632,-69.9375,61.375,18.6875,0.1445313,0.6538086,-0.8208008,-0.109375,-0.3256836,0.09326172
3636,-53.125,58.375,12.1875,0.07080078,0.6381836,-0.824707,-0.1137695,-0.328125,0.08544922
3640,-34.0625,49.4375,2.75,0.01269531,0.5722656,-0.824707,-0.1152344,-0.3291016,0.08398438
3644,-15.8125,37.9375,-3.875,0.004882813,0.5761719,-0.8168945,-0.1176758,-0.3291016,0.07861328
3648,-1,23.1875,-9.1875,-0.03320313,0.5761719,-0.8129883,-0.1186523,-0.328125,0.07568359
3652,12.8125,5.6875,-10.4375,-0.03710938,0.6069336,-0.8364258,-0.1176758,-0.3305664,0.07714844
3656,21.9375,-12.9375,-8.1875,-0.04882813,0.6225586,-0.8862305,-0.1186523,-0.3305664,0.07714844
3660,39.5,-32.5625,-9.875,-0.07226563,0.5722656,-0.9555664,-0.1162109,-0.328125,0.08007813
3664,63.6875,-48.5,-13.625,-0.02978516,0.6186523,-1.005371,-0.1152344,-0.3266602,0.08544922
3668,86.9375,-59.0625,-21.75,0.02050781,0.6811523,-1.055664,-0.1103516,-0.3256836,0.09228516
3672,108.3125,-66,-30.875,0.06298828,0.7626953,-1.105469,-0.1054688,-0.3232422,0.1044922
3676,127.8125,-73.4375,-36.5,0.09033203,0.8129883,-1.166992,-0.1010742,-0.3178711,0.1098633
3680,148.8125,-84,-40.625,0.08251953,0.8364258,-1.274902,-0.09472656,-0.3144531,0.125
3684,175,-101.375,-44.3125,0.109375,0.9296875,-1.390137,-0.08642578,-0.3056641,0.1396484
3688,195.9375,-120.4375,-40.4375,0.1674805,1.01123,-1.447754,-0.07958984,-0.3017578,0.1518555
3693,219,-136.375,-44.3125,0.2797852,1.124023,-1.459473,-0.06982422,-0.2895508,0.1708984
3697,236.0625,-138.4375,-54.5,0.4580078,1.291016,-1.432617,-0.05664063,-0.2744141,0.1860352
3701,246.8125,-129.5,-64.4375,0.543457,1.407715,-1.344238,-0.04589844,-0.2631836,0.199707
3705,251,-123.1875,-65.375,0.4931641,1.46582,-1.355469,-0.03173828,-0.2431641,0.2172852
3709,256.1875,-128.5625,-64.5,0.4736328,1.49707,-1.336426,-0.02001953,-0.2231445,0.230957
3713,257.6875,-137.1875,-53.5625,0.5048828,1.547363,-1.320801,-0.01171875,-0.2094727,0.2392578
3717,259.125,-142.6875,-50.4375,0.5473633,1.52002,-1.293945,0.002441406,-0.1879883,0.25
3721,259.25,-137.6875,-46.5,0.578125,1.523926,-1.282715,0.01757813,-0.1655273,0.2553711
3725,255.375,-133.375,-53.625,0.5200195,1.458008,-1.26709,0.02734375,-0.1479492,0.2583008
3729,251.25,-133.9375,-50.125,0.4892578,1.426758,-1.286133,0.0390625,-0.1230469,0.262207
3733,247,-136.4375,-45.0625,0.4931641,1.372559,-1.221191,0.05224609,-0.1044922,0.262207
3737,236.4375,-134.3125,-37.625,0.5048828,1.314453,-1.174805,0.06054688,-0.09082031,0.2592773
3741,229.5,-119.625,-36.25,0.4350586,1.069336,-1.174805,0.07128906,-0.07080078,0.2592773
3745,231.9375,-101.875,-42.875,0.2954102,0.956543,-1.290039,0.07958984,-0.05175781,0.2553711
3749,229.4375,-88.875,-52.5625,-0.01416016,0.7548828,-1.555664,0.08203125,-0.03955078,0.2514648
3753,239.6875,-91.75,-68.5625,-0.296875,0.5913086,-1.871094,0.08789063,-0.01806641,0.2446289
3757,267.4375,-115.75,-93,-0.4365234,0.4204102,-2.067383,0.09277344,0.002441406,0.2363281
3761,315.5,-160.625,-54.375,0.03564453,0.7973633,-1.805664,0.09765625,0.01611328,0.230957
3765,320.5625,-172.5625,5.0625,0.6171875,0.9023438,-1.132324,0.1044922,0.03759766,0.21875
3769,325.1875,-119,39.875,1.132324,1.015137,-0.4785156,0.1118164,0.05859375,0.2050781
3773,310.1875,-0.8125,4.3125,1.113281,1.06543,0.07519531,0.1142578,0.07275391,0.1982422
3777,266.875,88.875,-34.1875,0.2724609,1.240234,0.09033203,0.109375,0.09130859,0.1889648
3781,190.3125,79.6875,-51.6875,-0.6186523,1.073242,-0.09375,0.1020508,0.1098633,0.1831055
3785,113.375,-12.0625,-19.125,-0.9013672,0.840332,-0.07080078,0.09375,0.1186523,0.1791992
3789,37.9375,-103.375,38.8125,-0.4326172,0.7392578,0.08251953,0.09619141,0.125,0.175293
3793,-25.75,-124.0625,59.0625,0.2373047,0.5136719,0.1479492,0.105957,0.1210938,0.1708984
3797,-48.5,-71.25,37.875,0.559082,0.171875,0.02099609,0.109375,0.1186523,0.1699219
3801,-45,-6.75,3.6875,0.3149414,-0.1538086,-0.3168945,0.1152344,0.1137695,0.1708984
3805,-15.125,22.875,-11.8125,0.03564453,-0.3364258,-0.394043,0.1142578,0.1123047,0.1708984
3809,0.75,27.875,-5.25,-0.006347656,-0.1577148,-0.2861328,0.1142578,0.1123047,0.1738281
3813,-9.375,30.75,5.5,0.05517578,0.04736328,-0.1821289,0.1118164,0.1123047,0.175293
3817,-32.4375,39.25,9.1875,0.06298828,0.1679688,-0.1860352,0.109375,0.1113281,0.175293
3822,-58.625,47.8125,8.5625,0.008789063,0.2612305,-0.2363281,0.1079102,0.1113281,0.1791992
3826,-83.6875,49.5,7.1875,-0.07617188,0.2495117,-0.3129883,0.1079102,0.1049805,0.1831055
3830,-106.5,46.75,-1.25,-0.08398438,0.2265625,-0.4208984,0.105957,0.09765625,0.1860352
3834,-120.125,50.0625,-9.1875,0.02832031,0.1953125,-0.4555664,0.1044922,0.09521484,0.1914063
3838,-132.625,63.3125,-11.1875,0.175293,0.2768555,-0.4594727,0.1010742,0.08740234,0.1943359
3842,-143.625,78.3125,-1.9375,0.2993164,0.3935547,-0.4438477,0.09960938,0.07861328,0.2050781
3846,-162.5,96.25,7.9375,0.3149414,0.6264648,-0.5209961,0.09765625,0.07373047,0.206543
3850,-201.6875,105,12.5625,0.07470703,0.8051758,-0.7978516,0.09277344,0.0625,0.2143555
3854,-237.875,77.625,10.1875,-0.3203125,0.5605469,-1.08252,0.09033203,0.04638672,0.2226563
3858,-239.25,31,28.75,-0.2001953,0.5839844,-1.08252,0.08789063,0.03369141,0.2255859
3862,-235.25,15.6875,46.5,0.2993164,0.7739258,-0.8671875,0.09033203,0.01611328,0.2333984
3866,-250.6875,44,74.4375,0.6054688,1.158691,-0.9018555,0.09130859,-0.0004882813,0.2402344
3870,-302.5625,68.9375,86.6875,0.140625,1.049805,-1.313477,0.09277344,-0.01708984,0.2431641
3874,-302.6875,53.9375,90.5,-0.1381836,0.6811523,-1.543945,0.08886719,-0.04443359,0.2485352
3878,-271.375,50.625,91.375,0.05908203,0.6845703,-1.532715,0.08691406,-0.06689453,0.2514648
3882,-228.1875,67.3125,89.75,0.3574219,0.8710938,-1.328613,0.08447266,-0.08447266,0.2539063
3886,-210.875,96.875,96,0.6362305,1.255859,-1.125,0.07617188,-0.1030273,0.2539063
3890,-213.8125,120.25,100.6875,0.7568359,1.55127,-0.9785156,0.06787109,-0.1269531,0.2539063
3894,-232.875,142.625,105.0625,0.6870117,1.675781,-1.113281,0.06054688,-0.1396484,0.2539063
3898,-239.625,152.5,105.0625,0.559082,1.609375,-1.197754,0.04394531,-0.1606445,0.2524414
3902,-236.5625,156.625,94.125,0.5087891,1.586426,-1.240234,0.02734375,-0.1845703,0.2485352
3906,-230.5,160.375,75.8125,0.543457,1.574707,-1.228516,0.01757813,-0.1943359,0.2446289
3910,-231.0625,163.625,65.3125,0.6289063,1.640625,-1.209473,-0.0009765625,-0.2167969,0.2363281
3914,-240.5,169,71.1875,0.6635742,1.660156,-1.197754,-0.01611328,-0.2358398,0.2211914
3918,-247.4375,165.4375,78,0.574707,1.566895,-1.244141,-0.02832031,-0.2470703,0.2143555
3922,-247.0625,156.875,85.75,0.5512695,1.527832,-1.244141,-0.04492188,-0.265625,0.1967773
3926,-239.6875,153.375,83.625,0.4931641,1.430664,-1.270996,-0.06396484,-0.2817383,0.1777344
3930,-221.8125,151,72.125,0.4541016,1.294922,-1.232422,-0.07568359,-0.2895508,0.1640625
3934,-207.1875,152.5625,63.1875,0.4428711,1.259766,-1.182617,-0.08886719,-0.3017578,0.1464844
3938,-196.5,149.25,59.625,0.3457031,1.186035,-1.193848,-0.1010742,-0.3095703,0.125
3942,-182.625,137.5625,54.3125,0.2412109,1.030762,-1.166992,-0.1113281,-0.3154297,0.1113281
3946,-164.875,122.75,49.0625,0.1948242,0.9453125,-1.155762,-0.1201172,-0.3208008,0.09082031
3951,-143.8125,106.875,44,0.1132813,0.840332,-1.128418,-0.1293945,-0.3256836,0.07324219
3955,-124.5,93.0625,35.3125,0.06298828,0.7856445,-1.078613,-0.1328125,-0.3291016,0.06494141
3959,-105.6875,80.9375,25.4375,-0.002441406,0.6923828,-1.01709,-0.1391602,-0.3291016,0.04736328
3963,-87.25,70.8125,13.8125,-0.05664063,0.6342773,-0.9902344,-0.1425781,-0.3320313,0.03515625
3967,-68.9375,58.0625,2.875,-0.09912109,0.6186523,-0.9672852,-0.1425781,-0.3305664,0.02978516
3971,-50.625,44.5,-9.0625,-0.1420898,0.5605469,-0.9594727,-0.1450195,-0.3330078,0.02392578
3975,-26.125,30.1875,-24.4375,-0.1650391,0.5019531,-0.9672852,-0.1450195,-0.3354492,0.01611328
3979,4.5625,16.625,-36.375,-0.1611328,0.4282227,-0.9633789,-0.1401367,-0.3354492,0.01611328
3983,39.3125,-1,-38.75,-0.1884766,0.4013672,-1.001465,-0.1376953,-0.3369141,0.01611328
3987,73.9375,-26.5,-38.625,-0.1689453,0.4633789,-1.032227,-0.1367188,-0.3378906,0.01855469
3991,100.8125,-51.9375,-32.3125,-0.08007813,0.5991211,-1.040039,-0.1328125,-0.3378906,0.02539063
3995,117.1875,-70.9375,-31.25,0.03564453,0.8325195,-1.001465,-0.1293945,-0.3369141,0.0390625
3999,126.3125,-81.25,-44.5,0.09765625,0.9140625,-0.9941406,-0.1245117,-0.3344727,0.05273438
4003,148.5625,-83.4375,-67.375,0.1948242,0.921875,-1.01709,-0.1186523,-0.3330078,0.06347656
4007,177.375,-78.5,-86.4375,0.2954102,1.01123,-1.051758,-0.1103516,-0.3320313,0.07861328
4011,200.5625,-74.5625,-93.4375,0.3339844,1.104492,-1.086426,-0.09960938,-0.3266602,0.09912109
4015,218.4375,-76.5625,-87.3125,0.3305664,1.291016,-1.101563,-0.09033203,-0.3232422,0.1098633
4019,225.3125,-89.375,-81.75,0.3149414,1.461914,-1.101563,-0.07958984,-0.3144531,0.1313477
4023,232.875,-104.4375,-87.4375,0.4155273,1.58252,-1.063477,-0.06738281,-0.3032227,0.1508789
4027,238.6875,-107.5625,-93.25,0.5708008,1.636719,-1.01709,-0.05908203,-0.296875,0.1669922
4031,245.375,-103.9375,-88.4375,0.6210938,1.671875,-1.032227,-0.04394531,-0.2792969,0.1845703
4035,251.875,-104.875,-80.6875,0.5820313,1.632813,-1.051758,-0.03076172,-0.2617188,0.2011719
4039,255.5625,-111.75,-70.25,0.5629883,1.683105,-1.055664,-0.02099609,-0.2495117,0.2133789
4043,251.3125,-118.0625,-66.25,0.6015625,1.769043,-1.009277,-0.01025391,-0.2294922,0.2255859
4047,243.625,-112.5,-63.1875,0.6982422,1.803711,-0.9091797,0.003417969,-0.2080078,0.2363281
4051,239,-98,-62.0625,0.6713867,1.675781,-0.840332,0.009277344,-0.1958008,0.2460938
4055,239.75,-78.3125,-63.3125,0.5976563,1.49707,-0.894043,0.0234375,-0.1733398,0.25
4059,246.0625,-56.5625,-69.5,0.4155273,1.283203,-1.032227,0.02832031,-0.1518555,0.2553711
4063,256.75,-56.25,-70.8125,0.1674805,1.124023,-1.186523,0.03564453,-0.1367188,0.2592773
4067,273.1875,-73.75,-68.9375,-0.02197266,1.166504,-1.367188,0.04052734,-0.1142578,0.2607422
4071,283.3125,-110.875,-68.3125,-0.002441406,1.108398,-1.317383,0.04736328,-0.08837891,0.262207
4075,276.4375,-143.6875,-46.25,0.2104492,1.20166,-1.213379,0.05566406,-0.07421875,0.2592773
4080,249.9375,-140.375,-30.375,0.5356445,1.221191,-0.9633789,0.06542969,-0.04931641,0.2583008
4084,240.5625,-101.3125,-33.875,0.6132813,1.019043,-0.8515625,0.07714844,-0.02929688,0.2514648
4088,240.6875,-43.3125,-56,0.4038086,0.8364258,-0.894043,0.07958984,-0.01806641,0.2470703
4092,238.0625,-16.4375,-70.9375,-0.06445313,0.7001953,-1.113281,0.07861328,0.001464844,0.2431641
4096,240.5625,-38.6875,-56,-0.2851563,0.5878906,-1.028809,0.07617188,0.02246094,0.237793
4100,222.875,-71.9375,-14.0625,-0.1381836,0.7470703,-0.7900391,0.07714844,0.03369141,0.2324219
4104,194.375,-83.5625,8.875,0.06689453,0.8129883,-0.5400391,0.08056641,0.04882813,0.2241211
4108,158.4375,-66.6875,9.375,0.1445313,0.840332,-0.3706055,0.08447266,0.06005859,0.2202148
4112,127.5,-44.5625,-13.5,-0.01416016,0.5839844,-0.3745117,0.08544922,0.06640625,0.2133789
4116,110.625,-32.0625,-26.5,-0.08007813,0.4438477,-0.2900391,0.08691406,0.07373047,0.2089844
4120,84.0625,-32.0625,-16.25,-0.1147461,0.4750977,-0.2324219,0.08691406,0.08105469,0.206543
4124,58.8125,-39.9375,-8.1875,-0.08007813,0.3857422,-0.1401367,0.08789063,0.08398438,0.2036133
4128,23.875,-41.0625,10.0625,0.07861328,0.4868164,-0.001464844,0.08789063,0.08740234,0.2011719
4132,-13.875,-34.75,20.75,0.109375,0.4594727,0.02490234,0.09375,0.08642578,0.2011719
4136,-48.6875,-21.25,18.1875,0.08642578,0.4125977,-0.08984375,0.09375,0.08398438,0.199707
4140,-67.4375,-5.125,10.375,-0.006347656,0.1875,-0.3129883,0.09619141,0.08251953,0.2011719
4144,-64.4375,1.1875,0.25,-0.1186523,0.01269531,-0.4091797,0.09619141,0.07617188,0.2036133
4148,-66.375,-0.5625,5.4375,-0.06835938,0.04003906,-0.378418,0.09765625,0.07275391,0.2036133
4152,-70.5625,-0.5,16.875,0.09375,0.1254883,-0.2705078,0.09765625,0.06884766,0.2089844
4156,-86,16.875,26.3125,0.2875977,0.3544922,-0.1821289,0.1010742,0.0625,0.2080078
4160,-108.75,40.875,33.25,0.3149414,0.5332031,-0.1401367,0.09960938,0.06005859,0.2104492
4164,-140.125,63.5,27.5625,0.1831055,0.6459961,-0.3476563,0.09863281,0.04980469,0.2158203
4168,-163.0625,72.0625,19.375,-0.002441406,0.5991211,-0.5708008,0.09619141,0.03857422,0.2211914
4172,-175.5625,67.8125,8.5625,-0.1147461,0.5019531,-0.7324219,0.09521484,0.03271484,0.2255859
4176,-183.4375,53.3125,17.75,-0.04101563,0.6108398,-0.7207031,0.09375,0.01855469,0.230957
4180,-208.1875,34.125,53.625,0.09375,0.8442383,-0.6669922,0.09130859,0.006347656,0.2363281
4184,-246.1875,20.9375,84.75,0.07861328,0.9453125,-0.8671875,0.09375,-0.008300781,0.2392578
4188,-259.875,13.3125,100.5,-0.02978516,0.7080078,-1.132324,0.09277344,-0.02685547,0.2431641
4192,-221.125,27.3125,72.125,0.109375,0.5214844,-1.144043,0.09521484,-0.05078125,0.2431641
4196,-181.5625,62.25,45.875,0.3457031,0.7158203,-1.020996,0.09375,-0.06054688,0.2470703
4200,-161.5,87.9375,46,0.3574219,0.9257813,-0.9555664,0.08886719,-0.07714844,0.2485352
4204,-172.875,96.5,64.0625,0.2255859,1.186035,-0.9555664,0.08300781,-0.09082031,0.2539063
4209,-197.875,91.9375,70.625,0.03173828,1.333496,-1.128418,0.07617188,-0.1020508,0.2539063
4213,-206.625,80.5,70.75,-0.06835938,1.186035,-1.236328,0.06982422,-0.1196289,0.2568359
4217,-199.5625,73.9375,68.1875,0.07080078,1.228516,-1.170898,0.06152344,-0.1367188,0.2539063
4221,-199.375,75.4375,71.125,0.2294922,1.364746,-1.047852,0.05566406,-0.1508789,0.2524414
4225,-205,81.5625,77.3125,0.3652344,1.500488,-1.013184,0.04882813,-0.1694336,0.2514648
4229,-214.9375,89.8125,84.0625,0.4038086,1.59375,-1.013184,0.03662109,-0.1870117,0.2431641
4233,-220.125,100.25,85.8125,0.3999023,1.562988,-1.08252,0.03076172,-0.2016602,0.2392578
4237,-213.1875,111.5,75.9375,0.3110352,1.469727,-1.13623,0.01660156,-0.2192383,0.2324219
4241,-208.3125,115.3125,69.125,0.2333984,1.477539,-1.151855,0.004394531,-0.2368164,0.2202148
4245,-207,107.75,69.3125,0.190918,1.485352,-1.151855,-0.003417969,-0.2480469,0.2133789
4249,-208.375,94.6875,77,0.2177734,1.481445,-1.117188,-0.01757813,-0.2641602,0.2021484
4253,-210.8125,87.125,86.125,0.2568359,1.442383,-1.094238,-0.02832031,-0.2792969,0.1875
4257,-205.4375,81.6875,85.25,0.2373047,1.291016,-1.094238,-0.03662109,-0.2880859,0.1762695
4261,-190.9375,81.1875,79.875,0.2255859,1.13916,-1.070801,-0.04980469,-0.3007813,0.1601563
4265,-173.5625,88,69.625,0.2451172,1.084961,-1.020996,-0.06152344,-0.3105469,0.1450195
4269,-158.5,92.875,59.375,0.1635742,1.026855,-1.009277,-0.06640625,-0.3168945,0.1342773
4273,-145.75,87.5625,54.375,0.1015625,0.9643555,-0.9824219,-0.078125,-0.3232422,0.1206055
4277,-132.5625,76.125,53.1875,0.03955078,0.8828125,-0.9555664,-0.08398438,-0.3291016,0.105957
4281,-117.8125,63.125,50.0625,0.02441406,0.7856445,-0.9438477,-0.09130859,-0.3344727,0.09765625
4285,-97.75,52.4375,44.3125,-0.01025391,0.6616211,-0.9052734,-0.09716797,-0.3344727,0.08544922
4289,-76.125,46.375,38.375,-0.01416016,0.6147461,-0.9091797,-0.1030273,-0.3354492,0.07714844
4293,-54.5625,40.75,30.5625,-0.07617188,0.5800781,-0.9326172,-0.1069336,-0.3369141,0.0703125
4297,-32.6875,32.25,19.5625,-0.1420898,0.5410156,-0.9746094,-0.1103516,-0.3393555,0.06787109
4301,-12,20.4375,9.25,-0.1806641,0.5332031,-1.01709,-0.1113281,-0.3378906,0.06201172
4305,10.3125,5.75,-5.4375,-0.2348633,0.4946289,-1.066895,-0.1113281,-0.3369141,0.06201172
4309,35.625,-12.3125,-20.0625,-0.2001953,0.5410156,-1.090332,-0.1103516,-0.3378906,0.06494141
4313,56.8125,-30.3125,-26.625,-0.1499023,0.5527344,-1.097656,-0.1103516,-0.3369141,0.06884766
4317,80.1875,-44.3125,-35,-0.08398438,0.6147461,-1.097656,-0.1069336,-0.3369141,0.07324219
4321,96.8125,-53.9375,-43.25,-0.09912109,0.6694336,-1.221191,-0.1010742,-0.3344727,0.08105469
4325,124.4375,-65.8125,-59.4375,-0.1381836,0.6147461,-1.378906,-0.09619141,-0.3320313,0.09619141
4329,160.9375,-75.1875,-68.125,0.01269531,0.7197266,-1.420898,-0.08886719,-0.3320313,0.1030273
4333,194.5,-75.8125,-72.5625,0.1518555,0.8945313,-1.375,-0.078125,-0.3242188,0.1206055
4338,219.1875,-79.3125,-72.5,0.1791992,1.135742,-1.340332,-0.06982422,-0.3154297,0.137207
4342,234.1875,-95.0625,-68.1875,0.1831055,1.356934,-1.301758,-0.06298828,-0.3066406,0.1508789
4346,239.9375,-115.5,-63.9375,0.2294922,1.469727,-1.286133,-0.05078125,-0.2944336,0.1723633
4350,246,-133.0625,-52.1875,0.2724609,1.422852,-1.351563,-0.03759766,-0.2768555,0.1889648
4354,266.75,-154.5,-38.4375,0.2412109,1.271484,-1.482422,-0.02832031,-0.2641602,0.199707
4358,294.6875,-171.625,-20.1875,0.3925781,1.372559,-1.602051,-0.01269531,-0.2441406,0.2172852
4362,302.75,-172.625,-5.9375,0.5512695,1.632813,-1.590332,0,-0.2192383,0.2348633
4366,297.125,-166.4375,-22.3125,0.4467773,1.714355,-1.555664,0.01171875,-0.1992188,0.2402344
4370,277.125,-166.1875,-54.875,0.4931641,2.001953,-1.405762,0.02587891,-0.1757813,0.2514648
4374,247.4375,-177.3125,-67.125,0.4970703,1.893066,-1.313477,0.04248047,-0.1518555,0.2583008
4378,228.875,-183.0625,-61,0.7875977,1.799805,-1.166992,0.0546875,-0.1357422,0.2553711
4382,215.3125,-172,-44.8125,0.8730469,1.590332,-1.08252,0.07128906,-0.1157227,0.2553711
4386,208.125,-153.1875,-26.1875,0.7451172,1.325684,-1.063477,0.08544922,-0.09814453,0.2539063
4390,207.0625,-138.6875,-26.75,0.5356445,1.166504,-1.024902,0.09277344,-0.08691406,0.2485352
4394,194.4375,-117.6875,-43.3125,0.4389648,1.186035,-0.9863281,0.1010742,-0.06933594,0.2446289
4398,184.1875,-100.5625,-58.75,0.3886719,1.100586,-0.859375,0.1103516,-0.0546875,0.2402344
4402,164,-90.75,-53.625,0.2915039,0.9760742,-0.7978516,0.1152344,-0.04443359,0.2392578
4406,149.125,-91.1875,-41.5,0.2216797,0.7817383,-0.7709961,0.1176758,-0.03173828,0.2348633
4410,145.4375,-89.875,-36.6875,0.1484375,0.5800781,-0.7822266,0.1235352,-0.01953125,0.2294922
4414,152,-70.75,-49.4375,0.1445313,0.4672852,-0.8286133,0.1259766,-0.01318359,0.2241211
4418,162.375,-35.75,-80.1875,0.08251953,0.3740234,-0.859375,0.128418,-0.001953125,0.2211914
4422,167.6875,-20.9375,-92.5,-0.06835938,0.3740234,-0.8325195,0.1235352,0.01367188,0.2158203
4426,161.75,-33.3125,-69.0625,-0.2041016,0.3623047,-0.7861328,0.1235352,0.02490234,0.2133789
4430,151.25,-54.75,-43.375,-0.1342773,0.4750977,-0.559082,0.1210938,0.03857422,0.2104492
4434,126.4375,-60.0625,-23.125,0.02832031,0.5761719,-0.3554688,0.1225586,0.04882813,0.2050781
4438,102.3125,-42.3125,-20.5,0.2026367,0.6225586,-0.1015625,0.1225586,0.05273438,0.2011719
4442,68.25,-19.9375,-21.5,0.190918,0.6303711,0.06738281,0.1235352,0.06103516,0.1982422
4446,27.9375,-6.5625,-16.125,0.09375,0.5913086,0.04443359,0.1235352,0.06494141,0.1982422
4450,-2.125,-3.9375,-7.4375,0.02832031,0.3857422,0.005859375,0.1235352,0.06494141,0.1943359
4454,-20.625,-1.4375,0,-0.06835938,0.2729492,-0.1513672,0.1225586,0.06396484,0.1953125
4458,-30.8125,-6.0625,0.8125,-0.1884766,0.1445313,-0.3476563,0.1225586,0.0625,0.1982422
4462,-39.0625,-8.8125,-0.0625,-0.1186523,0.08642578,-0.4052734,0.1235352,0.0625,0.199707
4467,-44.1875,-1.5625,2.4375,0.008789063,0.05908203,-0.4013672,0.125,0.05761719,0.1967773
4471,-49.375,7.5625,8.6875,0.05908203,0.09033203,-0.378418,0.1259766,0.05615234,0.2011719
4475,-59.875,17.3125,20.3125,0.09375,0.2148438,-0.3632813,0.1269531,0.05517578,0.1982422
4479,-75.9375,31.375,25.625,0.140625,0.3349609,-0.3515625,0.125,0.04736328,0.2036133
4483,-95.5625,49.375,27.3125,0.09765625,0.4013672,-0.4667969,0.125,0.04150391,0.206543
4487,-107.6875,59,22.375,-0.06445313,0.2807617,-0.6245117,0.1235352,0.03759766,0.2080078
4491,-115.5625,60.5,16.6875,-0.06445313,0.3427734,-0.6860352,0.1235352,0.03027344,0.2133789
4495,-128.0625,62.125,16.4375,0.03173828,0.4204102,-0.6821289,0.1210938,0.02001953,0.21875
4499,-144.1875,65.625,29.4375,0.08642578,0.5371094,-0.7133789,0.1186523,0.01611328,0.21875
4503,-156.875,65.5,37.1875,0.1289063,0.6030273,-0.7133789,0.1166992,0.00390625,0.2241211
4507,-168.3125,76.9375,49.5,0.190918,0.7856445,-0.84375,0.1152344,-0.006835938,0.2294922
4511,-174.75,87.4375,39.875,0.03564453,0.7080078,-0.9863281,0.112793,-0.01708984,0.2324219
4515,-176.375,91.5625,34.3125,0.140625,0.875,-1.005371,0.1069336,-0.03076172,0.2363281
4519,-189,99.6875,29.625,0.1831055,0.8945313,-1.005371,0.1020508,-0.04589844,0.2416992
4523,-197.75,104.25,40.3125,0.2685547,1.003418,-0.9902344,0.09863281,-0.05712891,0.2470703
4527,-216.875,110.375,53.5625,0.2954102,1.088867,-1.01709,0.09130859,-0.07324219,0.2514648
4531,-231,123.625,66.625,0.3032227,1.104492,-1.078613,0.08056641,-0.09423828,0.2539063
4535,-235.25,139.375,68.8125,0.3071289,1.12793,-1.05957,0.07470703,-0.1083984,0.2553711
4539,-226.3125,152.4375,65.0625,0.2412109,1.135742,-1.055664,0.06054688,-0.1279297,0.2539063
4543,-199.375,149,46.125,0.190918,1.39209,-0.9746094,0.04638672,-0.1494141,0.2568359
4547,-205.6875,140.625,39.125,0.3032227,1.660156,-0.9438477,0.0390625,-0.1591797,0.2539063
4551,-229.3125,125.1875,51.5,0.3032227,1.578613,-1.013184,0.02490234,-0.1791992,0.2485352
4555,-236,112.9375,65.75,0.3496094,1.446289,-1.086426,0.01171875,-0.2006836,0.2416992
4559,-235.875,112.875,70.4375,0.4580078,1.454102,-1.13623,0.002441406,-0.2128906,0.2348633
4563,-237.25,120.4375,71.5,0.4931641,1.485352,-1.15918,-0.0078125,-0.2319336,0.2255859
4567,-237.25,121.125,72.3125,0.4658203,1.485352,-1.147949,-0.0234375,-0.2495117,0.2119141
4571,-234.5,115.25,74.1875,0.4077148,1.415039,-1.132324,-0.03076172,-0.2607422,0.2021484
4575,-227.375,104.25,77,0.4116211,1.403809,-1.070801,-0.04248047,-0.2792969,0.1831055
4579,-223.75,95.125,81.875,0.4233398,1.411133,-1.05957,-0.05664063,-0.2929688,0.1699219
4583,-210.5625,88.5625,81.875,0.3652344,1.279297,-1.051758,-0.06396484,-0.2993164,0.1572266
4587,-196.1875,83.625,72.9375,0.3769531,1.287109,-0.9707031,-0.07714844,-0.3095703,0.1381836
4591,-188.1875,83.75,65.75,0.3652344,1.209473,-0.9326172,-0.08789063,-0.3168945,0.1206055
4596,-175.6875,80.625,60.3125,0.2954102,1.053711,-0.9287109,-0.09375,-0.3217773,0.1113281
4600,-160.5,73.25,61.9375,0.2685547,0.9492188,-0.8979492,-0.1030273,-0.328125,0.09082031
4604,-144.25,67.4375,66.625,0.2607422,0.875,-0.84375,-0.1113281,-0.3330078,0.07568359
4608,-118.9375,61.375,58.5625,0.1831055,0.7509766,-0.7939453,-0.1186523,-0.3330078,0.06787109
4612,-95.5,59.125,42.4375,0.1987305,0.7275391,-0.6899414,-0.1245117,-0.3354492,0.05517578
4616,-75.125,62.6875,29.3125,0.2836914,0.7275391,-0.6054688,-0.1293945,-0.3369141,0.04443359
4620,-56.6875,71.5625,23.25,0.2836914,0.7001953,-0.6323242,-0.1318359,-0.3354492,0.03613281
4624,-36.3125,72.625,18.6875,0.1635742,0.6655273,-0.6513672,-0.1352539,-0.3369141,0.03076172
4628,-20.1875,63.75,16.5625,0.04736328,0.6845703,-0.6787109,-0.1376953,-0.3369141,0.02685547
4632,-6.875,46.625,8.125,-0.1030273,0.6845703,-0.7285156,-0.1391602,-0.3354492,0.02148438
4636,6,21.625,-5.6875,-0.1264648,0.7314453,-0.7749023,-0.1391602,-0.3369141,0.02148438
4640,18,-2.0625,-14.9375,-0.08789063,0.7119141,-0.809082,-0.1411133,-0.3369141,0.02148438
4644,36.1875,-21,-20.125,-0.03320313,0.6499023,-0.8515625,-0.1376953,-0.3354492,0.02294922
4648,58.8125,-35.125,-25.5,-0.04492188,0.6459961,-0.9052734,-0.1376953,-0.3354492,0.02539063
4652,84.4375,-46.4375,-36.25,-0.07617188,0.6577148,-1.013184,-0.1328125,-0.3369141,0.03613281
4656,110.25,-58.375,-50,-0.09521484,0.7392578,-1.109375,-0.1293945,-0.3354492,0.04199219
4660,134.5,-71.0625,-68.875,-0.05664063,0.8129883,-1.19043,-0.1220703,-0.3369141,0.05517578
4664,159.375,-77.375,-84.125,0.09033203,0.9023438,-1.20166,-0.1162109,-0.3320313,0.0703125
4668,182.125,-82.75,-87.6875,0.1831055,0.9838867,-1.205566,-0.1069336,-0.3344727,0.08251953
4672,206.5625,-92.125,-84.125,0.2451172,1.088867,-1.248047,-0.09472656,-0.3266602,0.1030273
4676,230.4375,-109.5,-79.875,0.3496094,1.240234,-1.236328,-0.08544922,-0.3208008,0.1235352
4680,244.9375,-118.8125,-78.25,0.4658203,1.411133,-1.186523,-0.07714844,-0.3120117,0.1396484
4684,253.5,-120.5,-85.4375,0.5551758,1.500488,-1.151855,-0.06152344,-0.3007813,0.1601563
4688,262.25,-115.5625,-91.9375,0.6674805,1.570801,-1.117188,-0.04736328,-0.2832031,0.1791992
4692,267.0625,-112.25,-85.4375,0.609375,1.613281,-1.121094,-0.03759766,-0.2705078,0.1943359
4696,272.3125,-122.1875,-70.25,0.5708008,1.621094,-1.094238,-0.02490234,-0.2529297,0.2104492
4700,274,-130.0625,-56.6875,0.5859375,1.632813,-1.066895,-0.009277344,-0.2319336,0.2255859
4704,273.3125,-128.5,-59.75,0.5708008,1.664063,-1.051758,-0.001953125,-0.2167969,0.2333984
4708,265.0625,-111.8125,-75.4375,0.6171875,1.745605,-0.9555664,0.01171875,-0.1918945,0.2446289
4712,258.125,-86.4375,-95.25,0.5551758,1.605469,-0.9672852,0.0234375,-0.1694336,0.2539063
4716,251,-67.9375,-104.125,0.4506836,1.559082,-0.9594727,0.03076172,-0.1542969,0.2583008
4720,239.875,-67.4375,-95.6875,0.3149414,1.430664,-0.9248047,0.0390625,-0.1318359,0.2592773
4725,230.5625,-80,-79.5,0.2104492,1.407715,-0.9287109,0.04638672,-0.1083984,0.262207
4729,216.75,-91.1875,-65.875,0.2451172,1.442383,-0.8364258,0.05224609,-0.09570313,0.262207
4733,193.875,-86.6875,-70.25,0.2216797,1.321777,-0.809082,0.05957031,-0.07714844,0.2607422
4737,186.625,-75.0625,-77.4375,0.2104492,1.057617,-0.9018555,0.06884766,-0.05957031,0.2583008
4741,191.25,-55.125,-86.3125,0.1484375,0.8286133,-0.9208984,0.06982422,-0.046875,0.2553711
4745,196.25,-43,-80.8125,0.008789063,0.7587891,-1.105469,0.07373047,-0.03320313,0.2539063
4749,205,-47.25,-84.8125,-0.1264648,0.5292969,-1.128418,0.07617188,-0.01464844,0.25
4753,212.8125,-56.375,-67.75,-0.02197266,0.5839844,-1.097656,0.07617188,-0.004394531,0.2460938
4757,215.125,-54.375,-45.5625,0.07861328,0.6108398,-1.009277,0.07714844,0.01367188,0.2392578
4761,203.3125,-50.4375,-22.6875,0.02832031,0.7158203,-0.8208008,0.07958984,0.03027344,0.2324219
4765,180.4375,-51.9375,-13.8125,-0.05664063,0.6655273,-0.7822266,0.07958984,0.03857422,0.2280273
4769,169.375,-47.125,-25.375,-0.1572266,0.4165039,-0.8745117,0.08056641,0.05126953,0.2226563
4773,169.5,-38.8125,-41.6875,-0.1650391,0.2456055,-0.7363281,0.08056641,0.0625,0.2158203
4777,157.75,-44.4375,-25.5625,-0.1499023,0.4516602,-0.5361328,0.07958984,0.06884766,0.2143555
4781,108.25,-64.8125,-1.1875,-0.08789063,0.7080078,-0.2978516,0.08300781,0.08007813,0.2050781
4785,45.875,-82,14.125,0.02441406,0.6459961,-0.1821289,0.08544922,0.08496094,0.2021484
4789,7.1875,-64.9375,18.125,0.1484375,0.4052734,-0.09375,0.09033203,0.08398438,0.199707
4793,-11.5,-37.375,-0.1875,0.1289063,0.3505859,-0.08203125,0.09277344,0.08496094,0.199707
4797,-35.875,-15.125,-17.0625,0.1484375,0.3271484,-0.1821289,0.09619141,0.08398438,0.199707
4801,-54.75,0.5,-17.5625,0.08251953,-0.002441406,-0.3666992,0.09765625,0.08105469,0.2021484
4805,-45.625,12.6875,-13.6875,0.06689453,-0.2045898,-0.4594727,0.09375,0.07763672,0.2050781
4809,-39.1875,16.6875,2.625,-0.05273438,-0.1113281,-0.4824219,0.09521484,0.07617188,0.206543
4813,-41.3125,3,18,-0.1069336,-0.03759766,-0.4052734,0.09375,0.07373047,0.2050781
4817,-50.875,-6,30.6875,0.05126953,0.140625,-0.309082,0.09521484,0.07128906,0.2089844
4821,-67.8125,5,36.8125,0.2026367,0.2885742,-0.2089844,0.09521484,0.06640625,0.2104492
4825,-92.5,27.75,35.6875,0.1557617,0.4052734,-0.2783203,0.09863281,0.06103516,0.2089844
4829,-109,43,26.4375,-0.006347656,0.315918,-0.3862305,0.09619141,0.05517578,0.2143555
4833,-121.4375,50.5,18.25,-0.08398438,0.3388672,-0.5400391,0.09765625,0.04638672,0.21875
4837,-127.5,46.625,18.1875,-0.1108398,0.315918,-0.5708008,0.09375,0.04150391,0.2226563
4841,-139.75,37.5,38,0.03955078,0.5839844,-0.4438477,0.09375,0.03271484,0.2241211
4845,-163.25,33.3125,64.875,0.1674805,0.8051758,-0.3398438,0.09277344,0.02001953,0.2294922
4849,-195.5,46.9375,76.375,0.1557617,0.9838867,-0.5708008,0.09375,0.01025391,0.2324219
4854,-213.4375,61.5,61.25,0.0009765625,0.9101563,-0.7363281,0.09277344,-0.005859375,0.237793
4858,-223.125,65.9375,49.125,-0.03320313,1.003418,-0.859375,0.09130859,-0.0234375,0.2431641
4862,-224.5,63.9375,49.625,0.04736328,1.04248,-0.8286133,0.08886719,-0.03466797,0.2460938
4866,-230.8125,63.5,61.8125,0.1518555,1.178223,-0.8286133,0.08691406,-0.05322266,0.25
4870,-244.6875,65.5625,86.375,0.1518555,1.251953,-1.009277,0.08203125,-0.07177734,0.2553711
4874,-251,68.375,87.6875,-0.04492188,1.104492,-1.193848,0.07617188,-0.08837891,0.2539063
4878,-241.1875,70.125,80.625,-0.1499023,0.9956055,-1.45166,0.07128906,-0.1118164,0.2568359
4882,-219.25,68.4375,60.875,-0.1147461,0.90625,-1.397949,0.06542969,-0.1308594,0.2539063
4886,-204,63.75,61.8125,0.04736328,1.084961,-1.270996,0.06152344,-0.1445313,0.2524414
4890,-203.6875,56,80.9375,0.2451172,1.376465,-1.051758,0.05322266,-0.1630859,0.25
4894,-220.25,50.875,103.9375,0.3339844,1.59375,-0.9516602,0.04638672,-0.1845703,0.2446289
4898,-227.9375,56.9375,111.5,0.3999023,1.58252,-0.9555664,0.04150391,-0.1943359,0.2392578
4902,-219.375,71.8125,105.1875,0.3691406,1.512207,-1.001465,0.02978516,-0.2167969,0.2324219
4906,-212.3125,89.4375,91.9375,0.3769531,1.531738,-0.9902344,0.01757813,-0.2329102,0.2211914
4910,-211.8125,97.25,89.9375,0.3188477,1.523926,-0.9980469,0.01074219,-0.2480469,0.2158203
4914,-213.9375,90,96,0.2875977,1.539551,-1.005371,-0.0009765625,-0.2631836,0.206543
4918,-217.9375,78.5625,104.1875,0.2875977,1.489258,-1.001465,-0.01416016,-0.2768555,0.1899414
4922,-211.75,72.25,108.875,0.3339844,1.388184,-0.9824219,-0.02099609,-0.2880859,0.1791992
4926,-195.1875,75.5,103.5,0.3574219,1.298828,-0.9477539,-0.03515625,-0.3007813,0.1640625
4930,-183.5,83.75,97.3125,0.4038086,1.356934,-0.9360352,-0.04980469,-0.3120117,0.1450195
4934,-175.4375,87,92.875,0.3652344,1.321777,-0.8979492,-0.05908203,-0.3178711,0.137207
4938,-170.125,85.75,91.375,0.3339844,1.310547,-0.9130859,-0.06982422,-0.3256836,0.1220703
4942,-159.8125,83.625,90.875,0.2993164,1.174316,-0.9130859,-0.08300781,-0.3305664,0.1044922
4946,-136.25,85.125,78.9375,0.2451172,1.003418,-0.8745117,-0.09033203,-0.3344727,0.09472656
4950,-112.6875,85.25,71,0.1987305,0.972168,-0.8208008,-0.09960938,-0.3354492,0.08007813
4954,-99.9375,81.1875,61.875,0.1328125,0.972168,-0.809082,-0.1079102,-0.3393555,0.06787109
4958,-89.0625,74.4375,51.1875,0.04345703,0.8867188,-0.8056641,-0.1113281,-0.3378906,0.05957031
4962,-76.3125,64.5625,40.3125,-0.05273438,0.7666016,-0.840332,-0.1201172,-0.3408203,0.05126953
4966,-56.125,50.3125,32.5625,-0.1342773,0.6225586,-0.859375,-0.1259766,-0.3378906,0.04052734
4970,-30.1875,35.625,23.375,-0.215332,0.5527344,-0.878418,-0.1259766,-0.3393555,0.03613281
4974,-5.6875,18.625,16.6875,-0.262207,0.5292969,-0.8901367,-0.1318359,-0.3378906,0.03515625
4978,17.375,0.0625,8,-0.3242188,0.5214844,-0.8979492,-0.1318359,-0.3378906,0.03369141
4983,38.0625,-19.375,-4.625,-0.3320313,0.5292969,-0.9516602,-0.1303711,-0.3378906,0.03759766
4987,59.875,-34.625,-22.625,-0.28125,0.5605469,-0.9707031,-0.1293945,-0.3378906,0.0390625
4991,82.25,-45.3125,-41.5,-0.215332,0.5991211,-0.9941406,-0.1245117,-0.3369141,0.04736328
4995,106.4375,-52.9375,-57.6875,-0.1264648,0.6459961,-1.013184,-0.1220703,-0.3354492,0.05419922
4999,131.5,-61,-68.5625,-0.07226563,0.7158203,-1.05957,-0.1162109,-0.3354492,0.06640625
5003,154.6875,-71.125,-73.125,-0.002441406,0.7705078,-1.121094,-0.1079102,-0.3344727,0.08105469
5007,180,-83.3125,-71.5,0.05517578,0.8325195,-1.217285,-0.1010742,-0.3305664,0.09472656
5011,207,-95.6875,-68.4375,0.1132813,0.9140625,-1.286133,-0.09033203,-0.3256836,0.1113281
5015,236.3125,-104.5625,-71.9375,0.2685547,1.100586,-1.278809,-0.07958984,-0.3168945,0.1313477
5019,253.0625,-106.8125,-78.5625,0.4155273,1.310547,-1.251953,-0.06982422,-0.3066406,0.1479492
5023,261.875,-101.25,-88.875,0.543457,1.458008,-1.248047,-0.05810547,-0.2929688,0.1669922
5027,267.8125,-97.3125,-89.5,0.6015625,1.574707,-1.244141,-0.04492188,-0.2768555,0.1875
5031,273.4375,-97.5625,-80.4375,0.5668945,1.55127,-1.293945,-0.03662109,-0.2641602,0.199707
5035,280.9375,-106.0625,-67.8125,0.543457,1.566895,-1.282715,-0.0234375,-0.2416992,0.2172852
5039,281.3125,-110,-57.1875,0.578125,1.613281,-1.317383,-0.01171875,-0.2207031,0.2348633
5043,286.9375,-109.875,-51.4375,0.578125,1.58252,-1.30957,-0.005859375,-0.2055664,0.2416992
5047,287.0625,-107.6875,-48.6875,0.5859375,1.605469,-1.278809,0.005859375,-0.1806641,0.25
5051,278.6875,-105.1875,-38.625,0.543457,1.597656,-1.248047,0.01904297,-0.1542969,0.2607422
5055,267.8125,-110.625,-33.0625,0.4311523,1.504395,-1.248047,0.02587891,-0.1367188,0.262207
5059,257.3125,-119,-33.5625,0.4428711,1.461914,-1.221191,0.03417969,-0.1157227,0.2661133
5063,241.8125,-117.6875,-32.1875,0.4736328,1.395996,-1.197754,0.04638672,-0.09179688,0.2636719
5067,229.125,-114.1875,-33.3125,0.3769531,1.20166,-1.182617,0.0546875,-0.07714844,0.2636719
5071,220.8125,-112.625,-23.9375,0.3339844,1.135742,-1.182617,0.06396484,-0.05957031,0.262207
5075,206.6875,-115.1875,-26.4375,0.1557617,0.9179688,-1.263184,0.07128906,-0.04052734,0.2553711
5079,215.625,-123,-32.6875,0.2216797,0.8129883,-1.213379,0.07714844,-0.02929688,0.2514648
5083,215.1875,-108.0625,-29.9375,0.3378906,0.8828125,-1.155762,0.08447266,-0.01171875,0.2460938
5087,207,-90.25,-40.25,0.2724609,0.7666016,-1.117188,0.09130859,0.002441406,0.2392578
5091,204.3125,-68.0625,-45.6875,0.3730469,0.7626953,-0.9746094,0.09277344,0.01367188,0.2324219
5095,189.625,-48.8125,-47.75,0.1054688,0.5761719,-1.028809,0.09375,0.02734375,0.230957
5099,186.5,-57.0625,-43.875,-0.04101563,0.5839844,-1.132324,0.09277344,0.04248047,0.2241211
5103,173.875,-68.4375,-44.75,-0.01416016,0.4282227,-1.066895,0.09375,0.05126953,0.21875
5107,169.25,-68.8125,-36.1875,0.09765625,0.2299805,-0.9169922,0.09521484,0.06640625,0.2133789
5112,179,-52.125,-19.75,0.2216797,0.1137695,-0.6787109,0.09521484,0.07861328,0.206543
5116,182.4375,-26.8125,-0.875,0.1870117,0.2265625,-0.4594727,0.09521484,0.08642578,0.2021484
5120,168.1875,-9.5,16.75,0.1674805,0.4633789,-0.1513672,0.09619141,0.09765625,0.1943359
5124,120.9375,-0.6875,23.125,-0.04101563,0.5800781,-0.112793,0.09521484,0.1074219,0.1889648
5128,84.6875,-7.3125,15,-0.230957,0.4477539,-0.07470703,0.09521484,0.1113281,0.1860352
5132,52,-14.5,7.0625,-0.2119141,0.5097656,-0.05517578,0.09619141,0.1176758,0.1831055
5136,14.5,-16.9375,-10.0625,-0.1459961,0.4477539,-0.04394531,0.09619141,0.1186523,0.1806641
5140,-14.5625,-18.0625,-25.5625,-0.09912109,0.203125,-0.1362305,0.09521484,0.1201172,0.1806641
5144,-34,-13.875,-20.5625,-0.01025391,0.09423828,-0.1821289,0.09619141,0.1201172,0.1831055
5148,-44.4375,-8.9375,-8.8125,-0.06054688,-0.09960938,-0.324707,0.09765625,0.1176758,0.1845703
5152,-43.125,-2.9375,-6.5,-0.04882813,-0.1850586,-0.4399414,0.09521484,0.1152344,0.1860352
5156,-32.8125,7.4375,-2.375,0.01660156,-0.2045898,-0.4169922,0.09765625,0.1123047,0.1875
5160,-31.5,20.8125,0.625,-0.01025391,-0.1035156,-0.4628906,0.09619141,0.1098633,0.1899414
5164,-35.0625,31.5625,-2.3125,-0.03710938,-0.04541016,-0.4975586,0.09619141,0.1074219,0.1899414
5168,-43.875,42.625,-7.25,-0.06835938,-0.03759766,-0.574707,0.09277344,0.1074219,0.1875
5172,-51.875,49.1875,-14.0625,-0.1533203,-0.05664063,-0.6821289,0.09033203,0.1035156,0.1943359
5176,-63.875,45.5,-14,-0.2080078,-0.02587891,-0.7709961,0.08789063,0.1025391,0.1953125
5180,-74.4375,35.8125,-12,-0.1923828,-0.06445313,-0.8208008,0.08691406,0.09619141,0.2011719
5184,-80.9375,33.3125,-5.1875,-0.02587891,-0.01416016,-0.7900391,0.08447266,0.09228516,0.2021484
5188,-91.9375,42,4.5,0.02832031,0.07470703,-0.809082,0.08300781,0.08984375,0.2050781
5192,-102.875,48.0625,7.8125,-0.03320313,0.105957,-0.8129883,0.08203125,0.08398438,0.2089844
5196,-113.4375,51.1875,6.1875,-0.02587891,0.2807617,-0.8208008,0.08056641,0.07617188,0.2143555
5200,-132.5,54.1875,8.375,-0.03710938,0.4399414,-0.8671875,0.07958984,0.07128906,0.2158203
5204,-157.1875,45.875,4.375,-0.2001953,0.3349609,-1.009277,0.07714844,0.06103516,0.2226563
5208,-166.0625,26.5,16.1875,-0.1342773,0.3701172,-0.9863281,0.07617188,0.04980469,0.230957
5212,-178.75,18.25,33.3125,-0.03710938,0.4165039,-1.005371,0.07714844,0.04150391,0.2324219
5216,-173.25,33.125,33.125,0.2177734,0.4204102,-0.9824219,0.07958984,0.02734375,0.2363281
5220,-169.75,79.75,-1.125,0.3071289,0.5410156,-0.9902344,0.07714844,0.01513672,0.2402344
5224,-173.6875,118.9375,-33.0625,0.190918,0.6342773,-1.121094,0.07373047,0.006347656,0.2446289
5228,-179.3125,125.9375,-61.3125,-0.04882813,0.5136719,-1.251953,0.06542969,-0.005859375,0.25
5232,-183.3125,105.75,-60.6875,-0.04882813,0.6225586,-1.301758,0.05322266,-0.01708984,0.2583008
5236,-188.4375,78.625,-40.0625,0.06689453,0.7001953,-1.209473,0.04980469,-0.02832031,0.2607422
5241,-194.6875,64,-15.0625,0.2836914,0.8598633,-1.101563,0.04248047,-0.04199219,0.2651367
5245,-200.0625,72.375,-4.6875,0.3613281,0.8325195,-1.086426,0.0390625,-0.06054688,0.2661133
5249,-201.5,87.4375,-11.1875,0.2412109,0.777832,-1.255371,0.03417969,-0.07080078,0.2675781
5253,-194.125,92.3125,-23.9375,0.1445313,0.7080078,-1.33252,0.02734375,-0.08837891,0.269043
5257,-190.625,87.6875,-28.625,0.1054688,0.6923828,-1.382324,0.01904297,-0.1044922,0.2705078
5261,-182.5625,72.5,-19.375,0.1484375,0.7119141,-1.286133,0.01269531,-0.1157227,0.2675781
5265,-176.8125,59.375,-1,0.3032227,0.8442383,-1.144043,0.008300781,-0.1333008,0.2661133
5269,-173.0625,57.4375,12.8125,0.4155273,0.9682617,-1.013184,0.003417969,-0.1479492,0.262207
5273,-175.5625,66.4375,18.6875,0.5048828,1.174316,-0.9052734,-0.001953125,-0.1567383,0.2592773
