Packet number,Gyroscope X (deg/s),Gyroscope Y (deg/s),Gyroscope Z (deg/s),Accelerometer X (g),Accelerometer Y (g),Accelerometer Z (g),Magnetometer X (G),Magnetometer Y (G),Magnetometer Z (G)
1,9.8125,-24.8125,-12.25,0.8881836,0.2456055,-0.06298828,-0.2949219,-0.1230469,0.04199219
5,13.8125,-21.0625,-13.25,0.9272461,0.2807617,-0.07861328,-0.2958984,-0.1245117,0.04199219
10,13.75,-22.75,-13.9375,0.9038086,0.284668,-0.07080078,-0.2924805,-0.1245117,0.04443359
14,15.3125,-26,-12.125,0.9697266,0.2963867,-0.05908203,-0.2924805,-0.1254883,0.04736328
18,14.5,-27,-7.9375,0.9541016,0.269043,-0.05126953,-0.2900391,-0.1245117,0.04882813
22,17.5625,-30.3125,-3.25,0.9541016,0.2416992,-0.05517578,-0.2900391,-0.1254883,0.05419922
26,20.8125,-32.875,0.5,0.9970703,0.2612305,-0.06689453,-0.2890625,-0.1254883,0.05810547
30,16.25,-26.875,14.875,1.078125,0.2924805,-0.08203125,-0.2890625,-0.1254883,0.05957031
34,7.4375,-21.625,31.625,0.9658203,0.3232422,-0.1743164,-0.2875977,-0.1230469,0.06201172
38,-1.75,-19.5625,45.5625,1.008301,0.3505859,-0.2783203,-0.2890625,-0.1206055,0.06347656
42,-13.5625,-29.125,48.6875,0.8032227,0.3818359,-0.3823242,-0.2875977,-0.1142578,0.06640625
46,-20.375,-49.5,34.4375,0.8378906,0.3662109,-0.4785156,-0.2866211,-0.1132813,0.0703125
50,-23.3125,-72.75,20.125,0.9077148,0.3701172,-0.5209961,-0.2866211,-0.109375,0.07324219
54,-28.8125,-90.875,9.25,0.9853516,0.3701172,-0.5786133,-0.2851563,-0.1118164,0.07861328
58,-35.0625,-103.5625,3.1875,0.9853516,0.3310547,-0.6479492,-0.2807617,-0.1108398,0.08691406
62,-34.3125,-121.3125,-6.0625,0.9736328,0.2456055,-0.7514648,-0.2758789,-0.1132813,0.09472656
66,-28.4375,-140.3125,-15,1.043457,0.253418,-0.878418,-0.2734375,-0.1142578,0.1030273
70,-22.4375,-161.9375,-24.6875,1.055176,0.21875,-1.001465,-0.2675781,-0.1166992,0.1137695
74,-12.875,-186,-32.625,1.144043,0.1640625,-1.055664,-0.2578125,-0.1196289,0.1303711
78,1.3125,-202.4375,-40.3125,1.252441,0.1445313,-1.043945,-0.2485352,-0.1220703,0.1396484
82,18.5625,-213.1875,-43.625,1.302734,0.1367188,-1.047852,-0.2363281,-0.1269531,0.1547852
86,35.875,-223.9375,-46.4375,1.241211,0.1367188,-1.128418,-0.2236328,-0.1269531,0.1708984
90,50.75,-243.9375,-44.875,1.198242,0.1757813,-1.228516,-0.2128906,-0.1293945,0.1831055
94,55.25,-266.625,-36.5,1.275879,0.21875,-1.244141,-0.1948242,-0.1269531,0.1982422
98,55.9375,-286.5625,-26.875,1.380371,0.2612305,-1.209473,-0.1748047,-0.1269531,0.2143555
102,58,-294.0625,-19.125,1.477539,0.2651367,-1.15918,-0.1591797,-0.1245117,0.2255859
106,66.25,-302.5625,-16.625,1.523926,0.2612305,-1.182617,-0.1352539,-0.1220703,0.237793
110,82.9375,-296.375,-19.0625,1.620605,0.300293,-1.182617,-0.1103516,-0.1181641,0.2470703
114,113.5,-293.0625,-32.0625,1.426758,0.2807617,-1.324707,-0.09472656,-0.1118164,0.2524414
118,134.375,-293.6875,-36.0625,1.492676,0.4907227,-1.378906,-0.06982422,-0.1069336,0.2636719
122,121.4375,-300.875,-20.0625,1.395996,0.6108398,-1.447754,-0.04394531,-0.09716797,0.262207
126,91.5,-318.3125,-11.125,1.52002,0.6923828,-1.228516,-0.02490234,-0.08837891,0.2661133
130,39.25,-308.125,12.4375,1.822266,0.6694336,-0.7553711,-0.001953125,-0.08056641,0.2636719
134,5.375,-258.9375,2.1875,1.651855,0.5449219,-0.5170898,0.02148438,-0.07958984,0.2607422
139,7,-221.375,-26.0625,1.225586,0.3466797,-0.5131836,0.03417969,-0.07958984,0.2607422
143,17.4375,-189.5625,-47.0625,1.039551,0.2265625,-0.5322266,0.05078125,-0.078125,0.2539063
147,17.1875,-171.4375,-47,0.8110352,0.171875,-0.4936523,0.06054688,-0.07568359,0.2514648
151,9.625,-161.3125,-32.0625,0.5859375,0.04736328,-0.4824219,0.06787109,-0.07080078,0.2460938
155,4.3125,-153.25,-13.125,0.6054688,-0.03759766,-0.2861328,0.07958984,-0.06835938,0.2431641
159,-0.4375,-132.375,5.625,0.6401367,-0.06054688,-0.1015625,0.08886719,-0.06835938,0.2416992
163,13.5625,-102.375,1.9375,0.5473633,-0.006347656,-0.05517578,0.09375,-0.06689453,0.2363281
167,18.625,-67.8125,-4.6875,0.543457,0.1020508,0.03271484,0.09960938,-0.06298828,0.2348633
171,12.25,-40.8125,-4.8125,0.3227539,0.105957,-0.009277344,0.1035156,-0.06054688,0.2333984
175,1.5625,-24.1875,2.5,0.2568359,0.09423828,-0.07470703,0.1035156,-0.06054688,0.2348633
179,-1.75,-14.125,6.25,0.140625,0.07080078,-0.08984375,0.105957,-0.06054688,0.2348633
183,-3.4375,-1.3125,10.125,0.2104492,0.1176758,-0.05908203,0.105957,-0.06298828,0.2333984
187,-8.75,16.5,13,0.2255859,0.1679688,-0.03222656,0.1044922,-0.06054688,0.2348633
191,-11.8125,35.0625,11.75,0.2104492,0.1523438,-0.08984375,0.1044922,-0.06445313,0.2333984
195,-8,52.25,8.625,0.2529297,0.1835938,-0.1899414,0.1035156,-0.06591797,0.2363281
199,-8.25,72.375,7.0625,0.1948242,0.2651367,-0.3129883,0.09863281,-0.06445313,0.237793
203,-12.9375,79.4375,2.6875,0.140625,0.3120117,-0.394043,0.09375,-0.06835938,0.2392578
207,-29.1875,87.5625,5.3125,0.2915039,0.3193359,-0.4052734,0.08789063,-0.06933594,0.2402344
211,-49.5625,99.75,11,0.3188477,0.3081055,-0.4975586,0.08691406,-0.07177734,0.2416992
215,-59.75,110.125,13.6875,0.3925781,0.2885742,-0.6171875,0.07861328,-0.07714844,0.2446289
219,-69.0625,122.875,17.125,0.5161133,0.2612305,-0.6552734,0.07128906,-0.08447266,0.2470703
223,-73.5,137.25,19.625,0.4814453,0.1875,-0.6630859,0.06640625,-0.08837891,0.2470703
227,-72.5625,149.1875,22.875,0.7177734,0.1445313,-0.6132813,0.05712891,-0.09814453,0.2485352
231,-68.125,170.5,23.6875,0.8613281,0.1679688,-0.6362305,0.04492188,-0.1044922,0.25
235,-60.9375,192.75,21.3125,0.8769531,0.2265625,-0.7631836,0.03564453,-0.109375,0.2524414
239,-50.125,204.6875,24.5,0.7758789,0.21875,-1.055664,0.02246094,-0.1157227,0.2524414
243,-32,207.25,0.4375,0.690918,0.3120117,-1.186523,0.005859375,-0.1181641,0.2553711
247,-30.4375,200.375,-0.125,0.59375,0.3232422,-1.26709,-0.003417969,-0.1196289,0.2568359
251,-37.6875,181.4375,-3.875,0.5629883,0.4086914,-1.20166,-0.02001953,-0.1245117,0.2553711
255,-54.4375,178.625,-10.5625,0.9736328,0.4907227,-1.01709,-0.03320313,-0.1279297,0.2553711
259,-63.5,191.4375,-21.5,0.9697266,0.4790039,-1.13623,-0.04248047,-0.1308594,0.2568359
263,-62.75,188.75,-28.875,0.9155273,0.4204102,-1.244141,-0.05664063,-0.1357422,0.2514648
268,-64.375,178.9375,-26.9375,0.9423828,0.4790039,-1.170898,-0.07226563,-0.1430664,0.2485352
272,-77.4375,167.5,-14.75,1.035645,0.4985352,-0.9746094,-0.08056641,-0.1469727,0.2446289
276,-94.9375,161.5625,4.5,1.26416,0.4711914,-0.7167969,-0.09228516,-0.1533203,0.2431641
280,-99.75,167.375,15.9375,1.43457,0.3740234,-0.5400391,-0.1054688,-0.1606445,0.2333984
284,-82.9375,184.9375,26.5,1.539551,0.2226563,-0.4282227,-0.1152344,-0.1655273,0.2294922
288,-51.6875,204.25,34.1875,1.531738,0.1796875,-0.4130859,-0.1303711,-0.1694336,0.2211914
292,-21.25,221.5,38.1875,1.523926,0.2729492,-0.4169922,-0.1494141,-0.1694336,0.2119141
296,-3.6875,233.25,33.75,1.477539,0.4555664,-0.4399414,-0.1601563,-0.1694336,0.2050781
300,-10.75,235,36.25,1.426758,0.6694336,-0.4321289,-0.1791992,-0.1669922,0.1943359
304,-39,229.6875,44.0625,1.399902,0.7666016,-0.4208984,-0.1982422,-0.1645508,0.1806641
308,-62.0625,224,44.875,1.364746,0.7001953,-0.4208984,-0.2080078,-0.1655273,0.1708984
312,-72.4375,217.4375,52.9375,1.361328,0.5488281,-0.4208984,-0.222168,-0.1645508,0.1533203
316,-72.1875,211.875,58.75,1.353516,0.4946289,-0.4360352,-0.234375,-0.1669922,0.1328125
320,-64.9375,206.0625,58.875,1.341797,0.4829102,-0.4477539,-0.2460938,-0.1655273,0.1220703
324,-62.1875,201.5625,60.8125,1.337891,0.5097656,-0.4824219,-0.2553711,-0.1645508,0.1030273
328,-64.0625,194.75,65.125,1.29541,0.5488281,-0.5092773,-0.2675781,-0.1591797,0.08251953
332,-69.125,182.9375,64.6875,1.182617,0.5683594,-0.5244141,-0.2724609,-0.1567383,0.07177734
336,-74.0625,170.375,62.9375,1.151855,0.5527344,-0.5283203,-0.2817383,-0.1542969,0.05126953
340,-71.25,151.8125,62.5,1.039551,0.4282227,-0.5478516,-0.2890625,-0.1469727,0.03369141
344,-61.375,139.625,65.25,0.9892578,0.3740234,-0.609375,-0.2890625,-0.1430664,0.02392578
348,-46.125,125.0625,62.6875,0.8842773,0.3623047,-0.6860352,-0.2958984,-0.1396484,0.009277344
352,-26.25,112.5625,49.5,0.7568359,0.3857422,-0.7709961,-0.2983398,-0.1333008,-0.002441406
356,-8.5625,96.4375,34.8125,0.7099609,0.4711914,-0.8208008,-0.2998047,-0.1308594,-0.009277344
360,-6.3125,75.0625,25.6875,0.5708008,0.5527344,-0.894043,-0.2998047,-0.1279297,-0.01904297
364,-6.6875,47.25,12,0.4697266,0.5371094,-0.9438477,-0.3032227,-0.1245117,-0.02587891
368,-3.5,15.3125,5.3125,0.4155273,0.4321289,-0.9130859,-0.3007813,-0.1230469,-0.02832031
372,5.75,-18.5,2.375,0.4580078,0.3740234,-0.8710938,-0.3032227,-0.1245117,-0.02832031
376,18.1875,-44.4375,-3.5,0.527832,0.3974609,-0.809082,-0.3032227,-0.1245117,-0.02587891
380,31.625,-66.125,-16.625,0.59375,0.4399414,-0.7402344,-0.3032227,-0.1245117,-0.02050781
384,37.9375,-84.4375,-25.5,0.6791992,0.4711914,-0.6938477,-0.3007813,-0.1269531,-0.01611328
388,43.3125,-103,-37.4375,0.6791992,0.4711914,-0.7324219,-0.3007813,-0.1279297,-0.002441406
392,51.8125,-125.0625,-45.3125,0.7138672,0.4594727,-0.7900391,-0.2998047,-0.1318359,0.002441406
397,60.0625,-149.625,-47.125,0.7333984,0.4672852,-0.8632813,-0.2958984,-0.1381836,0.01611328
401,69.5,-174.3125,-51.5625,0.8535156,0.4946289,-0.8823242,-0.2924805,-0.1420898,0.03515625
405,77.1875,-194.6875,-55.4375,0.9814453,0.5488281,-0.859375,-0.2890625,-0.1420898,0.04736328
409,79.25,-208.3125,-63,1.140137,0.6459961,-0.8286133,-0.2807617,-0.1469727,0.06787109
413,72.1875,-223.75,-62.0625,1.144043,0.6499023,-0.9169922,-0.2700195,-0.1494141,0.09082031
417,69,-248.75,-59.5,1.101563,0.5605469,-1.05957,-0.2602539,-0.1508789,0.105957
421,68.625,-269.4375,-56.625,1.353516,0.6108398,-1.01709,-0.2470703,-0.1542969,0.125
425,71.375,-284.75,-52.6875,1.399902,0.4829102,-1.009277,-0.2294922,-0.1542969,0.1508789
429,82.9375,-297.8125,-38.1875,1.527832,0.3740234,-1.005371,-0.21875,-0.1518555,0.1655273
433,95.1875,-296.1875,-34.6875,1.876465,0.4985352,-0.859375,-0.1962891,-0.1518555,0.1899414
437,99.9375,-274.625,-46.75,1.899902,0.5761719,-0.8554688,-0.1757813,-0.1469727,0.2119141
441,117.25,-265.8125,-67.125,1.744629,0.5332031,-0.9824219,-0.1640625,-0.1430664,0.2202148
445,125.1875,-269.5625,-70.3125,1.605469,0.5605469,-1.090332,-0.1376953,-0.1381836,0.230957
449,119.3125,-277.875,-52.25,1.523926,0.5566406,-1.232422,-0.1152344,-0.1333008,0.2446289
453,114,-296.9375,-40.0625,1.403809,0.5644531,-1.340332,-0.09863281,-0.1279297,0.25
457,104.25,-316.9375,-15.6875,1.585938,0.5097656,-1.248047,-0.07128906,-0.1206055,0.2583008
461,94.6875,-303.75,-2.375,1.63623,0.5449219,-1.209473,-0.04394531,-0.1118164,0.2636719
465,110.6875,-285.3125,-31.75,1.477539,0.5292969,-1.240234,-0.02587891,-0.1069336,0.2651367
469,132.5625,-274.4375,-52.5625,1.279785,0.4946289,-1.232422,-0.003417969,-0.09716797,0.2651367
473,140.8125,-270.375,-59.0625,1.035645,0.5683594,-1.228516,0.02001953,-0.08544922,0.2636719
477,125.125,-276.9375,-38.8125,1.097656,0.6264648,-1.101563,0.03320313,-0.07568359,0.2636719
481,107,-277.75,-29.0625,1.05127,0.5761719,-0.9555664,0.05566406,-0.06591797,0.2553711
485,101.1875,-263.75,-45.5625,0.8999023,0.5913086,-0.8745117,0.07617188,-0.05810547,0.2485352
489,84.5625,-241.5625,-48.1875,1.241211,0.5058594,-0.394043,0.08789063,-0.05175781,0.2431641
493,61.625,-181.3125,-25.375,1.275879,0.1679688,0.1020508,0.09960938,-0.04443359,0.2348633
497,60.0625,-125.75,-8.375,1.027832,0.04003906,0.1713867,0.112793,-0.03710938,0.2294922
501,56.9375,-76,-1.0625,0.8730469,0.06689453,0.1787109,0.1152344,-0.03320313,0.2280273
505,32.75,-32.125,21.8125,0.5356445,0.253418,-0.001464844,0.1186523,-0.03076172,0.2255859
509,2,-22.25,34.1875,0.2104492,0.3041992,-0.1860352,0.1186523,-0.02832031,0.2241211
513,-17,-16.75,26.8125,0.175293,0.2416992,-0.2363281,0.1201172,-0.02832031,0.2241211
517,-17,-1.4375,8.75,0.125,0.06298828,-0.2705078,0.1210938,-0.03173828,0.2255859
521,-7.5,7.625,8.0625,0.1328125,-0.07617188,-0.2167969,0.1201172,-0.03320313,0.2255859
526,-10.375,17.625,18.625,0.2177734,0.02050781,-0.1630859,0.1201172,-0.03466797,0.2241211
530,-29,33.4375,28.8125,0.3032227,0.06689453,-0.1743164,0.1166992,-0.03564453,0.2255859
534,-34.75,46.5625,32.1875,0.2216797,0.01660156,-0.2900391,0.1166992,-0.03955078,0.2270508
538,-28.875,62,27.125,0.3032227,0.05517578,-0.3476563,0.1166992,-0.04199219,0.2280273
542,-28.9375,76,21.0625,0.2607422,0.15625,-0.4169922,0.1103516,-0.04589844,0.2324219
546,-40.125,88.75,21.75,0.3652344,0.1523438,-0.4208984,0.1079102,-0.05078125,0.2333984
550,-52.5625,105.6875,28.75,0.4467773,0.1137695,-0.5092773,0.1020508,-0.05322266,0.2363281
554,-57.375,123.25,29.25,0.3959961,0.1137695,-0.6821289,0.09619141,-0.05957031,0.2392578
558,-58.9375,131.6875,32.8125,0.3959961,0.1601563,-0.809082,0.08886719,-0.06445313,0.2402344
562,-70.0625,134.6875,41.9375,0.4775391,0.2651367,-0.7861328,0.08203125,-0.06835938,0.2460938
566,-90.4375,144.875,53.3125,0.7294922,0.3505859,-0.7016602,0.07226563,-0.07568359,0.2485352
570,-103.9375,162.375,52.9375,0.7954102,0.3857422,-0.7822266,0.06298828,-0.08691406,0.2514648
574,-111.1875,177.5,50.3125,0.9697266,0.3427734,-0.7475586,0.0546875,-0.09326172,0.2539063
578,-105.5,198.1875,51.75,0.8032227,0.2963867,-0.9785156,0.0390625,-0.1030273,0.2568359
582,-87.0625,194.5625,48.3125,0.8652344,0.2612305,-0.9941406,0.02490234,-0.1132813,0.2592773
586,-80.625,193.625,57.125,1.008301,0.3388672,-0.9169922,0.01513672,-0.1181641,0.262207
590,-80.625,189.9375,66.3125,1.256348,0.5058594,-0.7670898,-0.001953125,-0.1269531,0.2592773
594,-84.9375,199.5625,58.5625,1.39209,0.6733398,-0.6977539,-0.01855469,-0.1333008,0.2607422
598,-78.0625,207.75,34.9375,1.399902,0.6577148,-0.7861328,-0.03173828,-0.1357422,0.2583008
602,-68.8125,215,20.1875,1.330078,0.6694336,-0.8823242,-0.04980469,-0.1430664,0.2583008
606,-73.5625,219.8125,20.75,1.523926,0.7470703,-0.8823242,-0.06738281,-0.1479492,0.2539063
610,-105.6875,239.0625,51.0625,1.582031,0.8012695,-0.9130859,-0.08203125,-0.1494141,0.25
614,-123.875,238.875,61.25,1.508301,0.5488281,-1.032227,-0.1044922,-0.1582031,0.2402344
618,-113.625,242.5625,78.125,1.616699,0.237793,-1.047852,-0.1245117,-0.1630859,0.230957
622,-76.6875,248.5625,87.4375,1.608887,0.171875,-1.070801,-0.1401367,-0.1655273,0.2226563
626,-45.8125,254.3125,91.25,1.585938,0.3466797,-1.066895,-0.1625977,-0.1655273,0.2133789
630,-34.9375,253.3125,90.1875,1.477539,0.5566406,-1.090332,-0.184082,-0.1630859,0.1953125
634,-42.6875,244.6875,93.8125,1.415527,0.6381836,-1.078613,-0.1982422,-0.1630859,0.1860352
638,-56.0625,231,98,1.368652,0.6923828,-1.063477,-0.2163086,-0.1582031,0.168457
642,-68.75,219,106.1875,1.310547,0.6303711,-1.086426,-0.2353516,-0.1533203,0.1464844
646,-65.5,208.125,106.375,1.237305,0.5253906,-1.094238,-0.2460938,-0.1494141,0.1357422
650,-43.875,194.625,91.125,1.09375,0.4868164,-1.086426,-0.2578125,-0.1420898,0.1181641
655,-26.0625,189.875,73.875,1.09375,0.5292969,-0.9941406,-0.2709961,-0.1342773,0.1015625
659,-18.5625,178.875,62.5625,0.9038086,0.5214844,-1.009277,-0.2783203,-0.1318359,0.08935547
663,-12.8125,159.8125,51.125,0.7294922,0.4438477,-1.001465,-0.2851563,-0.1269531,0.07324219
667,-2.125,143.25,42.4375,0.675293,0.3701172,-0.9555664,-0.2924805,-0.1230469,0.05810547
671,22.125,127.9375,25.875,0.5200195,0.2768555,-0.9477539,-0.2949219,-0.1206055,0.04980469
675,46.375,109.875,16.8125,0.4580078,0.3388672,-0.9672852,-0.2983398,-0.1181641,0.0390625
679,54.1875,85.375,5.125,0.3305664,0.5136719,-1.005371,-0.3017578,-0.1132813,0.03076172
683,40,50.3125,2.8125,0.2412109,0.6342773,-0.9980469,-0.3017578,-0.1132813,0.02539063
687,18.3125,14.3125,1,0.2104492,0.6381836,-0.9707031,-0.3041992,-0.1132813,0.02148438
691,11.1875,-15.9375,-9.9375,0.2724609,0.5488281,-0.9169922,-0.3017578,-0.1142578,0.02294922
695,22.5,-41.125,-24.9375,0.3188477,0.4013672,-0.8901367,-0.3017578,-0.1157227,0.02392578
699,40.0625,-63.75,-37.1875,0.3999023,0.3818359,-0.8710938,-0.3007813,-0.1166992,0.02978516
703,51.6875,-83.625,-47.6875,0.4697266,0.4672852,-0.8823242,-0.2998047,-0.1196289,0.0390625
707,54.9375,-98.125,-62.875,0.5859375,0.5839844,-0.8862305,-0.2983398,-0.1230469,0.04443359
711,55.875,-117.8125,-77.875,0.59375,0.5761719,-0.9287109,-0.2915039,-0.1269531,0.05517578
715,57.875,-140.4375,-83.1875,0.7060547,0.5175781,-0.9438477,-0.2851563,-0.1357422,0.06884766
719,66.5,-162.375,-83.6875,0.7680664,0.4086914,-0.9863281,-0.2817383,-0.140625,0.07861328
723,88.4375,-187.6875,-82.1875,0.8417969,0.2768555,-1.013184,-0.2709961,-0.1430664,0.09619141
727,122.125,-217.6875,-72.9375,0.8652344,0.1333008,-1.109375,-0.2592773,-0.1469727,0.1166992
731,155.8125,-250.0625,-50.9375,1.004395,0.1254883,-1.255371,-0.2495117,-0.1455078,0.1328125
735,171.625,-272.3125,-30.9375,1.291504,0.4165039,-1.301758,-0.2329102,-0.1420898,0.1572266
739,147.75,-271.5625,-43.375,1.550781,0.9838867,-1.259277,-0.2163086,-0.1357422,0.1806641
743,105.625,-272.125,-73.375,1.43457,0.9492188,-1.282715,-0.203125,-0.1318359,0.1943359
747,86.875,-280,-81.4375,1.554688,0.5683594,-1.297852,-0.1791992,-0.1293945,0.2133789
751,98.9375,-278.4375,-69.5625,1.647949,0.1953125,-1.293945,-0.1567383,-0.1254883,0.2333984
755,132.1875,-276.5,-54.25,1.670898,0.1796875,-1.313477,-0.1401367,-0.1230469,0.2402344
759,142.75,-275.9375,-34.9375,1.624512,0.4013672,-1.344238,-0.1152344,-0.1142578,0.2514648
763,123.9375,-280.4375,-14.625,1.608887,0.6342773,-1.348145,-0.09130859,-0.1054688,0.2592773
767,93.5,-282.375,-3.4375,1.477539,0.7119141,-1.340332,-0.07470703,-0.09814453,0.2651367
771,75.125,-284.5625,-0.3125,1.469727,0.7119141,-1.286133,-0.04736328,-0.09179688,0.2675781
775,70.0625,-274.125,-9.1875,1.43457,0.6811523,-1.19043,-0.0234375,-0.08837891,0.2705078
779,68.875,-263.1875,-9.5,1.26416,0.5839844,-1.144043,-0.006835938,-0.08447266,0.2714844
784,69.5625,-256.75,-8.375,1.078125,0.5488281,-1.178711,0.01513672,-0.078125,0.2675781
788,73.5625,-253.125,-29.625,0.7529297,0.5136719,-1.397949,0.03662109,-0.07421875,0.2651367
792,80.1875,-266.6875,-25.8125,0.9931641,0.3896484,-1.205566,0.05078125,-0.06835938,0.2592773
796,69.75,-258.5,-0.5625,1.171387,0.4243164,-0.9633789,0.06982422,-0.06445313,0.2524414
800,55.5625,-237.8125,8.25,1.19043,0.3974609,-0.7324219,0.09033203,-0.05810547,0.2460938
804,47.4375,-203.75,4.5625,0.9350586,0.3349609,-0.7670898,0.09960938,-0.0546875,0.2402344
808,86.375,-177.3125,-38.5625,0.8071289,0.03613281,-0.7207031,0.1118164,-0.05078125,0.2324219
812,132.6875,-143.8125,-59,0.7138672,0.08251953,-0.5478516,0.1201172,-0.04052734,0.2270508
816,121.4375,-124.375,-42.125,0.6328125,0.3388672,-0.3823242,0.125,-0.03173828,0.2202148
820,71.3125,-105.6875,-15.1875,0.5317383,0.3974609,-0.2592773,0.1308594,-0.0234375,0.2172852
824,30.3125,-81.625,6.9375,0.4931641,0.2612305,-0.1860352,0.1367188,-0.01708984,0.2119141
828,9.1875,-60.375,23.75,0.4350586,0.1367188,-0.1669922,0.1401367,-0.01464844,0.2104492
832,2.1875,-47.375,28.3125,0.4077148,0.105957,-0.07861328,0.1416016,-0.015625,0.2089844
836,-8.1875,-20.0625,26.3125,0.4658203,0.121582,-0.02050781,0.1450195,-0.015625,0.206543
840,-9.3125,7.1875,17,0.2954102,0.05517578,-0.1513672,0.1459961,-0.01806641,0.2080078
844,-6,28.6875,7.0625,0.1948242,0.1098633,-0.2475586,0.144043,-0.01953125,0.2080078
848,-17.5,37.4375,9.5,0.1015625,0.1020508,-0.3051758,0.144043,-0.02050781,0.2119141
852,-28.6875,40.75,17.3125,0.1870117,0.07861328,-0.2783203,0.1425781,-0.02197266,0.2104492
856,-37.25,55.75,22.625,0.2568359,0.06298828,-0.3359375,0.1391602,-0.02587891,0.2133789
860,-37.0625,71.875,23.0625,0.3305664,0.04003906,-0.3823242,0.1367188,-0.03076172,0.2158203
864,-27.625,90.125,13.125,0.2797852,0.05517578,-0.4746094,0.1357422,-0.03320313,0.2158203
868,-22.6875,106.3125,4.8125,0.3886719,0.1293945,-0.4936523,0.1293945,-0.03466797,0.2202148
872,-30.25,126.3125,4,0.4892578,0.1679688,-0.5014648,0.1210938,-0.03808594,0.2241211
876,-44.9375,144.6875,8.3125,0.578125,0.2416992,-0.5786133,0.1166992,-0.04052734,0.2280273
880,-62.75,160.9375,20.125,0.6870117,0.2768555,-0.644043,0.1079102,-0.04443359,0.2348633
884,-76.625,182.3125,24.9375,0.5048828,0.3779297,-0.9399414,0.09619141,-0.05175781,0.2402344
888,-82,180.75,14.5625,0.4658203,0.3818359,-1.047852,0.08886719,-0.05566406,0.2460938
892,-94.375,184.75,18.6875,0.7602539,0.3662109,-0.9555664,0.07617188,-0.06298828,0.25
896,-110.375,195.375,36.4375,1.012207,0.3232422,-0.8979492,0.06396484,-0.07324219,0.2583008
900,-114.4375,211.9375,56.75,1.299316,0.300293,-0.84375,0.05224609,-0.078125,0.2592773
904,-102.25,238.3125,58.5625,1.326172,0.3740234,-0.9824219,0.03564453,-0.08837891,0.262207
908,-73.4375,249.8125,37.0625,1.225586,0.4204102,-1.147949,0.01269531,-0.09716797,0.2651367
913,-55.5625,255.625,23.5,1.426758,0.5214844,-1.13623,0,-0.1005859,0.2661133
917,-59.875,263.3125,36.125,1.601563,0.5332031,-1.086426,-0.02246094,-0.1044922,0.2675781
921,-67.3125,266.1875,55.8125,1.63623,0.4790039,-1.101563,-0.04833984,-0.1083984,0.2675781
925,-63.3125,271.25,61.625,1.670898,0.4594727,-1.132324,-0.06494141,-0.1108398,0.2661133
929,-50.125,274.0625,58.4375,1.651855,0.4907227,-1.174805,-0.08789063,-0.1118164,0.2592773
933,-44.625,283,51.4375,1.651855,0.5058594,-1.182617,-0.1152344,-0.1142578,0.2524414
937,-46.625,290.1875,52,1.554688,0.4399414,-1.270996,-0.1303711,-0.1142578,0.2446289
941,-49.875,287.125,60.25,1.539551,0.3740234,-1.293945,-0.1567383,-0.1142578,0.2348633
945,-49.8125,286.3125,71.375,1.508301,0.3427734,-1.313477,-0.1806641,-0.1157227,0.21875
949,-49.125,277.375,77.4375,1.442383,0.3857422,-1.33252,-0.1972656,-0.1142578,0.2050781
953,-48.3125,266.8125,76.1875,1.411621,0.3818359,-1.30957,-0.2172852,-0.1132813,0.1860352
957,-49.125,259.4375,72.5625,1.337891,0.3974609,-1.317383,-0.2387695,-0.1108398,0.1669922
961,-52.5,249,67.875,1.213867,0.4165039,-1.390137,-0.2495117,-0.1069336,0.1518555
965,-53.0625,232.5625,62.3125,1.059082,0.3662109,-1.375,-0.2651367,-0.1030273,0.1303711
969,-48.5625,212.5,57.125,0.8803711,0.3041992,-1.367188,-0.2768555,-0.1020508,0.1098633
973,-38.625,191,50.1875,0.7216797,0.284668,-1.351563,-0.2866211,-0.09716797,0.09912109
977,-25.875,168.25,39.1875,0.5708008,0.2885742,-1.359375,-0.2924805,-0.09326172,0.08007813
981,-12.4375,144.625,24.4375,0.3959961,0.2612305,-1.336426,-0.2983398,-0.09082031,0.06347656
985,4.5625,117.875,13.25,0.2607422,0.1914063,-1.297852,-0.3007813,-0.09082031,0.05517578
989,23.1875,94.875,6.4375,0.206543,0.2109375,-1.224609,-0.3032227,-0.08935547,0.04443359
993,43.375,66.9375,-3.1875,0.125,0.1796875,-1.221191,-0.3056641,-0.08837891,0.03759766
997,59.5625,45.0625,-4.25,0.2490234,0.1914063,-1.117188,-0.3041992,-0.08691406,0.03369141
1001,73.8125,16.0625,-7.1875,0.08251953,0.1757813,-1.15918,-0.3066406,-0.08837891,0.03222656
1005,89.5625,-32.6875,-11.8125,0.03173828,0.1484375,-1.15918,-0.3066406,-0.08837891,0.03222656
1009,93.5,-83,-10.75,0.1870117,0.269043,-1.094238,-0.3066406,-0.08691406,0.03613281
1013,76.4375,-111.375,-6.375,0.5009766,0.3544922,-1.013184,-0.3032227,-0.08691406,0.04589844
1017,52.4375,-133.5,-4.1875,0.6289063,0.3740234,-0.9746094,-0.2983398,-0.08544922,0.05810547
1021,31.875,-153.8125,-4.8125,0.7138672,0.3271484,-0.9902344,-0.2973633,-0.08447266,0.06787109
1025,18.875,-175.0625,-6.125,0.7915039,0.2651367,-1.051758,-0.2924805,-0.08447266,0.08251953
1029,17.5,-200.0625,-12,0.9038086,0.2456055,-1.055664,-0.2841797,-0.08544922,0.1015625
1033,19.6875,-216.6875,-21.125,1.082031,0.269043,-1.070801,-0.2783203,-0.08691406,0.1137695
1037,22.5,-228.5625,-23.375,1.198242,0.237793,-1.08252,-0.2661133,-0.08691406,0.1328125
1042,25.875,-245.1875,-19.9375,1.29541,0.2456055,-1.101563,-0.2519531,-0.09082031,0.1547852
1046,28.125,-257.75,-18.75,1.469727,0.2807617,-1.086426,-0.2402344,-0.08837891,0.1655273
1050,30.375,-266.5,-23.6875,1.605469,0.3271484,-1.047852,-0.2236328,-0.08837891,0.1889648
1054,26.1875,-270,-23.6875,1.651855,0.3544922,-1.013184,-0.203125,-0.09082031,0.2080078
1058,20,-277.0625,-19.125,1.582031,0.2651367,-1.047852,-0.1875,-0.08935547,0.21875
1062,17.0625,-286.9375,-5.25,1.578125,0.1953125,-1.13623,-0.1674805,-0.08837891,0.2333984
1066,21.625,-298.375,10.0625,1.566406,0.1254883,-1.182617,-0.1425781,-0.08691406,0.2446289
1070,30.4375,-295.9375,12.5,1.666992,0.1914063,-1.128418,-0.1259766,-0.08691406,0.2514648
1074,35.6875,-277,-3.125,1.670898,0.3544922,-1.05957,-0.09960938,-0.08447266,0.2592773
1078,34.0625,-255.625,-24.375,1.554688,0.4711914,-1.08252,-0.07714844,-0.08447266,0.2651367
1082,25.625,-242.625,-40.3125,1.403809,0.4516602,-1.128418,-0.06152344,-0.08203125,0.269043
1086,17.5,-238.8125,-31.125,1.22168,0.2924805,-1.155762,-0.04003906,-0.08300781,0.269043
1090,13.8125,-235.8125,-15.9375,1.078125,0.2495117,-1.282715,-0.01757813,-0.08300781,0.269043
1094,18.0625,-241.875,-16.6875,0.8842773,0.1757813,-1.424805,-0.004394531,-0.08203125,0.2705078
1098,29.9375,-247.8125,-24.125,0.9423828,0.1445313,-1.401855,0.01757813,-0.08056641,0.2651367
1102,49.625,-241.875,-32.75,1.097656,0.08642578,-1.178711,0.03662109,-0.07714844,0.2636719
1106,71.25,-228,-43,1.066406,0.04003906,-1.055664,0.05078125,-0.07324219,0.2583008
1110,86.5,-212.625,-35.875,1.105469,0.09423828,-0.9208984,0.06787109,-0.06689453,0.2524414
1114,100.1875,-197.25,-35.6875,0.7680664,0.1953125,-1.005371,0.08203125,-0.05957031,0.2470703
1118,117,-197.125,-51.5625,0.4272461,0.284668,-1.121094,0.09033203,-0.05322266,0.2431641
1122,122.8125,-199.6875,-82.625,0.2836914,0.4052734,-1.074707,0.1020508,-0.03955078,0.237793
1126,102.3125,-193.75,-79.25,0.6557617,0.3120117,-0.84375,0.1152344,-0.02832031,0.2294922
1130,67.1875,-167.8125,-34.5625,0.7641602,0.1679688,-0.5053711,0.1201172,-0.02050781,0.2211914
1134,57.375,-143.6875,-19.25,0.5668945,-0.04150391,-0.4438477,0.1293945,-0.01464844,0.2143555
1138,82.9375,-112.9375,-31.4375,0.5161133,-0.1499023,-0.359375,0.1367188,-0.008300781,0.2104492
1142,94.3125,-84.5,-33.0625,0.3574219,0.09423828,-0.309082,0.1401367,-0.001953125,0.2050781
1146,67.5625,-71.5,-18.375,0.3574219,0.2807617,-0.2167969,0.1425781,0.006347656,0.2036133
1150,26.875,-53.375,-6.1875,0.3496094,0.269043,-0.1552734,0.1459961,0.01269531,0.1967773
1154,4.25,-28.25,-0.9375,0.3149414,0.05517578,-0.1474609,0.1499023,0.01269531,0.1967773
1158,5.6875,-11.3125,-1.6875,0.1635742,-0.08007813,-0.2167969,0.1508789,0.01269531,0.1967773
1162,11.3125,4.3125,0.3125,0.2954102,-0.04541016,-0.1552734,0.1474609,0.01367188,0.1953125
1166,3,24.375,4.625,0.2490234,0.05517578,-0.1552734,0.1499023,0.01367188,0.1982422
1171,-9.5625,45.9375,3.3125,0.2607422,0.1020508,-0.2089844,0.1484375,0.01269531,0.1967773
1175,-18,63.8125,-2.5,0.09033203,0.08642578,-0.4013672,0.144043,0.01269531,0.199707
1179,-20.25,69.4375,-8.8125,0.05517578,0.05126953,-0.5244141,0.1450195,0.01269531,0.2021484
1183,-26.875,77.4375,-5,0.09375,0.06689453,-0.5400391,0.1391602,0.008789063,0.2050781
1187,-37.5,86,1.6875,0.1635742,0.04003906,-0.5400391,0.1357422,0.006347656,0.2104492
1191,-45.375,99.8125,5.875,0.2836914,0.01269531,-0.5478516,0.1318359,0.00390625,0.2133789
1195,-52.625,119.5,5.375,0.4116211,0.09423828,-0.6132813,0.1269531,0,0.2143555
1199,-61.5,137.4375,6.5,0.4931641,0.1367188,-0.6899414,0.1201172,-0.004394531,0.2226563
1203,-76.4375,154.4375,3.9375,0.3457031,0.2338867,-0.8823242,0.112793,-0.006835938,0.2270508
1207,-87.4375,154,0.3125,0.3071289,0.1992188,-0.9941406,0.1044922,-0.01464844,0.230957
1211,-93.1875,157.5625,5.6875,0.5200195,0.140625,-0.9360352,0.09521484,-0.02197266,0.2392578
1215,-97.875,166.875,19.5625,0.7373047,0.1254883,-0.8862305,0.08886719,-0.02832031,0.2416992
1219,-95.6875,189.0625,25.625,0.7719727,0.1992188,-0.9824219,0.07617188,-0.03710938,0.2470703
1223,-94.9375,202.1875,15.625,0.7490234,0.2885742,-1.086426,0.06152344,-0.04589844,0.2524414
1227,-87.3125,206.875,14.6875,0.8261719,0.269043,-1.178711,0.05322266,-0.05078125,0.2592773
1231,-68.375,209.375,8.1875,1.012207,0.3271484,-1.13623,0.03808594,-0.05712891,0.2636719
1235,-65.1875,218.6875,11.375,1.217773,0.4282227,-1.043945,0.02001953,-0.06201172,0.269043
1239,-80.25,239.875,17.6875,1.182617,0.5019531,-1.097656,0.005859375,-0.06591797,0.2729492
1243,-91.0625,255.75,19.8125,1.260254,0.4633789,-1.259277,-0.01513672,-0.07421875,0.2714844
1247,-94,259.6875,29.3125,1.186523,0.4711914,-1.394043,-0.03759766,-0.08056641,0.2714844
1251,-82.875,240.8125,21.1875,1.206055,0.4868164,-1.282715,-0.05322266,-0.08447266,0.269043
1255,-82.8125,256.6875,15.1875,1.46582,0.4672852,-1.121094,-0.07568359,-0.09082031,0.2636719
1259,-89.4375,263.4375,18.5625,1.151855,0.3310547,-1.151855,-0.09960938,-0.09570313,0.2583008
1263,-79.6875,258.1875,25.4375,1.179199,0.1137695,-1.186523,-0.1137695,-0.09814453,0.2539063
1267,-52,252.375,25.5625,1.209961,0.07861328,-1.178711,-0.1376953,-0.1020508,0.2446289
1271,-29.5625,248.6875,22.0625,1.241211,0.1796875,-1.140137,-0.1601563,-0.1044922,0.2333984
1275,-22.125,241.875,9.375,1.194336,0.3081055,-1.040039,-0.1723633,-0.1054688,0.2270508
1279,-28.3125,240.375,4.375,1.237305,0.2768555,-1.051758,-0.1914063,-0.1054688,0.2104492
1283,-31.0625,230.0625,8.5625,1.194336,0.2338867,-1.105469,-0.2080078,-0.1083984,0.1967773
1287,-33.25,219,14.0625,1.202148,0.2226563,-1.055664,-0.2197266,-0.109375,0.1875
1291,-36.1875,210.9375,18.6875,1.144043,0.21875,-1.036133,-0.234375,-0.1083984,0.168457
1295,-33.4375,198.9375,16.375,1.047363,0.1914063,-1.070801,-0.2470703,-0.1108398,0.1518555
1300,-28.4375,186,14.125,1.027832,0.21875,-1.047852,-0.2568359,-0.1108398,0.1425781
1304,-29.6875,169.4375,15.0625,0.8803711,0.2416992,-1.063477,-0.2675781,-0.1118164,0.125
1308,-33,149.5625,20.1875,0.8071289,0.2070313,-1.024902,-0.2734375,-0.1108398,0.1113281
1312,-33.6875,130.5,27.3125,0.7177734,0.1757813,-0.9746094,-0.2758789,-0.109375,0.1000977
1316,-24.375,108.875,30.1875,0.690918,0.1176758,-0.9477539,-0.2827148,-0.109375,0.08935547
1320,-3.625,89.0625,24.8125,0.6401367,0.08251953,-0.9248047,-0.2875977,-0.1054688,0.08105469
1324,25.25,71.1875,11.0625,0.6518555,0.06689453,-0.840332,-0.2900391,-0.1054688,0.07421875
1328,42.9375,55.5,9.6875,0.6210938,0.1835938,-0.7900391,-0.2924805,-0.1030273,0.06787109
1332,34.125,31.1875,20.125,0.559082,0.4165039,-0.7861328,-0.293457,-0.1005859,0.06494141
1336,11.1875,3.375,29.9375,0.4814453,0.5253906,-0.7670898,-0.2949219,-0.09960938,0.06347656
1340,-3.75,-19.75,17.625,0.4970703,0.4946289,-0.7861328,-0.2958984,-0.09423828,0.06494141
1344,-4.125,-33.8125,0.125,0.5668945,0.3583984,-0.8168945,-0.293457,-0.09326172,0.06787109
1348,5.3125,-50.5,-13.125,0.5161133,0.269043,-0.9208984,-0.293457,-0.09570313,0.06884766
1352,17.25,-75.5,-20.3125,0.4814453,0.2070313,-0.9672852,-0.2915039,-0.09716797,0.07421875
1356,24.5,-99.5625,-19.0625,0.5126953,0.2148438,-1.013184,-0.2890625,-0.09716797,0.08398438
1360,27.1875,-123.375,-23.6875,0.5009766,0.2963867,-1.15918,-0.2851563,-0.09960938,0.09228516
1364,25.0625,-152.3125,-28.8125,0.5356445,0.269043,-1.290039,-0.2783203,-0.1005859,0.1015625
1368,28.625,-183.375,-26.625,0.6328125,0.1640625,-1.348145,-0.2700195,-0.1020508,0.1181641
1372,39.4375,-209.1875,-18.875,0.8339844,0.1254883,-1.313477,-0.2626953,-0.1030273,0.1289063
1376,47.9375,-230.5,-14.5,0.9658203,0.1992188,-1.270996,-0.2519531,-0.1030273,0.1479492
1380,51.125,-248.5,-13.6875,1.089844,0.2148438,-1.344238,-0.237793,-0.09960938,0.1699219
1384,56.8125,-266.75,-11,1.26416,0.1875,-1.371094,-0.2246094,-0.09716797,0.1821289
1388,56.375,-278.4375,-5,1.353516,0.203125,-1.405762,-0.2055664,-0.09423828,0.2021484
1392,52.5,-294.625,7.125,1.543457,0.1601563,-1.416992,-0.1865234,-0.08935547,0.2202148
1396,49.75,-308.5625,22.125,1.628418,0.1333008,-1.45166,-0.168457,-0.08935547,0.2294922
1400,52.125,-312.625,33.25,1.756348,0.15625,-1.494141,-0.1450195,-0.08447266,0.2446289
1404,49.125,-310.75,30.3125,1.52002,0.203125,-1.647949,-0.1176758,-0.07958984,0.2553711
1408,51.625,-322.375,27.8125,1.484863,0.1796875,-1.69043,-0.09960938,-0.07568359,0.2607422
1412,60.0625,-325.125,17.4375,1.655762,0.2495117,-1.663574,-0.06982422,-0.07324219,0.2675781
1416,57,-324.6875,15.8125,1.558594,0.2807617,-1.63623,-0.04248047,-0.06933594,0.2705078
1420,47.1875,-320.25,19.75,1.709961,0.4282227,-1.543945,-0.02246094,-0.06689453,0.2714844
1424,34.5,-313.875,6.125,1.299316,0.3662109,-1.625,0.004394531,-0.06445313,0.2675781
1429,32.625,-314.6875,-5.4375,1.182617,0.3388672,-1.801758,0.03076172,-0.06298828,0.2636719
1433,46.0625,-336.5,-7.875,1.22168,0.1640625,-1.844238,0.04736328,-0.06201172,0.2583008
1437,63.875,-344.4375,14.5,1.52002,-0.006347656,-1.467285,0.07373047,-0.05810547,0.2485352
1441,76.9375,-327.125,33.25,1.438477,0.008789063,-1.144043,0.09619141,-0.05322266,0.2392578
1445,96,-303.4375,28.1875,1.244629,0.1333008,-0.9326172,0.1079102,-0.046875,0.230957
1449,106.375,-271.3125,11.125,1.101563,0.4360352,-0.7592773,0.1269531,-0.03808594,0.2211914
1453,79.25,-243.5625,7.625,1.000488,0.5913086,-0.5092773,0.1416016,-0.03076172,0.2089844
1457,33.125,-219.3125,25.375,0.8574219,0.4946289,-0.1323242,0.1508789,-0.02587891,0.2011719
1461,2.5,-176.8125,34.1875,0.9272461,0.2885742,0.1674805,0.1630859,-0.0234375,0.1914063
1465,-3.6875,-124.9375,24.4375,0.7138672,0.1254883,0.2250977,0.1723633,-0.02441406,0.1860352
1469,-3.5,-77.125,19.75,0.6635742,0.1914063,0.2480469,0.1772461,-0.02441406,0.1860352
1473,-14.75,-43.25,3.625,0.3110352,0.2416992,0.1132813,0.1806641,-0.02685547,0.1806641
1477,-23,-22.0625,0,0.3266602,0.09814453,0.1367188,0.1806641,-0.02587891,0.1806641
1481,-27.5625,5.375,-2.5,0.2954102,0.01269531,0.1098633,0.1821289,-0.02685547,0.1821289
1485,-29.875,29.4375,-4.5625,0.2568359,-0.04541016,0.04785156,0.1796875,-0.02685547,0.1821289
1489,-33.75,47.5,-1.75,0.140625,-0.02197266,-0.1206055,0.1782227,-0.03076172,0.1831055
1493,-33.8125,55.1875,-4.25,0.01660156,-0.09179688,-0.2592773,0.1782227,-0.03173828,0.1875
1497,-24.6875,59.1875,-2.4375,0.06298828,-0.1655273,-0.2475586,0.1738281,-0.03320313,0.1875
1501,-10.1875,72.8125,0.3125,0.2216797,-0.1928711,-0.1669922,0.1713867,-0.03710938,0.1899414
1505,1.875,95.5625,-0.375,0.3959961,-0.08007813,-0.109375,0.1674805,-0.03564453,0.1928711
1509,2.8125,126.625,-4.6875,0.5473633,0.05908203,-0.1166992,0.1616211,-0.03808594,0.1953125
1513,-14.625,161.75,-17.5,0.3847656,0.3120117,-0.4555664,0.1523438,-0.03808594,0.2050781
1517,-36.1875,168.3125,-25.4375,0.2333984,0.253418,-0.6977539,0.1474609,-0.04052734,0.2080078
1521,-53.1875,172.125,-12.5625,0.4233398,0.09814453,-0.6860352,0.1367188,-0.04296875,0.2119141
1525,-57.375,184.4375,10,0.7993164,-0.04541016,-0.5170898,0.128418,-0.04931641,0.2202148
1529,-61.6875,224.75,11.75,0.7836914,0.1796875,-0.7749023,0.1201172,-0.05175781,0.2255859
1533,-58.4375,236.6875,-3.125,0.7490234,0.21875,-0.9672852,0.105957,-0.05810547,0.2333984
1537,-64.4375,247.5625,-3.625,0.9619141,0.3120117,-0.9707031,0.09130859,-0.06591797,0.2402344
1541,-80.5,250.9375,6.875,1.213867,0.3701172,-0.9287109,0.07958984,-0.06835938,0.2485352
1545,-98.1875,272.1875,13.3125,1.574219,0.4125977,-0.9091797,0.06298828,-0.078125,0.2524414
1549,-108.75,294.375,15.8125,1.469727,0.3740234,-1.125,0.04052734,-0.08300781,0.2607422
1553,-100.875,303.5625,9.1875,1.349609,0.3120117,-1.436523,0.02587891,-0.09179688,0.262207
1558,-84.0625,295.875,14.125,1.202148,0.253418,-1.605469,0,-0.09960938,0.2661133
1562,-77.0625,282.9375,23.5625,1.260254,0.4204102,-1.578613,-0.02490234,-0.1054688,0.2675781
1566,-96.125,272,44.375,1.376465,0.5644531,-1.467285,-0.03759766,-0.109375,0.2675781
1570,-103.6875,277.1875,47.1875,1.430664,0.4868164,-1.45166,-0.06738281,-0.1157227,0.262207
1574,-85.1875,280.625,44.0625,1.260254,0.3505859,-1.528809,-0.09228516,-0.1206055,0.2553711
1578,-57.875,279.3125,34.875,1.244629,0.3505859,-1.520996,-0.109375,-0.1245117,0.2485352
1582,-34.5625,272.3125,30.625,1.26416,0.3818359,-1.486328,-0.1328125,-0.1279297,0.2416992
1586,-29.125,258.875,39.3125,1.353516,0.4790039,-1.371094,-0.1557617,-0.1254883,0.230957
1590,-34.625,249.5625,46.375,1.450195,0.5332031,-1.26709,-0.168457,-0.1269531,0.2211914
1594,-35.9375,246.6875,42.125,1.43457,0.5136719,-1.255371,-0.1889648,-0.1279297,0.206543
1598,-32.75,238.375,35.9375,1.368652,0.4477539,-1.205566,-0.206543,-0.1269531,0.1899414
1602,-26.25,226.625,37.625,1.29541,0.3779297,-1.182617,-0.2197266,-0.1254883,0.1777344
1606,-15.8125,214.125,34.4375,1.26416,0.3779297,-1.094238,-0.2353516,-0.1245117,0.1640625
1610,-9,207.625,26.0625,1.194336,0.4399414,-1.043945,-0.2485352,-0.1230469,0.1450195
1614,-9.0625,196.3125,21.5625,1.05127,0.4438477,-1.040039,-0.2568359,-0.1206055,0.1342773
1618,-12.1875,176.8125,22.125,0.8652344,0.4243164,-1.01709,-0.2651367,-0.1181641,0.1191406
1622,-13.8125,155.5625,23.875,0.7060547,0.3896484,-1.01709,-0.2744141,-0.1181641,0.1030273
1626,-13.625,134.0625,24.9375,0.6054688,0.3623047,-0.9980469,-0.2792969,-0.1157227,0.09228516
1630,-11.3125,111.5,20.5,0.5009766,0.3505859,-0.9980469,-0.2875977,-0.1142578,0.08251953
1634,-5.75,88.1875,15.3125,0.4155273,0.3120117,-1.01709,-0.2915039,-0.1118164,0.07324219
1638,-1,65.5,8.0625,0.3730469,0.3310547,-1.028809,-0.2924805,-0.1118164,0.06787109
1642,1.625,41.4375,-1.3125,0.3149414,0.3388672,-1.043945,-0.293457,-0.1108398,0.06103516
1646,6.375,12.0625,-9.4375,0.2255859,0.300293,-1.08252,-0.2949219,-0.1108398,0.05957031
1650,10.8125,-18.25,-14.9375,0.2915039,0.284668,-1.05957,-0.2949219,-0.1132813,0.05810547
1654,12.0625,-46.9375,-16.9375,0.3535156,0.269043,-1.066895,-0.293457,-0.1132813,0.05957031
1658,15,-74.9375,-18.375,0.4116211,0.2495117,-1.063477,-0.2900391,-0.1142578,0.06640625
1662,19.375,-99.875,-22.5625,0.4775391,0.2651367,-1.070801,-0.2900391,-0.1157227,0.07324219
1666,21.75,-123.9375,-29.5,0.59375,0.3310547,-1.094238,-0.2827148,-0.1166992,0.08251953
1670,19,-145.9375,-35.875,0.7216797,0.3896484,-1.097656,-0.2792969,-0.1196289,0.09765625
1674,13.25,-166.625,-42.25,0.8032227,0.3974609,-1.132324,-0.2744141,-0.1220703,0.105957
1678,10.25,-189.25,-43.3125,0.9038086,0.315918,-1.166992,-0.2661133,-0.1254883,0.1235352
1682,14.875,-209.0625,-41.25,1.074219,0.2807617,-1.205566,-0.2543945,-0.1279297,0.1381836
1687,23.8125,-225.6875,-43.9375,1.101563,0.3041992,-1.320801,-0.2436523,-0.1293945,0.1508789
1691,32.5,-245.5625,-44.375,1.229492,0.3544922,-1.355469,-0.2280273,-0.1318359,0.168457
1695,29.6875,-251.875,-48.5625,1.283691,0.4750977,-1.328613,-0.2114258,-0.1333008,0.1860352
1699,26.4375,-259.1875,-59.3125,1.326172,0.4829102,-1.355469,-0.1982422,-0.1342773,0.1967773
1703,34.4375,-270.375,-63.3125,1.349609,0.3583984,-1.344238,-0.1772461,-0.1381836,0.2133789
1707,48.5,-279.5,-53.4375,1.384277,0.3349609,-1.355469,-0.1557617,-0.1367188,0.2280273
1711,64.3125,-294,-43.375,1.419434,0.3740234,-1.397949,-0.1401367,-0.1357422,0.2333984
1715,69.9375,-300.4375,-39.5,1.484863,0.5488281,-1.371094,-0.112793,-0.1318359,0.2460938
1719,71.6875,-303.625,-39.375,1.531738,0.6147461,-1.355469,-0.08789063,-0.1293945,0.2553711
1723,76.8125,-305.4375,-44.375,1.438477,0.6186523,-1.413086,-0.06738281,-0.1279297,0.2583008
1727,81.125,-299.25,-45.75,1.411621,0.6459961,-1.482422,-0.04003906,-0.1220703,0.2636719
1731,89,-303.3125,-53,1.19043,0.6147461,-1.609375,-0.01269531,-0.1166992,0.262207
1735,89.3125,-314.125,-43.6875,1.395996,0.6264648,-1.524902,0.003417969,-0.1132813,0.2636719
1739,72.375,-305.875,-28.375,1.601563,0.6655273,-1.328613,0.03076172,-0.1069336,0.2607422
1743,62.125,-287.1875,-33.8125,1.454102,0.6303711,-1.174805,0.05322266,-0.09814453,0.2539063
1747,57.3125,-271.0625,-37.3125,1.477539,0.5722656,-0.9707031,0.06787109,-0.09570313,0.25
1751,50.75,-243.4375,-46.1875,1.186523,0.5410156,-0.8823242,0.08691406,-0.08935547,0.2416992
1755,45.375,-224.4375,-55.625,1.05127,0.4594727,-0.7207031,0.1020508,-0.08203125,0.2363281
1759,32.8125,-199.875,-56.625,0.7915039,0.3466797,-0.7016602,0.1118164,-0.078125,0.230957
1763,20.625,-179.875,-44.375,0.7490234,0.1098633,-0.6748047,0.125,-0.07421875,0.2255859
1767,30.1875,-166.9375,-35.9375,0.3691406,-0.1191406,-0.7749023,0.1333008,-0.06933594,0.21875
1771,56.375,-164.75,-30.25,0.3691406,-0.1538086,-0.6513672,0.1401367,-0.06835938,0.2133789
1775,60.875,-151.75,-7.75,0.5356445,0.05908203,-0.3051758,0.1484375,-0.06054688,0.206543
1779,48.8125,-123.625,-3.6875,0.5317383,0.2924805,-0.1245117,0.1582031,-0.05712891,0.2011719
1783,39.4375,-88.6875,-12.5625,0.4931641,0.3427734,-0.04736328,0.1606445,-0.05175781,0.199707
1787,35.9375,-61.5,-26.6875,0.125,0.2109375,-0.1782227,0.1650391,-0.04931641,0.1967773
1791,34.3125,-51.875,-17.3125,0.140625,0.1914063,-0.09765625,0.1674805,-0.04199219,0.1928711
1795,13.0625,-39.0625,5.25,0.2529297,0.3081055,0.001953125,0.1699219,-0.04052734,0.1928711
1799,-11.3125,-19.25,21.5625,0.3730469,0.2807617,0.1289063,0.1738281,-0.04052734,0.1914063
1803,-15.625,14.75,16.875,0.2529297,0.1953125,0.03662109,0.1738281,-0.04443359,0.1914063
1807,4.6875,40,-4.125,0.1171875,0.15625,-0.109375,0.1713867,-0.04589844,0.1928711
1811,10.125,58,-13.875,0.02050781,0.2651367,-0.2363281,0.1699219,-0.04589844,0.1943359
1816,-8.9375,64.75,-5.9375,0.04345703,0.3081055,-0.3208008,0.1665039,-0.04199219,0.1953125
1820,-30,72.4375,6.4375,0.159668,0.1914063,-0.34375,0.1630859,-0.04443359,0.2011719
1824,-37.5,89.375,14.875,0.2915039,0.1176758,-0.3554688,0.1606445,-0.04833984,0.199707
1828,-38.5,109.4375,19.6875,0.3999023,0.105957,-0.3666992,0.1547852,-0.05322266,0.2080078
1832,-34.875,138.75,14.3125,0.4580078,0.1796875,-0.5053711,0.1499023,-0.0546875,0.2089844
1836,-25.75,156.8125,-1.875,0.2685547,0.1796875,-0.7709961,0.1401367,-0.05957031,0.2133789
1840,-30.25,165.375,0.625,0.2724609,0.2573242,-0.8364258,0.1333008,-0.06201172,0.21875
1844,-46.5,165.1875,15.5625,0.2993164,0.2885742,-0.8515625,0.1259766,-0.06298828,0.2211914
1848,-67.8125,163.5,36.9375,0.6015625,0.3349609,-0.7094727,0.1166992,-0.06933594,0.2280273
1852,-80.1875,182.375,49.1875,0.9077148,0.3779297,-0.6899414,0.1069336,-0.07714844,0.2363281
1856,-75.8125,206.1875,39.875,0.9814453,0.3818359,-0.8017578,0.09619141,-0.08203125,0.2363281
1860,-63.4375,236.5,27.5,1.159668,0.4125977,-0.859375,0.08447266,-0.09082031,0.2446289
1864,-54.0625,256.5625,11.25,1.004395,0.4790039,-1.036133,0.06542969,-0.09716797,0.25
1868,-59.375,258.6875,14.875,1.089844,0.5175781,-1.063477,0.05224609,-0.09960938,0.2568359
1872,-75.625,262.4375,21.375,1.225586,0.5952148,-1.094238,0.03320313,-0.1044922,0.2592773
1876,-87.875,267.875,26.75,1.450195,0.5683594,-1.078613,0.01074219,-0.1108398,0.262207
1880,-101.6875,289.3125,29.25,1.725586,0.7119141,-1.040039,-0.001953125,-0.1166992,0.2636719
1884,-110.4375,304.375,23.6875,1.477539,0.6381836,-1.26709,-0.02929688,-0.1254883,0.2651367
1888,-94.4375,302.0625,13.25,1.430664,0.5097656,-1.33252,-0.05566406,-0.1333008,0.2607422
1892,-76.6875,304.75,9.625,1.407715,0.5136719,-1.416992,-0.07324219,-0.1367188,0.2553711
1896,-67.875,303.0625,7.375,1.271973,0.6030273,-1.536621,-0.1020508,-0.140625,0.25
1900,-81.5,291.75,10.3125,1.225586,0.7236328,-1.58252,-0.1259766,-0.1469727,0.2392578
1904,-95.5,271.8125,22.4375,1.229492,0.6342773,-1.543945,-0.1425781,-0.1494141,0.2280273
1908,-94.3125,257.75,35.1875,1.299316,0.5332031,-1.436523,-0.1640625,-0.1567383,0.2133789
1912,-78.1875,246.6875,40.6875,1.302734,0.4829102,-1.344238,-0.1816406,-0.1591797,0.1982422
1916,-63.5625,238.75,42.5,1.299316,0.5371094,-1.290039,-0.1962891,-0.1630859,0.1860352
1920,-57.375,225,43.6875,1.202148,0.5644531,-1.251953,-0.2128906,-0.1630859,0.168457
1924,-56.3125,210.1875,48.4375,1.171387,0.5527344,-1.155762,-0.2280273,-0.1621094,0.1508789
1928,-52.5625,194.9375,47.9375,1.101563,0.5371094,-1.08252,-0.2387695,-0.1621094,0.1396484
1932,-46.75,178.5,44.25,0.9736328,0.5253906,-1.040039,-0.2495117,-0.1606445,0.125
1936,-42,161.0625,43,0.8457031,0.4985352,-1.040039,-0.2592773,-0.1582031,0.105957
1940,-33.625,138.75,39.5,0.6870117,0.4360352,-1.032227,-0.2651367,-0.1582031,0.09765625
1945,-21.5,115.375,34.75,0.574707,0.3740234,-1.032227,-0.2724609,-0.1557617,0.08691406
1949,-6.1875,92.625,31.4375,0.4311523,0.3583984,-1.040039,-0.2768555,-0.1533203,0.07421875
1953,5,67.625,27.625,0.3149414,0.4243164,-1.066895,-0.2792969,-0.1518555,0.0703125
1957,7.6875,41.125,19.75,0.2255859,0.5058594,-1.113281,-0.2827148,-0.1494141,0.06494141
1961,2.4375,14.4375,11.125,0.1445313,0.5605469,-1.182617,-0.2841797,-0.1469727,0.06201172
1965,-0.75,-16.75,2,0.1367188,0.5058594,-1.236328,-0.2841797,-0.1455078,0.06201172
1969,6.875,-51.3125,-6.375,0.1054688,0.3974609,-1.278809,-0.2827148,-0.1430664,0.06494141
1973,20.4375,-84.8125,-13.375,0.2490234,0.3701172,-1.251953,-0.2827148,-0.1469727,0.06884766
1977,32,-113.8125,-18,0.3847656,0.3818359,-1.228516,-0.2768555,-0.1469727,0.07861328
1981,40.25,-137.625,-25.5,0.5395508,0.4282227,-1.224609,-0.2709961,-0.1479492,0.08935547
1985,43.4375,-158.625,-32.75,0.6362305,0.4750977,-1.286133,-0.2675781,-0.1479492,0.1015625
1989,43.6875,-182.0625,-37.5,0.6674805,0.4594727,-1.401855,-0.2617188,-0.1508789,0.1137695
1993,48.75,-211.5,-36.6875,0.7412109,0.3896484,-1.478516,-0.2509766,-0.1518555,0.1303711
1997,58.8125,-244.5,-29.1875,0.8457031,0.3583984,-1.547852,-0.2363281,-0.1508789,0.1508789
2001,66.875,-274.9375,-17.5625,1.039551,0.4052734,-1.540039,-0.2255859,-0.1494141,0.1630859
2005,64.625,-289.625,-15.9375,1.368652,0.6381836,-1.401855,-0.206543,-0.1469727,0.1875
2009,51.3125,-291,-25.3125,1.531738,0.7817383,-1.286133,-0.1855469,-0.1430664,0.2050781
2013,45.1875,-293.875,-42.125,1.46582,0.6845703,-1.317383,-0.168457,-0.1420898,0.2158203
2017,54.125,-299.875,-47.375,1.527832,0.5097656,-1.355469,-0.1450195,-0.1420898,0.230957
2021,74.5,-307.875,-39.75,1.605469,0.3544922,-1.336426,-0.1186523,-0.1396484,0.2460938
2025,91.5625,-314.75,-17.25,1.709961,0.315918,-1.286133,-0.09863281,-0.1342773,0.25
2029,96.5,-311.4375,3.8125,1.895996,0.5332031,-1.105469,-0.07324219,-0.1293945,0.2607422
2033,81.375,-279,-12.9375,1.884277,0.953125,-0.9438477,-0.04492188,-0.1220703,0.262207
2037,62.125,-252.6875,-43.75,1.411621,0.8632813,-1.051758,-0.02929688,-0.1196289,0.2651367
2041,51.5625,-246.25,-56.8125,1.16748,0.6845703,-1.209473,-0.006835938,-0.1132813,0.2661133
2045,49.3125,-247.625,-54.5625,1.027832,0.4907227,-1.259277,0.01416016,-0.1118164,0.2636719
2049,47.75,-243.5,-35.8125,0.9501953,0.3974609,-1.259277,0.02832031,-0.1083984,0.2607422
2053,45.9375,-245.125,-25.125,0.7177734,0.3896484,-1.351563,0.04882813,-0.1044922,0.2568359
2057,46.5625,-252.8125,-25.5625,0.6289063,0.3896484,-1.455566,0.06640625,-0.1005859,0.2485352
2061,49.9375,-259.625,-30.125,0.7915039,0.4477539,-1.336426,0.07958984,-0.09960938,0.2460938
2065,43.875,-250.75,-37.3125,0.7680664,0.4399414,-1.26709,0.09765625,-0.09570313,0.2363281
2069,41.5625,-241.5,-40.375,0.6362305,0.3349609,-1.251953,0.1142578,-0.09082031,0.2294922
2074,57.4375,-236,-54.1875,0.5239258,0.2416992,-1.270996,0.125,-0.08544922,0.2226563
2078,70.75,-231.375,-50.6875,0.6015625,0.3120117,-1.117188,0.1376953,-0.07958984,0.2119141
2082,61.8125,-222.0625,-40.6875,0.6518555,0.3310547,-0.9326172,0.1484375,-0.07080078,0.2036133
2086,49.625,-205.5,-24.375,0.7680664,0.1992188,-0.5209961,0.1582031,-0.06689453,0.1967773
2090,39.625,-163.4375,-11.5625,0.7255859,0.203125,-0.2900391,0.1665039,-0.06054688,0.1899414
2094,39.125,-124.5,-5.5,0.5976563,0.1875,-0.1245117,0.1738281,-0.05810547,0.1845703
2098,31,-99.6875,-6.5625,0.3652344,0.3427734,-0.08203125,0.1757813,-0.0546875,0.1806641
2102,5.4375,-71.375,-0.0625,0.4619141,0.4125977,0.03662109,0.1806641,-0.05175781,0.1762695
2106,-15.5,-48.8125,-5.3125,0.206543,0.2573242,-0.03613281,0.184082,-0.05322266,0.175293
2110,-22,-26.6875,-2.9375,0.140625,0.121582,-0.1054688,0.1879883,-0.05078125,0.1762695
2114,-20.125,-14.0625,1.4375,-0.02197266,0.09814453,-0.2055664,0.1865234,-0.05322266,0.1723633
2118,-18.75,-15.5,1.9375,-0.2041016,0.121582,-0.2744141,0.1865234,-0.05566406,0.1723633
2122,-29.3125,-12.8125,10.625,0.125,0.1445313,-0.07080078,0.1889648,-0.05566406,0.1723633
2126,-56.375,8.875,28.625,0.2954102,0.1953125,0.04443359,0.1904297,-0.05957031,0.1738281
2130,-78.6875,36.25,38.25,0.2836914,0.1445313,-0.05908203,0.1865234,-0.06689453,0.1723633
2134,-72.375,65.4375,33.5,0.2915039,-0.002441406,-0.2324219,0.1865234,-0.07177734,0.1738281
2138,-44.8125,91.8125,16.75,0.1328125,-0.07617188,-0.4282227,0.1831055,-0.078125,0.1762695
2142,-12.8125,108.25,1.0625,0.1289063,-0.1347656,-0.4863281,0.1782227,-0.08056641,0.1806641
2146,0.625,125.1875,8.4375,0.2490234,-0.06445313,-0.4785156,0.1738281,-0.08056641,0.1821289
2150,-4.1875,141.125,23.6875,0.2875977,0.05517578,-0.5439453,0.1674805,-0.08300781,0.1889648
2154,-12.875,164.5,26.75,0.1948242,0.237793,-0.7939453,0.1606445,-0.08544922,0.1953125
2158,-16.3125,166.9375,22.4375,0.2026367,0.2885742,-0.8823242,0.1533203,-0.08691406,0.1982422
2162,-31.25,173.0625,28.75,0.3188477,0.2768555,-0.8632813,0.144043,-0.08935547,0.206543
2166,-46.8125,181.6875,53.1875,0.5473633,0.2226563,-0.8745117,0.1367188,-0.09423828,0.2133789
2170,-41,202.625,42.5625,0.2724609,0.2807617,-1.197754,0.128418,-0.09960938,0.2158203
2174,-12.5,211.25,12.8125,0.3959961,0.2070313,-1.293945,0.1152344,-0.1030273,0.2241211
2178,24.375,229.625,-24.9375,0.2954102,0.1992188,-1.397949,0.1035156,-0.1030273,0.2333984
2182,34.4375,223.25,-33.5,0.4970703,0.3583984,-1.263184,0.09375,-0.1005859,0.237793
2186,1.5,218,-11.5,0.7490234,0.5913086,-1.117188,0.08056641,-0.09716797,0.2470703
2190,-45.4375,226.9375,10.75,0.8300781,0.777832,-1.147949,0.06298828,-0.09716797,0.2524414
2194,-62.25,233.0625,-2.125,0.7099609,0.7275391,-1.240234,0.04882813,-0.09960938,0.2568359
2198,-62.625,241.5,-15.75,0.6713867,0.6845703,-1.255371,0.03173828,-0.1044922,0.2607422
2203,-61.9375,228.75,-20.5,0.6870117,0.6264648,-1.132324,0.01269531,-0.109375,0.262207
2207,-81.0625,216.25,6.5,0.9423828,0.6538086,-1.013184,0,-0.1118164,0.2661133
2211,-103.75,211.25,39.375,1.155762,0.6186523,-0.9516602,-0.01757813,-0.1196289,0.2651367
2215,-108.4375,216,59,1.268066,0.5449219,-0.9326172,-0.0390625,-0.1254883,0.262207
2219,-95.75,231.0625,58.9375,1.268066,0.5292969,-0.9477539,-0.05078125,-0.1342773,0.262207
2223,-73.875,235.4375,49.5625,1.155762,0.5644531,-0.9980469,-0.07324219,-0.1381836,0.2553711
2227,-70.8125,232.25,46.875,1.229492,0.7236328,-0.9746094,-0.09472656,-0.1420898,0.2514648
2231,-92.0625,230.0625,56.9375,1.241211,0.7856445,-0.9902344,-0.1103516,-0.1455078,0.2446289
2235,-110.75,218.75,70.125,1.237305,0.7275391,-0.9672852,-0.128418,-0.1494141,0.2324219
2239,-116.25,216.9375,79.75,1.306641,0.6342773,-0.9707031,-0.1508789,-0.1557617,0.2202148
2243,-105.25,218.1875,75.5,1.337891,0.5527344,-0.9594727,-0.1625977,-0.1557617,0.2133789
2247,-90.5,219.375,74.25,1.349609,0.4790039,-0.9594727,-0.1791992,-0.1606445,0.199707
2251,-76.25,217.625,74.5,1.357422,0.4868164,-0.9477539,-0.199707,-0.1621094,0.1831055
2255,-67.8125,213.1875,72.625,1.322266,0.5253906,-0.9399414,-0.2104492,-0.1630859,0.1723633
2259,-61.0625,209,70.4375,1.29541,0.5097656,-0.9477539,-0.2270508,-0.1606445,0.15625
2263,-55.25,204.625,68.25,1.16748,0.5097656,-0.9902344,-0.2412109,-0.1557617,0.137207
2267,-46.4375,191.9375,62.75,1.000488,0.4829102,-1.043945,-0.2519531,-0.1567383,0.1274414
2271,-35.8125,177.1875,53.3125,0.9194336,0.4790039,-1.040039,-0.2626953,-0.1533203,0.1098633
2275,-27.375,163.375,42.375,0.8613281,0.4946289,-1.043945,-0.2709961,-0.1508789,0.09228516
2279,-18.5,144.8125,32.9375,0.659668,0.4282227,-1.101563,-0.2758789,-0.1479492,0.08105469
2283,-7.375,118.9375,27.3125,0.4892578,0.3818359,-1.128418,-0.2817383,-0.1445313,0.06884766
2287,5.1875,89.6875,22.75,0.3378906,0.3310547,-1.155762,-0.2866211,-0.1420898,0.06103516
2291,21.0625,58.9375,19,0.2451172,0.300293,-1.170898,-0.2875977,-0.1396484,0.05517578
2295,38.5,31.5,9.875,0.2104492,0.3271484,-1.224609,-0.2890625,-0.1381836,0.04980469
2299,50.8125,2.1875,-3.25,0.09375,0.4204102,-1.293945,-0.2900391,-0.1357422,0.04980469
2303,50.4375,-35.5,-13.125,0.06689453,0.4985352,-1.328613,-0.2900391,-0.1367188,0.05419922
2307,40.9375,-74.9375,-15.0625,0.09033203,0.5058594,-1.33252,-0.2866211,-0.1367188,0.05664063
2311,30.5,-111.9375,-16,0.1870117,0.5136719,-1.348145,-0.2851563,-0.1367188,0.06640625
2315,28,-147.125,-19.1875,0.2954102,0.4165039,-1.344238,-0.2817383,-0.1381836,0.07324219
2319,34.6875,-179.625,-19.125,0.4038086,0.3623047,-1.38623,-0.2768555,-0.1396484,0.08789063
2323,42.375,-207.8125,-24.4375,0.625,0.4321289,-1.405762,-0.2700195,-0.1381836,0.1069336
2327,47.6875,-231,-36.125,0.8339844,0.5136719,-1.436523,-0.2617188,-0.140625,0.1206055
2332,51.125,-246.6875,-49.8125,1.047363,0.5371094,-1.44043,-0.2460938,-0.140625,0.1411133
2336,56.75,-263.0625,-53.625,1.198242,0.4672852,-1.459473,-0.2280273,-0.1430664,0.1630859
2340,69,-283.3125,-43.5625,1.248535,0.4086914,-1.540039,-0.2163086,-0.1430664,0.1777344
2344,84.625,-302.75,-34.5625,1.461914,0.4594727,-1.498047,-0.1962891,-0.1420898,0.199707
2348,95.75,-305.4375,-34.25,1.616699,0.5952148,-1.45166,-0.1708984,-0.1367188,0.2172852
2352,95.4375,-298.125,-48.0625,1.717773,0.824707,-1.424805,-0.1542969,-0.1333008,0.2294922
2356,79.1875,-297.125,-60.6875,1.670898,0.8520508,-1.44043,-0.1293945,-0.1279297,0.2431641
2360,61.1875,-308.0625,-52,1.674805,0.7197266,-1.490234,-0.1020508,-0.1269531,0.2539063
2364,51.625,-323.5625,-30.125,1.678711,0.5605469,-1.486328,-0.08300781,-0.1245117,0.2568359
2368,50.3125,-335.5625,-9.5625,1.706055,0.5175781,-1.467285,-0.05322266,-0.1220703,0.262207
2372,50.75,-334.1875,-4.8125,1.72168,0.5449219,-1.351563,-0.02246094,-0.1196289,0.262207
2376,50.4375,-315.6875,-10.375,1.775879,0.6225586,-1.20166,-0.004394531,-0.1166992,0.2636719
2380,63,-286.0625,-42.125,1.458008,0.7001953,-1.205566,0.02246094,-0.1118164,0.2607422
2384,87.625,-259.25,-95.1875,0.9462891,0.6772461,-1.543945,0.04394531,-0.1054688,0.2553711
2388,106,-271.3125,-126.0625,0.7138672,0.5800781,-1.770996,0.05712891,-0.1020508,0.2524414
2392,106.6875,-299.9375,-91.75,1.004395,0.4555664,-1.478516,0.07958984,-0.08935547,0.2460938
2396,76.6875,-310.5625,-38.0625,1.19043,0.4438477,-1.066895,0.1010742,-0.078125,0.237793
2400,49.5,-291.8125,-14.75,1.256348,0.4052734,-0.8168945,0.112793,-0.07714844,0.2294922
2404,54.25,-248.375,-19.75,1.333984,0.203125,-0.5131836,0.1308594,-0.07080078,0.21875
2408,90.0625,-189.375,-64.875,0.7836914,0.1875,-0.6054688,0.1450195,-0.06445313,0.2089844
2412,111.5625,-168.125,-79.75,0.5087891,0.2807617,-0.5014648,0.1484375,-0.05712891,0.2050781
2416,79.9375,-160,-47.8125,0.609375,0.3388672,-0.2089844,0.1582031,-0.04443359,0.199707
2420,30.9375,-143.5,-3.5625,0.625,0.2265625,0.02099609,0.1650391,-0.03808594,0.1914063
2424,5.9375,-108.5,19.0625,0.7099609,0.04003906,0.2250977,0.1699219,-0.03710938,0.1889648
2428,5.625,-61.0625,21.1875,0.6518555,0.03613281,0.2749023,0.1757813,-0.03710938,0.1831055
2432,11.5625,-19,6.6875,0.4506836,0.1020508,0.1748047,0.1772461,-0.03710938,0.1821289
2436,10.5625,6.1875,-5.1875,0.2993164,0.1523438,0.06347656,0.1757813,-0.03808594,0.1845703
2440,0.25,24.875,-4.5,0.2646484,0.1254883,0.001953125,0.1757813,-0.03564453,0.1831055
2444,-10.6875,39.75,3.875,0.2104492,0.04394531,-0.07470703,0.1738281,-0.03564453,0.1845703
2448,-14.9375,52,10.3125,0.1557617,-0.006347656,-0.1206055,0.1748047,-0.03564453,0.1875
2452,-17.5625,68.6875,16.3125,0.2104492,0.03613281,-0.1474609,0.1689453,-0.04052734,0.1914063
2456,-17.8125,83.9375,15.5,0.206543,0.07470703,-0.2592773,0.1665039,-0.04052734,0.1899414
2461,-15.6875,100.875,14.3125,0.3266602,0.09033203,-0.2939453,0.1640625,-0.04443359,0.1943359
2465,-16.625,120.4375,14.0625,0.3959961,0.1445313,-0.3286133,0.1582031,-0.04833984,0.1967773
2469,-22.625,145,17.9375,0.5395508,0.2226563,-0.3632813,0.1533203,-0.04833984,0.2050781
2473,-32.625,169.6875,14.375,0.4970703,0.3120117,-0.5629883,0.1459961,-0.05078125,0.2080078
2477,-43.25,189.1875,4.75,0.3999023,0.3623047,-0.8515625,0.1376953,-0.0546875,0.2143555
2481,-47.9375,190.9375,3.6875,0.3847656,0.2495117,-1.020996,0.1269531,-0.05810547,0.2226563
2485,-58.875,194.75,24.625,0.6132813,0.300293,-0.9902344,0.1186523,-0.06054688,0.2255859
2489,-73.75,200.375,43.375,0.6870117,0.3310547,-1.020996,0.1069336,-0.06933594,0.2363281
2493,-80.1875,215.0625,52.0625,0.8032227,0.4438477,-1.105469,0.09375,-0.07568359,0.2402344
2497,-76.8125,229.6875,31.125,0.6518555,0.5214844,-1.320801,0.08300781,-0.08056641,0.2460938
2501,-71.5625,232.9375,15.5,0.7993164,0.4594727,-1.317383,0.06787109,-0.08837891,0.2553711
2505,-76.625,233.8125,24.3125,0.9541016,0.4516602,-1.255371,0.04882813,-0.09326172,0.2583008
2509,-85.875,235.9375,40.875,1.132324,0.4672852,-1.197754,0.03808594,-0.09960938,0.2607422
2513,-88.625,244,45.875,1.179199,0.4985352,-1.217285,0.01660156,-0.1054688,0.2651367
2517,-83.25,253.5625,40.6875,1.147949,0.4868164,-1.30957,-0.004394531,-0.1132813,0.2661133
2521,-71.4375,257.125,30.9375,1.0625,0.4750977,-1.424805,-0.02001953,-0.1157227,0.2661133
2525,-60.1875,257.9375,18.125,0.9970703,0.4790039,-1.551758,-0.04248047,-0.1220703,0.2651367
2529,-55.5625,249.625,12.875,0.8881836,0.4711914,-1.628906,-0.06640625,-0.1254883,0.262207
2533,-62.6875,236.1875,15.3125,0.8222656,0.4907227,-1.670898,-0.08056641,-0.1269531,0.2592773
2537,-72.8125,223.75,20.875,0.8261719,0.4790039,-1.740234,-0.1020508,-0.1293945,0.2539063
2541,-75.0625,205.125,17.625,0.7568359,0.4711914,-1.778809,-0.1210938,-0.1367188,0.2446289
2545,-76.1875,184.8125,17.4375,0.8222656,0.4360352,-1.628906,-0.1303711,-0.1420898,0.237793
2549,-81.25,162.1875,31.5625,0.9736328,0.3701172,-1.297852,-0.1459961,-0.1469727,0.2280273
2553,-76.3125,154.75,46.125,1.198242,0.3081055,-0.9208984,-0.1591797,-0.1508789,0.2202148
2557,-60.4375,161.0625,55.625,1.29541,0.3701172,-0.6977539,-0.1708984,-0.1518555,0.2133789
2561,-46.625,160.4375,51.1875,1.121094,0.5566406,-0.5864258,-0.1806641,-0.1518555,0.2011719
2565,-40.125,164.125,43.25,1.117188,0.6186523,-0.4785156,-0.1962891,-0.1518555,0.1889648
2569,-30.4375,170.1875,32.9375,1.070313,0.5019531,-0.4628906,-0.2055664,-0.1518555,0.1831055
2573,-17.3125,174.9375,31.125,1.0625,0.4438477,-0.4555664,-0.2172852,-0.1533203,0.1699219
2577,-17.8125,177.25,36.75,1.059082,0.5488281,-0.4516602,-0.2294922,-0.1494141,0.1572266
2581,-23.75,176.0625,30.5625,0.9970703,0.5761719,-0.5209961,-0.2387695,-0.1494141,0.1494141
2585,-25.8125,171.9375,26.5,0.8999023,0.5136719,-0.5976563,-0.2485352,-0.1479492,0.1328125
2590,-26.8125,161.6875,24.3125,0.8339844,0.5136719,-0.6899414,-0.2578125,-0.1469727,0.1191406
2594,-24.625,151.125,16.875,0.7641602,0.4750977,-0.7709961,-0.2636719,-0.1455078,0.1098633
2598,-17.3125,138.125,7.9375,0.6328125,0.3935547,-0.8862305,-0.2724609,-0.1445313,0.09765625
2602,-7.125,119.0625,0.8125,0.4892578,0.3701172,-1.020996,-0.2768555,-0.1445313,0.08398438
2606,1.3125,91.5625,-6.0625,0.3496094,0.3583984,-1.13623,-0.2783203,-0.1445313,0.07568359
2610,6.5,57.8125,-8.125,0.2177734,0.3349609,-1.221191,-0.2817383,-0.1469727,0.07324219
2614,9.375,19.75,-6.5,0.159668,0.3310547,-1.278809,-0.2841797,-0.1455078,0.06640625
2618,14.6875,-18.0625,-8.3125,0.1518555,0.3120117,-1.367188,-0.2817383,-0.1455078,0.06640625
2622,22.6875,-51.875,-14.375,0.1831055,0.3120117,-1.413086,-0.2807617,-0.1469727,0.06884766
2626,29.9375,-86.1875,-19.875,0.2685547,0.3349609,-1.416992,-0.2792969,-0.1469727,0.07568359
2630,33.625,-118,-25.5,0.3378906,0.3466797,-1.367188,-0.2758789,-0.1479492,0.08251953
2634,38.625,-149.875,-27.75,0.4697266,0.3232422,-1.348145,-0.2700195,-0.1479492,0.09472656
2638,44.75,-180,-24.125,0.59375,0.3120117,-1.344238,-0.2626953,-0.1508789,0.1113281
2642,51.5625,-210.125,-17.9375,0.7333984,0.2885742,-1.375,-0.2568359,-0.1494141,0.1206055
2646,61.375,-237.125,-12.6875,0.8999023,0.3081055,-1.378906,-0.2426758,-0.1508789,0.1411133
2650,68.25,-253.375,-12.6875,1.13623,0.4282227,-1.344238,-0.2280273,-0.1469727,0.1630859
2654,69.625,-265.9375,-15.75,1.244629,0.4711914,-1.313477,-0.2163086,-0.1445313,0.1738281
2658,73,-278.125,-11.6875,1.302734,0.4086914,-1.340332,-0.1972656,-0.140625,0.1953125
2662,79.3125,-291.3125,-4.3125,1.353516,0.4052734,-1.405762,-0.1782227,-0.1367188,0.2143555
2666,89.8125,-305.9375,5.6875,1.364746,0.3505859,-1.501953,-0.1601563,-0.1318359,0.2255859
2670,100.375,-318,16.6875,1.376465,0.3779297,-1.609375,-0.1352539,-0.1269531,0.2416992
2674,103.5,-323.5625,19.0625,1.364746,0.5605469,-1.709473,-0.109375,-0.1181641,0.2524414
2678,93.3125,-321.625,-2.375,1.349609,0.809082,-1.80957,-0.09130859,-0.1132813,0.2607422
2682,74.0625,-331.25,-17.3125,1.527832,0.8208008,-1.76709,-0.06396484,-0.1069336,0.2675781
2686,53.3125,-332.3125,-11.625,1.729004,0.7041016,-1.663574,-0.03076172,-0.1020508,0.269043
2690,42,-328,-2.625,1.663574,0.5566406,-1.644043,-0.01416016,-0.1005859,0.269043
2694,45.3125,-324.8125,1.3125,1.628418,0.4438477,-1.586426,0.01660156,-0.09716797,0.2651367
2698,55.25,-308.375,-2.625,1.647949,0.4360352,-1.405762,0.04150391,-0.09326172,0.2592773
2702,68.875,-282.3125,-23.9375,1.473633,0.5019531,-1.236328,0.05712891,-0.09082031,0.2568359
2706,76.625,-262.5,-38,1.473633,0.5332031,-1.001465,0.08056641,-0.08300781,0.2460938
2710,50.125,-232.4375,-26.3125,1.46582,0.5800781,-0.6362305,0.09619141,-0.07714844,0.2392578
2714,12.75,-196.875,-4,1.16748,0.4204102,-0.4902344,0.105957,-0.07568359,0.2363281
2719,3.0625,-171.8125,-11.625,0.675293,0.2963867,-0.628418,0.1176758,-0.07177734,0.2280273
2723,15.25,-156.375,-32.375,0.3574219,0.21875,-0.7978516,0.128418,-0.07177734,0.2226563
2727,35.8125,-153.5,-59.5625,0.1948242,0.06298828,-0.8364258,0.1318359,-0.06835938,0.21875
2731,41.3125,-151.3125,-49.25,0.2646484,-0.006347656,-0.7133789,0.1401367,-0.06201172,0.2133789
2735,32.0625,-148,-25.125,0.3032227,-0.03759766,-0.5898438,0.1484375,-0.05566406,0.2080078
2739,27.5625,-137.75,-7.125,0.3149414,-0.04541016,-0.4785156,0.1533203,-0.05322266,0.2036133
2743,33.5625,-122.75,-14.4375,0.2138672,0.02441406,-0.4824219,0.1606445,-0.04833984,0.1982422
2747,39.75,-106.25,-17.5,0.3417969,0.08251953,-0.309082,0.1689453,-0.046875,0.1928711
2751,36,-88.8125,-27.25,0.2373047,0.1176758,-0.1977539,0.1713867,-0.04199219,0.1889648
2755,27.125,-65.5625,-19.25,0.3925781,-0.006347656,-0.01318359,0.1757813,-0.03955078,0.1889648
2759,21,-39.25,-0.4375,0.4619141,-0.08007813,0.140625,0.1782227,-0.03564453,0.1845703
2763,14.8125,-1.3125,15.25,0.4697266,0.02050781,0.2021484,0.1806641,-0.03564453,0.1831055
2767,7.9375,27.3125,18,0.3457031,0.140625,0.105957,0.1796875,-0.03466797,0.1831055
2771,-2.75,50.125,10.25,0.2216797,0.2612305,-0.04736328,0.1772461,-0.03564453,0.1845703
2775,-12.3125,68.3125,0.1875,0.1713867,0.237793,-0.1591797,0.1772461,-0.03808594,0.1875
2779,-21.8125,82.25,0,0.1948242,0.1445313,-0.1899414,0.1713867,-0.03808594,0.1899414
2783,-31.4375,98.4375,10.0625,0.3110352,0.07470703,-0.1821289,0.1665039,-0.04052734,0.1953125
2787,-40.375,122.1875,22.4375,0.3417969,0.09423828,-0.3476563,0.1630859,-0.04296875,0.1953125
2791,-40.5,136.625,19.5,0.2138672,0.1367188,-0.6054688,0.1557617,-0.046875,0.2021484
2795,-41.0625,145.25,15.0625,0.3110352,0.2148438,-0.6938477,0.1508789,-0.05175781,0.2080078
2799,-56.25,156.875,24.125,0.4619141,0.2456055,-0.6708984,0.144043,-0.05566406,0.2119141
2803,-75.5,173.8125,34,0.4970703,0.2416992,-0.7094727,0.1342773,-0.06201172,0.2158203
2807,-81.375,197.125,38.3125,0.4428711,0.2885742,-0.9746094,0.1235352,-0.07177734,0.2255859
2811,-64.9375,198.1875,18.5625,0.3188477,0.2456055,-1.197754,0.1166992,-0.078125,0.2294922
2815,-49.1875,200.5,7.6875,0.5708008,0.2807617,-1.121094,0.1044922,-0.08203125,0.2333984
2819,-58.125,208.4375,16.4375,0.8071289,0.3623047,-0.9902344,0.08886719,-0.08691406,0.2431641
2823,-81.0625,218.5625,42.5625,1.151855,0.4052734,-0.894043,0.08056641,-0.08935547,0.2470703
2827,-97.125,242,63.25,1.341797,0.4052734,-0.9672852,0.06396484,-0.09960938,0.2524414
2831,-82.5625,271.9375,52,1.151855,0.4282227,-1.248047,0.04248047,-0.109375,0.2583008
2835,-51.875,275.0625,16.1875,0.9736328,0.4438477,-1.447754,0.02978516,-0.1157227,0.2592773
2839,-31.375,276.9375,-7.25,1.124512,0.4321289,-1.355469,0.006835938,-0.1166992,0.2651367
2843,-37,273.5625,7.25,1.260254,0.4633789,-1.255371,-0.01757813,-0.1196289,0.2661133
2848,-67.4375,269.6875,42.25,1.516113,0.5913086,-1.113281,-0.03320313,-0.1196289,0.2651367
2852,-93.4375,280.375,54.5,1.713867,0.6772461,-1.090332,-0.05908203,-0.1269531,0.262207
2856,-91.3125,290.6875,41,1.574219,0.5136719,-1.205566,-0.08544922,-0.1318359,0.2568359
2860,-66.1875,299.875,27.4375,1.644043,0.4672852,-1.197754,-0.1020508,-0.1357422,0.25
2864,-48,308.5,14.125,1.438477,0.5214844,-1.33252,-0.1269531,-0.1381836,0.2402344
2868,-46.9375,297.0625,17.9375,1.364746,0.5683594,-1.33252,-0.1542969,-0.1396484,0.2270508
2872,-67.9375,278.5625,42.6875,1.248535,0.6069336,-1.30957,-0.1699219,-0.140625,0.2158203
2876,-80.9375,253.625,57,1.252441,0.6069336,-1.248047,-0.1899414,-0.1445313,0.199707
2880,-83.75,241.5625,63.6875,1.318359,0.5214844,-1.163086,-0.2080078,-0.1455078,0.1845703
2884,-71.5625,229.6875,62.75,1.252441,0.4360352,-1.155762,-0.2197266,-0.1469727,0.168457
2888,-56.1875,220.9375,58.9375,1.241211,0.4594727,-1.086426,-0.2363281,-0.1455078,0.1494141
2892,-43.4375,212.75,54,1.124512,0.4516602,-1.05957,-0.2495117,-0.1420898,0.1303711
2896,-35.625,201.8125,47.0625,1.023926,0.5214844,-1.01709,-0.2617188,-0.1420898,0.1181641
2900,-34.9375,189.8125,39.875,0.8842773,0.5253906,-1.036133,-0.2700195,-0.1367188,0.1000977
2904,-31,166.5625,32.9375,0.6982422,0.4868164,-1.08252,-0.2792969,-0.1357422,0.08251953
2908,-27.3125,141.75,27.25,0.5859375,0.4672852,-1.117188,-0.2827148,-0.1342773,0.07421875
2912,-21.0625,112.5,24.1875,0.4389648,0.4052734,-1.151855,-0.2890625,-0.1308594,0.05957031
2916,-11.125,81.25,25.1875,0.2685547,0.3349609,-1.205566,-0.2924805,-0.1308594,0.05126953
2920,3.9375,42.3125,22.5625,0.125,0.3310547,-1.297852,-0.2924805,-0.1279297,0.04882813
2924,13.5,3.625,17.5625,0.1328125,0.4165039,-1.30957,-0.2958984,-0.1279297,0.04296875
2928,12,-31.875,8.8125,0.1289063,0.4985352,-1.324707,-0.293457,-0.1245117,0.04736328
2932,12.8125,-65.75,-7.0625,0.1831055,0.5019531,-1.317383,-0.2924805,-0.1254883,0.04882813
2936,20.5625,-93.8125,-27.5625,0.2412109,0.4399414,-1.348145,-0.2924805,-0.1254883,0.05517578
2940,34.5,-124.625,-42.3125,0.3417969,0.3818359,-1.336426,-0.2890625,-0.1279297,0.06640625
2944,47.8125,-155.8125,-49.8125,0.4116211,0.3701172,-1.344238,-0.2851563,-0.1293945,0.07324219
2948,53.625,-187.875,-49.125,0.578125,0.4125977,-1.351563,-0.2758789,-0.1318359,0.09082031
2952,53.125,-217.1875,-46.625,0.7294922,0.4477539,-1.367188,-0.2675781,-0.1333008,0.1123047
2956,49.6875,-243,-43,0.9116211,0.4438477,-1.375,-0.2578125,-0.1367188,0.1235352
2960,47.25,-262.875,-40.6875,1.144043,0.4399414,-1.363281,-0.2436523,-0.1396484,0.1450195
2964,49.25,-277,-39.25,1.306641,0.3857422,-1.328613,-0.2246094,-0.1396484,0.168457
2968,57.0625,-290.6875,-30.125,1.407715,0.284668,-1.317383,-0.2138672,-0.140625,0.1821289
2972,68.625,-299,-14,1.500488,0.203125,-1.328613,-0.1914063,-0.1367188,0.2036133
2977,80.375,-306.75,-2.6875,1.516113,0.2109375,-1.432617,-0.168457,-0.1318359,0.2211914
2981,85.75,-313.375,10.9375,1.616699,0.1914063,-1.501953,-0.1533203,-0.1279297,0.2333984
2985,89,-314.75,17.3125,1.729004,0.269043,-1.51709,-0.1269531,-0.1245117,0.2460938
2989,92.875,-307.0625,-0.5625,1.845703,0.4633789,-1.413086,-0.09960938,-0.1166992,0.2568359
2993,91.625,-286.1875,-14.625,1.89209,0.4907227,-1.328613,-0.08300781,-0.1108398,0.2592773
2997,93.9375,-274.125,-27.625,1.612793,0.4165039,-1.340332,-0.05810547,-0.1030273,0.2661133
3001,92,-267.5,-26,1.446289,0.3896484,-1.416992,-0.03320313,-0.09960938,0.269043
3005,94.9375,-284.6875,-22.125,1.198242,0.3662109,-1.547852,-0.01757813,-0.09326172,0.2675781
3009,95.0625,-295,-13.75,1.147949,0.4985352,-1.578613,0.008300781,-0.08544922,0.2661133
3013,94.0625,-296.75,-9.625,1.016113,0.6108398,-1.640137,0.03320313,-0.078125,0.2651367
3017,78,-301.5,-42.5625,0.7255859,0.777832,-1.748047,0.04980469,-0.07080078,0.2592773
3021,60.4375,-315.375,-45.1875,1.101563,0.6884766,-1.551758,0.06982422,-0.06445313,0.2514648
3025,42.75,-301.1875,-36.25,1.066406,0.6264648,-1.509277,0.09375,-0.05957031,0.2416992
3029,43.125,-300,-60.4375,0.6791992,0.5214844,-1.644043,0.1069336,-0.05566406,0.2348633
3033,48.9375,-308.25,-54.6875,0.9580078,0.3935547,-1.270996,0.125,-0.05078125,0.2226563
3037,31.8125,-299.0625,-19.8125,1.155762,0.3271484,-0.6630859,0.1416016,-0.04199219,0.2104492
3041,2.6875,-259.1875,19.5,1.543457,0.284668,0.06738281,0.1547852,-0.03955078,0.2021484
3045,-14.625,-178,20.4375,1.546875,0.08642578,0.5712891,0.1665039,-0.04052734,0.1914063
3049,-9.5625,-88.6875,7.1875,1.314453,-0.1113281,0.6904297,0.1757813,-0.04199219,0.1860352
3053,3.5,-19.125,-0.3125,0.8535156,-0.08398438,0.4287109,0.1772461,-0.04199219,0.1845703
3057,12.625,15.75,-11.8125,0.3457031,0.04394531,0.05957031,0.1748047,-0.04199219,0.1831055
3061,10.0625,28.8125,-21.625,0.06689453,0.1679688,-0.2055664,0.1748047,-0.03808594,0.1875
3065,-16.875,21.5,-15.5,-0.1342773,0.21875,-0.3129883,0.1713867,-0.03710938,0.1860352
3069,-52.5625,5.875,4.375,-0.07226563,0.07861328,-0.2592773,0.1689453,-0.03710938,0.1875
3073,-75.625,7.0625,26.875,0.2294922,-0.1577148,-0.07470703,0.1699219,-0.04199219,0.1889648
3077,-70.625,30,39,0.4077148,-0.340332,0.009765625,0.1699219,-0.04833984,0.1899414
3081,-42.3125,63.125,35.4375,0.4506836,-0.3286133,-0.04394531,0.1665039,-0.0546875,0.1914063
3085,-6.5,94.8125,14.125,0.3847656,-0.1772461,-0.1782227,0.1630859,-0.05810547,0.1928711
3089,11.8125,118.875,-0.9375,0.3574219,-0.006347656,-0.2705078,0.1616211,-0.06054688,0.1953125
3093,7.1875,135.9375,0.375,0.4077148,0.09814453,-0.3012695,0.1547852,-0.05810547,0.199707
3097,-13.3125,156.5625,11.4375,0.5395508,0.1757813,-0.3745117,0.1474609,-0.05957031,0.206543
3101,-33.875,178.9375,22.5625,0.6015625,0.1992188,-0.4863281,0.1416016,-0.06298828,0.2119141
3106,-46.0625,202.5,31.125,0.6289063,0.284668,-0.7285156,0.1293945,-0.06689453,0.2172852
3110,-46,211.75,16.8125,0.3959961,0.300293,-0.9707031,0.1186523,-0.07177734,0.2270508
3114,-48.1875,209,15.8125,0.7099609,0.2924805,-0.9326172,0.1103516,-0.07714844,0.2324219
3118,-59.9375,218.1875,32.75,0.9697266,0.2612305,-0.8325195,0.09619141,-0.08056641,0.237793
3122,-67.1875,237.125,54.125,1.105469,0.3271484,-0.9555664,0.08056641,-0.08935547,0.2485352
3126,-60.9375,251.75,53.25,1.213867,0.3779297,-1.005371,0.06982422,-0.09326172,0.25
3130,-51.125,272.4375,49.5,1.481445,0.4711914,-1.051758,0.04980469,-0.09960938,0.2553711
3134,-43.375,289.9375,35.5625,1.496582,0.5449219,-1.166992,0.02978516,-0.1030273,0.2607422
3138,-44.5,298.125,39.6875,1.729004,0.5527344,-1.140137,0.01269531,-0.1069336,0.262207
3142,-54.1875,313,56.4375,1.853027,0.4829102,-1.155762,-0.01416016,-0.109375,0.2651367
3146,-58.0625,321.375,77.125,1.954102,0.4711914,-1.244141,-0.04248047,-0.1108398,0.2651367
3150,-51.5625,329.0625,78.1875,1.915039,0.5292969,-1.378906,-0.06494141,-0.1142578,0.2636719
3154,-41.25,329.8125,68.5625,1.895996,0.5253906,-1.394043,-0.09472656,-0.1142578,0.2568359
3158,-36.1875,334.3125,62.8125,1.845703,0.5058594,-1.397949,-0.1235352,-0.1142578,0.2485352
3162,-47.8125,332.8125,30.0625,1.620605,1.100586,-1.513184,-0.1459961,-0.1132813,0.2402344
3166,-70.4375,320.125,-1.9375,1.950195,1.205566,-1.543945,-0.1708984,-0.1157227,0.2255859
3170,-50.5625,354,10.3125,1.589844,0.2807617,-1.444336,-0.1948242,-0.1206055,0.2050781
3174,-68.375,303.375,91.75,1.388184,0.09033203,-1.70166,-0.2114258,-0.1206055,0.1889648
3178,-59,265.8125,104.0625,1.368652,0.1835938,-1.590332,-0.2353516,-0.1181641,0.1669922
3182,-22.1875,251.4375,77.5,1.42334,0.08642578,-1.44043,-0.2509766,-0.1142578,0.1479492
3186,27.375,264,29.4375,1.372559,0.09033203,-1.394043,-0.2617188,-0.1108398,0.1313477
3190,51.9375,261.125,-1.125,1.035645,0.2416992,-1.436523,-0.2758789,-0.1054688,0.1069336
3194,36.875,232.1875,-0.875,0.7993164,0.3857422,-1.375,-0.2866211,-0.1044922,0.08544922
3198,-2.25,198,23.375,0.7294922,0.4204102,-1.248047,-0.2924805,-0.1005859,0.0703125
3202,-33.3125,167.5625,45.5,0.5820313,0.3583984,-1.213379,-0.2983398,-0.09814453,0.05517578
3206,-34.875,132.625,47.6875,0.3999023,0.2924805,-1.221191,-0.3032227,-0.09570313,0.0390625
3210,-20.5625,98.0625,33.625,0.3110352,0.300293,-1.186523,-0.3066406,-0.09423828,0.03076172
3214,-3.375,70.4375,16.4375,0.2685547,0.315918,-1.144043,-0.3066406,-0.08837891,0.02001953
3218,12.5625,44.9375,-0.5625,0.2138672,0.3701172,-1.105469,-0.309082,-0.08935547,0.01464844
3222,16.5,16.875,-10.875,0.175293,0.4633789,-1.070801,-0.3105469,-0.09082031,0.01171875
3226,11.3125,-19.3125,-20.25,0.109375,0.5058594,-1.078613,-0.3081055,-0.09179688,0.01318359
3230,6.125,-57.1875,-30.875,0.2138672,0.4829102,-1.032227,-0.3081055,-0.09179688,0.01464844
3235,5.5,-85.625,-43.3125,0.3305664,0.4477539,-1.009277,-0.3066406,-0.09423828,0.02294922
3239,6.6875,-110.625,-50.3125,0.4116211,0.3818359,-1.01709,-0.3056641,-0.09960938,0.02978516
3243,7.125,-139.75,-53.625,0.4775391,0.3388672,-1.040039,-0.3017578,-0.1054688,0.04052734
3247,4.25,-168.25,-50.0625,0.675293,0.3271484,-1.066895,-0.2958984,-0.1083984,0.05273438
3251,-1.4375,-191.5625,-47.0625,0.8574219,0.2924805,-1.078613,-0.2900391,-0.109375,0.06884766
3255,-3.375,-207.3125,-43.1875,1.039551,0.253418,-1.074707,-0.2827148,-0.1166992,0.08691406
3259,-4.375,-226.125,-43.9375,1.151855,0.2338867,-1.090332,-0.2758789,-0.1196289,0.1000977
3263,-1.6875,-244.5,-39.1875,1.29541,0.2148438,-1.094238,-0.2651367,-0.1245117,0.1206055
3267,0.875,-259.1875,-28.9375,1.454102,0.171875,-1.08252,-0.2485352,-0.1279297,0.1425781
3271,6,-268.3125,-23.9375,1.570313,0.1875,-1.063477,-0.237793,-0.1279297,0.1533203
3275,13.625,-273.125,-23.5,1.69043,0.2265625,-1.028809,-0.2211914,-0.1308594,0.175293
3279,18.5,-273.1875,-23.875,1.760254,0.284668,-1.013184,-0.2021484,-0.1318359,0.1943359
3283,25.625,-269.125,-28.125,1.818359,0.300293,-0.9633789,-0.1875,-0.1318359,0.206543
3287,30.625,-257.25,-27.5,1.76416,0.3041992,-0.9360352,-0.1665039,-0.1318359,0.2202148
3291,37.6875,-255.625,-24.8125,1.620605,0.2963867,-0.9941406,-0.1484375,-0.1318359,0.2324219
3295,42.4375,-254.0625,-16.0625,1.578125,0.3583984,-1.032227,-0.1328125,-0.1308594,0.2416992
3299,38.4375,-250.3125,-11.3125,1.376465,0.4321289,-1.144043,-0.1113281,-0.1308594,0.2485352
3303,31,-264.125,-10.3125,1.333984,0.4438477,-1.170898,-0.09033203,-0.1279297,0.2553711
3307,17.0625,-266.8125,-3.1875,1.508301,0.4790039,-1.078613,-0.07128906,-0.1269531,0.2583008
3311,5,-262.0625,-4.375,1.706055,0.4633789,-0.8632813,-0.04980469,-0.1279297,0.2607422
3315,-2.5,-234.75,-7.625,1.512207,0.4282227,-0.859375,-0.02929688,-0.1279297,0.2607422
3319,13.1875,-220.4375,-30.25,1.097656,0.300293,-1.040039,-0.01611328,-0.1279297,0.2607422
3323,46.9375,-218.3125,-46.8125,0.8222656,0.2807617,-1.251953,0.004394531,-0.1269531,0.2583008
3327,73.375,-222.625,-64.9375,0.8535156,0.3120117,-1.263184,0.02148438,-0.1220703,0.2583008
3331,87.5625,-227,-64.25,0.9155273,0.2807617,-1.113281,0.03417969,-0.1157227,0.2539063
3335,79.5625,-217.3125,-33.875,1.016113,0.2963867,-0.9633789,0.05078125,-0.1069336,0.2514648
3339,66.5625,-199.3125,-20.25,0.7060547,0.3623047,-1.047852,0.06542969,-0.1005859,0.2470703
3343,61.8125,-197.3125,-29.5625,0.5317383,0.4243164,-1.13623,0.07617188,-0.09570313,0.2460938
3347,53.5625,-201.5,-39.875,0.5473633,0.3466797,-1.055664,0.08886719,-0.08837891,0.2392578
3351,41.875,-199.125,-24.9375,0.6518555,0.1333008,-0.84375,0.1020508,-0.08300781,0.2333984
3355,30.3125,-196.5625,1.8125,0.5708008,-0.08398438,-0.6899414,0.1103516,-0.078125,0.230957
3359,35.625,-188.6875,28.125,0.559082,-0.2587891,-0.6245117,0.1235352,-0.07568359,0.2241211
3364,59.75,-177.3125,30.875,0.2758789,-0.2431641,-0.7055664,0.1333008,-0.07324219,0.2172852
3368,88.1875,-186,36.625,0.1445313,-0.1230469,-0.7553711,0.1401367,-0.07080078,0.2119141
3372,97.1875,-182.9375,33.1875,0.4658203,0.07080078,-0.3745117,0.1533203,-0.06201172,0.2050781
3376,80.75,-138.625,51.8125,0.7529297,0.1796875,-0.009277344,0.1630859,-0.05810547,0.1982422
3380,53.5,-70.25,53.0625,0.7993164,0.3388672,0.2558594,0.1689453,-0.05712891,0.1928711
3384,25.25,-12.9375,30.3125,0.559082,0.4052734,0.2060547,0.1699219,-0.0546875,0.1928711
3388,-1.3125,25.875,19.3125,0.4541016,0.3427734,0.1210938,0.1713867,-0.05566406,0.1943359
3392,-24.4375,50.125,18.9375,0.2104492,0.2416992,-0.112793,0.1699219,-0.05712891,0.1943359
3396,-35.875,60.125,18.9375,0.03955078,0.15625,-0.3325195,0.1665039,-0.05810547,0.1953125
3400,-38.3125,66.6875,18.5,0.04345703,0.15625,-0.394043,0.1616211,-0.06298828,0.1982422
3404,-37.5625,76.8125,13.75,0.1445313,0.1757813,-0.34375,0.1616211,-0.06591797,0.2011719
3408,-35.5,92.625,2.875,0.3032227,0.1484375,-0.2285156,0.1567383,-0.07080078,0.2050781
3412,-35.4375,124.8125,-5.1875,0.5126953,0.15625,-0.2207031,0.1499023,-0.07324219,0.2080078
3416,-37.5625,155.25,-12.5,0.5317383,0.1953125,-0.3706055,0.1425781,-0.07568359,0.2119141
3420,-42.1875,175.3125,-13.125,0.5200195,0.2651367,-0.5170898,0.1342773,-0.078125,0.2172852
3424,-54.5,188.9375,-14.1875,0.559082,0.3120117,-0.6206055,0.1225586,-0.08544922,0.2241211
3428,-73.1875,209,-12.375,0.6713867,0.3896484,-0.7285156,0.112793,-0.08691406,0.2294922
3432,-94,221.5,-16.8125,0.5976563,0.3662109,-0.8710938,0.1010742,-0.09570313,0.2363281
3436,-103.3125,225,-8.5625,0.7216797,0.2495117,-0.9438477,0.08691406,-0.1030273,0.2402344
3440,-102.9375,228.625,6,0.8574219,0.1445313,-0.9438477,0.07617188,-0.1118164,0.2416992
3444,-94.625,238.8125,17.8125,0.9462891,0.171875,-1.01709,0.05957031,-0.1206055,0.2460938
3448,-83.375,245.9375,19.1875,1.128418,0.2265625,-1.001465,0.04150391,-0.1293945,0.2514648
3452,-73.3125,258.6875,17.8125,1.101563,0.2768555,-1.144043,0.02832031,-0.1318359,0.2514648
3456,-55.25,255.375,11,1.144043,0.2885742,-1.128418,0.009277344,-0.1396484,0.2524414
3460,-37.625,258.8125,18.6875,1.361328,0.2768555,-1.001465,-0.01171875,-0.1420898,0.2553711
3464,-27.1875,263.9375,36.25,1.546875,0.3818359,-0.9208984,-0.02587891,-0.1455078,0.2553711
3468,-29.6875,276.25,43,1.717773,0.5058594,-0.8745117,-0.05078125,-0.1455078,0.2524414
3472,-33.1875,291.75,40.3125,1.837891,0.4946289,-0.9052734,-0.07470703,-0.1469727,0.25
3476,-27.0625,300.6875,42.4375,1.830078,0.4321289,-1.009277,-0.09033203,-0.1469727,0.2460938
3480,-23.8125,303.5,51.125,1.849121,0.4985352,-1.074707,-0.1186523,-0.1469727,0.237793
3484,-25.8125,303.0625,57.3125,1.798828,0.5371094,-1.125,-0.1459961,-0.1455078,0.2294922
3488,-32.25,301.25,59.5,1.798828,0.5761719,-1.151855,-0.1601563,-0.1430664,0.2202148
3493,-41.75,300.5625,60.25,1.760254,0.5761719,-1.174805,-0.184082,-0.1430664,0.2036133
3497,-47.125,296.75,60.25,1.678711,0.5175781,-1.213379,-0.206543,-0.1396484,0.1845703
3501,-44.375,288,60,1.589844,0.4477539,-1.232422,-0.222168,-0.140625,0.1708984
3505,-38.5625,275.6875,56.3125,1.516113,0.4711914,-1.224609,-0.2412109,-0.1367188,0.1464844
3509,-36.375,267.0625,54.0625,1.469727,0.4946289,-1.182617,-0.2578125,-0.1318359,0.1235352
3513,-38.3125,256.125,47.8125,1.260254,0.4868164,-1.20166,-0.2675781,-0.1318359,0.1083984
3517,-40.125,237.8125,42.6875,1.089844,0.4594727,-1.205566,-0.2783203,-0.1269531,0.08691406
3521,-40.9375,214.5,45.75,0.9155273,0.4013672,-1.15918,-0.2890625,-0.1245117,0.06347656
3525,-37.6875,190,47.5625,0.7333984,0.3466797,-1.151855,-0.2949219,-0.1230469,0.05126953
3529,-29.5625,160.5,45.5,0.5859375,0.315918,-1.117188,-0.2998047,-0.1166992,0.03076172
3533,-21.6875,134.625,41.4375,0.5126953,0.3271484,-1.086426,-0.3017578,-0.1132813,0.01855469
3537,-16.125,108.1875,33.0625,0.4311523,0.3740234,-1.074707,-0.3056641,-0.1108398,0.0078125
3541,-11.75,76.8125,20.5625,0.3149414,0.3896484,-1.078613,-0.3066406,-0.1069336,-0.002441406
3545,-4.3125,41.9375,6.625,0.2646484,0.3466797,-1.032227,-0.3066406,-0.1069336,-0.006835938
3549,0.875,8.6875,0.125,0.3032227,0.3232422,-0.9785156,-0.3081055,-0.1044922,-0.009277344
3553,3.75,-25.125,-3.8125,0.3227539,0.3349609,-0.9130859,-0.309082,-0.1083984,-0.01074219
3557,2.5,-53.8125,-10.75,0.3959961,0.3544922,-0.8979492,-0.3066406,-0.1069336,-0.006835938
3561,2.5,-79.75,-17.3125,0.4506836,0.3081055,-0.9208984,-0.3056641,-0.1083984,0
3565,7.375,-106.375,-22.6875,0.4389648,0.2573242,-0.9824219,-0.3056641,-0.1083984,0.0078125
3569,17,-135,-27,0.5356445,0.2495117,-1.01709,-0.3032227,-0.1108398,0.01708984
3573,25.25,-164.875,-29.5,0.625,0.284668,-1.08252,-0.3017578,-0.1142578,0.02832031
3577,27.3125,-198,-24.5625,0.7797852,0.3041992,-1.128418,-0.2958984,-0.1157227,0.04589844
3581,24.125,-225.1875,-13.8125,0.9775391,0.3193359,-1.151855,-0.2900391,-0.1196289,0.06640625
3585,18.9375,-250.375,-10.25,1.02002,0.3388672,-1.20166,-0.2841797,-0.1206055,0.08398438
3589,18.5625,-278.875,-16.4375,1.085938,0.3349609,-1.282715,-0.2734375,-0.1196289,0.1069336
3593,25.75,-305.6875,-23.75,1.244629,0.2963867,-1.320801,-0.2578125,-0.1196289,0.1303711
3597,36.625,-327.3125,-27.125,1.512207,0.269043,-1.30957,-0.2470703,-0.1245117,0.1494141
3601,44.6875,-331.9375,-17.0625,1.806641,0.2885742,-1.197754,-0.2255859,-0.1245117,0.1738281
3605,46.25,-316.4375,-28.4375,1.954102,0.5136719,-1.128418,-0.2045898,-0.1206055,0.1967773
3609,39.5625,-305.5625,-55.8125,1.86084,0.6303711,-1.140137,-0.1889648,-0.1230469,0.2119141
3613,32.625,-301.1875,-71.6875,1.845703,0.4946289,-1.178711,-0.1625977,-0.1245117,0.2255859
3617,30.8125,-300.0625,-72.4375,1.756348,0.4125977,-1.224609,-0.1391602,-0.1279297,0.2392578
3622,33.75,-301.5,-53.25,1.729004,0.3310547,-1.313477,-0.1186523,-0.1293945,0.2470703
3626,33.9375,-308.1875,-43.0625,1.694336,0.3041992,-1.359375,-0.09228516,-0.1293945,0.2539063
3630,29.8125,-314.25,-23.1875,1.682617,0.2885742,-1.33252,-0.06494141,-0.1279297,0.2607422
3634,27.5625,-311.9375,-17.125,1.651855,0.2495117,-1.232422,-0.04833984,-0.1293945,0.262207
3638,36.875,-301.6875,-25.5,1.539551,0.2612305,-1.174805,-0.02001953,-0.1254883,0.262207
3642,51.4375,-282.375,-39.0625,1.554688,0.237793,-1.086426,0.003417969,-0.1230469,0.2607422
3646,62.9375,-262.9375,-64.875,1.043457,0.3232422,-1.221191,0.02001953,-0.1196289,0.2583008
3650,68.5,-263.4375,-70.375,0.8183594,0.3081055,-1.390137,0.04150391,-0.1132813,0.2539063
3654,84.3125,-294.875,-100.125,0.206543,0.2495117,-1.770996,0.06396484,-0.1054688,0.25
3658,111.75,-336.25,-99.25,0.5551758,0.1992188,-1.828613,0.07958984,-0.09814453,0.2446289
3662,117.0625,-333.3125,-74.875,1.078125,0.1640625,-1.505859,0.1010742,-0.08544922,0.2363281
3666,82.3125,-282.4375,-11.6875,1.372559,0.3701172,-0.9248047,0.1235352,-0.07324219,0.2211914
3670,33.375,-253.75,16,1.082031,0.3583984,-0.6206055,0.1357422,-0.07080078,0.21875
3674,17.5,-219.9375,11.125,0.8339844,0.2963867,-0.5439453,0.1499023,-0.06689453,0.2080078
3678,36.3125,-188.0625,-7.25,0.8457031,0.1953125,-0.394043,0.1630859,-0.06298828,0.1982422
3682,49.1875,-146.1875,-25.4375,0.7255859,0.2807617,-0.2207031,0.1674805,-0.06054688,0.1928711
3686,38.9375,-113.1875,-25.75,0.6791992,0.2456055,-0.03613281,0.1738281,-0.05322266,0.1889648
3690,18.5625,-76.25,-7,0.7373047,0.09423828,0.1748047,0.1821289,-0.04833984,0.1821289
3694,3.25,-36.9375,11.6875,0.4892578,0.06298828,0.09033203,0.1831055,-0.04931641,0.1806641
3698,4.1875,-24.5,18.6875,0.2255859,0.1098633,-0.05126953,0.1855469,-0.046875,0.1806641
3702,8.125,-11.6875,10.6875,0.159668,0.1875,-0.0859375,0.1865234,-0.04931641,0.1777344
3706,8,3.6875,-0.8125,0.2177734,0.1679688,0.005859375,0.1865234,-0.04931641,0.1791992
3710,2.6875,25.9375,-7.25,0.2875977,0.1254883,0.03662109,0.184082,-0.04833984,0.1806641
3714,-4.25,46.875,-10.25,0.1870117,0.1098633,-0.0859375,0.184082,-0.04833984,0.1821289
3718,-13.125,57.6875,-5.1875,0.175293,0.105957,-0.1782227,0.1806641,-0.04931641,0.1831055
3722,-24.1875,67.5,3.5625,0.1791992,0.09814453,-0.2592773,0.1782227,-0.04833984,0.1875
3726,-31,82.4375,4.75,0.2724609,0.1020508,-0.3286133,0.1748047,-0.05322266,0.1889648
3730,-34.3125,106.5,0.6875,0.3457031,0.06298828,-0.3862305,0.1723633,-0.05566406,0.1928711
3734,-38.3125,136.0625,-1.75,0.4428711,0.1098633,-0.5439453,0.1665039,-0.05810547,0.1953125
3738,-46.125,160.375,-5.5625,0.2954102,0.1679688,-0.8056641,0.1591797,-0.06445313,0.2036133
3742,-54.6875,166.625,-4.25,0.1674805,0.1835938,-0.9902344,0.1533203,-0.06445313,0.2080078
3746,-59.4375,166.5,-5.375,0.1328125,0.1333008,-1.128418,0.1416016,-0.07080078,0.2143555
3751,-58.25,169.9375,-6,0.08642578,0.2070313,-1.297852,0.1333008,-0.078125,0.2211914
3755,-56.1875,167.125,-3.625,0.1791992,0.1875,-1.297852,0.125,-0.08300781,0.2270508
3759,-57.625,171.9375,3.6875,0.2177734,0.2265625,-1.297852,0.1166992,-0.08447266,0.2294922
3763,-60,168.875,12.25,0.2607422,0.1796875,-1.30957,0.105957,-0.09082031,0.2363281
3767,-56.3125,168.9375,16.3125,0.2294922,0.315918,-1.44043,0.09765625,-0.09423828,0.2392578
3771,-56.1875,158.875,11.3125,0.3032227,0.3779297,-1.413086,0.08544922,-0.09960938,0.2431641
3775,-61.0625,157.625,15.125,0.5161133,0.3623047,-1.263184,0.07617188,-0.1054688,0.2470703
3779,-67.125,163.8125,25.1875,0.7412109,0.300293,-1.113281,0.06787109,-0.109375,0.2485352
3783,-71.6875,180.4375,34.375,0.9311523,0.3388672,-1.024902,0.05322266,-0.1166992,0.2524414
3787,-72.5625,200.75,26.8125,1.023926,0.4360352,-1.01709,0.04052734,-0.1220703,0.2568359
3791,-69.0625,214.6875,14.0625,1.074219,0.4282227,-1.024902,0.02587891,-0.1279297,0.2583008
3795,-60.9375,225.125,7.5625,1.147949,0.3544922,-0.9863281,0.008300781,-0.1333008,0.2607422
3799,-59.4375,234.875,17.4375,1.213867,0.3466797,-0.9438477,-0.01025391,-0.1357422,0.2592773
3803,-62.6875,239.1875,34.375,1.213867,0.3623047,-0.9438477,-0.0234375,-0.140625,0.2607422
3807,-61.25,238.4375,50.875,1.26416,0.4013672,-0.9169922,-0.04589844,-0.1445313,0.2592773
3811,-56.625,238.25,54.25,1.330078,0.4946289,-0.878418,-0.06884766,-0.1455078,0.2539063
3815,-55.75,246.0625,50.5,1.481445,0.5683594,-0.84375,-0.08300781,-0.1469727,0.2524414
3819,-54.875,258.125,43.75,1.612793,0.4907227,-0.7978516,-0.1054688,-0.1518555,0.2446289
3823,-52.9375,272.5625,47.25,1.608887,0.4204102,-0.9091797,-0.128418,-0.1518555,0.2363281
3827,-48.875,276.1875,50.9375,1.469727,0.3662109,-1.043945,-0.1425781,-0.1518555,0.2280273
3831,-45.625,271.375,60.625,1.388184,0.3505859,-1.155762,-0.1674805,-0.1542969,0.2133789
3835,-40.6875,263.4375,66.625,1.345703,0.3583984,-1.20166,-0.1889648,-0.1508789,0.199707
3839,-37,256.0625,67.9375,1.326172,0.4125977,-1.228516,-0.203125,-0.1533203,0.1845703
3843,-38.0625,248.5,65.9375,1.287598,0.4477539,-1.255371,-0.222168,-0.1469727,0.1669922
3847,-37.125,234.1875,63.5625,1.13623,0.3896484,-1.328613,-0.237793,-0.1420898,0.1494141
3851,-29.125,214.4375,61.9375,1.016113,0.3427734,-1.305664,-0.2495117,-0.140625,0.1357422
3855,-18.875,195.875,61.1875,0.8920898,0.3505859,-1.255371,-0.2626953,-0.1381836,0.1181641
3859,-9.375,174.0625,57.375,0.6948242,0.3818359,-1.240234,-0.2734375,-0.1308594,0.1015625
3863,-1.5,149.75,50.875,0.527832,0.4243164,-1.209473,-0.2768555,-0.1269531,0.09228516
3867,5.4375,124.3125,39.5,0.3925781,0.4711914,-1.186523,-0.2866211,-0.1230469,0.07861328
3871,11.125,96,22.875,0.2568359,0.5019531,-1.193848,-0.2890625,-0.1206055,0.06787109
3875,17.4375,66.3125,8.1875,0.1831055,0.5019531,-1.217285,-0.2924805,-0.1196289,0.06347656
3880,20.9375,33.25,-2.75,0.07861328,0.5253906,-1.259277,-0.2949219,-0.1196289,0.05810547
3884,18.5,-4.6875,-7.6875,0.004882813,0.5332031,-1.301758,-0.2958984,-0.1181641,0.05517578
3888,11.5,-47,-8.625,-0.02587891,0.5097656,-1.328613,-0.2958984,-0.1181641,0.05664063
3892,4.8125,-89.8125,-10.4375,0.07861328,0.4790039,-1.313477,-0.2890625,-0.1196289,0.06640625
3896,3.5625,-122.375,-17.1875,0.2954102,0.4282227,-1.26709,-0.2890625,-0.1206055,0.07421875
3900,7.9375,-147.875,-29.6875,0.4155273,0.4086914,-1.286133,-0.2851563,-0.1220703,0.08251953
3904,15.5,-173.4375,-42.125,0.543457,0.3544922,-1.305664,-0.2768555,-0.1245117,0.09912109
3908,26.375,-197.375,-47.8125,0.6635742,0.2924805,-1.340332,-0.2685547,-0.1279297,0.1166992
3912,38.4375,-225.75,-47.6875,0.7490234,0.2651367,-1.375,-0.2602539,-0.1308594,0.1274414
3916,46.3125,-252.1875,-38.9375,0.9697266,0.2885742,-1.428711,-0.2460938,-0.1342773,0.144043
3920,50.75,-274.8125,-30.8125,1.175293,0.3701172,-1.436523,-0.2280273,-0.1342773,0.1669922
3924,48.375,-284.0625,-34.375,1.450195,0.5292969,-1.382324,-0.2163086,-0.1333008,0.1831055
3928,51.5625,-288.6875,-44.375,1.469727,0.5761719,-1.359375,-0.1962891,-0.1342773,0.2021484
3932,60.8125,-295.25,-55.6875,1.504395,0.5839844,-1.378906,-0.1723633,-0.1333008,0.2172852
3936,71.6875,-302.75,-61.1875,1.500488,0.4907227,-1.409668,-0.1557617,-0.1318359,0.2280273
3940,81.9375,-312.375,-51.75,1.539551,0.4360352,-1.420898,-0.1269531,-0.1318359,0.2416992
3944,82.875,-317.5,-35.75,1.516113,0.5566406,-1.471191,-0.1020508,-0.1254883,0.2539063
3948,61.8125,-321.625,-23.0625,1.527832,0.7856445,-1.509277,-0.08056641,-0.1220703,0.2607422
3952,22.8125,-321.5625,-30.5625,1.484863,0.9643555,-1.528809,-0.05224609,-0.1206055,0.2651367
3956,-14.6875,-319.5625,-50.6875,1.5625,0.9140625,-1.436523,-0.02246094,-0.1220703,0.2651367
3960,-28.75,-301.375,-64.25,1.558594,0.5878906,-1.420898,-0.005859375,-0.1230469,0.2636719
3964,-17.4375,-286.9375,-70.0625,1.388184,0.2265625,-1.44043,0.02490234,-0.1279297,0.2583008
3968,13.1875,-276.9375,-65.375,1.229492,-0.01025391,-1.447754,0.04736328,-0.1279297,0.2539063
3972,53.375,-271.1875,-54.6875,1.0625,-0.01025391,-1.486328,0.06054688,-0.1254883,0.2485352
3976,74.8125,-273.375,-39.5625,1.147949,0.1757813,-1.351563,0.08203125,-0.1206055,0.2402344
3980,75,-261.6875,-24.1875,1.066406,0.2612305,-1.217285,0.1010742,-0.1108398,0.2333984
3984,62.1875,-244.4375,-17.9375,0.8613281,0.3857422,-1.101563,0.1118164,-0.1083984,0.2270508
3988,54.875,-230,-28.25,0.5551758,0.4165039,-1.151855,0.1259766,-0.1030273,0.21875
3992,49.1875,-224.625,-46.75,0.3417969,0.4438477,-1.213379,0.1391602,-0.09570313,0.2089844
3996,42.5625,-227.1875,-51.625,0.5356445,0.237793,-1.024902,0.1459961,-0.09179688,0.2050781
4000,38.25,-208.25,-34.8125,0.7099609,0.02441406,-0.6669922,0.1591797,-0.08544922,0.1953125
4004,44.0625,-183,-22.1875,0.7216797,-0.06445313,-0.4321289,0.1674805,-0.078125,0.1899414
4009,46.3125,-147.6875,-14.5,0.5976563,0.1293945,-0.3359375,0.1748047,-0.07324219,0.1821289
4013,40,-122.8125,-13.25,0.3613281,0.2768555,-0.3325195,0.1806641,-0.06933594,0.1777344
4017,35.875,-105.4375,-27.5,0.2294922,0.2299805,-0.3208008,0.1879883,-0.06591797,0.1708984
4021,34.375,-88.75,-21.4375,0.4506836,0.171875,-0.04003906,0.1904297,-0.06201172,0.1699219
4025,21.0625,-52.875,-5.375,0.675293,0.1601563,0.2675781,0.1948242,-0.05810547,0.1669922
4029,0,-11.0625,2.0625,0.6210938,0.1835938,0.3134766,0.1948242,-0.05957031,0.1640625
4033,-8.875,30.625,-0.9375,0.5009766,0.1484375,0.1826172,0.1948242,-0.05712891,0.1655273
4037,-8.3125,56.375,-11.25,0.1831055,0.1757813,-0.09765625,0.1938477,-0.05957031,0.1669922
4041,-10.625,64,-17.5625,0.01269531,0.2226563,-0.2553711,0.1904297,-0.05957031,0.168457
4045,-25.0625,67.5625,-13.0625,0.03955078,0.1484375,-0.2744141,0.1879883,-0.05810547,0.1723633
4049,-32.9375,74.4375,0.1875,0.1635742,-0.04882813,-0.2128906,0.1831055,-0.05810547,0.1762695
4053,-28.6875,91.625,12.5,0.3457031,-0.1381836,-0.1938477,0.1782227,-0.06298828,0.1762695
4057,-20.125,120.125,20.375,0.5976563,-0.06445313,-0.1938477,0.1757813,-0.06445313,0.1806641
4061,-16.0625,154,21.625,0.6791992,0.1020508,-0.3012695,0.1713867,-0.06933594,0.1860352
4065,-20.5625,182.25,11.875,0.578125,0.237793,-0.5053711,0.1616211,-0.07324219,0.1928711
4069,-29.375,202.6875,3.875,0.5087891,0.300293,-0.6938477,0.1557617,-0.07421875,0.199707
4073,-33.1875,213.5625,-4.4375,0.5898438,0.2226563,-0.8017578,0.1450195,-0.07714844,0.2080078
4077,-37,232.875,0.75,0.7875977,0.1992188,-0.859375,0.1333008,-0.08203125,0.2172852
4081,-42.6875,245.9375,15.9375,0.9389648,0.1445313,-0.9208984,0.1235352,-0.08447266,0.2226563
4085,-37.8125,265.0625,26.75,1.059082,0.203125,-1.020996,0.1103516,-0.09082031,0.230957
4089,-26.75,277.4375,2.875,0.7099609,0.4243164,-1.351563,0.09130859,-0.09326172,0.2416992
4093,-24,269.5,-20.1875,0.7333984,0.5097656,-1.467285,0.07861328,-0.09423828,0.2446289
4097,-35.0625,263.3125,-26.0625,0.8222656,0.4633789,-1.51709,0.06054688,-0.09326172,0.2539063
4101,-52.4375,256.5625,-12.5625,0.9155273,0.3740234,-1.536621,0.0390625,-0.09716797,0.2607422
4105,-59.125,244.1875,3.6875,0.8652344,0.2456055,-1.536621,0.02490234,-0.1005859,0.2636719
4109,-52.8125,234.375,14.9375,0.9775391,0.2148438,-1.540039,0.005859375,-0.1044922,0.2661133
4113,-46,232.3125,21.9375,1.206055,0.3388672,-1.475098,-0.01611328,-0.1069336,0.2675781
4117,-43.5,239.6875,24.375,1.310547,0.4438477,-1.428711,-0.03076172,-0.1108398,0.269043
4121,-44.5625,246,19.5,1.306641,0.5214844,-1.378906,-0.05322266,-0.1108398,0.2661133
4125,-49.5625,255.75,18.8125,1.349609,0.5214844,-1.340332,-0.07324219,-0.1142578,0.262207
4129,-58.5,258.75,22.125,1.318359,0.5488281,-1.324707,-0.09033203,-0.1157227,0.2583008
4133,-69.5625,260.8125,36.25,1.345703,0.5175781,-1.297852,-0.1137695,-0.1181641,0.2524414
4138,-73.875,255.75,47.0625,1.241211,0.5175781,-1.336426,-0.1352539,-0.1230469,0.2416992
4142,-70.25,245.5625,47.1875,1.256348,0.5058594,-1.274902,-0.1508789,-0.1269531,0.2324219
4146,-67.9375,244.4375,46.1875,1.349609,0.5488281,-1.186523,-0.1708984,-0.1293945,0.21875
4150,-68.9375,241.75,43.4375,1.275879,0.5410156,-1.221191,-0.1914063,-0.1293945,0.2036133
4154,-69,229.9375,42.75,1.237305,0.5175781,-1.19043,-0.2045898,-0.1318359,0.1928711
4158,-69.3125,217.9375,45.125,1.121094,0.4750977,-1.20166,-0.21875,-0.1318359,0.175293
4162,-64.875,203.375,44.5625,1.031738,0.3974609,-1.151855,-0.2353516,-0.1293945,0.1572266
4166,-52.25,188.625,42.375,0.9350586,0.3120117,-1.117188,-0.2446289,-0.1318359,0.1464844
4170,-41.125,177,39.3125,0.9423828,0.3349609,-1.024902,-0.2553711,-0.1318359,0.1303711
4174,-35.875,166.3125,39.625,0.8535156,0.3623047,-1.013184,-0.2675781,-0.1279297,0.1152344
4178,-29.625,143.8125,33.875,0.574707,0.3623047,-1.040039,-0.2744141,-0.1279297,0.105957
4182,-24.25,122.625,30.9375,0.4155273,0.3544922,-1.070801,-0.2792969,-0.1254883,0.09228516
4186,-16.625,97.5,23.8125,0.1987305,0.3583984,-1.15918,-0.2827148,-0.1230469,0.08105469
4190,-8.9375,66.3125,14.9375,0.008789063,0.3701172,-1.263184,-0.2875977,-0.1220703,0.07568359
4194,-4.125,27.75,7.9375,-0.09130859,0.3818359,-1.324707,-0.2900391,-0.1206055,0.06884766
4198,-2.9375,-13,2.0625,-0.07617188,0.3701172,-1.359375,-0.2900391,-0.1206055,0.06787109
4202,1.6875,-51.875,-6.4375,-0.03320313,0.3232422,-1.371094,-0.2890625,-0.1206055,0.0703125
4206,10.625,-86.375,-15.9375,0.07861328,0.300293,-1.351563,-0.2875977,-0.1220703,0.07568359
4210,17.4375,-113.5625,-25.6875,0.09765625,0.3310547,-1.405762,-0.2841797,-0.1220703,0.08691406
4214,25.625,-146.0625,-34.0625,0.1367188,0.2963867,-1.540039,-0.2792969,-0.1206055,0.09472656
4218,36.3125,-184.1875,-41.3125,0.2758789,0.3271484,-1.628906,-0.2724609,-0.1254883,0.1083984
4222,44,-221,-40.3125,0.5629883,0.3349609,-1.578613,-0.2602539,-0.1293945,0.1259766
4226,46.875,-245.9375,-35.25,0.8496094,0.4052734,-1.467285,-0.2509766,-0.1279297,0.1396484
4230,44,-261.4375,-35.4375,1.066406,0.5136719,-1.382324,-0.2353516,-0.1308594,0.1601563
4234,35.75,-274,-40.5625,1.252441,0.5683594,-1.355469,-0.21875,-0.1318359,0.1821289
4238,30.5,-283.875,-46.6875,1.42334,0.5410156,-1.401855,-0.2045898,-0.1333008,0.1928711
4242,33.625,-294.3125,-48,1.523926,0.4360352,-1.394043,-0.1806641,-0.1342773,0.2133789
4246,43.0625,-297.625,-41.6875,1.682617,0.3701172,-1.290039,-0.1557617,-0.1342773,0.230957
4250,58.75,-296.125,-38.1875,1.72168,0.4125977,-1.232422,-0.1411133,-0.1333008,0.237793
4254,69.5625,-287.8125,-40.75,1.686523,0.5097656,-1.232422,-0.112793,-0.1308594,0.2485352
4258,72.375,-282.25,-42.375,1.446289,0.6186523,-1.348145,-0.08642578,-0.1269531,0.2583008
4262,59.375,-287.3125,-50.4375,1.302734,0.7353516,-1.467285,-0.07128906,-0.1245117,0.2636719
4267,43.375,-295.75,-44.125,1.337891,0.6186523,-1.486328,-0.04248047,-0.1220703,0.2636719
4271,35.8125,-299.0625,-36.1875,1.372559,0.5136719,-1.501953,-0.01513672,-0.1196289,0.2651367
4275,30.5625,-301.1875,-25.9375,1.531738,0.4594727,-1.351563,0.002441406,-0.1196289,0.2651367
4279,26.4375,-288.3125,-30,1.39209,0.5214844,-1.232422,0.02734375,-0.1166992,0.262207
4283,30.875,-278.4375,-58.25,1.0625,0.5566406,-1.286133,0.05224609,-0.1142578,0.2539063
4287,44.1875,-275.125,-93.1875,0.8339844,0.5292969,-1.378906,0.06787109,-0.1118164,0.25
4291,58.75,-276.375,-110.625,0.8149414,0.4516602,-1.390137,0.08886719,-0.1083984,0.2402344
4295,52.6875,-278.5625,-99.4375,0.7758789,0.4165039,-1.248047,0.1103516,-0.09814453,0.2333984
4299,32.4375,-267.4375,-68.9375,0.7490234,0.2416992,-1.13623,0.1201172,-0.09570313,0.2270508
4303,24.75,-246.625,-28.625,0.675293,0.05517578,-1.051758,0.1391602,-0.08935547,0.2143555
4307,31.5625,-227.75,-16.875,0.3769531,0.05908203,-1.051758,0.1508789,-0.08544922,0.2021484
4311,52,-218.4375,-29,0.1713867,0.2070313,-1.097656,0.1630859,-0.08544922,0.1967773
4315,64.375,-210.625,-48.75,0.2026367,0.3081055,-1.005371,0.1699219,-0.07958984,0.1889648
4319,62,-195.5625,-52.75,0.4697266,0.2265625,-0.7475586,0.1796875,-0.07080078,0.175293
4323,51.875,-166.375,-31.0625,0.574707,0.1523438,-0.4707031,0.1865234,-0.06445313,0.1723633
4327,43.5625,-133.75,-11.8125,0.5820313,0.121582,-0.3012695,0.1938477,-0.06054688,0.1655273
4331,40.875,-96.4375,-12.625,0.3925781,0.1914063,-0.3632813,0.1962891,-0.05566406,0.1572266
4335,37,-80.9375,-22.8125,0.2646484,0.21875,-0.3168945,0.2011719,-0.05322266,0.15625
4339,32.8125,-59.3125,-28.9375,0.2915039,0.15625,-0.2016602,0.2045898,-0.04931641,0.1508789
4343,24.6875,-36.5625,-19,0.4311523,0.07861328,-0.01318359,0.2055664,-0.04589844,0.1494141
4347,8.875,-3.3125,0.5625,0.5087891,0.07470703,0.1210938,0.2055664,-0.04443359,0.1479492
4351,-5.25,28.5,12.75,0.4580078,0.05908203,0.09814453,0.2055664,-0.04296875,0.1494141
4355,-6.3125,56.75,10.75,0.2685547,0.1020508,-0.112793,0.203125,-0.04443359,0.1508789
4359,-7.8125,72.625,1.875,0.1132813,0.1914063,-0.2939453,0.2021484,-0.04443359,0.1533203
4363,-17.6875,81.5,-0.5,0.09375,0.1523438,-0.34375,0.199707,-0.04833984,0.1572266
4367,-27.75,93.75,10.1875,0.2490234,0.05126953,-0.3012695,0.1948242,-0.04833984,0.1630859
4371,-32,113,25.0625,0.3959961,-0.02978516,-0.2939453,0.1904297,-0.05078125,0.1655273
4375,-28.5625,134.6875,34.5625,0.5395508,-0.01416016,-0.3012695,0.1865234,-0.05322266,0.1708984
4379,-24.5625,166.625,39.3125,0.6054688,0.1254883,-0.4169922,0.1796875,-0.06054688,0.1777344
4383,-20.875,189.625,23.3125,0.4233398,0.3041992,-0.6821289,0.1772461,-0.06201172,0.1845703
4387,-24,206.9375,9,0.4931641,0.4013672,-0.7900391,0.1650391,-0.06689453,0.1943359
4391,-41.3125,220.875,10,0.5820313,0.3779297,-0.8632813,0.1557617,-0.06933594,0.2036133
4396,-61.5625,240.8125,29.8125,0.9038086,0.2807617,-0.8554688,0.1484375,-0.07324219,0.2089844
4400,-68.6875,260.5,48.4375,0.8730469,0.2338867,-1.066895,0.1342773,-0.07958984,0.2202148
4404,-61.125,272.5625,56.625,0.9350586,0.2963867,-1.170898,0.1176758,-0.08544922,0.2324219
4408,-50.3125,278,39.5625,0.659668,0.4633789,-1.467285,0.1035156,-0.08935547,0.237793
4412,-43.8125,269.3125,17.125,0.8613281,0.4711914,-1.394043,0.08447266,-0.09423828,0.2470703
4416,-49.6875,284.3125,8.1875,1.198242,0.4907227,-1.348145,0.06542969,-0.09960938,0.2539063
4420,-68.8125,302.75,8.4375,1.419434,0.5605469,-1.320801,0.04736328,-0.09960938,0.2607422
4424,-81.9375,309.5,6.5,1.349609,0.5913086,-1.505859,0.02148438,-0.1054688,0.2651367
4428,-75.0625,299.9375,-7.625,1.241211,0.5644531,-1.463379,-0.004394531,-0.1118164,0.2675781
4432,-65.75,310.25,-20,1.209961,0.5449219,-1.594238,-0.02099609,-0.1142578,0.2661133
4436,-66.5,305.375,-25.4375,1.023926,0.6264648,-1.709473,-0.05078125,-0.1206055,0.2651367
4440,-81.1875,287.6875,-15.1875,1.09375,0.6069336,-1.674805,-0.07714844,-0.1269531,0.2583008
4444,-98.25,275.0625,14.0625,1.194336,0.5722656,-1.605469,-0.09375,-0.1318359,0.2568359
4448,-101.1875,257.1875,35.0625,1.144043,0.5449219,-1.594238,-0.1176758,-0.1357422,0.2460938
4452,-95,243.25,42.25,1.22168,0.5683594,-1.459473,-0.1376953,-0.1445313,0.2348633
4456,-86.6875,244.9375,48.3125,1.287598,0.5644531,-1.401855,-0.1542969,-0.1479492,0.2241211
4460,-78.75,241.8125,47.875,1.159668,0.5644531,-1.38623,-0.1757813,-0.1508789,0.2089844
4464,-69.9375,233.375,46.8125,1.140137,0.5253906,-1.286133,-0.1948242,-0.1533203,0.1953125
4468,-67.375,230.0625,56.9375,1.074219,0.5175781,-1.240234,-0.206543,-0.1518555,0.1821289
4472,-60,207,59.375,0.8769531,0.5136719,-1.205566,-0.222168,-0.1542969,0.1655273
4476,-54.5,186.75,61.4375,0.9853516,0.5253906,-1.066895,-0.237793,-0.1518555,0.1508789
4480,-53.3125,181.125,63.9375,0.9116211,0.5683594,-1.047852,-0.2436523,-0.1494141,0.137207
4484,-51.375,168.9375,59.6875,0.7529297,0.5214844,-1.036133,-0.2568359,-0.1479492,0.1235352
4488,-39.75,147.9375,49.0625,0.527832,0.4282227,-1.043945,-0.2651367,-0.1445313,0.1083984
4492,-23.25,123.875,35,0.4194336,0.3662109,-1.047852,-0.2724609,-0.1420898,0.09765625
4496,-7.6875,100.0625,24.375,0.3149414,0.3701172,-1.063477,-0.2783203,-0.140625,0.08789063
4500,-4.3125,79.3125,21.875,0.2607422,0.4165039,-1.032227,-0.2807617,-0.1367188,0.08007813
4504,-5.875,51.25,17.0625,0.08251953,0.4013672,-1.109375,-0.2827148,-0.1367188,0.07714844
4508,1.8125,17.4375,7.0625,0.008789063,0.3271484,-1.15918,-0.2851563,-0.1357422,0.07177734
4512,10.4375,-15.875,2.125,0.03564453,0.2885742,-1.182617,-0.2841797,-0.1357422,0.0703125
4516,14.625,-50.6875,1.375,0.06298828,0.3081055,-1.20166,-0.2841797,-0.1367188,0.07568359
4520,15.375,-87.1875,-0.625,0.1367188,0.3193359,-1.186523,-0.2827148,-0.1342773,0.08007813
4525,11.875,-117.9375,0.0625,0.2954102,0.2963867,-1.144043,-0.2792969,-0.1333008,0.08789063
4529,10.3125,-141.6875,-0.25,0.4506836,0.2924805,-1.125,-0.2758789,-0.1333008,0.09912109
4533,7.25,-161.875,0,0.5473633,0.2768555,-1.186523,-0.2675781,-0.1333008,0.1113281
4537,7.625,-185.875,0.8125,0.6171875,0.2338867,-1.263184,-0.2592773,-0.1357422,0.125
4541,12.625,-213,8,0.7255859,0.171875,-1.290039,-0.2543945,-0.1333008,0.1342773
4545,20.875,-238.5625,15.3125,0.9736328,0.1757813,-1.297852,-0.2412109,-0.1333008,0.1547852
4549,23.1875,-254.625,22.25,1.206055,0.2729492,-1.313477,-0.2246094,-0.1308594,0.1738281
4553,12.625,-262.75,24.0625,1.337891,0.4360352,-1.328613,-0.2138672,-0.1279297,0.1845703
4557,0.0625,-272.125,14.3125,1.384277,0.4516602,-1.324707,-0.1962891,-0.1269531,0.2021484
4561,-3.5625,-273.1875,2,1.473633,0.3701172,-1.317383,-0.1748047,-0.1293945,0.21875
4565,0.5,-273.1875,-6.375,1.473633,0.3623047,-1.336426,-0.1616211,-0.1293945,0.2280273
4569,5.1875,-278.875,-14.375,1.492676,0.3349609,-1.375,-0.1376953,-0.1293945,0.2392578
4573,9.125,-281.0625,-11.875,1.512207,0.2612305,-1.344238,-0.1137695,-0.1308594,0.2470703
4577,17.125,-283.3125,-10.9375,1.458008,0.2768555,-1.344238,-0.09960938,-0.1318359,0.2539063
4581,22.5,-279.5625,-9.25,1.279785,0.4321289,-1.405762,-0.07324219,-0.1308594,0.2607422
4585,14.625,-285.875,-23.75,1.225586,0.6420898,-1.436523,-0.04736328,-0.1318359,0.262207
4589,-11.5625,-277.125,-29.625,1.233398,0.6538086,-1.413086,-0.03076172,-0.1318359,0.262207
4593,-30.4375,-279.4375,-32.6875,1.22168,0.4907227,-1.394043,-0.005859375,-0.1357422,0.262207
4597,-35.75,-269.1875,-26.3125,1.415527,0.269043,-1.240234,0.01904297,-0.1396484,0.2568359
4601,-28.9375,-254.125,-26.375,1.19043,0.1992188,-1.270996,0.03173828,-0.140625,0.2524414
4605,-11.1875,-248.125,-26.375,1.078125,0.1796875,-1.228516,0.05224609,-0.140625,0.2470703
4609,4.625,-240.1875,-25.375,0.8691406,0.203125,-1.224609,0.07128906,-0.1430664,0.2402344
4613,10.8125,-236.8125,-36.0625,0.6054688,0.4052734,-1.390137,0.08300781,-0.140625,0.2363281
4617,10.6875,-236.9375,-39.4375,0.5200195,0.4594727,-1.38623,0.09863281,-0.1367188,0.2270508
4621,1.25,-240.625,-48.375,0.574707,0.3818359,-1.293945,0.1142578,-0.1357422,0.2202148
4625,-1.1875,-232.625,-46.75,0.4736328,0.3349609,-1.228516,0.125,-0.1333008,0.2133789
4629,11.125,-229.875,-55.5,0.3110352,0.2573242,-1.232422,0.1391602,-0.1279297,0.2021484
4633,27.875,-230.3125,-73.125,0.3266602,0.237793,-1.193848,0.1533203,-0.1220703,0.1953125
4637,37,-220.25,-70.5625,0.4931641,0.171875,-0.9594727,0.1616211,-0.1206055,0.1889648
4641,34.5,-206.375,-56.25,0.3496094,0.2109375,-0.8823242,0.1738281,-0.109375,0.1806641
4645,28.375,-207.375,-38.75,0.3691406,0.15625,-0.7285156,0.1855469,-0.1044922,0.1708984
4649,26.4375,-188.4375,-24.875,0.4467773,0.1367188,-0.5014648,0.1904297,-0.09960938,0.1640625
4654,27.5,-163.625,-13.6875,0.4736328,0.1254883,-0.3168945,0.2011719,-0.09570313,0.15625
4658,29.125,-127.3125,-0.6875,0.6132813,0.1484375,-0.02050781,0.2080078,-0.09179688,0.1479492
4662,18.4375,-88.0625,-0.875,0.4853516,0.284668,0.005859375,0.2119141,-0.08935547,0.1450195
4666,7.625,-58.25,2.25,0.5859375,0.2338867,0.1748047,0.215332,-0.08935547,0.1396484
4670,-2,-16.6875,3.75,0.7568359,0.1523438,0.4287109,0.21875,-0.08837891,0.137207
4674,-15.875,34.5,9.25,0.6948242,0.121582,0.4057617,0.2177734,-0.08935547,0.1381836
4678,-31,72.5625,19.6875,0.4506836,0.1098633,0.1674805,0.215332,-0.08935547,0.1396484
4682,-38.0625,89.375,28.8125,0.1289063,0.1523438,-0.1552734,0.2094727,-0.09570313,0.1425781
4686,-40.625,92,25.4375,-0.02197266,0.1601563,-0.3286133,0.2055664,-0.09814453,0.1464844
4690,-35.875,98.8125,14.5,0.1054688,0.03222656,-0.3168945,0.2021484,-0.1030273,0.1518555
4694,-24.1875,117.25,2.875,0.3188477,-0.1308594,-0.2978516,0.1938477,-0.1044922,0.1586914
4698,-10.3125,145.6875,3.1875,0.4467773,-0.1850586,-0.378418,0.1914063,-0.1069336,0.1601563
4702,-2.3125,168.4375,7.9375,0.4506836,-0.1733398,-0.5825195,0.184082,-0.1108398,0.168457
4706,6.0625,183.8125,21.5625,0.3999023,-0.07226563,-0.7324219,0.1772461,-0.1132813,0.175293
4710,9.5,189.4375,26.125,0.2568359,0.07470703,-0.9052734,0.1699219,-0.1142578,0.1806641
4714,7.4375,195.5,24.6875,0.4272461,0.1020508,-0.9052734,0.1616211,-0.1166992,0.1899414
4718,5.375,211.8125,31,0.5473633,0.121582,-1.001465,0.1499023,-0.1166992,0.199707
4722,2.75,223.625,34.8125,0.7216797,0.15625,-1.036133,0.144043,-0.1206055,0.2036133
4726,3.125,244.1875,45.8125,0.9697266,0.1914063,-1.063477,0.1308594,-0.1269531,0.2143555
4730,-0.8125,270.0625,37.8125,0.9814453,0.4086914,-1.178711,0.112793,-0.1254883,0.2241211
4734,-8.4375,290.5,16.375,1.059082,0.4165039,-1.240234,0.1010742,-0.1269531,0.230957
4738,-2.875,317.5,-24.5625,1.380371,0.4516602,-1.317383,0.08056641,-0.1279297,0.2416992
4742,28.625,354.375,-48.875,1.516113,0.1137695,-1.45166,0.05712891,-0.1279297,0.2485352
4746,58.1875,380.625,-44.75,1.345703,-0.002441406,-1.605469,0.03808594,-0.1220703,0.2568359
4750,52.9375,353.0625,-9.25,0.8222656,0.4013672,-1.924805,0.006835938,-0.1166992,0.2651367
4754,6.375,317.625,16.5625,1.225586,0.7158203,-1.721191,-0.02246094,-0.1132813,0.2661133
4758,-39.6875,300.375,36.625,1.310547,0.7548828,-1.644043,-0.04003906,-0.1118164,0.269043
4762,-56.0625,297.5,49.125,1.531738,0.5097656,-1.482422,-0.06982422,-0.1157227,0.2636719
4766,-51.3125,304.25,55.9375,1.543457,0.3544922,-1.420898,-0.09619141,-0.1157227,0.2568359
4770,-42.0625,304.4375,52.375,1.426758,0.3974609,-1.463379,-0.1152344,-0.1142578,0.2524414
4774,-39.5,290.0625,35.3125,1.341797,0.4360352,-1.44043,-0.1401367,-0.1157227,0.2402344
4778,-44.125,279.125,33.25,1.333984,0.3427734,-1.444336,-0.1665039,-0.1166992,0.2270508
4783,-43.5,265.9375,44.125,1.302734,0.2148438,-1.413086,-0.1806641,-0.1181641,0.2158203
4787,-42.6875,256.5,58.625,1.275879,0.237793,-1.344238,-0.2021484,-0.1181641,0.199707
4791,-49.25,242.25,62.0625,1.182617,0.3623047,-1.348145,-0.2211914,-0.1157227,0.1806641
4795,-57,223.625,58.6875,1.101563,0.3193359,-1.305664,-0.2319336,-0.1132813,0.1723633
4799,-56.3125,204.375,61.875,0.9736328,0.1914063,-1.30957,-0.2470703,-0.1108398,0.1533203
4803,-43.375,182.875,67.625,0.9194336,0.105957,-1.236328,-0.2592773,-0.109375,0.1357422
4807,-25.6875,171.375,67.625,0.8881836,0.2070313,-1.128418,-0.2675781,-0.1044922,0.1259766
4811,-13.3125,156.375,54,0.625,0.3041992,-1.166992,-0.2744141,-0.1005859,0.1113281
4815,-2.5625,132.5625,39.9375,0.4892578,0.3349609,-1.140137,-0.2841797,-0.09570313,0.09472656
4819,3.125,104.25,28.625,0.3227539,0.3779297,-1.140137,-0.2890625,-0.09326172,0.08935547
4823,6.3125,76.25,20.375,0.2646484,0.3974609,-1.109375,-0.2915039,-0.09082031,0.07861328
4827,7.9375,49.9375,13.9375,0.206543,0.4204102,-1.090332,-0.293457,-0.08935547,0.07421875
4831,3.5,22.8125,6.25,0.1484375,0.4946289,-1.090332,-0.2958984,-0.08691406,0.0703125
4835,-3.0625,-8.4375,-2.125,0.1557617,0.4672852,-1.086426,-0.2973633,-0.08837891,0.0703125
4839,-5.0625,-39.375,-12.875,0.175293,0.3974609,-1.101563,-0.2958984,-0.08935547,0.07324219
4843,-0.6875,-70.125,-21.9375,0.2333984,0.3310547,-1.128418,-0.2949219,-0.08935547,0.07421875
4847,4.3125,-100.9375,-29.3125,0.3032227,0.3271484,-1.170898,-0.2915039,-0.09326172,0.08251953
4851,3.125,-130.1875,-35,0.4350586,0.3583984,-1.19043,-0.2866211,-0.09570313,0.09228516
4855,-2.5,-160.5,-35.25,0.574707,0.3271484,-1.248047,-0.2807617,-0.09716797,0.1015625
4859,-8.375,-186.5625,-35.375,0.7602539,0.3662109,-1.259277,-0.2724609,-0.1005859,0.1166992
4863,-15.5,-202.6875,-41.5625,0.9389648,0.3896484,-1.197754,-0.2626953,-0.1054688,0.1342773
4867,-15.6875,-215.625,-49.875,0.9931641,0.3466797,-1.174805,-0.253418,-0.109375,0.144043
4871,-7.5625,-230.625,-56.4375,1.085938,0.3041992,-1.197754,-0.2387695,-0.1142578,0.1630859
4875,2.1875,-240.75,-62.4375,1.229492,0.3974609,-1.186523,-0.2236328,-0.1196289,0.1777344
4879,-0.8125,-240.25,-80.6875,1.341797,0.6108398,-1.193848,-0.2114258,-0.1230469,0.1914063
4883,-12.3125,-240.4375,-92.125,1.419434,0.6069336,-1.217285,-0.1899414,-0.1279297,0.2080078
4887,-20.5,-247.875,-93.75,1.380371,0.5292969,-1.297852,-0.1723633,-0.1367188,0.21875
4891,-19.75,-258.4375,-89.375,1.477539,0.4360352,-1.301758,-0.1582031,-0.1420898,0.2255859
4895,-12.1875,-266.875,-83.5,1.523926,0.3271484,-1.224609,-0.1328125,-0.1469727,0.2348633
4899,-4.625,-263.6875,-68.4375,1.523926,0.2885742,-1.170898,-0.1054688,-0.1533203,0.2416992
4903,4.5,-263.6875,-58.1875,1.399902,0.2924805,-1.259277,-0.09375,-0.1567383,0.2485352
4907,13.875,-266.375,-52.3125,1.19043,0.3935547,-1.413086,-0.06494141,-0.1567383,0.25
4912,19.375,-277.8125,-63.75,1.027832,0.5175781,-1.55957,-0.04248047,-0.1582031,0.2539063
4916,20.6875,-282.75,-70.6875,1.179199,0.5058594,-1.478516,-0.02490234,-0.1582031,0.2524414
4920,25.125,-279.8125,-65.5,0.9931641,0.4282227,-1.551758,-0.0009765625,-0.1567383,0.2514648
4924,32.4375,-290.5625,-79.625,0.5200195,0.6772461,-2.013672,0.02246094,-0.1557617,0.25
4928,37.5625,-316.0625,-83.0625,1.000488,0.6030273,-1.963379,0.04052734,-0.1518555,0.2431641
4932,37.5,-328.125,-77.25,1.117188,0.5410156,-1.890137,0.06640625,-0.1479492,0.237793
4936,35.9375,-331.9375,-83.625,1.144043,0.6381836,-1.755859,0.08886719,-0.1430664,0.2280273
4940,37.6875,-327.1875,-93.375,1.508301,0.4829102,-1.344238,0.1035156,-0.140625,0.2211914
4944,47.9375,-285.875,-76.625,1.624512,0.3583984,-0.8168945,0.1259766,-0.1308594,0.2089844
4948,49.0625,-236.8125,-89.6875,1.055176,0.6420898,-0.8017578,0.1416016,-0.1220703,0.199707
4952,43.375,-214.3125,-93.4375,0.9155273,0.4946289,-0.5898438,0.1499023,-0.1157227,0.1953125
4956,36.9375,-193.375,-73.3125,0.7333984,0.3466797,-0.3554688,0.1630859,-0.1054688,0.1889648
4960,19.8125,-177.875,-39.8125,0.7529297,0.3466797,-0.1166992,0.1723633,-0.09814453,0.1821289
4964,-0.875,-143.5625,-18.625,0.7451172,0.237793,0.03662109,0.1757813,-0.09716797,0.1777344
4968,-9,-101.875,-4,0.7797852,0.105957,0.2094727,0.1855469,-0.09716797,0.1708984
4972,-12.875,-53.875,8,0.7060547,0.121582,0.2749023,0.1889648,-0.09570313,0.1699219
4976,-20.625,-18.5,10,0.4541016,0.1293945,0.1787109,0.1904297,-0.09716797,0.1655273
4980,-27.0625,4.9375,9.9375,0.2685547,0.09033203,0.04443359,0.1914063,-0.09960938,0.1655273
4984,-29.6875,18.875,10.125,0.1054688,0.04736328,-0.1054688,0.1889648,-0.1020508,0.1669922
4988,-31,27.625,13.1875,0.06298828,-0.04541016,-0.1362305,0.1889648,-0.1044922,0.1669922
4992,-28.625,35.875,20.5,0.05126953,-0.1655273,-0.1708984,0.1865234,-0.1069336,0.1699219
4996,-18.0625,47.0625,27.6875,0.1870117,-0.1655273,-0.1323242,0.1831055,-0.1083984,0.168457
5000,-4.3125,65.25,29.875,0.2836914,-0.1347656,-0.1435547,0.1821289,-0.1108398,0.1708984
5004,6.75,87.375,27.25,0.2875977,-0.04541016,-0.2553711,0.1782227,-0.1132813,0.1738281
5008,13.4375,103.0625,25.375,0.2993164,0.03222656,-0.34375,0.1723633,-0.1157227,0.1762695
5012,13.125,117.4375,29.0625,0.4580078,0.08251953,-0.3359375,0.1699219,-0.1157227,0.1806641
5016,7.9375,143.375,39.5625,0.6831055,0.1176758,-0.2861328,0.1640625,-0.1181641,0.1845703
5020,-0.9375,173,40.125,0.4736328,0.2573242,-0.5629883,0.1557617,-0.1196289,0.1889648
5024,-1.5625,187.125,43.6875,0.59375,0.2070313,-0.7055664,0.1484375,-0.1230469,0.1967773
5028,-1.4375,201.375,46.75,0.5859375,0.2495117,-0.8208008,0.1376953,-0.1269531,0.2036133
5032,-2.875,209.625,55.625,0.8803711,0.237793,-0.8056641,0.125,-0.1308594,0.2133789
5036,-6.4375,230.4375,61.5,1.113281,0.2768555,-0.8476563,0.1176758,-0.1318359,0.2158203
5041,-6.5,257.625,64.5,1.318359,0.3388672,-0.9516602,0.1020508,-0.1367188,0.2270508
5045,-5,277.4375,61.3125,1.241211,0.4243164,-1.193848,0.08544922,-0.1396484,0.2363281
5049,-1.875,290.5625,55.875,1.322266,0.4907227,-1.371094,0.06982422,-0.1396484,0.2402344
5053,-5.9375,294.8125,44.8125,1.380371,0.6225586,-1.475098,0.04736328,-0.140625,0.2485352
5057,-22.125,299,35.75,1.5625,0.6845703,-1.486328,0.02246094,-0.1420898,0.2568359
5061,-36.375,311.875,43.3125,1.822266,0.5839844,-1.45166,0.006835938,-0.1445313,0.2568359
5065,-41.0625,333.75,53.9375,1.907715,0.5410156,-1.463379,-0.01855469,-0.1455078,0.2583008
5069,-34.6875,347.5625,60.125,1.833984,0.4985352,-1.513184,-0.05078125,-0.1479492,0.2568359
5073,-22.375,349.75,58.0625,1.582031,0.5488281,-1.574707,-0.07226563,-0.1479492,0.2524414
5077,-19.8125,343.0625,48.1875,1.523926,0.6616211,-1.621094,-0.1054688,-0.1455078,0.2470703
5081,-21.5,334.6875,48.5625,1.484863,0.6538086,-1.644043,-0.1352539,-0.1445313,0.2333984
5085,-30.625,324.75,55.5625,1.484863,0.6733398,-1.590332,-0.1533203,-0.1430664,0.2255859
5089,-44.4375,317.5,67.125,1.43457,0.6577148,-1.509277,-0.1806641,-0.1430664,0.2080078
5093,-51.5625,305.875,62.5,1.384277,0.6186523,-1.540039,-0.206543,-0.1420898,0.1875
5097,-45.1875,297.5,61.0625,1.353516,0.4868164,-1.551758,-0.21875,-0.1396484,0.1762695
5101,-30.6875,280.8125,55.125,1.182617,0.4282227,-1.551758,-0.2402344,-0.1367188,0.1518555
5105,-19.3125,259.9375,52.5,1.19043,0.4594727,-1.401855,-0.2592773,-0.1357422,0.1289063
5109,-19.3125,244.75,53.4375,1.070313,0.5449219,-1.30957,-0.2661133,-0.1308594,0.1152344
5113,-19.625,220.8125,50.5,0.8959961,0.5292969,-1.232422,-0.2768555,-0.1279297,0.09228516
5117,-14.5625,191.9375,47.8125,0.7602539,0.4985352,-1.070801,-0.2890625,-0.1220703,0.07324219
5121,-8.25,170.4375,43.1875,0.7099609,0.5449219,-0.9633789,-0.2915039,-0.1196289,0.06201172
5125,3.4375,149.625,21.6875,0.5356445,0.5253906,-0.8862305,-0.2958984,-0.1166992,0.04443359
5129,19.125,133.625,-0.4375,0.4541016,0.4555664,-0.8129883,-0.3007813,-0.1157227,0.03369141
5133,28.1875,119.125,-11.6875,0.3613281,0.4750977,-0.824707,-0.3017578,-0.1142578,0.02294922
5137,20.25,92.625,-12.9375,0.1484375,0.5566406,-0.9052734,-0.3017578,-0.1142578,0.01171875
5141,1.5,46.5625,-11.1875,-0.002441406,0.5566406,-0.9633789,-0.3032227,-0.1181641,0.0078125
5145,-17.875,-1.125,-6.9375,0.09375,0.4633789,-0.9360352,-0.3041992,-0.1166992,0.006347656
5149,-30.8125,-34.3125,-2.75,0.2685547,0.3740234,-0.8632813,-0.3032227,-0.1166992,0.004882813
5153,-34.5,-56.125,-7.5625,0.3378906,0.3081055,-0.878418,-0.3032227,-0.1166992,0.01074219
5157,-24.125,-76.8125,-23.5,0.3925781,0.2148438,-0.8901367,-0.3032227,-0.1181641,0.01171875
5161,-4.75,-97.6875,-38.75,0.3959961,0.1176758,-0.9707031,-0.3017578,-0.1220703,0.02148438
5165,15.4375,-124.25,-46.875,0.3999023,0.1254883,-1.047852,-0.2998047,-0.1254883,0.03076172
5170,27.8125,-155.9375,-43.9375,0.4892578,0.1445313,-1.121094,-0.2949219,-0.1308594,0.04052734
5174,32.75,-187.8125,-33.875,0.6635742,0.2070313,-1.166992,-0.2900391,-0.1333008,0.05664063
5178,31.125,-220.75,-20.0625,0.7680664,0.237793,-1.205566,-0.2841797,-0.1318359,0.07714844
5182,26.6875,-249.5,-6.9375,0.9697266,0.2924805,-1.232422,-0.2758789,-0.1342773,0.09082031
5186,23.1875,-274.8125,-1.75,1.144043,0.3662109,-1.259277,-0.2651367,-0.1342773,0.1152344
5190,19.625,-291.625,-2.4375,1.349609,0.3818359,-1.240234,-0.2495117,-0.1342773,0.1381836
5194,17.8125,-301.3125,-3.875,1.496582,0.3701172,-1.236328,-0.2387695,-0.1342773,0.1547852
5198,26.75,-305.6875,-12.1875,1.647949,0.3466797,-1.19043,-0.2172852,-0.1357422,0.175293
5202,37.1875,-294.125,-29.125,1.744629,0.4438477,-1.170898,-0.1972656,-0.1357422,0.1982422
5206,44.125,-286.3125,-46.125,1.779785,0.4438477,-1.170898,-0.1831055,-0.1357422,0.2080078
5210,42.9375,-272.5625,-63.25,1.899902,0.5605469,-1.117188,-0.1601563,-0.1357422,0.2241211
5214,46.6875,-262.5625,-72.75,1.864746,0.3701172,-1.101563,-0.1342773,-0.1367188,0.2363281
5218,63,-248.375,-69.5625,1.849121,0.1875,-1.066895,-0.1220703,-0.1381836,0.2431641
5222,83.1875,-239.5625,-55,1.744629,0.1679688,-1.105469,-0.09960938,-0.1342773,0.2514648
5226,95.625,-228.375,-46.25,1.543457,0.3193359,-1.170898,-0.07568359,-0.1308594,0.2592773
5230,99.625,-232.625,-56.3125,1.357422,0.4868164,-1.224609,-0.06396484,-0.1245117,0.2607422
5234,91.5625,-231.125,-56,1.217773,0.4907227,-1.224609,-0.04150391,-0.1196289,0.2651367
5238,76.75,-242.6875,-43.875,1.027832,0.5136719,-1.351563,-0.02246094,-0.1118164,0.2651367
5242,58.75,-265.3125,-36.0625,0.9580078,0.4477539,-1.471191,-0.005859375,-0.1083984,0.2651367
5246,38.4375,-279.875,-15,0.9658203,0.4086914,-1.513184,0.01660156,-0.1030273,0.262207
5250,28.375,-301.5,-13.1875,0.4155273,0.4711914,-1.855957,0.04052734,-0.1020508,0.2583008
5254,37.5,-360.0625,-64.3125,0.1987305,0.4052734,-2.105957,0.05712891,-0.09960938,0.2524414
5258,63.5625,-414,-94.125,0.8071289,0.1835938,-1.855957,0.08447266,-0.09326172,0.2431641
5262,77.75,-404.0625,-76.25,1.706055,0.09033203,-1.297852,0.1152344,-0.08447266,0.2294922
5266,78.1875,-326.1875,-32.0625,2.03125,-0.01025391,-0.6245117,0.1308594,-0.07714844,0.2172852
5270,68.375,-221.5,-14.125,1.283691,0.2768555,-0.4248047,0.1508789,-0.07080078,0.2089844
5274,64.6875,-188.5625,-36.5,0.559082,0.4243164,-0.5825195,0.1591797,-0.06298828,0.1967773
5278,46.6875,-173.125,-42.75,0.4467773,0.3779297,-0.5283203,0.1665039,-0.05712891,0.1928711
5282,25.8125,-155.6875,-29.0625,0.3378906,0.1640625,-0.4516602,0.1772461,-0.04931641,0.1875
5286,18.5625,-143.3125,-0.1875,0.4580078,-0.06054688,-0.2207031,0.1831055,-0.046875,0.1791992
5290,26,-113.375,23.6875,0.6870117,-0.1074219,-0.04003906,0.1889648,-0.046875,0.1738281
5294,36.1875,-70.25,32.375,0.6870117,0.09033203,0.07910156,0.1948242,-0.04296875,0.1699219
5299,33.6875,-34.5625,21.125,0.3457031,0.3857422,-0.02441406,0.1972656,-0.04296875,0.168457
5303,19.375,-12.0625,5.4375,0.2646484,0.4750977,0.05175781,0.199707,-0.04199219,0.1640625
5307,-3.4375,13.1875,5.9375,0.3032227,0.4399414,0.06738281,0.1972656,-0.04052734,0.1655273
5311,-25.9375,33.3125,8.5,0.2333984,0.3041992,-0.05126953,0.1987305,-0.04443359,0.168457
5315,-31.875,54.5,14.1875,0.2797852,0.1523438,-0.08203125,0.1948242,-0.04443359,0.1699219
5319,-27.625,74.3125,17.5625,0.125,0.1796875,-0.2436523,0.1928711,-0.04931641,0.1708984
5323,-26.625,88.75,15.5,0.1518555,0.2963867,-0.3208008,0.1889648,-0.05078125,0.1777344
5327,-33.375,106.25,15.5,0.2993164,0.3388672,-0.3359375,0.1865234,-0.0546875,0.1791992
