Packet number,Gyroscope X (deg/s),Gyroscope Y (deg/s),Gyroscope Z (deg/s),Accelerometer X (g),Accelerometer Y (g),Accelerometer Z (g),Magnetometer X (G),Magnetometer Y (G),Magnetometer Z (G)
1,3.375,7.125,0.125,0.4350586,0.9140625,0.105957,-0.1103516,-0.3193359,-0.1699219
5,0.3125,5.1875,0.1875,0.4233398,0.9179688,0.09814453,-0.1079102,-0.3178711,-0.1699219
9,-1.0625,3.6875,0,0.4272461,0.9023438,0.105957,-0.109375,-0.3208008,-0.1713867
13,-1.25,4.3125,-0.3125,0.4467773,0.9023438,0.09423828,-0.109375,-0.3208008,-0.168457
17,-1.75,5.25,-0.625,0.4350586,0.90625,0.09033203,-0.1103516,-0.3193359,-0.1713867
21,-2.25,4.5625,-0.6875,0.4311523,0.8867188,0.07910156,-0.109375,-0.3208008,-0.1699219
25,-1.625,4.4375,-1.0625,0.4350586,0.8789063,0.07519531,-0.1079102,-0.3193359,-0.168457
29,-0.9375,3.9375,-1.0625,0.4311523,0.8828125,0.07128906,-0.1103516,-0.3208008,-0.1728516
33,-1.4375,1.1875,0,0.4155273,0.8828125,0.07128906,-0.1079102,-0.3208008,-0.1699219
37,-1.4375,-1.75,0.8125,0.4233398,0.8867188,0.07128906,-0.109375,-0.3208008,-0.1713867
41,-0.75,-1.9375,0.4375,0.4506836,0.8867188,0.07910156,-0.1103516,-0.3178711,-0.1713867
45,-0.875,-0.0625,-0.8125,0.4580078,0.8789063,0.06738281,-0.1113281,-0.3217773,-0.1713867
49,0,1.375,-1.0625,0.4580078,0.8710938,0.06738281,-0.109375,-0.3178711,-0.1728516
53,0.625,1.5625,-0.1875,0.4541016,0.8710938,0.07519531,-0.1079102,-0.3178711,-0.1728516
58,1.1875,1.5625,1.375,0.4580078,0.8789063,0.06738281,-0.109375,-0.3208008,-0.1713867
62,0.75,1.25,2,0.4467773,0.8984375,0.06347656,-0.1079102,-0.3193359,-0.1728516
66,-0.8125,1.4375,1.25,0.4428711,0.9101563,0.06347656,-0.1079102,-0.3208008,-0.1699219
70,-0.875,1.8125,0.375,0.4428711,0.8789063,0.06738281,-0.1079102,-0.3193359,-0.1728516
74,0.125,1,0.1875,0.4389648,0.8710938,0.05957031,-0.1079102,-0.3193359,-0.1699219
78,0.625,-1.0625,1.0625,0.4194336,0.875,0.05566406,-0.1079102,-0.3178711,-0.1728516
82,0.9375,-2.6875,1.375,0.4350586,0.875,0.05566406,-0.1079102,-0.3178711,-0.1699219
86,1.375,-4.125,2.4375,0.4389648,0.8710938,0.05957031,-0.1079102,-0.3178711,-0.1728516
90,1.75,-6.3125,4.25,0.4272461,0.8710938,0.06738281,-0.1103516,-0.3208008,-0.168457
94,1.375,-8.75,4.3125,0.4233398,0.8867188,0.07910156,-0.1103516,-0.3208008,-0.1738281
98,1.0625,-11.0625,3.4375,0.4272461,0.8710938,0.07519531,-0.1103516,-0.3193359,-0.168457
102,2.5,-10.0625,2.625,0.4658203,0.8632813,0.07910156,-0.1113281,-0.3193359,-0.1699219
106,3.6875,-6.25,1.5625,0.4853516,0.8671875,0.07519531,-0.1113281,-0.3193359,-0.1713867
110,3.9375,-3.1875,2.4375,0.4697266,0.8710938,0.07910156,-0.1137695,-0.3193359,-0.168457
114,3.25,-8,5.375,0.4155273,0.8710938,0.07519531,-0.1137695,-0.3193359,-0.168457
118,0.8125,-21.625,11.375,0.3691406,0.8867188,0.08251953,-0.112793,-0.3208008,-0.168457
122,-2.1875,-31.625,13.625,0.4272461,0.9179688,0.1132813,-0.1162109,-0.3178711,-0.168457
126,-9.6875,-36.3125,12.625,0.4775391,0.9760742,0.1518555,-0.1176758,-0.3168945,-0.1674805
130,-22.25,-43.8125,15.25,0.5087891,1.04248,0.2172852,-0.1201172,-0.3168945,-0.1660156
134,-42.0625,-63,25.375,0.5161133,1.053711,0.2597656,-0.1235352,-0.3129883,-0.1674805
138,-58.5625,-89.3125,44.5625,0.6289063,1.022949,0.3251953,-0.1269531,-0.3129883,-0.1660156
142,-71.9375,-113.9375,74.6875,0.8652344,0.9799805,0.4633789,-0.1391602,-0.3066406,-0.1674805
146,-85.625,-128.625,108.25,1.085938,1.026855,0.5522461,-0.1484375,-0.2983398,-0.168457
150,-108.1875,-135.9375,132.3125,1.271973,1.073242,0.5981445,-0.1582031,-0.2905273,-0.1699219
154,-128.5,-126.375,151,1.508301,1.088867,0.6020508,-0.1757813,-0.2792969,-0.168457
158,-146.4375,-94.6875,168.125,1.802734,0.972168,0.5981445,-0.1899414,-0.2617188,-0.1699219
162,-149.3125,-57.4375,194.0625,1.884277,0.8208008,0.5136719,-0.2021484,-0.2495117,-0.1713867
166,-140.125,-31.8125,223.4375,1.814453,0.7817383,0.4482422,-0.215332,-0.2304688,-0.1782227
170,-134.375,-13.8125,244.0625,1.768066,0.8598633,0.4404297,-0.2270508,-0.2070313,-0.1821289
174,-134.5,3.25,248.3125,1.806641,0.8828125,0.4443359,-0.2363281,-0.1904297,-0.1865234
178,-133.625,33.0625,252.125,1.918945,0.9101563,0.4521484,-0.2436523,-0.1645508,-0.1928711
182,-136.375,66.625,259,1.830078,0.8789063,0.3710938,-0.2495117,-0.1396484,-0.1987305
187,-134,78.6875,269.75,1.736816,0.9296875,0.3828125,-0.2519531,-0.1196289,-0.2055664
191,-135.875,73.0625,285.1875,1.655762,0.9492188,0.340332,-0.2519531,-0.08935547,-0.2133789
195,-130.6875,58.8125,311.875,1.713867,0.8051758,0.3212891,-0.2509766,-0.05712891,-0.2177734
199,-121.9375,77.9375,320.125,1.907715,0.956543,0.3481445,-0.2470703,-0.03808594,-0.2202148
203,-125.75,126.75,319.6875,1.826172,0.9453125,0.2597656,-0.2412109,-0.004394531,-0.2255859
207,-114.75,144.25,318.4375,1.403809,0.7392578,0.1518555,-0.2280273,0.02636719,-0.2338867
211,-97.8125,125.75,326.8125,1.256348,0.8208008,0.2021484,-0.2163086,0.04492188,-0.237793
215,-107.3125,112.625,338.0625,1.287598,0.9375,0.1943359,-0.199707,0.07275391,-0.2421875
219,-114.0625,105.75,360.5,1.198242,0.8129883,0.1557617,-0.1816406,0.1000977,-0.2446289
223,-107.1875,108.6875,359.875,1.171387,0.7119141,0.125,-0.1650391,0.1186523,-0.2460938
227,-102.125,122.9375,337.9375,1.008301,0.7080078,0.08251953,-0.1401367,0.1411133,-0.2446289
231,-92,127.375,332.25,0.9389648,0.5488281,0.005859375,-0.112793,0.1611328,-0.2446289
235,-88.375,116.6875,329.25,0.8032227,0.5683594,0.04052734,-0.09472656,0.1738281,-0.2436523
239,-87.625,104.875,347.9375,0.6948242,0.5449219,-0.02050781,-0.06640625,0.1860352,-0.2421875
243,-84.75,97.125,348.5,0.675293,0.4750977,-0.02050781,-0.03417969,0.1962891,-0.2368164
247,-83.875,107.0625,338.75,0.5239258,0.4633789,-0.05908203,-0.01513672,0.2026367,-0.2338867
251,-78.9375,111.0625,319.75,0.2724609,0.3818359,-0.0859375,0.01904297,0.2084961,-0.2299805
255,-77.9375,110.5625,312,-0.06054688,0.3701172,-0.1474609,0.05078125,0.2099609,-0.2231445
259,-78.0625,85.5625,302.1875,-0.4946289,0.3505859,-0.1552734,0.06884766,0.2060547,-0.2177734
263,-78.9375,58.4375,285.8125,-0.7426758,0.3081055,-0.1821289,0.09765625,0.2036133,-0.2094727
267,-75.125,43.875,256.0625,-1.060547,0.2807617,-0.1630859,0.1210938,0.2001953,-0.2041016
271,-71.3125,35.5625,208.625,-1.335449,0.237793,-0.1669922,0.1342773,0.1938477,-0.1987305
275,-54.6875,28.9375,161.1875,-1.70752,0.06689453,-0.2246094,0.1499023,0.1884766,-0.1928711
279,-29.0625,32.4375,91.875,-1.804199,-0.01416016,-0.2553711,0.1591797,0.1850586,-0.1889648
283,-5.375,38.1875,21.75,-1.943848,0.004882813,-0.2475586,0.1650391,0.1835938,-0.1875
287,1.75,15.125,-44.875,-2.029297,0.06689453,-0.1782227,0.1689453,0.1835938,-0.1850586
291,-0.6875,-17.875,-108.1875,-1.715332,0.05126953,-0.05908203,0.1640625,0.1850586,-0.1821289
295,-8.1875,-43.4375,-158.6875,-1.285156,-0.05664063,-0.02050781,0.1567383,0.1914063,-0.1875
299,-3.8125,-50.3125,-186.1875,-0.7890625,-0.2509766,-0.009277344,0.1416016,0.2011719,-0.1875
303,11.3125,-40.5,-193.3125,-0.4482422,-0.4375,-0.07080078,0.1235352,0.2084961,-0.1875
307,45.875,-22.875,-194.5,-0.2583008,-0.4492188,-0.02832031,0.1142578,0.2124023,-0.1889648
311,57.375,2.4375,-220.4375,-0.1611328,-0.2163086,0.07128906,0.09765625,0.2163086,-0.1943359
316,48.375,6.875,-253.125,-0.2734375,-0.05664063,0.1635742,0.07714844,0.2226563,-0.1972656
320,32.75,-24.3125,-275.4375,-0.2080078,-0.08398438,0.1943359,0.06298828,0.2226563,-0.1972656
324,24.375,-54.5,-279.0625,0.159668,-0.2548828,0.1479492,0.04052734,0.2275391,-0.2011719
328,40.75,-51.5625,-254.9375,0.6289063,-0.4726563,0.07519531,0.01269531,0.2275391,-0.2041016
332,73.6875,-1.0625,-255.0625,1.043457,-0.2705078,0.2480469,-0.0009765625,0.2260742,-0.2041016
336,77.8125,100.6875,-302.6875,1.202148,-0.1499023,0.2905273,-0.02099609,0.21875,-0.2109375
340,78,121.25,-288.75,0.4311523,-0.371582,0.2250977,-0.03662109,0.2138672,-0.2163086
344,93.875,24.0625,-246.3125,-0.1650391,-0.3442383,0.2597656,-0.04736328,0.2084961,-0.2231445
348,101.6875,-86.5,-205.25,0.1132813,-0.2084961,0.2480469,-0.06396484,0.1972656,-0.2299805
352,93.3125,-120.5625,-202.875,0.7719727,0.1757813,0.3979492,-0.08398438,0.1860352,-0.2324219
356,73.75,-79.3125,-238.75,1.163574,0.1293945,0.4057617,-0.09960938,0.1787109,-0.2338867
360,77.25,-24.0625,-270.0625,1.209961,-0.04882813,0.4326172,-0.1186523,0.1660156,-0.2368164
364,103.875,-17.3125,-248.25,0.8803711,-0.3286133,0.2675781,-0.1352539,0.1499023,-0.2407227
368,131.6875,-48.5625,-195.75,0.6635742,-0.1308594,0.2172852,-0.1459961,0.1376953,-0.2436523
372,142.6875,-95.0625,-172.625,0.5356445,0.3349609,0.3330078,-0.1582031,0.1186523,-0.2490234
376,99.5625,-74.375,-242.875,0.9658203,1.112305,0.5288086,-0.1723633,0.1010742,-0.2514648
380,49.75,-57.3125,-290.1875,0.5395508,0.4125977,0.3291016,-0.1831055,0.08740234,-0.2490234
384,83.375,-96,-321.875,0.2915039,0.3388672,0.2636719,-0.1962891,0.06738281,-0.2490234
388,90.9375,-136.4375,-349.5625,0.4931641,0.6655273,0.2060547,-0.2128906,0.04150391,-0.2421875
392,84.625,-159.625,-352.1875,0.7836914,1.061523,0.3056641,-0.2236328,0.02148438,-0.2368164
396,38.75,-156,-339.4375,1.299316,1.535645,0.4711914,-0.2426758,-0.008300781,-0.2255859
400,0,-119.75,-334.8125,1.368652,1.124023,0.3945313,-0.2495117,-0.03466797,-0.2148438
404,28.5625,-89.125,-335.625,1.26416,0.7392578,0.3251953,-0.2553711,-0.05322266,-0.2094727
408,58.25,-89.6875,-329.1875,0.9541016,0.9643555,0.2597656,-0.2578125,-0.08203125,-0.2055664
412,77,-128.875,-320.4375,0.7719727,1.205566,0.1713867,-0.2568359,-0.109375,-0.1943359
416,80.5625,-164.6875,-330.8125,1.155762,1.726074,0.2905273,-0.2592773,-0.1318359,-0.1865234
420,46.875,-141.5625,-344.5625,1.651855,1.896973,0.3212891,-0.2553711,-0.1621094,-0.1699219
424,36.9375,-96.25,-337.1875,1.740723,1.46582,0.3017578,-0.2495117,-0.1918945,-0.1591797
428,56.25,-71.0625,-310.4375,1.574219,1.298828,0.2250977,-0.2436523,-0.2080078,-0.1547852
432,71.5625,-80.8125,-262.25,1.380371,1.228516,0.07519531,-0.2294922,-0.234375,-0.1469727
436,85,-107.1875,-215.1875,1.318359,1.193848,-0.04736328,-0.2197266,-0.2558594,-0.1357422
440,87.4375,-120.75,-186.8125,1.500488,1.380371,0.02099609,-0.2128906,-0.2680664,-0.1264648
445,58.8125,-108.625,-166.3125,1.612793,1.388184,0.04443359,-0.2055664,-0.2817383,-0.1157227
449,28.875,-89.5,-112.25,1.63623,1.225098,-0.03222656,-0.1982422,-0.2929688,-0.1044922
453,8.8125,-66.25,-44.125,1.566406,0.9956055,-0.112793,-0.1948242,-0.296875,-0.1005859
457,4.625,-31.3125,9.125,1.438477,0.7392578,-0.1977539,-0.1948242,-0.296875,-0.09765625
461,14.4375,6.4375,21.125,1.163574,0.6884766,-0.2514648,-0.1948242,-0.2983398,-0.09375
465,15.75,35.8125,-6.8125,0.9775391,0.7973633,-0.2089844,-0.1972656,-0.296875,-0.09375
469,3.8125,39.6875,-33.9375,0.7021484,0.7856445,-0.2514648,-0.1948242,-0.2983398,-0.09521484
473,3.25,1.5625,-36.375,0.5976563,0.5800781,-0.2514648,-0.1899414,-0.3007813,-0.09667969
477,15.6875,-42.5625,-25.6875,0.8261719,0.6342773,-0.1899414,-0.1899414,-0.3041992,-0.09765625
481,15.9375,-63.5625,-10.3125,1.260254,0.7470703,-0.06689453,-0.1899414,-0.3041992,-0.09228516
485,10.1875,-46.6875,14.1875,1.632324,0.8481445,0.04052734,-0.1914063,-0.3056641,-0.08837891
489,-1.375,-8.125,38.1875,1.833984,0.8867188,0.09814453,-0.1923828,-0.3041992,-0.08544922
493,-2.9375,31.875,68.8125,1.787598,0.7587891,0.05175781,-0.1948242,-0.3017578,-0.08837891
497,5.375,58,102.125,1.663574,0.7587891,0.01708984,-0.2006836,-0.2929688,-0.08984375
501,11.5625,67.25,132.4375,1.500488,0.8984375,-0.005371094,-0.2055664,-0.2905273,-0.09082031
505,14.5625,67.5,150.875,1.473633,1.108398,0.03662109,-0.2128906,-0.2832031,-0.09667969
509,2.0625,62.8125,166.375,1.461914,1.283203,0.05566406,-0.222168,-0.2705078,-0.1005859
513,-13.6875,45.0625,194.5625,1.430664,1.267578,0.005859375,-0.2280273,-0.2607422,-0.1005859
517,-11.8125,21.1875,235.6875,1.504395,1.108398,-0.03222656,-0.2402344,-0.2456055,-0.1044922
521,-0.6875,21.375,273,1.725586,1.255859,0.009765625,-0.2509766,-0.2255859,-0.1074219
525,-3.5625,50.5,294.9375,1.752441,1.376465,0.005859375,-0.2602539,-0.2104492,-0.105957
529,-9.75,72.625,295.375,1.597656,1.500488,0.001953125,-0.2724609,-0.1855469,-0.112793
533,-30.5,73,301.875,1.42334,1.648438,0.01708984,-0.2817383,-0.1591797,-0.1166992
537,-50,68.125,309.0625,1.477539,1.477539,-0.001464844,-0.2866211,-0.1396484,-0.125
541,-47.5,55.0625,336.6875,1.388184,1.112305,-0.1206055,-0.2924805,-0.1083984,-0.1318359
545,-16.1875,45.75,359.0625,1.558594,1.019043,-0.0859375,-0.2949219,-0.07568359,-0.1357422
549,2,70.875,360.6875,1.794922,1.317871,0.009765625,-0.2949219,-0.05322266,-0.1386719
553,-11.6875,135.0625,336.25,1.922852,1.438477,0.02880859,-0.2915039,-0.02197266,-0.1455078
557,-37.8125,164.125,333.1875,1.275879,1.349121,-0.05908203,-0.2827148,0.008789063,-0.1577148
561,-42.5,108.9375,340.875,0.7836914,0.9375,-0.128418,-0.2734375,0.03027344,-0.1674805
565,-23.3125,42.125,353.375,0.9389648,0.7041016,-0.04003906,-0.2626953,0.06005859,-0.1728516
569,-20.9375,29.75,361.3125,1.198242,0.9838867,0.04443359,-0.2485352,0.08740234,-0.175293
574,-35.3125,56.375,343.5,1.399902,0.8945313,0.09423828,-0.2363281,0.1049805,-0.1738281
578,-44.375,94.625,312.9375,1.353516,0.7626953,0.02880859,-0.2197266,0.1298828,-0.1796875
582,-36.5625,108.875,315.5,1.02002,0.5839844,-0.03222656,-0.1982422,0.1538086,-0.1806641
586,-32.625,84.25,344.125,0.8071289,0.4711914,-0.05126953,-0.1831055,0.1650391,-0.1850586
590,-24.875,55.4375,369.25,0.7758789,0.4829102,0.01367188,-0.1557617,0.1875,-0.1875
594,-13.6875,69.9375,365.125,1.016113,0.4399414,0.001953125,-0.1293945,0.2036133,-0.1889648
598,-6.5,119.125,332.6875,1.05127,0.4946289,0.03271484,-0.1069336,0.2124023,-0.1918945
602,-8.625,178.875,310.875,0.8613281,0.5292969,-0.05126953,-0.07568359,0.2197266,-0.1928711
606,-19.875,174,314.5625,0.1445313,0.3662109,-0.1206055,-0.04003906,0.2285156,-0.1987305
610,-26.5,111.4375,332.375,-0.378418,0.3583984,-0.0859375,-0.01855469,0.2299805,-0.1987305
614,-37.1875,46.5625,332.4375,-0.4248047,0.3041992,-0.001464844,0.01269531,0.2314453,-0.1987305
618,-39,50.625,292.5,-0.246582,0.1796875,-0.009277344,0.04248047,0.2299805,-0.1958008
622,-28.75,95.5625,237.1875,-0.347168,0.03222656,-0.0859375,0.06152344,0.2285156,-0.1928711
626,-24.0625,120.625,203.6875,-1.075684,0.1020508,-0.1821289,0.08544922,0.2250977,-0.1889648
630,-22.125,72.4375,187.5,-1.661133,-0.002441406,-0.1860352,0.105957,0.2197266,-0.1865234
634,-18.0625,29.4375,140,-1.885742,-0.1269531,-0.2207031,0.1166992,0.2148438,-0.1806641
638,0,-6,80.5625,-1.847168,-0.3208008,-0.2670898,0.128418,0.2099609,-0.1821289
642,19.3125,-5.75,9.9375,-1.587402,-0.2744141,-0.1899414,0.1308594,0.2075195,-0.1821289
646,27.5,-13,-47.625,-1.490234,-0.3520508,-0.1435547,0.1318359,0.2075195,-0.1821289
650,34.6875,-18.625,-96.6875,-1.12207,-0.3520508,-0.04736328,0.1259766,0.2084961,-0.1865234
654,37.4375,-20.75,-128.5,-0.8974609,-0.4609375,-0.001464844,0.1166992,0.2099609,-0.1889648
658,40.5,-37.125,-143.6875,-0.7036133,-0.4609375,0.08251953,0.109375,0.2138672,-0.1918945
662,37.75,-45.3125,-155.625,-0.5214844,-0.46875,0.144043,0.09375,0.2148438,-0.1958008
666,36.5,-59.3125,-164.75,-0.3510742,-0.4648438,0.1635742,0.07958984,0.21875,-0.199707
670,35.3125,-55.3125,-177.875,-0.05273438,-0.387207,0.2368164,0.06884766,0.2197266,-0.2011719
674,27.75,-35,-192.8125,0.1557617,-0.387207,0.2597656,0.05224609,0.2211914,-0.2055664
678,27.1875,-29.875,-188.4375,0.07080078,-0.5463867,0.2021484,0.03320313,0.2226563,-0.206543
682,43.8125,-34.4375,-175.8125,0.109375,-0.6044922,0.1518555,0.02246094,0.2236328,-0.2109375
686,62.625,-43.9375,-166.25,-0.006347656,-0.5151367,0.1518555,0.005859375,0.2211914,-0.2133789
690,53.25,-58.875,-198.9375,-0.03710938,0.07080078,0.3598633,-0.01025391,0.2172852,-0.2163086
694,14,-75.4375,-230.625,0.1791992,-0.06054688,0.2983398,-0.02490234,0.2163086,-0.21875
698,15.5625,-90.9375,-242.8125,0.4272461,-0.3208008,0.2290039,-0.04589844,0.2124023,-0.2163086
703,36.1875,-67,-236.9375,0.8691406,-0.3095703,0.1865234,-0.06884766,0.2075195,-0.21875
707,72.375,-13.3125,-208.75,0.8920898,-0.4726563,0.144043,-0.08300781,0.2011719,-0.21875
711,91.5625,27.5,-225.8125,0.6210938,0.1757813,0.3520508,-0.09716797,0.1914063,-0.2231445
715,48.875,40.125,-271.375,0.09765625,0.3935547,0.2788086,-0.109375,0.1772461,-0.2299805
719,37.625,-47.5625,-297,-0.328125,0.1254883,0.2133789,-0.1210938,0.1674805,-0.2299805
723,39.3125,-128.125,-283.25,0.3886719,0.1601563,0.125,-0.1435547,0.1523438,-0.230957
727,53.0625,-113.1875,-251.1875,1.322266,0.02050781,0.1748047,-0.1674805,0.1376953,-0.2285156
731,88.6875,-1.3125,-236.5625,1.736816,-0.1074219,0.2133789,-0.1791992,0.1274414,-0.2270508
735,115.9375,116.3125,-261.25,1.241211,0.3505859,0.2675781,-0.1889648,0.1074219,-0.230957
739,108.75,104.25,-278.625,-0.1069336,0.315918,0.07128906,-0.1875,0.08496094,-0.2446289
743,130,-58.25,-260.125,-0.2890625,0.3081055,0.1132813,-0.1938477,0.06738281,-0.2514648
747,134.3125,-145.875,-228.4375,0.6831055,0.6147461,0.1210938,-0.2055664,0.04492188,-0.2490234
751,148.375,-126.625,-205.875,1.42334,0.5991211,0.2172852,-0.2211914,0.01855469,-0.2421875
755,148.25,-35.125,-239.1875,1.655762,1.279297,0.4599609,-0.2255859,0.002441406,-0.237793
759,115.125,36.9375,-286.625,0.9155273,1.073242,0.2866211,-0.2280273,-0.0234375,-0.2421875
763,134.375,-43.25,-289.8125,0.1210938,0.8520508,0.2094727,-0.2280273,-0.05322266,-0.2421875
767,149.0625,-168.1875,-259.9375,0.527832,1.189941,0.1328125,-0.2319336,-0.07177734,-0.2392578
771,150.375,-224.375,-224.875,1.144043,1.225098,0.05175781,-0.2387695,-0.09814453,-0.2216797
775,167.4375,-220.875,-217.25,1.640137,1.422852,0.08642578,-0.2470703,-0.1254883,-0.2055664
779,149.6875,-153,-258.125,1.946289,1.885254,0.159668,-0.2509766,-0.140625,-0.1889648
783,106.4375,-89.1875,-282.1875,1.655762,1.632813,0.06347656,-0.2509766,-0.1694336,-0.175293
787,117.3125,-94.9375,-287.0625,1.275879,1.232422,0.001953125,-0.2426758,-0.1982422,-0.1645508
791,132.5625,-135.375,-269.4375,1.252441,1.314453,-0.04394531,-0.2363281,-0.2158203,-0.1547852
795,125.4375,-175.3125,-241.5625,1.372559,1.364746,-0.08984375,-0.2294922,-0.2392578,-0.1386719
799,105.875,-203.625,-214.1875,1.682617,1.302734,-0.06689453,-0.222168,-0.2607422,-0.1166992
803,71.3125,-194.6875,-173.9375,2.023926,1.504395,0.1171875,-0.2172852,-0.2719727,-0.1035156
807,8.875,-149.6875,-133.3125,2.132324,1.403809,0.1674805,-0.2104492,-0.2841797,-0.08984375
811,-34.8125,-103.8125,-82.875,2.000488,1.019043,0.125,-0.206543,-0.2905273,-0.08007813
815,-50.25,-67.6875,-29.6875,1.794922,0.7314453,0.009765625,-0.2055664,-0.2929688,-0.07861328
819,-51.1875,-50,6.9375,1.477539,0.4985352,-0.112793,-0.2045898,-0.2944336,-0.08007813
823,-34.4375,-40.6875,14.5,1.364746,0.4282227,-0.128418,-0.206543,-0.2919922,-0.07861328
827,-19.125,-25.6875,7.1875,1.333984,0.4633789,-0.1166992,-0.2055664,-0.2919922,-0.07763672
832,-4.375,-12.9375,3,1.341797,0.5136719,-0.04003906,-0.2104492,-0.2895508,-0.08007813
836,3.25,0.4375,12.5625,1.411621,0.6264648,0.02099609,-0.2089844,-0.2895508,-0.07617188
840,4.9375,15.5625,28.6875,1.481445,0.6884766,0.07128906,-0.2089844,-0.2895508,-0.07617188
844,-3.8125,33.9375,44.375,1.543457,0.9101563,0.1635742,-0.2104492,-0.2866211,-0.07861328
848,-25.75,55.75,58.3125,1.605469,0.9375,0.159668,-0.2128906,-0.2841797,-0.08300781
852,-32.4375,67.375,83.625,1.535645,0.8286133,0.1020508,-0.2163086,-0.2792969,-0.08691406
856,-30.1875,62,114.8125,1.535645,0.8442383,0.05957031,-0.2197266,-0.2744141,-0.09375
860,-25.5,54.625,150.875,1.632324,0.8867188,0.01367188,-0.2270508,-0.2641602,-0.09667969
864,-15.6875,52.9375,182.375,1.787598,0.9838867,0.04052734,-0.2329102,-0.2558594,-0.1020508
868,-17.1875,71.1875,208.875,1.918945,1.240234,0.04052734,-0.2412109,-0.2392578,-0.1074219
872,-31.1875,90.8125,227.75,1.86084,1.399902,0.02099609,-0.2509766,-0.2216797,-0.1142578
876,-49.0625,96.4375,249.9375,1.69043,1.438477,-0.06689453,-0.2578125,-0.2094727,-0.1196289
880,-59.375,78,286,1.535645,1.306641,-0.1474609,-0.2661133,-0.1870117,-0.1303711
884,-53.9375,57.625,320.1875,1.481445,1.244141,-0.2089844,-0.2724609,-0.1582031,-0.1386719
888,-52.5,49.3125,334.0625,1.543457,1.321777,-0.1821289,-0.2792969,-0.1367188,-0.1416016
892,-57.1875,67.6875,336.4375,1.682617,1.275391,-0.1782227,-0.2851563,-0.1054688,-0.1455078
896,-52.9375,105.4375,337,1.752441,1.116211,-0.2089844,-0.2866211,-0.07324219,-0.1547852
900,-38.3125,135.0625,340.25,1.504395,0.9760742,-0.2900391,-0.2851563,-0.05175781,-0.1606445
904,-17.25,139.3125,343.6875,1.361328,0.956543,-0.2363281,-0.2768555,-0.02050781,-0.1713867
908,-13.25,140.9375,336.625,1.39209,0.987793,-0.1821289,-0.2675781,0.007324219,-0.1821289
912,-18.4375,150.875,327.3125,1.399902,1.124023,-0.07861328,-0.2592773,0.02636719,-0.1904297
916,-40.1875,159.6875,312.375,1.275879,1.077148,-0.07861328,-0.2446289,0.05273438,-0.2011719
920,-48.4375,141.5625,298.625,1.209961,0.7856445,-0.04003906,-0.2255859,0.07617188,-0.2109375
924,-36.8125,124.25,312.375,1.310547,0.5136719,-0.08203125,-0.2163086,0.09130859,-0.2163086
928,-11.9375,127.9375,335,1.407715,0.4907227,-0.09375,-0.1962891,0.1137695,-0.2246094
932,-12.6875,138.9375,349.0625,1.29541,0.7431641,-0.04394531,-0.168457,0.1323242,-0.2299805
936,-35.0625,154.5,348.3125,1.070313,0.956543,0.009765625,-0.1508789,0.1459961,-0.2353516
940,-70.1875,151.25,343.9375,0.8071289,0.7197266,-0.09765625,-0.1220703,0.1625977,-0.2392578
944,-58.6875,157.0625,346.1875,0.7412109,0.3544922,-0.1669922,-0.09130859,0.1801758,-0.237793
948,-30.3125,168.875,331.75,0.5317383,0.2651367,-0.2167969,-0.06884766,0.1875,-0.2421875
952,-20.25,144.5625,335.9375,0.2412109,0.4013672,-0.1245117,-0.03515625,0.1938477,-0.2421875
956,-27.6875,131.5625,345.375,0.1987305,0.5292969,-0.05517578,0,0.1962891,-0.2436523
961,-44.4375,139.8125,323.5625,0.1367188,0.5761719,-0.009277344,0.02246094,0.1938477,-0.2421875
965,-59,170.625,283.5625,-0.08398438,0.4555664,-0.07080078,0.05322266,0.1923828,-0.2368164
969,-68.1875,152.625,265.375,-0.831543,0.2109375,-0.1860352,0.08447266,0.1923828,-0.230957
973,-56.5,93.8125,262.8125,-1.176758,0.105957,-0.1435547,0.1020508,0.1899414,-0.2246094
977,-52.25,44.375,246.5625,-1.339355,0.1796875,-0.112793,0.1269531,0.1826172,-0.2177734
981,-52.5,34.3125,211.5,-1.533203,0.1796875,-0.1591797,0.144043,0.1748047,-0.2148438
985,-40.5,35.625,141.375,-1.82373,0.06298828,-0.2207031,0.1547852,0.1713867,-0.2109375
989,-13.8125,44.875,44.875,-2.04834,-0.1230469,-0.2631836,0.1650391,0.1660156,-0.206543
993,14.375,20.875,-34,-2.102539,-0.1230469,-0.1938477,0.1665039,0.1660156,-0.2041016
997,24.0625,-5.8125,-92.5,-1.730469,-0.03759766,-0.02832031,0.1650391,0.1689453,-0.2055664
1001,21.1875,-33.0625,-129.75,-1.393555,-0.08398438,0.05175781,0.1591797,0.1713867,-0.2094727
1005,25.75,-53.5,-151.1875,-1.021484,-0.2353516,0.04785156,0.1474609,0.1762695,-0.2094727
1009,33.6875,-55.75,-170.0625,-0.699707,-0.1967773,0.07128906,0.1367188,0.1811523,-0.2119141
1013,35.75,-41.1875,-194.5,-0.5605469,-0.1459961,0.06347656,0.1201172,0.1875,-0.2163086
1017,35.125,-42.5625,-216,-0.5834961,-0.1269531,0.05566406,0.1044922,0.1923828,-0.2216797
1021,32.1875,-63,-238.1875,-0.5175781,-0.09179688,0.09033203,0.09130859,0.1962891,-0.2216797
1025,21.5625,-89,-251.0625,-0.2661133,-0.01025391,0.1171875,0.06884766,0.2011719,-0.2255859
1029,9.9375,-116.25,-244.6875,0.01269531,-0.09960938,0.05566406,0.04492188,0.2050781,-0.2285156
1033,21.0625,-122.5625,-233.375,0.2568359,-0.3208008,0.01708984,0.02734375,0.2060547,-0.230957
1037,45.3125,-117.375,-233.9375,0.3925781,-0.1459961,0.1098633,0.002441406,0.2050781,-0.230957
1041,30.5,-100.75,-268.625,0.609375,0.203125,0.2558594,-0.02246094,0.2026367,-0.2338867
1045,4.5625,-94.6875,-288.875,0.5859375,0.05517578,0.2749023,-0.04150391,0.2011719,-0.2324219
1049,7.1875,-113.125,-280.5,0.7138672,-0.1850586,0.1713867,-0.06738281,0.1962891,-0.2299805
1053,25.4375,-131.9375,-234.125,0.9970703,-0.4335938,0.08642578,-0.09228516,0.1875,-0.2285156
1057,61.5625,-143.375,-176.9375,1.113281,-0.3637695,0.09814453,-0.1079102,0.1801758,-0.2255859
1061,49.0625,-93.875,-211.875,1.589844,0.4477539,0.4482422,-0.1293945,0.1713867,-0.2255859
1065,13.5,-14.375,-259.0625,1.345703,-0.04882813,0.1904297,-0.1459961,0.1601563,-0.2255859
1069,60.1875,-9.75,-252.3125,0.8300781,-0.4101563,0.1713867,-0.1582031,0.1513672,-0.2255859
1073,89.3125,-53.5625,-205.0625,0.690918,-0.2353516,0.04785156,-0.168457,0.1337891,-0.2270508
1077,113.8125,-102.875,-141.0625,0.690918,-0.1381836,0.02880859,-0.1831055,0.1186523,-0.2285156
1081,120.875,-73.375,-178.125,1.388184,0.7856445,0.4174805,-0.1899414,0.1074219,-0.230957
1085,44,24.6875,-277.8125,1.132324,0.7895508,0.2250977,-0.203125,0.08740234,-0.230957
1090,47.1875,-13.1875,-287.1875,0.574707,0.02050781,0.2172852,-0.2104492,0.06982422,-0.2338867
1094,80.25,-99.25,-244.8125,0.7993164,0.3193359,0.1557617,-0.21875,0.05126953,-0.2324219
1098,76.875,-129.4375,-221.6875,1.182617,0.5214844,0.1557617,-0.2294922,0.03125,-0.2270508
1102,84.75,-138.9375,-206.4375,1.19043,0.4555664,0.09423828,-0.2412109,0.01123047,-0.21875
1106,83,-123.8125,-230.3125,1.612793,1.084961,0.3251953,-0.2470703,-0.001953125,-0.2119141
1110,14.1875,-80,-271,1.52002,1.189941,0.2636719,-0.2543945,-0.02587891,-0.206543
1114,-0.9375,-116.5,-264.0625,1.26416,0.6694336,0.2250977,-0.2617188,-0.046875,-0.2011719
1118,9.0625,-141,-246.5625,1.698242,0.7856445,0.140625,-0.2651367,-0.06201172,-0.1904297
1122,13.25,-112.875,-224.4375,1.915039,0.6459961,0.1171875,-0.2709961,-0.07958984,-0.1821289
1126,30.0625,-82.75,-205.8125,1.651855,0.4907227,0.001953125,-0.2744141,-0.09960938,-0.1713867
1130,57,-82.5625,-188.5,1.310547,0.4282227,-0.07080078,-0.2734375,-0.1142578,-0.1674805
1134,87.9375,-85.8125,-188.3125,1.306641,0.5952148,0.001953125,-0.2734375,-0.1308594,-0.1616211
1138,86.5625,-61.75,-211.8125,1.376465,0.9335938,0.1367188,-0.2709961,-0.1533203,-0.1508789
1142,70.125,-38.5,-230,1.233398,0.9335938,0.2021484,-0.2675781,-0.1655273,-0.1484375
1146,65.0625,-46.625,-234.875,1.047363,0.855957,0.1713867,-0.2617188,-0.1894531,-0.1425781
1150,63.875,-71.0625,-221.625,0.9931641,0.8520508,0.1020508,-0.253418,-0.2104492,-0.1347656
1154,61.875,-100.625,-197.5625,1.008301,0.8286133,0.02099609,-0.2470703,-0.2231445,-0.1279297
1158,62.5625,-123.5625,-176.25,1.074219,0.809082,-0.06689453,-0.2387695,-0.2392578,-0.1166992
1162,67.5,-131.1875,-168,1.16748,0.7739258,-0.1054688,-0.2329102,-0.2558594,-0.1035156
1166,68.9375,-121.1875,-178.125,1.268066,0.8867188,-0.1015625,-0.2270508,-0.265625,-0.09228516
1170,56.6875,-104.8125,-180.6875,1.326172,1.034668,-0.04736328,-0.21875,-0.2768555,-0.08300781
1174,29.3125,-84.8125,-160.75,1.458008,1.034668,-0.01318359,-0.2089844,-0.2905273,-0.07177734
1178,5.5,-61.6875,-119,1.500488,0.8945313,-0.02050781,-0.2021484,-0.2983398,-0.06787109
1182,-5.1875,-47.3125,-65.8125,1.43457,0.7509766,-0.02050781,-0.1962891,-0.3056641,-0.06396484
1186,-10.875,-43.5,-20.875,1.333984,0.7041016,-0.05517578,-0.1914063,-0.3066406,-0.0625
1190,-10.8125,-39.875,1.375,1.345703,0.7041016,-0.07080078,-0.1914063,-0.3095703,-0.05957031
1194,-9.375,-27.8125,7.4375,1.426758,0.7392578,-0.05126953,-0.1938477,-0.3066406,-0.05957031
1198,-11.5,-5,14.125,1.52002,0.8051758,-0.02832031,-0.1923828,-0.3081055,-0.05957031
1202,-13.4375,22.5625,32.625,1.539551,0.777832,-0.05126953,-0.1948242,-0.3056641,-0.05859375
1206,-8.1875,47.125,58.8125,1.48877,0.7587891,-0.05517578,-0.1972656,-0.3032227,-0.0625
1210,-8.375,62.4375,80.75,1.403809,0.9492188,-0.03222656,-0.2021484,-0.2983398,-0.06933594
1214,-22.875,68.875,98,1.376465,1.104492,0.01367188,-0.2055664,-0.2929688,-0.07080078
1219,-39.875,68.6875,114,1.388184,1.12793,0.02099609,-0.2114258,-0.2880859,-0.07617188
1223,-46.125,66.25,137.125,1.446289,1.06543,-0.05126953,-0.2197266,-0.2768555,-0.08447266
1227,-43.1875,63.9375,170.625,1.48877,1.069336,-0.128418,-0.2246094,-0.2705078,-0.08984375
1231,-40.875,43.4375,211.125,1.426758,1.120117,-0.2207031,-0.2319336,-0.2558594,-0.09667969
1235,-28.6875,25.8125,245.875,1.63623,1.17041,-0.2089844,-0.2446289,-0.2368164,-0.1005859
1239,-30.375,43,272.1875,1.826172,1.418945,-0.1743164,-0.253418,-0.2246094,-0.1044922
1243,-41.125,85.375,284.4375,1.837891,1.543457,-0.1977539,-0.2636719,-0.1992188,-0.1088867
1247,-50.375,120.4375,281,1.694336,1.504395,-0.2631836,-0.2734375,-0.1757813,-0.1181641
1251,-43.4375,136.9375,281.875,1.531738,1.356934,-0.3208008,-0.2792969,-0.1567383,-0.1279297
1255,-37,131.875,301.125,1.341797,1.446289,-0.3208008,-0.2807617,-0.1318359,-0.1386719
1259,-50.125,93.5625,329.0625,1.132324,1.430664,-0.2900391,-0.2851563,-0.1020508,-0.1508789
1263,-52,65.9375,345.5,1.318359,1.317871,-0.1938477,-0.2875977,-0.08056641,-0.1547852
1267,-58.5625,82.8125,335.3125,1.554688,1.306641,-0.1630859,-0.2851563,-0.04833984,-0.1616211
1271,-65.375,131.375,313.625,1.612793,1.248047,-0.1782227,-0.2807617,-0.01708984,-0.168457
1275,-66.25,159.375,318.0625,1.283691,0.9296875,-0.2939453,-0.2724609,0.00390625,-0.1767578
1279,-45.1875,123.1875,342.4375,0.9272461,0.7392578,-0.2705078,-0.2617188,0.03271484,-0.1865234
1283,-33.4375,69.75,366.8125,0.9736328,0.8632813,-0.1552734,-0.2470703,0.0625,-0.1928711
1287,-42.1875,51.625,368.0625,1.268066,0.8442383,-0.03613281,-0.237793,0.08105469,-0.1928711
1291,-42.3125,93.25,359.75,1.496582,0.5878906,-0.09765625,-0.2197266,0.1088867,-0.1987305
1295,-19.875,159.0625,340.625,1.430664,0.5019531,-0.1743164,-0.1972656,0.1337891,-0.2041016
1299,-12.0625,184,356.875,0.9970703,0.5644531,-0.2436523,-0.1791992,0.1489258,-0.2094727
1303,-13.6875,160.25,381.875,0.7602539,0.6577148,-0.1362305,-0.1484375,0.1660156,-0.2163086
1307,-17.5,147.8125,393.9375,0.8071289,0.6030273,-0.112793,-0.1137695,0.1826172,-0.2246094
1311,-26.6875,161.375,384.0625,0.6054688,0.7041016,-0.09375,-0.09130859,0.1938477,-0.2255859
1315,-33.1875,185.4375,350,0.3999023,0.4829102,-0.128418,-0.05322266,0.2026367,-0.230957
1319,-28.5625,178.3125,325,-0.1303711,0.253418,-0.1821289,-0.01611328,0.2075195,-0.2285156
1323,-15.0625,147,315,-0.262207,0.21875,-0.1206055,0.006835938,0.2099609,-0.2285156
1327,-18.4375,110.3125,306.375,-0.4907227,0.3271484,-0.03613281,0.03808594,0.2050781,-0.2299805
1331,-35.625,91.5625,286.6875,-0.5449219,0.4013672,0.05957031,0.06884766,0.2011719,-0.2270508
1335,-54.75,86.9375,259.4375,-0.9052734,0.2885742,-0.03222656,0.08691406,0.1987305,-0.2216797
1339,-43.75,74.25,208,-1.501953,0.04736328,-0.1669922,0.109375,0.1948242,-0.2163086
1343,-19.5,56.125,143.75,-1.92041,-0.01806641,-0.2475586,0.1259766,0.1899414,-0.2119141
1348,2.625,44.8125,72.3125,-2.141602,0.105957,-0.2553711,0.1357422,0.1835938,-0.2094727
1352,11,22.1875,-0.6875,-2.234375,0.1484375,-0.2128906,0.1416016,0.1826172,-0.2109375
1356,16.75,-0.5625,-78.4375,-2.075684,0.08251953,-0.1362305,0.1401367,0.1835938,-0.2080078
1360,18.375,-29.0625,-136.0625,-1.645508,0.1020508,-0.06689453,0.1333008,0.1850586,-0.2109375
1364,17.125,-45.125,-178.6875,-1.211426,0.01269531,-0.03613281,0.1201172,0.1899414,-0.2109375
1368,26,-47.5,-212,-0.796875,-0.1269531,-0.04736328,0.105957,0.1972656,-0.2163086
1372,40.9375,-45,-235.375,-0.4907227,-0.1811523,-0.005371094,0.09130859,0.2011719,-0.2163086
1376,50.4375,-37.9375,-251.375,-0.2773438,-0.06445313,0.09423828,0.07128906,0.2036133,-0.2231445
1380,39.125,-47.75,-258.875,-0.2080078,0.03222656,0.1328125,0.05078125,0.2060547,-0.2246094
1384,33.6875,-62.9375,-271.25,-0.09521484,-0.1035156,0.105957,0.03417969,0.2075195,-0.2255859
1388,41.4375,-93.625,-280.75,-0.04101563,-0.1928711,0.1171875,0.008300781,0.2075195,-0.2285156
1392,47.1875,-130.625,-270.75,0.3535156,-0.08398438,0.1518555,-0.01855469,0.2060547,-0.2324219
1396,40.25,-141,-261.625,0.7216797,0.08251953,0.2172852,-0.03662109,0.2036133,-0.2338867
1400,21.875,-98.4375,-278.0625,1.035645,0.15625,0.2172852,-0.06494141,0.1962891,-0.2324219
1404,25.5625,-48.125,-300.625,0.8071289,-0.1889648,0.1289063,-0.08886719,0.1860352,-0.230957
1408,57.375,-38.625,-323.875,0.4389648,-0.1152344,0.09423828,-0.1044922,0.1787109,-0.2299805
1412,65.9375,-81.5625,-324.1875,0.3457031,0.2148438,0.125,-0.128418,0.1635742,-0.2324219
1416,56,-153.625,-279.5,0.5087891,0.4594727,0.144043,-0.1533203,0.1459961,-0.230957
1420,33.0625,-193.5,-260.3125,1.105469,0.5952148,0.1787109,-0.1674805,0.1347656,-0.2285156
1424,15.3125,-136.0625,-269.9375,1.492676,0.5253906,0.144043,-0.1923828,0.1186523,-0.2177734
1428,34.0625,-57.5625,-291.25,1.314453,0.15625,0.07910156,-0.2104492,0.1010742,-0.2119141
1432,69.4375,-41.9375,-292.0625,0.9272461,0.2612305,0.01367188,-0.2197266,0.08642578,-0.2119141
1436,87.0625,-85,-257.375,0.6557617,0.5527344,-0.009277344,-0.2319336,0.06103516,-0.2109375
1440,77.75,-117.75,-245.875,1.155762,1.061523,0.125,-0.2436523,0.04003906,-0.206543
1444,41.875,-76,-275.375,1.496582,1.146973,0.1328125,-0.2519531,0.02392578,-0.2026367
1448,52.25,-24.375,-294.8125,1.469727,0.5253906,0.009765625,-0.2602539,-0.0004882813,-0.2011719
1452,102.4375,-15.25,-293.25,1.279785,0.5991211,-0.04003906,-0.2626953,-0.02929688,-0.1972656
1456,125.875,-43.5,-260.25,1.241211,0.9682617,-0.04736328,-0.2636719,-0.046875,-0.1987305
1460,115.625,-75.6875,-237,1.500488,1.508301,0.2368164,-0.2651367,-0.07421875,-0.1918945
1464,61.375,-56.75,-263.125,1.849121,1.636719,0.3520508,-0.2651367,-0.1020508,-0.1865234
1468,47.625,-24.375,-262.9375,1.76416,1.081055,0.3828125,-0.2626953,-0.1142578,-0.1835938
1472,58.75,-31.25,-234.6875,1.48877,1.13916,0.3212891,-0.2568359,-0.140625,-0.1821289
1477,51.8125,-50,-210,1.233398,1.150879,0.2172852,-0.253418,-0.1621094,-0.1767578
1481,52.625,-79,-191.625,1.059082,1.01123,0.06347656,-0.2509766,-0.1743164,-0.1728516
1485,62.4375,-97.875,-193.3125,1.171387,0.9414063,0.02490234,-0.2485352,-0.1904297,-0.1660156
1489,71.625,-75.375,-213.75,1.345703,0.9682617,0.04052734,-0.2412109,-0.2094727,-0.15625
1493,77.875,-65.25,-224.5625,1.105469,0.9101563,0.01708984,-0.2353516,-0.2216797,-0.1494141
1497,86.625,-75.0625,-225.125,1.097656,0.956543,0.01708984,-0.2270508,-0.2416992,-0.1386719
1501,86.5,-85.4375,-214.4375,1.182617,0.9916992,0.02099609,-0.2163086,-0.2617188,-0.1289063
1505,76.75,-100.5,-195.9375,1.225586,1.116211,0.08642578,-0.2114258,-0.2729492,-0.1210938
1509,50.0625,-96.375,-188.125,1.492676,1.186035,0.1787109,-0.2006836,-0.2866211,-0.1098633
1513,23.1875,-76.6875,-162.875,1.63623,1.034668,0.1557617,-0.1855469,-0.3007813,-0.1005859
1517,8,-48.6875,-119.8125,1.736816,0.7895508,0.06738281,-0.184082,-0.3081055,-0.09667969
1521,9.4375,-25.875,-75.75,1.670898,0.6030273,0.005859375,-0.1757813,-0.3129883,-0.09375
1525,15.4375,-22.5,-31.1875,1.612793,0.5527344,0.03662109,-0.1699219,-0.3154297,-0.09375
1529,14.0625,-17.9375,6.1875,1.694336,0.7705078,0.1367188,-0.1723633,-0.3178711,-0.08984375
1533,-5.5625,1.0625,38.9375,1.717773,0.8325195,0.2021484,-0.1748047,-0.3193359,-0.09228516
1537,-14.75,23.0625,68.4375,1.624512,0.7470703,0.1748047,-0.1757813,-0.3129883,-0.09375
1541,-16.125,42.75,88.875,1.523926,0.7739258,0.125,-0.1806641,-0.3105469,-0.09521484
1545,-18.75,55.25,103.5625,1.388184,0.8208008,0.1132813,-0.1855469,-0.3032227,-0.09765625
1549,-20.5625,51.625,119.375,1.275879,0.8828125,0.125,-0.1923828,-0.296875,-0.1020508
1553,-25.6875,39.25,140.125,1.299316,0.9375,0.140625,-0.1972656,-0.2919922,-0.1035156
1557,-27.75,36.8125,157.375,1.461914,1.022949,0.1787109,-0.206543,-0.2832031,-0.1088867
1561,-36.75,46.8125,176.1875,1.597656,1.158691,0.1518555,-0.2163086,-0.2680664,-0.1142578
1565,-45.25,53.625,207.75,1.663574,1.236328,0.1367188,-0.2211914,-0.2592773,-0.1181641
1569,-53,61,241.875,1.717773,1.255859,0.05566406,-0.2353516,-0.2431641,-0.1264648
1573,-45,71.8125,268.9375,1.794922,1.279297,0.01367188,-0.2446289,-0.2207031,-0.1289063
1577,-43.125,92.125,280.125,1.868652,1.493164,0.001953125,-0.253418,-0.2070313,-0.137207
1581,-47.1875,110.0625,278.4375,1.837891,1.46582,-0.01660156,-0.2617188,-0.1831055,-0.1469727
1585,-54.125,112.875,307.5,1.682617,1.512207,-0.07470703,-0.2675781,-0.1557617,-0.1577148
1589,-63.1875,95.1875,349.375,1.543457,1.52002,-0.05517578,-0.2709961,-0.1357422,-0.1645508
1593,-71.5625,80.375,371.375,1.477539,1.458008,-0.04003906,-0.2744141,-0.1030273,-0.1738281
1597,-69.875,80.625,365.25,1.516113,1.279297,-0.03222656,-0.2734375,-0.06835938,-0.1806641
1601,-54.75,111.625,343.8125,1.628418,1.189941,-0.04736328,-0.2734375,-0.04443359,-0.1835938
1606,-53.9375,142.3125,332.3125,1.368652,1.154785,-0.1015625,-0.2661133,-0.01464844,-0.1928711
1610,-55.375,119.1875,348.0625,0.8959961,1.049805,-0.1015625,-0.2553711,0.01513672,-0.2026367
1614,-63.4375,55.125,371.4375,0.7294922,0.9916992,-0.04003906,-0.2446289,0.03515625,-0.206543
1618,-71.375,22.125,371.25,1.000488,0.9140625,-0.01318359,-0.234375,0.06738281,-0.2055664
1622,-70.25,35.9375,350.375,1.237305,0.7119141,-0.01318359,-0.2197266,0.09619141,-0.206543
1626,-53.625,68.9375,323.75,1.237305,0.4360352,-0.08984375,-0.2089844,0.1137695,-0.2080078
1630,-24.375,92.25,330.125,1.124512,0.3974609,-0.1206055,-0.1899414,0.1362305,-0.2094727
1634,-16.8125,89.625,345.4375,0.8999023,0.4477539,-0.1245117,-0.1665039,0.15625,-0.2119141
1638,-12.875,87.5,355,0.8378906,0.5449219,-0.06298828,-0.1494141,0.1689453,-0.2133789
1642,-25,87.4375,339.5625,0.6557617,0.5332031,-0.03613281,-0.1220703,0.1835938,-0.2163086
1646,-29.25,91.75,325.75,0.659668,0.3818359,-0.04394531,-0.09228516,0.1962891,-0.2216797
1650,-24.5,92.25,306.25,0.543457,0.09814453,-0.05517578,-0.07470703,0.2026367,-0.21875
1654,-1.5625,89.8125,301.6875,0.7060547,0.03222656,-0.009277344,-0.04736328,0.2099609,-0.2216797
1658,3.4375,89.75,317.3125,0.6171875,0.09423828,0.01367188,-0.01855469,0.2124023,-0.2231445
1662,8.6875,97.5625,324.6875,0.6948242,0.09423828,0.05957031,0.002441406,0.2124023,-0.2270508
1666,-4.875,130.25,326.5625,0.3339844,0.3193359,0.04052734,0.03417969,0.2114258,-0.2255859
1670,-19.75,128.0625,327,-0.4907227,0.3427734,0.05175781,0.06787109,0.2050781,-0.2246094
1674,-28,118.375,304.4375,-1.35498,0.3232422,-0.08203125,0.08789063,0.1987305,-0.2202148
1678,-23.9375,83.3125,241.4375,-2.211426,0.4243164,-0.1630859,0.1152344,0.1914063,-0.2177734
1682,-15.125,59.4375,170.5625,-2.637207,0.5058594,-0.2436523,0.1367188,0.1811523,-0.2119141
1686,-2.0625,29.1875,64,-2.854492,0.3427734,-0.2705078,0.144043,0.1787109,-0.2094727
1690,7.375,-0.6875,-49.0625,-2.354492,0.3662109,-0.0859375,0.1484375,0.1772461,-0.2109375
1694,-12,-28.5,-126.6875,-1.618164,0.3193359,0.1098633,0.1401367,0.1811523,-0.2094727
1698,-31.625,-58.0625,-158.6875,-0.9672852,-0.01025391,0.1367188,0.1333008,0.1850586,-0.2109375
1702,-29.9375,-76.9375,-159.5625,-0.3706055,-0.340332,0.09814453,0.1176758,0.1948242,-0.206543
1706,-11.6875,-67.125,-145.875,-0.05664063,-0.503418,0.105957,0.1035156,0.2026367,-0.2080078
1710,4.4375,-33.375,-154.0625,-0.09130859,-0.4882813,0.105957,0.09375,0.2050781,-0.2109375
1714,19.5,-0.1875,-183.375,-0.1923828,-0.3989258,0.159668,0.07861328,0.2114258,-0.2133789
1718,25.875,13.5,-216.625,-0.4052734,-0.3286133,0.1098633,0.06542969,0.2138672,-0.2133789
1722,27.3125,2.1875,-245.3125,-0.4711914,-0.2124023,0.105957,0.05322266,0.2148438,-0.2148438
1726,22.5625,-38.3125,-251.0625,-0.4130859,-0.1538086,0.08642578,0.03173828,0.21875,-0.2148438
1730,20.5,-76.125,-244.1875,-0.01806641,-0.1655273,0.07128906,0.009277344,0.21875,-0.2163086
1735,30.4375,-71.75,-243.3125,0.4311523,-0.2314453,0.05566406,-0.006835938,0.2172852,-0.2177734
1739,46.3125,-36.625,-266.125,0.6210938,-0.1035156,0.140625,-0.02832031,0.2148438,-0.2202148
1743,48.4375,-8.5,-295.6875,0.3496094,0.01660156,0.1674805,-0.05078125,0.2075195,-0.2202148
1747,42.5,-38.5,-309.25,0.2993164,0.03222656,0.1518555,-0.06640625,0.2036133,-0.2246094
1751,40.25,-84.8125,-271.5625,0.5048828,0.01269531,0.1748047,-0.09033203,0.1899414,-0.2255859
1755,48.5,-127.25,-237.5,0.8691406,-0.1655273,0.09423828,-0.1152344,0.1826172,-0.2231445
1759,65.5625,-113.4375,-222.4375,1.484863,0.07861328,0.2211914,-0.1293945,0.1738281,-0.2216797
1763,56.0625,-23.125,-251.25,1.46582,0.1601563,0.1904297,-0.1494141,0.1601563,-0.2202148
1767,73.5625,-1.625,-269.4375,0.9233398,-0.1347656,0.1674805,-0.1640625,0.1435547,-0.2270508
1771,92.875,-29.3125,-258.125,0.8222656,0.0009765625,0.125,-0.1723633,0.1298828,-0.2246094
1775,99.3125,-84.4375,-218.9375,0.8378906,0.1484375,0.1865234,-0.1889648,0.1113281,-0.2299805
1779,77.0625,-147.5,-196.5,1.085938,0.5605469,0.3291016,-0.2045898,0.09228516,-0.2231445
1783,19.3125,-129.1875,-222.0625,1.783691,0.809082,0.3520508,-0.2128906,0.08105469,-0.2231445
1787,-5.4375,-94.375,-231.625,1.582031,0.05908203,0.1713867,-0.2294922,0.06738281,-0.2148438
1791,49.8125,-76.0625,-226.75,1.43457,-0.1347656,0.07519531,-0.237793,0.04882813,-0.2119141
1795,85.3125,-61.25,-218.75,1.252441,0.06298828,0.02490234,-0.2446289,0.03515625,-0.2080078
1799,106.8125,-79.9375,-206.1875,0.8535156,0.3505859,0.03662109,-0.2519531,0.01269531,-0.2055664
1803,85.9375,-104.5,-232.3125,1.16748,1.084961,0.2983398,-0.2602539,-0.01074219,-0.199707
1807,13.8125,-81.8125,-272.1875,1.291504,1.158691,0.2597656,-0.2636719,-0.02441406,-0.1943359
1811,0.1875,-85.1875,-289,1.105469,0.6694336,0.144043,-0.2685547,-0.046875,-0.1904297
1815,8.9375,-126.6875,-276.375,1.202148,0.7587891,0.1210938,-0.2744141,-0.07177734,-0.1796875
1819,-4.125,-162.3125,-241.375,1.535645,0.9453125,0.1098633,-0.2758789,-0.08691406,-0.1728516
1823,-21.0625,-155,-213.1875,1.907715,0.8710938,0.105957,-0.2792969,-0.1083984,-0.1591797
1827,-28.625,-111.0625,-201.4375,1.915039,0.7236328,0.03662109,-0.2807617,-0.1230469,-0.1469727
1831,-19.6875,-69.4375,-199.875,1.647949,0.5878906,-0.01660156,-0.2792969,-0.1357422,-0.1425781
1835,-1.25,-55.6875,-199,1.287598,0.5722656,-0.08203125,-0.2792969,-0.1508789,-0.137207
1839,17.25,-58.5,-192.5,1.105469,0.5913086,-0.1166992,-0.2724609,-0.1694336,-0.1318359
1843,34.6875,-59.375,-182.375,1.109375,0.5991211,-0.08984375,-0.2685547,-0.1821289,-0.1289063
1847,49.75,-50.4375,-181.5625,1.19043,0.7739258,-0.009277344,-0.2636719,-0.1943359,-0.1225586
1851,49.4375,-23.875,-184.375,1.252441,0.8828125,0.05957031,-0.2553711,-0.2128906,-0.1166992
1855,47.1875,-3.375,-189.375,1.140137,0.890625,0.1210938,-0.2509766,-0.2231445,-0.1142578
1859,42.3125,-12.5625,-176.5625,0.9311523,0.921875,0.1132813,-0.2402344,-0.2407227,-0.1142578
1864,33,-42.5,-160.375,0.8803711,0.9682617,0.105957,-0.2319336,-0.2543945,-0.1088867
1868,21.125,-78.375,-143.75,0.9853516,0.890625,0.05175781,-0.2270508,-0.2631836,-0.1044922
1872,14,-87.6875,-135.6875,1.314453,0.9492188,0.08251953,-0.2197266,-0.2729492,-0.09667969
1876,-7.3125,-62.125,-130.875,1.496582,1.026855,0.08251953,-0.2114258,-0.2832031,-0.09228516
1880,-21.8125,-41.5625,-96.5625,1.508301,0.7626953,0.06738281,-0.2089844,-0.2895508,-0.09082031
1884,-20.5,-23.3125,-63.9375,1.516113,0.6499023,-0.001464844,-0.2021484,-0.2944336,-0.08984375
1888,-22.75,-17.625,-28.125,1.368652,0.6108398,-0.06689453,-0.1972656,-0.2954102,-0.08984375
1892,-17.625,-28.625,2.6875,1.39209,0.5644531,-0.05908203,-0.1982422,-0.296875,-0.08984375
1896,-17.0625,-31.625,30.875,1.543457,0.6264648,-0.04736328,-0.1982422,-0.2954102,-0.08837891
1900,-22.1875,-16.75,54.6875,1.702148,0.7470703,-0.009277344,-0.2045898,-0.2929688,-0.08984375
1904,-32.6875,0.75,91.0625,1.72168,0.8051758,-0.01660156,-0.206543,-0.2905273,-0.08984375
1908,-41.5,17.375,124.25,1.713867,0.7666016,-0.05517578,-0.2138672,-0.2817383,-0.09082031
1912,-31.375,30.5625,155.3125,1.63623,0.6772461,-0.1323242,-0.2211914,-0.2705078,-0.09667969
1916,-16.25,41.375,172.875,1.597656,0.809082,-0.1166992,-0.2280273,-0.2631836,-0.09667969
1920,-12.5625,47.1875,180,1.585938,0.9335938,-0.08984375,-0.237793,-0.2495117,-0.1035156
1924,-11.0625,48.25,191.875,1.702148,1.053711,-0.05126953,-0.2470703,-0.234375,-0.1074219
1928,-18.1875,58,215.1875,1.918945,1.251953,-0.04394531,-0.253418,-0.2231445,-0.1098633
1932,-27.375,71.125,268.1875,1.954102,1.314453,-0.1245117,-0.2617188,-0.2045898,-0.1157227
1936,-28.8125,67,319.9375,1.783691,1.251953,-0.1669922,-0.2709961,-0.1791992,-0.1235352
1940,-15.625,62.625,346.4375,1.717773,1.251953,-0.1938477,-0.2758789,-0.1582031,-0.1264648
1944,-5.6875,73.5625,344.6875,1.725586,1.376465,-0.128418,-0.2851563,-0.1269531,-0.1333008
1948,-8,100.4375,327.875,1.729004,1.321777,-0.1245117,-0.2890625,-0.09570313,-0.1386719
1952,-15.875,121,323.625,1.512207,1.321777,-0.1054688,-0.2900391,-0.078125,-0.1455078
1956,-23.6875,103.9375,339.625,1.206055,1.120117,-0.1401367,-0.2866211,-0.04833984,-0.15625
1960,-22.5,64.125,348.1875,1.194336,1.073242,-0.0859375,-0.2817383,-0.01708984,-0.1630859
1964,-22,54.9375,341.9375,1.527832,1.019043,-0.02441406,-0.2768555,0.004882813,-0.1674805
1968,-25.4375,91.6875,330.875,1.779785,0.9799805,-0.01660156,-0.2700195,0.03369141,-0.1699219
1972,-30,123.9375,337.5,1.361328,0.8632813,-0.1245117,-0.2578125,0.0625,-0.1782227
1976,-20.5625,101.75,351.0625,1.078125,0.6069336,-0.1401367,-0.2460938,0.07861328,-0.1850586
1980,-4,79.375,360.375,1.055176,0.5991211,-0.112793,-0.2270508,0.1074219,-0.1889648
1984,1.5,77.25,357.625,1.229492,0.6694336,-0.02832031,-0.2080078,0.1298828,-0.1958008
1988,-3,107.125,327.4375,1.302734,0.5800781,-0.05908203,-0.1923828,0.1450195,-0.1987305
1993,4.6875,130.8125,326.6875,1.0625,0.5058594,-0.07080078,-0.168457,0.1625977,-0.206543
1997,2.5,147.9375,318.5625,1.000488,0.4672852,-0.1054688,-0.1411133,0.1787109,-0.2094727
2001,11.4375,155.125,331.3125,0.7836914,0.3662109,-0.09765625,-0.1201172,0.1850586,-0.2163086
2005,15.1875,146.0625,327,0.574707,0.4516602,-0.06689453,-0.08886719,0.1962891,-0.2246094
2009,9.1875,154.6875,306.5,0.6479492,0.4790039,0.04052734,-0.05664063,0.2026367,-0.2270508
2013,-2.875,177.3125,280.9375,0.5473633,0.4711914,0.05175781,-0.03515625,0.2050781,-0.2285156
2017,-7.375,188.5625,260.6875,0.4233398,0.2070313,0.04052734,-0.004394531,0.2050781,-0.2338867
2021,-11.9375,173.4375,283.125,-0.04882813,0.2612305,-0.009277344,0.02734375,0.2026367,-0.230957
2025,-22.0625,135.4375,306.1875,-0.3862305,0.3041992,-0.02832031,0.04980469,0.2011719,-0.2299805
2029,-29.6875,118.25,293.125,-0.6611328,0.3427734,-0.02441406,0.08056641,0.1962891,-0.2270508
2033,-44,103,247.9375,-1.277344,0.3662109,-0.112793,0.1079102,0.1884766,-0.2216797
2037,-59.1875,78.8125,177.6875,-1.691895,0.3349609,-0.1591797,0.1235352,0.1860352,-0.2163086
2041,-65.625,48.3125,101.1875,-2.102539,0.1254883,-0.2631836,0.1367188,0.1826172,-0.2119141
2045,-51.5625,-20.625,65.1875,-2.436035,-0.07617188,-0.3476563,0.1450195,0.1850586,-0.2055664
2049,-24,-58.0625,4.375,-2.013672,-0.08789063,-0.2285156,0.1474609,0.1811523,-0.2041016
2053,-5.6875,-44.5,-72,-1.525391,-0.05664063,-0.1166992,0.1425781,0.1835938,-0.2041016
2057,9.3125,-19.625,-132.25,-1.176758,-0.1113281,-0.009277344,0.1342773,0.1884766,-0.206543
2061,19.8125,-9.5,-173.8125,-1.041016,-0.1420898,0.01708984,0.1259766,0.1923828,-0.206543
2065,29.625,-14.375,-201.0625,-0.9130859,-0.1538086,0.001953125,0.1103516,0.1987305,-0.2080078
2069,34.9375,-24.5625,-224.5625,-0.765625,-0.1191406,-0.009277344,0.09277344,0.2036133,-0.2094727
2073,35.9375,-40.1875,-249.375,-0.699707,-0.01416016,0.03662109,0.08203125,0.2075195,-0.2119141
2077,27.75,-67.1875,-275.875,-0.4985352,0.105957,0.07910156,0.05957031,0.2114258,-0.2163086
2081,16.6875,-94.5625,-295.875,-0.2504883,0.09423828,0.1098633,0.03173828,0.2148438,-0.2177734
2085,3.5,-113.125,-304.8125,0.06689453,0.105957,0.1098633,0.01416016,0.2163086,-0.2177734
2089,-3.8125,-118.75,-312.3125,0.3925781,0.07080078,0.140625,-0.01757813,0.2148438,-0.21875
2093,-10.125,-117.875,-332.5625,0.5087891,0.09423828,0.1132813,-0.04980469,0.2124023,-0.2119141
2097,-9.8125,-110.5,-337,0.8535156,0.03613281,0.144043,-0.07226563,0.2114258,-0.2133789
2101,-3.9375,-79.3125,-346.6875,1.144043,0.04003906,0.1518555,-0.1030273,0.2026367,-0.2094727
2105,2.1875,-58.1875,-323.4375,0.9389648,0.07080078,0.144043,-0.1318359,0.1899414,-0.206543
2109,1.8125,-104.125,-308.375,0.7568359,0.1020508,0.1210938,-0.1459961,0.1811523,-0.2026367
2113,4.8125,-122.875,-288.6875,1.171387,0.171875,0.1328125,-0.1723633,0.1689453,-0.1987305
2117,12.4375,-90.8125,-289.0625,1.481445,0.07470703,0.1132813,-0.1948242,0.1489258,-0.1889648
2122,27.375,-46.375,-286.9375,1.186523,0.1757813,0.125,-0.2055664,0.1362305,-0.1889648
2126,36.125,-59,-274.6875,0.8881836,0.1601563,0.05957031,-0.222168,0.1162109,-0.1875
2130,48.3125,-95.25,-250.625,0.7954102,0.4052734,0.08251953,-0.2363281,0.09619141,-0.1865234
2134,42,-112.6875,-255.6875,1.144043,0.8286133,0.2368164,-0.2470703,0.08105469,-0.1782227
2138,8.5625,-55.125,-296.5625,1.512207,0.9140625,0.1904297,-0.2592773,0.05859375,-0.1738281
2142,13.5625,-14.6875,-307.375,1.225586,0.4868164,0.1748047,-0.2685547,0.03613281,-0.1699219
2146,34.8125,-25.375,-296.375,1.043457,0.6655273,0.105957,-0.2734375,0.01611328,-0.1699219
2150,40.375,-61.6875,-267.375,1.039551,0.8632813,0.105957,-0.2792969,-0.008300781,-0.168457
2154,27.3125,-67.0625,-282.1875,1.535645,1.399902,0.2675781,-0.2841797,-0.03466797,-0.1645508
2158,-20.75,-9.125,-301.25,1.744629,1.399902,0.1635742,-0.2866211,-0.05175781,-0.1616211
2162,-19.25,20.75,-293.375,1.430664,0.777832,0.07128906,-0.2827148,-0.07714844,-0.1616211
2166,11.875,24,-268.5,1.182617,0.8867188,-0.009277344,-0.2783203,-0.1020508,-0.1616211
2170,24.375,14.9375,-253.75,0.9931641,1.088867,-0.03222656,-0.2734375,-0.1181641,-0.1660156
2174,33.125,-12.75,-249.0625,0.9038086,1.116211,-0.02441406,-0.2685547,-0.1420898,-0.1645508
2178,40.375,-17.6875,-264.6875,1.217773,1.36084,0.1557617,-0.2617188,-0.1630859,-0.1616211
2182,32.25,-6.5625,-271.75,1.399902,1.271484,0.2597656,-0.2543945,-0.1782227,-0.1606445
2186,41.875,-2.375,-259.1875,1.458008,1.073242,0.3251953,-0.2426758,-0.2016602,-0.1606445
2190,48.75,-29.8125,-217.9375,1.349609,0.953125,0.3251953,-0.2319336,-0.2216797,-0.1591797
2194,61.625,-79.625,-172.375,1.477539,0.7626953,0.2709961,-0.2270508,-0.234375,-0.1523438
2198,63.625,-105.4375,-139.9375,1.779785,0.9179688,0.2250977,-0.222168,-0.2480469,-0.1416016
2202,50.6875,-73.125,-126.125,2.042969,1.007324,0.2519531,-0.2163086,-0.2607422,-0.1333008
2206,25.5625,-17.3125,-101.375,1.868652,0.9140625,0.159668,-0.2114258,-0.265625,-0.1279297
2210,19.0625,13.9375,-53.6875,1.523926,0.6420898,0.08642578,-0.2080078,-0.2744141,-0.1235352
2214,16.1875,24.3125,-7.625,1.182617,0.7080078,0.01708984,-0.2055664,-0.2768555,-0.1279297
2218,12.6875,1.9375,14.5,0.8769531,0.5878906,0.001953125,-0.203125,-0.2783203,-0.1279297
2222,12.5625,-31.875,13.4375,0.8842773,0.7587891,0.04785156,-0.2055664,-0.2753906,-0.1264648
2226,-14.75,-39.5625,-3.5,1.244629,0.953125,0.140625,-0.206543,-0.2753906,-0.1225586
2230,-33.875,-28.125,2.5625,1.473633,0.6923828,0.09423828,-0.2080078,-0.2744141,-0.1225586
2234,-26.125,-24.1875,44.6875,1.554688,0.5488281,0.02880859,-0.2089844,-0.2729492,-0.1225586
2238,-10.75,-15.75,88.125,1.717773,0.6030273,0.02880859,-0.2138672,-0.2680664,-0.1210938
2242,-1.875,-5.1875,123.125,1.725586,0.809082,0.04052734,-0.21875,-0.2631836,-0.1225586
2246,-4.3125,-5.125,155.0625,1.729004,0.9296875,0.07128906,-0.2280273,-0.2543945,-0.1225586
2251,-9.4375,-6.875,189.0625,1.73291,1.049805,0.1020508,-0.237793,-0.2416992,-0.1210938
2255,-15.25,-12.125,224.5625,1.76416,1.069336,0.07128906,-0.2436523,-0.2294922,-0.1210938
2259,-9,-8.8125,256.0625,1.868652,1.06543,0.04443359,-0.2553711,-0.2119141,-0.1196289
2263,0,13,284.6875,2.016113,1.131836,0.04052734,-0.2685547,-0.1855469,-0.1196289
2267,3.875,50.8125,303.875,2.023926,1.298828,0.02099609,-0.2758789,-0.171875,-0.1210938
2271,-5.625,78.3125,326.5625,1.725586,1.407715,-0.01660156,-0.2841797,-0.1445313,-0.1279297
2275,-17,59.3125,351.1875,1.330078,1.267578,-0.04003906,-0.2890625,-0.1132813,-0.1333008
2279,-12.5625,36.875,352.625,1.237305,1.154785,-0.005371094,-0.2924805,-0.09082031,-0.137207
2283,-14.875,20.875,336.375,1.163574,1.061523,0.01708984,-0.2958984,-0.05810547,-0.137207
2287,-8.5,22.625,321.1875,1.364746,0.8598633,0.06738281,-0.293457,-0.02685547,-0.1416016
2291,-4,50.9375,313.1875,1.574219,0.793457,0.08251953,-0.2924805,-0.008300781,-0.1416016
2295,-1.0625,96.1875,316.375,1.59375,0.9335938,0.09814453,-0.2851563,0.01855469,-0.1484375
2299,-20.6875,117.8125,299.5,1.299316,1.030762,0.08251953,-0.2744141,0.04638672,-0.1577148
2303,-40.75,108.875,286.8125,0.9233398,0.7626953,0.02099609,-0.2661133,0.06396484,-0.1630859
2307,-34.8125,62.5625,286.75,0.8999023,0.3623047,0.02880859,-0.2519531,0.08886719,-0.1674805
2311,-21,46.875,310.6875,1.109375,0.3662109,0.01367188,-0.237793,0.1098633,-0.1728516
2315,-16.75,45.75,327.375,1.22168,0.4052734,0.08642578,-0.2280273,0.1274414,-0.1728516
2319,-21.375,84,310,1.283691,0.6030273,0.08251953,-0.206543,0.1489258,-0.175293
2323,-26.1875,125.6875,296.3125,1.097656,0.3041992,-0.01318359,-0.1865234,0.1689453,-0.1806641
2327,-11,126.3125,301,0.7138672,0.1679688,-0.07080078,-0.1699219,0.1801758,-0.1850586
2331,-4.5,100,310.375,0.6054688,0.3466797,0.02099609,-0.1435547,0.1938477,-0.1889648
2335,-22.375,75.8125,303.1875,0.6557617,0.3388672,0.105957,-0.1152344,0.2084961,-0.1918945
2339,-25.5625,80.375,312.375,0.7060547,0.1333008,0.04443359,-0.09863281,0.2148438,-0.1928711
2343,-14.8125,100.8125,293.375,0.7758789,0.04736328,0.06738281,-0.07128906,0.2236328,-0.1943359
2347,-10.5,127.375,282.3125,0.5820313,0.03222656,0.01708984,-0.04150391,0.2285156,-0.1943359
2351,-2.375,129.75,294.875,0.3110352,0.05126953,0.005859375,-0.02001953,0.2314453,-0.1972656
2355,-15.875,106.75,293.5625,-0.2773438,0.2456055,0.06347656,0.009277344,0.2314453,-0.1972656
2359,-38.125,55.5625,274.8125,-0.5102539,0.121582,0.09033203,0.03808594,0.2299805,-0.1972656
2363,-37.3125,50.625,238.5,-0.3745117,-0.1381836,0.02490234,0.0546875,0.2285156,-0.1928711
2367,-20.5,87.1875,203.5625,-0.5371094,-0.1733398,-0.08203125,0.07861328,0.2250977,-0.1918945
2371,-7.9375,95.3125,182.1875,-1.199707,-0.1230469,-0.1743164,0.09863281,0.2211914,-0.1865234
2375,1.5,72.25,153.8125,-1.734375,-0.09960938,-0.2592773,0.1118164,0.2148438,-0.1865234
2380,19.0625,43.875,93.4375,-1.819824,-0.1308594,-0.2475586,0.1235352,0.2099609,-0.1821289
2384,22.25,33.625,8.4375,-1.843262,0.04394531,-0.1513672,0.1308594,0.2060547,-0.1835938
2388,7.125,2.5,-62.9375,-1.819824,0.008789063,-0.09765625,0.1318359,0.2060547,-0.1850586
2392,4.75,-28.3125,-117.625,-1.436035,-0.1772461,-0.05126953,0.125,0.2099609,-0.1835938
2396,11.125,-44.9375,-150.875,-0.9555664,-0.3017578,-0.06298828,0.112793,0.2138672,-0.1865234
2400,22.9375,-44.625,-161.25,-0.6611328,-0.3520508,-0.05517578,0.1020508,0.2172852,-0.1875
2404,39.625,-32.5625,-177.1875,-0.4521484,-0.3325195,-0.02832031,0.08789063,0.2197266,-0.1904297
2408,52.8125,-12.8125,-209.3125,-0.3706055,-0.2626953,0.001953125,0.06982422,0.2236328,-0.1943359
2412,59.8125,-10.75,-241.1875,-0.347168,-0.1499023,0.06738281,0.05810547,0.2260742,-0.199707
2416,50.9375,-33.8125,-265.4375,-0.362793,-0.05664063,0.1132813,0.03662109,0.2260742,-0.2026367
2420,40.25,-88.8125,-254.4375,-0.2426758,-0.1269531,0.06347656,0.01416016,0.2260742,-0.2080078
2424,43.125,-142.125,-217.875,0.0009765625,-0.2939453,-0.04394531,-0.003417969,0.2275391,-0.206543
2428,68.25,-154.875,-198,0.4038086,-0.1499023,-0.005371094,-0.02832031,0.2226563,-0.2094727
2432,62.125,-97.8125,-243.5625,0.8183594,0.5136719,0.2480469,-0.05566406,0.2138672,-0.2148438
2436,6.9375,-11.125,-326.3125,0.8535156,0.5488281,0.2675781,-0.06982422,0.2099609,-0.2133789
2440,-7.6875,-16.5,-337.25,0.5629883,-0.05664063,0.2675781,-0.09375,0.2001953,-0.2119141
2444,16.8125,-102.875,-279.875,0.625,-0.2045898,0.2250977,-0.1201172,0.1914063,-0.2109375
2448,33.4375,-170.75,-201.625,1.132324,-0.340332,0.1328125,-0.1376953,0.1835938,-0.2094727
2452,57.1875,-130.9375,-196.0625,1.880371,0.06298828,0.3598633,-0.1567383,0.1723633,-0.199707
2456,41.5625,-8.5,-241.5625,1.849121,0.1020508,0.2827148,-0.1748047,0.1586914,-0.2026367
2460,48.5,48,-268.8125,1.027832,-0.1577148,0.2441406,-0.184082,0.1474609,-0.2026367
2464,72.625,-10.5625,-253.5,0.3847656,-0.03369141,0.1748047,-0.1938477,0.1274414,-0.2094727
2468,65.4375,-112.0625,-215.75,0.4775391,0.3349609,0.1826172,-0.2089844,0.1088867,-0.2094727
2472,42.875,-146.375,-216.9375,1.256348,0.6030273,0.3017578,-0.2211914,0.09765625,-0.206543
2476,25.125,-85.3125,-250.5,1.632324,0.3974609,0.2250977,-0.2363281,0.08105469,-0.1972656
2480,48.5,-34,-260.25,1.345703,0.04003906,0.1328125,-0.2446289,0.0625,-0.1943359
2484,84.1875,-26.8125,-246.25,0.9423828,0.2651367,0.09814453,-0.2519531,0.04638672,-0.1943359
2488,89.1875,-68.3125,-222.5625,0.6635742,0.5644531,0.04443359,-0.2602539,0.02246094,-0.1943359
2492,79.125,-107.25,-213.125,0.8652344,0.9101563,0.144043,-0.2661133,0,-0.1904297
2496,51.3125,-87.6875,-245.6875,1.287598,1.213379,0.2402344,-0.2709961,-0.015625,-0.1821289
2500,29.5,-39.5625,-285.3125,1.241211,0.921875,0.140625,-0.2768555,-0.03955078,-0.1767578
2504,57.0625,-32.0625,-293.75,1.012207,0.6923828,0.08642578,-0.2768555,-0.06591797,-0.1738281
2509,88.9375,-50.4375,-283.5,0.9501953,0.8867188,0.02880859,-0.2768555,-0.08447266,-0.1713867
2513,104.375,-77.9375,-271.625,1.085938,1.333496,0.1289063,-0.2744141,-0.1118164,-0.1660156
2517,70.0625,-59.4375,-286.3125,1.516113,1.72998,0.3056641,-0.2709961,-0.1420898,-0.1577148
2521,36.9375,-34.5625,-297.875,1.508301,1.422852,0.2944336,-0.2661133,-0.1582031,-0.1538086
2525,44.1875,-39.125,-299.5625,1.353516,1.213379,0.1904297,-0.2578125,-0.1831055,-0.1494141
2529,53.75,-57.625,-291.75,1.376465,1.12793,0.07519531,-0.2460938,-0.2104492,-0.1455078
2533,57.75,-84.75,-271.25,1.314453,1.073242,-0.08203125,-0.2402344,-0.2280273,-0.1401367
2537,61.5625,-114.875,-241.625,1.384277,0.9956055,-0.1630859,-0.2270508,-0.2480469,-0.1303711
2541,58.375,-123,-202.5625,1.644043,1.003418,-0.109375,-0.2197266,-0.2680664,-0.1166992
2545,35.875,-98.625,-135,1.942383,1.112305,0.05175781,-0.2114258,-0.2768555,-0.1088867
2549,5.3125,-45.3125,-76.5625,1.980957,0.987793,0.1289063,-0.206543,-0.2841797,-0.1020508
2553,-14.1875,0,-38.75,1.674805,0.8051758,0.07128906,-0.203125,-0.2905273,-0.1020508
2557,-19.8125,18.125,-20.9375,1.341797,0.6069336,-0.08203125,-0.2006836,-0.2919922,-0.1035156
2561,-14.4375,10.5,-3.9375,1.074219,0.4790039,-0.1630859,-0.1982422,-0.2929688,-0.1044922
2565,2.8125,-12.3125,11.9375,1.031738,0.3623047,-0.1362305,-0.199707,-0.2929688,-0.105957
2569,20.5625,-21.75,23.6875,1.16748,0.4829102,-0.05126953,-0.199707,-0.2905273,-0.1044922
2573,24.6875,-16,33.0625,1.271973,0.6845703,0.08642578,-0.203125,-0.2905273,-0.1020508
2577,6.9375,5,33.1875,1.380371,0.9414063,0.2133789,-0.2055664,-0.2866211,-0.1005859
2581,-20.5625,24.5625,31.0625,1.314453,0.8828125,0.2021484,-0.2080078,-0.2841797,-0.1005859
2585,-26.875,23.0625,43.875,1.19043,0.7041016,0.1171875,-0.2080078,-0.2841797,-0.1020508
2589,-20.75,9.125,66.5,1.217773,0.6186523,0.04052734,-0.2128906,-0.2792969,-0.105957
2593,-8.6875,3.5625,87.6875,1.361328,0.6225586,0.04052734,-0.215332,-0.2753906,-0.105957
2597,0.625,12,108.875,1.535645,0.7275391,0.1020508,-0.2197266,-0.2680664,-0.1088867
2601,0.25,28.25,126.75,1.647949,0.8828125,0.1479492,-0.2270508,-0.2607422,-0.1098633
2605,-6.75,38.375,144.1875,1.659668,0.9995117,0.1713867,-0.2319336,-0.2543945,-0.1098633
2609,-18.125,38.5625,172.125,1.674805,1.120117,0.1289063,-0.2387695,-0.2416992,-0.1142578
2613,-32.5625,34.4375,212.3125,1.678711,1.13916,0.05957031,-0.2495117,-0.2270508,-0.1181641
2617,-31.6875,35.6875,251.375,1.644043,1.06543,-0.03222656,-0.2568359,-0.2128906,-0.1225586
2621,-22.375,38.3125,274.125,1.59375,1.084961,-0.04003906,-0.2661133,-0.1904297,-0.125
2625,-19.5,47.1875,284.4375,1.554688,1.20166,-0.03613281,-0.2758789,-0.1655273,-0.1289063
2629,-27.375,58.125,277.0625,1.531738,1.298828,-0.01318359,-0.2807617,-0.1479492,-0.1303711
2633,-38.3125,60.0625,267.3125,1.504395,1.283203,-0.02050781,-0.2866211,-0.1230469,-0.1386719
2638,-39.1875,56.1875,280.875,1.535645,1.084961,-0.04003906,-0.2900391,-0.09716797,-0.144043
2642,-27.625,47,309.1875,1.512207,0.953125,-0.07470703,-0.2890625,-0.07958984,-0.1469727
2646,-15.5625,41.125,333.625,1.597656,0.987793,-0.04394531,-0.2900391,-0.05078125,-0.1508789
2650,-12.9375,54.75,344.875,1.655762,1.038574,-0.02441406,-0.2875977,-0.01953125,-0.1523438
2654,-13.375,84.9375,341.5625,1.570313,0.987793,-0.04736328,-0.2841797,0.001464844,-0.1577148
2658,-8.5625,104.5625,325.75,1.353516,0.855957,-0.08984375,-0.2744141,0.03271484,-0.1660156
2662,-3.75,104.875,312.8125,1.209961,0.7973633,-0.09765625,-0.2617188,0.05761719,-0.1713867
2666,-8.6875,91.5625,309.1875,1.175293,0.8051758,-0.04736328,-0.253418,0.07519531,-0.1767578
2670,-15.6875,74.125,333.625,1.132324,0.6499023,-0.05908203,-0.2363281,0.09765625,-0.1835938
2674,-3.9375,71.3125,352.8125,1.291504,0.4399414,-0.05517578,-0.2197266,0.1235352,-0.1875
2678,9,100.5,354.5625,1.22168,0.5371094,-0.07080078,-0.2045898,0.1376953,-0.1918945
2682,12.875,115.6875,335.875,1.016113,0.5410156,-0.02050781,-0.1816406,0.1577148,-0.199707
2686,12.0625,144.1875,310.4375,0.9931641,0.5332031,-0.06298828,-0.1557617,0.1723633,-0.206543
2690,1.4375,143.125,291.9375,0.6870117,0.4125977,-0.05126953,-0.1352539,0.1826172,-0.2109375
2694,-0.6875,126.25,299.0625,0.6132813,0.3818359,-0.02050781,-0.1054688,0.1938477,-0.2177734
2698,-9.9375,104.5625,299.75,0.6171875,0.3349609,0.05566406,-0.078125,0.2026367,-0.2231445
2702,-15.6875,94.125,302.875,0.6479492,0.1875,0.04785156,-0.06054688,0.2050781,-0.2202148
2706,-15.75,81.0625,304.0625,0.6328125,0.08251953,0.09033203,-0.03320313,0.2114258,-0.2216797
2710,-10.875,121.75,306.9375,0.7875977,0.1445313,0.03662109,-0.005859375,0.2124023,-0.2246094
2714,-8.0625,175.8125,298,0.4194336,0.1137695,-0.06298828,0.01757813,0.2138672,-0.2216797
2718,-1.125,210.375,277.0625,-0.1225586,0.1953125,-0.109375,0.05224609,0.2099609,-0.2216797
2722,-11.0625,196.0625,263.3125,-0.7348633,0.3193359,-0.07861328,0.08544922,0.2026367,-0.21875
2726,-43.25,112.6875,248.0625,-1.785156,0.4204102,-0.128418,0.1044922,0.1987305,-0.2133789
2730,-65.1875,10.8125,213.0625,-2.032715,0.2109375,-0.07080078,0.128418,0.1923828,-0.206543
2734,-67.25,-44.9375,158.125,-1.870117,0.07080078,-0.1401367,0.1401367,0.1860352,-0.2026367
2738,-50.75,-40.375,79.5,-1.517578,-0.1499023,-0.1552734,0.1459961,0.1850586,-0.2026367
2742,-12.6875,-2.1875,9.1875,-1.28125,-0.340332,-0.2055664,0.1484375,0.1850586,-0.2011719
2746,26.5,35.6875,-43.8125,-1.15332,-0.4140625,-0.1591797,0.1499023,0.1850586,-0.2011719
2750,43.6875,33.8125,-76.5625,-1.261719,-0.4335938,-0.09375,0.1484375,0.1835938,-0.2011719
2754,43.5625,-2.8125,-102.875,-1.165039,-0.2666016,0.04785156,0.1425781,0.1875,-0.2041016
2758,26,-39.375,-130.625,-0.8549805,-0.2163086,0.1904297,0.1342773,0.1914063,-0.2055664
2762,5.8125,-56.1875,-151.5625,-0.5795898,-0.2822266,0.1748047,0.125,0.1914063,-0.2094727
2767,-1.125,-60.75,-161.375,-0.4633789,-0.4492188,0.125,0.109375,0.1987305,-0.2094727
2771,13,-55.6875,-169,-0.3588867,-0.519043,0.07519531,0.09521484,0.2050781,-0.2119141
2775,32.6875,-44.0625,-184.1875,-0.2890625,-0.4648438,0.07910156,0.08447266,0.2084961,-0.2109375
2779,43.6875,-32.5,-212.5,-0.1962891,-0.2509766,0.1982422,0.06640625,0.2084961,-0.2177734
2783,30.1875,-32.0625,-244.1875,-0.2231445,-0.06835938,0.2675781,0.04736328,0.2114258,-0.2202148
2787,15.9375,-51.625,-261.1875,-0.215332,-0.1074219,0.2133789,0.03173828,0.2124023,-0.2202148
2791,14.0625,-71.375,-269.8125,-0.1147461,-0.1308594,0.1132813,0.006835938,0.2138672,-0.2202148
2795,26.125,-78.8125,-276.9375,0.01660156,-0.1850586,0.04443359,-0.01611328,0.2138672,-0.2231445
2799,49.25,-88.1875,-287.1875,0.0009765625,-0.2045898,-0.005371094,-0.03417969,0.2099609,-0.2216797
2803,71.8125,-114.125,-297.125,0.2529297,0.1137695,0.105957,-0.06152344,0.2036133,-0.2246094
2807,52.625,-91.125,-322.5,0.5356445,-0.2666016,0.3520508,-0.09033203,0.1914063,-0.2270508
2811,-1.1875,-75.4375,-333.875,0.6674805,0.5097656,0.1787109,-0.109375,0.1826172,-0.2255859
2815,2.375,-89.375,-311.6875,0.5708008,-0.04882813,0.05566406,-0.1367188,0.1738281,-0.2216797
2819,47.0625,-106.25,-288.6875,0.7060547,-0.1967773,-0.08203125,-0.1582031,0.15625,-0.21875
2823,92.9375,-110.3125,-280.25,0.9501953,-0.01025391,-0.01660156,-0.1748047,0.1459961,-0.2163086
2827,97.375,-94.6875,-291,1.341797,0.9140625,0.3095703,-0.1948242,0.1235352,-0.2133789
2831,22.375,-82.125,-306.5625,1.500488,1.04248,0.2905273,-0.2128906,0.1010742,-0.2148438
2835,3.625,-79.4375,-278.6875,1.419434,0.300293,0.140625,-0.2236328,0.08642578,-0.2109375
2839,57.625,-76.8125,-248.9375,1.415527,-0.1074219,0.005859375,-0.2363281,0.06738281,-0.206543
2843,117.5,-54.4375,-224.25,1.380371,0.07470703,-0.009277344,-0.2460938,0.04492188,-0.2041016
2847,151.625,-25.875,-216.6875,1.291504,0.6499023,0.1171875,-0.2509766,0.02880859,-0.2041016
2851,105.75,15.125,-264.5625,1.175293,1.652344,0.3251953,-0.2553711,0.002441406,-0.2041016
2855,28.75,-20.625,-304.1875,0.5395508,1.205566,0.159668,-0.2553711,-0.02441406,-0.2080078
2859,48.1875,-125.375,-286.625,0.6289063,0.7314453,0.08642578,-0.2592773,-0.04296875,-0.2055664
2863,70.4375,-162.875,-268.6875,1.314453,1.007324,0.009765625,-0.2661133,-0.06835938,-0.1943359
2867,78.5625,-142,-259.375,1.512207,1.003418,0.001953125,-0.2724609,-0.09326172,-0.1796875
2871,95.375,-128,-249.5,1.318359,1.100586,-0.09765625,-0.2724609,-0.109375,-0.1699219
2875,103.6875,-131.0625,-255.625,1.341797,1.341309,-0.08203125,-0.2734375,-0.1357422,-0.1591797
2879,86.6875,-102,-290.125,1.5625,1.69873,-0.02441406,-0.2709961,-0.1621094,-0.1425781
2883,59.25,-61.375,-318.9375,1.589844,1.597656,0.009765625,-0.2661133,-0.1806641,-0.1386719
2887,50,-44.9375,-323.125,1.454102,1.380371,-0.001464844,-0.253418,-0.2104492,-0.1318359
2891,39.625,-69.3125,-280.9375,1.341797,1.337402,-0.04003906,-0.2402344,-0.2358398,-0.125
2896,27.25,-107.5625,-209.6875,1.450195,1.217285,-0.009277344,-0.2304688,-0.2480469,-0.1196289
2900,14.625,-122.375,-167.8125,1.628418,1.088867,-0.01318359,-0.222168,-0.2631836,-0.1113281
2904,6.0625,-104.6875,-154,1.849121,0.9296875,-0.01660156,-0.2163086,-0.2729492,-0.1044922
2908,-1.4375,-74.3125,-151.1875,1.791016,0.8208008,-0.05908203,-0.2089844,-0.2817383,-0.09765625
2912,-4,-62.3125,-139.0625,1.72168,0.6499023,-0.08984375,-0.2006836,-0.2919922,-0.09375
2916,-2.25,-55.75,-91.8125,1.830078,0.5488281,-0.05908203,-0.1938477,-0.2993164,-0.08984375
2920,4.625,-36,-30.125,1.942383,0.4013672,0.01367188,-0.1914063,-0.3032227,-0.08691406
2924,18.875,-1.25,15,1.895996,0.4946289,0.06738281,-0.1899414,-0.3041992,-0.08691406
2928,20.4375,35.8125,31.6875,1.659668,0.6811523,0.1171875,-0.1899414,-0.3032227,-0.08691406
2932,14.6875,47.5,44.4375,1.372559,0.7001953,0.144043,-0.1948242,-0.3032227,-0.08691406
2936,13.0625,42.8125,61.1875,1.291504,0.7587891,0.1635742,-0.1962891,-0.3007813,-0.08984375
2940,3,39.0625,78.375,1.318359,0.8828125,0.1982422,-0.2021484,-0.2954102,-0.08837891
2944,-8.3125,44.1875,94.0625,1.353516,0.921875,0.1982422,-0.203125,-0.2919922,-0.09228516
2948,-16,53.3125,109.625,1.380371,0.9643555,0.1865234,-0.2089844,-0.2866211,-0.09667969
2952,-25.6875,60,129.1875,1.326172,1.019043,0.1518555,-0.2163086,-0.2768555,-0.09912109
2956,-33.8125,54.5,146.1875,1.291504,1.038574,0.1098633,-0.2197266,-0.2680664,-0.1035156
2960,-37,46.875,162.5625,1.326172,1.069336,0.08251953,-0.2270508,-0.2568359,-0.1098633
2964,-44.4375,35.5625,181.25,1.368652,1.182129,0.02490234,-0.237793,-0.2416992,-0.1157227
2968,-59.5,23.625,203.5,1.504395,1.291016,0.009765625,-0.2426758,-0.2319336,-0.1166992
2972,-66.6875,20.625,233.375,1.616699,1.150879,-0.06689453,-0.253418,-0.2128906,-0.1235352
2976,-52,23.625,264.875,1.698242,1.112305,-0.1166992,-0.2626953,-0.1918945,-0.1289063
2980,-38.6875,34.8125,289.125,1.73291,1.193848,-0.1669922,-0.2700195,-0.1757813,-0.1289063
2984,-34.3125,45.875,305.3125,1.725586,1.341309,-0.1245117,-0.2783203,-0.1479492,-0.1333008
2988,-42,59.375,318.5,1.702148,1.380371,-0.1245117,-0.2866211,-0.1196289,-0.1416016
2992,-47.0625,69.375,324,1.5625,1.283203,-0.1630859,-0.2875977,-0.09960938,-0.144043
2996,-41.1875,70.625,325.125,1.527832,1.13916,-0.1743164,-0.2890625,-0.06835938,-0.1508789
3000,-29.9375,78.5,333.375,1.500488,1.026855,-0.1977539,-0.2875977,-0.03710938,-0.1577148
3004,-23.8125,75.6875,344.3125,1.388184,0.9604492,-0.1938477,-0.2851563,-0.015625,-0.1606445
3008,-21.125,73.125,359.4375,1.357422,0.9956055,-0.1435547,-0.2783203,0.01513672,-0.1660156
3012,-22.25,92.5,352.25,1.458008,0.8208008,-0.1323242,-0.2661133,0.04638672,-0.1713867
3016,-15.25,127.4375,332.125,1.310547,0.8598633,-0.1206055,-0.2568359,0.06494141,-0.1767578
3020,-18.625,142.625,321.5,1.128418,0.6811523,-0.1630859,-0.2402344,0.08984375,-0.1865234
3025,-21.6875,113.5625,325.75,0.6870117,0.6733398,-0.1591797,-0.2211914,0.1123047,-0.1958008
3029,-13.9375,60.1875,348.3125,0.9155273,0.3349609,-0.07861328,-0.2080078,0.1298828,-0.1972656
3033,-0.8125,62.125,372.25,1.117188,0.3583984,-0.0859375,-0.1855469,0.1499023,-0.199707
3037,15.8125,100.875,370.125,1.121094,0.3662109,-0.08984375,-0.1591797,0.1699219,-0.2041016
3041,18.9375,158.5,325.25,0.9814453,0.5722656,-0.05126953,-0.1391602,0.1787109,-0.2119141
3045,7.0625,197.8125,275.5,0.6518555,0.3857422,-0.1166992,-0.109375,0.1914063,-0.2177734
3049,-0.75,171.625,271.25,0.2104492,0.3935547,-0.05517578,-0.07714844,0.1987305,-0.2246094
3053,-21.125,96.8125,300.5,0.1987305,0.203125,0.01708984,-0.05810547,0.2036133,-0.2270508
3057,-25.125,47.0625,346.3125,0.4619141,0.02832031,0.05175781,-0.03076172,0.2075195,-0.2270508
3061,-15,62.3125,354.9375,0.6674805,0.07861328,0.1020508,-0.0009765625,0.2114258,-0.2255859
3065,-16.875,117.5,307.375,0.5087891,0.1640625,0.1020508,0.01904297,0.2124023,-0.2270508
3069,-17.25,164.1875,256,0.0009765625,0.02441406,0.005859375,0.04980469,0.2075195,-0.2246094
3073,-12.4375,150.9375,252.6875,-0.6728516,0.07861328,-0.01318359,0.07958984,0.2026367,-0.2216797
3077,-28.4375,95.5625,270.375,-1.405273,0.3857422,-0.01660156,0.09765625,0.1972656,-0.21875
3081,-51.6875,18.5,265.6875,-2.110352,0.4204102,-0.1206055,0.1225586,0.1884766,-0.2133789
3085,-46.125,-40.75,212.4375,-2.490234,0.2573242,-0.2167969,0.1401367,0.1826172,-0.2119141
3089,-22.125,-57.75,95.1875,-2.32373,0.2109375,-0.2631836,0.1459961,0.1772461,-0.2109375
3093,8.5,-29.125,-34.9375,-1.827637,0.21875,-0.1435547,0.1484375,0.1762695,-0.2119141
3097,19.1875,-0.875,-120.8125,-1.529297,0.3232422,-0.05517578,0.1416016,0.1787109,-0.2133789
3101,21.3125,-2.5,-170.125,-1.374023,0.1914063,-0.009277344,0.1342773,0.1811523,-0.2133789
3105,25.875,-31.9375,-201.9375,-1.168945,0.09033203,-0.02050781,0.1225586,0.1875,-0.2163086
3109,30.8125,-61,-219,-0.7773438,-0.006347656,-0.005371094,0.1020508,0.1938477,-0.21875
3113,35.25,-72.3125,-237.1875,-0.3125,-0.002441406,0.09423828,0.08886719,0.1987305,-0.2231445
3117,32.75,-55.875,-258.5,0.03955078,-0.04541016,0.159668,0.06884766,0.2036133,-0.2231445
3121,35.5,-46,-273.625,0.1132813,-0.2392578,0.144043,0.04394531,0.2050781,-0.2285156
3125,53.0625,-50.5,-268.3125,0.3071289,-0.3520508,0.1367188,0.02978516,0.2050781,-0.2299805
3129,64.8125,-56.3125,-259.125,0.4389648,-0.1850586,0.2329102,0.005859375,0.2036133,-0.2324219
3133,53,-49.8125,-265,0.6132813,-0.02587891,0.3095703,-0.01513672,0.1987305,-0.237793
3137,40.6875,-51.75,-269.9375,0.4814453,-0.1347656,0.3251953,-0.03173828,0.1972656,-0.2407227
3141,44.875,-72.5,-268.6875,0.644043,-0.2045898,0.2905273,-0.05419922,0.1899414,-0.2421875
3145,43.5625,-78.8125,-269.4375,0.8032227,-0.08398438,0.355957,-0.07568359,0.1811523,-0.2407227
3149,39.0625,-97.625,-243.75,0.9853516,-0.1811523,0.3017578,-0.09130859,0.1772461,-0.2421875
3154,39.0625,-105.5625,-215.3125,1.039551,-0.1074219,0.340332,-0.112793,0.1650391,-0.2421875
3158,37.0625,-90.0625,-217.5,1.089844,-0.1269531,0.2788086,-0.1328125,0.1538086,-0.237793
3162,43.1875,-60.0625,-243.8125,1.039551,-0.04541016,0.3017578,-0.1425781,0.1459961,-0.237793
3166,33.4375,-63,-277.75,0.8730469,0.07080078,0.3212891,-0.1616211,0.1323242,-0.2368164
3170,23.1875,-98.5625,-253.125,1.016113,0.06298828,0.2983398,-0.1791992,0.1152344,-0.2338867
3174,18,-144.75,-189.125,1.287598,-0.09179688,0.1865234,-0.1914063,0.1064453,-0.230957
3178,44.125,-143.8125,-144.5,1.477539,-0.2626953,0.07910156,-0.2080078,0.09375,-0.2231445
3182,78.1875,-79.375,-165.5,1.624512,0.08251953,0.2402344,-0.2163086,0.08251953,-0.2148438
3186,69.25,17.375,-217.9375,1.291504,0.2265625,0.1367188,-0.2255859,0.07128906,-0.2177734
3190,77.5625,26.5,-239.3125,0.4428711,0.03222656,0.07128906,-0.2304688,0.04882813,-0.2216797
3194,82.1875,-79.625,-231.125,-0.1728516,0.3740234,0.005859375,-0.2353516,0.02490234,-0.2231445
3198,53.8125,-226.125,-204,0.05908203,0.7626953,-0.07470703,-0.2436523,0.01367188,-0.21875
3202,22.4375,-306.125,-177.5625,1.229492,0.6459961,-0.04003906,-0.2602539,-0.003417969,-0.1987305
3206,21.3125,-227.6875,-190.0625,2.380371,0.6420898,0.05566406,-0.2768555,-0.01806641,-0.1767578
3210,30,-66.6875,-215.375,2.364746,0.6069336,0.1367188,-0.2827148,-0.03076172,-0.1660156
3214,42,22.625,-243.25,1.411621,0.5332031,0.08251953,-0.2841797,-0.05078125,-0.1616211
3218,50.375,-15.4375,-241.625,0.5820313,0.6845703,0.02490234,-0.2817383,-0.07568359,-0.1645508
3222,48.375,-111.625,-224.75,0.5551758,0.8789063,0.04052734,-0.2792969,-0.09082031,-0.1616211
3226,38.75,-170.8125,-221.9375,1.074219,1.015137,0.005859375,-0.2817383,-0.1118164,-0.1508789
3230,33.75,-165.3125,-240.3125,1.546875,1.100586,0.02099609,-0.2841797,-0.1333008,-0.1333008
3234,22.5625,-118.0625,-280.125,1.752441,1.248047,0.01708984,-0.2827148,-0.1469727,-0.1235352
3238,9.875,-79.5625,-318.375,1.608887,1.154785,-0.06689453,-0.2758789,-0.1743164,-0.1157227
3242,9.6875,-78.1875,-334.75,1.46582,1.04248,-0.1401367,-0.2626953,-0.203125,-0.1074219
3246,5.75,-107.3125,-314.5625,1.376465,1.038574,-0.2631836,-0.2553711,-0.2216797,-0.1044922
3250,4.4375,-143.625,-277.5,1.484863,0.9916992,-0.3168945,-0.2402344,-0.2441406,-0.09375
3254,-0.75,-153.875,-222.0625,1.748535,0.9492188,-0.2670898,-0.2280273,-0.2680664,-0.08447266
3258,-2.9375,-120.1875,-145.625,2.058594,0.840332,-0.1474609,-0.2236328,-0.2768555,-0.07861328
3262,-8.125,-48.625,-73.125,2.120605,0.7626953,-0.07080078,-0.2163086,-0.2841797,-0.07080078
3266,-13.5625,26,-19.1875,1.830078,0.6962891,-0.08984375,-0.2138672,-0.2866211,-0.06787109
3270,-8.8125,67,11.5625,1.353516,0.6499023,-0.1782227,-0.2128906,-0.2866211,-0.07177734
3274,-1.25,78.3125,22.3125,1.043457,0.6616211,-0.2128906,-0.2114258,-0.2856445,-0.07617188
3278,4.625,74.875,26,0.8652344,0.6772461,-0.2128906,-0.2114258,-0.2856445,-0.08154297
3283,8.6875,61.5,30.3125,0.7255859,0.7001953,-0.1977539,-0.2114258,-0.2832031,-0.08300781
3287,11.9375,43.1875,34.5,0.6948242,0.6962891,-0.1474609,-0.2138672,-0.2817383,-0.08691406
3291,17.1875,35.625,33.25,0.7602539,0.7041016,-0.112793,-0.215332,-0.2792969,-0.09228516
3295,18.1875,36.25,34.6875,0.7490234,0.7705078,-0.08203125,-0.2138672,-0.2768555,-0.08984375
3299,13.9375,33.6875,38.9375,0.7138672,0.8364258,-0.05517578,-0.2163086,-0.2768555,-0.09228516
3303,8.6875,34.625,37.6875,0.7138672,0.8364258,-0.04394531,-0.2197266,-0.2744141,-0.09228516
3307,5.875,41.8125,30.125,0.7255859,0.824707,-0.03613281,-0.2197266,-0.2729492,-0.09521484
3311,0.4375,45.625,21.4375,0.6674805,0.8325195,-0.04003906,-0.2197266,-0.2705078,-0.09667969
3315,-4.875,45.125,14.3125,0.6328125,0.7973633,-0.05908203,-0.2211914,-0.2695313,-0.1020508
