Packet number,Gyroscope X (deg/s),Gyroscope Y (deg/s),Gyroscope Z (deg/s),Accelerometer X (g),Accelerometer Y (g),Accelerometer Z (g),Magnetometer X (G),Magnetometer Y (G),Magnetometer Z (G)
1,-2,4.0625,2.875,0.5898438,0.7973633,0.03271484,-0.1875,-0.2729492,-0.15625
5,-0.5,5.625,2.4375,0.5629883,0.793457,0.02490234,-0.1875,-0.2719727,-0.1577148
9,0.0625,4.625,2.6875,0.543457,0.809082,0.03662109,-0.1889648,-0.2744141,-0.1591797
13,-0.1875,2.75,2.75,0.5395508,0.809082,0.03271484,-0.1889648,-0.2719727,-0.15625
17,-0.4375,2.9375,1.4375,0.5512695,0.8051758,0.03271484,-0.1889648,-0.2719727,-0.1577148
21,-0.3125,2.5,1.875,0.5551758,0.7817383,0.02880859,-0.1889648,-0.2719727,-0.15625
25,0.8125,2.9375,1.3125,0.5512695,0.777832,0.02490234,-0.1875,-0.2744141,-0.1577148
29,2.625,4.8125,-0.25,0.5629883,0.7856445,0.02880859,-0.1875,-0.2729492,-0.1591797
33,2.5,5.5,-1.8125,0.5395508,0.809082,0.02099609,-0.1875,-0.2719727,-0.15625
37,2.125,0.5,-0.875,0.5087891,0.8208008,0.02490234,-0.1889648,-0.2729492,-0.1591797
41,2.625,-5.125,-1.3125,0.5356445,0.8442383,0.02099609,-0.1889648,-0.2729492,-0.1591797
45,1.875,-4.1875,-4.0625,0.59375,0.8520508,0.02880859,-0.1875,-0.2719727,-0.15625
49,2.1875,-0.75,-5.0625,0.6015625,0.824707,0.03662109,-0.1889648,-0.2729492,-0.1577148
53,3.6875,1.75,-4,0.6054688,0.809082,0.05957031,-0.1889648,-0.2729492,-0.1577148
57,3.0625,1.0625,-1.9375,0.5551758,0.8168945,0.05957031,-0.1865234,-0.2744141,-0.1591797
61,1.8125,-4.3125,0.5,0.543457,0.8129883,0.07128906,-0.1855469,-0.2744141,-0.1577148
65,0.0625,-6.75,1.3125,0.5629883,0.809082,0.06738281,-0.1875,-0.2753906,-0.1577148
69,0.125,-7.125,1.875,0.5668945,0.7895508,0.04785156,-0.1875,-0.2729492,-0.1577148
73,0.6875,-7.25,1.0625,0.574707,0.793457,0.03662109,-0.1875,-0.2729492,-0.1547852
77,2.375,-6.5625,-0.375,0.59375,0.793457,0.03271484,-0.1889648,-0.2729492,-0.15625
81,1.9375,-10.25,-1.625,0.6171875,0.840332,0.05957031,-0.1875,-0.2729492,-0.1538086
85,-4.875,-23.125,-0.125,0.6791992,0.921875,0.07519531,-0.1899414,-0.2744141,-0.1547852
89,-15.125,-44.9375,5.25,0.7915039,0.9140625,0.1210938,-0.1914063,-0.2753906,-0.1523438
93,-23.6875,-70.4375,24,0.9619141,0.9140625,0.1787109,-0.1923828,-0.2719727,-0.1508789
97,-34.0625,-89.6875,52.5625,1.202148,0.9838867,0.2368164,-0.1972656,-0.2695313,-0.1484375
101,-52.4375,-92.875,82.75,1.407715,1.026855,0.2329102,-0.2055664,-0.265625,-0.1455078
105,-69.0625,-90.3125,107.125,1.589844,0.956543,0.1713867,-0.2128906,-0.2568359,-0.144043
109,-73,-84.9375,132.8125,1.717773,0.8710938,0.1518555,-0.2197266,-0.2495117,-0.1416016
113,-77.5625,-61.125,155.6875,1.907715,0.9995117,0.2021484,-0.2319336,-0.2382813,-0.1416016
117,-92.5625,-30.625,172.5,1.926758,1.06543,0.2060547,-0.2412109,-0.2216797,-0.1416016
121,-93.0625,-19.9375,198.5625,1.833984,0.8129883,0.144043,-0.2470703,-0.2080078,-0.1425781
125,-67.3125,-20.9375,230.1875,1.899902,0.7041016,0.1289063,-0.2592773,-0.1879883,-0.144043
130,-51.4375,-13.625,263.875,1.996582,0.972168,0.1865234,-0.2685547,-0.1655273,-0.1455078
134,-53.3125,4.75,288.9375,2.042969,0.9682617,0.2021484,-0.2744141,-0.1494141,-0.144043
138,-47.875,30.375,303.4375,2.042969,1.026855,0.2021484,-0.2817383,-0.1206055,-0.1455078
142,-38.125,66.8125,314.5625,2.03125,0.8984375,0.1635742,-0.2866211,-0.09179688,-0.1523438
146,-24.3125,102,333.6875,1.771973,0.956543,0.1210938,-0.2851563,-0.07177734,-0.1577148
150,-26.9375,111.375,338.0625,1.527832,1.209473,0.140625,-0.2841797,-0.04052734,-0.1645508
154,-41.5,98.375,339.625,1.345703,1.158691,0.1328125,-0.2768555,-0.01171875,-0.1728516
158,-45.8125,92.1875,340.0625,1.473633,1.038574,0.1171875,-0.2724609,0.01025391,-0.1767578
162,-54.3125,94.4375,352.375,1.318359,1.034668,0.04052734,-0.2602539,0.04150391,-0.1835938
166,-52.6875,79.0625,370.1875,1.237305,0.824707,0.01708984,-0.2470703,0.07373047,-0.1904297
170,-44.625,72,372.625,1.330078,0.8710938,0.01367188,-0.2363281,0.09228516,-0.1918945
174,-39.125,89.75,379,1.516113,0.8632813,-0.009277344,-0.2163086,0.1201172,-0.1943359
178,-43.25,124.875,388.9375,1.419434,0.9257813,-0.06689453,-0.1938477,0.1459961,-0.199707
182,-51.375,132.5625,393.5,1.105469,0.9604492,-0.05908203,-0.1723633,0.1635742,-0.2026367
186,-49.125,139.0625,416.875,0.9233398,0.7314453,-0.1938477,-0.1391602,0.1835938,-0.2055664
190,-35.3125,148.6875,425,0.7412109,0.7080078,-0.1938477,-0.1044922,0.2026367,-0.2094727
194,-35.8125,172.5625,410.4375,0.2451172,0.9335938,-0.2783203,-0.07714844,0.2114258,-0.2119141
198,-45.25,158.8125,373.75,-0.2583008,0.8051758,-0.2900391,-0.03662109,0.2197266,-0.2109375
202,-50.1875,126.5,322.0625,-0.5063477,0.5952148,-0.2514648,0.002441406,0.2236328,-0.2094727
206,-52.625,92.625,310.625,-0.746582,0.4516602,-0.2592773,0.02246094,0.2250977,-0.2080078
210,-59.625,54.625,304.6875,-1.141602,0.3349609,-0.3129883,0.05224609,0.2236328,-0.2011719
214,-50.9375,26.8125,269.625,-1.455566,0.05517578,-0.324707,0.07714844,0.2211914,-0.1958008
218,-25.1875,13,203.875,-1.684082,-0.05273438,-0.3359375,0.09375,0.2172852,-0.1928711
222,-2.25,26.1875,117.5625,-1.804199,-0.01806641,-0.2939453,0.1069336,0.2124023,-0.1928711
226,6.9375,28.8125,30.5625,-2.025391,-0.06054688,-0.2978516,0.1166992,0.2084961,-0.1928711
230,18.1875,-0.3125,-36.8125,-2.040527,-0.2275391,-0.2246094,0.1186523,0.2075195,-0.1918945
234,28.25,-40.125,-83.625,-1.699707,-0.2431641,-0.128418,0.1118164,0.2084961,-0.1943359
238,34,-72.125,-120.3125,-1.277344,-0.2587891,-0.01318359,0.1035156,0.2114258,-0.199707
242,36.25,-79.375,-158.1875,-0.7695313,-0.1538086,0.09814453,0.09277344,0.2124023,-0.2011719
246,27.1875,-55,-195.1875,-0.3935547,-0.1811523,0.1098633,0.07470703,0.2163086,-0.2080078
250,29.8125,-30.6875,-220.3125,-0.3320313,-0.3017578,0.09423828,0.05566406,0.2172852,-0.2094727
254,43.25,-28.1875,-236.9375,-0.3549805,-0.324707,0.08642578,0.04248047,0.2197266,-0.2094727
259,52.6875,-56.625,-244.4375,-0.362793,-0.1694336,0.1328125,0.02148438,0.2211914,-0.2133789
263,42.1875,-96.1875,-239.75,-0.2700195,0.04736328,0.1479492,-0.0009765625,0.2172852,-0.2177734
267,24.5625,-125.125,-247.0625,0.008789063,0.1367188,0.1557617,-0.01855469,0.2163086,-0.2163086
271,14.4375,-120.0625,-272.3125,0.2954102,0.1098633,0.1020508,-0.04492188,0.2138672,-0.2177734
275,15.1875,-100.4375,-310.25,0.574707,0.1601563,0.1674805,-0.07226563,0.2060547,-0.2163086
279,7.8125,-80.5625,-322.1875,0.7529297,0.2299805,0.1674805,-0.09228516,0.2011719,-0.2148438
283,3.6875,-67.75,-308.75,0.8261719,0.1098633,0.140625,-0.1176758,0.1884766,-0.2119141
287,19.5,-54.4375,-289,0.7758789,-0.07617188,0.04785156,-0.1411133,0.1762695,-0.2080078
291,47.125,-41.1875,-296,0.8071289,0.1254883,0.1289063,-0.1557617,0.1674805,-0.2094727
295,31.625,-11.1875,-332.5625,0.8378906,0.8129883,0.2709961,-0.1772461,0.1499023,-0.2094727
299,-1.3125,-31.875,-377.1875,0.527832,0.5761719,0.1826172,-0.1938477,0.1274414,-0.2109375
303,22.5,-87.5625,-361.375,0.6713867,0.2495117,0.009765625,-0.2089844,0.1113281,-0.2080078
307,58.125,-126,-322.75,0.9155273,0.1835938,-0.06689453,-0.2294922,0.08496094,-0.2041016
311,92.6875,-121.375,-281.75,1.159668,0.5253906,0.03662109,-0.2460938,0.06005859,-0.1987305
315,74,-80.0625,-284.0625,1.43457,1.32959,0.2905273,-0.2519531,0.04394531,-0.1918945
319,23,-3.5,-318.625,1.438477,1.244141,0.2021484,-0.2602539,0.01757813,-0.1889648
323,47.8125,33.3125,-334.375,0.9853516,0.4125977,0.01367188,-0.2651367,-0.01171875,-0.1918945
327,118.125,8.9375,-317.3125,0.5629883,0.4672852,-0.128418,-0.2651367,-0.03320313,-0.1943359
331,163.125,-61.3125,-287.375,0.4233398,0.987793,-0.1401367,-0.2636719,-0.06445313,-0.1943359
335,168.75,-113.1875,-284.125,1.000488,2.071777,0.2021484,-0.2651367,-0.09716797,-0.1850586
339,89.3125,-64.625,-332.5,1.694336,2.573242,0.2441406,-0.2651367,-0.1181641,-0.1796875
343,43.9375,0.125,-364.0625,1.655762,1.737793,0.2749023,-0.2578125,-0.1479492,-0.1738281
347,83.625,17.6875,-353.1875,1.446289,1.337402,0.1904297,-0.2460938,-0.1821289,-0.1728516
351,115.6875,0.125,-316.5,1.248535,1.477539,0.144043,-0.2363281,-0.2006836,-0.1738281
355,128.9375,-43,-278.5625,1.144043,1.531738,0.01708984,-0.2211914,-0.2294922,-0.1645508
359,133.75,-91,-253.8125,1.287598,1.718262,0.05566406,-0.2104492,-0.2543945,-0.15625
363,98.875,-112.25,-262.5,1.612793,2.029297,0.1865234,-0.203125,-0.2680664,-0.144043
367,44.8125,-117.875,-259.9375,1.744629,1.753418,0.1982422,-0.1889648,-0.2880859,-0.1318359
371,20.875,-125.8125,-199.8125,1.930664,1.294922,0.144043,-0.1748047,-0.3032227,-0.1235352
375,1.8125,-108.9375,-92.9375,2.112793,0.9492188,0.1098633,-0.1699219,-0.3081055,-0.1181641
379,-0.125,-57.625,-25,2.140137,0.6499023,0.1171875,-0.1674805,-0.3144531,-0.1142578
383,8.8125,-3.625,-6.4375,1.841797,0.6733398,0.07519531,-0.1674805,-0.3154297,-0.1113281
388,2.125,23.6875,-6.8125,1.558594,0.7666016,0.05957031,-0.1665039,-0.3144531,-0.1113281
392,-4.375,22.0625,4.0625,1.376465,0.6459961,0.06347656,-0.1625977,-0.3154297,-0.1098633
396,0.4375,7.1875,28.625,1.384277,0.6381836,0.1171875,-0.1650391,-0.3144531,-0.112793
400,-2.3125,-3.5,58.375,1.481445,0.7587891,0.1674805,-0.1665039,-0.3129883,-0.1113281
404,-11.875,-2.25,85.1875,1.597656,0.9375,0.2675781,-0.1733398,-0.3095703,-0.112793
408,-27.8125,9.8125,106.5,1.666992,1.019043,0.2519531,-0.1791992,-0.3032227,-0.112793
412,-36.25,16.0625,136.75,1.574219,0.9995117,0.1787109,-0.184082,-0.2983398,-0.1157227
416,-37.625,13.0625,169.75,1.523926,1.073242,0.1020508,-0.1938477,-0.2880859,-0.1196289
420,-38.8125,8.375,201,1.496582,1.09668,0.04443359,-0.2080078,-0.2753906,-0.1235352
424,-31.125,4.5,226.1875,1.500488,1.12793,-0.001464844,-0.2138672,-0.2641602,-0.1235352
428,-27.4375,8.5,244.375,1.582031,1.337402,0.04052734,-0.2304688,-0.2470703,-0.1264648
432,-40.4375,28.3125,255.875,1.624512,1.508301,0.05175781,-0.2426758,-0.2280273,-0.1303711
436,-51.75,46,265.75,1.546875,1.430664,-0.005371094,-0.2509766,-0.2128906,-0.1318359
440,-49.5,54.3125,281.3125,1.430664,1.36084,-0.04736328,-0.2617188,-0.1894531,-0.1401367
444,-50.625,44.75,299.125,1.271973,1.411133,-0.05517578,-0.2700195,-0.1621094,-0.144043
448,-57.3125,33.4375,304.5,1.248535,1.485352,-0.01660156,-0.2744141,-0.1430664,-0.1484375
452,-61.5,26.6875,295.9375,1.361328,1.353027,0.001953125,-0.2817383,-0.1157227,-0.1508789
456,-61.3125,38.625,294.125,1.516113,1.279297,-0.009277344,-0.2851563,-0.08691406,-0.1547852
460,-53.875,56.9375,310.625,1.546875,1.104492,-0.04394531,-0.2866211,-0.06835938,-0.15625
464,-41,74.75,333.5,1.554688,0.9916992,-0.08984375,-0.2851563,-0.03808594,-0.1630859
468,-23,100.75,355,1.504395,0.9453125,-0.07080078,-0.2783203,-0.006835938,-0.1674805
472,-25.5625,116.75,355,1.16748,1.232422,-0.07470703,-0.2734375,0.01611328,-0.1738281
476,-40.625,103.5,337.0625,0.9580078,1.034668,-0.05908203,-0.2592773,0.04492188,-0.1821289
480,-40.6875,80.1875,328.6875,0.9233398,0.8012695,-0.03222656,-0.2470703,0.07275391,-0.1865234
484,-31.9375,82.4375,328.0625,1.213867,0.6811523,-0.001464844,-0.237793,0.08984375,-0.1889648
488,-25.0625,112.9375,332.25,1.229492,0.6303711,-0.04736328,-0.21875,0.1162109,-0.1918945
492,-29.5,106.75,351.375,0.9155273,0.6577148,-0.009277344,-0.1982422,0.1376953,-0.199707
496,-32.9375,100.6875,358.875,0.8574219,0.6962891,-0.01660156,-0.1806641,0.1523438,-0.2026367
500,-35.6875,110.6875,340.0625,1.004395,0.4555664,0.01367188,-0.1557617,0.1738281,-0.2080078
504,-28.6875,148.5,325.3125,0.9155273,0.3818359,-0.05126953,-0.1259766,0.1899414,-0.2109375
508,-26.9375,159.6875,337.625,0.3886719,0.3740234,-0.1166992,-0.1030273,0.1987305,-0.2109375
512,-30.9375,107.0625,348,-0.03320313,0.3388672,-0.02832031,-0.06982422,0.2084961,-0.2163086
517,-34.0625,69.5,335.3125,0.07470703,0.3583984,0.07128906,-0.0390625,0.2163086,-0.2148438
521,-50.375,91.25,301.8125,0.1831055,0.3623047,0.07910156,-0.01757813,0.2172852,-0.2133789
525,-58.3125,124.9375,272.5,-0.09130859,0.1254883,-0.01660156,0.01074219,0.2211914,-0.2119141
529,-50.5,132.0625,253.375,-0.7773438,0.004882813,-0.1591797,0.03808594,0.2226563,-0.206543
533,-45.25,75,241.125,-1.455566,0.02050781,-0.128418,0.05566406,0.2197266,-0.2026367
537,-50.5625,1.75,221.5625,-1.839355,0.05126953,-0.2055664,0.07861328,0.21875,-0.199707
541,-45.0625,-37.125,162.25,-1.82373,-0.1269531,-0.2514648,0.09375,0.2163086,-0.1943359
545,-23.125,-20.4375,67.9375,-1.645508,-0.2587891,-0.2475586,0.09960938,0.2138672,-0.1928711
549,5.3125,14.4375,-13.625,-1.563965,-0.3325195,-0.2861328,0.1035156,0.2138672,-0.1958008
553,33.4375,27.3125,-70.5625,-1.494141,-0.387207,-0.1899414,0.1010742,0.2138672,-0.1958008
557,52.9375,15.875,-110.25,-1.40918,-0.3637695,-0.1362305,0.09863281,0.2148438,-0.1928711
561,66.75,-17.1875,-136.25,-1.157227,-0.2978516,-0.03613281,0.08789063,0.2148438,-0.2011719
565,65.75,-30.375,-166.125,-0.7851563,-0.08789063,0.05957031,0.07714844,0.2148438,-0.206543
569,50.4375,-16.25,-209.75,-0.5756836,-0.01806641,0.105957,0.06542969,0.2148438,-0.2080078
573,49.4375,-13.875,-244.9375,-0.6572266,-0.2275391,0.03662109,0.04736328,0.2172852,-0.2133789
577,64.1875,-40.6875,-262.625,-0.715332,-0.1577148,0.009765625,0.02587891,0.2172852,-0.2163086
581,66.4375,-97.0625,-264.25,-0.5834961,0.02832031,0.04052734,0.009277344,0.2148438,-0.2177734
585,61.3125,-140.3125,-261.875,-0.1689453,0.1523438,0.05957031,-0.01757813,0.2114258,-0.2246094
589,50.125,-133.9375,-279.5,0.4272461,0.3310547,0.2597656,-0.04589844,0.2060547,-0.2255859
593,23.8125,-90.6875,-311.0625,0.6289063,0.3349609,0.125,-0.06494141,0.2011719,-0.2255859
597,37,-67.5625,-319.1875,0.5551758,0.02050781,0.1367188,-0.09228516,0.1914063,-0.2246094
601,60.0625,-85.9375,-307.9375,0.625,0.2109375,0.1518555,-0.1176758,0.1787109,-0.2246094
605,43.25,-98.375,-295,0.8842773,0.7041016,0.2749023,-0.1352539,0.1674805,-0.2255859
609,14.4375,-64.6875,-318.375,1.175293,0.5332031,0.2636719,-0.1567383,0.1513672,-0.2246094
613,29.125,-38.625,-345.9375,0.9658203,0.09814453,0.1367188,-0.1791992,0.1337891,-0.2202148
617,69.5625,-43,-322.1875,0.9272461,0.08642578,0.07910156,-0.1914063,0.1186523,-0.2202148
621,78.875,-100.25,-288.6875,0.8959961,0.6459961,0.2402344,-0.206543,0.09619141,-0.21875
625,50.625,-120.6875,-274.1875,1.399902,1.038574,0.3251953,-0.2236328,0.07373047,-0.2177734
629,18.6875,-74,-298.625,1.73291,0.7587891,0.2480469,-0.2329102,0.05859375,-0.2119141
633,42.8125,-42.0625,-303.4375,1.279785,0.3120117,0.140625,-0.2436523,0.03515625,-0.2094727
637,74.125,-80.6875,-275.5,0.8959961,0.4013672,0.009765625,-0.2519531,0.01025391,-0.2055664
641,96.4375,-154.3125,-226.5,0.9619141,0.7587891,0.03662109,-0.2602539,-0.008300781,-0.2011719
646,76.9375,-160.25,-231.25,1.694336,1.578613,0.2597656,-0.2685547,-0.03076172,-0.1889648
650,7.375,-47,-278.625,2.217285,1.458008,0.2094727,-0.2734375,-0.0546875,-0.1806641
654,12.8125,36.8125,-280.4375,1.477539,0.4204102,0.05957031,-0.2734375,-0.06933594,-0.1806641
658,82.875,38.875,-264.875,0.9423828,0.4672852,-0.02050781,-0.2675781,-0.09716797,-0.1850586
662,116.125,5,-243.1875,0.5859375,0.6884766,-0.1630859,-0.2617188,-0.1220703,-0.1850586
666,158.25,-47.375,-236.8125,0.6831055,1.143066,0.04443359,-0.2578125,-0.140625,-0.1821289
670,131.625,-18.1875,-294.25,1.330078,1.966797,0.2709961,-0.2509766,-0.1679688,-0.1738281
674,83.5625,42.1875,-337.375,1.384277,1.586426,0.3867188,-0.2412109,-0.1967773,-0.1699219
678,103.75,56.125,-336.6875,1.151855,1.244141,0.409668,-0.2280273,-0.2158203,-0.1713867
682,114.4375,22.125,-308,0.9501953,1.454102,0.3212891,-0.2080078,-0.2441406,-0.168457
686,101.125,-51.5625,-267.9375,0.8339844,1.426758,0.1674805,-0.1899414,-0.2680664,-0.1630859
690,98.9375,-138.9375,-221,1.004395,1.225098,-0.03222656,-0.1816406,-0.2807617,-0.1547852
694,104.125,-188.5,-186.625,1.496582,1.302734,-0.04003906,-0.1723633,-0.296875,-0.1401367
698,79.125,-165.9375,-170.625,2.039063,1.539551,0.140625,-0.1665039,-0.3095703,-0.1225586
702,30.375,-96.3125,-134.8125,2.236816,1.356934,0.1748047,-0.1601563,-0.3168945,-0.1142578
706,-2.25,-38.9375,-71.125,1.996582,0.953125,0.144043,-0.1533203,-0.3242188,-0.1098633
710,-8.9375,-17.4375,-9.4375,1.608887,0.7431641,0.02880859,-0.1518555,-0.3266602,-0.1074219
714,-2.9375,-19.75,28.5,1.299316,0.6655273,-0.02832031,-0.1518555,-0.3242188,-0.1074219
718,3.25,-28.8125,38.75,1.229492,0.7001953,0.009765625,-0.1533203,-0.3232422,-0.105957
722,5.5625,-22.5625,37,1.314453,0.7470703,0.09033203,-0.1582031,-0.3208008,-0.1035156
726,6.3125,-3.125,45.0625,1.419434,0.7856445,0.1479492,-0.1601563,-0.3217773,-0.1035156
730,3.5,16.4375,62.4375,1.415527,0.9375,0.159668,-0.1640625,-0.3178711,-0.1035156
734,-11.375,27.4375,84.875,1.458008,1.135742,0.2094727,-0.168457,-0.3144531,-0.1035156
738,-26.375,32.875,110.625,1.481445,1.225098,0.2250977,-0.1723633,-0.3105469,-0.105957
742,-36.4375,30.5,142.1875,1.496582,1.251953,0.1748047,-0.1816406,-0.3041992,-0.1098633
746,-37.25,24.5625,177.9375,1.52002,1.263672,0.144043,-0.1899414,-0.2919922,-0.1157227
750,-39.25,24.5,209.1875,1.608887,1.485352,0.140625,-0.1982422,-0.2841797,-0.1196289
754,-51.75,34.375,241.25,1.682617,1.52002,0.05566406,-0.2128906,-0.265625,-0.1196289
758,-53.5,48.9375,275.0625,1.644043,1.539551,-0.001464844,-0.2255859,-0.2480469,-0.1289063
762,-59.75,58.625,304.1875,1.589844,1.722168,-0.005371094,-0.237793,-0.2319336,-0.1318359
766,-74.25,71.125,316.6875,1.570313,1.772461,-0.05517578,-0.2495117,-0.2070313,-0.1401367
770,-76.625,78.75,329.6875,1.48877,1.566895,-0.112793,-0.2626953,-0.1791992,-0.1484375
775,-62.625,86.4375,344.1875,1.504395,1.508301,-0.09375,-0.2661133,-0.1567383,-0.1523438
779,-57.625,98.6875,346.5625,1.446289,1.562988,-0.07470703,-0.2744141,-0.1254883,-0.1630859
783,-65,111.25,345.75,1.306641,1.512207,-0.08203125,-0.2744141,-0.09179688,-0.1699219
787,-76.25,100.875,350.6875,1.151855,1.399902,-0.05908203,-0.2758789,-0.07080078,-0.1782227
791,-81.875,99.75,361.9375,1.147949,1.17041,-0.09765625,-0.2734375,-0.03808594,-0.1835938
795,-71.5625,116.875,359.0625,1.175293,0.9995117,-0.09375,-0.2636719,-0.004394531,-0.1918945
799,-62.625,132.25,344.6875,1.085938,0.9682617,-0.1015625,-0.2592773,0.01757813,-0.1972656
803,-61.875,132.5625,333.875,0.9272461,0.9682617,-0.08203125,-0.2426758,0.04736328,-0.2055664
807,-68.9375,104.5625,329.4375,0.7875977,0.9296875,-0.01660156,-0.2255859,0.07519531,-0.2133789
811,-82.8125,77.75,342.5,0.7993164,0.777832,-0.03222656,-0.2163086,0.09375,-0.2148438
815,-74.25,57.9375,355.9375,0.7993164,0.4399414,-0.04736328,-0.1962891,0.1201172,-0.2133789
819,-55.6875,59.3125,356.75,0.8457031,0.4243164,-0.07080078,-0.1772461,0.1450195,-0.2163086
823,-42.5,69.5625,340.375,0.8032227,0.4204102,-0.02050781,-0.1601563,0.1601563,-0.2177734
827,-45.375,94.5625,312.375,0.8300781,0.5644531,-0.001464844,-0.1352539,0.1762695,-0.2177734
831,-59.8125,113.875,311.5625,0.644043,0.4907227,-0.02832031,-0.109375,0.1914063,-0.2231445
835,-57.8125,109.5625,329.0625,0.3032227,0.1796875,-0.109375,-0.08886719,0.2001953,-0.21875
839,-42.9375,80.6875,331.0625,0.06689453,0.1640625,-0.03613281,-0.05908203,0.2099609,-0.2177734
843,-39.5625,71.9375,313.5,0.1328125,0.2573242,0.03662109,-0.02929688,0.2163086,-0.2163086
847,-48.125,75.5,275.0625,0.004882813,0.15625,0.09033203,-0.01171875,0.21875,-0.2119141
851,-54.25,93,253.6875,-0.1650391,0.1293945,0.02880859,0.01660156,0.2226563,-0.2119141
855,-60.625,77.0625,250.4375,-0.7075195,0.02441406,-0.005371094,0.04150391,0.2226563,-0.2055664
859,-57.125,49.4375,239.9375,-1.013672,-0.1074219,-0.03222656,0.05712891,0.2226563,-0.2011719
863,-42.625,49.8125,202.6875,-1.230957,-0.2006836,-0.1743164,0.07861328,0.2197266,-0.1972656
867,-13.5625,75.4375,127.8125,-1.366211,-0.3056641,-0.2128906,0.09619141,0.2163086,-0.1958008
871,5.625,83.5625,58.3125,-1.92041,-0.2275391,-0.2514648,0.1044922,0.2148438,-0.1918945
875,11.1875,32.6875,0.9375,-2.152832,-0.2124023,-0.1552734,0.1103516,0.2124023,-0.1918945
879,9.5,-31.6875,-47.125,-1.819824,-0.2822266,-0.02832031,0.1103516,0.2138672,-0.1889648
883,11.25,-73.8125,-84.375,-1.195801,-0.3793945,0.09423828,0.105957,0.2138672,-0.1928711
887,14.3125,-83.0625,-113.75,-0.6416016,-0.4453125,0.1479492,0.09277344,0.2163086,-0.1972656
891,17.25,-63.4375,-134.875,-0.1767578,-0.4492188,0.2172852,0.08056641,0.21875,-0.199707
895,15.5625,-23.6875,-145.625,-0.02587891,-0.4726563,0.1904297,0.06884766,0.2211914,-0.199707
899,21.75,11.9375,-161.8125,-0.1767578,-0.5737305,0.1328125,0.05957031,0.2236328,-0.2026367
904,35.0625,9.5,-180.25,-0.4907227,-0.6044922,0.08642578,0.04492188,0.2236328,-0.2026367
908,41.4375,-29.5,-197.4375,-0.4829102,-0.3208008,0.1557617,0.03417969,0.2236328,-0.2055664
912,18.0625,-63.5,-208.9375,-0.378418,-0.07617188,0.1713867,0.01660156,0.2250977,-0.2094727
916,-3.125,-86,-228.8125,-0.2543945,-0.1347656,0.09814453,-0.004394531,0.2236328,-0.2094727
920,-2.4375,-87.5,-254.125,-0.06835938,-0.2666016,0.001953125,-0.02001953,0.2250977,-0.2055664
924,17.0625,-89.75,-267.6875,0.09765625,-0.3481445,-0.02441406,-0.04492188,0.2197266,-0.2041016
928,42.0625,-92.25,-254.25,0.2529297,-0.2978516,-0.05908203,-0.07324219,0.2148438,-0.2026367
932,53.25,-83.75,-257.3125,0.5898438,0.171875,0.1557617,-0.08886719,0.2099609,-0.2055664
936,32.125,-34.375,-272.75,0.6132813,0.1333008,0.1328125,-0.1113281,0.1987305,-0.206543
940,19.4375,11.125,-307.9375,0.5976563,0.0009765625,0.1289063,-0.1328125,0.1860352,-0.206543
944,50.9375,25.3125,-332.4375,0.4077148,-0.1191406,0.02880859,-0.1459961,0.1772461,-0.2094727
948,79.25,-26,-330.75,0.2915039,0.02050781,0.06347656,-0.1650391,0.1577148,-0.2109375
952,82.4375,-96.0625,-284.875,0.578125,0.5527344,0.2133789,-0.1831055,0.1337891,-0.2148438
956,43.3125,-116.8125,-269.5625,1.085938,0.8789063,0.3095703,-0.1982422,0.1210938,-0.2119141
960,16.8125,-66.875,-294.875,1.39209,0.6030273,0.2329102,-0.215332,0.1010742,-0.206543
964,42.125,-29.25,-325.875,1.353516,0.2070313,0.1713867,-0.2304688,0.08007813,-0.206543
968,76.6875,-21.125,-289.4375,1.279785,0.2148438,0.1210938,-0.2353516,0.06103516,-0.206543
972,107.6875,-34.25,-226.125,1.206055,0.3041992,0.1210938,-0.2436523,0.03613281,-0.2055664
976,118.125,-28.1875,-200.125,1.411621,0.9023438,0.2944336,-0.2509766,0.01367188,-0.206543
980,77.75,41.5,-235.5625,1.632324,1.341309,0.3710938,-0.253418,-0.001953125,-0.2080078
984,56.25,107.375,-276.5,1.182617,0.6225586,0.159668,-0.2519531,-0.02441406,-0.2148438
988,108,76.6875,-284.875,0.5317383,0.4750977,0.09814453,-0.2470703,-0.05078125,-0.2216797
992,141.5,-20.8125,-251.8125,0.4116211,0.8208008,0.09423828,-0.2426758,-0.07080078,-0.2255859
996,158.3125,-103.3125,-209.8125,0.7836914,0.9023438,0.07519531,-0.2426758,-0.09814453,-0.2216797
1000,179.3125,-116.75,-201.9375,1.43457,1.372559,0.2329102,-0.2436523,-0.1230469,-0.206543
1004,148.4375,-52.5,-226.5,1.787598,1.78418,0.3017578,-0.2460938,-0.140625,-0.199707
1008,117.8125,13.75,-252.5625,1.539551,1.489258,0.3637695,-0.2387695,-0.1669922,-0.1958008
1012,120.75,13.3125,-261.5,1.09375,1.244141,0.2866211,-0.2280273,-0.1904297,-0.1928711
1016,129.375,-39.875,-249.5625,0.8652344,1.225098,0.2329102,-0.2211914,-0.2070313,-0.1875
1020,134.5625,-106,-245.4375,0.8769531,1.236328,0.105957,-0.2104492,-0.2304688,-0.1796875
1024,132.8125,-157.4375,-249.125,1.043457,1.283203,-0.01318359,-0.2021484,-0.2543945,-0.1630859
1028,124.625,-177.375,-258.8125,1.330078,1.388184,0.02099609,-0.1962891,-0.2680664,-0.1508789
1033,103.25,-171,-253.8125,1.461914,1.403809,0.05175781,-0.1875,-0.2866211,-0.1333008
1037,77.125,-152,-217.3125,1.601563,1.372559,0.1210938,-0.1757813,-0.3041992,-0.1157227
1041,35.9375,-115.3125,-158.25,1.760254,1.255859,0.1557617,-0.1665039,-0.3154297,-0.1074219
1045,-1.5625,-72.875,-102.625,1.740723,1.019043,0.1328125,-0.1582031,-0.3217773,-0.1020508
1049,-12.25,-38.5,-63,1.608887,0.7705078,0.1289063,-0.1533203,-0.3256836,-0.1005859
1053,-7.3125,-17.125,-46.875,1.481445,0.7548828,0.1328125,-0.1508789,-0.328125,-0.09667969
1057,-5.9375,-8.5625,-36.25,1.364746,0.793457,0.144043,-0.1474609,-0.3291016,-0.09765625
1061,-3.125,-12.4375,-12,1.380371,0.8286133,0.1865234,-0.1435547,-0.3305664,-0.09912109
1065,-4,-6.75,25,1.512207,0.9296875,0.2441406,-0.1450195,-0.3330078,-0.1005859
1069,-8.3125,15.25,63.0625,1.589844,1.026855,0.2788086,-0.1484375,-0.3305664,-0.09912109
1073,-18.6875,43.8125,91.4375,1.554688,1.267578,0.3251953,-0.1542969,-0.3266602,-0.1005859
1077,-46.9375,63.625,111.1875,1.411621,1.442383,0.3056641,-0.1591797,-0.3232422,-0.1044922
1081,-73.1875,52.4375,142.125,1.140137,1.341309,0.2060547,-0.1665039,-0.3129883,-0.1113281
1085,-78.375,15,174.1875,1.097656,1.263672,0.1020508,-0.1757813,-0.3041992,-0.1210938
1089,-73.9375,-18.875,210.1875,1.225586,1.236328,0.02099609,-0.184082,-0.2944336,-0.1235352
1093,-64.6875,-39.75,253.125,1.446289,1.251953,-0.005371094,-0.2021484,-0.2792969,-0.1264648
1097,-56.8125,-25.4375,281.5,1.709961,1.407715,-0.03613281,-0.21875,-0.2583008,-0.1235352
1101,-52.0625,14.5625,296.8125,1.736816,1.52002,-0.08984375,-0.2319336,-0.2416992,-0.1303711
1105,-62.3125,49.375,305.125,1.612793,1.72998,-0.09765625,-0.2470703,-0.2182617,-0.1333008
1109,-85.25,66.25,312,1.415527,1.772461,-0.1401367,-0.2578125,-0.1904297,-0.1401367
1113,-93.0625,63.8125,316.9375,1.330078,1.559082,-0.1743164,-0.2636719,-0.1704102,-0.1469727
1117,-82.5625,51.75,332.875,1.271973,1.333496,-0.2089844,-0.2734375,-0.140625,-0.1538086
1121,-65,39.375,355.625,1.353516,1.197754,-0.1552734,-0.2783203,-0.1083984,-0.1577148
1125,-49.8125,47.3125,368.5,1.469727,1.17041,-0.09765625,-0.2827148,-0.08691406,-0.1616211
1129,-40.625,87.375,357.1875,1.574219,1.251953,-0.06298828,-0.2827148,-0.05175781,-0.1645508
1133,-51.1875,138.25,331.0625,1.473633,1.251953,-0.06689453,-0.2768555,-0.01806641,-0.1738281
1137,-57.4375,162.75,332.25,1.140137,1.015137,-0.1435547,-0.2724609,0.001464844,-0.1821289
1141,-47.3125,141.875,351.875,0.7993164,0.8129883,-0.1513672,-0.2592773,0.03125,-0.1904297
1145,-39.8125,108.25,359.1875,0.7568359,0.8632813,-0.05908203,-0.2426758,0.06005859,-0.2011719
1149,-49.125,85.25,357.125,0.7797852,0.9179688,0.005859375,-0.2304688,0.08007813,-0.2055664
1153,-57.375,86.8125,342.125,0.9350586,0.6923828,0.03662109,-0.2128906,0.1064453,-0.206543
1157,-54.1875,111.9375,323.8125,0.9580078,0.5214844,0.01708984,-0.1938477,0.1323242,-0.2109375
1162,-41.6875,137.125,313.0625,0.9350586,0.4516602,-0.01318359,-0.1772461,0.1459961,-0.2148438
1166,-39.25,142.4375,324.25,0.6362305,0.4438477,-0.04736328,-0.1508789,0.1660156,-0.2202148
1170,-42.625,109.5625,331.6875,0.4541016,0.4086914,0.04052734,-0.1235352,0.1811523,-0.2216797
1174,-44.25,97.9375,338.3125,0.6557617,0.3974609,0.07128906,-0.1020508,0.1884766,-0.2216797
1178,-51.8125,119.75,324,0.6171875,0.3310547,0.04052734,-0.07324219,0.2036133,-0.2231445
1182,-49.625,162,304.5625,0.4814453,0.2299805,-0.05126953,-0.04003906,0.2075195,-0.2216797
1186,-43.6875,167.25,293.5,-0.02587891,0.04736328,-0.1362305,-0.01855469,0.2138672,-0.2216797
1190,-29.1875,144.625,285.1875,-0.2348633,0.05126953,-0.1054688,0.01171875,0.2148438,-0.2202148
1194,-33.25,130.5,269.375,-0.4750977,0.1953125,-0.0859375,0.04248047,0.2148438,-0.2163086
1198,-50.6875,113.9375,252.625,-0.6884766,0.1484375,-0.1166992,0.06054688,0.2114258,-0.2148438
1202,-59.6875,75.5,213.8125,-1.443848,0.01269531,-0.2324219,0.08544922,0.2099609,-0.206543
1206,-60.9375,22.375,163.1875,-1.870117,-0.1035156,-0.2631836,0.1044922,0.2075195,-0.199707
1210,-49.25,-35,101.625,-1.959473,-0.2241211,-0.2631836,0.1118164,0.2075195,-0.199707
1214,-31.8125,-53.9375,34.375,-1.668457,-0.2705078,-0.2055664,0.1166992,0.2036133,-0.1958008
1218,-13.625,-43.75,-25.5,-1.374023,-0.3520508,-0.1513672,0.1142578,0.2060547,-0.1987305
1222,7.75,-25.625,-77.9375,-1.168945,-0.4257813,-0.0859375,0.1103516,0.2060547,-0.1987305
1226,22.75,-19.5,-116.6875,-0.9985352,-0.581543,0.005859375,0.1020508,0.2084961,-0.2011719
1230,39.5,-19.5625,-150.1875,-0.7929688,-0.4067383,0.08642578,0.09375,0.2114258,-0.2041016
1234,41.625,-20.0625,-177.375,-0.5874023,-0.3173828,0.1367188,0.08203125,0.2124023,-0.2026367
1238,36.6875,-21.0625,-194.9375,-0.5063477,-0.2783203,0.1328125,0.06640625,0.2163086,-0.206543
1242,35.125,-27.3125,-207.375,-0.4443359,-0.3364258,0.1098633,0.04882813,0.2172852,-0.2109375
1246,44.75,-36,-228.375,-0.4482422,-0.340332,0.1020508,0.03808594,0.2197266,-0.2133789
1250,53.4375,-65.75,-241.875,-0.3354492,-0.2124023,0.1367188,0.01660156,0.2163086,-0.2133789
1254,45.3125,-92.625,-241.6875,-0.2041016,0.0009765625,0.1479492,-0.005859375,0.2148438,-0.2177734
1258,29.9375,-112.3125,-246.4375,-0.1264648,0.07080078,0.1171875,-0.02490234,0.2124023,-0.2216797
1262,27.3125,-133.6875,-248.75,-0.06054688,-0.06054688,0.01367188,-0.04833984,0.2084961,-0.2216797
1266,42.5,-146.625,-244.625,0.1132813,0.008789063,-0.02832031,-0.07714844,0.2001953,-0.2202148
1270,41.5625,-137.8125,-244.125,0.5976563,0.04394531,0.3173828,-0.09228516,0.1962891,-0.2177734
1274,-22.75,-58.875,-303.375,1.291504,1.12793,0.4560547,-0.1186523,0.1860352,-0.2163086
1278,-59.3125,7.8125,-349.125,0.9736328,0.08642578,0.2021484,-0.1411133,0.1762695,-0.2119141
1282,6.25,-36.375,-331.25,0.5048828,-0.3911133,0.04052734,-0.1557617,0.1674805,-0.2109375
1286,62.3125,-124.625,-268,0.6171875,-0.1499023,-0.03613281,-0.1772461,0.1489258,-0.2080078
1291,74.8125,-180.875,-220.75,1.0625,0.5292969,0.1748047,-0.1982422,0.1323242,-0.2041016
1295,11.5,-119.625,-276.25,2.182617,1.489258,0.4711914,-0.2114258,0.1186523,-0.1972656
1299,-48.1875,5.1875,-324.75,1.93457,0.3623047,0.1367188,-0.2270508,0.1010742,-0.1904297
1303,13.875,10.125,-323.375,1.09375,-0.1347656,0.05566406,-0.2412109,0.08007813,-0.1918945
1307,52.5625,-67.4375,-271.5625,0.9970703,0.3427734,0.08642578,-0.2470703,0.0625,-0.1904297
1311,38.75,-130.125,-223.0625,1.171387,0.6303711,0.03271484,-0.2568359,0.04003906,-0.1850586
1315,25.0625,-122.6875,-244.5,1.856934,1.030762,0.2636719,-0.2685547,0.01855469,-0.175293
1319,-22.9375,-23.4375,-287.875,2.322266,1.045898,0.2480469,-0.2744141,0.004882813,-0.1728516
1323,-23.0625,45.625,-284.875,1.632324,0.284668,0.07128906,-0.2768555,-0.01708984,-0.1728516
1327,16.5,-2.1875,-239.9375,0.7954102,0.3232422,0.01367188,-0.2768555,-0.04199219,-0.1738281
1331,27.375,-90.75,-207.125,0.7954102,0.6655273,0.04443359,-0.2783203,-0.05566406,-0.1738281
1335,25.0625,-104.3125,-209.25,1.403809,0.8710938,0.1635742,-0.2807617,-0.07421875,-0.1660156
1339,6.1875,-44.375,-224.5,1.856934,0.9414063,0.2480469,-0.2817383,-0.09326172,-0.1577148
1343,6.6875,15.3125,-224.5,1.52002,0.5913086,0.1748047,-0.2807617,-0.1054688,-0.15625
1347,38.75,26.5,-215.4375,1.19043,0.5332031,0.105957,-0.2758789,-0.1254883,-0.1577148
1351,58,9.8125,-196.9375,0.9423828,0.6069336,0.02880859,-0.2675781,-0.1455078,-0.1606445
1355,81.5,-17.4375,-184.5625,0.8730469,0.5761719,-0.009277344,-0.2651367,-0.1591797,-0.1577148
1359,109,-32.4375,-189.375,1.039551,0.7314453,0.02880859,-0.2592773,-0.1782227,-0.1523438
1363,112.75,-8.3125,-222.1875,1.419434,1.193848,0.2250977,-0.2519531,-0.1982422,-0.1469727
1367,92.625,41.5,-253.4375,1.469727,1.17041,0.2021484,-0.2436523,-0.2128906,-0.1425781
1371,83.5625,47,-247.8125,1.128418,0.9682617,0.1132813,-0.2294922,-0.2382813,-0.144043
1375,79.25,-7.25,-202.25,0.8769531,0.9760742,-0.005371094,-0.215332,-0.2568359,-0.1401367
1379,71.9375,-77.9375,-140.3125,1.074219,0.9838867,0.02490234,-0.2080078,-0.2680664,-0.1357422
1383,58.4375,-98.8125,-94.875,1.608887,1.09668,0.125,-0.2021484,-0.2768555,-0.1264648
1387,29.0625,-57,-69.0625,1.942383,1.120117,0.2211914,-0.199707,-0.2856445,-0.1166992
1391,0.5625,5.875,-43.4375,1.888184,0.9604492,0.1943359,-0.1982422,-0.2880859,-0.1166992
1395,-7.5,45.125,-8.1875,1.582031,0.6884766,0.09814453,-0.1948242,-0.2905273,-0.1181641
1399,-1.6875,51.6875,29,1.279785,0.6655273,0.06347656,-0.1923828,-0.2905273,-0.1196289
1403,0.3125,41.1875,47.6875,1.175293,0.7314453,0.1328125,-0.1923828,-0.2866211,-0.1225586
1407,-2.875,26.75,57.375,1.140137,0.8286133,0.1982422,-0.1972656,-0.2841797,-0.1235352
1411,-20.5,7.8125,65.375,1.256348,0.9453125,0.2597656,-0.2006836,-0.2817383,-0.1279297
1415,-35,-2.875,92.375,1.403809,0.824707,0.2597656,-0.2021484,-0.2783203,-0.1279297
1420,-34.3125,-4.125,119.8125,1.5625,0.809082,0.2441406,-0.2089844,-0.2705078,-0.1289063
1424,-35.125,4.1875,145.875,1.589844,0.8828125,0.1518555,-0.2172852,-0.2592773,-0.1333008
1428,-29.6875,-6.75,168.9375,1.5625,0.8984375,0.1787109,-0.2236328,-0.2504883,-0.1333008
1432,-23,-10.625,197.6875,1.72168,1.045898,0.1713867,-0.2329102,-0.2368164,-0.1333008
1436,-28.0625,9.5,223.1875,1.86084,1.259766,0.2094727,-0.2470703,-0.2192383,-0.1357422
1440,-37.5,40.5625,243.9375,1.853027,1.321777,0.1748047,-0.2509766,-0.2070313,-0.1357422
1444,-45.6875,60.625,257.125,1.706055,1.333496,0.09814453,-0.2602539,-0.1855469,-0.1425781
1448,-49.3125,62.1875,275.8125,1.5625,1.356934,0.09814453,-0.2675781,-0.1621094,-0.1494141
1452,-58.0625,47.5,295.3125,1.442383,1.376465,0.07910156,-0.2724609,-0.1445313,-0.1523438
1456,-64.75,33.25,309.3125,1.477539,1.317871,0.1020508,-0.2783203,-0.1166992,-0.15625
1460,-65.8125,33.75,317.25,1.550781,1.178223,0.06738281,-0.2817383,-0.08691406,-0.1606445
1464,-58.1875,47.5,317.6875,1.578125,1.026855,0.05175781,-0.2841797,-0.06445313,-0.1645508
1468,-40.3125,74.875,322.125,1.612793,0.921875,0.02880859,-0.2827148,-0.03710938,-0.1674805
1472,-29.0625,97.3125,327.875,1.450195,0.9916992,0.001953125,-0.2768555,-0.006835938,-0.1728516
1476,-34.6875,90.4375,345.0625,1.179199,1.04248,0.005859375,-0.2700195,0.01367188,-0.1782227
1480,-42.875,74.5625,353.875,1.109375,0.9492188,0.02880859,-0.2602539,0.04492188,-0.1835938
1484,-42.8125,77.9375,352.5625,1.144043,0.8442383,0.02880859,-0.2446289,0.07373047,-0.1865234
1488,-37.5,107.1875,338.6875,1.206055,0.7817383,0.01708984,-0.2329102,0.09130859,-0.1889648
1492,-35.125,129.875,319,1.089844,0.6225586,-0.03222656,-0.2163086,0.1162109,-0.1972656
1496,-28.1875,133,326.75,0.8222656,0.6538086,-0.06298828,-0.1923828,0.1386719,-0.2055664
1500,-29.4375,110.875,336.25,0.7758789,0.5800781,0.005859375,-0.1772461,0.1523438,-0.206543
1504,-48.125,113.0625,326.5625,0.7875977,0.8867188,0.09814453,-0.1508789,0.1699219,-0.2109375
1508,-81,121.875,295.125,0.7255859,0.6884766,0.08642578,-0.1245117,0.1884766,-0.2119141
1512,-95.6875,133.5625,273.875,0.6713867,0.5097656,0.05175781,-0.1054688,0.1987305,-0.2109375
1516,-95.75,117.375,280.6875,0.3691406,0.1601563,-0.04003906,-0.07958984,0.2124023,-0.2094727
1520,-79.625,73.75,317.25,0.1987305,0.09033203,0.001953125,-0.05078125,0.2226563,-0.2041016
1524,-72,68.1875,320.375,0.3110352,0.269043,0.04052734,-0.02929688,0.2275391,-0.2011719
1528,-77.5625,103.1875,289.5,0.1948242,0.2963867,-0.01660156,-0.0009765625,0.2314453,-0.1958008
1532,-85.3125,130.4375,249.875,-0.3588867,0.171875,-0.1552734,0.02978516,0.2363281,-0.1889648
1536,-82.5625,108.8125,228.9375,-0.9365234,-0.01416016,-0.2475586,0.04638672,0.2363281,-0.1835938
1540,-74.75,45.4375,220.75,-1.509766,-0.07617188,-0.2939453,0.07226563,0.2363281,-0.1767578
1544,-70.75,-19.4375,198.5625,-1.753906,-0.1538086,-0.3398438,0.09033203,0.2338867,-0.1728516
1549,-51.125,-47.3125,150.6875,-1.788574,-0.2705078,-0.3862305,0.09863281,0.2324219,-0.1674805
1553,-19.25,-23.6875,59.0625,-1.587402,-0.3056641,-0.3359375,0.1069336,0.2285156,-0.1674805
1557,3.3125,19.5,-38,-1.544922,-0.2978516,-0.2744141,0.1118164,0.2285156,-0.1660156
1561,19.1875,25,-100.625,-1.560059,-0.371582,-0.2285156,0.105957,0.2285156,-0.1645508
1565,30.0625,-2.875,-136,-1.381836,-0.371582,-0.1743164,0.09960938,0.2299805,-0.1660156
1569,38.125,-37.5,-158.375,-1.033203,-0.4179688,-0.1206055,0.08300781,0.2338867,-0.1660156
1573,46.9375,-50.5625,-176.75,-0.6069336,-0.3793945,-0.06689453,0.07470703,0.2387695,-0.1713867
1577,51.5,-30.6875,-199.625,-0.2929688,-0.3364258,-0.01660156,0.05712891,0.2397461,-0.1767578
1581,57.1875,-8.4375,-223.5625,-0.28125,-0.3598633,-0.01318359,0.03808594,0.2397461,-0.1796875
1585,65.375,-25.5625,-240.375,-0.362793,-0.3095703,0.04052734,0.0234375,0.2397461,-0.1835938
1589,62.75,-54.8125,-249,-0.2231445,-0.1655273,0.09814453,0.0009765625,0.2387695,-0.1875
1593,56.5625,-81.5625,-254.25,0.07861328,-0.1230469,0.1098633,-0.0234375,0.2338867,-0.1918945
1597,57.4375,-65.5,-259.5,0.4272461,-0.1577148,0.1171875,-0.04150391,0.2314453,-0.1958008
1601,69.3125,-43.25,-268.75,0.5317383,-0.2241211,0.125,-0.06152344,0.2211914,-0.199707
1605,80.75,-32.875,-270,0.5317383,-0.02978516,0.2060547,-0.08642578,0.2124023,-0.2011719
1609,70.0625,-43.375,-281.875,0.6132813,0.2573242,0.3520508,-0.1030273,0.2036133,-0.206543
1613,41.8125,-49.8125,-287.3125,0.5668945,-0.06445313,0.3671875,-0.1235352,0.1884766,-0.2080078
1617,35.5625,-73.125,-297.8125,0.7680664,-0.04150391,0.2709961,-0.1459961,0.1762695,-0.2080078
1621,60.6875,-76.125,-277.1875,1.05127,-0.2314453,0.1557617,-0.1601563,0.1650391,-0.206543
1625,92.5,-60.4375,-245.75,1.147949,0.01660156,0.2402344,-0.1816406,0.1474609,-0.206543
1629,63.0625,-18.75,-252.875,1.271973,0.8710938,0.4672852,-0.1962891,0.1289063,-0.2080078
1633,11.0625,8.9375,-288.875,1.05127,0.4052734,0.355957,-0.2055664,0.1137695,-0.2094727
1637,40.375,-7,-295,0.9194336,-0.03369141,0.2402344,-0.2163086,0.09521484,-0.2133789
1641,76.6875,-26.4375,-264.9375,1.035645,0.03222656,0.1826172,-0.2270508,0.07275391,-0.2119141
1645,99.8125,-40.5625,-229.6875,0.9194336,0.237793,0.1826172,-0.234375,0.05859375,-0.2133789
1649,99.4375,-69.9375,-233.5625,1.0625,0.9257813,0.4018555,-0.2412109,0.03369141,-0.2119141
1653,41.3125,-59,-242.6875,1.411621,1.189941,0.425293,-0.2509766,0.01123047,-0.2109375
1657,26.25,-27.25,-241.375,1.353516,0.3388672,0.2788086,-0.2543945,-0.001953125,-0.206543
1661,74.6875,-7.625,-223.25,1.171387,0.1293945,0.1479492,-0.2578125,-0.0234375,-0.2055664
1665,108.875,-11.6875,-187.0625,0.8652344,0.2338867,0.09033203,-0.2578125,-0.04296875,-0.2055664
1669,135.1875,-37.625,-163.25,0.6289063,0.6772461,0.1171875,-0.2592773,-0.05810547,-0.206543
1673,107.625,-28.375,-198.375,0.9736328,1.547363,0.355957,-0.2592773,-0.07714844,-0.2041016
1678,41.125,12.25,-256.5,0.9194336,1.225098,0.2060547,-0.2553711,-0.1005859,-0.2011719
1682,72.1875,10.125,-273.4375,0.8149414,0.5253906,0.2250977,-0.253418,-0.1157227,-0.1987305
1686,114.5,-20.625,-250.0625,0.8457031,0.7392578,0.2480469,-0.2446289,-0.1420898,-0.2026367
1690,134.1875,-58.625,-209.5625,0.9697266,0.9375,0.2709961,-0.2387695,-0.1669922,-0.1918945
1694,140.375,-85.3125,-174.1875,1.248535,1.368652,0.3789063,-0.237793,-0.1821289,-0.1875
1698,96.5625,-57.25,-186.5,1.666992,2.083496,0.605957,-0.2329102,-0.2006836,-0.175293
1702,12.8125,-2.75,-218.9375,1.566406,1.788086,0.5366211,-0.2255859,-0.2192383,-0.168457
1706,-4.625,-16.3125,-221.4375,1.155762,1.073242,0.3789063,-0.2172852,-0.2280273,-0.1713867
1710,5.8125,-78.75,-189.5625,1.074219,1.034668,0.1826172,-0.2089844,-0.2416992,-0.168457
1714,-0.4375,-138.6875,-149.125,1.306641,0.8442383,0.02490234,-0.203125,-0.2558594,-0.1606445
1718,24.3125,-148.625,-132,1.702148,0.4790039,-0.05908203,-0.2021484,-0.2617188,-0.1538086
1722,58.875,-108.125,-122.5625,1.98877,0.6499023,-0.001464844,-0.1982422,-0.2705078,-0.144043
1726,57.4375,-47.375,-77.9375,2.042969,0.8671875,0.1713867,-0.1948242,-0.2817383,-0.1347656
1730,38.6875,7.625,-21.1875,1.938477,0.7973633,0.340332,-0.1923828,-0.2832031,-0.1303711
1734,23.25,50.8125,22.5,1.659668,0.8286133,0.3330078,-0.1899414,-0.2832031,-0.1318359
1738,3.3125,73.5625,42.1875,1.310547,0.8789063,0.2866211,-0.1914063,-0.2841797,-0.1333008
1742,-15.1875,64.875,54.0625,1.004395,0.8129883,0.2211914,-0.1938477,-0.2832031,-0.1357422
1746,-17.625,31.875,64.3125,0.9116211,0.6962891,0.1982422,-0.1923828,-0.2792969,-0.1401367
1750,-11.5,3.9375,78.9375,1.09375,0.7705078,0.2211914,-0.1972656,-0.2729492,-0.144043
1754,-15.5,-1.5625,98.125,1.302734,0.8828125,0.2866211,-0.2006836,-0.2695313,-0.144043
1758,-24.4375,11.6875,115.8125,1.446289,1.034668,0.3442383,-0.206543,-0.2631836,-0.144043
1762,-38.5625,32.9375,128.1875,1.461914,1.084961,0.340332,-0.2138672,-0.2519531,-0.1484375
1766,-48.0625,42.25,139.5625,1.357422,1.038574,0.2944336,-0.2163086,-0.2456055,-0.1508789
1770,-51.375,40.25,151.625,1.357422,0.9956055,0.2480469,-0.2255859,-0.2329102,-0.1577148
1774,-54.75,27.1875,178.1875,1.268066,1.034668,0.1904297,-0.2304688,-0.2167969,-0.1616211
1778,-59.5625,-3,212.1875,1.260254,0.9956055,0.1674805,-0.237793,-0.2080078,-0.1616211
1782,-55.25,-19.3125,236.75,1.419434,1.057617,0.1826172,-0.2460938,-0.1894531,-0.1660156
1786,-58.75,-11.6875,246.625,1.608887,1.209473,0.2402344,-0.2568359,-0.1655273,-0.1674805
1790,-69.5625,11.25,253.6875,1.632324,1.232422,0.2133789,-0.2636719,-0.1518555,-0.1674805
1794,-71.3125,20.3125,265.25,1.504395,1.120117,0.1518555,-0.2685547,-0.1254883,-0.1699219
1798,-66.0625,11,285.125,1.361328,1.069336,0.07519531,-0.2709961,-0.09960938,-0.1713867
1802,-66.9375,-11.875,306.5,1.268066,1.09668,0.05566406,-0.2768555,-0.07958984,-0.1728516
1807,-68.125,-31.75,318.25,1.349609,0.9916992,0.07910156,-0.2807617,-0.05078125,-0.1728516
1811,-58.6875,-19.625,318.4375,1.504395,0.8598633,0.05175781,-0.2807617,-0.01953125,-0.1660156
1815,-45.5625,5.1875,309.25,1.484863,0.840332,0.04052734,-0.2792969,0.001464844,-0.1660156
1819,-40.375,16.375,313.1875,1.407715,0.8168945,0.005859375,-0.2744141,0.02734375,-0.1660156
1823,-35.5625,11.8125,334.25,1.357422,0.6499023,-0.001464844,-0.2651367,0.05615234,-0.1660156
1827,-22.75,24.9375,349.9375,1.426758,0.6811523,0.04443359,-0.2592773,0.07617188,-0.1645508
1831,-20.375,58.0625,356.875,1.419434,0.6655273,-0.005371094,-0.2426758,0.1035156,-0.1660156
1835,-19.75,84.3125,337.375,1.314453,0.6884766,0.02490234,-0.2255859,0.1298828,-0.1674805
1839,-23.5625,111.5,328.125,1.237305,0.5878906,-0.01318359,-0.2128906,0.1450195,-0.1738281
1843,-12.0625,129,332.625,1.159668,0.3310547,-0.02441406,-0.1875,0.1674805,-0.1796875
1847,-6.3125,131.9375,355.8125,0.8183594,0.5058594,-0.08984375,-0.1601563,0.1850586,-0.1865234
1851,-8.375,111.375,368.4375,0.7333984,0.3857422,-0.01318359,-0.1376953,0.1962891,-0.1918945
1855,-5.25,114.8125,361.5625,0.6870117,0.3623047,-0.01660156,-0.1054688,0.2114258,-0.1958008
1859,-1.8125,150.625,333.6875,0.7373047,0.4516602,0.01367188,-0.07128906,0.2211914,-0.1987305
1863,-13.9375,197.25,302.9375,0.5629883,0.4165039,-0.01660156,-0.05078125,0.2236328,-0.2011719
1867,-24.25,202.5,299.9375,-0.01806641,0.2573242,-0.1015625,-0.01513672,0.2275391,-0.2026367
1871,-23.0625,164.6875,307.6875,-0.4287109,0.203125,-0.1054688,0.02001953,0.2275391,-0.2011719
1875,-35.875,114,307.375,-0.8588867,0.2651367,-0.1206055,0.04394531,0.2260742,-0.199707
1879,-43.5,74.875,266.75,-1.048828,0.140625,-0.112793,0.07373047,0.2226563,-0.1943359
1883,-47.75,52.375,211.4375,-1.35498,0.06689453,-0.1630859,0.09521484,0.2172852,-0.1918945
1887,-44.75,29.875,153.8125,-1.498047,-0.07617188,-0.1821289,0.109375,0.2138672,-0.1865234
1891,-33.375,18.875,111.9375,-1.665039,-0.2084961,-0.324707,0.1201172,0.2099609,-0.1835938
1895,1.5625,16.625,65.0625,-1.657227,-0.4375,-0.3823242,0.1308594,0.2060547,-0.1806641
1899,36.25,16.4375,5.0625,-1.541016,-0.4067383,-0.2475586,0.1318359,0.2075195,-0.1821289
1903,45.75,21.1875,-60.1875,-1.312012,-0.1538086,-0.08203125,0.1308594,0.2050781,-0.1835938
1907,34,6.125,-109.875,-1.215332,-0.2084961,0.02490234,0.1269531,0.2060547,-0.1865234
1911,27.9375,-26.9375,-138.375,-0.9208984,-0.3364258,0.1020508,0.1210938,0.2099609,-0.1875
1915,23.6875,-51.0625,-145.1875,-0.5795898,-0.3989258,0.08251953,0.1079102,0.2138672,-0.1904297
1919,29.9375,-51.875,-145.4375,-0.3549805,-0.4882813,0.07910156,0.09130859,0.2172852,-0.1958008
1923,39.5,-43.625,-159.5,-0.328125,-0.4453125,0.07910156,0.08447266,0.2197266,-0.1918945
1927,38.9375,-47.75,-189,-0.3935547,-0.2861328,0.1674805,0.06787109,0.2211914,-0.199707
1931,25.375,-67.0625,-201.75,-0.1767578,-0.2124023,0.2060547,0.04980469,0.2250977,-0.2041016
1936,14,-74.4375,-214.6875,-0.04492188,-0.2202148,0.2211914,0.03564453,0.2236328,-0.2041016
1940,10.875,-71.4375,-230,0.07861328,-0.3095703,0.1367188,0.01269531,0.2260742,-0.206543
1944,22.75,-81.1875,-232.875,0.140625,-0.4067383,0.1289063,-0.009277344,0.2250977,-0.2080078
1948,36.3125,-95.0625,-222.9375,0.2724609,-0.2939453,0.1020508,-0.02490234,0.2226563,-0.2080078
1952,34.9375,-87.625,-241.125,0.6713867,0.004882813,0.3056641,-0.04833984,0.21875,-0.206543
1956,15.5625,-47.25,-257.6875,0.6982422,-0.06054688,0.2211914,-0.07226563,0.2138672,-0.2094727
1960,29.875,-31.3125,-267.0625,0.5126953,-0.355957,0.1367188,-0.08642578,0.2075195,-0.2080078
1964,55.4375,-47.0625,-254.8125,0.3730469,-0.2275391,0.105957,-0.1069336,0.1962891,-0.2094727
1968,57.625,-82.125,-243.6875,0.3339844,0.05517578,0.1713867,-0.1269531,0.1850586,-0.2109375
1972,39.6875,-109.3125,-255.3125,0.8378906,0.3388672,0.2749023,-0.1411133,0.1772461,-0.2094727
1976,23.75,-76.1875,-268.25,1.233398,0.2070313,0.2368164,-0.1640625,0.1635742,-0.2080078
1980,30.5625,-30.75,-273.375,1.113281,-0.1230469,0.1557617,-0.1831055,0.1474609,-0.206543
1984,63.4375,-22.0625,-255.6875,0.7797852,-0.1889648,0.08251953,-0.1914063,0.1347656,-0.2055664
1988,77.3125,-86.6875,-239.8125,0.4155273,0.1523438,0.1098633,-0.2080078,0.1152344,-0.206543
1992,62.8125,-149.375,-231.375,0.9077148,0.7353516,0.2749023,-0.2236328,0.09619141,-0.2026367
1996,0.5625,-113.8125,-266.4375,1.52002,0.8710938,0.2290039,-0.2329102,0.08496094,-0.1987305
2000,-7.6875,-56,-284.9375,1.318359,0.1679688,0.1367188,-0.2485352,0.06494141,-0.1889648
2004,39.5,-54.375,-270.75,1.105469,0.008789063,0.07519531,-0.2578125,0.04248047,-0.1865234
2008,61.4375,-94,-228.1875,0.8032227,0.4633789,0.02490234,-0.2626953,0.02734375,-0.1835938
2012,46.25,-127.3125,-241.4375,1.310547,1.030762,0.2368164,-0.2724609,0.004882813,-0.1767578
2016,1.3125,-65,-285.0625,1.845703,1.026855,0.2368164,-0.2792969,-0.01806641,-0.1674805
2020,3,7,-294.5,1.640137,0.4477539,0.2060547,-0.2807617,-0.03466797,-0.1660156
2024,38.5,25.5,-269.875,1.314453,0.4985352,0.2021484,-0.2817383,-0.06054688,-0.168457
2028,45.0625,9.625,-241.625,0.9462891,0.809082,0.1367188,-0.2758789,-0.08447266,-0.1699219
2032,45.3125,-35.0625,-230.0625,0.8149414,0.8325195,0.125,-0.2758789,-0.09960938,-0.1699219
2036,50.9375,-65.9375,-233.1875,1.078125,1.09668,0.1865234,-0.2724609,-0.1230469,-0.1645508
2040,32.25,-51.1875,-251.1875,1.388184,1.298828,0.2211914,-0.2685547,-0.1445313,-0.1591797
2044,24.8125,-23.125,-258.875,1.43457,1.108398,0.1904297,-0.2661133,-0.1591797,-0.1538086
2048,39,-15.4375,-254.5625,1.357422,1.01123,0.159668,-0.2568359,-0.1821289,-0.1547852
2052,51.5,-29.875,-229.5625,1.349609,1.019043,0.1635742,-0.2470703,-0.2045898,-0.1523438
2056,53.625,-48.25,-200.8125,1.570313,1.244141,0.3056641,-0.2426758,-0.2158203,-0.1455078
2060,18.75,-37.9375,-195.125,1.783691,1.399902,0.3520508,-0.234375,-0.2329102,-0.1401367
2065,-11.5,-21.4375,-178.1875,1.806641,1.04248,0.2788086,-0.2236328,-0.2480469,-0.1401367
2069,-11.3125,-22.4375,-126.75,1.73291,0.6499023,0.1635742,-0.2163086,-0.2543945,-0.1401367
2073,-6,-26.125,-43.25,1.717773,0.5800781,0.144043,-0.2114258,-0.2607422,-0.1386719
2077,0.3125,-10.0625,18.125,1.72168,0.5175781,0.1479492,-0.2114258,-0.2631836,-0.1386719
2081,7.5,21.6875,35,1.481445,0.6342773,0.1098633,-0.2114258,-0.2617188,-0.1357422
2085,4.625,36,36.4375,1.268066,0.6884766,0.140625,-0.2138672,-0.2607422,-0.1386719
2089,-4.625,27.5625,40.125,1.101563,0.7080078,0.1557617,-0.215332,-0.2568359,-0.1386719
2093,-10.25,4.5625,56,1.117188,0.6499023,0.159668,-0.2163086,-0.2558594,-0.1386719
2097,-10.8125,-8.625,78.3125,1.260254,0.6923828,0.1943359,-0.21875,-0.2504883,-0.1416016
2101,-13.875,-8.6875,99.0625,1.384277,0.7817383,0.2368164,-0.2255859,-0.2441406,-0.1401367
2105,-19.5625,0.6875,116.3125,1.446289,0.8364258,0.2329102,-0.2294922,-0.2392578,-0.1416016
2109,-23.5625,7.4375,133.1875,1.442383,0.8671875,0.2290039,-0.2363281,-0.2280273,-0.144043
2113,-29.3125,4.875,153.9375,1.395996,0.9492188,0.1787109,-0.2436523,-0.2143555,-0.1455078
2117,-32.5,-5.5,177.0625,1.403809,0.921875,0.1518555,-0.2485352,-0.2080078,-0.144043
2121,-28,-6.4375,198.375,1.554688,0.953125,0.1328125,-0.2568359,-0.1904297,-0.144043
2125,-28.5625,8.875,210.9375,1.678711,1.045898,0.1210938,-0.2661133,-0.1733398,-0.1469727
2129,-27.3125,24.125,226.9375,1.709961,0.9799805,0.09033203,-0.2685547,-0.1591797,-0.1484375
2133,-18.3125,36.75,248.625,1.709961,1.022949,0.08251953,-0.2744141,-0.1367188,-0.1523438
2137,-20.8125,49.4375,266.4375,1.640137,1.120117,0.1020508,-0.2783203,-0.1142578,-0.1547852
2141,-27.875,54.1875,268.5625,1.523926,1.12793,0.1132813,-0.2792969,-0.09814453,-0.1577148
2145,-33.875,56.9375,272.3125,1.531738,1.030762,0.1479492,-0.2817383,-0.07324219,-0.1616211
2149,-41.4375,49.75,276,1.399902,0.9604492,0.140625,-0.2817383,-0.04931641,-0.168457
2153,-36.1875,38.4375,289.0625,1.438477,0.7817383,0.125,-0.2807617,-0.03076172,-0.168457
2157,-28.9375,29.8125,302.0625,1.473633,0.6733398,0.1020508,-0.2758789,-0.006835938,-0.1713867
2161,-23.625,36.1875,310.125,1.651855,0.8364258,0.2094727,-0.2700195,0.02148438,-0.175293
2165,-32.25,75,312.5625,1.752441,0.7470703,0.1748047,-0.2661133,0.04003906,-0.175293
2169,-26.625,123.375,306.5625,1.674805,0.5991211,0.1132813,-0.2519531,0.06494141,-0.1835938
2173,-14.5,173.375,313.75,1.461914,0.6342773,0.009765625,-0.2353516,0.08984375,-0.1918945
2177,-24.25,171.9375,324.5625,1.027832,0.7392578,0.02880859,-0.2236328,0.1049805,-0.199707
2181,-54.25,139.4375,350.25,0.7993164,0.9375,0.1020508,-0.1972656,0.1289063,-0.2094727
2185,-76.5625,97.875,373.9375,0.7680664,0.5952148,0.09423828,-0.1708984,0.1513672,-0.2119141
2189,-74.5,89.9375,361.5,0.8920898,0.4711914,0.08251953,-0.1533203,0.1660156,-0.2119141
2194,-62.75,119.0625,351.3125,0.9501953,0.2651367,-0.04736328,-0.1259766,0.1860352,-0.2148438
2198,-35.8125,149.5,349.125,0.8613281,0.1367188,-0.109375,-0.09130859,0.2001953,-0.2119141
2202,-27.0625,160.4375,350.0625,0.5126953,0.4321289,-0.04003906,-0.07128906,0.2060547,-0.2177734
2206,-37.8125,151,357.8125,0.2138672,0.4555664,-0.04394531,-0.03320313,0.2148438,-0.2177734
2210,-47.25,124.1875,323.6875,-0.2080078,0.3896484,0.03271484,0.002441406,0.2197266,-0.2163086
2214,-55.9375,93.5,295.125,-0.215332,0.2924805,0.02880859,0.02148438,0.21875,-0.2133789
2218,-60.4375,75.0625,272.6875,-0.2504883,0.06298828,0.05175781,0.04980469,0.21875,-0.2094727
2222,-56.0625,58.125,261.625,-0.3432617,0.01269531,0.009765625,0.07470703,0.2163086,-0.2041016
2226,-54.625,41.375,261,-0.5756836,-0.02587891,-0.01660156,0.09033203,0.2138672,-0.2011719
2230,-40.3125,40.375,244.75,-0.8007813,-0.1308594,-0.1245117,0.1152344,0.2075195,-0.1958008
2234,-17.25,50.875,214.4375,-1.157227,-0.1035156,-0.2397461,0.1342773,0.2001953,-0.1904297
2238,7.5625,52,161.75,-1.552246,-0.06835938,-0.2978516,0.1459961,0.1923828,-0.1889648
2242,20.625,50.5,83.625,-1.75,0.03613281,-0.2592773,0.1591797,0.1860352,-0.1865234
2246,16.9375,30.5,5.25,-1.862305,0.03222656,-0.2207031,0.1665039,0.1826172,-0.1889648
2250,10.8125,-9.375,-52.5625,-1.734375,-0.1035156,-0.1015625,0.1650391,0.1811523,-0.1875
2254,10.5,-52,-93.9375,-1.366211,-0.1889648,-0.01318359,0.1582031,0.1850586,-0.1904297
2258,10.4375,-72.3125,-125.3125,-0.9516602,-0.2431641,0.07519531,0.1484375,0.1884766,-0.1928711
2262,14.5,-68.9375,-149.1875,-0.5952148,-0.3017578,0.08642578,0.1401367,0.1948242,-0.1958008
2266,23.9375,-46.5625,-170.5625,-0.4633789,-0.3286133,0.05566406,0.1235352,0.1987305,-0.1972656
2270,37.6875,-32.0625,-191.125,-0.5566406,-0.3095703,0.01708984,0.1079102,0.2050781,-0.2011719
2274,48.5625,-30.1875,-215.5,-0.6225586,-0.1967773,-0.005371094,0.09619141,0.2075195,-0.2041016
2278,53,-44.9375,-242.875,-0.6264648,-0.04150391,0.02099609,0.07617188,0.2099609,-0.2094727
2282,47.0625,-72.5,-262.3125,-0.5410156,0.08251953,0.02880859,0.05712891,0.2138672,-0.2133789
2286,45.1875,-101.25,-275.375,-0.3320313,0.07080078,-0.005371094,0.0390625,0.2163086,-0.2163086
2290,53.375,-112.5625,-283.0625,-0.01025391,0.02832031,-0.04736328,0.008300781,0.2163086,-0.21875
2294,67.0625,-113.375,-284.625,0.1791992,0.05126953,-0.01660156,-0.01855469,0.2099609,-0.2231445
2298,79.375,-106.75,-287.5625,0.543457,0.1992188,0.105957,-0.03662109,0.2060547,-0.2246094
2302,77.6875,-70.5625,-313.375,0.644043,0.3544922,0.1713867,-0.06494141,0.1972656,-0.2299805
2306,71.6875,-50.6875,-336.9375,0.5395508,0.3081055,0.1518555,-0.09130859,0.1850586,-0.2324219
2310,80.5625,-70.375,-352.625,0.3535156,0.2416992,0.144043,-0.109375,0.1748047,-0.2338867
2314,89.875,-145.25,-327.9375,0.5820313,0.2226563,0.07910156,-0.1342773,0.15625,-0.2368164
2318,107.4375,-195.8125,-268,1.182617,0.4204102,0.1787109,-0.1616211,0.1376953,-0.2324219
2323,86.625,-156.375,-292.75,2.008301,1.049805,0.425293,-0.1782227,0.1201172,-0.2285156
2327,32.375,-43.75,-323.125,1.888184,0.777832,0.3364258,-0.1982422,0.1000977,-0.2255859
2331,50.125,-28.0625,-327.75,1.147949,0.1835938,0.2480469,-0.2138672,0.07763672,-0.2255859
2335,84.625,-88.125,-291.8125,0.7758789,0.3310547,0.1020508,-0.222168,0.06005859,-0.2246094
2339,95.4375,-161.5625,-242.5,0.8652344,0.5058594,0.009765625,-0.2353516,0.03515625,-0.2216797
2343,103.375,-182.375,-229.3125,1.492676,1.026855,0.2636719,-0.2495117,0.01367188,-0.2080078
2347,56.5625,-100.4375,-274.4375,1.791016,1.481445,0.2675781,-0.2568359,-0.004394531,-0.2011719
2351,11.9375,-77.75,-291.8125,1.023926,1.01123,0.1289063,-0.2651367,-0.02832031,-0.1928711
2355,20,-168.125,-270.3125,0.6171875,0.8364258,-0.04394531,-0.2700195,-0.05175781,-0.1865234
2359,36.3125,-238.5,-238.1875,1.330078,0.8208008,-0.08984375,-0.2758789,-0.06689453,-0.1738281
2363,56.25,-206.4375,-210.75,2.027832,0.7509766,-0.07080078,-0.2841797,-0.08837891,-0.1538086
2367,79.375,-105.9375,-206.9375,2.36084,1.06543,0.09033203,-0.2866211,-0.109375,-0.1401367
2371,56.125,17.625,-239.75,2.112793,1.469727,0.125,-0.2875977,-0.1245117,-0.1347656
2375,19.3125,58.125,-269.5,1.333984,1.197754,0.04443359,-0.2792969,-0.1445313,-0.137207
2379,20.75,4.75,-267.4375,1.059082,0.9492188,0.06347656,-0.2675781,-0.171875,-0.1416016
2383,26.25,-64.6875,-242.25,1.361328,1.045898,0.1210938,-0.2626953,-0.1879883,-0.1401367
2387,5.625,-96.625,-210.0625,1.822266,1.088867,0.1210938,-0.2543945,-0.2055664,-0.1303711
2391,-11.6875,-93.6875,-181.9375,2.097168,0.8012695,0.05957031,-0.2470703,-0.2231445,-0.1235352
2395,-4.5,-60.5625,-157,2.225098,0.5527344,0.005859375,-0.2446289,-0.2319336,-0.1210938
2399,14.1875,-23.8125,-108.0625,2.082031,0.2885742,-0.001464844,-0.237793,-0.2416992,-0.1181641
2403,45.375,12.25,-43.75,1.942383,0.2729492,0.07128906,-0.2304688,-0.2504883,-0.1142578
2407,65.4375,57.0625,-1.1875,1.752441,0.4711914,0.1748047,-0.2304688,-0.2519531,-0.1142578
2411,57.0625,83.8125,18.0625,1.333984,0.809082,0.2441406,-0.2255859,-0.2519531,-0.1157227
2415,24.4375,74,18.5,1.004395,0.9296875,0.3017578,-0.2255859,-0.2543945,-0.1157227
2419,-10.625,36,16.5,0.8417969,0.7973633,0.2597656,-0.2270508,-0.2543945,-0.1210938
2423,-26.625,-5.8125,24.0625,1.023926,0.6459961,0.1982422,-0.2294922,-0.2519531,-0.1235352
2427,-37.5625,-35.125,46.6875,1.268066,0.5761719,0.1367188,-0.2294922,-0.2480469,-0.1235352
2431,-32.375,-33.9375,72,1.624512,0.5097656,0.1328125,-0.2329102,-0.2456055,-0.1225586
2435,-26.625,-10,98.875,1.756348,0.5800781,0.08642578,-0.2402344,-0.2368164,-0.1210938
2439,-21.6875,13.625,125.8125,1.779785,0.6884766,0.09423828,-0.2436523,-0.2280273,-0.125
2443,-21.5,38.4375,145.375,1.806641,0.7817383,0.09033203,-0.2470703,-0.2207031,-0.125
2447,-19.5,53.4375,167.8125,1.798828,0.8442383,0.08251953,-0.253418,-0.2094727,-0.1289063
2452,-22.25,60.5625,197.625,1.783691,1.003418,0.06738281,-0.2578125,-0.1918945,-0.1347656
2456,-37.125,46.9375,229.5625,1.748535,1.088867,0.03662109,-0.2636719,-0.1791992,-0.1386719
2460,-42.125,30.1875,262.25,1.853027,1.073242,0.01708984,-0.2709961,-0.1582031,-0.1416016
2464,-46.6875,35.1875,282.5,2.085938,1.240234,0.06738281,-0.2783203,-0.1333008,-0.1494141
2468,-54.625,59.9375,300.4375,2.050781,1.189941,-0.005371094,-0.2807617,-0.1132813,-0.1508789
2472,-45.4375,70.5625,329.3125,1.89209,0.9838867,-0.03613281,-0.2841797,-0.08691406,-0.15625
2476,-21.5,73.875,353.875,1.694336,0.890625,-0.06689453,-0.2817383,-0.05322266,-0.1616211
2480,-5.75,77.875,359.375,1.527832,1.01123,-0.02441406,-0.2817383,-0.03320313,-0.1660156
2484,-24.3125,75.4375,342.375,1.403809,1.279297,0.1020508,-0.2744141,-0.001953125,-0.1699219
2488,-53.875,78.3125,333.75,1.376465,1.06543,0.125,-0.2661133,0.02880859,-0.1767578
2492,-60.5,76.6875,332.4375,1.287598,0.6459961,0.04785156,-0.2602539,0.04638672,-0.1796875
2496,-36,74,349.375,1.186523,0.3896484,-0.005371094,-0.2446289,0.07519531,-0.1835938
2500,-10.75,57.125,361.25,1.082031,0.4477539,0.01708984,-0.2304688,0.1035156,-0.1889648
2504,-13.75,34.0625,372.1875,1.027832,0.5878906,0.05957031,-0.2163086,0.1201172,-0.1889648
2508,-29.875,47.375,346,1.159668,0.7548828,0.1367188,-0.1962891,0.1450195,-0.1918945
2512,-53.875,84.625,327.0625,1.109375,0.4555664,0.02099609,-0.1757813,0.1674805,-0.1943359
2516,-43.625,106.625,328.9375,0.8457031,0.1757813,-0.03222656,-0.1582031,0.1801758,-0.1928711
2520,-21.75,86.5625,343.75,0.7412109,0.06689453,-0.07861328,-0.1318359,0.1962891,-0.1958008
2524,-2.375,82.125,359.5625,0.7177734,0.3081055,-0.001464844,-0.1010742,0.2084961,-0.199707
2528,-5.5,99.5,337.25,0.7138672,0.4750977,0.07128906,-0.07958984,0.2148438,-0.2026367
2532,-24.875,120.9375,299.25,0.4658203,0.3081055,-0.01318359,-0.05078125,0.2226563,-0.2011719
2536,-18.1875,107.0625,289.5625,0.2138672,0.004882813,-0.02832031,-0.02001953,0.2275391,-0.2041016
2540,-6.375,76.9375,296.875,0.206543,-0.006347656,0.001953125,-0.003417969,0.2275391,-0.2026367
2544,-5.0625,62.875,305.3125,0.2177734,0.06689453,0.04785156,0.02734375,0.2250977,-0.2041016
2548,-3.4375,81.4375,281.625,0.1367188,0.1020508,0.05175781,0.05712891,0.2226563,-0.2026367
2552,-5.8125,106.25,240.625,-0.05273438,0.05517578,0.07519531,0.07373047,0.2172852,-0.2041016
2556,-5.75,121.75,212,-0.362793,-0.01416016,-0.01660156,0.09765625,0.2124023,-0.1972656
2560,-2.9375,118,203.4375,-0.9052734,-0.01025391,-0.09765625,0.1210938,0.2036133,-0.1943359
2564,-2.0625,76.3125,194.125,-1.556152,0.07080078,-0.1435547,0.1342773,0.1972656,-0.1918945
2568,9.5625,33.375,161.0625,-1.785156,-0.02197266,-0.2207031,0.1523438,0.1899414,-0.1904297
2572,28.75,40.875,80.75,-1.625977,0.1020508,-0.2089844,0.1640625,0.1811523,-0.1918945
2576,33.0625,73.8125,-14.875,-1.575684,-0.02587891,-0.2167969,0.1665039,0.1787109,-0.1889648
2581,46.125,68.75,-75.5625,-1.517578,-0.2353516,-0.1552734,0.1689453,0.1772461,-0.1850586
2585,45,22.875,-99.6875,-1.428223,-0.1733398,-0.03222656,0.1650391,0.1811523,-0.1865234
2589,28.5625,-38.5625,-108.0625,-1.091309,-0.2431641,0.1020508,0.1591797,0.1826172,-0.1889648
2593,13.9375,-80.0625,-112.3125,-0.7695313,-0.3520508,0.08642578,0.1484375,0.1875,-0.1928711
2597,11.25,-95.1875,-118,-0.4829102,-0.4453125,0.06347656,0.1391602,0.1914063,-0.1987305
2601,19.3125,-65.0625,-149.125,-0.3320313,-0.46875,0.03271484,0.1269531,0.1948242,-0.199707
2605,31.8125,-34.125,-181.9375,-0.5566406,-0.4765625,-0.02441406,0.1142578,0.2011719,-0.2026367
2609,49.3125,-35.0625,-205.8125,-0.6572266,-0.4067383,-0.05517578,0.09619141,0.2036133,-0.206543
2613,60.3125,-46.25,-222.375,-0.6147461,-0.2275391,-0.01660156,0.08544922,0.2060547,-0.2133789
2617,55.5,-78.0625,-234.1875,-0.5488281,-0.03759766,0.07519531,0.06396484,0.2114258,-0.2163086
2621,42.125,-109.0625,-243.75,-0.2270508,-0.006347656,0.1171875,0.04052734,0.2114258,-0.2231445
2625,38.625,-112.75,-254.6875,0.1484375,-0.1269531,0.1367188,0.02246094,0.2114258,-0.2246094
2629,49.375,-90.125,-268.4375,0.4389648,-0.1694336,0.159668,-0.003417969,0.2099609,-0.2255859
2633,60.3125,-80.875,-267.4375,0.3149414,-0.2163086,0.2133789,-0.02929688,0.2050781,-0.2285156
2637,68.625,-127.1875,-238.5625,0.4350586,-0.1230469,0.2519531,-0.04492188,0.2011719,-0.2299805
2641,55.25,-126.125,-232.6875,0.9194336,0.1875,0.3637695,-0.07128906,0.1914063,-0.2324219
2645,35.5625,-85.75,-259.0625,1.097656,-0.01025391,0.355957,-0.09472656,0.1835938,-0.2324219
2649,39.375,-58.9375,-272.625,0.8417969,-0.06445313,0.3637695,-0.1079102,0.1738281,-0.2324219
2653,33.625,-100.8125,-261.5,0.7758789,-0.06054688,0.2636719,-0.1293945,0.1635742,-0.2324219
2657,29.3125,-161.75,-198.625,0.8183594,-0.1772461,0.1479492,-0.1494141,0.1513672,-0.2255859
2661,44.9375,-197.4375,-160.5625,1.163574,-0.2353516,0.1098633,-0.1625977,0.1411133,-0.2231445
2665,51.875,-135.4375,-194.5625,1.806641,0.269043,0.3173828,-0.184082,0.1323242,-0.2177734
2669,27.125,5,-249.8125,1.674805,0.284668,0.2211914,-0.1972656,0.1162109,-0.2119141
2673,26.5625,22.4375,-263.4375,0.4428711,0.0009765625,0.1328125,-0.2055664,0.1064453,-0.2177734
2677,39.375,-108.5625,-243.9375,-0.1499023,0.2226563,0.07128906,-0.2163086,0.08642578,-0.2177734
2681,29.625,-227.875,-219.5625,0.6054688,0.4477539,-0.009277344,-0.2329102,0.06982422,-0.2055664
2685,30.9375,-229,-211.375,1.461914,0.3779297,-0.005371094,-0.2460938,0.05859375,-0.1943359
2689,46.1875,-131.25,-237.5625,1.984863,0.5410156,0.140625,-0.2592773,0.04003906,-0.1806641
2693,39.1875,-3.0625,-279.25,1.798828,0.7895508,0.1904297,-0.2685547,0.01611328,-0.175293
2697,25.9375,31.75,-295.1875,0.9350586,0.7236328,0.1132813,-0.2709961,-0.003417969,-0.1796875
2701,29.4375,-32.75,-287.75,0.625,0.7739258,0.04052734,-0.2734375,-0.02832031,-0.1806641
2705,36.375,-94.5,-276.1875,0.9311523,0.8520508,-0.04394531,-0.2758789,-0.05175781,-0.175293
2710,53.0625,-99.6875,-281.0625,1.341797,0.8286133,-0.06689453,-0.2768555,-0.06933594,-0.168457
2714,83.3125,-72.5,-297.5625,1.477539,0.8598633,-0.1166992,-0.2792969,-0.09960938,-0.1616211
2718,117,-40.375,-324.75,1.566406,1.045898,-0.128418,-0.2758789,-0.1269531,-0.15625
2722,111.8125,-18.5625,-316.6875,1.659668,1.485352,-0.04394531,-0.2709961,-0.1518555,-0.1508789
2726,81.4375,-18.8125,-292.1875,1.640137,1.411133,0.07910156,-0.2602539,-0.1791992,-0.1469727
2730,67.6875,-36.9375,-285.5,1.566406,1.186035,0.1748047,-0.2485352,-0.2070313,-0.1416016
2734,53.9375,-74.1875,-284,1.558594,1.108398,0.1098633,-0.2387695,-0.2246094,-0.137207
2738,47.875,-105.9375,-261,1.640137,0.921875,-0.009277344,-0.2294922,-0.2456055,-0.1303711
2742,44,-118.125,-200.1875,1.845703,0.8325195,-0.08984375,-0.21875,-0.2641602,-0.1181641
2746,34.125,-86.625,-85.375,2.144043,0.7587891,0.04785156,-0.2128906,-0.2729492,-0.1113281
2750,31.25,-19.1875,-3.6875,2.128418,0.6030273,0.144043,-0.2104492,-0.2783203,-0.105957
2754,37.625,52.6875,14.625,1.709961,0.7392578,0.09814453,-0.2104492,-0.2783203,-0.1035156
