Packet number,Gyroscope X (deg/s),Gyroscope Y (deg/s),Gyroscope Z (deg/s),Accelerometer X (g),Accelerometer Y (g),Accelerometer Z (g),Magnetometer X (G),Magnetometer Y (G),Magnetometer Z (G)
2,-0.875,-0.25,1.125,0.5239258,0.8520508,0.02490234,-0.168457,-0.2944336,-0.1523438
6,-0.875,-1.9375,1.1875,0.527832,0.8442383,0.02880859,-0.1674805,-0.2944336,-0.1508789
10,-1.1875,-1.5625,0.0625,0.5395508,0.8442383,0.01708984,-0.1674805,-0.2954102,-0.1523438
14,0,-1.125,0.125,0.5395508,0.8286133,0.009765625,-0.1674805,-0.2954102,-0.1538086
18,1.125,-1,-0.125,0.5512695,0.8325195,0.03271484,-0.168457,-0.2954102,-0.1538086
22,-0.125,-0.1875,-0.75,0.5473633,0.855957,0.02880859,-0.168457,-0.2929688,-0.1523438
26,-1,-0.0625,-0.8125,0.543457,0.8520508,0.02490234,-0.168457,-0.2954102,-0.1494141
30,-1.3125,-1.375,0.1875,0.5356445,0.8364258,0.01708984,-0.168457,-0.2944336,-0.1523438
34,-0.5,-1.6875,0.9375,0.5512695,0.824707,0.02490234,-0.1674805,-0.2944336,-0.1523438
38,0.3125,-1.25,0.6875,0.5473633,0.824707,0.02099609,-0.1674805,-0.2954102,-0.1523438
42,1.1875,0.125,0,0.559082,0.824707,0.02880859,-0.168457,-0.2929688,-0.1523438
46,1.5625,2.25,-0.5625,0.559082,0.8481445,0.01708984,-0.1674805,-0.296875,-0.1494141
50,0.75,1.4375,-0.125,0.5356445,0.8442383,0.02099609,-0.1674805,-0.2929688,-0.1508789
54,0.1875,-1.8125,1.6875,0.527832,0.840332,0.02099609,-0.1674805,-0.2954102,-0.1508789
58,-0.1875,-4.6875,2.1875,0.5356445,0.8481445,0.01367188,-0.1665039,-0.2954102,-0.1494141
62,-0.75,-5.625,1.375,0.559082,0.8442383,0.02099609,-0.168457,-0.2944336,-0.1523438
66,-1.1875,-7.5,3.125,0.574707,0.8364258,0.03271484,-0.1665039,-0.2954102,-0.1494141
70,-1.0625,-11.25,6.125,0.5820313,0.8364258,0.03271484,-0.1699219,-0.2929688,-0.1508789
74,-2.9375,-15.75,7.25,0.625,0.8671875,0.05566406,-0.1708984,-0.2944336,-0.1508789
78,-9.75,-21.1875,9.25,0.6948242,0.9179688,0.1020508,-0.1708984,-0.2929688,-0.1484375
82,-20.9375,-29.875,16.1875,0.7758789,0.9604492,0.1865234,-0.1733398,-0.2919922,-0.1494141
86,-36.75,-39.4375,28.625,0.8803711,0.9995117,0.2250977,-0.1723633,-0.2905273,-0.1484375
90,-50.9375,-46.625,43.3125,0.9580078,0.953125,0.2290039,-0.1791992,-0.2841797,-0.1494141
95,-56.875,-49.875,57.5,1.09375,0.8789063,0.2290039,-0.1831055,-0.2817383,-0.1494141
99,-56.8125,-49.1875,68.5,1.244629,0.8984375,0.2368164,-0.1889648,-0.2768555,-0.1508789
103,-59,-52.625,78,1.419434,0.9838867,0.2905273,-0.1972656,-0.2705078,-0.1523438
107,-76.1875,-47.0625,108.5,1.651855,1.088867,0.2944336,-0.199707,-0.2641602,-0.1523438
111,-97.8125,-27.8125,151.3125,1.775879,1.022949,0.2905273,-0.206543,-0.2543945,-0.1538086
115,-101.0625,-8.4375,191.25,1.682617,0.9257813,0.2480469,-0.2211914,-0.2382813,-0.1616211
119,-94.625,-4.875,215.375,1.612793,0.9140625,0.2519531,-0.2280273,-0.2270508,-0.1606445
123,-93.1875,0,228.375,1.644043,1.034668,0.2709961,-0.2387695,-0.2055664,-0.1660156
127,-102.5625,10.6875,236.1875,1.698242,1.084961,0.2905273,-0.2495117,-0.1831055,-0.1699219
131,-108.5625,24.6875,249.4375,1.713867,0.9453125,0.2290039,-0.2543945,-0.1669922,-0.1728516
135,-97.0625,33.75,271.25,1.651855,0.7626953,0.1635742,-0.2602539,-0.140625,-0.1767578
139,-75.25,46.375,294.5625,1.682617,0.6811523,0.1479492,-0.2675781,-0.1142578,-0.1821289
143,-60.75,65.6875,297.5625,1.69043,0.9492188,0.2060547,-0.2675781,-0.09326172,-0.1865234
147,-71.375,94.375,285.5625,1.783691,1.135742,0.2788086,-0.2700195,-0.06689453,-0.1928711
151,-83.3125,145.1875,269.8125,1.946289,1.019043,0.2519531,-0.2636719,-0.03955078,-0.2011719
155,-87.3125,184.25,292.375,1.546875,0.8364258,0.07910156,-0.2568359,-0.02197266,-0.2094727
159,-78.5625,166.375,339.625,1.0625,0.7739258,0.05957031,-0.2446289,0.006347656,-0.2202148
163,-76.125,111.625,372.125,0.7875977,0.8442383,0.105957,-0.2294922,0.03515625,-0.230957
167,-82.5,81.5625,365.125,0.9697266,0.9916992,0.2021484,-0.2172852,0.05859375,-0.2338867
171,-95.3125,76.25,340.25,1.05127,0.8598633,0.2133789,-0.203125,0.08496094,-0.2353516
175,-104.875,83.3125,332.25,1.117188,0.6811523,0.1367188,-0.1831055,0.1123047,-0.2368164
179,-94.75,94,340.125,1.128418,0.4204102,0.04443359,-0.1699219,0.1274414,-0.2338867
183,-76.25,94,366.5,1.000488,0.4086914,-0.005371094,-0.1435547,0.1513672,-0.2353516
187,-66.4375,80.375,387,0.8691406,0.4438477,-0.01318359,-0.1162109,0.1713867,-0.2368164
191,-54.8125,89.3125,389.5,0.9814453,0.4321289,-0.01660156,-0.09619141,0.1835938,-0.2338867
195,-48.8125,133,379.5625,0.8881836,0.5527344,-0.04394531,-0.06298828,0.1962891,-0.2338867
199,-58.75,177,357.375,0.5087891,0.6811523,-0.1206055,-0.02832031,0.2026367,-0.230957
203,-69.875,177.1875,351.6875,-0.09521484,0.4555664,-0.2324219,-0.0009765625,0.2075195,-0.2299805
207,-58.125,133.25,350.1875,-0.5214844,0.2612305,-0.2436523,0.03417969,0.2099609,-0.2255859
211,-47.8125,100.5,328.4375,-0.6884766,0.3427734,-0.1899414,0.06884766,0.2050781,-0.2202148
215,-48.8125,85.4375,294.375,-0.9052734,0.300293,-0.2363281,0.08886719,0.2011719,-0.2163086
219,-47,79.0625,244.375,-1.234863,0.1992188,-0.2514648,0.1152344,0.1962891,-0.2109375
224,-33.6875,68.5,185.9375,-1.641602,0.03222656,-0.3208008,0.1342773,0.1875,-0.2026367
228,-8.625,44.625,115.4375,-1.885742,-0.04150391,-0.2861328,0.1450195,0.1826172,-0.2011719
232,9.625,14.8125,50.9375,-1.998047,-0.01806641,-0.2397461,0.1547852,0.1801758,-0.2011719
236,19.875,-20.4375,-7.5625,-1.885742,0.02050781,-0.1206055,0.1557617,0.1762695,-0.2041016
240,16.5,-42.5,-69.3125,-1.544922,0.09423828,-0.02441406,0.1533203,0.1787109,-0.2026367
244,9.5625,-50.4375,-123.5,-1.199707,-0.01806641,0.03271484,0.1459961,0.1811523,-0.2094727
248,13.9375,-50,-170.25,-0.8935547,-0.1538086,0.06738281,0.1342773,0.1860352,-0.2109375
252,21.9375,-42.0625,-203.0625,-0.6767578,-0.2124023,0.02099609,0.1210938,0.1914063,-0.2109375
256,37,-38.375,-217.8125,-0.5605469,-0.2587891,0.001953125,0.1035156,0.1972656,-0.2148438
260,51.4375,-43.3125,-230.5,-0.4443359,-0.1499023,0.02880859,0.08447266,0.2026367,-0.2177734
264,52.6875,-53.125,-257.8125,-0.3125,-0.002441406,0.1171875,0.07373047,0.2036133,-0.2216797
268,45.5,-65.0625,-273.75,-0.09521484,0.04736328,0.125,0.04882813,0.2075195,-0.2255859
272,41.1875,-72.9375,-282.1875,0.08251953,-0.01806641,0.105957,0.02246094,0.2075195,-0.2285156
276,49.25,-77,-279.6875,0.2216797,-0.1152344,0.04785156,0.005859375,0.2084961,-0.230957
280,67.25,-85.9375,-279.5,0.3574219,-0.04541016,0.1020508,-0.01611328,0.2026367,-0.230957
284,65.4375,-84.875,-302.625,0.5668945,0.2807617,0.2480469,-0.04589844,0.1972656,-0.237793
288,40.625,-73.875,-319.6875,0.7836914,0.3818359,0.2983398,-0.06298828,0.1899414,-0.237793
292,27.0625,-55,-333.8125,0.7451172,0.1523438,0.2250977,-0.09033203,0.1801758,-0.237793
296,47.375,-57.3125,-338.8125,0.6328125,-0.05273438,0.140625,-0.1137695,0.1660156,-0.237793
300,75.4375,-73.5625,-334.4375,0.6210938,0.06298828,0.125,-0.1318359,0.1547852,-0.237793
304,87.8125,-91.875,-319.3125,0.7529297,0.3740234,0.2094727,-0.1557617,0.1347656,-0.2368164
308,74.5625,-103.5625,-324.375,0.8730469,0.6923828,0.3056641,-0.1772461,0.1152344,-0.2392578
312,51.625,-103.3125,-334.8125,1.089844,0.7895508,0.2866211,-0.1923828,0.09863281,-0.2353516
316,43.0625,-99.1875,-335.5625,1.008301,0.5566406,0.1787109,-0.2089844,0.07617188,-0.2324219
320,72.9375,-104.4375,-317.5,1.082031,0.3349609,0.09423828,-0.2246094,0.04980469,-0.2270508
324,101.875,-107.9375,-291.75,0.9423828,0.5253906,0.04785156,-0.2329102,0.03271484,-0.2246094
328,113.1875,-116,-287.0625,1.09375,1.146973,0.2402344,-0.2470703,0.004882813,-0.2177734
332,59.75,-79.6875,-310.125,1.384277,1.690918,0.2983398,-0.2543945,-0.02441406,-0.2119141
336,28.3125,-30.9375,-336.375,1.322266,1.088867,0.1982422,-0.2578125,-0.04199219,-0.2094727
340,73.125,-32.375,-343.25,1.035645,0.7817383,0.1132813,-0.2578125,-0.07324219,-0.206543
344,120.4375,-57.3125,-316.125,1.109375,1.015137,0.07519531,-0.2553711,-0.1020508,-0.2011719
348,149.6875,-75.4375,-282.9375,1.175293,1.081055,0.03662109,-0.2519531,-0.1230469,-0.1987305
353,185.75,-82.25,-262.0625,1.209961,1.120117,-0.04736328,-0.2495117,-0.1542969,-0.1875
357,224.4375,-83.125,-263.6875,1.237305,1.450195,-0.128418,-0.2436523,-0.1845703,-0.1738281
361,226.5,-59.8125,-304.1875,1.426758,2.134277,0.01367188,-0.237793,-0.2070313,-0.1645508
365,179.8125,-29.1875,-343.25,1.349609,2.234863,0.06738281,-0.2246094,-0.2368164,-0.1484375
369,142.625,-35.125,-351.1875,1.209961,2.029297,0.1518555,-0.2045898,-0.2695313,-0.1386719
373,89.375,-87.25,-283.375,1.109375,2.025391,0.1171875,-0.1889648,-0.2841797,-0.1318359
377,24.25,-167,-154.25,1.330078,1.648438,0.1210938,-0.1772461,-0.3032227,-0.1196289
381,4.4375,-186.0625,-74.875,1.674805,1.104492,0.06347656,-0.1733398,-0.3095703,-0.1088867
385,2.6875,-142.9375,-55.8125,1.930664,0.953125,0.02490234,-0.1748047,-0.3120117,-0.1020508
389,-7.9375,-86.625,-61.0625,1.833984,0.8442383,-0.01318359,-0.1708984,-0.3168945,-0.09521484
393,-14.8125,-48.125,-62.6875,1.706055,0.6616211,0.02880859,-0.1674805,-0.3208008,-0.08984375
397,-6.6875,-29.4375,-40.75,1.682617,0.5292969,0.04052734,-0.1665039,-0.3208008,-0.08984375
401,3.375,-15.75,-0.875,1.666992,0.5449219,0.09033203,-0.1650391,-0.3256836,-0.09082031
405,9.4375,0.3125,33.875,1.620605,0.6342773,0.1518555,-0.1674805,-0.3242188,-0.08984375
409,4.6875,10.9375,56.6875,1.52002,0.8012695,0.2094727,-0.1674805,-0.3208008,-0.09082031
413,-10.3125,20.0625,72.0625,1.46582,0.9140625,0.2519531,-0.1723633,-0.3154297,-0.08837891
417,-24.875,25.3125,87.25,1.395996,0.9140625,0.2329102,-0.1791992,-0.3120117,-0.09228516
421,-32.5625,27.875,107.6875,1.357422,0.8984375,0.1713867,-0.1816406,-0.3066406,-0.09521484
425,-33.9375,27.5625,131.5,1.318359,0.8789063,0.105957,-0.1899414,-0.3007813,-0.09667969
429,-30.5625,27.0625,149.0625,1.326172,0.9296875,0.07519531,-0.1982422,-0.2905273,-0.1044922
433,-30.375,31.3125,160.0625,1.39209,1.049805,0.07128906,-0.2045898,-0.2832031,-0.105957
437,-35.75,35.9375,166.875,1.469727,1.166504,0.09033203,-0.215332,-0.2705078,-0.1088867
441,-46.0625,42.1875,180.5625,1.558594,1.325684,0.105957,-0.2236328,-0.2583008,-0.1157227
445,-63,47.5,209.0625,1.550781,1.415039,0.04785156,-0.2319336,-0.2495117,-0.1181641
449,-73.75,35.8125,250.3125,1.492676,1.294922,-0.02832031,-0.2426758,-0.2304688,-0.1235352
453,-64.625,30.4375,282.125,1.5625,1.225098,-0.09765625,-0.2553711,-0.2070313,-0.1318359
457,-52.1875,39.6875,296.5,1.663574,1.298828,-0.1245117,-0.2636719,-0.1894531,-0.1357422
461,-45.25,69.125,296,1.794922,1.356934,-0.1362305,-0.2709961,-0.1621094,-0.1401367
465,-43.875,118.8125,280.75,1.96582,1.562988,-0.03613281,-0.2768555,-0.1342773,-0.1484375
469,-69.375,172.4375,279.375,1.907715,1.601563,-0.1323242,-0.2792969,-0.1166992,-0.1547852
473,-65.0625,208.75,306.25,1.845703,1.221191,-0.1899414,-0.2744141,-0.09082031,-0.1728516
477,-48.125,219.8125,347.8125,1.620605,1.240234,-0.2553711,-0.2675781,-0.06054688,-0.1918945
482,-50,190.5625,381.9375,1.26416,1.458008,-0.1630859,-0.2602539,-0.03955078,-0.2026367
486,-77.625,166.25,376.75,1.202148,1.555176,-0.05126953,-0.2470703,-0.005859375,-0.2177734
490,-96.5625,154.9375,370.25,1.140137,1.092773,-0.06689453,-0.2329102,0.02490234,-0.2246094
494,-87.3125,164.5625,356.5625,1.194336,0.9023438,-0.06298828,-0.2211914,0.04736328,-0.230957
498,-84.375,167.8125,358.875,0.8842773,0.8442383,-0.112793,-0.199707,0.07763672,-0.2407227
502,-74.5625,130,366.25,0.6948242,0.7236328,-0.005371094,-0.1782227,0.1010742,-0.2460938
506,-74.9375,94.625,370.75,0.8261719,0.7548828,0.08642578,-0.1616211,0.1176758,-0.2460938
510,-80.25,99.5625,364.375,0.9541016,0.6616211,0.1132813,-0.1367188,0.1411133,-0.2490234
514,-78.25,101.25,361.3125,0.7568359,0.4477539,0.03271484,-0.1103516,0.1611328,-0.2475586
518,-59.875,105.1875,356.5,0.7294922,0.3120117,0.009765625,-0.09130859,0.1699219,-0.2490234
522,-39.6875,121.375,351.4375,0.6982422,0.3310547,-0.005371094,-0.05908203,0.1826172,-0.2460938
526,-30.0625,148,334.5,0.6054688,0.3935547,0.009765625,-0.02832031,0.1884766,-0.2475586
530,-35.8125,157,327.6875,0.1210938,0.4946289,-0.04394531,-0.004394531,0.1938477,-0.2446289
534,-43.8125,128.5,321.4375,-0.2119141,0.3310547,-0.01660156,0.02832031,0.1923828,-0.2446289
538,-44.1875,100.4375,304.4375,-0.4130859,0.2768555,-0.01318359,0.05957031,0.1914063,-0.2392578
542,-43.875,87.25,275.6875,-0.5527344,0.2070313,-0.03222656,0.07714844,0.1875,-0.2392578
546,-48.625,72.75,243.8125,-0.8745117,0.2070313,-0.07470703,0.1010742,0.1811523,-0.2324219
550,-47.4375,40.9375,213.4375,-1.300781,0.105957,-0.1166992,0.1225586,0.1748047,-0.2270508
554,-35.75,13,170.375,-1.505859,0.04736328,-0.1206055,0.1333008,0.1723633,-0.2246094
558,-20.5625,-4.6875,114,-1.641602,0.008789063,-0.1401367,0.1450195,0.1699219,-0.2216797
562,-7.5625,-14.375,53.8125,-1.691895,0.05517578,-0.1323242,0.1459961,0.1635742,-0.2231445
566,-0.875,-23.8125,-10.9375,-1.680176,0.05908203,-0.08984375,0.1484375,0.1625977,-0.2231445
570,5.25,-26.3125,-76.75,-1.498047,-0.01025391,-0.05126953,0.1459961,0.1635742,-0.2246094
574,12.3125,-26.3125,-133.25,-1.253906,-0.08398438,-0.04394531,0.1367188,0.1699219,-0.2255859
578,20.875,-28.3125,-176.5,-1.063965,-0.1381836,-0.04736328,0.1293945,0.1723633,-0.2270508
582,30.125,-40.4375,-201.3125,-0.9052734,-0.1928711,-0.07861328,0.1152344,0.1787109,-0.2299805
586,46.8125,-54.9375,-214.8125,-0.7075195,-0.2275391,-0.09375,0.09863281,0.1835938,-0.2324219
590,61.0625,-66.5625,-231.125,-0.4985352,-0.08007813,-0.02050781,0.08544922,0.1875,-0.2368164
594,58.75,-69.4375,-256.8125,-0.3046875,0.08642578,0.06738281,0.06396484,0.1899414,-0.2407227
598,49.75,-81.9375,-283.25,-0.1884766,0.09033203,0.140625,0.04052734,0.1884766,-0.2460938
602,42.3125,-102.5,-292.6875,-0.04882813,0.1137695,0.144043,0.02246094,0.1884766,-0.25
606,40.75,-131.125,-277.25,0.2529297,-0.06054688,0.07910156,-0.005859375,0.1860352,-0.25
611,61.375,-146.1875,-256.9375,0.559082,-0.1074219,0.1787109,-0.03173828,0.1826172,-0.2543945
615,66.25,-132.1875,-261,0.9541016,0.1679688,0.2866211,-0.05078125,0.1772461,-0.2529297
619,42,-92.0625,-274.8125,1.000488,0.2768555,0.355957,-0.07568359,0.1660156,-0.2543945
623,32.75,-76.9375,-292.625,0.7333984,0.07470703,0.3291016,-0.09716797,0.1577148,-0.2543945
627,42.3125,-109.5625,-296.1875,0.7255859,-0.06054688,0.2480469,-0.1162109,0.1499023,-0.2529297
631,55.9375,-148.6875,-253.9375,0.9580078,-0.01806641,0.2094727,-0.1376953,0.1347656,-0.25
635,60.9375,-171.5,-222.625,1.446289,0.3544922,0.3945313,-0.1616211,0.1201172,-0.2475586
639,22.5625,-119.5625,-237.25,1.69043,0.6733398,0.4560547,-0.1757813,0.1113281,-0.2436523
643,-3,-50.8125,-285,1.535645,0.3120117,0.3710938,-0.1914063,0.09521484,-0.2368164
647,16.8125,-30.3125,-329.5,1.163574,0.04394531,0.3056641,-0.2055664,0.08007813,-0.2338867
651,48.0625,-47.9375,-333.8125,1.140137,0.2612305,0.2866211,-0.2128906,0.0625,-0.2324219
655,45.625,-68.5,-296.125,1.035645,0.5097656,0.2329102,-0.2246094,0.03515625,-0.230957
659,40.3125,-101.25,-251.5625,0.8535156,0.4633789,0.159668,-0.2363281,0.01367188,-0.2270508
663,51.0625,-110.125,-238.25,0.9501953,0.4946289,0.09423828,-0.2412109,0,-0.2202148
667,58.5,-77.5,-261,1.09375,0.7236328,0.125,-0.2509766,-0.02050781,-0.2148438
671,57.75,-34.4375,-284.375,0.9311523,0.7739258,0.04443359,-0.2553711,-0.04589844,-0.2119141
675,71.5625,-36,-294.25,0.6289063,0.7666016,0.001953125,-0.2553711,-0.06445313,-0.2109375
679,88.25,-65.875,-289.25,0.6015625,0.9179688,-0.06298828,-0.253418,-0.09082031,-0.206543
683,105.9375,-93,-278.875,0.7602539,0.9916992,-0.08203125,-0.2519531,-0.1181641,-0.199707
687,128.6875,-101.6875,-281.8125,1.031738,1.317871,0.009765625,-0.2519531,-0.1381836,-0.1918945
691,121.5,-72.25,-319.25,1.426758,1.924316,0.2133789,-0.2470703,-0.1655273,-0.1796875
695,82.25,-39.5625,-333.75,1.461914,1.904785,0.2480469,-0.2363281,-0.1967773,-0.1728516
699,77.25,-47.875,-317.9375,1.318359,1.566895,0.2905273,-0.2280273,-0.2167969,-0.1699219
703,86.125,-83.75,-289.375,1.283691,1.500488,0.1982422,-0.215332,-0.2431641,-0.1616211
707,81.375,-119.25,-258.4375,1.39209,1.446289,0.07128906,-0.203125,-0.2631836,-0.1508789
711,73.9375,-138.25,-234.9375,1.628418,1.407715,0.07519531,-0.1962891,-0.2753906,-0.1425781
715,49.375,-133.5625,-206.1875,1.868652,1.384277,0.1098633,-0.1855469,-0.2929688,-0.1303711
719,16.75,-115.25,-137.5,2.070313,1.213379,0.1982422,-0.1757813,-0.3056641,-0.1210938
723,-4.5,-80.625,-71.5,2.163086,0.8867188,0.2905273,-0.1723633,-0.3095703,-0.1166992
727,-16.375,-40.125,-24.875,2.066406,0.7626953,0.2329102,-0.168457,-0.3129883,-0.112793
731,-20.8125,-3.1875,2.3125,1.880371,0.5761719,0.1479492,-0.1699219,-0.3129883,-0.1142578
735,-11.375,21.8125,20.3125,1.698242,0.4790039,0.08251953,-0.1699219,-0.3105469,-0.112793
740,2.4375,26.4375,46.625,1.527832,0.4829102,0.1098633,-0.1723633,-0.3081055,-0.1157227
744,14.4375,18.3125,76.375,1.481445,0.6381836,0.2172852,-0.1748047,-0.3056641,-0.1157227
748,10.4375,17.3125,103.4375,1.543457,0.9335938,0.3173828,-0.1782227,-0.3041992,-0.1166992
752,-14.25,28.125,119.8125,1.574219,1.236328,0.3828125,-0.1865234,-0.2983398,-0.1166992
756,-51.125,37.3125,133.75,1.546875,1.298828,0.3442383,-0.1923828,-0.2880859,-0.1196289
760,-65.0625,31.25,164.0625,1.458008,1.069336,0.2368164,-0.2006836,-0.2817383,-0.125
764,-55.9375,15.3125,201.0625,1.46582,1.038574,0.1328125,-0.2104492,-0.2670898,-0.1303711
768,-45.9375,6,232.875,1.543457,1.162598,0.06738281,-0.2236328,-0.2504883,-0.1333008
772,-44,8.125,255.875,1.682617,1.333496,0.07910156,-0.2319336,-0.2382813,-0.1357422
776,-50,31.25,266.25,1.783691,1.481445,0.07519531,-0.2446289,-0.2167969,-0.1386719
780,-60.5,55.5,278.5625,1.69043,1.52002,0.02880859,-0.2578125,-0.1943359,-0.1455078
784,-63.5,62.3125,297.6875,1.539551,1.43457,-0.04394531,-0.2617188,-0.1767578,-0.1508789
788,-55.0625,54.25,322.375,1.442383,1.275391,-0.07861328,-0.2700195,-0.1469727,-0.1547852
792,-37.3125,55.8125,341.5625,1.500488,1.20166,-0.1015625,-0.2792969,-0.1166992,-0.1630859
796,-25,72.625,348,1.454102,1.259766,-0.1054688,-0.2792969,-0.09716797,-0.1630859
800,-25.5625,93.5625,336.125,1.43457,1.39209,-0.05126953,-0.2783203,-0.06591797,-0.1713867
804,-39.375,120.6875,322.9375,1.337891,1.306641,-0.07470703,-0.2758789,-0.03564453,-0.1796875
808,-44.75,116.5625,316.1875,1.055176,1.112305,-0.1166992,-0.2700195,-0.01708984,-0.1850586
812,-35.9375,101.375,333.9375,1.105469,0.8828125,-0.08984375,-0.2602539,0.01269531,-0.1928711
816,-29.75,98.25,335.8125,1.082031,0.875,-0.08984375,-0.2509766,0.03857422,-0.1987305
820,-26.875,100.25,327.25,1.0625,0.9179688,-0.05517578,-0.2402344,0.05615234,-0.2080078
824,-34.625,103.875,315.125,1.089844,0.8671875,-0.005371094,-0.2236328,0.08251953,-0.2133789
828,-46.4375,106.3125,313.8125,0.9311523,0.7080078,-0.03222656,-0.206543,0.1049805,-0.2148438
832,-40.4375,101.9375,318.4375,0.9038086,0.4790039,-0.02441406,-0.1948242,0.1201172,-0.2177734
836,-36.3125,89.9375,322.4375,0.7138672,0.4399414,-0.03613281,-0.1723633,0.1401367,-0.2216797
840,-29.4375,86.8125,326.8125,0.7412109,0.3896484,0.001953125,-0.1484375,0.1601563,-0.2255859
844,-28.6875,94.3125,312.6875,0.6982422,0.3896484,0.05175781,-0.1303711,0.1699219,-0.2299805
848,-30.1875,117.0625,292.25,0.7602539,0.3427734,0.05566406,-0.1069336,0.1826172,-0.2299805
852,-34.3125,132.625,299.125,0.4736328,0.1914063,0.001953125,-0.078125,0.1938477,-0.2324219
856,-23,127.0625,306.5625,0.2490234,0.06689453,0.009765625,-0.05810547,0.1987305,-0.230957
860,-19.9375,123.6875,296.8125,0.01660156,0.1333008,0.02099609,-0.02685547,0.2026367,-0.2324219
864,-22.9375,125.5,266.9375,-0.1186523,0.1293945,0.09423828,0,0.2060547,-0.2338867
869,-33.8125,129.1875,242.875,-0.3935547,0.09423828,0.05175781,0.02001953,0.2050781,-0.2338867
873,-44.75,109.125,227,-0.9438477,-0.01416016,-0.02050781,0.04638672,0.2050781,-0.2270508
877,-47.375,56.9375,215.5,-1.362793,-0.08398438,-0.07080078,0.06787109,0.2036133,-0.2246094
881,-40.75,6.5625,178.875,-1.591309,-0.1381836,-0.04394531,0.07958984,0.1987305,-0.2202148
885,-29.875,-17.1875,116.4375,-1.57959,-0.1733398,-0.05126953,0.09130859,0.2001953,-0.2216797
889,-15.5625,-17.75,45.75,-1.563965,-0.1772461,-0.03613281,0.09765625,0.1972656,-0.2177734
893,-1.625,-9.375,-25.9375,-1.475098,-0.2006836,-0.05517578,0.09765625,0.1972656,-0.2177734
897,9.625,-8.5,-82.75,-1.405273,-0.1772461,-0.03222656,0.09375,0.1987305,-0.2177734
901,14.8125,-21,-126.375,-1.253906,-0.2084961,-0.03222656,0.08447266,0.2001953,-0.2202148
905,20.75,-37.1875,-163.0625,-1.013672,-0.2314453,-0.001464844,0.07861328,0.2036133,-0.21875
909,25.25,-45.625,-193.75,-0.7348633,-0.2202148,-0.005371094,0.06152344,0.2060547,-0.2231445
913,30.75,-47.5,-215.1875,-0.5332031,-0.2163086,0.001953125,0.04394531,0.2099609,-0.2246094
917,37.8125,-52.8125,-227.3125,-0.3974609,-0.2084961,-0.005371094,0.03320313,0.2084961,-0.2270508
921,44.75,-61.5625,-242.8125,-0.3085938,-0.1191406,0.05175781,0.01171875,0.2075195,-0.230957
925,43.375,-79.625,-262.6875,-0.08007813,0.02050781,0.1210938,-0.01171875,0.2060547,-0.2324219
929,35.0625,-77.1875,-279.1875,0.2373047,0.08251953,0.1367188,-0.02929688,0.2011719,-0.230957
933,32.9375,-68.1875,-286,0.3691406,-0.04541016,0.09033203,-0.05419922,0.1972656,-0.2338867
937,50.375,-77.1875,-280,0.2490234,-0.1538086,0.07910156,-0.08056641,0.1884766,-0.2338867
941,70.25,-138,-277.5625,0.2758789,0.09814453,0.1479492,-0.09619141,0.1811523,-0.2338867
945,36.8125,-168.25,-291.375,0.9077148,1.116211,0.3442383,-0.1220703,0.1650391,-0.2338867
949,-34.625,-145.625,-325.6875,1.144043,0.6923828,0.2636719,-0.1508789,0.1547852,-0.2255859
953,-35.5625,-113.6875,-349.375,1.322266,0.04394531,0.1098633,-0.168457,0.1450195,-0.2202148
957,3.875,-72.8125,-323,1.535645,-0.1381836,0.05957031,-0.1923828,0.1274414,-0.2119141
961,44.875,-28.125,-274.3125,1.260254,-0.02587891,0.1020508,-0.2104492,0.1064453,-0.2119141
965,58.5,-53.5,-259.3125,0.578125,0.5683594,0.1982422,-0.2172852,0.09375,-0.2109375
969,22.375,-104.8125,-285.25,0.7451172,1.120117,0.2749023,-0.2329102,0.07373047,-0.2080078
973,-19.5,-117.6875,-316.4375,1.124512,0.8286133,0.1943359,-0.2446289,0.04980469,-0.199707
977,1.25,-88.4375,-325.125,1.461914,0.4438477,0.1328125,-0.2568359,0.03515625,-0.1943359
981,36.75,-37.6875,-304.625,1.512207,0.3740234,0.1210938,-0.2661133,0.008789063,-0.1904297
985,73.5,-2.375,-264.1875,1.124512,0.4321289,0.05566406,-0.2675781,-0.01708984,-0.1875
989,99.625,-3.75,-243.875,0.8920898,0.9375,0.125,-0.2675781,-0.03320313,-0.1889648
993,72.4375,11.3125,-278,0.8535156,1.489258,0.125,-0.2685547,-0.06054688,-0.1918945
998,56.25,7.5,-317.5,0.7021484,1.232422,0.05175781,-0.2651367,-0.08935547,-0.1918945
1002,78.6875,-13.3125,-328.75,0.8339844,1.146973,0.05957031,-0.2617188,-0.1108398,-0.1918945
1006,106.75,-30.25,-320.375,0.9697266,1.314453,0.05566406,-0.253418,-0.1381836,-0.1865234
1010,129,-44.0625,-309.3125,1.128418,1.543457,0.07519531,-0.2485352,-0.171875,-0.1821289
1014,131.625,-45.3125,-304.5,1.353516,1.928223,0.1674805,-0.2402344,-0.1904297,-0.1767578
1018,88.3125,-25.5,-316.0625,1.570313,2.394531,0.3867188,-0.2280273,-0.2207031,-0.168457
1022,28.875,-26.1875,-323.0625,1.380371,1.916504,0.355957,-0.2128906,-0.2431641,-0.1616211
1026,23.4375,-72.5625,-305.9375,1.291504,1.52002,0.2480469,-0.2006836,-0.2607422,-0.1606445
1030,7,-151.0625,-235.375,1.384277,1.403809,0.05175781,-0.184082,-0.2783203,-0.1538086
1034,-3.0625,-198.0625,-138.375,1.922852,0.9179688,-0.001464844,-0.1791992,-0.2895508,-0.144043
1038,12.0625,-157.5625,-70.0625,2.341309,0.5722656,0.03662109,-0.1806641,-0.2954102,-0.137207
1042,17.875,-60.375,-39.625,2.40332,0.7158203,0.1635742,-0.1791992,-0.2983398,-0.1279297
1046,5.625,19.9375,-24.75,1.98877,0.6811523,0.1674805,-0.1791992,-0.3017578,-0.125
1050,4.75,50.4375,-6.875,1.597656,0.5683594,0.144043,-0.1757813,-0.3017578,-0.1264648
1054,5.4375,45.125,20.875,1.287598,0.5800781,0.09423828,-0.1748047,-0.2993164,-0.1303711
1058,8.0625,17.3125,47.125,1.159668,0.5800781,0.125,-0.1772461,-0.3007813,-0.1303711
1062,10.4375,-2.875,63.125,1.26416,0.7197266,0.2094727,-0.1782227,-0.2993164,-0.1318359
1066,-1.5625,-2.0625,75.6875,1.415527,0.9140625,0.3173828,-0.1831055,-0.2944336,-0.1279297
1070,-23.1875,11,86.6875,1.523926,1.057617,0.375,-0.1899414,-0.2895508,-0.1318359
1074,-39.625,22.5,107.9375,1.458008,0.953125,0.2944336,-0.1923828,-0.2832031,-0.1289063
1078,-36.5625,12.375,134.8125,1.388184,0.8710938,0.1904297,-0.199707,-0.2768555,-0.1357422
1082,-28.1875,-0.6875,164,1.438477,0.9296875,0.159668,-0.2080078,-0.2641602,-0.1386719
1086,-22.875,-8.875,185.875,1.578125,1.034668,0.144043,-0.215332,-0.2558594,-0.1386719
1090,-20.8125,-2.5,211.1875,1.771973,1.225098,0.2133789,-0.2280273,-0.2416992,-0.1416016
1094,-37.375,21.875,239.8125,1.837891,1.450195,0.2060547,-0.2387695,-0.2246094,-0.1425781
1098,-50.625,36.625,271.375,1.686523,1.353027,0.140625,-0.2436523,-0.2094727,-0.144043
1102,-45.875,37.875,298.4375,1.585938,1.306641,0.05566406,-0.2578125,-0.1870117,-0.1484375
1106,-41.1875,33.375,311.8125,1.516113,1.380371,0.03271484,-0.2661133,-0.1591797,-0.1538086
1110,-38.5,31.5,319.375,1.550781,1.353027,0.02099609,-0.2724609,-0.1367188,-0.15625
1114,-38,36.25,326.5625,1.550781,1.32959,0.01708984,-0.2792969,-0.109375,-0.1591797
1118,-34.9375,49.3125,335.3125,1.589844,1.244141,0.03271484,-0.2817383,-0.07958984,-0.1630859
1122,-32.5,71.1875,341.25,1.566406,1.232422,0.03271484,-0.2827148,-0.06054688,-0.1660156
1127,-32.375,97.4375,346.625,1.484863,1.073242,-0.001464844,-0.2768555,-0.02832031,-0.1713867
1131,-24.0625,111.8125,347.9375,1.209961,0.956543,-0.04003906,-0.2709961,0.00390625,-0.1796875
1135,-18.875,106.3125,336.4375,1.0625,1.061523,0.02880859,-0.2636719,0.02148438,-0.1865234
1139,-42.9375,82.3125,321.75,0.9194336,1.053711,0.04785156,-0.253418,0.04882813,-0.1918945
1143,-51.75,43.625,326.8125,0.9194336,0.6694336,0.06738281,-0.2387695,0.07763672,-0.1972656
1147,-37.3125,48.3125,328.6875,1.302734,0.5605469,0.05957031,-0.2294922,0.09228516,-0.1972656
1151,-26.8125,92.625,319.6875,1.399902,0.5214844,0.05175781,-0.2138672,0.1176758,-0.1972656
1155,-19.875,137.625,310.3125,1.271973,0.6845703,0.03662109,-0.1914063,0.1401367,-0.2041016
1159,-35.0625,153.75,307.9375,1.059082,0.6845703,0.03662109,-0.1748047,0.1513672,-0.2094727
1163,-44,156.8125,317.375,0.8535156,0.4985352,-0.03222656,-0.1494141,0.1674805,-0.2163086
1167,-34.5,155.8125,325.0625,0.7294922,0.3896484,-0.03613281,-0.1186523,0.1835938,-0.2202148
1171,-41.9375,152.125,326.125,0.4155273,0.5371094,-0.04394531,-0.09863281,0.1938477,-0.2216797
1175,-53.5,129.375,315.875,0.1210938,0.4052734,-0.04394531,-0.06738281,0.2050781,-0.2216797
1179,-51.8125,107.3125,299.6875,0.07470703,0.2651367,-0.005371094,-0.03515625,0.2138672,-0.2231445
1183,-49.0625,107.875,278.1875,0.07861328,0.2651367,0.02099609,-0.01513672,0.2148438,-0.21875
1187,-56.75,112.375,272.4375,-0.2504883,0.1796875,-0.05126953,0.01269531,0.21875,-0.2163086
1191,-56.25,91.5,276.3125,-0.6806641,0.02832031,-0.128418,0.04052734,0.21875,-0.2133789
1195,-41.9375,62.375,257.5625,-1.060547,-0.06835938,-0.1669922,0.05810547,0.2172852,-0.206543
1199,-30.9375,31.8125,214.8125,-1.455566,-0.02197266,-0.1899414,0.08203125,0.2138672,-0.2055664
1203,-27.875,-11.625,161.9375,-1.843262,-0.06835938,-0.2089844,0.09619141,0.2099609,-0.2026367
1207,-23.125,-62.625,105.625,-1.916504,-0.08789063,-0.2055664,0.1044922,0.2060547,-0.2011719
1211,-14.5,-83.625,41.375,-1.691895,-0.1420898,-0.1743164,0.105957,0.2060547,-0.2041016
1215,1.8125,-77.5,-27.25,-1.381836,-0.1967773,-0.1245117,0.1020508,0.2060547,-0.2055664
1219,18,-49.625,-89.125,-1.095215,-0.1889648,-0.05517578,0.09863281,0.2075195,-0.2094727
1223,31.5625,-21.125,-139.8125,-0.9438477,-0.2314453,-0.05126953,0.08691406,0.2075195,-0.2109375
1227,48.125,-5.1875,-182.8125,-0.878418,-0.2202148,-0.03222656,0.07617188,0.2114258,-0.2133789
1231,58.0625,-3.4375,-218.1875,-0.8354492,-0.1191406,-0.02441406,0.06542969,0.2114258,-0.2133789
1235,61.6875,-18.5625,-248.9375,-0.7617188,-0.01025391,-0.01318359,0.04736328,0.2114258,-0.2216797
1239,60.6875,-42.75,-274.25,-0.5991211,0.07861328,0.03271484,0.02734375,0.2114258,-0.2231445
1243,60.0625,-72.6875,-299.5625,-0.3901367,0.1445313,0.07519531,0.008300781,0.2099609,-0.2255859
1247,56.6875,-101.4375,-303.6875,-0.02978516,0.1601563,0.04443359,-0.02001953,0.2075195,-0.2299805
1251,60.375,-106.125,-299.625,0.3999023,0.1914063,0.1132813,-0.04833984,0.2011719,-0.2353516
1256,63.4375,-94.3125,-295.5,0.5239258,0.09814453,0.06738281,-0.06738281,0.1923828,-0.2324219
1260,84.125,-104.75,-292.25,0.5239258,0.08642578,0.1098633,-0.09228516,0.1826172,-0.2353516
1264,87.3125,-128.8125,-293,0.7875977,0.3935547,0.1943359,-0.1201172,0.1674805,-0.2368164
1268,57.3125,-127.25,-292.375,1.163574,0.6499023,0.2709961,-0.1367188,0.1538086,-0.2353516
1272,32.4375,-138.625,-268.625,1.02002,0.2148438,0.140625,-0.1591797,0.1386719,-0.2338867
1276,57.5,-166.5,-244.625,1.027832,0.01660156,0.05957031,-0.1806641,0.1210938,-0.2255859
1280,73.4375,-173.4375,-237.25,1.42334,0.3310547,0.1171875,-0.1962891,0.1113281,-0.2231445
1284,67.875,-124.3125,-248.0625,1.748535,0.777832,0.3212891,-0.215332,0.09130859,-0.2177734
1288,24.375,-65.0625,-276.625,1.446289,0.7739258,0.1826172,-0.2280273,0.06982422,-0.2119141
1292,33.375,-69.625,-285.25,1.012207,0.3271484,0.1328125,-0.237793,0.05615234,-0.2109375
1296,55.125,-123.625,-268.3125,0.8769531,0.4438477,0.01708984,-0.2495117,0.03369141,-0.2041016
1300,66.3125,-178.4375,-235.8125,1.039551,0.5292969,-0.03613281,-0.2617188,0.008789063,-0.1972656
1304,76.4375,-187.6875,-238.5,1.678711,1.073242,0.2172852,-0.2700195,-0.004394531,-0.1850586
1308,20.8125,-85.3125,-278.125,2.182617,1.461914,0.2133789,-0.2807617,-0.02929688,-0.1738281
1312,-11.1875,0.4375,-294.3125,1.706055,0.777832,0.1479492,-0.2807617,-0.05322266,-0.1699219
1316,22.375,2.25,-278.125,1.16748,0.5332031,0.02490234,-0.2792969,-0.07080078,-0.1713867
1320,52.625,-29.5625,-249.9375,0.9853516,0.7158203,-0.05517578,-0.2783203,-0.09570313,-0.168457
1324,70.5,-61.375,-232,0.9423828,0.7973633,-0.1401367,-0.2744141,-0.1206055,-0.1645508
1328,97.375,-83.5625,-228.25,1.059082,0.8325195,-0.1782227,-0.2724609,-0.1357422,-0.1606445
1332,125.4375,-75.75,-245.4375,1.388184,1.154785,-0.05517578,-0.2685547,-0.1582031,-0.1494141
1336,109.4375,-15.5625,-285.875,1.791016,1.648438,0.159668,-0.2617188,-0.1855469,-0.1401367
1340,74.5625,44,-298.3125,1.686523,1.49707,0.2636719,-0.2519531,-0.2055664,-0.137207
1344,64.5625,41.5,-273.875,1.380371,1.298828,0.2905273,-0.2353516,-0.2304688,-0.1386719
1348,47.6875,-17,-218.625,1.13623,1.321777,0.2480469,-0.2211914,-0.2504883,-0.1386719
1352,11.1875,-95.3125,-152.5,1.260254,1.221191,0.2290039,-0.2128906,-0.2607422,-0.1347656
1356,-17.75,-139.75,-103.75,1.63623,0.9916992,0.1674805,-0.2089844,-0.2695313,-0.1264648
1360,-29.75,-127.1875,-75.9375,2.074219,0.7739258,0.1787109,-0.2089844,-0.2744141,-0.1196289
1364,-39.375,-70.25,-56.625,2.240723,0.6030273,0.1943359,-0.206543,-0.2753906,-0.1142578
1368,-41.125,-16.6875,-31.625,2.012207,0.3505859,0.140625,-0.206543,-0.2792969,-0.1157227
1372,-30,3.9375,-2.375,1.72168,0.1875,0.08251953,-0.2055664,-0.2807617,-0.1166992
1376,-14.3125,3.5,28,1.5625,0.1992188,0.06738281,-0.2055664,-0.2807617,-0.1181641
1380,-3.75,2.625,50.5625,1.59375,0.3623047,0.1171875,-0.2089844,-0.2753906,-0.1210938
1385,-5.3125,16.3125,65.0625,1.69043,0.5952148,0.2402344,-0.2114258,-0.2719727,-0.1210938
1389,-21.125,34.875,79.875,1.682617,0.7666016,0.2636719,-0.2128906,-0.2670898,-0.1210938
1393,-38.9375,39.875,103.9375,1.566406,0.8325195,0.2597656,-0.21875,-0.2617188,-0.1235352
1397,-52.1875,28.6875,132,1.504395,0.8520508,0.2060547,-0.2255859,-0.2519531,-0.1318359
1401,-56.8125,14.5625,159.9375,1.5625,0.840332,0.1674805,-0.2280273,-0.2456055,-0.1318359
1405,-54.5625,12,183.75,1.73291,0.9023438,0.140625,-0.2353516,-0.2294922,-0.1401367
1409,-57.25,20.6875,209.9375,1.826172,1.019043,0.1289063,-0.2460938,-0.2128906,-0.1401367
1413,-60.75,35.5,230.5,1.907715,1.135742,0.144043,-0.2543945,-0.1992188,-0.1425781
1417,-70.625,48.25,257.875,1.864746,1.240234,0.1098633,-0.2617188,-0.1791992,-0.1494141
1421,-72.75,51.5,287.25,1.802734,1.162598,0.05566406,-0.2675781,-0.1533203,-0.1577148
1425,-61.875,52.5625,309.125,1.768066,1.166504,0.02099609,-0.2724609,-0.1357422,-0.1591797
1429,-57.75,54.875,324.8125,1.744629,1.209473,0.001953125,-0.2768555,-0.1044922,-0.1660156
1433,-51.75,54.1875,337.9375,1.698242,1.182129,-0.009277344,-0.2783203,-0.07421875,-0.1728516
1437,-52.6875,57.375,353,1.768066,1.244141,0.009765625,-0.2783203,-0.05078125,-0.1728516
1441,-59.5,66.5,364.5,1.783691,1.174316,0.02880859,-0.2758789,-0.01708984,-0.1767578
1445,-53.3125,75.5,375.5,1.620605,0.9916992,-0.03613281,-0.2700195,0.01367188,-0.1806641
1449,-45.3125,71.1875,375.5,1.473633,0.9179688,-0.03613281,-0.2602539,0.03857422,-0.1865234
1453,-41.3125,73.375,382.1875,1.364746,0.793457,-0.06298828,-0.2470703,0.06884766,-0.1889648
1457,-27.6875,70.5625,380.6875,1.244629,0.6772461,-0.07080078,-0.2294922,0.09765625,-0.1928711
1461,-21.6875,76.625,370.875,1.310547,0.7973633,-0.05126953,-0.215332,0.1162109,-0.1958008
1465,-26.75,97,360.25,1.330078,0.6694336,-0.06689453,-0.1948242,0.1425781,-0.199707
1469,-9.125,131.6875,361.8125,1.341797,0.4555664,-0.109375,-0.1699219,0.1635742,-0.2041016
1473,17.3125,177.125,360.4375,1.19043,0.4399414,-0.1977539,-0.1494141,0.1738281,-0.2094727
1477,25.625,195.3125,356.875,0.6674805,0.6069336,-0.2207031,-0.1152344,0.1860352,-0.2202148
1481,19.1875,175.875,350.875,0.3496094,0.6069336,-0.1782227,-0.07568359,0.1972656,-0.2270508
1485,6.375,135.5,336.5,0.1289063,0.5488281,-0.109375,-0.05664063,0.2001953,-0.2299805
1489,0,123.3125,315.875,0.2646484,0.4399414,-0.05517578,-0.02099609,0.2036133,-0.2338867
1493,-1.875,138.8125,288.125,0.2758789,0.300293,-0.09765625,0.008300781,0.2050781,-0.2353516
1497,5.5,154,274.9375,0.02441406,0.1679688,-0.1513672,0.02978516,0.2026367,-0.2338867
1501,11.5,145.25,268.9375,-0.3706055,0.1992188,-0.1206055,0.05957031,0.1972656,-0.2353516
1505,6.1875,118.5625,259.875,-0.6186523,0.2885742,-0.03613281,0.08691406,0.1899414,-0.230957
1509,-4.5,98.625,230.3125,-0.8510742,0.2651367,0.01708984,0.1044922,0.1835938,-0.230957
1514,-9.75,95.75,182.25,-1.099121,0.203125,-0.001464844,0.125,0.1762695,-0.2270508
1518,-13.0625,81.0625,132.4375,-1.537109,0.1640625,-0.07080078,0.1416016,0.1689453,-0.2231445
1522,-8.375,52.4375,80.625,-1.78125,0.06298828,-0.1323242,0.1499023,0.1650391,-0.2216797
1526,2.125,26.0625,27.9375,-1.866211,0.02832031,-0.1435547,0.1567383,0.1625977,-0.21875
1530,10.4375,-0.75,-22.125,-1.839355,0.06689453,-0.112793,0.1582031,0.1601563,-0.2163086
1534,10.25,-21.0625,-82.375,-1.614258,0.1020508,-0.03613281,0.1547852,0.1635742,-0.21875
1538,6.625,-28.4375,-143.3125,-1.351074,0.05517578,-0.01318359,0.1499023,0.1674805,-0.2202148
1542,7.625,-34.5,-190.9375,-1.083496,-0.06054688,-0.005371094,0.1357422,0.1762695,-0.2231445
1546,16.5,-41.5,-222.0625,-0.831543,-0.1381836,-0.005371094,0.1235352,0.1801758,-0.2231445
1550,27.5,-52.5625,-238.9375,-0.6611328,-0.1655273,-0.02050781,0.105957,0.1884766,-0.2255859
1554,36.625,-75.75,-242.1875,-0.5024414,-0.1035156,0.001953125,0.08544922,0.1938477,-0.2285156
1558,35,-96.0625,-256.3125,-0.2543945,0.01269531,0.08642578,0.06982422,0.1972656,-0.2324219
1562,25.3125,-109,-275.6875,-0.002441406,0.008789063,0.09814453,0.04394531,0.2001953,-0.2338867
1566,22.625,-118.0625,-282.25,0.2451172,-0.03759766,0.105957,0.01513672,0.2011719,-0.237793
1570,16.6875,-138.5625,-269.6875,0.3378906,-0.08007813,0.05566406,-0.003417969,0.2011719,-0.2368164
1574,25.0625,-154.5625,-239.4375,0.6401367,-0.2314453,0.03662109,-0.03173828,0.1987305,-0.2368164
1578,40.1875,-141.1875,-224.5625,0.8574219,-0.09570313,0.1171875,-0.05810547,0.1923828,-0.237793
1582,35.5625,-80.625,-260.25,1.124512,0.2456055,0.2709961,-0.07324219,0.1899414,-0.2368164
1586,8.5625,-16.5625,-319.125,0.9970703,0.1367188,0.2709961,-0.09619141,0.1801758,-0.2368164
1590,18.75,-30,-319.8125,0.609375,-0.1967773,0.1904297,-0.1186523,0.1689453,-0.2368164
1594,37.5,-123.375,-271.25,0.5668945,-0.1538086,0.1518555,-0.1328125,0.1586914,-0.2338867
1598,50.125,-180,-202.375,1.023926,-0.1655273,0.04785156,-0.1542969,0.1435547,-0.2299805
1602,78.5,-169.125,-179.8125,1.426758,-0.006347656,0.159668,-0.1772461,0.1313477,-0.2246094
1606,73.625,-67.875,-244.9375,1.744629,0.6538086,0.375,-0.1875,0.1210938,-0.2216797
1610,23.875,0.4375,-299.6875,1.206055,0.3701172,0.2636719,-0.2021484,0.1025391,-0.2231445
1614,37.625,-60.9375,-275.25,0.4970703,0.1293945,0.1787109,-0.2138672,0.08251953,-0.2231445
1618,49.5,-171.25,-226.1875,0.690918,0.2768555,0.08642578,-0.2246094,0.06884766,-0.21875
1622,53,-212.375,-187.1875,1.155762,0.2338867,-0.01660156,-0.2412109,0.05126953,-0.206543
1626,79.125,-180.1875,-193.5625,1.682617,0.4360352,0.1132813,-0.2553711,0.03271484,-0.1918945
1630,61.8125,-55.8125,-252.3125,1.977051,0.9956055,0.2368164,-0.2626953,0.01855469,-0.1875
1634,24.3125,26.3125,-283.1875,1.16748,0.6303711,0.1020508,-0.2685547,-0.003417969,-0.1865234
1638,49.0625,-16.3125,-272.0625,0.5708008,0.4438477,0.02099609,-0.2700195,-0.02832031,-0.1889648
1643,71.75,-91.1875,-250.5625,0.6791992,0.6845703,-0.04736328,-0.2685547,-0.04589844,-0.1850586
1647,82.0625,-126.6875,-240.25,1.066406,0.8051758,-0.0859375,-0.2744141,-0.07080078,-0.1767578
1651,94,-124.6875,-246.125,1.477539,1.019043,0.001953125,-0.2783203,-0.09570313,-0.1645508
1655,81.375,-82.3125,-260.75,1.830078,1.337402,0.105957,-0.2783203,-0.1132813,-0.1577148
1659,52.375,-31.0625,-269.875,1.895996,1.337402,0.1787109,-0.2744141,-0.1381836,-0.1508789
1663,38.5,-5.75,-267.25,1.655762,1.158691,0.1748047,-0.2685547,-0.1630859,-0.1469727
1667,42.375,-23.6875,-248.9375,1.484863,0.9604492,0.1982422,-0.2617188,-0.1791992,-0.1455078
1671,50.0625,-50.8125,-224.6875,1.546875,0.8710938,0.1865234,-0.253418,-0.2006836,-0.1416016
1675,46,-65,-188.9375,1.740723,0.90625,0.1826172,-0.2436523,-0.2216797,-0.1347656
1679,37.8125,-62,-136.4375,1.996582,0.7314453,0.2636719,-0.2402344,-0.2304688,-0.1303711
1683,33.8125,-29.125,-97,2.116699,0.7197266,0.3173828,-0.2353516,-0.2407227,-0.125
1687,13.125,4.4375,-62.875,1.946289,0.7392578,0.355957,-0.2319336,-0.2480469,-0.1235352
1691,-11.375,9.875,-35.3125,1.608887,0.6264648,0.3364258,-0.2280273,-0.2504883,-0.1225586
1695,-26.0625,-9.5625,-3.75,1.411621,0.4477539,0.2636719,-0.2294922,-0.2504883,-0.1264648
1699,-26.375,-22.5,19.5,1.450195,0.3388672,0.2094727,-0.2280273,-0.2504883,-0.125
1703,-24.0625,-18.6875,34.0625,1.516113,0.3466797,0.1674805,-0.2304688,-0.2480469,-0.1235352
1707,-21.0625,-6.1875,46.875,1.59375,0.3583984,0.1982422,-0.234375,-0.2441406,-0.1235352
1711,-19.875,11,59.25,1.678711,0.4477539,0.2329102,-0.234375,-0.2407227,-0.1279297
1715,-27.6875,25.375,78.5,1.666992,0.5644531,0.2329102,-0.2363281,-0.2358398,-0.1289063
1719,-34.75,30.375,102.1875,1.655762,0.6225586,0.2441406,-0.2412109,-0.2294922,-0.1318359
1723,-40.75,27.9375,125.875,1.69043,0.7041016,0.2519531,-0.2460938,-0.2192383,-0.1347656
1727,-46.125,24.875,157.6875,1.768066,0.7895508,0.2558594,-0.2495117,-0.2119141,-0.1386719
1731,-53.6875,26.375,189.75,1.794922,0.8671875,0.2250977,-0.2568359,-0.1943359,-0.1416016
1735,-59.3125,35.375,211.125,1.845703,0.90625,0.1943359,-0.2626953,-0.1782227,-0.1469727
1739,-60.625,46.8125,228.625,1.864746,0.9335938,0.1674805,-0.2675781,-0.1630859,-0.1508789
1743,-64.6875,52.0625,246.3125,1.864746,0.9916992,0.1210938,-0.2724609,-0.140625,-0.15625
1747,-65.5625,54.75,270.125,1.888184,1.015137,0.1098633,-0.2758789,-0.1166992,-0.1616211
1751,-67.6875,60.3125,291.75,1.876465,1.030762,0.07519531,-0.2783203,-0.09960938,-0.1660156
1755,-62.375,57.6875,309,1.794922,0.953125,0.06347656,-0.2792969,-0.06835938,-0.1738281
1759,-53.5,54.3125,329.8125,1.845703,0.9296875,0.04443359,-0.2783203,-0.03955078,-0.1767578
1763,-50.3125,60.8125,340.5,1.830078,0.9760742,0.07128906,-0.2758789,-0.01806641,-0.1782227
1767,-49.125,77.8125,345.3125,1.783691,0.8867188,0.04052734,-0.2685547,0.01269531,-0.1835938
1772,-46.25,99.6875,340,1.628418,0.8598633,0.01367188,-0.2553711,0.04394531,-0.1889648
1776,-36.25,119.4375,341.4375,1.523926,0.5913086,-0.05908203,-0.2485352,0.06103516,-0.1928711
1780,-21.9375,132.625,339.8125,1.252441,0.6655273,-0.06298828,-0.2294922,0.08740234,-0.2011719
1784,-28.5,118.875,333.1875,1.101563,0.777832,-0.01318359,-0.2089844,0.1123047,-0.206543
1788,-44.25,97.125,334.8125,1.05127,0.6923828,-0.005371094,-0.1948242,0.1264648,-0.2109375
1792,-41.4375,95.875,331.9375,1.287598,0.4477539,-0.001464844,-0.1723633,0.1474609,-0.2133789
1796,-28.3125,131.5625,338.75,1.213867,0.4125977,-0.0859375,-0.1474609,0.1660156,-0.21875
1800,-10.625,146.25,341.4375,1.016113,0.2416992,-0.1552734,-0.128418,0.1772461,-0.2202148
1804,10.25,160.6875,345.25,0.8652344,0.4399414,-0.1362305,-0.09619141,0.1884766,-0.2255859
1808,8.25,179.8125,332.8125,0.7529297,0.5644531,-0.08203125,-0.06298828,0.1962891,-0.230957
1812,-8.25,203.625,305.875,0.4541016,0.6381836,-0.1054688,-0.04003906,0.2001953,-0.2353516
1816,-19.625,218.625,281.4375,0.1484375,0.4165039,-0.2167969,-0.004394531,0.2026367,-0.237793
1820,-14.5,210.9375,267.375,-0.2773438,0.3041992,-0.2592773,0.03076172,0.2001953,-0.2338867
1824,-11.5625,175.8125,256.875,-0.5834961,0.3120117,-0.2436523,0.05322266,0.1987305,-0.2324219
1828,-20.875,136.25,236.1875,-0.878418,0.3388672,-0.2055664,0.08203125,0.1938477,-0.2285156
1832,-31.1875,94.4375,204,-1.125977,0.2885742,-0.128418,0.105957,0.1899414,-0.2255859
1836,-46,55.75,162.5,-1.416992,0.269043,-0.1323242,0.1176758,0.1850586,-0.2202148
1840,-54.6875,1.375,120.75,-1.680176,0.1020508,-0.1206055,0.1308594,0.1811523,-0.2177734
1844,-47.5,-36.4375,76.625,-1.603027,-0.01025391,-0.128418,0.1367188,0.1811523,-0.2133789
1848,-30.0625,-46.625,28.125,-1.455566,-0.1230469,-0.1245117,0.1401367,0.1801758,-0.2119141
1852,-7.5625,-32.5,-27.6875,-1.277344,-0.1347656,-0.08984375,0.1367188,0.1787109,-0.2119141
1856,7.9375,-10.625,-86.8125,-1.191895,-0.1308594,-0.0859375,0.1333008,0.1835938,-0.2148438
1860,20.8125,-4.375,-135.75,-1.149414,-0.1967773,-0.08984375,0.1269531,0.1860352,-0.2148438
1864,34.5,-11.1875,-175.0625,-1.029297,-0.1967773,-0.09765625,0.1166992,0.1899414,-0.2163086
1868,44.4375,-25.625,-205.8125,-0.8896484,-0.1967773,-0.07470703,0.09960938,0.1962891,-0.21875
1872,50.625,-44.875,-230.8125,-0.6572266,-0.1191406,-0.02832031,0.09130859,0.1962891,-0.2216797
1876,52.9375,-64.9375,-250.75,-0.4404297,-0.09960938,0.01367188,0.06884766,0.2001953,-0.2285156
1880,56,-82.125,-264.125,-0.1689453,-0.07226563,0.01367188,0.04492188,0.2026367,-0.2324219
1884,60.0625,-86.6875,-271.3125,0.1210938,-0.05664063,0.04785156,0.02978516,0.2026367,-0.2324219
1888,67.6875,-88.1875,-267.9375,0.3110352,-0.1230469,0.06738281,0.004394531,0.2011719,-0.2392578
1892,80.8125,-92.125,-258.5625,0.4077148,-0.1269531,0.1098633,-0.02001953,0.1948242,-0.2421875
1896,83.5625,-113.1875,-253.9375,0.4619141,0.004882813,0.1713867,-0.03662109,0.1899414,-0.2446289
1901,77.1875,-121.1875,-239.5625,0.7177734,0.08251953,0.1904297,-0.06298828,0.1801758,-0.2490234
1905,63.625,-107.875,-263.8125,0.7797852,0.1875,0.2827148,-0.08544922,0.1689453,-0.2529297
1909,55.3125,-99.5625,-269.75,0.8496094,0.05908203,0.2250977,-0.1010742,0.1611328,-0.25
1913,62.25,-127.5625,-260.5,0.7294922,-0.03369141,0.2441406,-0.1235352,0.1489258,-0.25
1917,70.5625,-176.875,-218.125,0.8183594,0.008789063,0.1557617,-0.1450195,0.1323242,-0.2460938
1921,58.625,-213.0625,-209.125,1.0625,0.4438477,0.3056641,-0.1616211,0.1264648,-0.2421875
1925,18,-188.75,-230.75,1.492676,0.6845703,0.355957,-0.1865234,0.1088867,-0.2338867
1929,-9.125,-121,-266.1875,1.546875,0.3544922,0.2368164,-0.206543,0.09521484,-0.2231445
1933,17.375,-61.9375,-288.875,1.326172,0.05908203,0.1518555,-0.2172852,0.08105469,-0.2202148
1937,42,-49,-280.6875,0.9814453,0.2768555,0.1328125,-0.2280273,0.06103516,-0.2163086
1941,37.4375,-96.75,-260.9375,0.659668,0.6264648,0.1518555,-0.2387695,0.04003906,-0.2148438
1945,16.5625,-160.5625,-252.5,0.9077148,0.855957,0.1518555,-0.2485352,0.02490234,-0.2080078
1949,-3.375,-165.1875,-263.25,1.442383,0.8012695,0.144043,-0.2617188,0.004882813,-0.1958008
1953,2.5,-104.3125,-274.875,1.810547,0.5878906,0.1210938,-0.2709961,-0.01708984,-0.1835938
1957,31.9375,-26.6875,-271.6875,1.740723,0.4165039,0.1098633,-0.2744141,-0.03173828,-0.1796875
1961,65.5,13.6875,-253.375,1.233398,0.5292969,0.03271484,-0.2758789,-0.05566406,-0.1796875
1965,83.125,-11.4375,-239.6875,0.7060547,0.840332,-0.005371094,-0.2724609,-0.08203125,-0.1782227
1969,87.625,-75.6875,-237,0.5708008,1.116211,-0.01318359,-0.2709961,-0.09814453,-0.1782227
1973,72.375,-107.5,-270.9375,1.175293,1.527832,0.1289063,-0.2709961,-0.1220703,-0.1674805
1977,42.4375,-82.375,-296.1875,1.59375,1.450195,0.1748047,-0.2685547,-0.1479492,-0.1606445
1981,47.8125,-55.5625,-299.8125,1.647949,1.162598,0.1982422,-0.2617188,-0.1655273,-0.1538086
1985,66.8125,-46.375,-277.3125,1.605469,1.084961,0.1787109,-0.2553711,-0.1943359,-0.1469727
1989,76,-55.375,-237.75,1.492676,1.116211,0.1479492,-0.2436523,-0.2167969,-0.1416016
1993,74,-64.25,-212.75,1.527832,1.124023,0.1713867,-0.2363281,-0.2304688,-0.137207
1997,70.1875,-59,-204.8125,1.589844,1.092773,0.1787109,-0.2294922,-0.2480469,-0.1279297
2001,54.5,-37.875,-207.8125,1.647949,1.146973,0.1865234,-0.2163086,-0.2670898,-0.1196289
2005,22.125,-34.875,-165.375,1.589844,1.12793,0.2094727,-0.2089844,-0.2768555,-0.1166992
2009,-10.9375,-48.0625,-93.1875,1.717773,0.7895508,0.2983398,-0.199707,-0.2880859,-0.1142578
2013,-20.8125,-37.75,-39.125,1.826172,0.5683594,0.3134766,-0.1972656,-0.2919922,-0.1098633
2017,-32.6875,-18.75,-11.5,1.779785,0.5722656,0.2368164,-0.1962891,-0.2905273,-0.1113281
2021,-37.1875,-8.625,7.25,1.678711,0.4672852,0.1518555,-0.1962891,-0.2905273,-0.112793
2025,-25.5,-5.875,34,1.682617,0.4282227,0.1210938,-0.1972656,-0.2866211,-0.1157227
2030,-14.125,0.8125,68.4375,1.756348,0.5566406,0.144043,-0.199707,-0.2856445,-0.1157227
2034,-13.3125,18.125,101.3125,1.768066,0.7587891,0.1982422,-0.2045898,-0.2817383,-0.1166992
2038,-21.4375,32.875,124.5625,1.69043,0.9414063,0.2368164,-0.2128906,-0.2719727,-0.1210938
2042,-35.5,34.8125,147.125,1.5625,1.022949,0.2021484,-0.2172852,-0.265625,-0.1225586
2046,-41.375,26.3125,171.625,1.558594,1.034668,0.1865234,-0.2246094,-0.2543945,-0.1279297
2050,-47.0625,17.4375,200.25,1.539551,1.112305,0.1328125,-0.2353516,-0.2368164,-0.1303711
2054,-47.4375,1.625,229,1.585938,1.131836,0.1171875,-0.2412109,-0.2270508,-0.1333008
2058,-52.875,-5.25,254.25,1.740723,1.333496,0.125,-0.2553711,-0.2055664,-0.1347656
2062,-61.375,4.5625,277.5625,1.876465,1.368652,0.1020508,-0.2661133,-0.1821289,-0.137207
2066,-65.6875,22.9375,298.1875,1.903809,1.372559,0.04443359,-0.2734375,-0.1645508,-0.1386719
2070,-62.5,37.5,325.1875,1.864746,1.283203,-0.01318359,-0.2792969,-0.1342773,-0.1425781
2074,-46.75,50.8125,351.8125,1.818359,1.193848,-0.06298828,-0.2866211,-0.1030273,-0.1455078
2078,-29.8125,60.5,364,1.674805,1.228516,-0.09765625,-0.2890625,-0.08056641,-0.1523438
2082,-25,66.375,364.3125,1.612793,1.283203,-0.06689453,-0.2890625,-0.046875,-0.15625
2086,-29.75,87.8125,356,1.686523,1.32959,-0.01318359,-0.2841797,-0.01464844,-0.1606445
2090,-38.1875,115.125,347.5625,1.574219,1.100586,-0.06689453,-0.2768555,0.008789063,-0.1674805
2094,-24.3125,135.0625,358.375,1.419434,0.8129883,-0.128418,-0.2651367,0.04003906,-0.1767578
2098,-2.375,153.125,365.0625,1.302734,0.7705078,-0.1323242,-0.2509766,0.06738281,-0.1865234
2102,-0.1875,165.1875,353.1875,1.09375,0.9760742,-0.1166992,-0.237793,0.08398438,-0.1928711
2106,-15.6875,166.3125,345.5,1.085938,1.007324,-0.009277344,-0.2138672,0.1088867,-0.206543
2110,-45.375,171.625,331.0625,0.9931641,0.9140625,-0.03222656,-0.1875,0.1298828,-0.2163086
2114,-48.3125,173.25,333.625,0.9311523,0.6108398,-0.04736328,-0.168457,0.1459961,-0.21875
2118,-49.125,159.125,328.0625,0.7294922,0.4672852,-0.05908203,-0.1411133,0.1650391,-0.2255859
2122,-41.375,126.6875,349.6875,0.4775391,0.3271484,-0.07861328,-0.1103516,0.1801758,-0.2285156
2126,-28.125,91.4375,346.375,0.5668945,0.237793,0.009765625,-0.09130859,0.1884766,-0.2285156
2130,-18.3125,103.9375,335.9375,0.7490234,0.3583984,-0.009277344,-0.06054688,0.1987305,-0.2324219
2134,-21.1875,142.4375,305.9375,0.8691406,0.3544922,0.005859375,-0.02929688,0.2036133,-0.2338867
2138,-26,197.1875,301.3125,0.6132813,0.315918,-0.1743164,-0.0078125,0.2050781,-0.2324219
2142,-14.5625,213.9375,312.9375,0.1210938,0.1835938,-0.2631836,0.02832031,0.2050781,-0.2324219
2146,-1.125,196,316.5,-0.4091797,0.237793,-0.2861328,0.06542969,0.2026367,-0.2299805
2150,-3.125,159.9375,289.9375,-0.9555664,0.3466797,-0.2436523,0.08789063,0.1948242,-0.2231445
2154,-22.3125,105.25,241.4375,-1.428223,0.4243164,-0.1591797,0.1176758,0.1860352,-0.2231445
2159,-47.6875,32.8125,189.9375,-1.75,0.3271484,-0.1166992,0.1357422,0.1787109,-0.2148438
2163,-61.1875,-25.3125,140.4375,-1.843262,0.1953125,-0.1362305,0.144043,0.1748047,-0.2148438
2167,-59.125,-62.125,93,-1.738281,0.04394531,-0.1821289,0.1508789,0.1713867,-0.2109375
2171,-38.5625,-64.0625,42.6875,-1.567871,-0.05664063,-0.2016602,0.1547852,0.1699219,-0.2109375
2175,-7.9375,-40.8125,-29.3125,-1.428223,-0.08789063,-0.1166992,0.1523438,0.1713867,-0.2109375
2179,7.5625,-16.3125,-100.4375,-1.381836,0.01269531,-0.07861328,0.1450195,0.1738281,-0.2119141
2183,15.125,-13.6875,-154.4375,-1.319824,-0.06835938,-0.07080078,0.1367188,0.1801758,-0.2148438
2187,23.75,-27.75,-192.875,-1.184082,-0.06445313,-0.08203125,0.1308594,0.1835938,-0.2163086
2191,27.5,-49.6875,-221.0625,-0.9907227,-0.03369141,-0.07861328,0.1118164,0.1923828,-0.21875
2195,30.75,-66.875,-250.25,-0.7075195,-0.01416016,-0.05908203,0.09130859,0.1972656,-0.2216797
2199,35.5625,-79.375,-269.625,-0.4052734,-0.04541016,-0.05517578,0.07617188,0.2011719,-0.2246094
2203,44.125,-81.4375,-277.8125,-0.09130859,-0.02587891,-0.03222656,0.05078125,0.2050781,-0.2270508
2207,53.5,-80.75,-280.6875,0.03564453,-0.06054688,-0.04394531,0.0234375,0.2060547,-0.230957
2211,68.25,-91.875,-283.125,0.07470703,0.0009765625,0.01367188,0.008300781,0.2036133,-0.2353516
2215,58.25,-121.9375,-289.5,0.1713867,0.3081055,0.1098633,-0.01855469,0.1987305,-0.237793
2219,27.5,-140.3125,-297.25,0.6479492,0.5761719,0.2866211,-0.04980469,0.1948242,-0.2392578
2223,-7.8125,-117.25,-329.125,0.9541016,0.3623047,0.2519531,-0.06884766,0.1899414,-0.2353516
2227,5.5,-96.0625,-330.8125,1.000488,-0.1308594,0.1210938,-0.09863281,0.1811523,-0.2324219
2231,55.9375,-101.1875,-298.75,0.9116211,-0.387207,0.005859375,-0.1259766,0.1689453,-0.230957
2235,98.9375,-121.0625,-246.6875,0.8652344,-0.002441406,0.07128906,-0.1401367,0.1577148,-0.2299805
2239,88.125,-133.125,-250.5625,1.124512,0.8984375,0.3828125,-0.1625977,0.1401367,-0.2299805
2243,10.625,-127,-304.6875,1.217773,0.9604492,0.3291016,-0.1831055,0.1201172,-0.2270508
2247,3.3125,-159,-311.375,1.147949,0.2729492,0.1787109,-0.1972656,0.1088867,-0.21875
2251,28,-180.3125,-284.5625,1.458008,0.21875,0.01708984,-0.2197266,0.08886719,-0.2119141
2255,57.75,-169.25,-242.4375,1.5625,0.1796875,0.009765625,-0.2387695,0.06982422,-0.1987305
2259,63.1875,-140.5,-231.375,1.5625,0.7119141,0.105957,-0.2495117,0.05615234,-0.1918945
2263,40.75,-119.25,-236.5,1.426758,0.90625,0.1479492,-0.2626953,0.03369141,-0.1821289
2267,9.875,-104.9375,-251.25,1.380371,0.9492188,0.06738281,-0.2724609,0.01367188,-0.175293
2271,9.125,-98.5,-259.875,1.260254,0.5991211,-0.02050781,-0.2768555,0,-0.1674805
2275,35.625,-94.25,-265.25,1.368652,0.6069336,-0.0859375,-0.2841797,-0.0234375,-0.1616211
2279,60.8125,-79.5625,-256.1875,1.407715,0.6459961,-0.1362305,-0.2875977,-0.04833984,-0.1538086
2283,83.25,-78.6875,-244.25,1.388184,0.7817383,-0.1552734,-0.2890625,-0.06591797,-0.1494141
2288,96.6875,-79.0625,-231.9375,1.46582,0.9492188,-0.1552734,-0.2900391,-0.09179688,-0.1416016
2292,100.0625,-63.8125,-227.5625,1.647949,1.162598,-0.05908203,-0.2900391,-0.1157227,-0.1347656
2296,81.8125,-22.5625,-244.3125,1.802734,1.255859,0.05957031,-0.2851563,-0.1308594,-0.1279297
2300,70.6875,9,-249.625,1.640137,0.9956055,0.07519531,-0.2783203,-0.1557617,-0.1264648
2304,82.9375,3.625,-237,1.353516,0.8442383,0.06738281,-0.2709961,-0.1791992,-0.1235352
2308,91.375,-33,-216.25,1.202148,0.8945313,0.02880859,-0.2661133,-0.1958008,-0.1225586
2312,82,-70.8125,-190.875,1.380371,0.987793,0.03271484,-0.2553711,-0.2158203,-0.1142578
2316,56.125,-76.625,-167.375,1.810547,0.9492188,0.1479492,-0.2485352,-0.2329102,-0.1044922
2320,30.0625,-46.5625,-161,2.070313,0.8051758,0.2866211,-0.2436523,-0.2416992,-0.1005859
2324,3.8125,-22.375,-141.375,2.023926,0.6733398,0.3364258,-0.2363281,-0.2543945,-0.09375
2328,-23.5,-25.375,-92.125,1.950195,0.5136719,0.2788086,-0.2280273,-0.2631836,-0.09667969
2332,-35,-38.125,-25.0625,1.942383,0.2963867,0.2211914,-0.2255859,-0.2670898,-0.09375
2336,-24.5,-31.25,29.375,2.035156,0.21875,0.2060547,-0.2280273,-0.265625,-0.09228516
2340,-11,1.125,59.75,1.996582,0.3505859,0.1787109,-0.2294922,-0.2641602,-0.09521484
2344,-6.6875,29.1875,76.125,1.806641,0.4946289,0.1748047,-0.2329102,-0.2607422,-0.09375
2348,-10.6875,44.75,90.6875,1.717773,0.6655273,0.2094727,-0.2363281,-0.2529297,-0.09765625
2352,-26.25,47.125,111.5,1.605469,0.8168945,0.2133789,-0.2412109,-0.2441406,-0.1005859
2356,-43.3125,35.875,139.125,1.543457,0.8984375,0.1904297,-0.2446289,-0.2382813,-0.1044922
2360,-57.1875,21.125,169.4375,1.574219,0.9140625,0.1635742,-0.2509766,-0.2270508,-0.1088867
2364,-64.25,13.5625,195.9375,1.663574,0.972168,0.1020508,-0.2592773,-0.2080078,-0.1142578
2368,-71.875,19.4375,215.3125,1.783691,0.9995117,0.05175781,-0.2661133,-0.1967773,-0.1157227
2372,-69.0625,35.8125,235.125,1.837891,0.972168,-0.02050781,-0.2734375,-0.1757813,-0.1210938
2376,-62.9375,57.625,250.375,1.903809,1.04248,-0.03613281,-0.2817383,-0.1518555,-0.1289063
2380,-63.25,73.125,271.375,1.756348,1.038574,-0.112793,-0.2851563,-0.1357422,-0.1333008
2384,-54.1875,69.6875,293.6875,1.666992,1.022949,-0.09765625,-0.2875977,-0.1083984,-0.1401367
2388,-48.6875,72,306.125,1.698242,1.084961,-0.06298828,-0.2900391,-0.078125,-0.1469727
2392,-53.75,77.4375,309,1.608887,1.131836,-0.07080078,-0.2890625,-0.05810547,-0.1508789
2396,-56.1875,63.875,318.4375,1.469727,0.9643555,-0.08984375,-0.2866211,-0.02929688,-0.1577148
2400,-48.75,57.8125,329.875,1.659668,0.840332,-0.05908203,-0.2841797,0.001464844,-0.1616211
2404,-37.625,84.5,339.8125,1.674805,0.7739258,-0.112793,-0.2744141,0.02148438,-0.1645508
2408,-23.8125,104.1875,336.4375,1.508301,0.6147461,-0.1630859,-0.2661133,0.05126953,-0.1699219
2412,-10.625,117.1875,330.6875,1.395996,0.7431641,-0.0859375,-0.2509766,0.08007813,-0.1796875
2417,-15.625,132.25,308.5,1.395996,0.7001953,-0.09765625,-0.237793,0.09521484,-0.1865234
2421,-15,140.8125,308.6875,1.225586,0.5449219,-0.1323242,-0.2172852,0.1162109,-0.1918945
2425,-13.6875,130.1875,316.8125,1.078125,0.5566406,-0.09765625,-0.1948242,0.1376953,-0.2011719
2429,-10.3125,124.0625,327.3125,1.043457,0.3583984,-0.1401367,-0.1816406,0.1499023,-0.2041016
2433,3.4375,113.9375,336.3125,0.9501953,0.3081055,-0.1054688,-0.1542969,0.1660156,-0.2133789
2437,13.1875,122.625,342.5,0.9814453,0.4516602,-0.07861328,-0.1245117,0.1801758,-0.21875
2441,2.0625,142.5625,318.8125,0.8613281,0.4282227,-0.06298828,-0.1054688,0.1899414,-0.2231445
2445,0.6875,174,303.25,0.7099609,0.3349609,-0.1245117,-0.07470703,0.1972656,-0.2285156
2449,-5.625,176.0625,292.5,0.2529297,0.2807617,-0.1474609,-0.04492188,0.2026367,-0.2324219
2453,-1.8125,145.875,284.5,0.09375,0.171875,-0.08984375,-0.02246094,0.2050781,-0.2324219
2457,-1.3125,126.4375,282.25,0.05126953,0.140625,-0.09765625,0.009277344,0.2026367,-0.2338867
2461,-1.9375,114.9375,285.375,-0.1186523,0.1757813,-0.05908203,0.03808594,0.2036133,-0.2338867
2465,-11.125,115.1875,261.6875,-0.2661133,0.3310547,0.02099609,0.05712891,0.1987305,-0.2324219
2469,-29.625,129.8125,216.3125,-0.5644531,0.2148438,-0.05908203,0.08203125,0.1923828,-0.2255859
2473,-32,120.3125,174.8125,-1.048828,0.05517578,-0.09375,0.1035156,0.1899414,-0.2255859
2477,-24.125,86.9375,137.9375,-1.366211,0.02050781,-0.09765625,0.1166992,0.1875,-0.21875
2481,-27.375,39.75,110.8125,-1.703613,0.07861328,-0.09765625,0.1308594,0.1811523,-0.2163086
2485,-28,-8.25,75.375,-1.742188,0.06689453,-0.05517578,0.1391602,0.1787109,-0.2119141
2489,-22.25,-28.3125,20,-1.637695,-0.02978516,-0.05517578,0.1416016,0.1787109,-0.2133789
2493,-5.75,-23.75,-47.6875,-1.455566,-0.09570313,-0.02050781,0.1401367,0.1801758,-0.2133789
2497,7.375,-9.4375,-113.125,-1.285156,-0.1152344,-0.02050781,0.1342773,0.1835938,-0.2094727
2501,20.625,-8.125,-157.3125,-1.161133,-0.1381836,-0.02050781,0.1269531,0.1860352,-0.2148438
2505,28.9375,-20.875,-185.25,-1.052734,-0.1381836,-0.04003906,0.1142578,0.1923828,-0.2163086
2509,37.375,-35.875,-210.125,-0.8588867,-0.09960938,-0.04394531,0.09765625,0.1972656,-0.2177734
2513,42.5,-43.0625,-238.4375,-0.6728516,-0.04150391,-0.04394531,0.08544922,0.2001953,-0.2202148
2517,47.75,-47.8125,-269.1875,-0.5214844,0.02441406,-0.01660156,0.06542969,0.2026367,-0.2255859
2521,47.3125,-65.5625,-293.9375,-0.4555664,0.09814453,-0.001464844,0.0390625,0.2060547,-0.2270508
2525,42.25,-101.1875,-300.5625,-0.215332,0.1367188,0.001953125,0.02246094,0.2050781,-0.2299805
2529,41.3125,-130.875,-283.6875,0.190918,0.04736328,-0.06298828,-0.005859375,0.2050781,-0.2338867
2533,58.8125,-132.0625,-262.375,0.5161133,-0.07617188,-0.03222656,-0.03662109,0.2011719,-0.2338867
2537,73.6875,-120.8125,-265.1875,0.6982422,0.09814453,0.04785156,-0.05419922,0.1938477,-0.2368164
2541,65.4375,-111.625,-275.25,0.6982422,0.3505859,0.1713867,-0.07958984,0.1835938,-0.2392578
2546,44.3125,-119.125,-287.375,0.6870117,0.3193359,0.1210938,-0.1054688,0.1723633,-0.2368164
2550,42.75,-145,-280.0625,0.5859375,0.1914063,0.02880859,-0.1210938,0.1635742,-0.2368164
2554,51.5,-186.125,-266.6875,0.6518555,0.2070313,-0.05126953,-0.1484375,0.1499023,-0.2324219
2558,59,-205.625,-256.875,0.9892578,0.4672852,-0.02441406,-0.1723633,0.1337891,-0.2255859
2562,40.5625,-161.25,-289.9375,1.554688,0.9375,0.159668,-0.1914063,0.1210938,-0.21875
2566,-17.4375,-96.0625,-334.9375,1.341797,1.057617,0.1132813,-0.2128906,0.1000977,-0.2080078
2570,-33.0625,-144.375,-353.1875,0.8881836,0.6733398,0.01367188,-0.2304688,0.08105469,-0.2011719
2574,-22,-214.625,-331.875,1.407715,0.5952148,-0.1401367,-0.2436523,0.06640625,-0.1918945
2578,0.875,-201.5,-283.25,2.194336,0.4321289,-0.1206055,-0.2636719,0.04150391,-0.1767578
2582,39.6875,-112.5625,-248.6875,2.353027,0.4907227,-0.07470703,-0.2768555,0.01757813,-0.1630859
2586,60.5,-31.9375,-260.1875,1.954102,0.840332,0.02880859,-0.2817383,0.002441406,-0.1591797
2590,45.125,3.1875,-281.3125,1.411621,1.104492,-0.02050781,-0.2851563,-0.0234375,-0.1591797
2594,36.8125,-29.3125,-285.5,1.012207,0.9257813,-0.06689453,-0.2866211,-0.05078125,-0.1591797
2598,51.3125,-75.0625,-272.6875,1.171387,0.9179688,-0.07080078,-0.2866211,-0.06689453,-0.15625
2602,65.375,-89.1875,-261.125,1.446289,0.953125,-0.09375,-0.2866211,-0.09179688,-0.1494141
2606,88.625,-73.625,-256,1.582031,0.921875,-0.08984375,-0.2851563,-0.1196289,-0.1401367
2610,108.25,-55.375,-255.3125,1.624512,1.073242,-0.05126953,-0.2817383,-0.1357422,-0.1357422
2614,111.4375,-22.625,-270.25,1.760254,1.263672,0.1289063,-0.2744141,-0.1621094,-0.1279297
2618,94,15.625,-288.5,1.644043,1.236328,0.2211914,-0.2661133,-0.1918945,-0.1235352
2622,87.1875,14.9375,-281.6875,1.368652,1.131836,0.2211914,-0.2543945,-0.2094727,-0.1210938
2626,67.8125,-34.6875,-231.375,1.225586,1.150879,0.1787109,-0.2436523,-0.2329102,-0.1196289
2630,39.8125,-93.4375,-154.625,1.419434,1.057617,0.1982422,-0.2319336,-0.2519531,-0.1113281
2634,16.875,-101.3125,-95.375,1.798828,0.8442383,0.1943359,-0.2294922,-0.2583008,-0.1035156
2638,7.8125,-56.375,-68.0625,2.023926,0.6577148,0.1635742,-0.2280273,-0.2641602,-0.09765625
2642,1.8125,0.3125,-62.625,1.849121,0.6108398,0.105957,-0.222168,-0.2695313,-0.09521484
2646,-6,19.1875,-52.1875,1.500488,0.4672852,0.04443359,-0.2197266,-0.2729492,-0.09375
2650,-2.25,6.25,-24.0625,1.364746,0.3818359,0.009765625,-0.2172852,-0.2768555,-0.09667969
2654,4.125,-8.4375,9.4375,1.454102,0.3701172,0.04052734,-0.2172852,-0.2768555,-0.09667969
2658,9.375,-2.1875,31.3125,1.570313,0.4790039,0.09033203,-0.2172852,-0.2768555,-0.09521484
2662,3.25,10.875,43.875,1.550781,0.6147461,0.1328125,-0.2211914,-0.2729492,-0.09521484
2666,-6.625,20.6875,56.1875,1.527832,0.6303711,0.1289063,-0.222168,-0.2705078,-0.09521484
2670,-11.9375,27.625,74.25,1.554688,0.6499023,0.1367188,-0.2246094,-0.2670898,-0.09765625
2675,-16.125,39.75,89,1.644043,0.6962891,0.1328125,-0.2280273,-0.2617188,-0.1020508
2679,-19.5,50.75,103.75,1.682617,0.7548828,0.125,-0.234375,-0.2529297,-0.1074219
2683,-24.375,54.5,129.625,1.736816,0.8129883,0.1132813,-0.2353516,-0.2470703,-0.105957
2687,-26.4375,51.0625,170.8125,1.76416,0.9179688,0.07519531,-0.2412109,-0.2358398,-0.1142578
2691,-31.375,38.9375,210.375,1.810547,1.030762,0.07519531,-0.2519531,-0.2192383,-0.1166992
2695,-36.4375,39.5,242.4375,1.98877,1.209473,0.07519531,-0.2578125,-0.2080078,-0.1235352
2699,-46.125,50.3125,269.0625,2.058594,1.259766,0.04052734,-0.2685547,-0.1855469,-0.1279297
2703,-51.5625,68.625,290.8125,2.089844,1.32959,-0.02832031,-0.2758789,-0.1606445,-0.1347656
2707,-54.125,88.8125,310.625,2.027832,1.341309,-0.09765625,-0.2807617,-0.1396484,-0.137207
2711,-54.75,86.6875,338.5625,1.810547,1.263672,-0.1513672,-0.2841797,-0.1118164,-0.1484375
2715,-45.5625,70.5625,363.1875,1.725586,1.221191,-0.1708984,-0.2851563,-0.078125,-0.1538086
2719,-36.0625,64.5,382.8125,1.709961,1.084961,-0.1669922,-0.2851563,-0.05566406,-0.1591797
2723,-21.9375,81.375,377.8125,1.760254,1.084961,-0.1245117,-0.2841797,-0.02197266,-0.1645508
2727,-20.9375,122.5625,355.8125,1.756348,1.150879,-0.1054688,-0.2744141,0.01123047,-0.1738281
2731,-23.5625,141.5625,342.4375,1.411621,1.015137,-0.1669922,-0.2651367,0.03369141,-0.1782227
2735,-22.9375,112.8125,353.1875,1.078125,0.8867188,-0.1708984,-0.2495117,0.06005859,-0.1889648
2739,-20.6875,76.125,370.875,1.128418,0.8129883,-0.112793,-0.234375,0.08886719,-0.1943359
2743,-20.75,61.5625,377.25,1.268066,0.7041016,-0.112793,-0.222168,0.1088867,-0.1943359
2747,-12.125,84.5,374.5,1.399902,0.6225586,-0.1362305,-0.203125,0.1337891,-0.199707
2751,5,132.0625,361.6875,1.337891,0.5952148,-0.1782227,-0.1757813,0.1547852,-0.2055664
2755,1.875,158.875,335.625,1.000488,0.7001953,-0.1860352,-0.1582031,0.1650391,-0.2094727
2759,-0.3125,162.375,328.9375,0.7954102,0.5605469,-0.2055664,-0.1269531,0.1801758,-0.2177734
2763,10.5625,162.625,332.75,0.7875977,0.3779297,-0.2324219,-0.09472656,0.1923828,-0.2255859
2767,23.625,173.5,333.1875,0.6518555,0.4399414,-0.2324219,-0.07226563,0.1972656,-0.2285156
2771,18.875,187.6875,322.125,0.4541016,0.6342773,-0.1669922,-0.03662109,0.1987305,-0.2338867
2775,2.9375,188.8125,305,0.1328125,0.4829102,-0.1821289,-0.004394531,0.1987305,-0.2392578
2779,1.875,180.4375,287.125,-0.07617188,0.3662109,-0.1630859,0.01904297,0.2011719,-0.237793
2783,4.5625,175,271,-0.246582,0.284668,-0.1821289,0.05322266,0.1962891,-0.237793
2787,-3.75,157.125,260.125,-0.7426758,0.3466797,-0.1435547,0.08300781,0.1884766,-0.2338867
2791,-15.4375,104.125,247.3125,-1.296875,0.300293,-0.1591797,0.1020508,0.1850586,-0.2299805
2795,-22.375,40.0625,215.375,-1.591309,0.2573242,-0.08984375,0.125,0.1762695,-0.2270508
2799,-30.75,5.25,163.625,-1.695801,0.2612305,-0.07080078,0.1391602,0.1674805,-0.2255859
2804,-29.5625,-12.625,98.4375,-1.87793,0.171875,-0.06298828,0.144043,0.1650391,-0.2231445
2808,-12.9375,-21.125,28.9375,-1.908691,0.05126953,-0.07470703,0.1508789,0.1635742,-0.2216797
2812,7.5,-23.375,-44.75,-1.796387,0.03222656,-0.04394531,0.1484375,0.1635742,-0.2246094
2816,18.375,-21.5,-116.3125,-1.541016,0.07080078,-0.001464844,0.1450195,0.1650391,-0.2255859
2820,19.5,-27.0625,-167.6875,-1.304199,0.04736328,0.02099609,0.1342773,0.1699219,-0.2255859
2824,18.3125,-41.6875,-204.5625,-1.083496,0.03613281,0.03662109,0.1186523,0.1762695,-0.2285156
2828,15.3125,-58.5625,-233.25,-0.8354492,0.0009765625,0.04052734,0.1079102,0.1826172,-0.230957
2832,13.3125,-74.4375,-255.625,-0.5991211,-0.01416016,0.05175781,0.08691406,0.1875,-0.2338867
2836,12.6875,-88,-273.5625,-0.3432617,-0.03369141,0.05957031,0.06152344,0.1948242,-0.2324219
2840,13.4375,-95.25,-282.9375,-0.09912109,-0.04882813,0.06347656,0.04492188,0.1987305,-0.2368164
2844,18,-99.125,-283.1875,0.1367188,-0.02587891,0.09814453,0.01757813,0.2011719,-0.237793
2848,16.25,-95.625,-287.25,0.3032227,0.03613281,0.1098633,-0.009277344,0.2001953,-0.237793
2852,16.875,-93.25,-283.6875,0.4116211,-0.05664063,0.08642578,-0.02685547,0.1987305,-0.2407227
2856,23.75,-114.125,-273.125,0.3149414,-0.09570313,0.02490234,-0.05419922,0.1938477,-0.237793
2860,37,-153.875,-256,0.5048828,-0.1035156,-0.005371094,-0.07958984,0.1860352,-0.2368164
2864,39.75,-156.75,-254.625,0.8496094,0.1523438,0.06738281,-0.09863281,0.1811523,-0.2338867
2868,32.0625,-114.875,-276.3125,1.194336,0.21875,0.1132813,-0.1235352,0.1689453,-0.2299805
2872,14.875,-83.4375,-297.875,0.8457031,0.3041992,0.08642578,-0.1474609,0.1547852,-0.2299805
2876,10.1875,-127.375,-296.375,0.644043,0.1914063,0.009765625,-0.1616211,0.1450195,-0.2246094
2880,14.0625,-182.9375,-270.5625,0.9658203,0.1679688,-0.09765625,-0.184082,0.1298828,-0.21875
2884,34.5,-187.125,-229.1875,1.345703,0.1098633,-0.112793,-0.206543,0.1123047,-0.2094727
2888,56.6875,-160.125,-228.8125,1.299316,0.3857422,-0.06298828,-0.2211914,0.1010742,-0.199707
2892,42.5625,-124.9375,-267.5625,1.330078,0.9760742,0.08642578,-0.237793,0.08105469,-0.1928711
2896,-20.1875,-118.375,-308.125,1.13623,1.069336,-0.005371094,-0.2519531,0.06005859,-0.1835938
2900,-23.9375,-135.3125,-304.625,1.403809,0.5332031,-0.112793,-0.2617188,0.04492188,-0.1782227
2904,4.625,-119.5,-278.5,1.771973,0.4125977,-0.1513672,-0.2758789,0.02001953,-0.1674805
2908,45.75,-68.4375,-253.1875,1.744629,0.4125977,-0.1630859,-0.2817383,-0.003417969,-0.1616211
2912,81.6875,-42.5625,-250.375,1.299316,0.6420898,-0.1977539,-0.2875977,-0.01708984,-0.1577148
2916,79,-40.75,-281.375,1.248535,1.349121,-0.02050781,-0.2875977,-0.046875,-0.15625
2920,26.125,-46.75,-306.8125,1.241211,1.481445,-0.04394531,-0.2875977,-0.07568359,-0.1523438
2924,14.625,-68.8125,-307.125,1.353516,1.124023,-0.06298828,-0.2866211,-0.09423828,-0.1494141
2928,32.8125,-67.9375,-302.125,1.644043,1.09668,-0.0859375,-0.2841797,-0.1220703,-0.1416016
2933,48.4375,-43.125,-293,1.775879,1.120117,-0.07861328,-0.2792969,-0.1494141,-0.137207
2937,64.6875,-19.3125,-279.3125,1.73291,1.100586,-0.112793,-0.2724609,-0.1679688,-0.1333008
2941,64,-23.6875,-255.4375,1.461914,1.197754,-0.1323242,-0.2617188,-0.1933594,-0.1303711
2945,45.8125,-53.8125,-242.3125,1.500488,1.368652,0.01367188,-0.2519531,-0.2143555,-0.1235352
2949,6.5,-70.25,-232.3125,1.674805,1.283203,0.09814453,-0.2446289,-0.2294922,-0.1196289
2953,-15.5,-90.9375,-205.875,1.837891,0.9838867,0.1674805,-0.2353516,-0.2456055,-0.1142578
2957,-28.125,-107.5,-155.375,1.958008,0.7001953,0.1518555,-0.2255859,-0.2607422,-0.1098633
2961,-26.4375,-102.75,-102.3125,2.046875,0.4438477,0.1171875,-0.2236328,-0.2670898,-0.1035156
2965,-15.8125,-72.875,-55.75,2.085938,0.3120117,0.09814453,-0.2197266,-0.2729492,-0.1005859
2969,-5.1875,-27.625,-16.3125,1.984863,0.284668,0.1210938,-0.21875,-0.2744141,-0.09521484
2973,5.875,6,13.25,1.709961,0.3232422,0.1328125,-0.2197266,-0.2744141,-0.09667969
2977,11.1875,18.625,32.5,1.46582,0.4125977,0.140625,-0.2197266,-0.2744141,-0.09765625
2981,9.1875,22.75,43.9375,1.372559,0.5175781,0.1748047,-0.222168,-0.2719727,-0.09667969
2985,4.4375,25.0625,56.6875,1.372559,0.5605469,0.1982422,-0.2246094,-0.2680664,-0.09521484
2989,-0.0625,29.9375,69.625,1.403809,0.6577148,0.1943359,-0.2255859,-0.265625,-0.09765625
2993,-9.6875,38.375,82.1875,1.442383,0.7666016,0.1713867,-0.2304688,-0.2592773,-0.1005859
2997,-21.5625,41.625,95.1875,1.469727,0.8364258,0.1713867,-0.234375,-0.2519531,-0.1044922
3001,-34.75,44.1875,107.5625,1.612793,0.9101563,0.1674805,-0.2363281,-0.2470703,-0.1074219
3005,-45.9375,44.0625,127.9375,1.768066,0.9453125,0.144043,-0.2426758,-0.2358398,-0.1142578
3009,-54.5625,36.1875,169.5,1.818359,0.987793,0.06347656,-0.2470703,-0.2270508,-0.1166992
3013,-56.3125,8.4375,230.1875,1.922852,1.019043,0.04052734,-0.2553711,-0.2104492,-0.1235352
3017,-53,4.125,282.125,2.170898,1.143066,-0.02050781,-0.2661133,-0.1894531,-0.125
3021,-48.8125,29.5625,315,2.310547,1.291016,-0.05517578,-0.2734375,-0.1704102,-0.1279297
3025,-49.0625,66.8125,323.8125,2.260254,1.418945,-0.128418,-0.2817383,-0.1396484,-0.1318359
3029,-49.0625,96.1875,334.25,2.093262,1.376465,-0.1938477,-0.2875977,-0.1118164,-0.1401367
3033,-37.8125,94.9375,352.625,1.888184,1.294922,-0.2324219,-0.2900391,-0.08691406,-0.1425781
3037,-28.875,84.125,384.25,1.787598,1.225098,-0.2397461,-0.2875977,-0.0546875,-0.1538086
3041,-11.75,85.5,406.375,1.775879,1.061523,-0.2089844,-0.2841797,-0.01953125,-0.1606445
3045,8,117.4375,404.375,1.779785,1.084961,-0.1782227,-0.2768555,0.004882813,-0.1660156
3049,12.625,162.8125,379.5625,1.666992,1.174316,-0.1630859,-0.2661133,0.03759766,-0.1782227
3053,-0.625,188.8125,368.625,1.372559,1.12793,-0.1860352,-0.2485352,0.06640625,-0.1904297
3057,-15.5625,175.9375,372.3125,0.9970703,0.987793,-0.1630859,-0.2319336,0.08398438,-0.199707
3062,-27.5,141.4375,379.5,0.8803711,0.824707,-0.1323242,-0.2089844,0.1113281,-0.2080078
3066,-38.8125,105.75,379.4375,0.8149414,0.7470703,-0.109375,-0.1831055,0.1362305,-0.2163086
3070,-38.3125,89.0625,379.5,0.9038086,0.5605469,-0.1015625,-0.1665039,0.1499023,-0.2163086
3074,-28.375,90.5,377.5,0.8999023,0.3544922,-0.1513672,-0.1401367,0.1713867,-0.2202148
3078,-3.4375,106.3125,371.25,0.8496094,0.3041992,-0.1669922,-0.109375,0.1860352,-0.2231445
3082,8.625,114,357.375,0.7099609,0.3583984,-0.1630859,-0.09033203,0.1938477,-0.2255859
3086,15.8125,126.9375,349.1875,0.6328125,0.3505859,-0.1591797,-0.05566406,0.2001953,-0.2324219
3090,27,139.3125,343.5625,0.4311523,0.2768555,-0.1782227,-0.02001953,0.2026367,-0.230957
3094,36.5625,140.1875,324.25,0.2568359,0.2807617,-0.1245117,0,0.2026367,-0.2368164
3098,43.3125,149.625,306.4375,0.175293,0.269043,-0.128418,0.03320313,0.1962891,-0.2392578
3102,48.75,163,282.6875,0.01660156,0.2924805,-0.09375,0.06640625,0.1884766,-0.2407227
3106,44.125,176.5,257.75,-0.296875,0.3466797,-0.1206055,0.08544922,0.1811523,-0.2436523
3110,34.5,170.5,232.9375,-0.6728516,0.2768555,-0.1474609,0.1152344,0.1689453,-0.2392578
3114,28.5625,127.6875,208.1875,-1.312012,0.3349609,-0.1054688,0.1376953,0.1586914,-0.2353516
3118,9.5625,61.375,175.9375,-1.703613,0.4399414,-0.05126953,0.1533203,0.1513672,-0.2338867
3122,-17.75,6.125,123.25,-1.870117,0.4946289,0.03271484,0.1640625,0.1411133,-0.2324219
3126,-39.8125,-39.4375,63.6875,-1.924316,0.3662109,0.02490234,0.1699219,0.1362305,-0.2324219
3130,-44.25,-62.3125,-4.6875,-1.723145,0.1679688,0.01367188,0.1689453,0.1386719,-0.2299805
3134,-30.1875,-64.25,-67.9375,-1.471191,0.05517578,0.01367188,0.1640625,0.1425781,-0.2324219
3138,-13,-50.625,-124.8125,-1.195801,-0.02587891,0.04785156,0.1557617,0.1459961,-0.2324219
3142,1.5625,-37.125,-171.875,-1.044922,-0.06054688,0.04785156,0.1474609,0.1538086,-0.2353516
3146,13.3125,-36.1875,-209.125,-0.9594727,-0.1191406,0.04443359,0.1333008,0.1635742,-0.237793
3150,22.125,-46.625,-237.5,-0.8432617,-0.1269531,0.02880859,0.1152344,0.1699219,-0.237793
3154,26.3125,-65.75,-258.75,-0.715332,-0.1074219,0.03271484,0.1035156,0.1748047,-0.2407227
3158,22.75,-91.5,-275.0625,-0.5371094,-0.04882813,0.09423828,0.08203125,0.1811523,-0.2446289
3162,11.8125,-123,-278.6875,-0.2387695,0.01269531,0.159668,0.05566406,0.1850586,-0.2475586
3166,-7.875,-148.9375,-275.625,0.1015625,0.01660156,0.1674805,0.03564453,0.1899414,-0.2490234
3170,-17.5625,-149.1875,-252.25,0.6362305,-0.2509766,0.1479492,0.006835938,0.1923828,-0.2460938
3174,8.25,-126,-225.75,0.8574219,-0.5581055,0.1367188,-0.02099609,0.1923828,-0.2436523
3178,36.125,-93.9375,-218.875,0.8071289,-0.5151367,0.1904297,-0.03662109,0.1914063,-0.2446289
3182,40.0625,-83.6875,-233.375,0.625,-0.2275391,0.2094727,-0.05810547,0.1835938,-0.2460938
3186,24.0625,-108.625,-240.125,0.4853516,0.01660156,0.3291016,-0.07714844,0.1762695,-0.2460938
3191,-1.3125,-149.875,-234.9375,0.7177734,0.0009765625,0.2558594,-0.09472656,0.1713867,-0.2436523
3195,-12.3125,-160.1875,-222.6875,1.055176,-0.1152344,0.1904297,-0.1186523,0.1650391,-0.2368164
3199,1.3125,-134.5625,-205.875,1.241211,-0.3208008,0.09423828,-0.1411133,0.15625,-0.2299805
3203,38.1875,-90.5625,-203.6875,1.186523,-0.2900391,0.08251953,-0.1542969,0.1489258,-0.2246094
3207,50.75,-35.375,-240.125,1.039551,0.2299805,0.1943359,-0.168457,0.1376953,-0.2246094
3211,31.8125,-21.6875,-277.875,0.6674805,0.3271484,0.144043,-0.1855469,0.1201172,-0.2255859
3215,18.875,-71.5625,-277.1875,0.4038086,0.4013672,0.1132813,-0.1938477,0.1064453,-0.2270508
3219,-10.3125,-164.5,-252.125,0.5898438,0.5839844,0.1132813,-0.2114258,0.09130859,-0.2202148
3223,-42.8125,-205.125,-239.25,1.330078,0.6342773,0.01708984,-0.2280273,0.07617188,-0.206543
3227,-49.5,-144.4375,-249.1875,1.938477,0.3081055,-0.04394531,-0.2426758,0.06738281,-0.1958008
3231,-11.0625,-45.3125,-268.5625,1.89209,0.01660156,-0.128418,-0.2578125,0.04882813,-0.1865234
3235,32.25,10.1875,-277.9375,1.241211,0.2338867,-0.1591797,-0.2636719,0.02636719,-0.1835938
3239,52.125,-8.0625,-284.5,0.7529297,0.5019531,-0.1591797,-0.2651367,0.01025391,-0.1875
3243,52.6875,-62.75,-301.5,0.6210938,0.8286133,-0.1245117,-0.2700195,-0.01708984,-0.1850586
3247,44.5625,-102.1875,-326.6875,0.9853516,1.026855,-0.07861328,-0.2744141,-0.04443359,-0.1796875
3251,37.0625,-101,-343.6875,1.357422,1.04248,-0.04736328,-0.2768555,-0.06591797,-0.1738281
3255,48.3125,-85.75,-347.1875,1.546875,0.9682617,0.005859375,-0.2783203,-0.09716797,-0.1660156
3259,62.4375,-66.1875,-336.6875,1.597656,1.104492,0.05566406,-0.2734375,-0.1279297,-0.1591797
3263,65.8125,-44,-332.4375,1.597656,1.255859,0.1210938,-0.2685547,-0.1508789,-0.1547852
3267,59.25,-26.9375,-329.1875,1.438477,1.279297,0.1098633,-0.2578125,-0.1806641,-0.1494141
3271,58.5625,-29.8125,-322.3125,1.283691,1.236328,0.1020508,-0.2460938,-0.2094727,-0.1455078
3275,62.25,-46.375,-318.375,1.217773,1.228516,0.04443359,-0.2353516,-0.2280273,-0.1416016
3279,71.125,-66.1875,-302.5625,1.260254,1.20166,0.01708984,-0.2197266,-0.2529297,-0.1347656
3283,76.1875,-86.1875,-280.75,1.473633,1.228516,0.07519531,-0.2045898,-0.2744141,-0.125
3287,68.5,-85.5625,-245.75,1.833984,1.248047,0.1865234,-0.1948242,-0.2880859,-0.1196289
3291,48.3125,-62.875,-185.125,2.124512,1.186035,0.355957,-0.1791992,-0.3056641,-0.1113281
3295,8.5625,-37.0625,-99.8125,2.229004,1.13916,0.4326172,-0.1699219,-0.3168945,-0.1035156
3299,-21.5625,-16.25,-25.25,2.186523,0.8710938,0.3671875,-0.1665039,-0.3193359,-0.1035156
3303,-24.3125,4.8125,22.375,2.093262,0.7001953,0.2519531,-0.1665039,-0.3168945,-0.105957
3307,-17.375,24.4375,56.0625,1.950195,0.6499023,0.1635742,-0.1699219,-0.3168945,-0.105957
3311,-8.8125,26.6875,97.4375,1.756348,0.7158203,0.144043,-0.1708984,-0.3095703,-0.1088867
3315,-4.9375,20.25,135.5625,1.674805,0.9101563,0.1557617,-0.1791992,-0.3056641,-0.112793
3320,-11.6875,12,170.1875,1.601563,1.104492,0.1557617,-0.1889648,-0.2954102,-0.112793
3324,-24.625,2.875,201.5,1.597656,1.314453,0.159668,-0.1982422,-0.2866211,-0.1142578
3328,-43.875,2.75,224.375,1.616699,1.39209,0.09423828,-0.2114258,-0.2744141,-0.112793
3332,-51.3125,6.8125,245.6875,1.63623,1.325684,0.005859375,-0.2255859,-0.2568359,-0.1181641
3336,-44.875,17.125,264.5625,1.717773,1.321777,-0.06689453,-0.2353516,-0.2416992,-0.1196289
3340,-37.5625,36.0625,285.75,1.756348,1.403809,-0.112793,-0.2485352,-0.2207031,-0.1235352
3344,-33.875,48.75,308.75,1.678711,1.469727,-0.1743164,-0.2617188,-0.1933594,-0.1289063
3348,-31.1875,43.4375,326.0625,1.546875,1.55127,-0.2089844,-0.2685547,-0.1757813,-0.1318359
3352,-32.3125,30.5,341.0625,1.546875,1.562988,-0.2089844,-0.2792969,-0.1479492,-0.137207
3356,-30.5,26.6875,359.5625,1.589844,1.450195,-0.2055664,-0.2866211,-0.1157227,-0.137207
3360,-19.5,35.0625,369.6875,1.647949,1.291016,-0.2167969,-0.2915039,-0.09082031,-0.1401367
3364,-6.125,54.3125,376.9375,1.59375,1.221191,-0.2475586,-0.2924805,-0.05712891,-0.1425781
3368,3.0625,75.5,378.0625,1.516113,1.209473,-0.2324219,-0.2915039,-0.0234375,-0.1455078
3372,2.3125,95.3125,379.875,1.364746,1.124023,-0.2705078,-0.2875977,-0.0004882813,-0.1494141
3376,8,107.125,371.6875,1.241211,0.9799805,-0.2514648,-0.2758789,0.03125,-0.1616211
3380,12.125,128,360.9375,1.206055,1.034668,-0.2514648,-0.2626953,0.0625,-0.1674805
3384,13.625,152.6875,352.5,1.140137,0.8671875,-0.2705078,-0.2509766,0.08105469,-0.175293
3388,19.8125,161.1875,359.875,0.9077148,0.6923828,-0.2978516,-0.2294922,0.1049805,-0.1889648
3392,28.375,160.625,355.25,0.7954102,0.7626953,-0.2363281,-0.206543,0.1264648,-0.2011719
3396,24.4375,168.5625,337.6875,0.7758789,0.7353516,-0.2167969,-0.1875,0.1386719,-0.206543
3400,13.9375,168.625,319.3125,0.6054688,0.6381836,-0.1860352,-0.1601563,0.15625,-0.2177734
3404,8.375,162.375,322.0625,0.574707,0.4750977,-0.1513672,-0.1303711,0.1699219,-0.2270508
3408,9.875,166.875,325.0625,0.5473633,0.3701172,-0.1669922,-0.109375,0.1787109,-0.2324219
3412,11.6875,178.6875,315.3125,0.3652344,0.4052734,-0.1552734,-0.078125,0.1860352,-0.2392578
3416,2.875,169.6875,302,0.05517578,0.3544922,-0.1513672,-0.04492188,0.1914063,-0.2436523
3420,-0.375,142.0625,290.625,-0.08398438,0.1835938,-0.06298828,-0.02246094,0.1948242,-0.2460938
3424,-3.875,136.8125,284.6875,-0.1689453,0.1484375,-0.07470703,0.008300781,0.1948242,-0.2446289
3428,-5.4375,136.5625,269.1875,-0.378418,0.1098633,-0.009277344,0.03662109,0.1914063,-0.2460938
3432,-15.375,136.75,241.25,-0.6376953,0.1137695,-0.01660156,0.05566406,0.1875,-0.2436523
3436,-17.1875,104.5625,213.0625,-1.149414,-0.09179688,-0.02441406,0.08300781,0.1835938,-0.2421875
3440,-12.125,67.3125,171.4375,-1.40918,-0.09179688,0.04052734,0.09960938,0.1811523,-0.2392578
3444,-18,26.8125,122.4375,-1.614258,-0.05664063,0.06347656,0.109375,0.1748047,-0.2368164
3449,-18.9375,-4.6875,65.5625,-1.603027,-0.1655273,0.1171875,0.1201172,0.1713867,-0.2353516
3453,-11.6875,-22.5,12.3125,-1.45166,-0.1967773,0.144043,0.1210938,0.1713867,-0.2353516
3457,-8.8125,-18,-43.6875,-1.15332,-0.1889648,0.1982422,0.1186523,0.1723633,-0.2338867
3461,-6.875,-6.1875,-88.9375,-0.9985352,-0.3056641,0.1904297,0.1142578,0.1762695,-0.2338867
3465,-0.4375,-3.5,-125.1875,-0.8706055,-0.3793945,0.2094727,0.1069336,0.1801758,-0.2338867
3469,3.6875,-11.1875,-152.25,-0.765625,-0.4375,0.2094727,0.1020508,0.1826172,-0.2324219
3473,5.1875,-25.625,-164.9375,-0.6108398,-0.402832,0.2211914,0.08789063,0.1875,-0.2324219
3477,1.5,-32.0625,-171.9375,-0.4790039,-0.387207,0.1904297,0.07470703,0.1923828,-0.2368164
3481,2.875,-39.8125,-184.3125,-0.4790039,-0.4101563,0.1826172,0.06542969,0.1948242,-0.2338867
3485,6.0625,-59.625,-203.6875,-0.4208984,-0.324707,0.2021484,0.04882813,0.1987305,-0.2353516
3489,-1.1875,-78.125,-217.9375,-0.2080078,-0.2314453,0.1943359,0.02832031,0.2026367,-0.2368164
3493,-6.25,-84.5,-226.9375,0.02441406,-0.2705078,0.1943359,0.01269531,0.2050781,-0.237793
3497,0.6875,-75.9375,-229,0.1713867,-0.3325195,0.1171875,-0.009277344,0.2050781,-0.2368164
3501,17.9375,-70.6875,-235.375,0.1289063,-0.3520508,0.09033203,-0.02929688,0.2011719,-0.2338867
3505,35.0625,-83.9375,-234.6875,-0.01806641,-0.2084961,0.06738281,-0.04394531,0.2001953,-0.2338867
3509,25.8125,-139.6875,-250.8125,0.02050781,0.15625,0.1787109,-0.06738281,0.1923828,-0.2353516
3513,-7.875,-171.5625,-249.6875,0.4077148,0.2416992,0.09423828,-0.09619141,0.1860352,-0.2324219
3517,-21.1875,-168.625,-244.0625,0.7602539,0.04394531,0.04443359,-0.112793,0.1811523,-0.2246094
3521,-5.4375,-130.75,-231,0.9462891,-0.2084961,-0.001464844,-0.1401367,0.1723633,-0.2177734
3525,30.625,-102.625,-225.25,0.7255859,-0.2314453,-0.06689453,-0.1591797,0.1625977,-0.2119141
3529,40.3125,-123.3125,-220.875,0.5668945,0.3935547,0.05957031,-0.1699219,0.1538086,-0.2109375
3533,-14.0625,-136,-233.875,0.9541016,0.956543,0.1904297,-0.1914063,0.1386719,-0.2041016
3537,-71.625,-109,-261.3125,1.213867,0.5097656,0.04443359,-0.2089844,0.1274414,-0.1958008
3541,-47.375,-80,-277.0625,1.237305,-0.03759766,-0.03613281,-0.2211914,0.1162109,-0.1889648
3545,8.125,-61.75,-268.0625,1.155762,-0.09570313,-0.07080078,-0.2363281,0.1010742,-0.1806641
3549,43.5625,-84,-230.125,1.012207,0.1293945,-0.07470703,-0.2509766,0.08007813,-0.1767578
3553,61.8125,-113.1875,-203,0.9697266,0.4633789,-0.04003906,-0.2578125,0.06884766,-0.1738281
3557,53.8125,-106.9375,-230.9375,1.438477,0.9760742,0.125,-0.2675781,0.04736328,-0.1660156
3561,4.5625,-14.25,-302.5,1.89209,1.32959,0.1210938,-0.2758789,0.02490234,-0.1616211
3565,-19.8125,51.1875,-343.0625,1.318359,0.6962891,-0.04736328,-0.2807617,0.006347656,-0.1630859
3569,31.3125,20.75,-337.6875,0.8574219,0.5175781,-0.109375,-0.2807617,-0.0234375,-0.1674805
3573,67.1875,-39.8125,-307.9375,0.8730469,0.9799805,-0.1435547,-0.2807617,-0.05175781,-0.168457
3578,78.6875,-80.5625,-298.375,1.089844,1.186035,-0.1860352,-0.2807617,-0.07421875,-0.1630859
3582,97.0625,-90.4375,-315.125,1.469727,1.298828,-0.1630859,-0.2792969,-0.1030273,-0.1577148
3586,105.125,-64.9375,-350.5625,1.783691,1.535645,-0.112793,-0.2768555,-0.1367188,-0.1484375
3590,98.1875,-34.0625,-387.0625,1.849121,1.527832,-0.05908203,-0.2700195,-0.1591797,-0.144043
3594,86.875,-42.6875,-400.5625,1.694336,1.500488,-0.001464844,-0.2568359,-0.1967773,-0.1386719
3598,54.5,-110.5625,-368.6875,1.686523,1.442383,-0.02441406,-0.2402344,-0.2304688,-0.1289063
3602,27.25,-186.875,-284.0625,2.174805,1.092773,0.001953125,-0.2319336,-0.2504883,-0.1210938
3606,4.6875,-189.625,-139.75,2.883789,0.8632813,0.05566406,-0.2197266,-0.2670898,-0.1074219
3610,-6.5625,-104.0625,-18.4375,3.050781,0.4477539,0.1674805,-0.2197266,-0.2744141,-0.09521484
3614,16.6875,7.0625,28.3125,2.496582,0.3896484,0.1328125,-0.2211914,-0.2729492,-0.09375
3618,21.5,66.875,30.1875,1.798828,0.5332031,0.06738281,-0.2236328,-0.2729492,-0.09228516
3622,14.5625,71.875,34.625,1.318359,0.5136719,0.06738281,-0.222168,-0.2680664,-0.09765625
3626,13.1875,43.3125,46.875,1.159668,0.4790039,0.125,-0.2236328,-0.2680664,-0.1005859
3630,5.75,16.3125,64.5625,1.241211,0.6303711,0.1865234,-0.2255859,-0.265625,-0.1005859
3634,-12.875,-4.25,85.9375,1.357422,0.7236328,0.2172852,-0.2294922,-0.2592773,-0.1020508
3638,-29.375,-3.875,94.6875,1.605469,0.8325195,0.2368164,-0.2329102,-0.2558594,-0.1020508
3642,-50.4375,10.5625,103.6875,1.748535,0.875,0.1635742,-0.2402344,-0.2470703,-0.1035156
3646,-56.6875,22.4375,126.3125,1.768066,0.8012695,0.07910156,-0.2446289,-0.2358398,-0.1088867
3650,-55.5,19.375,164.5,1.694336,0.8442383,-0.005371094,-0.2495117,-0.2280273,-0.1098633
3654,-52.75,4.3125,205.1875,1.736816,0.8598633,-0.04003906,-0.2578125,-0.2119141,-0.1142578
3658,-46.375,-4.5625,242.625,1.853027,0.90625,-0.0859375,-0.2685547,-0.1918945,-0.1157227
3662,-38.5,4.125,271,2.012207,1.030762,-0.1245117,-0.2758789,-0.1767578,-0.112793
3666,-38.375,29.9375,287.125,2.070313,1.150879,-0.1782227,-0.2841797,-0.1494141,-0.1181641
3670,-36.8125,49.3125,309.8125,1.973145,1.124023,-0.2089844,-0.2915039,-0.1230469,-0.1210938
3674,-31.0625,51.5,337.625,1.791016,1.069336,-0.2822266,-0.2949219,-0.1030273,-0.1279297
3678,-17.25,45.6875,361.0625,1.725586,1.003418,-0.2861328,-0.2983398,-0.06933594,-0.1318359
3682,-8.1875,54.25,368.125,1.706055,1.019043,-0.2592773,-0.2958984,-0.03710938,-0.1333008
3686,0.6875,70.8125,366.5625,1.582031,0.9375,-0.2285156,-0.2973633,-0.01318359,-0.1386719
3690,3.375,83.5625,349.625,1.469727,0.8945313,-0.2167969,-0.2875977,0.01855469,-0.1425781
3694,3.625,104.125,345.875,1.415527,0.793457,-0.1552734,-0.2768555,0.04882813,-0.1538086
3698,-3.125,106.4375,344.25,1.078125,0.7705078,-0.1977539,-0.2661133,0.06884766,-0.1577148
3702,0.8125,86.4375,347.8125,1.016113,0.4750977,-0.1977539,-0.2495117,0.09521484,-0.1645508
3707,17.5625,77.8125,346.5,1.047363,0.3662109,-0.1782227,-0.2319336,0.1201172,-0.1699219
3711,31.875,89.625,345.75,1.074219,0.4013672,-0.1474609,-0.2172852,0.1362305,-0.175293
3715,34,110.0625,323.1875,1.113281,0.4165039,-0.1015625,-0.1938477,0.15625,-0.1821289
3719,28.3125,146.4375,305.625,1.179199,0.5253906,-0.04394531,-0.168457,0.1723633,-0.1904297
3723,3,178.125,294.4375,0.9311523,0.4594727,-0.112793,-0.1533203,0.1826172,-0.1987305
3727,0.8125,160.75,314.75,0.5087891,0.08251953,-0.1708984,-0.1235352,0.1938477,-0.2080078
3731,23.4375,116.375,335.0625,0.3188477,0.0009765625,-0.109375,-0.09130859,0.2036133,-0.2119141
3735,39.5625,94.1875,327.4375,0.3808594,0.07470703,-0.03613281,-0.07128906,0.2075195,-0.21875
3739,48.5,109.3125,299.8125,0.4658203,0.1333008,-0.001464844,-0.04248047,0.2114258,-0.2231445
3743,44.1875,137.9375,254.25,0.3769531,0.15625,0.04052734,-0.01171875,0.2099609,-0.2285156
3747,24.6875,142.9375,232.75,0.03955078,0.1333008,0.04052734,0.006835938,0.2060547,-0.2285156
3751,11.5625,100.0625,250,-0.2504883,-0.02978516,0.04443359,0.03076172,0.2050781,-0.2324219
3755,14.25,64.5625,268.1875,-0.262207,-0.08789063,0.09033203,0.05712891,0.1972656,-0.2324219
3759,20.125,59,265.9375,-0.3432617,-0.01416016,0.144043,0.07226563,0.1938477,-0.2353516
3763,25.0625,85.25,227.5625,-0.5756836,0.08642578,0.1479492,0.09619141,0.1850586,-0.2324219
3767,30.875,113.0625,162.125,-1.106934,0.07080078,0.09423828,0.1142578,0.1772461,-0.2338867
3771,35,99.625,102.375,-1.668457,0.1254883,0.02880859,0.1269531,0.1723633,-0.230957
3775,31.9375,47.9375,60.1875,-1.95166,0.2299805,0.04052734,0.1391602,0.1635742,-0.2299805
3779,18.5625,-5.1875,19.375,-1.901367,0.3427734,0.09814453,0.1425781,0.1601563,-0.230957
3783,-3.0625,-31.75,-42.625,-1.691895,0.3701172,0.1557617,0.1425781,0.1601563,-0.2324219
3787,-29.0625,-37.125,-121.5625,-1.459473,0.2729492,0.1289063,0.1357422,0.1650391,-0.2353516
3791,-35.25,-45.3125,-178.8125,-1.199707,0.08251953,0.03662109,0.1235352,0.1723633,-0.2324219
3795,-26.25,-51.4375,-213.375,-0.8818359,-0.02978516,-0.02832031,0.1142578,0.1787109,-0.2299805
3799,-12.3125,-52,-233.3125,-0.6147461,-0.09179688,-0.05126953,0.09619141,0.1875,-0.230957
3803,2.8125,-57.875,-240.125,-0.5102539,-0.1191406,-0.06298828,0.07470703,0.1972656,-0.2299805
3807,11.6875,-73.4375,-247.9375,-0.3706055,-0.03759766,-0.02441406,0.05957031,0.2001953,-0.230957
3811,12.4375,-76.5625,-269,-0.1108398,0.008789063,0.001953125,0.03564453,0.2036133,-0.2338867
3815,14.0625,-72.4375,-301.4375,0.05517578,-0.05273438,0.02099609,0.01074219,0.2050781,-0.2338867
3819,18,-89.875,-313.5625,0.1367188,-0.08398438,0.03662109,-0.009277344,0.2026367,-0.2324219
3823,16.25,-149.3125,-280.9375,0.4077148,-0.1928711,-0.02050781,-0.03662109,0.2011719,-0.2324219
3827,25.625,-180.8125,-218.4375,0.9814453,-0.2626953,0.005859375,-0.06640625,0.1962891,-0.230957
3831,41.8125,-124.1875,-222.8125,1.508301,-0.1347656,0.1479492,-0.08300781,0.1914063,-0.2299805
3836,50.5,-15.5,-287.0625,1.42334,-0.2084961,0.1557617,-0.1030273,0.1811523,-0.2299805
3840,74.625,13.5,-320.8125,0.9077148,-0.3364258,0.2250977,-0.1235352,0.1674805,-0.2338867
3844,81.625,-57.25,-286.8125,0.7255859,-0.09179688,0.2519531,-0.1352539,0.1523438,-0.2368164
3848,52.5625,-165.3125,-191.1875,0.8071289,0.01660156,0.1865234,-0.1557617,0.1376953,-0.2353516
3852,42.8125,-217.5,-137.875,1.260254,-0.04150391,0.159668,-0.1748047,0.1264648,-0.2285156
3856,42.25,-157.9375,-173.125,1.694336,0.1679688,0.2675781,-0.1899414,0.1186523,-0.2231445
3860,31.9375,-33.8125,-253.125,1.628418,0.3120117,0.2983398,-0.2055664,0.1049805,-0.2163086
3864,19.4375,-6.9375,-290.4375,0.9077148,0.1757813,0.2172852,-0.2163086,0.08496094,-0.2177734
3868,16.4375,-99.3125,-264,0.4931641,0.3583984,0.1787109,-0.2246094,0.07275391,-0.2177734
3872,-6.625,-208.5,-217.625,1.012207,0.4555664,0.1020508,-0.2387695,0.05517578,-0.2080078
3876,-15.25,-216.1875,-186.125,1.736816,0.2612305,0.02099609,-0.2543945,0.04003906,-0.1904297
3880,0.9375,-153.9375,-190.875,2.008301,0.2729492,0.04785156,-0.2651367,0.03027344,-0.1806641
3884,-3.125,-79.4375,-215.8125,1.849121,0.5253906,0.05175781,-0.2744141,0.01513672,-0.1699219
3888,-19.8125,-54.5625,-224.125,1.357422,0.4790039,-0.01660156,-0.2807617,-0.003417969,-0.1616211
3892,-25.75,-81.375,-211.9375,1.074219,0.4711914,-0.112793,-0.2827148,-0.015625,-0.1616211
3896,-20.875,-105.375,-200.4375,1.144043,0.4438477,-0.1591797,-0.2866211,-0.03466797,-0.1538086
3900,-5.3125,-95.9375,-203.3125,1.302734,0.4282227,-0.1860352,-0.2924805,-0.04931641,-0.1425781
3904,16.125,-66.8125,-217.3125,1.29541,0.4711914,-0.1899414,-0.293457,-0.06298828,-0.1386719
3908,37.6875,-38.875,-237.875,1.229492,0.5371094,-0.1860352,-0.293457,-0.08544922,-0.1333008
3912,55.75,-18.75,-259.4375,1.113281,0.6459961,-0.1782227,-0.2900391,-0.1069336,-0.1318359
3916,69.1875,-19.875,-271.25,1.023926,0.7548828,-0.1435547,-0.2890625,-0.1269531,-0.1289063
3920,76.1875,-30.5625,-275.25,1.109375,0.875,-0.0859375,-0.2817383,-0.1533203,-0.1264648
3924,77.75,-39.75,-268.5,1.217773,0.9179688,-0.04003906,-0.2709961,-0.1806641,-0.1181641
3928,78.375,-48,-248.125,1.349609,0.9760742,0.009765625,-0.2675781,-0.1982422,-0.1166992
3932,67.5,-51.375,-224.3125,1.523926,1.038574,0.09033203,-0.2568359,-0.2192383,-0.1074219
3936,48.6875,-38.5,-210.375,1.670898,1.038574,0.1674805,-0.2446289,-0.2382813,-0.1005859
3940,17.375,-37.3125,-189.5,1.666992,1.061523,0.1904297,-0.2402344,-0.2495117,-0.09765625
3944,-16.3125,-61.5625,-144,1.756348,0.9179688,0.2636719,-0.2294922,-0.2631836,-0.09375
3948,-39.5625,-80.5,-99.375,2.016113,0.6499023,0.3017578,-0.2236328,-0.2719727,-0.09228516
3952,-49.0625,-84.0625,-42.8125,2.174805,0.5644531,0.2211914,-0.2211914,-0.2744141,-0.08984375
3956,-51.9375,-69.5,18.875,2.275391,0.4438477,0.1171875,-0.2211914,-0.2768555,-0.08691406
3960,-36.9375,-35.1875,67.875,2.306641,0.3662109,0.06347656,-0.2246094,-0.2719727,-0.08837891
3965,-23.3125,8,105.75,2.221191,0.4946289,0.02880859,-0.2280273,-0.265625,-0.08691406
3969,-16.5625,39.75,134.5,1.992676,0.6655273,0.01367188,-0.234375,-0.2583008,-0.08984375
3973,-19.8125,46.75,158.125,1.775879,0.8710938,-0.001464844,-0.2412109,-0.2470703,-0.09521484
3977,-29.125,36,185.375,1.702148,1.003418,0.005859375,-0.2460938,-0.2382813,-0.09667969
3981,-36.9375,27.0625,210.5,1.798828,1.081055,-0.04736328,-0.2568359,-0.2207031,-0.1020508
3985,-40.625,24.6875,239.9375,1.872559,1.104492,-0.128418,-0.2675781,-0.2006836,-0.1035156
3989,-39,25.625,266.75,1.958008,1.143066,-0.2055664,-0.2744141,-0.1879883,-0.1074219
3993,-37.625,30,294.875,1.992676,1.197754,-0.2900391,-0.2841797,-0.1621094,-0.1074219
3997,-29.6875,41.125,324.9375,2.016113,1.135742,-0.3398438,-0.2924805,-0.1333008,-0.112793
4001,-12.8125,63.9375,347.25,1.992676,1.13916,-0.359375,-0.2958984,-0.1118164,-0.1166992
4005,4.5625,92.125,355.625,1.880371,1.174316,-0.34375,-0.2983398,-0.078125,-0.1235352
4009,11.75,110.9375,355.375,1.674805,1.228516,-0.3554688,-0.2973633,-0.04589844,-0.1318359
4013,15.8125,116.375,359.1875,1.496582,1.077148,-0.3515625,-0.2949219,-0.02441406,-0.1386719
4017,25.9375,115.6875,366.5,1.376465,0.953125,-0.324707,-0.2866211,0.006347656,-0.1484375
4021,31.1875,122.75,367.1875,1.384277,0.9760742,-0.2592773,-0.2768555,0.03759766,-0.1591797
4025,33.6875,145.5,354.9375,1.29541,0.956543,-0.2592773,-0.2651367,0.05615234,-0.1660156
4029,27.4375,154.375,331.625,1.186523,0.9140625,-0.1782227,-0.2485352,0.08251953,-0.1782227
4033,12.1875,166.75,322.8125,1.031738,0.8828125,-0.1938477,-0.2280273,0.1049805,-0.1904297
4037,5.625,158.375,325,0.8803711,0.5878906,-0.1669922,-0.2128906,0.1176758,-0.1958008
4041,7.8125,143.625,329.125,0.6289063,0.5644531,-0.2128906,-0.1899414,0.1376953,-0.2094727
4045,13.5625,120.375,332.5625,0.7373047,0.4516602,-0.09765625,-0.1601563,0.15625,-0.2163086
4049,1.375,118,323.125,0.6791992,0.5292969,-0.112793,-0.1459961,0.1635742,-0.2202148
4053,-6,126.375,315.3125,0.6518555,0.3935547,-0.05908203,-0.1176758,0.1787109,-0.2255859
4057,-4.1875,135.5,305.75,0.5976563,0.1640625,-0.128418,-0.08789063,0.1884766,-0.2299805
4061,9.875,140,305.5625,0.4311523,0.09033203,-0.128418,-0.06982422,0.1938477,-0.2353516
4065,16.125,125.875,306.9375,0.2568359,0.09814453,-0.09765625,-0.04003906,0.1962891,-0.2368164
4069,18.375,109.9375,298.25,0.2294922,0.09423828,-0.04003906,-0.01025391,0.1987305,-0.2392578
4073,19.75,110.75,281,0.2993164,0.07080078,0.05957031,0.01074219,0.1987305,-0.2436523
4077,5.375,119.25,258.75,0.1987305,0.08251953,0.07910156,0.0390625,0.1938477,-0.2436523
4081,-9.75,120.9375,261,-0.03710938,0.008789063,0.06738281,0.06542969,0.1875,-0.2421875
4085,-8.875,111,274.125,-0.2661133,-0.1152344,0.07519531,0.08203125,0.1835938,-0.2407227
4089,8.4375,116.9375,266.25,-0.4052734,-0.07617188,0.07128906,0.1079102,0.1762695,-0.2368164
4094,12.1875,135.4375,234.9375,-0.9477539,0.171875,0.08251953,0.1333008,0.1660156,-0.2338867
4098,6,132.75,186.75,-1.587402,0.2495117,0.03662109,0.1508789,0.15625,-0.230957
4102,4.625,90.25,132.6875,-2.300293,0.2651367,-0.06689453,0.1674805,0.1459961,-0.2255859
4106,11.5625,27.1875,65.25,-2.393555,0.1796875,-0.08203125,0.1796875,0.1411133,-0.2246094
4110,16.625,0.1875,-20.5,-1.87793,0.2265625,0.04052734,0.1806641,0.1386719,-0.2216797
4114,-0.5625,3.375,-98.5,-1.40918,0.1953125,0.1098633,0.1772461,0.1401367,-0.2231445
4118,-12.9375,0.5,-145.375,-1.11084,-0.1381836,0.125,0.1699219,0.1474609,-0.2216797
4122,-11.1875,-26.75,-158.875,-0.9208984,-0.324707,0.105957,0.1640625,0.1538086,-0.2231445
4126,-10.6875,-52.375,-156.375,-0.6225586,-0.387207,0.1098633,0.1508789,0.1625977,-0.2246094
4130,-7.5,-60.4375,-152.75,-0.4790039,-0.4726563,0.09033203,0.1376953,0.1699219,-0.2255859
4134,4.625,-70.9375,-149.8125,-0.4711914,-0.5620117,0.05957031,0.128418,0.1748047,-0.2246094
4138,21.1875,-71.8125,-163.5625,-0.3007813,-0.4570313,0.1020508,0.1118164,0.1811523,-0.2285156
4142,26.625,-53.4375,-191.875,-0.1884766,-0.3481445,0.1479492,0.09765625,0.1850586,-0.2324219
4146,26.875,-49.1875,-215.1875,-0.2348633,-0.3286133,0.1865234,0.08691406,0.1884766,-0.2338867
4150,27.5625,-68.3125,-216.375,-0.2192383,-0.3286133,0.1557617,0.06787109,0.1938477,-0.2368164
4154,23.625,-110.125,-203.8125,-0.1845703,-0.2978516,0.125,0.04638672,0.1962891,-0.237793
4158,23.1875,-133.5,-192.4375,0.159668,-0.2744141,0.1367188,0.03320313,0.1962891,-0.2392578
4162,25.8125,-111.4375,-207.9375,0.4580078,-0.2587891,0.1713867,0.009277344,0.1972656,-0.2421875
4166,37.6875,-67.8125,-231.6875,0.3999023,-0.2783203,0.159668,-0.01416016,0.1938477,-0.2436523
4170,35.5625,-85.1875,-254.0625,0.01660156,-0.05273438,0.2290039,-0.02832031,0.1899414,-0.2446289
4174,6.5625,-142.625,-253.5,0.09375,0.1293945,0.2133789,-0.05224609,0.1850586,-0.2436523
4178,-23.625,-199.0625,-231.5625,0.4428711,-0.01806641,0.1171875,-0.078125,0.1801758,-0.2407227
4182,-19.125,-203.75,-214.5625,0.7915039,-0.2314453,0.01367188,-0.09716797,0.1787109,-0.2368164
4186,-3.0625,-199.5625,-209.4375,0.6982422,-0.2241211,-0.005371094,-0.1245117,0.1723633,-0.2246094
4190,7.4375,-201,-225.3125,0.9350586,-0.01806641,0.001953125,-0.1508789,0.1625977,-0.2177734
4194,-3.5,-172.125,-260.25,1.213867,0.2299805,0.05957031,-0.1650391,0.15625,-0.2109375
4198,-28.125,-116.1875,-288.125,1.574219,0.2456055,0.03662109,-0.1914063,0.1435547,-0.2011719
4202,-22.0625,-65.75,-281.5,1.508301,-0.1420898,-0.001464844,-0.2104492,0.1264648,-0.1943359
4206,25.1875,-34.9375,-261.1875,1.283691,-0.2548828,-0.04394531,-0.2197266,0.1152344,-0.1918945
4210,62.8125,-37.875,-238.6875,1.02002,-0.07617188,-0.07080078,-0.2304688,0.09619141,-0.1928711
4214,80.1875,-69.75,-222.8125,0.7993164,0.1293945,-0.1015625,-0.2436523,0.07519531,-0.1928711
4218,97.4375,-103.625,-220.875,1.004395,0.2924805,-0.07080078,-0.2495117,0.05859375,-0.1889648
4223,92.5,-101.8125,-236.5625,1.233398,0.6962891,-0.01318359,-0.2592773,0.03613281,-0.1835938
4227,62.6875,-85.1875,-256.6875,1.353516,0.8012695,0.02099609,-0.2709961,0.01269531,-0.1796875
4231,48.9375,-67.0625,-271.0625,1.318359,0.6962891,-0.005371094,-0.2758789,-0.004394531,-0.1738281
4235,55.625,-60.6875,-277.5,1.206055,0.6459961,-0.07080078,-0.2792969,-0.02832031,-0.1713867
4239,72.5625,-63.25,-284,1.105469,0.7314453,-0.1474609,-0.2827148,-0.05712891,-0.1660156
4243,90.625,-77.75,-300,1.074219,0.855957,-0.1821289,-0.2827148,-0.07714844,-0.1630859
4247,101.5625,-95.375,-321.4375,1.217773,1.077148,-0.1938477,-0.2807617,-0.1069336,-0.1547852
4251,89.5,-110.75,-329.9375,1.442383,1.291016,-0.1630859,-0.2758789,-0.140625,-0.1455078
4255,69.3125,-111.0625,-328.9375,1.72168,1.267578,-0.1015625,-0.2724609,-0.1591797,-0.137207
4259,54.8125,-88.375,-309.375,1.958008,1.189941,-0.03613281,-0.2651367,-0.1918945,-0.1264648
4263,54.1875,-53.4375,-279.75,1.977051,1.015137,0.02880859,-0.2543945,-0.2167969,-0.1181641
4267,62.4375,-27.125,-241.875,1.748535,0.9453125,0.05175781,-0.2460938,-0.2329102,-0.112793
4271,62.9375,-35.5625,-200,1.461914,0.9604492,0.07910156,-0.2329102,-0.2504883,-0.1074219
4275,37,-67.0625,-140.5625,1.458008,1.213379,0.2094727,-0.222168,-0.2670898,-0.1020508
4279,-12.9375,-92.0625,-76.0625,1.616699,1.143066,0.3291016,-0.21875,-0.2705078,-0.09912109
4283,-35.875,-82.25,-32.4375,1.760254,0.9140625,0.340332,-0.2163086,-0.2744141,-0.09375
4287,-46.625,-47.375,-8.5625,1.702148,0.8286133,0.2172852,-0.2172852,-0.2768555,-0.08837891
4291,-48.875,-5.3125,-1.8125,1.558594,0.6772461,0.09814453,-0.2172852,-0.2753906,-0.09082031
4295,-35.875,38.5,-8.0625,1.411621,0.5722656,-0.005371094,-0.2163086,-0.2753906,-0.09521484
4299,-18.5,73.875,-19.5,1.233398,0.5097656,-0.07861328,-0.215332,-0.2753906,-0.1005859
4303,-2.9375,92.6875,-22.6875,1.043457,0.5058594,-0.128418,-0.2138672,-0.2744141,-0.1044922
4307,15.0625,100.25,-23.1875,0.9931641,0.4750977,-0.1323242,-0.2089844,-0.2768555,-0.112793
4311,38.25,115.625,-26.875,1.043457,0.4829102,-0.128418,-0.2045898,-0.2807617,-0.1157227
4315,59.4375,150.75,-36.3125,1.151855,0.5332031,-0.1323242,-0.199707,-0.2841797,-0.1196289
4319,76.9375,202.0625,-50.0625,1.163574,0.6069336,-0.1669922,-0.1923828,-0.2880859,-0.1235352
4323,88.875,253.6875,-65.8125,1.0625,0.6538086,-0.2285156,-0.1806641,-0.2944336,-0.1303711
4327,94.8125,290.125,-78.375,0.9038086,0.6694336,-0.2670898,-0.1699219,-0.2993164,-0.1386719
4331,101.75,309.9375,-84.5,0.7412109,0.6923828,-0.3051758,-0.1533203,-0.3081055,-0.1484375
4335,103,313.6875,-85.3125,0.5976563,0.7353516,-0.2861328,-0.1342773,-0.3168945,-0.1523438
4339,101.375,308.25,-77.375,0.5239258,0.8012695,-0.2631836,-0.1210938,-0.3232422,-0.1591797
4343,93.9375,295.875,-65.0625,0.4389648,0.8710938,-0.2167969,-0.1010742,-0.3320313,-0.1577148
4347,84.6875,276.5,-51.4375,0.3417969,0.9492188,-0.1743164,-0.08398438,-0.3369141,-0.1606445
4352,68.875,249.3125,-37.9375,0.2294922,1.007324,-0.1513672,-0.07470703,-0.3393555,-0.1591797
4356,49.8125,213.875,-26.8125,0.1289063,1.003418,-0.1054688,-0.05908203,-0.3442383,-0.1591797
4360,34,170,-14.625,0.04736328,0.956543,-0.07861328,-0.04833984,-0.3481445,-0.1591797
4364,22.75,123.125,-4,0.02050781,0.9335938,-0.05908203,-0.04394531,-0.3466797,-0.1591797
4368,15.375,78.875,6.1875,0.04736328,0.90625,-0.04736328,-0.03662109,-0.3491211,-0.1577148
