Packet number,Gyroscope X (deg/s),Gyroscope Y (deg/s),Gyroscope Z (deg/s),Accelerometer X (g),Accelerometer Y (g),Accelerometer Z (g),Magnetometer X (G),Magnetometer Y (G),Magnetometer Z (G)
0,5.125,0.0625,-1.0625,0.3305664,0.921875,-0.01660156,-0.04003906,-0.3618164,-0.1264648
4,5.6875,-0.1875,-1.9375,0.3305664,0.9257813,-0.02441406,-0.0390625,-0.3632813,-0.125
8,6.25,-0.6875,-2.5625,0.3378906,0.9335938,-0.02441406,-0.0390625,-0.3642578,-0.125
12,6.875,-0.9375,-2.8125,0.3496094,0.9375,-0.01318359,-0.04003906,-0.3632813,-0.125
16,7.25,-0.5,-2.5,0.3574219,0.9414063,-0.009277344,-0.0390625,-0.3642578,-0.125
20,7.0625,0.0625,-2.4375,0.3574219,0.956543,0.001953125,-0.03759766,-0.3632813,-0.125
24,7.125,0.75,-2.375,0.3652344,0.956543,0.005859375,-0.03759766,-0.3642578,-0.1235352
28,5.9375,0.9375,-1.8125,0.3652344,0.9604492,0.01708984,-0.03662109,-0.3632813,-0.1210938
32,4.375,0.5,-1,0.3613281,0.9760742,0.01708984,-0.0390625,-0.3632813,-0.1225586
36,2.5625,-0.75,0.0625,0.3535156,0.9682617,0.02099609,-0.03759766,-0.3657227,-0.1210938
40,1.4375,-2,0.5,0.3535156,0.9643555,0.02490234,-0.03759766,-0.3666992,-0.1196289
44,0.6875,-2.1875,0.75,0.3613281,0.9492188,0.01708984,-0.0390625,-0.3632813,-0.1210938
48,0.6875,-0.875,1.0625,0.3769531,0.9375,0.01708984,-0.0390625,-0.3618164,-0.1210938
52,0.9375,1.1875,0.8125,0.3769531,0.9492188,0.01367188,-0.0390625,-0.3657227,-0.1210938
56,0.25,2.3125,0.1875,0.3613281,0.9453125,0.01708984,-0.0390625,-0.3657227,-0.1210938
60,0,2.125,0.125,0.3535156,0.9414063,0.001953125,-0.03759766,-0.3642578,-0.1181641
64,-0.9375,0.5625,1.0625,0.3457031,0.9492188,0.009765625,-0.0390625,-0.3657227,-0.1210938
68,-2.8125,-2.25,2.1875,0.3305664,0.953125,0.005859375,-0.03759766,-0.3642578,-0.1196289
72,-4.625,-7.0625,3.4375,0.3188477,0.956543,0.001953125,-0.0390625,-0.3657227,-0.1210938
76,-7.25,-12.1875,5.875,0.3266602,0.9643555,0.009765625,-0.04003906,-0.3642578,-0.1225586
80,-9.375,-16.4375,8.125,0.3535156,0.956543,0.02490234,-0.0390625,-0.3642578,-0.1225586
85,-13.1875,-22.5,12.75,0.3266602,0.9760742,0.009765625,-0.04003906,-0.3632813,-0.1235352
89,-16.4375,-32.0625,18.5625,0.3110352,0.972168,0.02099609,-0.04394531,-0.3657227,-0.1235352
93,-24.75,-45.8125,27.875,0.2412109,1.015137,0.02490234,-0.04492188,-0.3603516,-0.1235352
97,-37.25,-76.75,44.875,0.1132813,1.015137,0.001953125,-0.05224609,-0.3603516,-0.1235352
101,-45.5625,-119.375,62.4375,0.09375,1.022949,0.01708984,-0.05810547,-0.359375,-0.1279297
105,-66.5625,-163.25,78.4375,0.05517578,1.120117,0.01367188,-0.06640625,-0.3544922,-0.1264648
109,-92.125,-212.4375,93.375,0.140625,1.104492,0.05175781,-0.07714844,-0.3505859,-0.1303711
113,-116.5625,-245.25,104.8125,0.4194336,1.143066,0.1367188,-0.09472656,-0.3417969,-0.1333008
117,-150.8125,-254.0625,120.6875,0.7138672,1.244141,0.2519531,-0.1079102,-0.3393555,-0.1357422
121,-190.1875,-266.5625,146.0625,0.6982422,1.337402,0.2675781,-0.1259766,-0.328125,-0.1386719
125,-221,-270.5,177.4375,1.055176,1.069336,0.3330078,-0.1494141,-0.3120117,-0.1425781
129,-232.9375,-264.375,202.4375,1.244629,0.9453125,0.2402344,-0.1665039,-0.3007813,-0.144043
133,-231.5625,-226.3125,207.8125,1.608887,0.777832,0.2866211,-0.1923828,-0.2792969,-0.1469727
137,-219.4375,-169.1875,196.3125,1.725586,0.6694336,0.2402344,-0.2138672,-0.2543945,-0.1469727
141,-204.3125,-122.5625,190.375,1.783691,0.5800781,0.2172852,-0.2255859,-0.2392578,-0.1494141
145,-188.75,-81.375,205.25,1.845703,0.5722656,0.1367188,-0.2412109,-0.2182617,-0.1523438
149,-167.9375,-55.4375,232.3125,1.794922,0.5136719,0.140625,-0.2519531,-0.1918945,-0.1538086
153,-150.375,-47.1875,249.5,1.880371,0.5527344,0.144043,-0.2617188,-0.1757813,-0.1547852
157,-143.1875,-28.6875,259.4375,2.066406,0.7739258,0.1635742,-0.2709961,-0.1469727,-0.15625
161,-148.875,-1.5625,271.125,2.10498,0.6923828,0.09814453,-0.2792969,-0.1166992,-0.1577148
165,-127.3125,19.1875,294,2.070313,0.5097656,-0.001464844,-0.2817383,-0.09716797,-0.1577148
169,-95.9375,43.125,318.1875,2.097168,0.5800781,0.001953125,-0.2827148,-0.06445313,-0.1616211
173,-83.1875,73.625,333.25,2.027832,0.8051758,0.01708984,-0.2817383,-0.03173828,-0.1660156
177,-86.4375,107.375,334.3125,1.853027,0.8442383,0.005859375,-0.2783203,-0.01171875,-0.168457
181,-83.8125,115.875,335.3125,1.419434,0.6381836,-0.1054688,-0.2709961,0.02148438,-0.1767578
185,-56.75,95.875,350.1875,1.225586,0.4907227,-0.07861328,-0.2568359,0.05371094,-0.1835938
189,-41.8125,77.0625,345.625,1.241211,0.6811523,-0.01318359,-0.2470703,0.07373047,-0.1850586
193,-43.875,76.0625,344.625,1.302734,0.6577148,-0.01660156,-0.2319336,0.1025391,-0.1904297
197,-35.5625,71.125,342.4375,1.194336,0.4985352,-0.07080078,-0.2138672,0.125,-0.1943359
201,-21.0625,51.9375,347.8125,1.128418,0.3349609,-0.1401367,-0.1962891,0.1425781,-0.1943359
205,-2.1875,42.4375,356.75,1.147949,0.3271484,-0.1401367,-0.1757813,0.1625977,-0.1987305
209,11.0625,47.5625,357.75,1.202148,0.3310547,-0.1245117,-0.1508789,0.1811523,-0.1987305
214,9.6875,76.4375,343.8125,1.175293,0.4711914,-0.109375,-0.1328125,0.1899414,-0.2026367
218,11.6875,103.9375,343.5625,0.9116211,0.3041992,-0.1669922,-0.1030273,0.2036133,-0.2080078
222,29.6875,113.5,326.3125,0.6401367,0.2338867,-0.1899414,-0.07470703,0.2114258,-0.2133789
226,38.375,109,314.25,0.543457,0.2338867,-0.1860352,-0.05419922,0.2124023,-0.2148438
230,44.4375,113.1875,323.9375,0.5161133,0.2070313,-0.1401367,-0.0234375,0.2138672,-0.2216797
234,44.3125,115.5625,309.9375,0.3574219,0.2299805,-0.09765625,0.009277344,0.2099609,-0.2270508
238,45.4375,122.625,302.6875,0.206543,0.1875,-0.07861328,0.02832031,0.2060547,-0.2270508
242,42.375,123.25,299.0625,-0.02197266,0.2456055,-0.009277344,0.05810547,0.1987305,-0.2299805
246,37.5625,131.625,275,-0.2543945,0.2495117,0.001953125,0.08691406,0.1899414,-0.230957
250,34.8125,137.125,245.8125,-0.6494141,0.1640625,-0.03222656,0.1069336,0.1826172,-0.2299805
254,33.5,125.5625,219.3125,-1.091309,0.21875,0.01708984,0.1318359,0.1699219,-0.2299805
258,25.75,84.8125,202.625,-1.599121,0.315918,0.02099609,0.1508789,0.1611328,-0.2270508
262,15.6875,28,171.625,-2.013672,0.2416992,-0.005371094,0.1640625,0.1499023,-0.2246094
266,18.875,-12.1875,112.125,-1.889648,0.2885742,0.08251953,0.1748047,0.1386719,-0.2270508
270,12.5,4.8125,2.75,-1.583496,0.2338867,0.2021484,0.1782227,0.1347656,-0.2285156
274,5.375,13.875,-84.1875,-1.541016,0.04736328,0.2558594,0.1782227,0.1362305,-0.2270508
278,-1.5625,-14.9375,-123.875,-1.327637,-0.06445313,0.3056641,0.1738281,0.1411133,-0.2255859
282,-16.4375,-48.9375,-135.8125,-0.9287109,-0.1420898,0.355957,0.1630859,0.1489258,-0.2285156
286,-29.875,-59.3125,-145,-0.5332031,-0.2822266,0.3598633,0.1547852,0.1547852,-0.230957
290,-29,-47.5625,-151.6875,-0.3745117,-0.4726563,0.2866211,0.1425781,0.1635742,-0.2270508
294,-12.0625,-35.625,-156.125,-0.3974609,-0.5620117,0.1982422,0.1293945,0.1738281,-0.2299805
298,6.1875,-23.0625,-166.5,-0.4521484,-0.421875,0.1748047,0.1201172,0.1762695,-0.2285156
302,8.75,-25.25,-190.1875,-0.5991211,-0.2626953,0.1826172,0.105957,0.1826172,-0.230957
306,-1.9375,-49.9375,-213.25,-0.6264648,-0.06445313,0.2021484,0.09130859,0.1914063,-0.2299805
310,-27.1875,-92.3125,-228.4375,-0.5175781,-0.03369141,0.1748047,0.07861328,0.1938477,-0.2299805
314,-40.3125,-121.3125,-233.9375,-0.1030273,-0.1113281,0.105957,0.05322266,0.2026367,-0.230957
318,-39.5625,-122.6875,-239.25,0.109375,-0.2470703,0.02490234,0.02832031,0.2084961,-0.2255859
322,-17.375,-114.875,-246.375,0.2026367,-0.3598633,-0.03613281,0.01074219,0.2114258,-0.2270508
326,4.375,-122.75,-258.125,0.2373047,-0.2900391,-0.02832031,-0.01513672,0.2114258,-0.2246094
330,19.75,-126.0625,-260.6875,0.4116211,-0.1459961,-0.01660156,-0.04248047,0.2075195,-0.2246094
334,12.9375,-128.5625,-268.1875,0.4853516,0.171875,0.07128906,-0.05908203,0.2060547,-0.2231445
338,-16.4375,-121.4375,-286.875,0.6479492,0.4204102,0.105957,-0.08886719,0.1987305,-0.2177734
343,-43.5,-114.25,-306.4375,0.5976563,0.1640625,-0.005371094,-0.1162109,0.1923828,-0.2119141
347,-32.0625,-123.375,-321.5625,0.6674805,0.05517578,-0.07470703,-0.1342773,0.1860352,-0.206543
351,-20.1875,-136.75,-329.875,0.9853516,0.05517578,-0.109375,-0.1616211,0.1723633,-0.2011719
355,-4.8125,-138.1875,-296.6875,1.244629,0.0009765625,-0.1362305,-0.1875,0.1547852,-0.1918945
359,15.5,-110.8125,-276.3125,1.582031,0.1796875,0.02490234,-0.2021484,0.1450195,-0.1865234
363,5.3125,-46.25,-282.4375,1.469727,0.4204102,0.001953125,-0.2197266,0.125,-0.1796875
367,0.9375,-31.5625,-296.6875,1.101563,0.2573242,-0.005371094,-0.234375,0.1064453,-0.1782227
371,7.5,-70,-297.8125,0.9814453,0.3544922,-0.04736328,-0.2446289,0.08984375,-0.175293
375,9.125,-98.9375,-270.6875,1.283691,0.3232422,-0.08984375,-0.2592773,0.06884766,-0.1699219
379,31.625,-90.5,-242.125,1.442383,0.1757813,-0.09375,-0.2700195,0.04638672,-0.1630859
383,61,-77.0625,-234,1.461914,0.3818359,-0.06689453,-0.2783203,0.03271484,-0.1591797
387,62.3125,-56.5,-253.375,1.5625,0.6538086,-0.04394531,-0.2827148,0.007324219,-0.1547852
391,54.25,-24.375,-265.9375,1.644043,0.7353516,-0.009277344,-0.2890625,-0.01708984,-0.1523438
395,52.5,-3.75,-272.9375,1.492676,0.6381836,-0.03613281,-0.2875977,-0.03564453,-0.1523438
399,65,-5.6875,-256.125,1.341797,0.6030273,-0.05517578,-0.2890625,-0.06298828,-0.1523438
403,80.1875,-20.125,-235,1.225586,0.6845703,-0.04736328,-0.2875977,-0.08691406,-0.1523438
407,95.6875,-38.875,-220.0625,1.124512,0.7817383,-0.07080078,-0.2866211,-0.1030273,-0.1494141
411,105.75,-58.375,-216.9375,1.109375,0.9140625,-0.07080078,-0.2807617,-0.1269531,-0.1455078
415,106,-66.8125,-237.3125,1.213867,1.13916,-0.04736328,-0.2792969,-0.1479492,-0.1357422
419,97,-53.25,-273.8125,1.310547,1.255859,-0.04394531,-0.2724609,-0.1669922,-0.1303711
423,86.8125,-40.0625,-305.5625,1.268066,1.197754,-0.109375,-0.2651367,-0.1933594,-0.1235352
427,90.8125,-48.3125,-319.125,1.171387,1.073242,-0.1630859,-0.2519531,-0.2192383,-0.1157227
431,102.3125,-76.25,-307.6875,1.0625,1.073242,-0.2631836,-0.2402344,-0.2407227,-0.1088867
435,112.75,-113.1875,-278.5625,1.078125,1.038574,-0.2861328,-0.2255859,-0.2641602,-0.09912109
439,117.1875,-140.625,-244.0625,1.206055,1.13916,-0.2861328,-0.2114258,-0.2866211,-0.08154297
443,93.9375,-150.0625,-187,1.426758,1.240234,-0.2246094,-0.203125,-0.2983398,-0.06933594
447,53.9375,-124.8125,-121.0625,1.682617,1.251953,-0.1015625,-0.1923828,-0.3095703,-0.05419922
451,18.5,-78.0625,-71.375,1.670898,1.100586,-0.04003906,-0.184082,-0.3144531,-0.04638672
455,-2.3125,-35.1875,-43.6875,1.426758,0.987793,-0.08984375,-0.1816406,-0.3193359,-0.04052734
459,-17.9375,-30.125,-26.375,1.0625,0.8632813,-0.1860352,-0.1791992,-0.3217773,-0.04052734
463,-21.9375,-41.375,-10.1875,1.008301,0.7431641,-0.1938477,-0.1772461,-0.3232422,-0.04052734
467,-22.625,-49.3125,7.6875,1.113281,0.6923828,-0.1938477,-0.1782227,-0.3232422,-0.04052734
472,-17.75,-33.5,22.0625,1.237305,0.6811523,-0.1591797,-0.1791992,-0.3232422,-0.04052734
476,-11.9375,-9.8125,31.5,1.217773,0.7236328,-0.1323242,-0.1816406,-0.3193359,-0.03955078
480,-9.0625,5.1875,37.625,1.159668,0.7895508,-0.1054688,-0.1831055,-0.3178711,-0.03955078
484,-14.125,13.875,43.1875,1.105469,0.9179688,-0.07470703,-0.1865234,-0.3154297,-0.04052734
488,-27.3125,19.625,47.625,1.117188,0.956543,-0.06689453,-0.1899414,-0.3144531,-0.04345703
492,-36.5,22.8125,60.1875,1.121094,0.9375,-0.08203125,-0.1923828,-0.3095703,-0.04638672
496,-39.3125,21.75,82.625,1.117188,0.8984375,-0.1166992,-0.1972656,-0.3056641,-0.05029297
500,-36.9375,20.6875,106.3125,1.159668,0.921875,-0.1245117,-0.203125,-0.2993164,-0.05273438
504,-38.3125,23.25,124.6875,1.182617,0.9838867,-0.1474609,-0.2080078,-0.2929688,-0.05566406
508,-41.1875,27.5625,135.125,1.237305,1.022949,-0.1552734,-0.2172852,-0.2841797,-0.06103516
512,-44.1875,36.8125,142.8125,1.302734,1.06543,-0.1552734,-0.2255859,-0.2753906,-0.06640625
516,-45.4375,43.8125,153.1875,1.341797,1.049805,-0.1938477,-0.2319336,-0.2670898,-0.06933594
520,-42.0625,49.0625,176.125,1.345703,1.04248,-0.2207031,-0.2412109,-0.2543945,-0.07617188
524,-40,48,201.875,1.330078,1.053711,-0.2705078,-0.2519531,-0.2382813,-0.08300781
528,-36.5,44.125,220.25,1.345703,1.09668,-0.2939453,-0.2578125,-0.2270508,-0.08691406
532,-38.8125,44.75,225.6875,1.469727,1.17041,-0.2705078,-0.2685547,-0.2070313,-0.09228516
536,-43.9375,59.8125,221.3125,1.620605,1.263672,-0.2514648,-0.2768555,-0.1870117,-0.09667969
540,-54,90.6875,220.3125,1.717773,1.271484,-0.2861328,-0.2827148,-0.1743164,-0.1005859
544,-55.4375,112.125,240.125,1.632324,1.053711,-0.3359375,-0.2890625,-0.1533203,-0.1113281
548,-41.0625,106.75,267.8125,1.419434,0.9799805,-0.4248047,-0.2890625,-0.1293945,-0.1225586
552,-20.9375,86.0625,292.25,1.461914,0.9682617,-0.359375,-0.2924805,-0.109375,-0.1289063
556,-9.125,89.0625,300.375,1.612793,1.019043,-0.2978516,-0.2958984,-0.08300781,-0.1357422
560,-16.75,123.8125,290.5,1.640137,1.255859,-0.2128906,-0.2915039,-0.05566406,-0.1455078
564,-40.625,154.25,282,1.461914,1.06543,-0.2592773,-0.2900391,-0.03955078,-0.1523438
568,-45.5,155.4375,283.0625,1.209961,0.953125,-0.2978516,-0.2817383,-0.01074219,-0.1630859
572,-46.6875,130.5,316.5625,1.101563,0.7158203,-0.3012695,-0.2709961,0.01611328,-0.1767578
576,-29.9375,107.1875,345.8125,1.13623,0.5839844,-0.2822266,-0.2636719,0.03613281,-0.1806641
580,-9,109.625,357.125,1.268066,0.5644531,-0.2475586,-0.2495117,0.06396484,-0.1875
584,-3.1875,134.75,344.625,1.268066,0.7548828,-0.1821289,-0.2319336,0.08886719,-0.1987305
588,-14.1875,168.3125,328.625,1.194336,0.7119141,-0.1977539,-0.2172852,0.1049805,-0.2041016
592,-20.875,194.25,319.375,1.027832,0.5952148,-0.2324219,-0.1914063,0.1264648,-0.2148438
596,-29.1875,188,324.4375,0.7177734,0.5913086,-0.2128906,-0.1650391,0.1435547,-0.2231445
601,-35.125,144.0625,343.625,0.5708008,0.3857422,-0.1860352,-0.1474609,0.1577148,-0.230957
605,-24.3125,105.6875,378.4375,0.7602539,0.269043,-0.1362305,-0.1152344,0.1748047,-0.2338867
609,-16.9375,106.5625,391.5625,0.9658203,0.315918,-0.05908203,-0.08544922,0.1884766,-0.237793
613,-19.375,147.5,375.9375,0.8730469,0.5097656,-0.05517578,-0.05908203,0.1948242,-0.237793
617,-32.1875,187.6875,350.6875,0.6674805,0.4907227,-0.07470703,-0.0234375,0.1987305,-0.2407227
621,-42.4375,198.0625,342.125,0.02832031,0.4282227,-0.1054688,0.01416016,0.2011719,-0.237793
625,-50.4375,159.5,362.875,-0.6923828,0.4985352,-0.05517578,0.0390625,0.2026367,-0.2338867
629,-68.8125,95.9375,380.3125,-1.381836,0.6303711,-0.05517578,0.07617188,0.1948242,-0.2285156
633,-74.3125,50,361.625,-1.986328,0.5488281,-0.0859375,0.1079102,0.1914063,-0.2216797
637,-42.1875,48.375,270.25,-2.602539,0.4321289,-0.2475586,0.1259766,0.1835938,-0.2177734
641,8.25,53.3125,89.125,-3.01709,0.2148438,-0.2670898,0.1450195,0.1762695,-0.2119141
645,41.1875,34.0625,-62.5,-2.59082,0.4750977,-0.05517578,0.1499023,0.1738281,-0.2148438
649,17.3125,-2.6875,-138.0625,-2.09082,0.6030273,0.09423828,0.1450195,0.1748047,-0.2163086
653,-12.4375,-54.75,-177.6875,-1.509766,0.3193359,0.1020508,0.1357422,0.1811523,-0.2177734
657,-18.9375,-88.5,-200.25,-0.8974609,-0.02197266,0.02880859,0.1176758,0.1884766,-0.2177734
661,-3.0625,-90.25,-209.5625,-0.3935547,-0.2006836,-0.009277344,0.105957,0.1962891,-0.2177734
665,16.125,-60.5625,-225.8125,-0.07226563,-0.1538086,0.04443359,0.08300781,0.2036133,-0.2216797
669,25.5,-28.0625,-252,-0.07617188,-0.09179688,0.07128906,0.06396484,0.2075195,-0.2231445
673,25.25,-26.5,-281.1875,-0.1420898,0.03222656,0.1132813,0.04638672,0.2084961,-0.2231445
677,14.8125,-47.5,-294.0625,-0.1108398,0.01660156,0.08251953,0.02490234,0.2114258,-0.2255859
681,20.4375,-79.125,-290.625,0.1054688,-0.08789063,0.02099609,-0.001953125,0.2099609,-0.2255859
685,30.9375,-113,-269.375,0.2954102,-0.1850586,-0.005371094,-0.02099609,0.2114258,-0.2255859
689,45.3125,-124,-256.625,0.8378906,0.06689453,0.1479492,-0.04736328,0.2050781,-0.2255859
693,21.125,-75.6875,-286.9375,1.089844,0.2612305,0.1557617,-0.07226563,0.1962891,-0.2270508
697,23.25,-42.25,-307.1875,0.9462891,-0.2353516,0.105957,-0.08886719,0.1923828,-0.2255859
701,60.875,-41.875,-326.4375,0.7373047,-0.2431641,0.06738281,-0.112793,0.1811523,-0.2270508
705,90.125,-67.5,-308,0.8417969,-0.1577148,0.05957031,-0.1367188,0.1635742,-0.2285156
709,99.9375,-82.9375,-287.0625,0.8691406,0.3388672,0.2402344,-0.1518555,0.1499023,-0.230957
713,54,-99.6875,-300.9375,0.8261719,0.7392578,0.2480469,-0.1733398,0.1313477,-0.2299805
717,19.125,-126.25,-325,0.8496094,0.5097656,0.1865234,-0.1938477,0.1098633,-0.2255859
721,21.8125,-163.875,-331.875,1.140137,0.3193359,0.04052734,-0.2089844,0.09619141,-0.2216797
725,33.9375,-166.5,-292.5,1.585938,0.237793,0.02490234,-0.2294922,0.07275391,-0.2119141
730,56.6875,-130.8125,-224.5625,1.791016,0.15625,0.07910156,-0.2460938,0.05371094,-0.2026367
734,68.5,-70.875,-212.4375,1.830078,0.5566406,0.2290039,-0.2543945,0.03857422,-0.1972656
738,30.1875,-15.6875,-236.3125,1.477539,0.8789063,0.2021484,-0.2602539,0.01855469,-0.1958008
742,19.4375,-9.625,-249.9375,1.248535,0.3779297,0.1132813,-0.2651367,-0.003417969,-0.1943359
746,48.4375,-25.5,-237.875,1.132324,0.2612305,0.04052734,-0.2661133,-0.01806641,-0.1943359
750,76.0625,-38.9375,-215.8125,1.13623,0.3896484,0.04443359,-0.2685547,-0.03955078,-0.1918945
754,95.4375,-53.75,-192.3125,1.02002,0.5097656,0.04785156,-0.2685547,-0.05957031,-0.1889648
758,95.4375,-58.5625,-193.0625,1.109375,0.8789063,0.1132813,-0.2709961,-0.07714844,-0.1835938
762,73.6875,-45.125,-209,1.0625,1.053711,0.1557617,-0.2700195,-0.09570313,-0.1796875
766,61,-45,-227.625,0.9501953,0.9604492,0.1132813,-0.2685547,-0.1166992,-0.175293
770,66.0625,-59.125,-231.1875,0.9233398,0.8710938,0.03662109,-0.2651367,-0.1318359,-0.1713867
774,82.3125,-73.375,-224.6875,0.9697266,0.8789063,-0.02832031,-0.2636719,-0.1567383,-0.1645508
778,105.5,-86.8125,-214.25,0.9814453,0.890625,-0.09765625,-0.2592773,-0.1767578,-0.1538086
782,130.0625,-104.25,-207.75,1.000488,1.007324,-0.1821289,-0.2568359,-0.1918945,-0.1484375
786,142.75,-106.75,-227.4375,1.159668,1.317871,-0.1474609,-0.2509766,-0.2143555,-0.1333008
790,122.8125,-89.5,-266.75,1.268066,1.562988,-0.1323242,-0.2402344,-0.2368164,-0.1196289
794,97.5,-76.875,-297.6875,1.252441,1.500488,-0.07470703,-0.2319336,-0.2529297,-0.1098633
798,79.375,-92.75,-287.5625,1.182617,1.395996,-0.1015625,-0.215332,-0.2768555,-0.1005859
802,60.1875,-131.75,-229.9375,1.256348,1.302734,-0.1206055,-0.199707,-0.296875,-0.08691406
806,34.5625,-155.625,-144.0625,1.527832,1.178223,-0.07861328,-0.1938477,-0.3041992,-0.08007813
810,10,-139.3125,-68.1875,1.756348,1.04248,-0.01318359,-0.184082,-0.3129883,-0.06933594
814,-8,-89.75,-31.9375,1.779785,0.972168,0.04052734,-0.1816406,-0.3168945,-0.0625
818,-23.8125,-40.875,-30.375,1.496582,0.8168945,-0.01318359,-0.1806641,-0.3168945,-0.05957031
822,-23.0625,-19.1875,-33.875,1.299316,0.7080078,-0.05126953,-0.1806641,-0.3178711,-0.05957031
826,-21.125,-19.9375,-22.875,1.233398,0.6499023,-0.07470703,-0.1772461,-0.3208008,-0.05859375
830,-14.5,-22.375,-0.5,1.349609,0.6303711,-0.06689453,-0.1772461,-0.3208008,-0.06103516
834,-9.9375,-16.6875,26.3125,1.458008,0.7236328,-0.005371094,-0.1772461,-0.3208008,-0.05957031
838,-12.8125,-5.1875,48.75,1.558594,0.8945313,0.05566406,-0.1806641,-0.3178711,-0.06103516
842,-24.75,16.125,68.5,1.632324,1.003418,0.06347656,-0.184082,-0.3168945,-0.06103516
846,-38.875,35.25,87.9375,1.620605,1.108398,0.04052734,-0.1889648,-0.3105469,-0.06396484
850,-54.3125,44.1875,111.75,1.578125,1.100586,-0.03613281,-0.1948242,-0.3032227,-0.06933594
854,-55.0625,35.4375,153.6875,1.492676,0.9838867,-0.1206055,-0.199707,-0.2983398,-0.07470703
859,-44.125,27.375,195.6875,1.582031,1.007324,-0.1630859,-0.2114258,-0.2856445,-0.08007813
863,-30.875,36.6875,227.125,1.644043,1.049805,-0.1977539,-0.2270508,-0.2705078,-0.08691406
867,-18,55.1875,242.25,1.670898,1.197754,-0.2207031,-0.2353516,-0.2592773,-0.08984375
871,-19.875,78.0625,251.6875,1.628418,1.376465,-0.2207031,-0.2485352,-0.2392578,-0.09375
875,-26.75,99.875,259.8125,1.546875,1.384277,-0.2397461,-0.2578125,-0.2182617,-0.1044922
879,-27,114.625,267.9375,1.446289,1.353027,-0.2744141,-0.2636719,-0.2045898,-0.1074219
883,-28.1875,117.0625,277.9375,1.310547,1.333496,-0.3208008,-0.2724609,-0.1791992,-0.1196289
887,-30.8125,95.0625,294.8125,1.16748,1.275391,-0.3051758,-0.2792969,-0.1542969,-0.1289063
891,-25.6875,68.1875,306.125,1.198242,1.150879,-0.3208008,-0.2841797,-0.1367188,-0.1333008
895,-10.375,61,312.875,1.426758,0.987793,-0.2978516,-0.2875977,-0.1069336,-0.1401367
899,8.4375,92.75,312.4375,1.620605,1.015137,-0.2592773,-0.2900391,-0.07958984,-0.1469727
903,12.5,147.25,286.8125,1.632324,1.120117,-0.2514648,-0.2900391,-0.06201172,-0.1508789
907,3.875,179.125,274.125,1.26416,1.04248,-0.2978516,-0.2827148,-0.03808594,-0.1660156
911,4.3125,160.5625,282.875,0.9658203,0.8632813,-0.2978516,-0.2758789,-0.01318359,-0.1796875
915,-2.0625,101.9375,298.5625,0.7451172,0.9023438,-0.2744141,-0.2675781,0.001464844,-0.1865234
919,-7.4375,44.625,313.4375,1.000488,0.7626953,-0.1513672,-0.2592773,0.02636719,-0.1928711
923,-6.6875,44.3125,320.125,1.384277,0.6342773,-0.1054688,-0.2485352,0.05126953,-0.1943359
927,2.125,98.6875,311.125,1.546875,0.5800781,-0.109375,-0.2412109,0.06738281,-0.1987305
931,5,151.8125,288.8125,1.302734,0.5839844,-0.1708984,-0.2246094,0.08984375,-0.2080078
935,9.1875,170.9375,283.75,0.9272461,0.4946289,-0.2363281,-0.2055664,0.1074219,-0.2148438
939,12.5,141.375,302.625,0.6791992,0.3779297,-0.2016602,-0.1889648,0.1201172,-0.2255859
943,10.5625,102.375,320.625,0.574707,0.4438477,-0.1552734,-0.1665039,0.1362305,-0.2338867
947,2.6875,75.5,325.6875,0.690918,0.3818359,-0.05126953,-0.1435547,0.1489258,-0.237793
951,-8.0625,80.3125,302.5,0.8110352,0.4052734,0.005859375,-0.128418,0.1601563,-0.2392578
955,-9.625,109.4375,281.375,0.8457031,0.06298828,-0.04736328,-0.1020508,0.1713867,-0.2436523
959,6.8125,125.375,281,0.625,-0.1230469,-0.09765625,-0.078125,0.1772461,-0.2460938
963,29.125,120.875,301.75,0.4350586,-0.07617188,-0.0859375,-0.05908203,0.1801758,-0.2514648
967,38.875,119.125,296.3125,0.2529297,0.05126953,0.02490234,-0.02929688,0.1826172,-0.2543945
971,34.625,124.125,254.25,-0.03320313,0.15625,0.1367188,-0.003417969,0.1826172,-0.2597656
975,14.625,135.1875,216.9375,-0.3935547,0.237793,0.1943359,0.01416016,0.1772461,-0.2612305
979,0.0625,137.6875,197.5625,-1.099121,0.09814453,0.08642578,0.0390625,0.1762695,-0.2597656
983,7.875,113.75,206,-1.695801,0.01269531,0.04052734,0.06152344,0.1738281,-0.2597656
988,22.5,101,183.25,-2.304199,0.1098633,-0.0859375,0.07617188,0.1699219,-0.2568359
992,38.1875,58.875,85.6875,-2.76123,0.05908203,-0.07861328,0.09277344,0.1625977,-0.2597656
996,38.8125,3.9375,-33.375,-2.288574,0.3120117,0.2675781,0.09765625,0.1577148,-0.2626953
1000,-1.5625,-33,-105.5,-1.541016,0.3232422,0.3520508,0.09375,0.1577148,-0.2626953
1004,-29.0625,-75.375,-124.5625,-1.12207,0.01269531,0.2675781,0.08300781,0.1601563,-0.2626953
1008,-31.3125,-100.5625,-130.9375,-0.5566406,-0.2275391,0.2675781,0.06884766,0.1674805,-0.2626953
1012,-26.5625,-89.9375,-138.375,-0.2426758,-0.3364258,0.2133789,0.05957031,0.1699219,-0.2612305
1016,-10.3125,-59.625,-161.6875,-0.1572266,-0.453125,0.1904297,0.04394531,0.1748047,-0.2612305
1020,11.375,-31.9375,-192.3125,-0.1767578,-0.387207,0.1748047,0.02587891,0.1787109,-0.2612305
1024,22.4375,-17.75,-225.0625,-0.246582,-0.1967773,0.1826172,0.01660156,0.1787109,-0.2626953
1028,18.8125,-29.625,-247.5625,-0.3164063,-0.04882813,0.1557617,0,0.1772461,-0.2612305
1032,12.0625,-57.875,-251.625,-0.1845703,0.04394531,0.1367188,-0.01855469,0.1762695,-0.2626953
1036,0,-92.3125,-251.75,-0.04101563,0.09423828,0.09814453,-0.03320313,0.1723633,-0.2626953
1040,-0.875,-109.25,-250.5,0.2529297,0.02050781,0.06347656,-0.05664063,0.1713867,-0.2597656
1044,12.25,-101.4375,-255.1875,0.5859375,-0.006347656,0.05957031,-0.07958984,0.1650391,-0.2583008
1048,27.8125,-66.5,-263.625,0.6479492,0.05908203,0.06738281,-0.09228516,0.1601563,-0.2558594
1052,31.125,-68,-277.0625,0.3808594,0.2416992,0.09814453,-0.1152344,0.1499023,-0.2529297
1056,17.1875,-112.0625,-281.25,0.2255859,0.4125977,0.05175781,-0.1352539,0.1376953,-0.2543945
1060,2.3125,-184.375,-273.9375,0.6171875,0.3544922,0.009765625,-0.1518555,0.125,-0.2460938
1064,6.125,-186.8125,-269.1875,1.159668,0.2338867,-0.0859375,-0.1748047,0.1152344,-0.237793
1068,38.8125,-129.6875,-272.1875,1.736816,-0.01416016,-0.03613281,-0.199707,0.09619141,-0.2299805
1072,88.3125,-31.3125,-273,1.810547,-0.08398438,-0.01660156,-0.2089844,0.08496094,-0.2246094
1076,131.3125,57.5,-288.25,1.403809,0.237793,0.04443359,-0.21875,0.06005859,-0.230957
1080,115.625,56.875,-304.4375,0.4619141,0.7158203,0.02099609,-0.222168,0.03027344,-0.2392578
1084,84.3125,-94.9375,-285.125,-0.006347656,0.7314453,0.005859375,-0.2246094,0.008789063,-0.2407227
1088,62.625,-230.8125,-251.6875,0.7099609,0.8984375,-0.08984375,-0.2353516,-0.015625,-0.2324219
1092,47.1875,-256.25,-227.3125,1.670898,0.6923828,-0.1015625,-0.253418,-0.03564453,-0.2148438
1096,66.8125,-173.875,-203.8125,2.182617,0.4438477,-0.05517578,-0.2592773,-0.04833984,-0.2041016
1100,99.375,-54.1875,-211.5,2.058594,0.6616211,0.05175781,-0.2675781,-0.06835938,-0.1928711
1104,98.5,14.5625,-250.4375,1.531738,1.073242,0.08251953,-0.2661133,-0.09179688,-0.1918945
1108,72.875,2.5,-270.6875,1.066406,1.120117,0.1289063,-0.2626953,-0.1118164,-0.1918945
1112,60.8125,-58.5,-253.625,1.000488,0.9760742,0.1020508,-0.2568359,-0.1357422,-0.1889648
1117,57.6875,-102.0625,-211.1875,1.194336,1.04248,0.04443359,-0.253418,-0.1567383,-0.1796875
1121,54.625,-111.25,-183.75,1.310547,1.007324,0.02490234,-0.2509766,-0.1694336,-0.1767578
1125,66.1875,-94.125,-180,1.299316,0.9916992,0.005859375,-0.2485352,-0.1855469,-0.1645508
1129,77.0625,-77.125,-186.5625,1.19043,1.06543,-0.02050781,-0.2470703,-0.2045898,-0.15625
1133,76.875,-66.375,-197.0625,1.117188,1.213379,0.005859375,-0.2402344,-0.2158203,-0.1484375
1137,67.8125,-68.4375,-203.4375,0.9931641,1.236328,0.02099609,-0.2329102,-0.2319336,-0.1416016
1141,64.4375,-87.9375,-203.0625,0.9462891,1.232422,0.005859375,-0.2255859,-0.2480469,-0.1318359
1145,58.875,-112,-194,0.9892578,1.248047,-0.02441406,-0.21875,-0.2607422,-0.1235352
1149,48.125,-137.125,-171.875,1.082031,1.240234,-0.03222656,-0.2104492,-0.2753906,-0.1142578
1153,35.1875,-155.0625,-144.125,1.206055,1.189941,-0.04003906,-0.2045898,-0.2866211,-0.1035156
1157,17.375,-157.875,-120.625,1.345703,1.143066,-0.03613281,-0.2006836,-0.2944336,-0.09375
1161,3,-145.375,-101.125,1.442383,1.077148,-0.07470703,-0.1938477,-0.3017578,-0.08154297
1165,-13.375,-119.25,-91.25,1.484863,0.9682617,-0.0859375,-0.1914063,-0.3066406,-0.07324219
1169,-27.125,-93.1875,-72.5625,1.411621,0.8520508,-0.1708984,-0.1875,-0.3095703,-0.06933594
1173,-30.9375,-72.8125,-44.9375,1.318359,0.6811523,-0.2167969,-0.184082,-0.3144531,-0.06933594
1177,-22.375,-53.625,-17.5,1.209961,0.5839844,-0.2514648,-0.1831055,-0.3168945,-0.06787109
1181,-9.1875,-35.5625,-5.625,1.105469,0.5722656,-0.2475586,-0.1831055,-0.3129883,-0.06396484
1185,0.5625,-25,-7.125,1.027832,0.6186523,-0.2089844,-0.1831055,-0.3168945,-0.06542969
1189,3.875,-18.5625,-16,1.089844,0.7548828,-0.08203125,-0.1831055,-0.3168945,-0.0625
1193,-6.4375,-8.625,-21.875,1.22168,0.9101563,-0.01660156,-0.1831055,-0.3168945,-0.0625
1197,-20.1875,2.5625,-15.125,1.372559,0.9414063,0.03662109,-0.1806641,-0.3178711,-0.06103516
1201,-32.375,14.375,14.4375,1.43457,0.9492188,0.01367188,-0.1782227,-0.3168945,-0.06542969
1205,-42.5,14.5,57.6875,1.442383,0.987793,0.05957031,-0.1791992,-0.3168945,-0.06787109
1209,-49.4375,12,103.25,1.461914,0.9995117,-0.001464844,-0.1855469,-0.3120117,-0.07177734
1213,-47.5625,14.625,139.875,1.496582,0.9760742,-0.03222656,-0.1948242,-0.3041992,-0.07617188
1217,-38.25,24,169.25,1.52002,0.9995117,-0.08203125,-0.2006836,-0.2954102,-0.07763672
1221,-26.875,39.1875,189.6875,1.539551,1.061523,-0.1015625,-0.2138672,-0.2841797,-0.08300781
1225,-21.375,58.75,204.5,1.535645,1.217285,-0.08984375,-0.2246094,-0.2695313,-0.08691406
1229,-28.5625,78.625,214.125,1.48877,1.325684,-0.112793,-0.234375,-0.2592773,-0.09082031
1233,-39.9375,89.9375,220.3125,1.438477,1.39209,-0.128418,-0.2426758,-0.2416992,-0.1020508
1237,-48.375,92.6875,228.25,1.357422,1.283203,-0.2055664,-0.253418,-0.2231445,-0.1088867
1241,-43.6875,85.5,243.0625,1.310547,1.193848,-0.2397461,-0.2602539,-0.2104492,-0.1157227
1246,-35.375,75.625,258.5625,1.337891,1.174316,-0.2397461,-0.2685547,-0.1879883,-0.125
1250,-28.9375,78,270.75,1.39209,1.154785,-0.2324219,-0.2758789,-0.1645508,-0.1303711
1254,-28.1875,85.5,272.6875,1.380371,1.236328,-0.1938477,-0.2792969,-0.1479492,-0.1357422
1258,-42.4375,100.5625,266.1875,1.380371,1.287109,-0.1743164,-0.2817383,-0.1220703,-0.144043
1262,-48.8125,110.8125,254.75,1.337891,1.077148,-0.1860352,-0.2851563,-0.09716797,-0.1538086
1266,-42.625,119,262.375,1.26416,0.953125,-0.2475586,-0.2817383,-0.08203125,-0.1577148
1270,-35.875,97.8125,282.75,1.09375,0.840332,-0.2285156,-0.2807617,-0.05810547,-0.168457
1274,-26.625,72.6875,306.875,1.13623,0.7626953,-0.2207031,-0.2758789,-0.03076172,-0.1767578
1278,-13.8125,76.125,317.6875,1.318359,0.7705078,-0.128418,-0.2744141,-0.01171875,-0.1782227
1282,-21.375,107.125,300.75,1.326172,0.921875,-0.1362305,-0.2636719,0.01513672,-0.1850586
1286,-26.25,145.625,283.0625,1.260254,0.7314453,-0.1552734,-0.2543945,0.03857422,-0.1943359
1290,-23.8125,163.375,265.8125,0.9853516,0.5991211,-0.2324219,-0.2446289,0.05517578,-0.2026367
1294,-9.4375,155.9375,272.0625,0.8339844,0.4672852,-0.1938477,-0.2280273,0.07519531,-0.2133789
1298,-3.75,127.375,293.375,0.7373047,0.4399414,-0.1708984,-0.2104492,0.09228516,-0.2246094
1302,1.5625,109.125,315.125,0.8691406,0.4165039,-0.08203125,-0.1972656,0.1064453,-0.2285156
1306,3.0625,117.1875,317.5,0.9155273,0.3623047,-0.07470703,-0.1757813,0.1225586,-0.2353516
1310,12.4375,148.9375,307.625,0.8652344,0.3232422,-0.08984375,-0.1533203,0.1401367,-0.2392578
1314,16.375,170.5625,273.75,0.6401367,0.284668,-0.08984375,-0.1328125,0.1474609,-0.2475586
1318,12.25,161.8125,254.3125,0.3730469,0.2651367,-0.02441406,-0.1054688,0.1547852,-0.2568359
1322,8.125,128.125,261.625,0.3613281,0.07861328,0.04443359,-0.08056641,0.1625977,-0.2612305
1326,12.8125,118.375,287.3125,0.559082,0.04394531,0.07910156,-0.06494141,0.1650391,-0.2636719
1330,10.625,140,293.25,0.6635742,0.1953125,0.1674805,-0.03515625,0.1674805,-0.2666016
1334,-14.875,179.125,278.9375,0.5048828,0.4086914,0.2250977,-0.006835938,0.1699219,-0.2705078
1338,-60.25,198.5,243.125,0.05517578,0.3701172,0.2172852,0.01416016,0.1699219,-0.2666016
1342,-83.8125,196.9375,223.75,-0.3510742,0.07080078,0.1367188,0.04394531,0.1723633,-0.2626953
1346,-91.4375,147.5,240.25,-0.9477539,0.04736328,0.07519531,0.07373047,0.1748047,-0.2529297
1350,-101.4375,58.375,293.3125,-1.447754,0.121582,0.04785156,0.09033203,0.1723633,-0.2475586
1354,-112.3125,2.6875,303,-1.67627,0.171875,-0.005371094,0.1118164,0.1699219,-0.2392578
1358,-83.4375,9.375,237.5625,-1.889648,-0.01806641,-0.07861328,0.1318359,0.1660156,-0.2338867
1362,-42.375,48.5,64.9375,-2.114258,-0.1577148,-0.1054688,0.1416016,0.1635742,-0.2299805
1366,-1.1875,49.25,-84.875,-2.253906,-0.2392578,-0.1323242,0.1450195,0.1650391,-0.2255859
1370,18.375,0.125,-152.125,-1.843262,0.01269531,0.03662109,0.1401367,0.1713867,-0.2270508
1375,-5.875,-51.5,-167.8125,-1.253906,0.15625,0.125,0.1333008,0.1723633,-0.2255859
1379,-33.5,-81.6875,-175.75,-0.7270508,-0.05664063,0.1557617,0.1166992,0.1826172,-0.2285156
1383,-35,-77.1875,-181.25,-0.2661133,-0.4140625,0.09033203,0.09863281,0.1899414,-0.2270508
1387,-6.25,-44.0625,-190.375,-0.08789063,-0.5229492,0.01708984,0.08789063,0.1938477,-0.2270508
1391,31.5,-22.4375,-198.5625,-0.246582,-0.6860352,-0.009277344,0.06982422,0.2001953,-0.2285156
1395,58.375,-37.6875,-205.9375,-0.328125,-0.4335938,0.05566406,0.0546875,0.2026367,-0.230957
1399,55.625,-59.5625,-214.125,-0.1225586,-0.1538086,0.1826172,0.04052734,0.2011719,-0.230957
1403,34.75,-66.3125,-223.8125,0.1054688,-0.04541016,0.2519531,0.02001953,0.2001953,-0.2368164
1407,18.1875,-59.875,-233.8125,0.175293,-0.1347656,0.2060547,0.0009765625,0.1972656,-0.2392578
1411,25.0625,-58.9375,-237.375,0.1713867,-0.340332,0.140625,-0.01269531,0.1987305,-0.237793
1415,46.6875,-76.625,-241.75,0.1557617,-0.371582,0.1132813,-0.03417969,0.1948242,-0.2407227
1419,63.25,-106.5,-228.5625,0.3188477,-0.2124023,0.140625,-0.05810547,0.1875,-0.2421875
1423,55.9375,-135.625,-230.0625,0.5317383,0.1523438,0.2905273,-0.07226563,0.1826172,-0.2436523
1427,19.875,-115.25,-247.4375,0.9775391,0.2495117,0.2983398,-0.09619141,0.1723633,-0.2421875
1431,5.25,-78.875,-267.25,0.9697266,-0.07617188,0.1787109,-0.1201172,0.1635742,-0.237793
1435,39.5,-48.5,-261.9375,1.039551,-0.4101563,0.1289063,-0.1318359,0.1547852,-0.237793
1439,79.6875,-55.6875,-250.25,0.8535156,-0.3520508,0.05175781,-0.1494141,0.1425781,-0.237793
1443,114.125,-84,-200.3125,0.8222656,-0.2392578,0.02099609,-0.1665039,0.1235352,-0.2392578
1447,127,-131.625,-176.75,0.8535156,0.2573242,0.1557617,-0.1748047,0.1113281,-0.2407227
1451,93.5,-125.8125,-190.625,1.395996,0.9604492,0.2709961,-0.1923828,0.09521484,-0.237793
1455,34,-78.0625,-218.875,1.558594,0.4125977,0.2172852,-0.2055664,0.07861328,-0.2353516
1459,53.375,-34.875,-208.6875,1.415527,-0.1381836,0.125,-0.2128906,0.06738281,-0.2324219
1463,101.5625,-27.9375,-179.1875,1.012207,-0.1616211,0.001953125,-0.2197266,0.04736328,-0.2338867
1467,140.8125,-70.8125,-152.625,0.6948242,0.02441406,-0.03613281,-0.2255859,0.03027344,-0.2324219
1471,160.5,-129.5,-139.0625,0.7412109,0.4282227,0.01708984,-0.2304688,0.01513672,-0.230957
1475,129.9375,-125.5,-182.8125,1.283691,1.026855,0.2675781,-0.2412109,-0.005859375,-0.2246094
1479,68.3125,-80.9375,-221.25,1.287598,0.890625,0.1748047,-0.2485352,-0.02685547,-0.21875
1483,72.125,-66.5625,-235.3125,1.121094,0.4594727,0.125,-0.2543945,-0.04199219,-0.2148438
1487,101.3125,-73.0625,-231.8125,1.004395,0.5683594,0.01708984,-0.2553711,-0.06591797,-0.2109375
1491,116.4375,-92.9375,-223.125,0.8920898,0.7705078,-0.03222656,-0.2578125,-0.08837891,-0.2026367
1495,122.625,-126.375,-219.125,0.8730469,0.9956055,-0.05126953,-0.2592773,-0.1069336,-0.1958008
1499,108.375,-141.875,-247.9375,1.241211,1.461914,0.1479492,-0.2617188,-0.1293945,-0.1821289
1504,58.6875,-112.125,-283.75,1.42334,1.531738,0.1210938,-0.2592773,-0.1557617,-0.1713867
1508,37.75,-90.75,-307.625,1.407715,1.228516,0.07128906,-0.2543945,-0.1733398,-0.1660156
1512,51.5625,-87.25,-320,1.484863,1.197754,0.02099609,-0.2460938,-0.1982422,-0.1577148
1516,56.0625,-88.625,-300.25,1.43457,1.186035,0.04052734,-0.2353516,-0.2255859,-0.1494141
1520,53.8125,-111.625,-265.1875,1.368652,1.146973,0.05566406,-0.2255859,-0.2407227,-0.1425781
1524,54.3125,-135,-234.1875,1.372559,1.150879,0.06347656,-0.2172852,-0.2592773,-0.1289063
1528,42,-146.3125,-208.875,1.380371,1.20166,0.05566406,-0.206543,-0.2753906,-0.1181641
1532,22,-145.0625,-179.5625,1.442383,1.178223,0.08251953,-0.199707,-0.2856445,-0.1113281
1536,2.125,-129.75,-140,1.48877,1.09668,0.08642578,-0.1923828,-0.296875,-0.1020508
1540,-17.8125,-108.0625,-96.625,1.454102,0.9916992,0.06347656,-0.1875,-0.3041992,-0.09375
1544,-34.4375,-86.5625,-60.125,1.380371,0.8442383,0.005859375,-0.1855469,-0.3081055,-0.09228516
1548,-39.75,-69.25,-35.1875,1.244629,0.6845703,-0.04394531,-0.1831055,-0.3105469,-0.08544922
1552,-36.625,-60.5,-22.9375,1.147949,0.6381836,-0.08203125,-0.1806641,-0.3120117,-0.08984375
1556,-30.0625,-53.6875,-19.1875,1.13623,0.5878906,-0.0859375,-0.1806641,-0.3120117,-0.08691406
1560,-18.875,-44.1875,-16.1875,1.186523,0.5761719,-0.07080078,-0.1816406,-0.3120117,-0.08544922
1564,-8.4375,-28.375,-9.5625,1.271973,0.6186523,-0.04394531,-0.1816406,-0.3129883,-0.08691406
1568,-0.125,-9.25,0.6875,1.310547,0.7158203,-0.005371094,-0.1806641,-0.3129883,-0.08447266
1572,-4.0625,6.9375,19.5,1.29541,0.8481445,0.05175781,-0.1816406,-0.3120117,-0.08544922
1576,-13.75,16.875,42.8125,1.237305,0.8945313,0.09423828,-0.1831055,-0.3095703,-0.08837891
1580,-20.6875,24.8125,58.75,1.198242,0.9296875,0.09423828,-0.1855469,-0.3081055,-0.08691406
1584,-28.75,32.125,71.125,1.179199,0.956543,0.07519531,-0.1889648,-0.3032227,-0.09228516
1588,-31.75,35.5,83.3125,1.182617,0.953125,0.05957031,-0.1948242,-0.2983398,-0.09912109
1592,-33.9375,38.125,96.25,1.248535,0.9995117,0.05175781,-0.1972656,-0.2929688,-0.09912109
1596,-35.0625,38,116.125,1.314453,1.022949,0.05566406,-0.2055664,-0.2841797,-0.1035156
1600,-36.3125,35.25,145.1875,1.388184,1.108398,0.04443359,-0.2104492,-0.2768555,-0.1074219
1604,-42.125,34.5625,178.9375,1.473633,1.174316,0.02880859,-0.2163086,-0.2695313,-0.112793
1608,-51,41.75,211.5625,1.477539,1.20166,-0.009277344,-0.2270508,-0.2558594,-0.1166992
1612,-54.6875,54.25,229.9375,1.446289,1.20166,-0.05126953,-0.2387695,-0.2368164,-0.1235352
1616,-57.875,69,232.4375,1.411621,1.236328,-0.07470703,-0.2446289,-0.2231445,-0.1289063
1620,-62.375,82.9375,227.6875,1.43457,1.267578,-0.08203125,-0.2553711,-0.2045898,-0.137207
1624,-64.8125,93.1875,239.25,1.395996,1.20166,-0.1474609,-0.2617188,-0.1845703,-0.1455078
1628,-62.8125,86.5625,259.25,1.326172,1.166504,-0.1435547,-0.2636719,-0.1669922,-0.1538086
1633,-60.375,69.375,285.625,1.29541,1.120117,-0.1552734,-0.2700195,-0.1420898,-0.1591797
1637,-52.0625,62.9375,302.6875,1.403809,1.038574,-0.1206055,-0.2744141,-0.1132813,-0.1674805
1641,-47.25,87.25,295.9375,1.484863,1.12793,-0.05908203,-0.2758789,-0.09423828,-0.168457
1645,-49.5,125.625,276.4375,1.419434,1.003418,-0.07861328,-0.2734375,-0.06933594,-0.1796875
1649,-47.6875,147.5625,263.3125,1.151855,0.90625,-0.1245117,-0.2700195,-0.04296875,-0.1904297
1653,-43.6875,141.1875,255.4375,1.004395,0.7895508,-0.1362305,-0.2626953,-0.02832031,-0.1958008
1657,-39.5625,118.5625,262.875,0.9892578,0.7353516,-0.08984375,-0.2553711,-0.004394531,-0.2080078
1661,-42.0625,109.9375,276.9375,1.124512,0.7626953,-0.009277344,-0.2460938,0.01757813,-0.2163086
1665,-59.125,118.4375,282.875,1.159668,0.855957,0.07910156,-0.237793,0.03125,-0.2177734
1669,-89.6875,137.6875,282.125,1.128418,0.9023438,0.07910156,-0.2211914,0.05761719,-0.2270508
1673,-107.8125,144.9375,271.75,1.023926,0.5097656,-0.01660156,-0.2055664,0.08251953,-0.230957
1677,-85,150.1875,291.625,0.9775391,0.1875,-0.0859375,-0.1948242,0.09765625,-0.2353516
1681,-60.1875,121.4375,312.1875,0.6870117,0.2265625,-0.005371094,-0.1723633,0.1186523,-0.2392578
1685,-61.9375,94,322.875,0.6289063,0.4282227,0.04443359,-0.1474609,0.1386719,-0.2436523
1689,-72,83.0625,321.9375,0.7915039,0.2885742,0.125,-0.1303711,0.1513672,-0.2421875
1693,-74.125,105.5625,299.25,0.7373047,0.1914063,0.06738281,-0.1079102,0.1674805,-0.2421875
1697,-61.625,122.375,293.0625,0.5898438,-0.01025391,0.005859375,-0.08056641,0.1801758,-0.2421875
1701,-43.6875,115.8125,289.375,0.2529297,-0.04150391,0.009765625,-0.06298828,0.1884766,-0.2421875
1705,-28.875,81.0625,284.375,0.1831055,-0.08398438,0.105957,-0.03515625,0.1948242,-0.2421875
1709,-34.9375,71.3125,279.5,0.2138672,0.06298828,0.1557617,-0.009277344,0.2001953,-0.2407227
1713,-42.5,72.0625,261.25,0.1445313,-0.02978516,0.2021484,0.008300781,0.2001953,-0.2368164
1717,-50.125,72.5625,249.3125,-0.06445313,-0.06445313,0.125,0.02832031,0.2026367,-0.2353516
1721,-47.5,65.875,249.625,-0.347168,-0.1616211,0.09814453,0.05322266,0.2001953,-0.2324219
1725,-41.6875,59.5625,235.3125,-0.7114258,-0.2587891,0.05175781,0.06884766,0.1987305,-0.2285156
1729,-30.375,58.125,195.8125,-0.9711914,-0.1347656,0.05175781,0.08886719,0.1962891,-0.2255859
1733,-23.8125,53.875,150.5,-1.273438,-0.06835938,0.02490234,0.1044922,0.1914063,-0.2231445
1737,-19,38.5625,105.4375,-1.603027,-0.07226563,-0.009277344,0.112793,0.1875,-0.2177734
1741,-14.5625,9.5,48.0625,-1.78125,-0.1269531,-0.02050781,0.1210938,0.1860352,-0.2202148
1745,-1.875,-13.9375,-11.875,-1.637695,-0.1733398,0.01367188,0.1210938,0.1850586,-0.2163086
1749,7.875,-20.5625,-63.5625,-1.315918,-0.2006836,0.05566406,0.1210938,0.1860352,-0.2177734
1753,15.5,-18.625,-107.875,-1.083496,-0.2509766,0.09423828,0.1142578,0.1875,-0.2202148
1757,25.375,-13.625,-145.875,-0.8046875,-0.3134766,0.1713867,0.1069336,0.1923828,-0.2202148
1762,29,-9.25,-172.9375,-0.6147461,-0.3520508,0.1479492,0.09619141,0.1948242,-0.2231445
1766,35.5625,-9,-185.0625,-0.4946289,-0.4375,0.140625,0.08447266,0.2001953,-0.2246094
1770,47.4375,-19.8125,-188.1875,-0.4790039,-0.4765625,0.1098633,0.06982422,0.2001953,-0.2299805
1774,55.625,-38.75,-194.9375,-0.3935547,-0.3017578,0.1674805,0.05810547,0.2001953,-0.2299805
1778,42.1875,-52.9375,-224.3125,-0.2080078,-0.08789063,0.2788086,0.04052734,0.2036133,-0.2338867
1782,22.75,-62.9375,-246.3125,-0.1186523,-0.1381836,0.2441406,0.02148438,0.2011719,-0.237793
1786,18.375,-88.125,-252.5625,-0.07226563,-0.2470703,0.1635742,0.003417969,0.2026367,-0.2338867
1790,22,-121.8125,-235.0625,0.09033203,-0.3173828,0.08642578,-0.02099609,0.2011719,-0.237793
1794,42.4375,-147.25,-213.4375,0.3071289,-0.3754883,0.05957031,-0.04492188,0.1962891,-0.237793
1798,43.125,-110.3125,-258.625,0.8496094,0.2338867,0.3134766,-0.06298828,0.1899414,-0.2368164
1802,11.6875,-59.4375,-305.8125,0.5048828,0.08642578,0.2519531,-0.08544922,0.1826172,-0.2368164
1806,19,-105.375,-332.4375,0.3071289,-0.1459961,0.1328125,-0.1103516,0.1723633,-0.2353516
1810,33.375,-144.6875,-277.1875,0.9697266,-0.09570313,0.125,-0.1303711,0.1635742,-0.2324219
1814,42.0625,-158.5,-210.875,1.163574,-0.1420898,0.09423828,-0.1557617,0.1499023,-0.2285156
1818,53.0625,-130.125,-201.875,1.438477,0.3427734,0.3364258,-0.1757813,0.1362305,-0.2231445
1822,10.25,-66.1875,-246.4375,1.52002,0.4555664,0.2558594,-0.1875,0.1274414,-0.2202148
1826,14.625,-6.1875,-261.1875,1.368652,-0.1772461,0.2133789,-0.199707,0.1123047,-0.21875
1830,54.4375,-3.25,-244.4375,1.043457,-0.1191406,0.1479492,-0.2114258,0.09375,-0.21875
1834,63.75,-56.0625,-200.25,0.6948242,0.1098633,0.1020508,-0.2172852,0.08251953,-0.2202148
1838,69.25,-137.4375,-167.9375,0.9194336,0.269043,0.1826172,-0.2270508,0.06494141,-0.2163086
1842,44.875,-106.25,-196.8125,1.729004,0.7587891,0.3291016,-0.2402344,0.04882813,-0.2094727
1846,14.75,-16.5625,-216.3125,1.608887,0.3427734,0.2480469,-0.2460938,0.03515625,-0.2055664
1850,47.8125,5.5625,-214.25,1.082031,0.01269531,0.1748047,-0.2519531,0.01855469,-0.206543
1854,65.5625,-31.625,-193.8125,0.6171875,0.3349609,0.07910156,-0.253418,-0.0004882813,-0.2080078
1858,72.8125,-92.0625,-167.6875,0.659668,0.3310547,0.04785156,-0.2568359,-0.01318359,-0.2041016
1862,71.25,-106.6875,-189.4375,1.105469,0.9956055,0.2709961,-0.2636719,-0.03076172,-0.1987305
1866,21.25,-62.1875,-230.375,1.388184,1.026855,0.2211914,-0.2685547,-0.05078125,-0.1904297
1870,17.625,-38.25,-240.375,1.155762,0.5410156,0.1635742,-0.2709961,-0.06591797,-0.1889648
1874,41,-40.75,-229.3125,1.082031,0.5644531,0.105957,-0.2700195,-0.08447266,-0.1865234
1878,55.3125,-41.25,-214.5625,1.008301,0.6616211,0.06347656,-0.2675781,-0.1054688,-0.1821289
1882,73.5,-53.4375,-201.6875,0.8378906,0.7119141,-0.005371094,-0.2661133,-0.1206055,-0.1782227
1886,80.5,-60.5625,-214.4375,0.9541016,1.104492,0.05566406,-0.2636719,-0.140625,-0.1699219
1891,64.6875,-40.125,-243.1875,1.101563,1.287109,0.09814453,-0.2617188,-0.1630859,-0.1645508
1895,59.75,-23,-264.125,1.047363,1.104492,0.07519531,-0.253418,-0.1767578,-0.1630859
1899,76.4375,-27.3125,-268.3125,0.9931641,1.038574,0.001953125,-0.2446289,-0.2016602,-0.1591797
1903,90.1875,-48.4375,-261.25,0.9580078,1.077148,-0.06298828,-0.2319336,-0.2270508,-0.1538086
1907,108.5625,-92.0625,-229.3125,0.8881836,1.045898,-0.1591797,-0.2246094,-0.2407227,-0.1484375
1911,122.75,-136.625,-199.8125,1.02002,1.135742,-0.1245117,-0.2163086,-0.2583008,-0.1318359
1915,109.0625,-147.0625,-200.25,1.364746,1.570801,0.04052734,-0.206543,-0.2768555,-0.1166992
1919,56.125,-124,-198,1.535645,1.601563,0.09814453,-0.2006836,-0.2866211,-0.1044922
1923,11,-105.5,-168.125,1.558594,1.310547,0.05175781,-0.1899414,-0.3007813,-0.09667969
1927,-13.625,-88.125,-102.5,1.624512,0.956543,-0.001464844,-0.1816406,-0.3105469,-0.08984375
1931,-17.375,-67.0625,-38.3125,1.558594,0.6923828,-0.04003906,-0.1791992,-0.3120117,-0.08691406
1935,-7.75,-41.4375,-4.75,1.442383,0.6186523,-0.07861328,-0.1782227,-0.3129883,-0.08544922
1939,-0.5625,-15,2.375,1.260254,0.6733398,-0.08203125,-0.1791992,-0.3154297,-0.08300781
1943,2.75,0,1.5,1.13623,0.6845703,-0.04736328,-0.1782227,-0.3144531,-0.08300781
1947,4.6875,8.8125,4.9375,1.109375,0.7080078,-0.02441406,-0.1806641,-0.3129883,-0.08300781
1951,5.5625,14.125,16.9375,1.09375,0.7626953,0.03271484,-0.1791992,-0.3154297,-0.08300781
1955,2.5,13.1875,34.75,1.09375,0.855957,0.05566406,-0.1831055,-0.3129883,-0.08447266
1959,-11.75,11.1875,46.5,1.163574,1.019043,0.125,-0.1855469,-0.3120117,-0.08300781
1963,-30.4375,12.8125,59.25,1.229492,0.9956055,0.1171875,-0.1865234,-0.3095703,-0.08691406
1967,-38.4375,17.0625,80.3125,1.291504,0.9179688,0.07128906,-0.1914063,-0.3032227,-0.08837891
1971,-35.625,25.75,104.125,1.333984,0.8710938,0.03662109,-0.1972656,-0.296875,-0.09082031
1975,-27.1875,38,124,1.341797,0.8867188,-0.01660156,-0.2055664,-0.2895508,-0.09667969
1979,-19,48.75,138.4375,1.341797,0.9760742,-0.03222656,-0.2080078,-0.2832031,-0.1005859
1983,-18.5,54.3125,151.75,1.345703,1.108398,0.005859375,-0.2172852,-0.2729492,-0.1035156
1987,-31.6875,60.125,162.375,1.415527,1.283203,0.04443359,-0.2246094,-0.2592773,-0.1113281
1991,-45.125,63.1875,181.375,1.42334,1.240234,-0.005371094,-0.2319336,-0.2519531,-0.112793
1995,-43.5625,61.3125,208,1.508301,1.135742,-0.05908203,-0.2387695,-0.2358398,-0.1196289
1999,-35.5,72.25,234.875,1.616699,1.158691,-0.1015625,-0.2470703,-0.2182617,-0.1279297
2003,-33.5625,83.5,260.375,1.500488,1.251953,-0.1669922,-0.2543945,-0.2055664,-0.1333008
2007,-42,71.6875,279.9375,1.306641,1.337402,-0.1669922,-0.2636719,-0.1831055,-0.1401367
2011,-50.8125,58.9375,284,1.326172,1.333496,-0.112793,-0.2724609,-0.1567383,-0.1455078
2015,-55.5625,60,281.5,1.384277,1.197754,-0.1054688,-0.2758789,-0.1396484,-0.1508789
2020,-46.3125,72.0625,277.4375,1.426758,1.061523,-0.1323242,-0.2792969,-0.1132813,-0.15625
2024,-31.25,89.0625,282.9375,1.484863,0.9023438,-0.1474609,-0.2807617,-0.08544922,-0.1616211
2028,-20.375,86.3125,302.5,1.198242,0.9257813,-0.2016602,-0.2792969,-0.06835938,-0.168457
2032,-15.625,62.4375,314.1875,1.147949,0.9838867,-0.1362305,-0.2768555,-0.04199219,-0.1738281
2036,-26.25,57.5,310.5625,1.275879,1.04248,-0.07080078,-0.2744141,-0.01464844,-0.1806641
2040,-36.1875,88.875,297.3125,1.446289,0.8828125,-0.04736328,-0.2685547,0.00390625,-0.1821289
2044,-33.25,137.75,277.625,1.333984,0.6811523,-0.1323242,-0.2592773,0.02880859,-0.1889648
2048,-16.375,161.1875,272.5,1.043457,0.5605469,-0.1821289,-0.2470703,0.05126953,-0.199707
2052,-10.125,135.9375,289.375,0.7373047,0.5991211,-0.1630859,-0.2353516,0.06640625,-0.2080078
2056,-18.75,88.125,308.375,0.6479492,0.6923828,-0.06298828,-0.2197266,0.08642578,-0.2163086
2060,-33.1875,65.375,313.0625,0.8881836,0.5952148,0.02880859,-0.203125,0.1074219,-0.2202148
2064,-36.6875,92.625,299.4375,1.000488,0.4750977,0.009765625,-0.1899414,0.1225586,-0.2202148
2068,-32.875,117.625,257.375,0.8496094,0.2573242,-0.02441406,-0.168457,0.1411133,-0.2255859
2072,-12.5,141.875,244.0625,0.8730469,0.1484375,-0.04003906,-0.1484375,0.1547852,-0.230957
2076,-5.625,149.625,257.25,0.6831055,0.1875,-0.01318359,-0.1328125,0.1635742,-0.2368164
2080,-14.375,129.8125,277.875,0.4038086,0.284668,0.005859375,-0.1069336,0.1713867,-0.2407227
2084,-25.125,103.875,284.0625,0.3925781,0.2416992,0.09814453,-0.07958984,0.1811523,-0.2436523
2088,-40.25,113.125,259,0.5200195,0.3232422,0.1787109,-0.06396484,0.1875,-0.2436523
2092,-54.625,147.4375,248.8125,0.4155273,0.06689453,0.1132813,-0.03759766,0.1938477,-0.2446289
2096,-53.875,155.375,259.125,-0.1499023,-0.07617188,-0.005371094,-0.009277344,0.2001953,-0.2392578
2100,-41.875,133.75,257.5625,-0.5449219,-0.1347656,0.02099609,0.01074219,0.2026367,-0.237793
2104,-36.125,106.8125,240.1875,-0.9169922,-0.03759766,0.1020508,0.0390625,0.2001953,-0.2338867
2108,-48.75,84.5,194.5,-1.242188,0.1333008,0.09814453,0.06298828,0.1987305,-0.2299805
2112,-65.5,61.625,147,-1.641602,-0.04541016,0.02099609,0.07373047,0.1987305,-0.2270508
2116,-58.875,14.8125,93.9375,-2.094727,-0.3134766,-0.05517578,0.08544922,0.2001953,-0.2231445
2120,-32.0625,-37.3125,37.3125,-1.974609,-0.3911133,-0.06689453,0.09033203,0.2011719,-0.21875
2124,-10.0625,-44.1875,-27.8125,-1.459473,-0.371582,-0.005371094,0.09033203,0.2026367,-0.2177734
2128,10.375,-28.4375,-88.0625,-1.075684,-0.3754883,0.05566406,0.08300781,0.2026367,-0.21875
2132,18.8125,-13.625,-133.875,-0.8164063,-0.2666016,0.1328125,0.07373047,0.2036133,-0.2202148
2136,13.5625,-18.0625,-162.5,-0.6728516,-0.3286133,0.1479492,0.06884766,0.2060547,-0.2216797
2140,9.125,-44.125,-165.8125,-0.5644531,-0.355957,0.1635742,0.05322266,0.2084961,-0.2231445
2144,2.9375,-76.625,-165.25,-0.362793,-0.4067383,0.1557617,0.03808594,0.2114258,-0.2246094
2149,7.0625,-89.1875,-168.625,-0.08789063,-0.46875,0.144043,0.0234375,0.2138672,-0.2255859
2153,12.0625,-73.3125,-188.375,0.2646484,-0.3637695,0.2021484,0.005859375,0.2124023,-0.2255859
2157,6.9375,-50.4375,-205.25,0.2177734,-0.3095703,0.2211914,-0.01269531,0.2114258,-0.2246094
2161,4.875,-62.0625,-213.9375,0.1484375,-0.3481445,0.1865234,-0.02587891,0.2124023,-0.2246094
2165,2.5,-92.3125,-209.9375,0.1445313,-0.3442383,0.1674805,-0.04589844,0.2084961,-0.2216797
2169,10.25,-105.4375,-190.1875,0.4697266,-0.4414063,0.09033203,-0.06640625,0.2060547,-0.2231445
2173,30.4375,-97.0625,-186.875,0.5356445,-0.3637695,0.125,-0.07958984,0.2026367,-0.2216797
2177,27.6875,-74.125,-213.5,0.527832,0.09033203,0.2133789,-0.09863281,0.1948242,-0.21875
2181,-5.8125,-82.4375,-250.5,0.2724609,0.105957,0.1289063,-0.1201172,0.1860352,-0.2177734
2185,-10.25,-130,-266.25,0.3730469,-0.1308594,0.03271484,-0.1352539,0.1801758,-0.2148438
2189,5.3125,-153.8125,-255.5625,0.8183594,-0.2822266,-0.02832031,-0.1591797,0.1689453,-0.2055664
2193,37.125,-138.625,-233,1.117188,-0.3754883,-0.09375,-0.1816406,0.1538086,-0.199707
2197,76,-115.8125,-205.75,1.074219,-0.1694336,-0.02050781,-0.1948242,0.1435547,-0.1958008
2201,54.0625,-102.8125,-222.6875,0.9619141,0.5800781,0.08642578,-0.2128906,0.1274414,-0.1918945
2205,6.3125,-93.1875,-257.1875,1.043457,0.5292969,0.06347656,-0.2280273,0.1098633,-0.1889648
2209,1.625,-79,-266.4375,1.09375,0.07080078,0.001953125,-0.237793,0.09619141,-0.1835938
2213,40.125,-53.5625,-261.625,1.163574,-0.1074219,-0.04003906,-0.2509766,0.07617188,-0.1796875
2217,74.1875,-55.4375,-240.875,0.7373047,0.0009765625,-0.1591797,-0.2602539,0.05517578,-0.1767578
2221,93.3125,-118.625,-209.9375,0.659668,0.4750977,-0.1054688,-0.2675781,0.03857422,-0.175293
2225,49.5,-155.4375,-213.3125,1.229492,1.049805,0.04052734,-0.2758789,0.01757813,-0.1660156
2229,-3.4375,-108.4375,-231.0625,1.744629,0.9101563,0.07910156,-0.2866211,-0.001953125,-0.1547852
2233,-6.5625,-27.1875,-240.5625,1.73291,0.4013672,0.001953125,-0.2915039,-0.015625,-0.1508789
2237,31.625,28.125,-233,1.322266,0.2109375,-0.05908203,-0.2915039,-0.03955078,-0.1508789
2241,68.625,24.5,-221.3125,0.7680664,0.3662109,-0.1552734,-0.2890625,-0.05957031,-0.1547852
2245,95.4375,-33.875,-209.875,0.4892578,0.5878906,-0.2167969,-0.2875977,-0.07568359,-0.1547852
2249,105.1875,-95.625,-209,0.6557617,0.875,-0.2128906,-0.2851563,-0.09814453,-0.1494141
2253,98.125,-113.5625,-220.5625,1.047363,1.12793,-0.1552734,-0.2851563,-0.1220703,-0.1386719
2257,85.3125,-80.9375,-242.8125,1.291504,1.174316,-0.1362305,-0.2851563,-0.1381836,-0.1289063
2261,86.5625,-37.125,-263.9375,1.275879,1.120117,-0.1743164,-0.2792969,-0.1621094,-0.1225586
2265,105.25,-16.8125,-280.6875,1.151855,1.081055,-0.2089844,-0.2675781,-0.1879883,-0.1181641
2269,128.625,-22.25,-274,1.059082,1.131836,-0.2436523,-0.2626953,-0.2080078,-0.1113281
2273,147.1875,-45.5,-253.875,1.09375,1.259766,-0.2363281,-0.2485352,-0.2329102,-0.105957
2278,153.9375,-65.9375,-224.1875,1.225586,1.36084,-0.1782227,-0.2363281,-0.2543945,-0.09228516
2282,134.5625,-65.0625,-204.0625,1.477539,1.523926,-0.09375,-0.2280273,-0.2695313,-0.08300781
2286,101.75,-49.0625,-187.9375,1.5625,1.512207,0.001953125,-0.2172852,-0.2856445,-0.07080078
2290,65,-31.1875,-173.0625,1.597656,1.388184,0.05566406,-0.2045898,-0.2983398,-0.0625
2294,27.375,-23.9375,-148.25,1.527832,1.240234,0.07519531,-0.1962891,-0.3056641,-0.05566406
2298,-3.5,-30.4375,-111.4375,1.48877,1.053711,0.05175781,-0.1865234,-0.3129883,-0.05712891
2302,-26.1875,-44.4375,-62.75,1.450195,0.8671875,0.02099609,-0.1782227,-0.3193359,-0.05566406
2306,-35.625,-45.3125,-17.4375,1.531738,0.7392578,-0.009277344,-0.1772461,-0.3208008,-0.05175781
2310,-43.6875,-32.75,9.375,1.508301,0.7314453,-0.02832031,-0.1757813,-0.3232422,-0.05566406
2314,-50.0625,-20.0625,25.25,1.446289,0.7236328,-0.04394531,-0.1772461,-0.3193359,-0.05712891
2318,-53.25,-6.5625,35.625,1.46582,0.7236328,-0.02050781,-0.1806641,-0.3178711,-0.05859375
2322,-51.4375,11.9375,49.8125,1.508301,0.7275391,0.01367188,-0.184082,-0.3154297,-0.06396484
2326,-44.875,34.625,62.875,1.535645,0.7548828,0.04443359,-0.1865234,-0.3120117,-0.06933594
2330,-47.0625,48.875,84.375,1.458008,0.8945313,0.05566406,-0.1914063,-0.3081055,-0.07080078
2334,-56.0625,44.5625,114.0625,1.399902,1.034668,0.06738281,-0.1972656,-0.3017578,-0.07763672
2338,-65.375,39.9375,143.9375,1.458008,1.104492,0.02880859,-0.2055664,-0.2929688,-0.08544922
2342,-70.25,45.5,170.125,1.523926,1.17041,-0.001464844,-0.2104492,-0.2832031,-0.09082031
2346,-74.5,58.75,187.5625,1.605469,1.221191,-0.04736328,-0.2211914,-0.2695313,-0.09765625
2350,-76.9375,81,202.5625,1.63623,1.259766,-0.1323242,-0.2319336,-0.2543945,-0.1088867
2354,-75.875,99.5,215.25,1.5625,1.248047,-0.1669922,-0.2387695,-0.2431641,-0.1142578
2358,-77.125,99.8125,236.125,1.388184,1.255859,-0.2089844,-0.2470703,-0.2231445,-0.125
2362,-79.375,85.9375,251.25,1.337891,1.310547,-0.1708984,-0.2553711,-0.203125,-0.1386719
2366,-85.125,70.875,266,1.361328,1.306641,-0.1401367,-0.2617188,-0.1855469,-0.1425781
2370,-90.0625,63.5625,283.75,1.438477,1.236328,-0.1166992,-0.2685547,-0.1621094,-0.1523438
2374,-86.8125,71.25,295.375,1.52002,1.12793,-0.1474609,-0.2734375,-0.1293945,-0.1591797
2378,-74.375,91.25,306.6875,1.496582,1.026855,-0.1977539,-0.2758789,-0.1132813,-0.1645508
2382,-62.3125,107.875,312.25,1.388184,0.9492188,-0.2055664,-0.2768555,-0.08203125,-0.1713867
2386,-58.5,118,309.25,1.194336,1.04248,-0.2016602,-0.2734375,-0.05175781,-0.1806641
2390,-65.25,115.9375,298.8125,1.039551,0.9838867,-0.1708984,-0.2709961,-0.03466797,-0.1865234
2394,-69.5,108.125,289.0625,0.9853516,0.8286133,-0.1552734,-0.2626953,-0.005859375,-0.1943359
2398,-66.25,108.75,279.375,1.031738,0.6884766,-0.1552734,-0.2553711,0.01855469,-0.2026367
2402,-55.3125,116.5,279.75,1.027832,0.5019531,-0.1860352,-0.2485352,0.03857422,-0.206543
2407,-37.9375,111.875,278.75,0.9038086,0.4907227,-0.1782227,-0.234375,0.05859375,-0.2133789
2411,-28.8125,103.5625,280.4375,0.9272461,0.4633789,-0.1474609,-0.21875,0.08105469,-0.21875
2415,-22.75,110.1875,276.625,1.012207,0.3818359,-0.09765625,-0.2080078,0.09619141,-0.2231445
2419,-27.9375,137.4375,252.375,0.9853516,0.5214844,-0.05126953,-0.1889648,0.1137695,-0.2299805
2423,-37.125,157.375,235.5,0.8417969,0.300293,-0.08984375,-0.1674805,0.1289063,-0.237793
2427,-26.75,153.4375,237.375,0.690918,0.05126953,-0.1401367,-0.1542969,0.1362305,-0.2421875
2431,-4.6875,142.5,260.375,0.6171875,-0.05273438,-0.1323242,-0.1293945,0.1474609,-0.2490234
2435,11.4375,131.9375,275.625,0.59375,0.06689453,-0.07470703,-0.1044922,0.1577148,-0.2529297
2439,10.1875,139.1875,259.875,0.7060547,0.21875,0.05957031,-0.08886719,0.1650391,-0.2568359
2443,-17.0625,182.3125,224.25,0.6132813,0.3701172,0.1210938,-0.06152344,0.1689453,-0.2597656
2447,-36.6875,198.4375,199.5,0.2836914,-0.01806641,0.05175781,-0.03417969,0.1723633,-0.2626953
2451,-30.875,177.4375,209.0625,-0.1381836,-0.1811523,-0.02441406,-0.01611328,0.1762695,-0.2626953
2455,-19.6875,126.3125,222.25,-0.3007813,-0.1928711,0.06347656,0.009277344,0.1762695,-0.2626953
2459,-19.25,94.625,226.3125,-0.4208984,-0.04541016,0.1865234,0.03564453,0.1772461,-0.2597656
2463,-32,81.9375,193.875,-0.4711914,-0.01025391,0.3095703,0.04882813,0.1748047,-0.2597656
2467,-39.5,90.25,151.4375,-0.7734375,-0.2045898,0.2094727,0.06787109,0.1748047,-0.2558594
2471,-29.1875,81.6875,92.75,-1.172852,-0.4335938,0.1713867,0.08056641,0.1723633,-0.2529297
2475,-12.6875,42.8125,65.375,-1.420898,-0.3442383,0.1328125,0.08789063,0.1738281,-0.2490234
2479,-12.75,-5.4375,70,-1.428223,-0.3017578,0.1826172,0.09375,0.1723633,-0.25
2483,-1.6875,-23.9375,57.375,-1.223145,-0.4335938,0.1713867,0.09765625,0.1723633,-0.2475586
2487,17.875,-14.6875,12.125,-1.060547,-0.4726563,0.2094727,0.09863281,0.1699219,-0.2490234
2491,27.625,-1.25,-46.375,-0.878418,-0.3754883,0.3056641,0.09863281,0.1689453,-0.25
2495,19.9375,0.375,-88.6875,-0.7695313,-0.3637695,0.3291016,0.09375,0.1699219,-0.2529297
2499,10.875,-23.8125,-103.9375,-0.7036133,-0.4804688,0.3251953,0.09033203,0.1699219,-0.2529297
2503,5.75,-58.625,-100.5,-0.5063477,-0.5112305,0.3364258,0.07958984,0.1723633,-0.2543945
2507,-0.3125,-77,-92.6875,-0.2890625,-0.5307617,0.3134766,0.07128906,0.1738281,-0.2558594
2511,0.0625,-69.9375,-95.5625,-0.1689453,-0.5424805,0.2905273,0.06152344,0.1762695,-0.2558594
2515,1.875,-45.625,-119.125,-0.1728516,-0.4296875,0.3017578,0.04980469,0.1772461,-0.2558594
2519,-0.125,-30,-153.375,-0.215332,-0.3520508,0.3095703,0.0390625,0.1772461,-0.2568359
2523,-3.5,-30.1875,-177.0625,-0.2119141,-0.3442383,0.2675781,0.02978516,0.1811523,-0.2568359
2527,-3.375,-50,-182.0625,-0.1845703,-0.3754883,0.2441406,0.01416016,0.1850586,-0.2568359
2531,-1.4375,-75.6875,-169.75,-0.04882813,-0.3833008,0.2133789,-0.003417969,0.1835938,-0.2568359
2536,3.625,-102.9375,-158.5625,0.02050781,-0.340332,0.2060547,-0.01269531,0.1826172,-0.2558594
2540,0.5,-104.4375,-165.75,0.3808594,-0.1308594,0.2827148,-0.03173828,0.1811523,-0.2543945
2544,-16.875,-61,-194.3125,0.59375,-0.06445313,0.3291016,-0.04980469,0.1811523,-0.2529297
2548,-14.125,-27.375,-216,0.4350586,-0.324707,0.2402344,-0.06152344,0.1801758,-0.25
2552,2.5625,-38.125,-216.75,0.1870117,-0.3520508,0.144043,-0.07714844,0.1748047,-0.25
2556,22.6875,-74.25,-207.1875,0.1713867,-0.3208008,0.1289063,-0.09375,0.1689453,-0.2460938
2560,30.625,-119,-201.5,0.3574219,-0.02978516,0.1826172,-0.1054688,0.1650391,-0.2475586
2564,10.375,-116.0625,-216.3125,0.9580078,0.2612305,0.3134766,-0.1259766,0.1547852,-0.2436523
2568,-8,-68.125,-240,1.252441,0.1640625,0.3637695,-0.1450195,0.1450195,-0.237793
2572,-31.6875,-47.375,-246.6875,0.8339844,0.09033203,0.2749023,-0.1582031,0.1386719,-0.2353516
2576,-25.625,-104.25,-217.5625,0.6674805,-0.2124023,0.140625,-0.1733398,0.1289063,-0.230957
2580,-5.25,-161.875,-165.75,0.7255859,-0.3134766,0.01367188,-0.1899414,0.1201172,-0.2216797
2584,34.3125,-178.5625,-141.125,1.047363,-0.3754883,-0.02832031,-0.203125,0.1123047,-0.2148438
2588,73.625,-141.8125,-146.25,1.225586,-0.08789063,0.04785156,-0.21875,0.1010742,-0.2055664
2592,67.25,-76.25,-176.6875,1.260254,0.4516602,0.1748047,-0.2304688,0.08740234,-0.199707
2596,26.5,-24.625,-211.8125,0.9194336,0.5644531,0.1674805,-0.2363281,0.07763672,-0.2011719
2600,12.9375,-45.125,-236.9375,0.4853516,0.3662109,0.08642578,-0.2470703,0.05859375,-0.1987305
2604,24.0625,-104.5,-235.4375,0.4233398,0.2416992,-0.05517578,-0.253418,0.03857422,-0.1943359
2608,48.5,-144.6875,-230.375,0.7719727,0.3466797,-0.1054688,-0.2617188,0.02734375,-0.1889648
2612,58.125,-133.75,-243.6875,1.279785,0.9179688,0.09033203,-0.2709961,0.006347656,-0.1782227
2616,-1.6875,-72.625,-300,1.725586,1.652344,0.2636719,-0.2792969,-0.02050781,-0.1699219
2620,-66.625,-24.375,-324.5,1.554688,1.205566,0.1826172,-0.2817383,-0.03564453,-0.1674805
2624,-47.8125,-34.625,-303.1875,1.29541,0.5292969,0.07519531,-0.2817383,-0.06201172,-0.1645508
2628,4.875,-46.875,-260.1875,1.411621,0.4594727,0.06347656,-0.2817383,-0.08544922,-0.1616211
2632,46.75,-26.1875,-228.375,1.43457,0.6420898,0.06347656,-0.2807617,-0.1005859,-0.1577148
2636,79,-4.625,-222.625,1.16748,0.8364258,0.03662109,-0.2792969,-0.1230469,-0.15625
2640,99.75,-19.8125,-228.0625,0.8032227,1.019043,-0.04003906,-0.2734375,-0.1455078,-0.1523438
2644,109,-63.8125,-234.4375,0.7602539,1.17041,-0.06689453,-0.2700195,-0.1621094,-0.1484375
2648,112.25,-91.9375,-244.6875,1.05127,1.306641,-0.04003906,-0.2626953,-0.1855469,-0.1416016
2652,106.5625,-82.5,-263.8125,1.376465,1.333496,0.02099609,-0.2553711,-0.2094727,-0.125
2656,101.6875,-52.875,-260.625,1.458008,1.310547,-0.005371094,-0.2485352,-0.2280273,-0.1225586
2660,94.0625,-35.8125,-246.3125,1.341797,1.240234,-0.04003906,-0.234375,-0.2480469,-0.1113281
2665,80.5,-45.5625,-213.625,1.186523,1.213379,-0.1166992,-0.2211914,-0.2695313,-0.1020508
2669,61.5625,-70.25,-175.625,1.202148,1.162598,-0.1245117,-0.2138672,-0.2807617,-0.09667969
2673,37.3125,-84.3125,-142.25,1.372559,1.135742,-0.06689453,-0.203125,-0.2944336,-0.08837891
2677,9.625,-78.75,-113.8125,1.52002,1.073242,-0.02441406,-0.1948242,-0.3032227,-0.08007813
2681,-12.8125,-62.9375,-84.875,1.585938,0.9296875,-0.01660156,-0.1923828,-0.3066406,-0.08007813
2685,-23.9375,-48.4375,-48.0625,1.554688,0.7470703,-0.0859375,-0.1865234,-0.3095703,-0.07861328
2689,-22.0625,-40.875,-7,1.46582,0.5913086,-0.112793,-0.1865234,-0.3105469,-0.07617188
2693,-11.9375,-31.625,20.75,1.454102,0.5566406,-0.1015625,-0.1865234,-0.3105469,-0.07617188
2697,-4.125,-12.8125,32.5,1.454102,0.6303711,-0.05126953,-0.1865234,-0.3095703,-0.07470703
2701,-2.5625,7.4375,37.875,1.426758,0.7158203,-0.01660156,-0.1914063,-0.3081055,-0.07470703
2705,-6.75,22.5,46.875,1.426758,0.8325195,0.04785156,-0.1923828,-0.3056641,-0.07470703
2709,-15.625,32,65.125,1.395996,0.8598633,0.02490234,-0.1962891,-0.3032227,-0.07763672
2713,-19.75,30.75,91.5,1.361328,0.8945313,0.01367188,-0.2006836,-0.2983398,-0.07861328
2717,-22.3125,27.5625,118,1.399902,0.9257813,0.001953125,-0.2055664,-0.2929688,-0.08154297
2721,-20.375,29,140.5,1.458008,0.9414063,-0.02050781,-0.2128906,-0.2841797,-0.08544922
2725,-16.4375,35.1875,159.125,1.52002,1.038574,-0.05126953,-0.2236328,-0.2744141,-0.08984375
2729,-19.1875,45.4375,178.0625,1.570313,1.146973,-0.07470703,-0.2304688,-0.265625,-0.09082031
2733,-24.625,56.6875,197.75,1.612793,1.232422,-0.09375,-0.2387695,-0.2504883,-0.09765625
2737,-32.625,71.375,215.25,1.632324,1.294922,-0.128418,-0.2485352,-0.234375,-0.1044922
2741,-32.75,76.3125,230.4375,1.582031,1.298828,-0.1591797,-0.2553711,-0.2192383,-0.1074219
2745,-35.3125,65.5,259,1.512207,1.287109,-0.2363281,-0.2651367,-0.2006836,-0.1157227
2749,-28.375,49.875,294.1875,1.546875,1.17041,-0.2475586,-0.2744141,-0.1757813,-0.1225586
2753,-15.4375,53.375,317.3125,1.670898,1.20166,-0.2285156,-0.2807617,-0.1582031,-0.125
2757,-16.25,82.9375,324,1.748535,1.364746,-0.1552734,-0.2866211,-0.1293945,-0.1318359
2761,-29.375,127.1875,308.875,1.674805,1.395996,-0.1591797,-0.2915039,-0.1005859,-0.1386719
2765,-33.6875,157.5,303.3125,1.368652,1.158691,-0.2324219,-0.2915039,-0.08056641,-0.1469727
2769,-24.125,148.5,307,1.124512,0.9682617,-0.2436523,-0.2851563,-0.05175781,-0.1616211
2773,-13.3125,123.3125,322.9375,1.031738,0.9296875,-0.2055664,-0.2792969,-0.02441406,-0.1699219
2777,-6,108.375,328.0625,1.202148,0.90625,-0.109375,-0.2744141,-0.006835938,-0.1782227
2781,-9.3125,122.5625,322.0625,1.182617,0.9604492,-0.1015625,-0.2651367,0.02246094,-0.1875
2785,-16.875,140.1875,306.125,1.140137,0.9140625,-0.05517578,-0.2519531,0.04736328,-0.1972656
2789,-28.8125,154.0625,285.9375,0.8959961,0.793457,-0.09765625,-0.2387695,0.0625,-0.2041016
2794,-24.75,144.75,278.5625,0.7680664,0.6069336,-0.0859375,-0.2236328,0.08496094,-0.2133789
2798,-21.875,110.375,269.0625,0.6132813,0.5410156,-0.112793,-0.2045898,0.1025391,-0.2216797
2802,-13.625,71.5625,279.75,0.8457031,0.3701172,-0.01318359,-0.1923828,0.1152344,-0.2246094
2806,-7.6875,63,299.625,0.9814453,0.315918,0.005859375,-0.1748047,0.1298828,-0.2285156
2810,-2,87.9375,301.8125,1.16748,0.4013672,0.04052734,-0.1542969,0.1474609,-0.2338867
2814,-6.4375,135.6875,278.1875,1.147949,0.3466797,0.009765625,-0.1401367,0.15625,-0.2368164
2818,-2.125,169.125,265.3125,0.7797852,0.2963867,-0.04736328,-0.112793,0.1660156,-0.2407227
2822,-2.125,167.3125,267.375,0.5356445,0.2729492,-0.01318359,-0.08544922,0.1772461,-0.2475586
2826,-9,155.6875,274.125,0.2333984,0.269043,-0.02441406,-0.06640625,0.1772461,-0.2475586
2830,-10.75,133.3125,275.5625,0.04736328,0.1757813,0.009765625,-0.03759766,0.1811523,-0.2529297
2834,-16.25,113.0625,267.25,-0.1459961,0.2070313,0.07519531,-0.01025391,0.1850586,-0.2543945
2838,-34.125,103.75,246.625,-0.2773438,0.2768555,0.1557617,0.005859375,0.1875,-0.2514648
2842,-67,95.4375,223.4375,-0.6884766,0.2807617,0.144043,0.03173828,0.1884766,-0.25
2846,-84.6875,61.375,202.1875,-1.219238,-0.01416016,0.05175781,0.05322266,0.1899414,-0.2421875
2850,-77.9375,11.625,174.3125,-1.455566,-0.1889648,0.05957031,0.06542969,0.1938477,-0.237793
2854,-65.625,-36,146.1875,-1.672363,-0.2314453,0.06738281,0.07470703,0.1923828,-0.2353516
2858,-54.8125,-62,97.4375,-1.563965,-0.2006836,0.140625,0.08203125,0.1923828,-0.2324219
2862,-41.5625,-46.875,17.9375,-1.358887,-0.2900391,0.2021484,0.08447266,0.1938477,-0.230957
2866,-21.0625,-18.3125,-60.6875,-1.223145,-0.3989258,0.1982422,0.08203125,0.1948242,-0.2270508
2870,-2.625,-6.25,-118.5,-1.087402,-0.4140625,0.2211914,0.07470703,0.2011719,-0.2270508
2874,4.8125,-13.5,-151.625,-0.862793,-0.421875,0.2290039,0.06787109,0.2011719,-0.2255859
2878,8.875,-25.9375,-169.125,-0.5605469,-0.484375,0.2329102,0.05566406,0.2036133,-0.2270508
2882,15.625,-30.75,-174.75,-0.2700195,-0.5620117,0.2133789,0.03808594,0.2075195,-0.2299805
2886,25.125,-17.75,-177.8125,-0.05664063,-0.5151367,0.2402344,0.02978516,0.2075195,-0.2270508
2890,27.25,-0.0625,-192.625,-0.03320313,-0.387207,0.2480469,0.01269531,0.2075195,-0.230957
2894,24.5,-5.5625,-211.25,-0.1108398,-0.3754883,0.2597656,-0.001953125,0.2050781,-0.2338867
2898,22,-27.0625,-218.25,-0.03710938,-0.3481445,0.2329102,-0.01171875,0.2050781,-0.2338867
2902,22.25,-53.375,-217,0.08642578,-0.355957,0.1904297,-0.03173828,0.2011719,-0.2338867
2906,25.0625,-61.75,-198.375,0.3110352,-0.387207,0.1479492,-0.04833984,0.1987305,-0.2353516
2910,45.8125,-56.75,-189.1875,0.3808594,-0.5,0.08642578,-0.06152344,0.1948242,-0.237793
2914,65.875,-43.4375,-209.125,0.4272461,-0.1577148,0.1713867,-0.078125,0.1875,-0.237793
2918,56.375,-41.3125,-235.5625,0.4467773,0.05908203,0.2480469,-0.09472656,0.1772461,-0.2407227
2923,38.5,-47.125,-243.3125,0.3886719,-0.02587891,0.1826172,-0.1069336,0.1713867,-0.2421875
2927,44.9375,-76.875,-229,0.3847656,-0.1772461,0.1020508,-0.1259766,0.1586914,-0.2407227
2931,59.9375,-101.9375,-206.9375,0.4428711,-0.1889648,0.05957031,-0.1411133,0.1459961,-0.2407227
2935,81.625,-137.9375,-202.9375,0.6210938,0.0009765625,0.1210938,-0.1557617,0.1362305,-0.2407227
2939,64.875,-125.1875,-220.5625,1.151855,0.5952148,0.3291016,-0.1748047,0.1210938,-0.2353516
2943,12.5625,-83.8125,-241.6875,1.283691,0.5019531,0.2558594,-0.1923828,0.1049805,-0.230957
2947,16.375,-55.1875,-230.9375,1.244629,-0.04150391,0.1748047,-0.203125,0.09375,-0.2285156
2951,55.1875,-30.6875,-203.75,1.198242,-0.2392578,0.09033203,-0.2114258,0.07861328,-0.2270508
2955,98.4375,-26.6875,-181.5,0.7719727,-0.1420898,0.005859375,-0.2211914,0.06103516,-0.2285156
2959,119.375,-78.0625,-192.1875,0.5356445,0.7392578,0.2250977,-0.2246094,0.04882813,-0.2270508
2963,40.0625,-132.6875,-228.375,0.7719727,1.310547,0.2172852,-0.2353516,0.02734375,-0.2246094
2967,-13.3125,-166.5,-233.25,1.209961,0.6577148,0.1289063,-0.2470703,0.01123047,-0.2163086
2971,4.25,-154.5,-221.125,1.608887,0.2416992,0.009765625,-0.2568359,0,-0.2055664
2975,46.6875,-90.375,-204.6875,1.822266,0.105957,0.04443359,-0.2651367,-0.01953125,-0.1943359
2979,87.1875,-29,-186.6875,1.415527,0.2807617,0.009765625,-0.2700195,-0.03955078,-0.1904297
2983,92.8125,-21.25,-198.6875,0.9462891,0.9335938,0.140625,-0.2709961,-0.05322266,-0.1875
2987,48.75,-53.8125,-220.0625,0.7060547,1.20166,0.1328125,-0.2700195,-0.07324219,-0.1875
2991,13.875,-108.25,-227.8125,0.8417969,0.9916992,0.08642578,-0.2709961,-0.09423828,-0.1806641
2995,12.0625,-124.4375,-223.5625,1.252441,0.8051758,0.02099609,-0.2724609,-0.1069336,-0.175293
2999,27.125,-94.625,-218.125,1.473633,0.7314453,0.009765625,-0.2744141,-0.1279297,-0.1645508
3003,48.4375,-56.75,-209.5,1.353516,0.7119141,-0.02832031,-0.2709961,-0.1479492,-0.1591797
3007,70.75,-40.25,-199.9375,1.144043,0.793457,-0.07080078,-0.2675781,-0.1582031,-0.1523438
3011,76.8125,-28.5,-211.3125,1.09375,1.108398,0.001953125,-0.2617188,-0.1782227,-0.1484375
3015,70.4375,-17.375,-232.625,1.047363,1.166504,0.03662109,-0.2509766,-0.2006836,-0.1416016
3019,76.6875,-14.5625,-250.1875,1.031738,1.073242,0.06738281,-0.2470703,-0.2119141,-0.1386719
3023,90.625,-23.75,-252.375,1.008301,1.100586,0.05566406,-0.2329102,-0.2368164,-0.137207
3027,98.3125,-45,-236.25,1.000488,1.166504,0.02490234,-0.21875,-0.2583008,-0.1289063
3031,101,-72.25,-202.75,1.09375,1.120117,0.001953125,-0.2104492,-0.2705078,-0.1210938
3035,94.25,-84.5,-177.75,1.302734,1.158691,0.06347656,-0.2021484,-0.2856445,-0.1113281
3039,68.625,-69.875,-151.625,1.473633,1.368652,0.1479492,-0.1923828,-0.2993164,-0.09765625
3043,29.8125,-50.125,-127.3125,1.438477,1.287109,0.1826172,-0.1875,-0.3066406,-0.09228516
3047,-5.625,-44.6875,-94.5,1.361328,1.13916,0.1479492,-0.1782227,-0.3144531,-0.08984375
3052,-29.8125,-46.5625,-50.375,1.279785,0.890625,0.06738281,-0.1733398,-0.3178711,-0.08691406
3056,-34.75,-53.625,-14.25,1.248535,0.7275391,0.01367188,-0.1708984,-0.3178711,-0.08837891
3060,-33.125,-50.0625,6.4375,1.291504,0.6577148,-0.005371094,-0.1733398,-0.3178711,-0.08544922
3064,-25.0625,-31.125,12.3125,1.364746,0.6381836,-0.009277344,-0.1733398,-0.3178711,-0.08984375
3068,-16.4375,-4.5,17.625,1.388184,0.6655273,0.009765625,-0.1748047,-0.3154297,-0.08691406
3072,-12.625,17.375,28.25,1.368652,0.7431641,0.04785156,-0.1772461,-0.3144531,-0.08837891
3076,-15.375,28.125,48.3125,1.333984,0.8442383,0.07128906,-0.1791992,-0.3129883,-0.09228516
3080,-21.25,32.375,73.25,1.337891,0.9179688,0.09423828,-0.1806641,-0.3105469,-0.09228516
3084,-29.6875,38.0625,97,1.322266,0.9995117,0.1020508,-0.1855469,-0.3041992,-0.09765625
3088,-37.6875,42.4375,116.625,1.287598,1.04248,0.08642578,-0.1923828,-0.2983398,-0.1005859
3092,-42.3125,38.375,130.8125,1.241211,1.053711,0.04785156,-0.199707,-0.2919922,-0.1044922
3096,-43.5625,28.5625,150,1.275879,1.077148,0.02880859,-0.2080078,-0.2817383,-0.1142578
3100,-44.375,19.6875,172,1.372559,1.116211,0.01367188,-0.2163086,-0.2695313,-0.112793
3104,-45.8125,23.875,192.0625,1.550781,1.251953,0.02490234,-0.2246094,-0.2592773,-0.1181641
3108,-59.8125,36.4375,205.125,1.670898,1.403809,0.04052734,-0.234375,-0.2431641,-0.1196289
3112,-71.375,51.1875,233,1.651855,1.321777,0.009765625,-0.2436523,-0.2255859,-0.1303711
3116,-71.0625,61.3125,265.375,1.574219,1.228516,-0.06298828,-0.2519531,-0.2119141,-0.1347656
3120,-64.75,53.5625,298.8125,1.306641,1.251953,-0.1474609,-0.2626953,-0.1870117,-0.1416016
3124,-58.25,27.25,319.5625,1.252441,1.217285,-0.1245117,-0.2724609,-0.1582031,-0.1469727
3128,-53.0625,20.875,318.5,1.39209,1.236328,-0.1015625,-0.2783203,-0.1357422,-0.1494141
3132,-54.5625,39.8125,302.0625,1.535645,1.263672,-0.07080078,-0.2841797,-0.1083984,-0.1538086
3136,-55.1875,74.6875,296.75,1.550781,1.057617,-0.1054688,-0.2875977,-0.07958984,-0.15625
3140,-43,97.8125,306,1.361328,0.8945313,-0.1435547,-0.2827148,-0.06201172,-0.1630859
3144,-30.75,107.6875,321.1875,1.209961,0.8208008,-0.1552734,-0.2807617,-0.03173828,-0.1713867
3148,-18.9375,113.3125,329.625,1.035645,0.8325195,-0.1401367,-0.2724609,-0.004394531,-0.1796875
3152,-17.9375,113.625,311.5625,0.9194336,0.9140625,-0.109375,-0.2675781,0.01513672,-0.1835938
3156,-32.875,114.75,272.375,0.8071289,1.022949,-0.07080078,-0.2543945,0.04150391,-0.1928711
3160,-42.5,88.25,245.3125,0.7216797,0.6577148,-0.07861328,-0.2426758,0.0625,-0.1958008
3164,-32.625,60.3125,256.3125,0.8842773,0.3896484,-0.07080078,-0.2363281,0.07617188,-0.2041016
3168,-19.3125,53.625,281.9375,1.031738,0.4086914,-0.03222656,-0.222168,0.09521484,-0.2041016
3172,-17.5625,61.75,298.4375,1.121094,0.4052734,-0.02050781,-0.2089844,0.1152344,-0.2080078
3176,-12.25,83.3125,298.4375,1.089844,0.4086914,-0.02441406,-0.1962891,0.1298828,-0.2094727
3181,-12.0625,112.4375,284.8125,1.039551,0.3935547,-0.02441406,-0.1757813,0.1459961,-0.2148438
3185,-21.0625,135.3125,258.6875,0.8613281,0.3662109,-0.03613281,-0.1518555,0.1611328,-0.2231445
3189,-16.5625,142.5,269.6875,0.6982422,0.07861328,-0.09765625,-0.1367188,0.1699219,-0.2246094
3193,-2.8125,131.5625,290.9375,0.4970703,0.02441406,-0.07470703,-0.109375,0.1826172,-0.230957
3197,1.6875,114.5,302.6875,0.2724609,0.121582,-0.04003906,-0.08300781,0.1899414,-0.2338867
3201,-0.6875,93.625,291.8125,0.2255859,0.08642578,0.05175781,-0.06396484,0.1948242,-0.2368164
3205,-9.5625,97.375,262.9375,0.2490234,0.1757813,0.125,-0.03759766,0.1987305,-0.237793
3209,-36.3125,137.125,208.0625,0.3149414,0.2885742,0.2290039,-0.01171875,0.2026367,-0.237793
3213,-69,167.3125,184.8125,-0.1108398,0.1137695,0.1557617,0.003417969,0.2036133,-0.2353516
3217,-76.6875,132.6875,215.875,-0.8085938,-0.1459961,0.05175781,0.02832031,0.2075195,-0.2299805
3221,-73.9375,66.4375,241.75,-1.32373,-0.2314453,0.07519531,0.05322266,0.2075195,-0.2246094
3225,-60.625,24.3125,215.625,-1.45166,-0.1308594,0.05957031,0.06884766,0.2075195,-0.21875
3229,-50.1875,25.5,133.0625,-1.603027,-0.2084961,-0.009277344,0.08447266,0.2060547,-0.2163086
3233,-22.75,37.6875,41.6875,-1.67627,-0.340332,-0.04394531,0.09375,0.2050781,-0.2119141
3237,-2.625,28.1875,-26.9375,-1.715332,-0.2939453,-0.02050781,0.09619141,0.2036133,-0.2080078
3241,2.125,-2.375,-75.5625,-1.521484,-0.2509766,0.04785156,0.09375,0.2060547,-0.2109375
3245,0.3125,-32.3125,-115,-1.157227,-0.3017578,0.08251953,0.08544922,0.2099609,-0.2109375
3249,3.25,-52.875,-145.5,-0.7773438,-0.3911133,0.105957,0.07714844,0.2114258,-0.2119141
3253,7.5625,-51.625,-163.75,-0.3901367,-0.4570313,0.06738281,0.06152344,0.2148438,-0.2119141
3257,19,-29.0625,-174.3125,-0.2192383,-0.4921875,0.07519531,0.04736328,0.2172852,-0.2133789
3261,33.75,-5.3125,-192.125,-0.2661133,-0.4882813,0.02880859,0.03662109,0.2163086,-0.2148438
3265,49.25,-9.25,-224.0625,-0.3935547,-0.3520508,0.07910156,0.01904297,0.21875,-0.2163086
3269,46.3125,-41.6875,-238.125,-0.3588867,-0.1811523,0.1289063,0.0009765625,0.2172852,-0.2202148
3273,29.875,-79.6875,-241.6875,-0.1225586,-0.04882813,0.1635742,-0.01416016,0.2124023,-0.2231445
3277,19.0625,-90.9375,-240.5625,0.2138672,-0.1538086,0.1210938,-0.03662109,0.2114258,-0.2231445
3281,30.0625,-92.25,-254.375,0.3535156,-0.2978516,0.1210938,-0.06152344,0.2075195,-0.2216797
3285,50.5625,-101.3125,-246.0625,0.7529297,-0.2666016,0.140625,-0.078125,0.2011719,-0.2216797
3289,48.75,-73.625,-234.875,1.059082,-0.03759766,0.2480469,-0.1010742,0.1923828,-0.2216797
3293,45.5625,-22.75,-230.0625,1.101563,-0.1420898,0.2133789,-0.1186523,0.1811523,-0.2231445
3297,67.8125,-1.9375,-228.1875,0.6674805,-0.421875,0.125,-0.1303711,0.1723633,-0.2246094
3301,95.125,-16.5,-231.6875,0.5473633,-0.06054688,0.1982422,-0.1435547,0.1577148,-0.2285156
3305,75.9375,-43.5,-252.9375,0.5859375,0.3583984,0.3056641,-0.1591797,0.1401367,-0.2324219
3310,43.5,-77.5,-266.125,0.7915039,0.3271484,0.3520508,-0.1699219,0.1298828,-0.2338867
3314,31.375,-106.8125,-239.8125,1.055176,0.105957,0.2675781,-0.1875,0.1123047,-0.230957
3318,51.5625,-104.5,-209.3125,1.353516,-0.1152344,0.1826172,-0.2045898,0.09521484,-0.2246094
3322,89.6875,-68,-179.625,1.29541,-0.1772461,0.125,-0.2128906,0.08642578,-0.2246094
3326,103.25,-42.5625,-194.8125,1.043457,0.5449219,0.3017578,-0.2236328,0.06640625,-0.2246094
3330,56.25,-46.9375,-228.6875,0.675293,0.824707,0.2597656,-0.2304688,0.04736328,-0.2231445
3334,32.75,-103.25,-237.9375,0.5239258,0.5410156,0.140625,-0.234375,0.03369141,-0.2202148
3338,36.0625,-147.9375,-235.5,0.8110352,0.4790039,0.06347656,-0.2470703,0.01611328,-0.2133789
3342,45.4375,-158.5,-223.5625,1.016113,0.4516602,-0.001464844,-0.2602539,-0.004394531,-0.2011719
3346,65.0625,-173.25,-197.625,0.9775391,0.5214844,-0.05908203,-0.2651367,-0.01806641,-0.1918945
3350,52.0625,-175.75,-215.9375,1.337891,1.364746,0.1826172,-0.2734375,-0.03808594,-0.1782227
3354,-24.375,-128.1875,-253.5,1.640137,1.500488,0.125,-0.2827148,-0.05712891,-0.1645508
3358,-47.9375,-100.125,-254.5625,1.496582,0.8168945,0.03271484,-0.2851563,-0.07324219,-0.1591797
3362,-24.5625,-89.9375,-235.625,1.500488,0.6538086,-0.06298828,-0.2866211,-0.09179688,-0.1494141
3366,3.4375,-59.875,-222.75,1.481445,0.7197266,-0.05126953,-0.2851563,-0.1132813,-0.144043
3370,24.3125,-35.4375,-222.75,1.268066,0.7973633,-0.09765625,-0.2841797,-0.1254883,-0.144043
3374,45,-31,-226.8125,1.105469,0.90625,-0.1054688,-0.2783203,-0.1469727,-0.1386719
3378,52.375,-28.125,-242.3125,1.121094,1.045898,-0.07861328,-0.2709961,-0.1679688,-0.1357422
3382,56.9375,-20.4375,-263.125,1.147949,1.143066,0.005859375,-0.2675781,-0.1845703,-0.1318359
3386,59.4375,-18.9375,-274.5625,1.121094,1.135742,-0.001464844,-0.2568359,-0.2094727,-0.1289063
3390,65.75,-33.25,-265.125,1.097656,1.092773,-0.02441406,-0.2436523,-0.2329102,-0.1225586
3394,74.4375,-50.1875,-244.375,1.128418,1.030762,-0.07080078,-0.234375,-0.2470703,-0.1166992
3398,81,-64.3125,-219.625,1.213867,1.003418,-0.1206055,-0.2211914,-0.265625,-0.1113281
3402,77.125,-68,-187.5,1.279785,1.100586,-0.128418,-0.206543,-0.2807617,-0.1005859
3406,64.875,-56.6875,-175.1875,1.39209,1.143066,-0.04394531,-0.2021484,-0.2929688,-0.09375
3410,47.6875,-31.9375,-165.9375,1.454102,1.088867,-0.05126953,-0.1914063,-0.3041992,-0.08691406
3414,29.0625,-15.3125,-129.875,1.430664,0.9643555,-0.02832031,-0.1791992,-0.3144531,-0.08300781
3418,17.25,-12,-75.6875,1.353516,0.8442383,-0.02832031,-0.1733398,-0.3217773,-0.08007813
3422,11,-15,-28.3125,1.275879,0.7895508,-0.05126953,-0.168457,-0.3232422,-0.07763672
3426,10.5,-6.1875,-6.3125,1.29541,0.7973633,-0.03222656,-0.1665039,-0.3232422,-0.07861328
3430,8.5,8.25,5,1.241211,0.824707,0.005859375,-0.168457,-0.3242188,-0.07861328
3434,5.1875,23.8125,15.1875,1.248535,0.8442383,0.07128906,-0.168457,-0.3232422,-0.07763672
3439,0.8125,39.25,29.0625,1.198242,0.9257813,0.1210938,-0.1674805,-0.3232422,-0.08007813
3443,-11,53.9375,47.1875,1.155762,1.01123,0.144043,-0.1708984,-0.3232422,-0.08007813
3447,-27.9375,48.1875,73.3125,1.004395,1.04248,0.1289063,-0.1723633,-0.3178711,-0.08544922
3451,-40.5,24.0625,102,0.9311523,1.01123,0.09423828,-0.1791992,-0.3120117,-0.08837891
3455,-42.6875,6.75,117.875,1.074219,1.01123,0.09033203,-0.184082,-0.3081055,-0.09375
3459,-41.8125,9.625,128,1.248535,0.9916992,0.05957031,-0.1938477,-0.3007813,-0.09521484
3463,-37.375,30.3125,133.25,1.376465,1.049805,0.05957031,-0.2021484,-0.2895508,-0.1005859
3467,-35.625,65.375,137.4375,1.546875,1.081055,0.05175781,-0.2055664,-0.2832031,-0.1020508
3471,-32.375,108.0625,143.5,1.601563,1.182129,-0.001464844,-0.2138672,-0.2729492,-0.112793
3475,-45.6875,114.125,183.0625,1.233398,1.337402,-0.08203125,-0.2197266,-0.2592773,-0.1210938
3479,-64.25,66.125,225.5,1.039551,1.39209,-0.07861328,-0.2280273,-0.2504883,-0.1264648
3483,-72.3125,17.375,254,1.151855,1.43457,-0.05517578,-0.2363281,-0.2304688,-0.1333008
3487,-83.1875,-5.3125,266.1875,1.446289,1.461914,-0.02832031,-0.2470703,-0.2094727,-0.137207
3491,-88.1875,0.75,290.25,1.678711,1.333496,-0.07080078,-0.2592773,-0.1918945,-0.144043
3495,-81.5,14.3125,326.4375,1.775879,1.275391,-0.112793,-0.2700195,-0.1630859,-0.1425781
3499,-74,36.1875,363.5625,1.814453,1.251953,-0.1435547,-0.2792969,-0.1308594,-0.1484375
3503,-66.4375,60.125,375.625,1.678711,1.302734,-0.1513672,-0.2841797,-0.1069336,-0.1523438
3507,-63.6875,80.375,370.375,1.512207,1.228516,-0.1708984,-0.2851563,-0.07177734,-0.1577148
3511,-61.6875,79.4375,365,1.213867,1.077148,-0.2128906,-0.2841797,-0.03710938,-0.1616211
3515,-48.125,52.75,365.125,1.055176,0.9179688,-0.1860352,-0.2807617,-0.01171875,-0.1660156
3519,-39.8125,17,368.375,1.132324,0.7626953,-0.1591797,-0.2734375,0.02148438,-0.1699219
3523,-22.9375,14.375,368.6875,1.403809,0.777832,-0.1015625,-0.2661133,0.05371094,-0.168457
3527,-14.375,52.1875,365,1.647949,0.6381836,-0.128418,-0.2568359,0.07519531,-0.1699219
3531,4,108.375,351.3125,1.647949,0.5952148,-0.1323242,-0.2412109,0.1010742,-0.175293
3535,18.1875,170.0625,352.875,1.454102,0.6108398,-0.1743164,-0.21875,0.1264648,-0.1835938
3539,21,186.5625,356.125,0.8769531,0.6459961,-0.2055664,-0.203125,0.1401367,-0.1928711
3543,19.125,159.1875,357.875,0.5898438,0.6303711,-0.1435547,-0.1733398,0.1586914,-0.2041016
3547,12.625,128.9375,362.875,0.5048828,0.5488281,-0.09375,-0.1411133,0.1787109,-0.2133789
3551,11.1875,132.25,348.25,0.5356445,0.4711914,-0.05908203,-0.1210938,0.1860352,-0.21875
3555,10.5,154.875,313.1875,0.3339844,0.4243164,-0.06689453,-0.08886719,0.1948242,-0.2216797
3559,14.5,167.9375,265.75,0.1713867,0.3193359,-0.05126953,-0.06054688,0.2001953,-0.2270508
3563,10,152.25,240.5,-0.01806641,0.2338867,-0.04003906,-0.0390625,0.2050781,-0.2299805
3568,4.125,121,248.4375,-0.08789063,0.1757813,0.02490234,-0.01171875,0.2026367,-0.2353516
3572,-14.3125,86.625,262.75,-0.2583008,0.1992188,0.05957031,0.01269531,0.2036133,-0.2324219
3576,-26.875,68.5625,239.4375,-0.3007813,0.09423828,0.1635742,0.02832031,0.2026367,-0.2353516
3580,-35.75,77.6875,196.9375,-0.3745117,-0.07617188,0.105957,0.05078125,0.2026367,-0.2324219
3584,-27.875,86.125,152.1875,-0.6264648,-0.2006836,0.05566406,0.06884766,0.2001953,-0.2299805
3588,-21,73,141.1875,-0.9907227,-0.1616211,0.02490234,0.08056641,0.1972656,-0.2246094
3592,-20.1875,44.3125,117.4375,-1.366211,-0.1347656,0.07519531,0.09375,0.1948242,-0.2246094
3596,-22.6875,10.5,83.75,-1.614258,-0.1113281,0.05957031,0.1035156,0.1923828,-0.2202148
3600,-15.25,-10.9375,23.5625,-1.606445,-0.1694336,0.08251953,0.1079102,0.1914063,-0.2177734
3604,-9.8125,-4.8125,-51.0625,-1.413086,-0.1577148,0.1020508,0.1079102,0.1923828,-0.21875
3608,-4.6875,1.25,-115.8125,-1.32373,-0.2275391,0.1210938,0.1010742,0.1962891,-0.21875
3612,2,-8.6875,-159.8125,-1.15332,-0.2705078,0.125,0.09521484,0.2011719,-0.2177734
3616,8.4375,-20.1875,-187.375,-0.8393555,-0.3208008,0.1171875,0.08300781,0.2050781,-0.21875
3620,18.25,-22.875,-201.5,-0.5253906,-0.4179688,0.1132813,0.06542969,0.2099609,-0.2177734
3624,35.5625,-14.9375,-209.8125,-0.328125,-0.4101563,0.1171875,0.05322266,0.2099609,-0.2202148
3628,44.125,-3.4375,-230.0625,-0.246582,-0.2666016,0.144043,0.03808594,0.2114258,-0.2231445
3632,42.375,-4.125,-250.375,-0.262207,-0.1967773,0.1557617,0.01757813,0.2124023,-0.2246094
3636,43,-32.375,-265.625,-0.246582,-0.2006836,0.1674805,0.005859375,0.2114258,-0.2285156
3640,41.625,-64.6875,-264.3125,0.06298828,-0.1308594,0.1557617,-0.01757813,0.2075195,-0.230957
3644,43.25,-82.75,-259.375,0.2954102,-0.2509766,0.1518555,-0.04248047,0.2011719,-0.230957
3648,58.375,-96.5,-236.6875,0.4428711,-0.2705078,0.1171875,-0.05810547,0.1972656,-0.2324219
3652,70.875,-103,-221.0625,0.5200195,-0.1577148,0.125,-0.08056641,0.1884766,-0.2338867
3656,69.5,-88.375,-234.4375,0.6713867,0.105957,0.1904297,-0.1020508,0.1801758,-0.2368164
3660,59.25,-79.6875,-266.9375,0.5126953,0.1445313,0.2094727,-0.1152344,0.1689453,-0.2353516
3664,51.6875,-100.5625,-283.9375,0.6831055,0.1953125,0.1865234,-0.1352539,0.1547852,-0.2353516
3668,53.8125,-115,-262.3125,0.9541016,0.008789063,0.1328125,-0.1591797,0.1401367,-0.2338867
3672,74.0625,-116.0625,-213,1.13623,-0.1035156,0.05566406,-0.1723633,0.1274414,-0.230957
3676,108.5,-113.125,-186.75,0.9931641,-0.08789063,0.01708984,-0.1889648,0.1098633,-0.2270508
3680,116.875,-88.625,-213.0625,1.252441,0.5761719,0.3330078,-0.203125,0.09375,-0.2270508
3684,41.8125,-17.375,-272.4375,1.326172,1.034668,0.2636719,-0.2114258,0.07763672,-0.2270508
3688,30.4375,-20.9375,-280.8125,0.9155273,0.1875,0.1826172,-0.2211914,0.05615234,-0.2270508
3692,58.125,-104.0625,-236.5625,0.6518555,0.2573242,0.04443359,-0.2304688,0.03613281,-0.2255859
3697,67.8125,-202.4375,-174.1875,1.151855,0.4086914,0.04443359,-0.2412109,0.02490234,-0.21875
3701,53.1875,-181.8125,-168.8125,2.275391,1.022949,0.3710938,-0.253418,0.008789063,-0.2055664
3705,1.6875,-25.0625,-212.875,2.570313,0.9296875,0.3251953,-0.2636719,-0.008300781,-0.1958008
3709,8.6875,78.875,-225.4375,1.523926,0.1992188,0.1098633,-0.2636719,-0.02050781,-0.1987305
3713,53.9375,40.1875,-210.875,0.5009766,0.2416992,-0.005371094,-0.2602539,-0.04052734,-0.2055664
3717,62.875,-63.9375,-195.6875,0.190918,0.6845703,-0.05517578,-0.2602539,-0.05957031,-0.206543
3721,51.1875,-143.9375,-199.8125,0.7529297,0.8828125,0.01708984,-0.2617188,-0.07080078,-0.1987305
3725,42.9375,-131.3125,-221.875,1.42334,0.9296875,0.09033203,-0.2661133,-0.09326172,-0.1875
3729,42.25,-63.5625,-243.0625,1.5625,0.855957,0.09814453,-0.2675781,-0.1132813,-0.1767578
3733,57.375,-30.4375,-248.875,1.194336,0.7626953,0.04052734,-0.2675781,-0.1254883,-0.175293
3737,74.3125,-39.5,-240.875,0.9423828,0.875,0.005859375,-0.2592773,-0.1518555,-0.1728516
3741,81.5625,-64.875,-233.75,0.9038086,1.019043,0.04052734,-0.2543945,-0.1733398,-0.1645508
3745,79.375,-76.625,-237.25,1.082031,1.240234,0.1171875,-0.2519531,-0.1894531,-0.1591797
3749,64.75,-65.5625,-250.4375,1.163574,1.302734,0.1713867,-0.2446289,-0.2119141,-0.1508789
3753,56.375,-62.625,-257.4375,1.078125,1.232422,0.159668,-0.234375,-0.2319336,-0.1425781
3757,51.4375,-82.6875,-240.875,1.02002,1.193848,0.1020508,-0.2255859,-0.2470703,-0.137207
3761,47.4375,-104.375,-205.3125,1.144043,1.150879,0.09033203,-0.215332,-0.2641602,-0.1289063
3765,38.8125,-111.1875,-170.75,1.299316,1.088867,0.1020508,-0.2045898,-0.2792969,-0.1196289
3769,28.1875,-102.375,-142.75,1.395996,1.057617,0.1132813,-0.2006836,-0.2880859,-0.1113281
3773,17.1875,-80.5,-128.1875,1.508301,1.030762,0.1171875,-0.1938477,-0.2954102,-0.105957
3777,8.5625,-49.875,-114.375,1.582031,0.921875,0.1289063,-0.1865234,-0.3041992,-0.09765625
3781,2.9375,-30.8125,-85.1875,1.543457,0.8168945,0.1098633,-0.1816406,-0.3095703,-0.09912109
3785,-2.9375,-29.3125,-43.3125,1.512207,0.8012695,0.1210938,-0.1772461,-0.3144531,-0.09765625
3789,-11.6875,-27.75,-5.0625,1.612793,0.7817383,0.1367188,-0.1757813,-0.3154297,-0.09521484
3793,-15.8125,-14.0625,26.75,1.686523,0.7856445,0.1328125,-0.1748047,-0.3144531,-0.09521484
3797,-18.625,8.75,52.625,1.73291,0.8051758,0.144043,-0.1772461,-0.3120117,-0.09667969
3801,-19.875,28.75,81.625,1.655762,0.8051758,0.105957,-0.1831055,-0.3081055,-0.09765625
3805,-20.625,35.4375,112.6875,1.527832,0.9140625,0.09033203,-0.1865234,-0.3041992,-0.1005859
3809,-27.1875,26.1875,142.25,1.454102,1.019043,0.105957,-0.1923828,-0.296875,-0.1044922
3813,-36.5625,16.5,160.875,1.550781,1.178223,0.144043,-0.2055664,-0.2841797,-0.105957
3817,-49.0625,15.1875,184.5625,1.69043,1.240234,0.105957,-0.2128906,-0.2753906,-0.1098633
3821,-53.5,22.75,207.375,1.872559,1.146973,0.05566406,-0.2246094,-0.2617188,-0.1142578
3826,-43.4375,39.1875,252.8125,1.950195,1.283203,-0.04736328,-0.2363281,-0.2431641,-0.1196289
3830,-45.5625,50.1875,284.625,1.89209,1.411133,-0.07080078,-0.2446289,-0.2304688,-0.1225586
3834,-47.5625,58.625,317.5,1.783691,1.473633,-0.09375,-0.2602539,-0.2016602,-0.1303711
3838,-49.875,62.5625,335.4375,1.698242,1.500488,-0.09375,-0.2709961,-0.1743164,-0.1357422
3842,-47.8125,70.6875,349.1875,1.608887,1.43457,-0.08203125,-0.2744141,-0.1533203,-0.1401367
3846,-45.8125,78.25,353.4375,1.558594,1.39209,-0.06689453,-0.2817383,-0.1206055,-0.1469727
3850,-39.3125,94.3125,355.1875,1.543457,1.310547,-0.07861328,-0.2851563,-0.08837891,-0.1538086
3854,-33.625,116.8125,357.4375,1.492676,1.228516,-0.0859375,-0.2851563,-0.06591797,-0.1616211
3858,-29.375,144,359.625,1.345703,1.174316,-0.08203125,-0.2817383,-0.03173828,-0.1699219
3862,-31.6875,173.1875,346.875,1.163574,1.189941,-0.07470703,-0.2709961,-0.0004882813,-0.1850586
3866,-51.5625,170.3125,327.25,0.675293,1.275391,-0.08203125,-0.2626953,0.01757813,-0.1918945
3870,-65.0625,121.9375,313.9375,0.4619141,0.890625,-0.06298828,-0.2470703,0.04492188,-0.2011719
3874,-61.0625,68.5,298.6875,0.5239258,0.7314453,-0.02832031,-0.2329102,0.07128906,-0.2109375
3878,-51.75,47.75,298.125,0.9077148,0.6069336,0.02099609,-0.2236328,0.08886719,-0.2094727
3882,-48.3125,64.875,293.5625,1.147949,0.5761719,0.05566406,-0.2089844,0.1098633,-0.2119141
3886,-46.25,99.3125,282.9375,1.155762,0.5253906,0.03662109,-0.1914063,0.1313477,-0.2148438
3890,-34.9375,128.9375,277.5625,1.055176,0.4013672,-0.01318359,-0.1782227,0.1435547,-0.2163086
3894,-32.3125,145.1875,280.125,0.7529297,0.5332031,-0.01318359,-0.1533203,0.1586914,-0.2231445
3898,-46.5625,123.25,279.25,0.4311523,0.4790039,-0.001464844,-0.128418,0.1748047,-0.2231445
3902,-55.125,72.8125,285.5,0.3339844,0.3271484,0.04052734,-0.1113281,0.1826172,-0.2246094
3906,-59.1875,42.5625,288.6875,0.543457,0.1293945,0.05175781,-0.08886719,0.1962891,-0.2255859
3910,-46.1875,65,291.0625,0.7915039,0.02441406,0.04052734,-0.06494141,0.2050781,-0.2231445
3914,-29.25,117.4375,285.9375,0.7412109,-0.02587891,-0.01660156,-0.04833984,0.2099609,-0.2216797
3918,-20.1875,155.25,268.0625,0.4038086,0.1020508,-0.01660156,-0.01611328,0.2138672,-0.2216797
3922,-30.5625,156.0625,255.9375,-0.1069336,0.1914063,-0.01660156,0.01269531,0.2148438,-0.2216797
3926,-57.125,106.9375,249.25,-0.5449219,0.2456055,0.09423828,0.03076172,0.2148438,-0.21875
3930,-80.3125,44.4375,246.5,-0.6767578,-0.03369141,0.07519531,0.05712891,0.2138672,-0.2119141
3934,-71.375,28.5,242.375,-0.4169922,-0.324707,-0.005371094,0.07861328,0.2124023,-0.2080078
3938,-42,76.625,217,-0.3510742,-0.6630859,-0.112793,0.09277344,0.2148438,-0.2026367
3942,-11.0625,133,183.8125,-0.699707,-0.3481445,-0.1513672,0.1118164,0.2060547,-0.1972656
3946,-2.9375,120.6875,166.25,-1.719238,-0.1499023,-0.2207031,0.1342773,0.1987305,-0.1943359
3950,0,56.8125,117.625,-2.25,-0.1811523,-0.1743164,0.1450195,0.1948242,-0.1904297
3955,4.9375,-5.8125,32.6875,-2.211426,-0.2084961,-0.08984375,0.1533203,0.1914063,-0.1889648
3959,2.8125,-38.5625,-50.4375,-1.699707,-0.1772461,0.03271484,0.1533203,0.1899414,-0.1904297
3963,-2.25,-58.625,-106.0625,-1.257813,-0.2822266,0.1171875,0.1474609,0.1923828,-0.1918945
3967,-4.8125,-73.8125,-133.0625,-0.8393555,-0.4257813,0.1479492,0.1367188,0.1987305,-0.1943359
3971,-0.1875,-75.6875,-144.1875,-0.4287109,-0.550293,0.1748047,0.1225586,0.2060547,-0.1958008
3975,7.25,-59.5,-143.875,-0.1806641,-0.6513672,0.1518555,0.1118164,0.2060547,-0.1987305
3979,19.3125,-37.9375,-141.0625,-0.2387695,-0.6669922,0.1171875,0.09765625,0.2114258,-0.199707
3983,28,-32.875,-149.8125,-0.3901367,-0.5620117,0.1020508,0.08544922,0.2148438,-0.2041016
3987,30.125,-39.4375,-183.25,-0.4326172,-0.402832,0.1748047,0.07470703,0.2163086,-0.2055664
3991,20.9375,-53.5625,-219.8125,-0.2773438,-0.340332,0.2021484,0.05712891,0.2211914,-0.2080078
3995,13,-80.625,-229.8125,-0.2504883,-0.421875,0.1557617,0.03417969,0.2236328,-0.206543
3999,10.25,-124.3125,-210.125,-0.03710938,-0.4609375,0.09814453,0.02001953,0.2236328,-0.2080078
4003,15.375,-147.0625,-179.0625,0.206543,-0.6240234,-0.005371094,-0.005859375,0.2236328,-0.2119141
4007,48.375,-149.1875,-154.5,0.3691406,-0.8222656,-0.0859375,-0.02587891,0.2197266,-0.2080078
4011,92.0625,-117.875,-165.375,0.6401367,-0.5,0.04052734,-0.04150391,0.2172852,-0.2119141
4015,82.75,-47.625,-209.4375,0.7758789,0.1137695,0.2402344,-0.05908203,0.2099609,-0.2177734
4019,41.625,-15.375,-242,0.4775391,0.04003906,0.2675781,-0.078125,0.2011719,-0.2246094
4023,29.125,-49.125,-235,0.140625,-0.2202148,0.140625,-0.08886719,0.1948242,-0.2216797
4027,41.8125,-114.875,-204.8125,0.3339844,-0.3676758,0.05566406,-0.109375,0.1875,-0.2231445
4031,64.4375,-135.125,-180.875,0.7216797,-0.2822266,0.06738281,-0.1293945,0.1762695,-0.2216797
4035,71.5625,-107.8125,-197.8125,1.271973,0.07080078,0.2519531,-0.1411133,0.1674805,-0.2202148
4039,38.0625,-54.5625,-219.625,1.271973,0.5136719,0.3173828,-0.1591797,0.1547852,-0.2202148
4043,16.75,-44.4375,-215.25,0.9580078,-0.09960938,0.2290039,-0.1733398,0.1425781,-0.2202148
4047,32.5625,-73.6875,-189.9375,0.7294922,-0.3056641,0.05566406,-0.1831055,0.1347656,-0.2177734
4051,72.375,-99.0625,-152.125,0.9077148,-0.4257813,0.01367188,-0.1962891,0.1201172,-0.2148438
4055,109.625,-110.3125,-124.25,0.8261719,-0.2705078,-0.07080078,-0.2089844,0.1064453,-0.2119141
4059,121.5,-91.125,-140.125,1.252441,0.4790039,0.2597656,-0.215332,0.09619141,-0.2119141
4063,56.3125,-33.1875,-186.375,1.151855,0.7666016,0.2094727,-0.2236328,0.08007813,-0.2094727
4067,40.3125,-18.625,-219.9375,0.8535156,0.2148438,0.1982422,-0.2329102,0.06396484,-0.2094727
4071,57.0625,-47.625,-230.875,0.6210938,0.1640625,0.04785156,-0.2387695,0.04980469,-0.2109375
4075,75.375,-93.3125,-223.4375,0.7719727,0.269043,0.05566406,-0.2460938,0.02880859,-0.2094727
4079,80.8125,-134,-203.4375,0.9272461,0.4633789,0.01367188,-0.2578125,0.007324219,-0.199707
4084,66.9375,-171,-200,1.237305,0.7895508,0.105957,-0.2636719,-0.003417969,-0.1928711
4088,25.5625,-152.625,-213.875,1.818359,0.9838867,0.1674805,-0.2744141,-0.02441406,-0.1806641
4092,-10.5625,-88.5,-227.8125,1.915039,0.7666016,0.1367188,-0.2807617,-0.04199219,-0.1728516
4096,-0.4375,-40.375,-231.375,1.706055,0.3779297,0.05175781,-0.2807617,-0.05712891,-0.1660156
4100,27,-23.5,-208.0625,1.299316,0.3662109,-0.04394531,-0.2827148,-0.07421875,-0.1660156
4104,49.25,-48.375,-183.9375,0.9350586,0.4125977,-0.09765625,-0.2807617,-0.09716797,-0.1630859
4108,76,-76.375,-180.8125,0.9233398,0.4946289,-0.1401367,-0.2807617,-0.1069336,-0.1547852
4112,101.3125,-83.625,-198.625,1.066406,0.6733398,-0.09765625,-0.2807617,-0.1254883,-0.1494141
4116,109.0625,-62.9375,-229.3125,1.213867,0.921875,-0.04003906,-0.2758789,-0.1494141,-0.1401367
4120,115.5625,-41.1875,-259,1.19043,0.9296875,-0.005371094,-0.2734375,-0.1645508,-0.1333008
4124,129.8125,-36.6875,-277.5625,1.124512,0.9916992,-0.01660156,-0.2636719,-0.1918945,-0.1279297
4128,137.9375,-50,-279,1.101563,1.09668,-0.02441406,-0.2519531,-0.2207031,-0.1181641
4132,132.75,-73.875,-268.75,1.101563,1.263672,-0.009277344,-0.2426758,-0.2368164,-0.1088867
4136,108.3125,-103.875,-245.875,1.194336,1.403809,0.03662109,-0.2294922,-0.2607422,-0.09765625
4140,70.5,-120.375,-227.875,1.353516,1.442383,0.09033203,-0.2172852,-0.2768555,-0.08300781
4144,29.625,-119.4375,-198.875,1.512207,1.380371,0.08642578,-0.2080078,-0.2905273,-0.07763672
4148,-12,-103.375,-137.3125,1.624512,1.240234,0.04785156,-0.1982422,-0.3041992,-0.06787109
4152,-41.875,-74.9375,-62.4375,1.628418,0.972168,0.02099609,-0.1914063,-0.3095703,-0.06396484
4156,-55.25,-61.9375,5.4375,1.233398,0.7626953,-0.08984375,-0.1889648,-0.3095703,-0.06396484
4160,-45.625,-76.875,49.25,0.9658203,0.6845703,-0.1474609,-0.1923828,-0.3081055,-0.06396484
4164,-46.1875,-83.4375,64.375,0.9892578,0.777832,-0.1591797,-0.1972656,-0.3041992,-0.06103516
4168,-49.4375,-63.6875,60.5625,1.105469,0.7626953,-0.1401367,-0.2006836,-0.2993164,-0.05957031
4172,-50.375,-25.25,46.375,1.147949,0.7470703,-0.1474609,-0.206543,-0.2954102,-0.05957031
4176,-45.4375,14.875,31.6875,1.023926,0.6923828,-0.2016602,-0.2089844,-0.2905273,-0.06396484
4180,-38.25,23.8125,31.3125,0.7954102,0.6381836,-0.2744141,-0.2104492,-0.2880859,-0.06542969
4184,-26.4375,17.375,39.375,0.7451172,0.6459961,-0.2978516,-0.2128906,-0.2866211,-0.07080078
4188,-15.6875,18.125,43.1875,0.8110352,0.6694336,-0.2822266,-0.215332,-0.2832031,-0.07177734
4192,-5.8125,32.8125,38.5,0.8842773,0.7001953,-0.2514648,-0.2172852,-0.2832031,-0.07324219
4196,4.625,62.875,25.6875,0.9389648,0.7275391,-0.2436523,-0.21875,-0.2792969,-0.07763672
4200,9.75,93.1875,9.0625,0.8535156,0.7392578,-0.2436523,-0.21875,-0.2807617,-0.08154297
4204,11.25,102.6875,5.5625,0.6479492,0.7666016,-0.2553711,-0.2172852,-0.2783203,-0.08544922
4208,8.8125,81.5,19.3125,0.4853516,0.7705078,-0.2285156,-0.2163086,-0.2807617,-0.09228516
4213,8.3125,54.1875,35.125,0.4853516,0.7895508,-0.1977539,-0.215332,-0.2783203,-0.09667969
4217,7.6875,39.0625,42,0.574707,0.8129883,-0.1630859,-0.2172852,-0.2768555,-0.09912109
4221,6.4375,43.125,37.9375,0.675293,0.8325195,-0.1474609,-0.2197266,-0.2729492,-0.09912109
4225,0.8125,57.4375,29.4375,0.6210938,0.8598633,-0.1513672,-0.2211914,-0.2705078,-0.1035156
4229,-5.5,51.1875,29.375,0.4814453,0.8129883,-0.1513672,-0.2197266,-0.2680664,-0.1035156
4233,-8.1875,37,30.4375,0.4467773,0.8129883,-0.1743164,-0.21875,-0.2670898,-0.1098633
4237,-12.5625,17.0625,35.9375,0.3959961,0.7895508,-0.1782227,-0.222168,-0.2641602,-0.1098633
4241,-12.6875,-1.0625,37.5625,0.4541016,0.7666016,-0.1669922,-0.222168,-0.2617188,-0.1142578
4245,-12.75,-4.3125,32.5,0.5629883,0.7626953,-0.1708984,-0.2255859,-0.2592773,-0.1142578
4249,-10.4375,5.3125,20.875,0.6328125,0.7392578,-0.1630859,-0.2270508,-0.2568359,-0.112793
4253,-5.6875,23.375,4.5,0.6713867,0.7197266,-0.1743164,-0.2270508,-0.2543945,-0.1157227
4257,1.5625,46.9375,-12.75,0.6831055,0.7080078,-0.1630859,-0.2270508,-0.2558594,-0.1166992
4261,5.6875,60.875,-21.8125,0.59375,0.6923828,-0.1860352,-0.2236328,-0.2568359,-0.1225586
4265,14.1875,60.875,-24.5,0.5239258,0.6616211,-0.1821289,-0.2211914,-0.2583008,-0.1235352
4269,23.4375,58.75,-28.1875,0.5356445,0.6923828,-0.1552734,-0.2163086,-0.2607422,-0.1264648
4273,30.6875,63.25,-34.5625,0.574707,0.7158203,-0.1323242,-0.2114258,-0.2641602,-0.1289063
4277,34.4375,71.8125,-39.875,0.5820313,0.7626953,-0.1015625,-0.2114258,-0.2670898,-0.1318359
4281,29.9375,63.1875,-32.625,0.4077148,0.8129883,-0.1015625,-0.2055664,-0.2705078,-0.1347656
4285,27.6875,36.625,-19.8125,0.3535156,0.8051758,-0.06689453,-0.203125,-0.2744141,-0.1318359
4289,26.4375,14.6875,-13.9375,0.4077148,0.8442383,-0.04394531,-0.2021484,-0.2753906,-0.1357422
4293,23.75,9.5,-18.375,0.5395508,0.8598633,-0.01660156,-0.1982422,-0.2783203,-0.1333008
4297,22.8125,22.125,-30.875,0.644043,0.8710938,0.001953125,-0.1982422,-0.2783203,-0.1347656
4301,18.0625,38.4375,-40.625,0.6171875,0.8671875,-0.02050781,-0.1948242,-0.2817383,-0.1347656
4305,17.9375,43.125,-42.625,0.5473633,0.809082,-0.04003906,-0.1914063,-0.2856445,-0.1347656
4309,18.5625,34.625,-35.5,0.4580078,0.824707,-0.05126953,-0.1865234,-0.2866211,-0.1386719
4313,19,15.875,-25.0625,0.4350586,0.8129883,-0.04003906,-0.1831055,-0.2895508,-0.1357422
4317,21.8125,4.6875,-19.4375,0.5200195,0.8364258,-0.01318359,-0.1806641,-0.2919922,-0.137207
4321,21.1875,8.0625,-22.5,0.6015625,0.8828125,0.02099609,-0.1791992,-0.2944336,-0.1357422
4325,18.625,19.75,-30.125,0.6328125,0.8867188,0.02880859,-0.1782227,-0.2954102,-0.1333008
4329,17.375,32.25,-37.625,0.6210938,0.8710938,0.02099609,-0.1748047,-0.2983398,-0.1347656
4333,16.125,36.6875,-37.875,0.5512695,0.875,-0.009277344,-0.1708984,-0.3017578,-0.1347656
4337,14.1875,27.0625,-31.5625,0.5009766,0.8364258,0.001953125,-0.168457,-0.3032227,-0.1357422
