Packet number,Gyroscope X (deg/s),Gyroscope Y (deg/s),Gyroscope Z (deg/s),Accelerometer X (g),Accelerometer Y (g),Accelerometer Z (g),Magnetometer X (G),Magnetometer Y (G),Magnetometer Z (G)
3,1.6875,-0.3125,0.875,-0.8588867,-0.4726563,-0.05908203,0.2773438,0.05859375,-0.1357422
7,1.8125,-0.875,0.125,-0.8588867,-0.4570313,-0.06298828,0.2749023,0.05859375,-0.1347656
11,0.8125,-1.3125,-0.3125,-0.862793,-0.4453125,-0.06689453,0.2734375,0.05859375,-0.1347656
15,0.75,-0.75,0.9375,-0.847168,-0.4570313,-0.07080078,0.2749023,0.05761719,-0.1347656
19,0.25,0.4375,1.125,-0.8393555,-0.4492188,-0.06689453,0.2734375,0.05615234,-0.1357422
23,-0.8125,0.75,0.625,-0.8588867,-0.4453125,-0.06298828,0.2734375,0.05859375,-0.1333008
27,-1.4375,-1.375,-0.6875,-0.8549805,-0.4609375,-0.07080078,0.2749023,0.05859375,-0.1333008
31,-0.1875,-1.375,-2.4375,-0.8393555,-0.4882813,-0.05517578,0.2758789,0.05859375,-0.1333008
35,1.875,2.375,-0.4375,-0.8237305,-0.4921875,-0.04394531,0.2734375,0.06005859,-0.1347656
40,4.5,6.25,0.25,-0.8276367,-0.4882813,-0.04003906,0.2758789,0.05859375,-0.1333008
44,5.1875,7.3125,-0.1875,-0.8706055,-0.453125,-0.06689453,0.2749023,0.06005859,-0.1347656
48,5.4375,5.75,-1.75,-0.878418,-0.4570313,-0.05126953,0.2758789,0.05761719,-0.1347656
52,7.5,7.625,1.0625,-0.878418,-0.46875,-0.02050781,0.2749023,0.06005859,-0.1318359
56,10.375,9.6875,2.5625,-0.9091797,-0.4570313,-0.02050781,0.2758789,0.05859375,-0.1333008
60,14.625,9.4375,2.3125,-0.9633789,-0.4414063,0.001953125,0.2773438,0.05761719,-0.1318359
64,21,7,1.4375,-1.099121,-0.4257813,0.03271484,0.2773438,0.05371094,-0.1318359
68,30.375,3.25,5.3125,-1.223145,-0.453125,0.1518555,0.2773438,0.05371094,-0.1333008
72,45.75,1,11.9375,-1.362793,-0.5073242,0.2480469,0.2783203,0.05273438,-0.1347656
76,73,9.5625,33.25,-1.505859,-0.5776367,0.3481445,0.2773438,0.05126953,-0.1357422
80,95.9375,20,65.9375,-1.699707,-0.4726563,0.3867188,0.2792969,0.04492188,-0.1347656
84,111.625,21.8125,106.8125,-1.912598,-0.4257813,0.2827148,0.2832031,0.03369141,-0.137207
88,116.3125,6.5,142.75,-2.009766,-0.2202148,0.144043,0.2856445,0.01855469,-0.1386719
92,107.625,-19.75,157.625,-2.036621,-0.1269531,0.04785156,0.2880859,0.01025391,-0.1416016
96,96,-46,168.4375,-2.036621,-0.06054688,0.03271484,0.2900391,-0.01074219,-0.1455078
100,82.0625,-66.375,184.0625,-2.063965,-0.1538086,0.07128906,0.2900391,-0.02929688,-0.1523438
104,80.25,-79.25,208.875,-2.106445,-0.2978516,0.1171875,0.2890625,-0.04296875,-0.1547852
108,89.5625,-82.8125,234.375,-2.07959,-0.3325195,0.1674805,0.2880859,-0.06591797,-0.1645508
112,86.75,-89.6875,251,-2.238281,-0.1577148,0.02490234,0.2817383,-0.09082031,-0.1699219
116,64.3125,-116.1875,276.0625,-2.331543,-0.1269531,-0.09375,0.2783203,-0.109375,-0.1738281
120,42.3125,-143.3125,306.125,-2.152832,-0.2939453,-0.1015625,0.2675781,-0.1367188,-0.1850586
124,30.25,-161.9375,332.4375,-1.746094,-0.3637695,-0.07861328,0.2519531,-0.1645508,-0.1958008
128,21.1875,-158,335.875,-1.393555,-0.4335938,0.05566406,0.237793,-0.1831055,-0.2041016
132,35.625,-158.3125,313.1875,-1.37793,-0.6552734,0.1328125,0.21875,-0.2080078,-0.2163086
136,62.6875,-137.6875,313.9375,-1.157227,-0.581543,0.2211914,0.1938477,-0.2319336,-0.2216797
140,72.625,-96.125,338,-1.083496,-0.4179688,0.1982422,0.1772461,-0.2441406,-0.2216797
144,63.5,-70.875,363.375,-1.32373,-0.1420898,0.01708984,0.1547852,-0.2695313,-0.2216797
148,32.875,-94.5625,364.0625,-1.587402,0.02832031,-0.1977539,0.1259766,-0.2880859,-0.2216797
152,4.5,-138,347.1875,-1.606445,-0.1035156,-0.2167969,0.105957,-0.2954102,-0.2231445
156,-0.375,-164.375,334.875,-1.315918,-0.2705078,-0.128418,0.07128906,-0.3081055,-0.2270508
160,-4.6875,-150.9375,354.5625,-1.060547,-0.3095703,-0.05517578,0.03662109,-0.3129883,-0.2285156
164,-13.0625,-139.1875,379.1875,-0.8857422,-0.2978516,-0.2016602,0.01269531,-0.3144531,-0.230957
169,-28.75,-136.75,386.9375,-0.6303711,-0.2900391,-0.3208008,-0.02490234,-0.3129883,-0.230957
173,-51.875,-150.875,373.3125,-0.4365234,-0.3134766,-0.4438477,-0.06396484,-0.3032227,-0.230957
177,-70.4375,-176.4375,332.9375,-0.09912109,-0.4140625,-0.5053711,-0.08789063,-0.296875,-0.230957
181,-67.0625,-190.3125,285.875,0.4931641,-0.7250977,-0.3554688,-0.1245117,-0.2807617,-0.2299805
185,-41,-152.125,255.0625,1.078125,-0.8725586,-0.1474609,-0.1542969,-0.2631836,-0.2246094
189,-7.75,-91.4375,232.6875,1.523926,-0.9272461,-0.01318359,-0.1699219,-0.2519531,-0.2216797
193,21.5,-45.5,185,1.647949,-0.7485352,-0.08203125,-0.1899414,-0.2407227,-0.2163086
197,17.0625,-28.5625,127.5625,1.620605,-0.402832,-0.2475586,-0.2006836,-0.2304688,-0.2148438
201,-14.25,-41.5625,55.6875,1.686523,-0.1967773,-0.3325195,-0.2055664,-0.2280273,-0.2109375
205,-45.3125,-51.75,-12.875,1.802734,-0.2353516,-0.1977539,-0.2104492,-0.2231445,-0.2109375
209,-47.375,-29.25,-67.5,1.895996,-0.3754883,0.09033203,-0.2114258,-0.2255859,-0.2094727
213,-24.3125,16.875,-104.375,1.659668,-0.387207,0.2788086,-0.206543,-0.2231445,-0.2080078
217,6.9375,47.4375,-141.375,1.291504,-0.2783203,0.3212891,-0.2006836,-0.2294922,-0.2133789
221,29.75,63.875,-170.8125,0.9350586,-0.05273438,0.2329102,-0.1875,-0.2416992,-0.2148438
225,27.5,64.5625,-189,0.6713867,0.2338867,0.09033203,-0.1772461,-0.2504883,-0.2163086
229,6.9375,59,-203.8125,0.5356445,0.3388672,0.02880859,-0.1625977,-0.2617188,-0.21875
233,-9.5,57.9375,-216.25,0.4506836,0.1953125,0.1210938,-0.1435547,-0.2729492,-0.2231445
237,-4.5,62.4375,-234.6875,0.3535156,-0.02197266,0.2021484,-0.1328125,-0.2783203,-0.2255859
241,18,66.8125,-262.6875,0.3496094,-0.04882813,0.2329102,-0.1113281,-0.2895508,-0.2270508
245,23.125,84.1875,-272.625,0.1713867,0.07470703,0.1132813,-0.08789063,-0.2993164,-0.2285156
249,7.75,95.4375,-267.8125,-0.05273438,0.1875,-0.02050781,-0.07128906,-0.3041992,-0.2299805
253,-11.75,85.25,-276.0625,-0.2583008,0.06689453,-0.03613281,-0.04492188,-0.3120117,-0.2324219
257,-7.625,58.6875,-325.0625,-0.2001953,-0.1269531,0.1171875,-0.01611328,-0.3120117,-0.2338867
261,11.8125,77.625,-347.75,-0.07617188,-0.3017578,0.2480469,0.003417969,-0.3105469,-0.2353516
265,23,119.3125,-334.125,-0.2543945,-0.3173828,0.1367188,0.03564453,-0.3120117,-0.230957
269,19.0625,135.375,-312.1875,-0.6069336,-0.1308594,-0.112793,0.06787109,-0.3066406,-0.2285156
273,-12.5,128.9375,-299.1875,-0.7114258,0.01660156,-0.1860352,0.08789063,-0.3032227,-0.2231445
277,-39.125,110.4375,-309.875,-0.9287109,-0.2626953,-0.1708984,0.1166992,-0.2905273,-0.2216797
281,-28.625,73.6875,-361.375,-0.8198242,-0.6123047,0.04443359,0.144043,-0.2768555,-0.2202148
285,-6,122.875,-362,-0.7504883,-0.7172852,0.1518555,0.1606445,-0.2641602,-0.2202148
289,-12.3125,166.375,-310.8125,-1.149414,-0.4453125,-0.1782227,0.1904297,-0.2431641,-0.2148438
293,-61.3125,166.3125,-268.625,-1.381836,-0.1074219,-0.4091797,0.2138672,-0.2231445,-0.2026367
298,-117.25,119.5625,-282.1875,-1.610352,-0.3793945,-0.4667969,0.2260742,-0.2104492,-0.1987305
302,-124.1875,34.5625,-348,-1.544922,-0.9350586,-0.3823242,0.2451172,-0.1791992,-0.1987305
306,-99.9375,46,-398.875,-0.878418,-1.214844,0.144043,0.2558594,-0.1455078,-0.199707
310,-79.0625,149.8125,-375.5,-1.103027,-1.319336,0.105957,0.2626953,-0.1206055,-0.1972656
314,-92.9375,212,-332.4375,-1.815918,-0.8725586,-0.2705078,0.2773438,-0.08691406,-0.1821289
318,-143.4375,198.625,-309.125,-2.214844,-0.6591797,-0.59375,0.2866211,-0.05322266,-0.1645508
322,-200.875,160.8125,-293.0625,-2.199707,-0.8144531,-0.644043,0.2900391,-0.02929688,-0.1508789
326,-218.875,114.1875,-308.25,-2.203613,-1.308105,-0.4785156,0.2915039,0.006347656,-0.1347656
330,-175.6875,48.5,-337.875,-1.974609,-1.501953,-0.2514648,0.2856445,0.04248047,-0.1210938
334,-145.75,48.375,-342.9375,-1.552246,-1.210938,0.05175781,0.2758789,0.06738281,-0.1157227
338,-142.875,92.3125,-319.3125,-1.560059,-1.183594,0.2250977,0.2666016,0.1000977,-0.1035156
342,-118.3125,139.875,-243.5625,-1.916504,-1.459473,0.4135742,0.2519531,0.1274414,-0.08691406
346,-60.75,168.4375,-130.3125,-2.424316,-1.432129,0.6176758,0.2451172,0.1411133,-0.07177734
350,5.75,140.625,-44.3125,-2.92041,-1.08252,0.640625,0.2412109,0.1474609,-0.05566406
354,46.875,57.25,-6.875,-3.071289,-0.7211914,0.4599609,0.2426758,0.1523438,-0.05273438
358,62.1875,-17.25,30.8125,-2.625977,-0.46875,0.3330078,0.2426758,0.1499023,-0.05419922
362,59.5625,-43.8125,76.5625,-2.114258,-0.402832,0.2250977,0.2451172,0.1489258,-0.05957031
366,54.1875,-43.8125,117.875,-1.800293,-0.3989258,0.1479492,0.2485352,0.1401367,-0.06640625
370,44.4375,-34.625,145.1875,-1.65332,-0.4726563,0.1328125,0.2543945,0.1323242,-0.07080078
374,43.8125,-30.5625,162.5625,-1.661133,-0.7016602,0.1210938,0.2626953,0.1176758,-0.07617188
378,63.9375,-37,174.75,-1.757813,-0.9697266,0.105957,0.2700195,0.1025391,-0.08007813
382,91.8125,-44.6875,192.9375,-1.761719,-0.9970703,0.02880859,0.2734375,0.09228516,-0.08544922
386,101.9375,-42.5,219.6875,-1.78125,-0.9428711,-0.112793,0.2807617,0.07128906,-0.09521484
390,98.75,-46.4375,251.1875,-1.843262,-0.8803711,-0.2631836,0.2900391,0.04882813,-0.1035156
394,85.9375,-57.25,276.9375,-1.835449,-0.7910156,-0.3823242,0.2939453,0.02880859,-0.1088867
398,64.5,-72.875,286.5,-1.812012,-0.7524414,-0.4248047,0.2973633,0.001464844,-0.1157227
402,49,-92.5,281.75,-1.815918,-0.8920898,-0.3974609,0.2983398,-0.02685547,-0.125
406,52.4375,-108.5625,283.625,-1.757813,-1.047363,-0.3515625,0.3007813,-0.04589844,-0.1303711
410,60.4375,-110.4375,296.875,-1.633789,-1.024414,-0.2978516,0.2949219,-0.07568359,-0.1416016
414,59.9375,-106.125,312.4375,-1.587402,-0.8842773,-0.3168945,0.2890625,-0.1069336,-0.1508789
418,43.4375,-108,325.25,-1.556152,-0.6552734,-0.378418,0.2856445,-0.1254883,-0.15625
422,19.875,-120.8125,321.875,-1.556152,-0.6357422,-0.394043,0.2724609,-0.1567383,-0.1660156
427,17.75,-136.8125,307.625,-1.471191,-0.7172852,-0.3325195,0.2568359,-0.1845703,-0.1728516
431,20.3125,-147.125,306.4375,-1.339355,-0.6787109,-0.2783203,0.2460938,-0.2006836,-0.1821289
435,23.625,-142.5,311.875,-1.133789,-0.5854492,-0.2436523,0.2260742,-0.2231445,-0.1928711
439,15.375,-135.25,323.5625,-1.056641,-0.4179688,-0.2553711,0.203125,-0.2441406,-0.199707
443,9.5,-122.1875,315.75,-0.9555664,-0.3754883,-0.1938477,0.184082,-0.2607422,-0.2026367
447,1.9375,-115.875,322.6875,-1.013672,-0.2861328,-0.2167969,0.1606445,-0.2768555,-0.2094727
451,-14,-124.625,331.1875,-1.005859,-0.2045898,-0.2744141,0.1318359,-0.2919922,-0.2177734
455,-21.3125,-145.4375,313.375,-0.9399414,-0.2314453,-0.2592773,0.112793,-0.3007813,-0.21875
459,-28.5625,-168.5625,304.0625,-0.7734375,-0.1850586,-0.2553711,0.07861328,-0.3081055,-0.2246094
463,-42.5,-170.8125,304.5,-0.5605469,-0.09570313,-0.2055664,0.04736328,-0.3095703,-0.2299805
467,-52.0625,-168.625,303,-0.4130859,-0.2124023,-0.1669922,0.02587891,-0.3105469,-0.2353516
471,-46.1875,-171,284.5625,-0.1342773,-0.2939453,-0.06298828,-0.009277344,-0.3066406,-0.2407227
475,-33.0625,-150.25,273,0.140625,-0.2241211,0.05957031,-0.04248047,-0.3017578,-0.2392578
479,-18.5,-115.5,268.8125,0.2333984,-0.2822266,0.1132813,-0.06152344,-0.2983398,-0.2392578
483,0.25,-103.3125,265.4375,0.3378906,-0.3095703,0.1020508,-0.08642578,-0.2905273,-0.2368164
487,10.125,-98.375,248.4375,0.6870117,-0.1538086,0.04443359,-0.112793,-0.2817383,-0.2338867
491,2,-90.625,212.8125,0.9970703,-0.08398438,0.03271484,-0.1293945,-0.2768555,-0.2285156
495,0.625,-80.875,174.375,1.442383,-0.2978516,0.144043,-0.1484375,-0.2680664,-0.2270508
499,9.875,-55.875,137.875,1.798828,-0.3676758,0.2060547,-0.1640625,-0.2592773,-0.2246094
503,15.5,-27.3125,83.6875,2.03125,-0.3598633,0.2133789,-0.1723633,-0.2558594,-0.2202148
507,19.375,-4.875,12.375,2.03125,-0.1928711,0.1943359,-0.1757813,-0.2529297,-0.21875
511,16.9375,8.6875,-61.625,1.756348,-0.09179688,0.1904297,-0.1757813,-0.2558594,-0.21875
515,17.0625,22,-112.3125,1.43457,-0.01025391,0.1826172,-0.1723633,-0.2583008,-0.2163086
519,12.625,35.4375,-140.875,1.09375,0.1640625,0.144043,-0.1625977,-0.2670898,-0.21875
523,1.4375,45,-151.75,0.7680664,0.2612305,0.07519531,-0.1484375,-0.2753906,-0.2202148
527,-11.75,35.75,-165.25,0.5356445,0.2456055,0.01708984,-0.1401367,-0.2783203,-0.2202148
531,-14.5,18.375,-193.4375,0.6210938,0.1875,0.04443359,-0.1259766,-0.2832031,-0.2216797
535,-13.1875,31.5,-227.875,0.7490234,0.09814453,0.1826172,-0.109375,-0.2929688,-0.2246094
539,1.4375,67.75,-248.625,0.5708008,-0.06445313,0.2290039,-0.09619141,-0.296875,-0.2270508
543,16.1875,99.5,-241.0625,0.1635742,-0.01025391,0.1171875,-0.07226563,-0.3032227,-0.2270508
547,11,113.9375,-226.25,-0.1030273,0.2729492,-0.06689453,-0.04736328,-0.3120117,-0.2299805
551,-19.375,104.8125,-222.25,-0.3862305,0.5683594,-0.1899414,-0.03320313,-0.3129883,-0.2324219
556,-47,72.375,-254.75,-0.4672852,0.2226563,-0.1552734,-0.0078125,-0.3120117,-0.2353516
560,-47.875,59.0625,-284.4375,-0.3007813,0.09814453,0.06738281,0.01757813,-0.3066406,-0.2392578
564,-42.4375,83.5625,-285.25,-0.2543945,-0.1269531,0.1865234,0.03320313,-0.3032227,-0.2407227
568,-19.3125,130.75,-271.25,-0.4208984,-0.1850586,0.1943359,0.06054688,-0.2993164,-0.2407227
572,-23.25,164.3125,-237.0625,-0.8046875,0.1875,-0.07861328,0.08789063,-0.2905273,-0.2392578
576,-61.4375,166.6875,-229.5625,-1.12207,0.4555664,-0.1708984,0.105957,-0.2841797,-0.2338867
580,-91.1875,107.625,-254.4375,-1.905273,-0.09570313,-0.2055664,0.1293945,-0.2705078,-0.2368164
584,-56.9375,21.5625,-280.8125,-1.416992,-0.2626953,0.08251953,0.1484375,-0.2543945,-0.2392578
588,-59.375,59.875,-250.625,-0.7192383,-0.006347656,0.2709961,0.1616211,-0.2416992,-0.237793
592,-79.375,127.125,-208.875,-0.7504883,0.004882813,0.06738281,0.1772461,-0.2255859,-0.237793
596,-99.625,166.3125,-176.0625,-0.7929688,-0.02197266,-0.04394531,0.1962891,-0.2094727,-0.2338867
600,-115.8125,196.3125,-171.8125,-1.041016,-0.3442383,-0.03613281,0.2070313,-0.1967773,-0.2299805
604,-83.4375,134.375,-239.5625,-1.583496,-0.6630859,-0.1015625,0.2260742,-0.1767578,-0.2231445
608,-48.3125,64.875,-282,-1.257813,-0.5385742,-0.08203125,0.2402344,-0.1542969,-0.2177734
612,-75.5625,89,-275.0625,-0.7890625,-0.3676758,0.02099609,0.2460938,-0.1381836,-0.2148438
616,-92.9375,146.3125,-250.625,-0.8935547,-0.6396484,-0.03613281,0.2568359,-0.1132813,-0.206543
620,-97.4375,181.0625,-225.6875,-1.12207,-0.7211914,-0.1513672,0.269043,-0.08837891,-0.1943359
624,-108.375,176.5,-243.6875,-1.629883,-0.8999023,-0.1977539,0.2758789,-0.07177734,-0.1865234
628,-83.25,76.75,-315.8125,-2.145508,-1.21875,-0.2285156,0.2817383,-0.04199219,-0.1738281
632,-75.4375,5.75,-345,-1.684082,-0.8803711,0.02099609,0.2807617,-0.008300781,-0.1699219
636,-109.875,32.5,-326.75,-1.509766,-0.8535156,0.2983398,0.2749023,0.01269531,-0.168457
640,-115.1875,77.5625,-272.3125,-1.804199,-1.121582,0.5058594,0.2675781,0.04492188,-0.1606445
644,-93.9375,113.5625,-203.4375,-2.195801,-1.226563,0.7558594,0.2651367,0.06982422,-0.1484375
648,-45.625,104.0625,-140.4375,-2.703125,-1.334961,0.8095703,0.2617188,0.08398438,-0.1416016
652,10.9375,50.875,-91.5625,-2.598633,-1.016602,0.7905273,0.2592773,0.09521484,-0.1318359
656,38.8125,28.125,-34.5625,-2.106445,-0.6435547,0.675293,0.2592773,0.09863281,-0.1279297
660,48.3125,22.625,10.625,-1.769531,-0.3950195,0.4599609,0.2583008,0.1000977,-0.1279297
664,48,15.5625,33.5625,-1.509766,-0.2202148,0.2675781,0.2602539,0.09765625,-0.1289063
668,41.75,6.5,38.4375,-1.347168,-0.1308594,0.1748047,0.2626953,0.09130859,-0.1289063
672,32.4375,-0.125,40.875,-1.223145,-0.1577148,0.159668,0.2617188,0.08984375,-0.1318359
676,27.5625,3.0625,47.75,-1.184082,-0.2783203,0.2172852,0.2651367,0.08642578,-0.1318359
680,29.625,6.75,64.9375,-1.230957,-0.371582,0.2060547,0.2666016,0.07861328,-0.1333008
685,33.4375,0,73.25,-1.32373,-0.4921875,0.1787109,0.2700195,0.07617188,-0.1347656
689,47.75,-12.3125,79,-1.35498,-0.6162109,0.1865234,0.2724609,0.06640625,-0.1318359
693,58.25,-11.6875,91.6875,-1.312012,-0.6201172,0.2290039,0.2749023,0.05761719,-0.1386719
697,71.4375,-4.5,109.25,-1.339355,-0.6899414,0.2133789,0.2758789,0.04980469,-0.1416016
701,83.125,7.3125,124.6875,-1.393555,-0.6318359,0.2250977,0.2807617,0.03759766,-0.1416016
705,89.875,17.0625,139.3125,-1.610352,-0.6435547,0.2172852,0.2841797,0.02148438,-0.1469727
709,100.125,9.5625,160.8125,-1.862305,-0.6162109,0.1210938,0.2841797,0.01025391,-0.1425781
713,92.9375,-7.375,192.5,-1.939941,-0.3989258,0.01367188,0.2890625,-0.009277344,-0.1469727
717,73.625,-29.75,216.9375,-1.92041,-0.4101563,-0.03222656,0.2915039,-0.02929688,-0.1508789
721,65.3125,-47.4375,223.75,-1.808105,-0.4609375,0.005859375,0.2900391,-0.04589844,-0.1494141
725,62.8125,-42.3125,232.25,-1.711426,-0.4414063,0.05957031,0.2900391,-0.06933594,-0.1577148
729,53.125,-42.25,247.3125,-1.92041,-0.3637695,-0.05908203,0.2880859,-0.09326172,-0.1591797
733,30.25,-68.3125,252.625,-2.137695,-0.2626953,-0.1669922,0.2832031,-0.1069336,-0.1616211
737,20,-101.25,274.5625,-2.164551,-0.5268555,-0.1401367,0.2758789,-0.1333008,-0.168457
741,22.25,-115,308.0625,-1.835449,-0.5268555,-0.0859375,0.2675781,-0.1591797,-0.1767578
745,11.1875,-115.5625,326.375,-1.571777,-0.387207,-0.128418,0.2568359,-0.1757813,-0.1821289
749,2.75,-115.3125,342.3125,-1.296875,-0.4101563,-0.1245117,0.2392578,-0.2016602,-0.1904297
753,-0.875,-122.8125,330.125,-1.168945,-0.402832,-0.112793,0.2163086,-0.2246094,-0.199707
757,1.25,-141.6875,310.375,-1.037109,-0.3676758,-0.1435547,0.2021484,-0.2407227,-0.2055664
761,1.8125,-145.5625,288.75,-0.9946289,-0.3095703,-0.08203125,0.1772461,-0.2592773,-0.2133789
765,3.3125,-144.5625,302.625,-0.8510742,-0.3598633,-0.08984375,0.1533203,-0.2719727,-0.21875
769,5,-107.25,326.5,-0.5834961,-0.2548828,-0.01660156,0.1333008,-0.2841797,-0.2255859
773,-9.125,-90.75,334.4375,-0.6264648,-0.02197266,-0.1630859,0.1044922,-0.2929688,-0.2285156
777,-26.3125,-103.3125,307.4375,-0.7387695,-0.01025391,-0.1977539,0.07617188,-0.3041992,-0.2324219
781,-35.5625,-135.0625,281,-0.7036133,-0.03369141,-0.1977539,0.05712891,-0.3081055,-0.2324219
785,-44.0625,-146.75,276.25,-0.3549805,-0.1381836,-0.07861328,0.02587891,-0.3066406,-0.2392578
789,-36.5,-125.5,284.4375,-0.02978516,-0.2431641,0.02099609,-0.003417969,-0.3032227,-0.2407227
793,-24.25,-101.125,282.6875,0.2177734,-0.2314453,0.03271484,-0.02246094,-0.3017578,-0.2421875
797,-15.3125,-82.9375,265.25,0.4697266,-0.1889648,0.02490234,-0.04980469,-0.2954102,-0.2436523
801,-11.75,-80.125,216.125,0.6518555,-0.1308594,0.02490234,-0.07324219,-0.2895508,-0.2436523
805,-4.375,-66.5625,174.125,1.02002,-0.1811523,0.140625,-0.08642578,-0.2866211,-0.237793
809,4.5,-31.125,144.625,1.194336,-0.2124023,0.2211914,-0.1030273,-0.2832031,-0.237793
814,20.625,3,120.4375,1.260254,-0.2431641,0.2558594,-0.1137695,-0.2783203,-0.237793
818,32.1875,14.625,78.8125,1.233398,-0.1191406,0.2211914,-0.1176758,-0.2753906,-0.2368164
822,33.25,20.375,30.5625,1.302734,-0.01806641,0.2094727,-0.1186523,-0.2768555,-0.2353516
826,31.0625,15.75,-27.6875,1.256348,0.01269531,0.2133789,-0.1210938,-0.2807617,-0.2338867
830,30.5625,16.25,-80,1.248535,-0.02587891,0.2402344,-0.1186523,-0.2792969,-0.2338867
834,33.1875,32,-111.5,1.175293,-0.03369141,0.2402344,-0.1103516,-0.2856445,-0.2338867
838,31.75,55.0625,-128.0625,1.023926,0.07080078,0.1479492,-0.09960938,-0.2919922,-0.2324219
842,19.25,66.125,-149.3125,0.7412109,0.140625,0.01367188,-0.09033203,-0.296875,-0.230957
846,11.6875,43,-200.125,0.4775391,0.09423828,-0.05126953,-0.07470703,-0.3017578,-0.230957
850,3.3125,26.5625,-247.25,0.5473633,0.1445313,-0.01318359,-0.05566406,-0.3095703,-0.2324219
854,-9.5,45.3125,-265.4375,0.4736328,0.01660156,0.02490234,-0.04150391,-0.3095703,-0.2324219
858,-6.9375,86.8125,-260.25,0.3266602,-0.1191406,0.1289063,-0.01757813,-0.3105469,-0.2338867
862,3.375,129.5625,-250.875,-0.05664063,-0.09960938,0.08642578,0.008300781,-0.3120117,-0.2353516
866,2.9375,129.5,-258.5,-0.4326172,0.04394531,-0.02050781,0.02734375,-0.3105469,-0.2338867
870,-12.1875,68.5625,-287.4375,-0.9907227,0.2885742,-0.2363281,0.0546875,-0.3066406,-0.230957
874,-54,26.375,-303.125,-0.7348633,0.3081055,-0.1552734,0.07958984,-0.296875,-0.2338867
878,-90.0625,31.125,-300.5,-0.4130859,0.1333008,-0.02050781,0.09375,-0.2895508,-0.2353516
882,-82.5625,91.8125,-290.125,-0.2890625,-0.4726563,0.2788086,0.1166992,-0.2744141,-0.2407227
886,-33.125,138.4375,-289,-0.7192383,-0.8222656,0.2788086,0.1401367,-0.2592773,-0.2392578
890,8.875,143.1875,-311.625,-0.9438477,-0.519043,-0.009277344,0.1591797,-0.2495117,-0.237793
894,-16.625,145,-308.375,-1.033203,-0.1074219,-0.2016602,0.184082,-0.2319336,-0.2299805
898,-63.75,132.0625,-291.8125,-1.168945,-0.1269531,-0.2822266,0.2080078,-0.2119141,-0.2216797
902,-103.9375,144.625,-258.3125,-0.9868164,-0.4257813,-0.128418,0.21875,-0.1958008,-0.21875
906,-92.4375,157.9375,-278.4375,-1.32373,-1.183594,0.03271484,0.2353516,-0.171875,-0.2119141
910,-27.5625,130.5625,-314.1875,-1.614258,-1.331055,-0.03613281,0.253418,-0.1455078,-0.2041016
914,-21.5,119.4375,-320.75,-1.494141,-0.6513672,-0.1245117,0.2602539,-0.1269531,-0.1987305
918,-70.25,106.75,-314.25,-1.661133,-0.484375,-0.2939453,0.2709961,-0.09716797,-0.1875
922,-116.5,85.9375,-302,-1.544922,-0.6899414,-0.2670898,0.2773438,-0.06591797,-0.1796875
926,-151.25,101.875,-277.25,-1.296875,-0.9272461,-0.2397461,0.2792969,-0.046875,-0.175293
930,-163.6875,111.75,-284.75,-1.486328,-1.401367,-0.2089844,0.2817383,-0.01318359,-0.1630859
934,-122.75,80.5,-345.9375,-1.603027,-1.739258,-0.1401367,0.2792969,0.02148438,-0.1523438
938,-90.0625,77.5625,-383.125,-1.347168,-1.443848,0.04443359,0.2773438,0.04394531,-0.144043
943,-92.75,123.0625,-369,-1.479004,-1.556641,0.05566406,0.2651367,0.08105469,-0.1347656
947,-70.5,168.4375,-297,-1.79248,-1.618652,0.07910156,0.2543945,0.1123047,-0.1166992
951,-46.0625,207.5625,-207.8125,-2.036621,-1.334961,0.1098633,0.2475586,0.1289063,-0.1044922
955,-19.6875,197.8125,-138.3125,-2.62207,-1.276855,0.1132813,0.2402344,0.1435547,-0.08691406
959,23.1875,119.9375,-92.125,-2.870117,-0.9619141,0.105957,0.237793,0.1547852,-0.07177734
963,38.9375,35,-48.8125,-2.567871,-0.6162109,0.08642578,0.2353516,0.1577148,-0.06787109
967,30.25,-14.875,-14.4375,-2.125977,-0.2900391,0.01708984,0.2319336,0.1625977,-0.07177734
971,18.8125,-30.4375,19.3125,-1.761719,-0.2241211,0.01367188,0.234375,0.1601563,-0.07324219
975,6.5625,-23.25,44,-1.560059,-0.2045898,0.05175781,0.2319336,0.1601563,-0.07617188
979,-0.5625,-19.3125,62.25,-1.599121,-0.3208008,0.09423828,0.2353516,0.1547852,-0.07617188
983,4.9375,-22.6875,79.9375,-1.691895,-0.4882813,0.144043,0.237793,0.1499023,-0.08007813
987,18.75,-32.0625,102.9375,-1.804199,-0.5737305,0.125,0.2426758,0.1435547,-0.08007813
991,25.75,-47.9375,128.9375,-1.850586,-0.5854492,0.04785156,0.2475586,0.1323242,-0.08544922
995,25.3125,-61,155.25,-1.812012,-0.6279297,-0.01318359,0.253418,0.1225586,-0.09082031
999,25,-59.375,182.4375,-1.711426,-0.7446289,-0.04003906,0.2592773,0.1152344,-0.09765625
1003,27.4375,-45.6875,214.8125,-1.67627,-0.7988281,-0.08203125,0.2675781,0.09765625,-0.1035156
1007,24.1875,-35.5625,243.375,-1.761719,-0.8105469,-0.1552734,0.2758789,0.07519531,-0.1088867
1011,20.375,-44.8125,255.4375,-1.947754,-0.9194336,-0.2285156,0.2832031,0.06005859,-0.112793
1015,22.625,-65.125,266.5625,-2.036621,-1.004883,-0.2553711,0.2890625,0.03613281,-0.1166992
1019,18.125,-78.75,296.875,-1.947754,-0.9775391,-0.3168945,0.2924805,0.01123047,-0.125
1023,6.3125,-92.125,322.0625,-1.854492,-0.9970703,-0.359375,0.2973633,-0.009277344,-0.1318359
1027,-1.875,-97.5,330.5625,-1.680176,-1.004883,-0.3476563,0.2963867,-0.04052734,-0.1416016
1031,-6,-96.6875,334.375,-1.563965,-1.000977,-0.2783203,0.2939453,-0.06933594,-0.1484375
1035,-5.875,-100.625,321.75,-1.567871,-0.9541016,-0.2822266,0.2890625,-0.09082031,-0.1538086
1039,-0.625,-107.75,312.625,-1.498047,-0.9467773,-0.2436523,0.2807617,-0.1196289,-0.1660156
1043,5.0625,-99.125,310.25,-1.447754,-0.8457031,-0.1977539,0.2709961,-0.1479492,-0.1728516
1047,2.25,-92.375,331.75,-1.381836,-0.6787109,-0.2592773,0.2626953,-0.1645508,-0.1767578
1051,-14.0625,-91.625,348.875,-1.304199,-0.5112305,-0.3012695,0.2460938,-0.1904297,-0.1835938
1055,-28.3125,-95.1875,335.3125,-1.195801,-0.4609375,-0.3051758,0.2294922,-0.2167969,-0.1904297
1059,-36.625,-105.75,320.6875,-1.099121,-0.4804688,-0.2744141,0.2163086,-0.2280273,-0.1958008
1063,-38.3125,-110,309.9375,-1.071777,-0.421875,-0.2475586,0.1938477,-0.2456055,-0.2041016
1067,-33.6875,-109.125,308.875,-0.9633789,-0.503418,-0.1630859,0.1699219,-0.2631836,-0.2119141
1072,-28,-97.9375,327.125,-0.7851563,-0.3754883,-0.1401367,0.1523438,-0.2719727,-0.2177734
1076,-34.375,-80.125,332.8125,-0.878418,-0.1850586,-0.1743164,0.128418,-0.2856445,-0.2231445
1080,-46.0625,-119.25,311.9375,-1.083496,-0.1811523,-0.2900391,0.09960938,-0.2954102,-0.2299805
1084,-51.5,-162.8125,293.0625,-0.9633789,-0.1230469,-0.309082,0.07958984,-0.2983398,-0.2338867
1088,-69.375,-190.75,289.75,-0.5991211,-0.04541016,-0.2939453,0.04736328,-0.3007813,-0.2392578
1092,-80.375,-197,285.625,-0.1108398,-0.2626953,-0.1669922,0.01416016,-0.3007813,-0.2490234
1096,-59.8125,-167.3125,264.5625,0.4194336,-0.519043,0.1098633,-0.0078125,-0.2944336,-0.2514648
1100,-16.75,-111,242.3125,0.7294922,-0.421875,0.340332,-0.03759766,-0.2880859,-0.2543945
1104,10.5,-66.1875,230.8125,0.6015625,-0.2744141,0.2402344,-0.06298828,-0.2841797,-0.2529297
1108,23.5,-44.5625,216.75,0.7719727,-0.1499023,0.1943359,-0.07568359,-0.2817383,-0.2514648
1112,25.625,-16.75,195.0625,1.023926,-0.006347656,0.1865234,-0.09375,-0.2783203,-0.25
1116,17.5625,-11.5,148.8125,1.082031,0.09033203,0.1132813,-0.1069336,-0.2719727,-0.2460938
1120,5.6875,-24.125,94.4375,1.155762,0.07861328,0.09814453,-0.1137695,-0.2719727,-0.2446289
1124,0.9375,-22.625,48.1875,1.48877,-0.05664063,0.2250977,-0.1201172,-0.2695313,-0.2421875
1128,7.4375,1.875,6.1875,1.640137,-0.09179688,0.3330078,-0.1235352,-0.2670898,-0.2421875
1132,14,24.6875,-32.375,1.492676,-0.02978516,0.2827148,-0.1210938,-0.2680664,-0.2436523
1136,15.3125,34.5625,-74.3125,1.299316,0.08642578,0.2519531,-0.1176758,-0.2705078,-0.2436523
1140,12.875,30.875,-119.625,0.9541016,0.15625,0.1904297,-0.1079102,-0.2768555,-0.2436523
1144,6.3125,15.6875,-159.4375,0.7568359,0.2885742,0.159668,-0.1020508,-0.2807617,-0.2421875
1148,-9.8125,12.9375,-179.3125,0.6479492,0.3544922,0.1289063,-0.09033203,-0.2856445,-0.2436523
1152,-24,18.5625,-185.75,0.5629883,0.2885742,0.140625,-0.07568359,-0.2895508,-0.2446289
1156,-29.75,32.4375,-194.125,0.5048828,0.1757813,0.1943359,-0.06640625,-0.2905273,-0.2460938
1160,-18.5625,38.1875,-221.375,0.3730469,0.0009765625,0.2480469,-0.04833984,-0.2919922,-0.2490234
1164,-0.4375,59.5625,-246.25,0.3032227,0.02050781,0.3056641,-0.02929688,-0.2944336,-0.25
1168,7.6875,76.8125,-254.4375,-0.09521484,0.09423828,0.2021484,-0.01416016,-0.2954102,-0.25
1172,2.125,78.375,-240.9375,-0.3242188,0.1757813,0.1210938,0.009277344,-0.2944336,-0.2529297
1176,-7.625,90.9375,-214.0625,-0.4326172,0.2226563,0.1210938,0.03173828,-0.2944336,-0.25
1180,-12.125,98.125,-214.1875,-0.6069336,0.05126953,0.2211914,0.04638672,-0.2905273,-0.25
1184,17.75,60.625,-275.6875,-0.9091797,-0.04541016,0.1865234,0.06787109,-0.2856445,-0.2490234
1188,15,51.0625,-294,-0.78125,0.3544922,0.1982422,0.09130859,-0.2792969,-0.2460938
1192,-28.9375,65.875,-250.1875,-1.103027,0.5332031,-0.05126953,0.105957,-0.2744141,-0.2460938
1196,-90.75,42.4375,-201.3125,-1.15332,0.5761719,-0.1708984,0.1235352,-0.265625,-0.2446289
1201,-119,34.1875,-195,-0.8198242,-0.08007813,0.1328125,0.1376953,-0.2470703,-0.25
1205,-75.5,9.625,-266.0625,-0.7270508,-0.4179688,0.2402344,0.1459961,-0.2358398,-0.2543945
1209,-51.4375,62.6875,-263.8125,-0.347168,-0.1733398,0.355957,0.1606445,-0.2182617,-0.2568359
1213,-60.875,138.8125,-222.5,-0.7617188,-0.1347656,0.159668,0.1772461,-0.2006836,-0.2568359
1217,-69.375,167.25,-186.5,-1.001953,-0.1152344,-0.02832031,0.1889648,-0.1894531,-0.2529297
1221,-84.8125,174.0625,-179.0625,-1.23877,-0.3173828,-0.05517578,0.2070313,-0.1743164,-0.2460938
1225,-67.9375,100.5,-248.625,-1.661133,-0.8496094,-0.2128906,0.222168,-0.1533203,-0.237793
1229,-65,46.25,-285.5,-1.063965,-0.1967773,-0.08984375,0.2270508,-0.140625,-0.2324219
1233,-108.8125,59.125,-291.4375,-0.7890625,-0.2509766,-0.1054688,0.2368164,-0.1132813,-0.2338867
1237,-133.5625,81.5,-282.6875,-0.8432617,-0.5424805,-0.1669922,0.2436523,-0.08203125,-0.2285156
1241,-154.5625,106.25,-269.5,-0.7504883,-0.7016602,-0.2128906,0.2485352,-0.06298828,-0.2246094
1245,-172.1875,152.1875,-259.75,-0.699707,-0.9233398,-0.2822266,0.253418,-0.03173828,-0.2163086
1249,-172.6875,162,-297.8125,-1.246094,-1.362305,-0.2900391,0.2583008,0,-0.2011719
1253,-141.3125,136.125,-340.0625,-1.48291,-1.521484,-0.2363281,0.2592773,0.02392578,-0.1889648
1257,-139.3125,126.75,-342.5,-1.734375,-1.48291,-0.109375,0.253418,0.05859375,-0.1738281
1261,-140.0625,132.25,-299.25,-1.959473,-1.61084,0.159668,0.2475586,0.09228516,-0.1591797
1265,-110.5,154.25,-240,-2.07959,-1.688477,0.4941406,0.2451172,0.1098633,-0.1469727
1269,-51.5,179,-180.5,-2.370117,-1.770508,0.7827148,0.2353516,0.1289063,-0.1303711
1273,33.625,178.25,-99.0625,-2.695801,-1.634277,0.6674805,0.234375,0.1425781,-0.1157227
1277,97.1875,147.125,-4.375,-2.614258,-0.9892578,0.3442383,0.2329102,0.1450195,-0.1088867
1281,91.6875,95.1875,51.4375,-2.257813,-0.1499023,0.02099609,0.2392578,0.1425781,-0.1044922
1285,54.4375,34.5,51,-1.854492,0.1176758,-0.07861328,0.2451172,0.1337891,-0.1035156
1289,28.4375,-9,26.125,-1.443848,0.02832031,0.009765625,0.2460938,0.1337891,-0.1044922
1293,18.9375,-13.625,15.5625,-1.165039,-0.1459961,0.1674805,0.2451172,0.1289063,-0.105957
1297,22.25,3.75,27.5,-1.215332,-0.3017578,0.2788086,0.2460938,0.1274414,-0.1074219
1301,32.5,12.875,43.625,-1.459473,-0.3173828,0.3173828,0.2460938,0.125,-0.1088867
1305,41,9.625,70.875,-1.727051,-0.371582,0.3017578,0.2519531,0.1210938,-0.1098633
1309,49.25,-3.625,101.1875,-1.924316,-0.4140625,0.3017578,0.2558594,0.1123047,-0.1113281
1313,56.4375,-26.625,127.5,-2.067871,-0.4960938,0.2060547,0.2583008,0.1074219,-0.112793
1317,57.375,-47.25,158.625,-2.040527,-0.5073242,0.1210938,0.2641602,0.09130859,-0.1210938
1321,53.875,-63.125,180.875,-1.974609,-0.519043,0.07128906,0.2700195,0.07519531,-0.1264648
1325,53.4375,-73.75,193.5625,-2.005859,-0.6318359,0.05957031,0.2749023,0.06640625,-0.1347656
1330,58.8125,-80.3125,217.6875,-2.009766,-0.7094727,0.05566406,0.2773438,0.04394531,-0.1416016
1334,60.625,-82.75,247.0625,-1.974609,-0.6899414,-0.02832031,0.2792969,0.02246094,-0.1508789
1338,54.375,-81.5,270.4375,-1.87793,-0.6787109,-0.03613281,0.2817383,0.006347656,-0.1577148
1342,52.8125,-80.375,284.6875,-1.943848,-0.7602539,-0.05517578,0.2832031,-0.02050781,-0.1660156
1346,56.8125,-92.875,293.875,-1.986328,-0.7832031,-0.08984375,0.2807617,-0.05078125,-0.1728516
1350,53.5,-107.9375,304.9375,-1.804199,-0.6899414,-0.1435547,0.2783203,-0.06933594,-0.1796875
1354,44,-108.5,311.5625,-1.62207,-0.6552734,-0.09375,0.2709961,-0.09814453,-0.1889648
1358,37.375,-105.1875,321.625,-1.486328,-0.6630859,-0.0859375,0.2602539,-0.1269531,-0.1958008
1362,39.5625,-91.5625,325.8125,-1.381836,-0.6005859,-0.08984375,0.253418,-0.1469727,-0.199707
1366,27.8125,-97.5625,329.25,-1.397461,-0.421875,-0.1938477,0.2402344,-0.1743164,-0.2055664
1370,12,-121.5625,318.5,-1.292969,-0.3637695,-0.2670898,0.222168,-0.1992188,-0.2133789
1374,-0.1875,-123.75,297.4375,-1.017578,-0.3286133,-0.1435547,0.2104492,-0.2143555,-0.2163086
1378,-12.75,-119.625,297.625,-1.052734,-0.3134766,-0.1552734,0.1879883,-0.2319336,-0.2255859
1382,-20.75,-117.0625,296.25,-1.021484,-0.3208008,-0.1591797,0.1665039,-0.2480469,-0.230957
1386,-17.0625,-116.75,303.5,-0.8510742,-0.4335938,-0.06298828,0.1499023,-0.2568359,-0.2368164
1390,-11.125,-106.1875,305.8125,-0.6611328,-0.2861328,-0.08984375,0.125,-0.2695313,-0.2421875
1394,-13.875,-91.6875,286.6875,-0.6689453,-0.1269531,-0.1015625,0.1010742,-0.2783203,-0.2446289
1398,-21.6875,-100.4375,276.0625,-0.6962891,-0.1230469,-0.07080078,0.08447266,-0.2832031,-0.2460938
1402,-14,-101.875,266.1875,-0.6572266,-0.2006836,-0.03222656,0.05810547,-0.2880859,-0.2529297
1406,-10.3125,-89.25,274.0625,-0.4868164,-0.01416016,0.05175781,0.03320313,-0.2929688,-0.2543945
1410,-12.4375,-69.125,280.0625,-0.5253906,-0.002441406,0.07519531,0.01660156,-0.2919922,-0.2558594
1414,-2.1875,-80.3125,286.3125,-0.5527344,-0.07226563,0.01367188,-0.0078125,-0.2905273,-0.2568359
1418,1.25,-88.3125,270.875,-0.2929688,0.09033203,0.04443359,-0.03515625,-0.2905273,-0.2529297
1422,-3.3125,-104.1875,247.4375,-0.1459961,0.121582,-0.03222656,-0.05224609,-0.2866211,-0.2529297
1426,-15.0625,-111.3125,234.25,0.1674805,0.1293945,0.01367188,-0.07568359,-0.2817383,-0.2490234
1430,-23.75,-103.625,237.875,0.5239258,-0.1538086,0.06738281,-0.09960938,-0.2729492,-0.2490234
1434,-21.3125,-89.5,233.0625,0.9853516,-0.2939453,0.1171875,-0.1162109,-0.2670898,-0.2475586
1438,-12.3125,-87.4375,188.375,1.306641,-0.4101563,0.1020508,-0.1367188,-0.2558594,-0.2446289
1442,-2.5625,-85.625,116.125,1.779785,-0.5073242,0.1210938,-0.1518555,-0.2470703,-0.2421875
1446,3.625,-55.4375,40.875,2.194336,-0.3989258,0.2597656,-0.1591797,-0.2441406,-0.237793
1450,11.4375,-1.9375,-13.375,2.120605,-0.421875,0.3017578,-0.1625977,-0.2416992,-0.2338867
1454,22.1875,28.875,-60.5,1.702148,-0.3017578,0.2329102,-0.1616211,-0.2470703,-0.2353516
1459,23.5,41.4375,-106.25,1.403809,-0.04541016,0.159668,-0.1557617,-0.2480469,-0.2368164
1463,11.6875,48.1875,-147.3125,1.047363,0.1484375,0.07910156,-0.1459961,-0.2583008,-0.237793
1467,-1.9375,39.8125,-180.125,0.7099609,0.2070313,0.02880859,-0.1328125,-0.2641602,-0.237793
1471,-14.125,27.875,-199.75,0.578125,0.203125,0.02880859,-0.1245117,-0.2695313,-0.2392578
1475,-17.0625,30,-220.1875,0.6171875,0.121582,0.1098633,-0.1079102,-0.2768555,-0.2436523
1479,-14.9375,51.3125,-238.3125,0.5820313,0.1020508,0.1904297,-0.09033203,-0.2817383,-0.2460938
1483,-6.4375,80.875,-248.0625,0.3305664,0.01660156,0.1748047,-0.07470703,-0.2866211,-0.2475586
1487,2.75,93.5,-254.875,-0.04101563,0.03222656,0.1826172,-0.05078125,-0.2929688,-0.25
1491,9.6875,97.8125,-255.75,-0.3242188,0.1679688,0.06347656,-0.02587891,-0.2929688,-0.2490234
1495,-3,90.3125,-246.5,-0.378418,0.5800781,0.02880859,-0.009277344,-0.2929688,-0.2490234
1499,-20.6875,99.125,-246.5625,-0.5253906,0.237793,0.07910156,0.01416016,-0.2944336,-0.2490234
1503,-22.875,96.0625,-240.125,-0.5913086,0.1601563,0.2021484,0.03808594,-0.2919922,-0.2514648
1507,-17.25,92.75,-244.625,-0.6806641,0.140625,0.1557617,0.05322266,-0.2880859,-0.2514648
1511,-11.25,100.9375,-257,-0.5756836,0.1293945,0.2441406,0.07714844,-0.2792969,-0.2514648
1515,-12.125,108.375,-257.875,-0.8354492,0.2456055,0.04052734,0.1020508,-0.2729492,-0.2490234
1519,-47.75,70.9375,-261.5,-1.23877,0.4477539,-0.1860352,0.1166992,-0.265625,-0.2475586
1523,-102.0625,7.625,-262.6875,-1.219238,0.5371094,-0.2900391,0.1342773,-0.2504883,-0.2514648
1527,-147.6875,-50.0625,-284.0625,-0.8666992,0.07861328,-0.08203125,0.1474609,-0.2304688,-0.2583008
1531,-129.625,-30.1875,-300.6875,-0.09912109,-0.6279297,0.3828125,0.1547852,-0.2128906,-0.2651367
1535,-78.9375,99.875,-295.5625,0.4077148,-1.094238,0.6674805,0.1674805,-0.1918945,-0.269043
1539,-19.5,222.4375,-277.1875,-0.2001953,-0.8999023,0.3364258,0.1889648,-0.1694336,-0.2651367
1543,1.75,259,-264.125,-1.12207,-0.5854492,-0.1474609,0.2021484,-0.1582031,-0.2543945
1547,-26.375,218.625,-253.8125,-1.761719,-0.324707,-0.4248047,0.2270508,-0.1396484,-0.2368164
1551,-67.9375,126.0625,-269.5,-1.889648,-0.4140625,-0.4399414,0.2436523,-0.1166992,-0.2255859
1555,-91.5625,47.4375,-301.75,-1.486328,-0.6708984,-0.2861328,0.2475586,-0.1005859,-0.2216797
1559,-105.0625,43.8125,-312.375,-0.796875,-0.8959961,-0.04736328,0.253418,-0.07080078,-0.2202148
1563,-104.8125,123,-300.5,-0.5141602,-1.183594,0.02490234,0.2568359,-0.03808594,-0.2133789
1567,-98.9375,191.25,-299.6875,-0.878418,-1.265137,-0.1977539,0.2568359,-0.01953125,-0.2055664
1571,-106,210.5,-325.375,-1.370117,-1.253418,-0.3974609,0.2626953,0.01025391,-0.1865234
1575,-118.375,173.5625,-373.9375,-1.835449,-1.412598,-0.4282227,0.2641602,0.04638672,-0.1660156
1579,-127.8125,122.25,-402.25,-1.847168,-1.479004,-0.2324219,0.2592773,0.07128906,-0.15625
1583,-143.4375,115.6875,-381.75,-1.742188,-1.665527,0.04785156,0.2451172,0.1098633,-0.1401367
1588,-124.25,149.625,-320.625,-1.773438,-1.968262,0.3095703,0.230957,0.1425781,-0.1225586
1592,-53.6875,188.0625,-245.5625,-2.160645,-2.112305,0.5136719,0.222168,0.1577148,-0.1098633
1596,24.875,201,-149.875,-2.586914,-1.638184,0.4135742,0.2128906,0.1762695,-0.09228516
1600,63.625,154.375,-56.6875,-3.013184,-0.9697266,0.08251953,0.2094727,0.1811523,-0.08300781
1604,62.1875,62.125,12.25,-2.84668,-0.324707,-0.1513672,0.2070313,0.1826172,-0.08007813
1608,25.625,-16.125,43.125,-2.308105,-0.07617188,-0.1782227,0.2119141,0.1811523,-0.08007813
1612,-0.25,-56.125,48,-1.78125,-0.2470703,-0.05517578,0.2128906,0.1772461,-0.08544922
1616,-3.125,-58.4375,59.75,-1.393555,-0.4882813,0.1210938,0.215332,0.1738281,-0.08837891
1620,6.75,-35.5625,78,-1.227051,-0.6083984,0.2441406,0.2177734,0.1689453,-0.09228516
1624,23.4375,-9.5,96.4375,-1.257813,-0.7368164,0.2749023,0.2236328,0.1625977,-0.09667969
1628,43.625,3.1875,109.6875,-1.459473,-0.7988281,0.2402344,0.2285156,0.15625,-0.09765625
1632,63.1875,-4.0625,122.4375,-1.703613,-0.8535156,0.1904297,0.234375,0.1459961,-0.1005859
1636,74,-23.4375,144.8125,-1.874023,-0.8457031,0.04443359,0.2412109,0.1362305,-0.105957
1640,71.0625,-34.6875,183.9375,-1.839355,-0.7910156,-0.06689453,0.2475586,0.1264648,-0.1088867
1644,54,-38.9375,222.1875,-1.82373,-0.7290039,-0.1669922,0.2543945,0.1064453,-0.1166992
1648,38,-52.0625,243.75,-1.82373,-0.8686523,-0.1899414,0.2641602,0.08642578,-0.1210938
1652,38.125,-74.75,247.1875,-1.79248,-1.008789,-0.1860352,0.2709961,0.07373047,-0.1264648
1656,44.25,-92.875,244.625,-1.734375,-1.098145,-0.1474609,0.2758789,0.05126953,-0.1357422
1660,50.375,-102.5,253.3125,-1.629883,-1.047363,-0.1630859,0.2792969,0.02734375,-0.1455078
1664,45.0625,-95.5,275.125,-1.544922,-1.02832,-0.1782227,0.2807617,0.008789063,-0.1547852
1668,42.1875,-84.9375,302.375,-1.471191,-0.9853516,-0.1782227,0.2832031,-0.015625,-0.1645508
1672,34.1875,-76.875,309.6875,-1.486328,-0.9077148,-0.1938477,0.2841797,-0.046875,-0.1699219
1676,31.8125,-91.9375,298.25,-1.575684,-0.8920898,-0.2397461,0.2792969,-0.06689453,-0.1738281
1680,28.875,-117.25,289.8125,-1.467285,-0.8066406,-0.2631836,0.2749023,-0.09423828,-0.1835938
1684,21.9375,-121.9375,283.125,-1.149414,-0.7211914,-0.2089844,0.2651367,-0.1196289,-0.1928711
1688,15.75,-102.625,291.75,-1.075684,-0.7094727,-0.1323242,0.2568359,-0.1357422,-0.1987305
1692,23.875,-69.1875,304.625,-0.9907227,-0.7407227,-0.06298828,0.2460938,-0.1606445,-0.2041016
1696,29.125,-46.4375,311.375,-1.133789,-0.5073242,-0.1206055,0.2353516,-0.1855469,-0.2080078
1700,19.8125,-65.125,305.3125,-1.242188,-0.3364258,-0.2436523,0.2246094,-0.2016602,-0.2080078
1704,13.25,-77.875,283.875,-1.071777,-0.3056641,-0.1860352,0.2080078,-0.2216797,-0.2109375
1708,10.5625,-71.5625,289.4375,-0.9438477,-0.2470703,-0.1245117,0.1904297,-0.2392578,-0.21875
1712,-3.75,-65.5625,303.375,-0.9946289,-0.08007813,-0.2207031,0.1772461,-0.2529297,-0.2163086
1717,-23.6875,-78.625,309.6875,-1.025391,-0.09179688,-0.2670898,0.1547852,-0.2670898,-0.2216797
1721,-42,-110.75,309.0625,-0.9594727,-0.04150391,-0.3325195,0.1293945,-0.2807617,-0.2285156
1725,-64.25,-149.8125,286.5,-0.78125,-0.002441406,-0.3398438,0.112793,-0.2866211,-0.2324219
1729,-83.625,-187.1875,256.3125,-0.6533203,-0.02197266,-0.324707,0.08300781,-0.2905273,-0.2421875
1733,-91.8125,-212.8125,243.1875,-0.5292969,-0.2084961,-0.2055664,0.05322266,-0.2905273,-0.2543945
1737,-81.0625,-211,251.1875,-0.230957,-0.2744141,-0.05908203,0.02978516,-0.2856445,-0.2583008
1741,-72.9375,-192.0625,265.875,-0.04882813,-0.2084961,0.03271484,-0.003417969,-0.2841797,-0.2651367
1745,-62.1875,-175.5625,270.375,0.06689453,-0.2241211,0.07910156,-0.03515625,-0.2753906,-0.269043
1749,-42.0625,-181,255.1875,0.2177734,-0.2431641,0.08251953,-0.05566406,-0.2695313,-0.2666016
1753,-24.4375,-187.375,223.3125,0.5512695,-0.09570313,0.01367188,-0.08398438,-0.2617188,-0.2651367
1757,-21.25,-181.25,188.75,0.9619141,0.008789063,0.09033203,-0.1113281,-0.2504883,-0.2612305
1761,-20.625,-153.625,164.6875,1.310547,-0.08007813,0.1132813,-0.1269531,-0.2470703,-0.2568359
1765,-11.125,-109.625,148.25,1.624512,-0.1191406,0.09423828,-0.1474609,-0.2382813,-0.2514648
1769,1,-56.6875,116.25,1.938477,-0.2006836,0.140625,-0.1616211,-0.2294922,-0.2460938
1773,11.8125,-3.8125,70.1875,2.101074,-0.08398438,0.08251953,-0.1665039,-0.2255859,-0.2460938
1777,10.125,25.8125,-0.3125,1.864746,0.04736328,-0.01318359,-0.1699219,-0.2255859,-0.2460938
1781,1,36.25,-71.5,1.644043,0.09814453,-0.02832031,-0.1650391,-0.2280273,-0.2475586
1785,-9.9375,46.3125,-120.625,1.376465,0.07080078,0.01367188,-0.1616211,-0.2294922,-0.2475586
1789,-19.1875,55.3125,-152.5,1.19043,0.09033203,0.03271484,-0.1508789,-0.2358398,-0.2529297
1793,-27.1875,72.4375,-170.9375,1.059082,0.09423828,0.05566406,-0.1376953,-0.2407227,-0.2558594
1797,-33.6875,94.625,-184.375,0.9077148,0.03222656,0.08642578,-0.1259766,-0.2441406,-0.2612305
1801,-29.875,105.75,-214.1875,0.7255859,-0.02197266,0.1132813,-0.1079102,-0.2495117,-0.2680664
1805,-20.25,111.75,-253,0.5551758,-0.1074219,0.2060547,-0.08544922,-0.2568359,-0.2719727
1809,-3.375,127.9375,-277,0.3925781,-0.2124023,0.2597656,-0.06884766,-0.2568359,-0.2734375
1813,15.4375,165.625,-262.25,0.159668,-0.2744141,0.2597656,-0.04003906,-0.2631836,-0.2749023
1817,27.5625,208.0625,-226.75,-0.01025391,-0.06445313,0.2709961,-0.01025391,-0.2670898,-0.2758789
1821,28.125,258.1875,-177,-0.3242188,0.03222656,0.125,0.01074219,-0.2680664,-0.2749023
1825,33.125,275.875,-149.0625,-0.7543945,-0.07617188,0.06347656,0.04150391,-0.2680664,-0.2719727
1829,54.625,248.3125,-151.4375,-1.071777,0.01660156,-0.06298828,0.07226563,-0.2705078,-0.2636719
1833,48.625,191.625,-169.625,-1.246094,0.2299805,-0.0859375,0.08691406,-0.2695313,-0.2558594
1837,34.9375,121.0625,-207,-1.335449,0.4946289,-0.2128906,0.1103516,-0.265625,-0.2490234
1841,-9.6875,75.375,-216.75,-0.9829102,0.5175781,-0.1362305,0.1293945,-0.2607422,-0.2446289
1846,-51.3125,90.25,-194.6875,-0.6572266,0.3427734,-0.04394531,0.1425781,-0.2529297,-0.2436523
1850,-61.375,153.3125,-166.5,-0.4287109,-0.1616211,0.140625,0.1582031,-0.2416992,-0.2436523
1854,-21.875,188.875,-180.1875,-0.9633789,-0.5,0.09814453,0.1782227,-0.2280273,-0.2353516
1858,37.5,133.4375,-245.625,-1.443848,-0.4414063,-0.08984375,0.1928711,-0.2207031,-0.2299805
1862,51.125,90.5,-282.5,-1.199707,-0.04882813,-0.1552734,0.2119141,-0.2055664,-0.2216797
1866,18.875,108,-270.6875,-1.129883,-0.04150391,-0.1782227,0.2270508,-0.1894531,-0.2109375
1870,-3.625,137.6875,-230.625,-1.172852,-0.1616211,-0.2055664,0.2353516,-0.1767578,-0.2080078
1874,-20.6875,166.75,-206.1875,-1.172852,-0.1655273,-0.2705078,0.25,-0.1606445,-0.1972656
1878,-28.8125,178.0625,-219.625,-1.48291,-0.4179688,-0.3051758,0.2641602,-0.1420898,-0.1865234
1882,-7.9375,117.4375,-265.1875,-1.885742,-0.6201172,-0.4399414,0.2724609,-0.1269531,-0.175293
1886,7.75,51.875,-290.8125,-1.595215,-0.4570313,-0.378418,0.2792969,-0.1030273,-0.1674805
1890,-15.3125,49.6875,-290,-1.203613,-0.3520508,-0.3208008,0.2856445,-0.07714844,-0.1660156
1894,-39.375,84.4375,-274.8125,-1.129883,-0.534668,-0.2939453,0.2866211,-0.05810547,-0.1606445
1898,-49.1875,121.8125,-253.6875,-1.219238,-0.6860352,-0.3325195,0.2900391,-0.03173828,-0.1523438
1902,-48.875,138.8125,-243.125,-1.389648,-0.7988281,-0.3632813,0.2890625,-0.008300781,-0.137207
1906,-39.875,123.0625,-255.5,-1.567871,-0.8647461,-0.3554688,0.2900391,0.007324219,-0.1318359
1910,-34,91.375,-274.5625,-1.533203,-0.7871094,-0.3359375,0.2866211,0.03515625,-0.1210938
1914,-47.875,78.1875,-279.4375,-1.40918,-0.7602539,-0.2744141,0.2807617,0.06103516,-0.1113281
1918,-63.1875,86.375,-272.9375,-1.315918,-0.8183594,-0.1591797,0.2758789,0.07861328,-0.1035156
1922,-69.5625,116.5625,-257.1875,-1.261719,-0.8920898,-0.01660156,0.2666016,0.1035156,-0.09521484
1926,-63.875,159.75,-237.0625,-1.413086,-0.9892578,0.07519531,0.2568359,0.125,-0.07861328
1930,-40.125,187.0625,-218.5625,-1.839355,-1.074707,0.1020508,0.2485352,0.1386719,-0.06640625
1934,-4.5,175.9375,-190.1875,-2.428223,-1.043945,0.04785156,0.237793,0.1547852,-0.05029297
1938,24.75,121.3125,-114.5625,-2.904785,-0.8647461,0.005859375,0.2270508,0.1674805,-0.03955078
1942,41.75,46.75,-14.9375,-2.947266,-0.6591797,-0.01660156,0.2246094,0.1723633,-0.03369141
1946,44.8125,-12.375,63.5625,-2.462891,-0.5,-0.06689453,0.2260742,0.1723633,-0.03662109
1950,42.3125,-45.4375,97.0625,-2.036621,-0.4882813,-0.1054688,0.230957,0.1660156,-0.04052734
1954,42.375,-62.375,104.6875,-1.742188,-0.5112305,-0.128418,0.234375,0.1611328,-0.04345703
1958,37.6875,-58.875,112.1875,-1.583496,-0.5385742,-0.1206055,0.2392578,0.1523438,-0.05419922
1962,33.0625,-47.625,134.5,-1.606445,-0.6630859,-0.1166992,0.2451172,0.1425781,-0.05859375
1966,34.9375,-39.9375,167.0625,-1.684082,-0.8105469,-0.1166992,0.2519531,0.1362305,-0.06396484
1970,39.0625,-42.0625,199.3125,-1.761719,-0.8959961,-0.1821289,0.2617188,0.1201172,-0.06933594
1975,40.375,-57.625,223.25,-1.819824,-0.9389648,-0.2670898,0.2700195,0.1000977,-0.07470703
1979,38.9375,-79.625,230.875,-1.808105,-0.9506836,-0.378418,0.2783203,0.08496094,-0.07861328
1983,35.875,-100.0625,235,-1.777344,-0.9658203,-0.4360352,0.2841797,0.06396484,-0.09082031
1987,34.8125,-115.75,243.625,-1.672363,-0.9970703,-0.4863281,0.2915039,0.04248047,-0.1020508
1991,33,-115.625,255.875,-1.517578,-0.9658203,-0.4516602,0.2939453,0.02636719,-0.1098633
1995,29.9375,-106.8125,272.25,-1.521484,-1.012695,-0.4399414,0.2949219,-0.0004882813,-0.1196289
1999,35.125,-107.6875,276.6875,-1.498047,-0.9814453,-0.4477539,0.2973633,-0.02685547,-0.1303711
2003,33.4375,-101,280,-1.420898,-0.8261719,-0.4360352,0.2963867,-0.04443359,-0.1386719
2007,17.0625,-97.375,292.8125,-1.420898,-0.6821289,-0.4594727,0.2915039,-0.07324219,-0.1469727
2011,-0.9375,-104.5625,300.5625,-1.40918,-0.6474609,-0.4477539,0.2880859,-0.09960938,-0.15625
2015,-8.375,-108.375,297.875,-1.292969,-0.6552734,-0.4091797,0.2792969,-0.1166992,-0.1630859
2019,-8.375,-107.5,291.5625,-1.257813,-0.6083984,-0.3666992,0.2734375,-0.1445313,-0.1699219
2023,-9.3125,-111.9375,281.8125,-1.308105,-0.4726563,-0.3823242,0.2592773,-0.1669922,-0.1796875
2027,-12.875,-126.125,277.9375,-1.289063,-0.4296875,-0.3823242,0.25,-0.1806641,-0.1850586
2031,-20.875,-137.25,284.4375,-1.15332,-0.3325195,-0.3974609,0.234375,-0.2016602,-0.1943359
2035,-31.8125,-129.1875,290,-0.9130859,-0.2900391,-0.3359375,0.215332,-0.2207031,-0.2055664
2039,-40.25,-117.875,285.75,-0.8857422,-0.324707,-0.2670898,0.203125,-0.2319336,-0.2109375
2043,-25.1875,-115.5625,265,-0.9248047,-0.4140625,-0.1821289,0.1806641,-0.2480469,-0.21875
2047,-8.625,-113,259.1875,-0.9633789,-0.2783203,-0.1708984,0.1606445,-0.2607422,-0.2270508
2051,-11.375,-122,260.875,-0.9555664,-0.05664063,-0.2705078,0.1425781,-0.2680664,-0.2299805
2055,-41.0625,-147.375,266.0625,-1.017578,0.1333008,-0.4091797,0.1201172,-0.2783203,-0.237793
2059,-72.125,-178.9375,270.1875,-0.8085938,0.06689453,-0.3666992,0.09130859,-0.2832031,-0.2460938
2063,-81.4375,-199.5625,263.5625,-0.5371094,-0.1694336,-0.2592773,0.07128906,-0.2841797,-0.2514648
2067,-69.9375,-209.6875,247.125,-0.2700195,-0.340332,-0.1245117,0.0390625,-0.2841797,-0.2626953
2071,-46.6875,-209.3125,231.1875,-0.01416016,-0.3134766,-0.02441406,0.005859375,-0.2807617,-0.2666016
2075,-25.8125,-197.3125,215.375,0.1948242,-0.1811523,0.02880859,-0.01513672,-0.2768555,-0.269043
2079,-21.6875,-169.6875,225.25,0.3886719,-0.1655273,0.09814453,-0.04248047,-0.2744141,-0.2680664
2083,-11.625,-130.125,266.8125,0.6401367,-0.3208008,0.1748047,-0.07128906,-0.2680664,-0.2666016
2087,-2.6875,-89.125,307.0625,0.8457031,-0.5463867,0.2250977,-0.08789063,-0.2617188,-0.2636719
2091,7.9375,-78.375,291.9375,1.101563,-0.3637695,0.125,-0.1137695,-0.2529297,-0.2583008
2095,11.1875,-117.1875,189.75,1.484863,-0.2314453,0.06347656,-0.1367188,-0.2407227,-0.2568359
2099,16.0625,-141.9375,72.1875,2.151367,-0.1347656,0.1328125,-0.1474609,-0.2392578,-0.2514648
2104,13.9375,-83.9375,-7.0625,2.65918,-0.2163086,0.3637695,-0.1582031,-0.2392578,-0.2436523
2108,25.125,7.5,-47.1875,2.450195,-0.3793945,0.4213867,-0.1625977,-0.2392578,-0.2407227
2112,50.5625,63,-89.0625,1.779785,-0.340332,0.3710938,-0.1582031,-0.2456055,-0.2392578
2116,72.5,74.375,-134.875,1.225586,-0.08789063,0.1787109,-0.1484375,-0.2543945,-0.2407227
2120,69.75,67.25,-171.5,0.8769531,0.1796875,0.05566406,-0.1328125,-0.2641602,-0.2407227
2124,45.0625,53.5,-195.0625,0.659668,0.3935547,-0.07080078,-0.1220703,-0.2719727,-0.237793
2128,9.5625,43.25,-209.875,0.6171875,0.4204102,-0.1015625,-0.1054688,-0.2807617,-0.2392578
2132,-16.5,53,-223,0.659668,0.2612305,-0.03222656,-0.08642578,-0.2919922,-0.237793
2136,-22.1875,74.8125,-246.125,0.5161133,0.05126953,0.05175781,-0.07324219,-0.2905273,-0.2436523
2140,-7.8125,79.9375,-280,0.2451172,-0.03369141,0.01708984,-0.04980469,-0.2944336,-0.2460938
2144,-3.6875,79.9375,-307.1875,0.06689453,0.04003906,-0.04394531,-0.02099609,-0.2993164,-0.2475586
2148,-12.6875,89,-311.125,-0.03710938,0.03613281,-0.05908203,-0.001953125,-0.3007813,-0.2446289
2152,-19.3125,142,-291.75,-0.01025391,-0.04150391,0.04785156,0.02734375,-0.2983398,-0.25
2156,-19.8125,206.8125,-245.25,-0.3706055,-0.08398438,-0.07080078,0.05712891,-0.2929688,-0.2460938
2160,-16.625,241.375,-215.9375,-0.8354492,-0.07226563,-0.2016602,0.07714844,-0.2895508,-0.2446289
2164,-14.625,197.3125,-213.375,-1.381836,-0.04150391,-0.359375,0.1079102,-0.2832031,-0.2392578
2168,-10.875,119,-229.375,-1.292969,-0.1191406,-0.2861328,0.1318359,-0.2705078,-0.2353516
2172,-5.0625,89.125,-241.6875,-0.8393555,-0.1152344,-0.112793,0.1459961,-0.2631836,-0.2338867
2176,-3.0625,113.875,-239.25,-0.6728516,-0.1811523,-0.09765625,0.1650391,-0.2519531,-0.2270508
2180,-2.625,151.5625,-231.5625,-0.6884766,-0.2084961,-0.1362305,0.184082,-0.2368164,-0.2216797
2184,2.3125,206.125,-220.5625,-0.7617188,-0.387207,-0.1245117,0.1987305,-0.2294922,-0.2148438
2188,17.625,253.4375,-212.625,-1.141602,-0.3950195,-0.324707,0.2202148,-0.2158203,-0.2011719
2192,19.625,244.5625,-210.625,-1.614258,-0.3017578,-0.5131836,0.2426758,-0.1992188,-0.1821289
2196,12.4375,197.75,-226.25,-1.889648,-0.1035156,-0.6323242,0.253418,-0.1879883,-0.1699219
2200,-9.5625,127.625,-244.375,-1.916504,-0.09570313,-0.6245117,0.269043,-0.171875,-0.1591797
2204,-31.3125,87.25,-249.9375,-1.606445,-0.1850586,-0.4824219,0.2792969,-0.1479492,-0.1469727
2208,-44.25,88.75,-241.5625,-1.32373,-0.3793945,-0.378418,0.2856445,-0.1318359,-0.144043
2212,-44.25,108.0625,-225,-1.20752,-0.4921875,-0.3476563,0.2924805,-0.109375,-0.137207
2216,-46.75,121.1875,-220.4375,-1.253906,-0.4765625,-0.4013672,0.2983398,-0.08691406,-0.1264648
2220,-54.8125,111.1875,-234.1875,-1.331543,-0.5151367,-0.4516602,0.3022461,-0.07080078,-0.1181641
2224,-61.75,98.5,-265.5625,-1.28125,-0.6083984,-0.4130859,0.3032227,-0.046875,-0.1088867
2228,-60.3125,104.75,-297.375,-1.292969,-0.7719727,-0.3359375,0.3046875,-0.01806641,-0.1005859
2233,-52.75,121,-309.5625,-1.467285,-0.8803711,-0.3325195,0.3046875,0.002441406,-0.09375
2237,-46.5625,127.1875,-297.125,-1.75,-0.8920898,-0.359375,0.2973633,0.03271484,-0.08007813
2241,-46.1875,105.375,-273.875,-2.060059,-0.8066406,-0.3823242,0.2900391,0.06103516,-0.06787109
2245,-55.0625,57.4375,-252.9375,-2.214844,-0.7250977,-0.3325195,0.2841797,0.07861328,-0.05957031
2249,-66.625,17.3125,-229.0625,-2.098633,-0.8144531,-0.1323242,0.2734375,0.1000977,-0.05273438
2253,-57.1875,26.5625,-192.3125,-1.928223,-1.000977,0.1904297,0.2626953,0.1186523,-0.04736328
2257,-19.375,57.8125,-140.25,-2.133789,-1.062988,0.3095703,0.2568359,0.1274414,-0.04492188
2261,24.8125,65.375,-68.6875,-2.528809,-0.9077148,0.2250977,0.2509766,0.1401367,-0.03808594
2265,51.4375,34.875,11.375,-2.695801,-0.5581055,0.05175781,0.2475586,0.1435547,-0.03515625
2269,48.625,-12.75,75.9375,-2.439941,-0.2978516,-0.09765625,0.25,0.1401367,-0.03662109
2273,36.8125,-44,108.625,-2.013672,-0.2900391,-0.1474609,0.253418,0.1313477,-0.03955078
2277,36.1875,-53.5,120,-1.753906,-0.3637695,-0.1630859,0.2602539,0.1225586,-0.05029297
2281,34.25,-51.625,132.5625,-1.703613,-0.4257813,-0.1591797,0.2641602,0.1162109,-0.05273438
2285,36.8125,-52.625,155.5,-1.761719,-0.581543,-0.1708984,0.2709961,0.1035156,-0.05859375
2289,44.6875,-57.4375,186.25,-1.757813,-0.6860352,-0.2055664,0.2758789,0.08886719,-0.06542969
2293,50.125,-60.125,211.4375,-1.746094,-0.7329102,-0.2436523,0.2832031,0.07763672,-0.06787109
2297,59.625,-64.8125,227.375,-1.769531,-0.8300781,-0.2900391,0.2890625,0.05517578,-0.07763672
2301,66.125,-74.125,233.9375,-1.804199,-0.7832031,-0.3974609,0.2963867,0.03369141,-0.08691406
2305,61.25,-87.8125,240.8125,-1.819824,-0.7250977,-0.4746094,0.3007813,0.01757813,-0.09375
2309,47.3125,-99.75,257.8125,-1.75,-0.6669922,-0.5170898,0.3007813,-0.006835938,-0.1035156
2313,28.4375,-104.9375,277.375,-1.703613,-0.6240234,-0.5131836,0.3022461,-0.03173828,-0.1142578
2317,9.125,-117.4375,292.3125,-1.67627,-0.6748047,-0.4746094,0.3007813,-0.0546875,-0.1181641
2321,13.25,-139.5,278.375,-1.657227,-0.7563477,-0.4438477,0.3007813,-0.08203125,-0.1333008
2325,17.9375,-166.0625,260.125,-1.498047,-0.6977539,-0.4321289,0.2915039,-0.1054688,-0.1455078
2329,16.4375,-166,247.0625,-1.319824,-0.5698242,-0.3862305,0.2841797,-0.1220703,-0.1538086
2333,9.75,-147.5625,262.1875,-1.211426,-0.5073242,-0.3398438,0.2749023,-0.1445313,-0.1674805
2337,0.75,-118.8125,287.375,-1.20752,-0.421875,-0.3051758,0.2592773,-0.1669922,-0.175293
2341,-8.3125,-94.1875,309.75,-1.273438,-0.4101563,-0.2978516,0.25,-0.1845703,-0.1821289
2345,-7.6875,-100.8125,314.4375,-1.490234,-0.4067383,-0.3359375,0.2329102,-0.2070313,-0.1889648
2349,-15.125,-146.75,295.4375,-1.48291,-0.2124023,-0.4667969,0.215332,-0.2294922,-0.1958008
2353,-39,-200.3125,264.4375,-1.289063,-0.06445313,-0.5439453,0.199707,-0.2407227,-0.206543
2357,-57.375,-220.3125,253.0625,-0.9287109,-0.2045898,-0.3974609,0.1738281,-0.2529297,-0.21875
2362,-58.6875,-191.5625,278.1875,-0.6416016,-0.3598633,-0.1899414,0.1474609,-0.2617188,-0.230957
2366,-46.875,-142.75,315.4375,-0.6923828,-0.3208008,-0.1245117,0.1269531,-0.2695313,-0.2407227
2370,-51.9375,-137.5625,337.1875,-0.9477539,-0.1035156,-0.2978516,0.09765625,-0.2783203,-0.2490234
2374,-71.4375,-182.3125,323.875,-1.044922,-0.02197266,-0.4628906,0.06640625,-0.2832031,-0.2558594
2378,-82.375,-253.625,273.6875,-0.8046875,0.0009765625,-0.5283203,0.04150391,-0.2817383,-0.2597656
2382,-95.9375,-289.3125,240.875,-0.28125,-0.02587891,-0.4321289,0.002441406,-0.2768555,-0.2680664
2386,-97.9375,-258.8125,245,0.206543,-0.2084961,-0.1401367,-0.03320313,-0.265625,-0.2734375
2390,-81.875,-196.8125,267.5,0.4038086,-0.4335938,0.09033203,-0.05566406,-0.2617188,-0.2734375
2394,-44.8125,-151.75,279.875,0.3149414,-0.5151367,0.09033203,-0.08789063,-0.2480469,-0.2749023
2398,-15.5625,-150.1875,274.125,0.2915039,-0.3637695,-0.02050781,-0.1152344,-0.234375,-0.2705078
2402,2.5625,-179.375,240.5,0.4814453,-0.2822266,-0.1743164,-0.1328125,-0.2280273,-0.2680664
2406,8.75,-189.4375,210.4375,1.035645,-0.2587891,-0.1362305,-0.1582031,-0.2167969,-0.2583008
2410,6.1875,-137.6875,196.25,1.818359,-0.4375,0.05175781,-0.1816406,-0.2070313,-0.2490234
2414,22.375,-39.25,178.9375,2.43457,-0.4960938,0.1982422,-0.1923828,-0.1992188,-0.2436523
2418,32.375,35.25,115.1875,2.209961,-0.3833008,0.159668,-0.2006836,-0.1918945,-0.2436523
2422,31.625,41.625,26,1.771973,-0.3481445,0.04443359,-0.2021484,-0.1870117,-0.2392578
2426,30,18,-73.625,1.632324,-0.2744141,0.1020508,-0.2006836,-0.1894531,-0.2436523
2430,28.8125,20.5625,-143.3125,1.605469,-0.2900391,0.1713867,-0.1962891,-0.1982422,-0.2436523
2434,31.875,45.5625,-181.5625,1.399902,-0.2861328,0.1865234,-0.1865234,-0.2080078,-0.2436523
2438,35.3125,64.1875,-211.4375,1.105469,-0.1928711,0.09033203,-0.1757813,-0.2167969,-0.2460938
2442,32,70.375,-240.125,0.8769531,-0.05664063,0.001953125,-0.1601563,-0.2329102,-0.2475586
2446,18.0625,82.5,-258.8125,0.7875977,0.02050781,-0.04736328,-0.1411133,-0.2456055,-0.2490234
2450,2.125,107.25,-273.0625,0.7255859,-0.02587891,-0.03613281,-0.1259766,-0.2543945,-0.25
2454,-4.25,132.5625,-289.5625,0.4814453,-0.1074219,-0.05908203,-0.09960938,-0.265625,-0.2543945
2458,-5.75,146.625,-304.125,0.1948242,-0.1499023,-0.07080078,-0.07128906,-0.2729492,-0.2612305
2462,-1.3125,153.625,-315.625,-0.1264648,-0.2275391,-0.07470703,-0.04833984,-0.2768555,-0.2626953
2466,1.375,155.25,-314.3125,-0.3393555,-0.08398438,-0.07080078,-0.01611328,-0.2807617,-0.2651367
2470,-14.0625,164,-302.375,-0.6069336,0.09423828,-0.109375,0.01757813,-0.2792969,-0.2636719
2474,-45.6875,169.75,-281.9375,-0.8198242,0.2807617,-0.1821289,0.03808594,-0.2768555,-0.2666016
2478,-85.75,155.75,-275.375,-1.056641,0.3271484,-0.2514648,0.06884766,-0.2680664,-0.2651367
2482,-106.5,142.1875,-294.9375,-0.7929688,-0.06835938,0.1132813,0.09521484,-0.2519531,-0.269043
2486,-70.5,180.3125,-324.375,-0.6728516,-0.5463867,0.2827148,0.112793,-0.2407227,-0.2680664
2491,-19.8125,238.1875,-293.0625,-0.9711914,-0.7055664,0.2519531,0.1425781,-0.2216797,-0.2636719
2495,19.25,273.3125,-224.625,-1.40918,-0.6005859,-0.03613281,0.1757813,-0.2104492,-0.2475586
2499,31.125,262.25,-167.1875,-1.552246,-0.2163086,-0.2324219,0.1928711,-0.2045898,-0.2421875
2503,16.4375,223.0625,-153.5625,-1.48291,-0.03759766,-0.34375,0.2138672,-0.1967773,-0.2246094
2507,-4.875,189.8125,-167.8125,-1.242188,-0.03759766,-0.3325195,0.2329102,-0.1855469,-0.2094727
2511,-6.75,176.5,-207.3125,-1.067871,-0.3095703,-0.2363281,0.2412109,-0.1757813,-0.2026367
2515,16.25,178.5,-244.75,-1.044922,-0.5776367,-0.2397461,0.2583008,-0.1606445,-0.1875
2519,37.875,197.9375,-263.625,-1.106934,-0.5854492,-0.309082,0.2709961,-0.1381836,-0.1728516
2523,43.8125,199.625,-258.4375,-1.416992,-0.5307617,-0.5400391,0.2792969,-0.1230469,-0.1606445
2527,30.25,166.625,-249.375,-1.618164,-0.3598633,-0.6669922,0.2900391,-0.1030273,-0.144043
2531,4.0625,118.0625,-254.875,-1.544922,-0.2822266,-0.7285156,0.2973633,-0.08056641,-0.1303711
2535,-27.5,89.1875,-264.125,-1.339355,-0.4335938,-0.6630859,0.2998047,-0.06298828,-0.125
2539,-48.5,96.9375,-289,-1.168945,-0.6669922,-0.5551758,0.3022461,-0.03710938,-0.112793
2543,-48.8125,114.8125,-307.5625,-1.28125,-0.9038086,-0.5244141,0.2998047,-0.004394531,-0.105957
2547,-44.1875,126.0625,-306.3125,-1.513672,-1.000977,-0.5478516,0.2998047,0.01513672,-0.09667969
2551,-47.625,120.8125,-286.125,-1.773438,-0.9311523,-0.5668945,0.2949219,0.04492188,-0.08447266
2555,-62.0625,108.375,-255.25,-1.835449,-0.8999023,-0.4936523,0.2866211,0.06884766,-0.06933594
2559,-69.375,91.125,-225,-1.932129,-0.9736328,-0.3632813,0.2807617,0.08740234,-0.06103516
2563,-54.1875,68.75,-199.5625,-1.912598,-1.062988,-0.1860352,0.2724609,0.1049805,-0.05175781
2567,-29.125,55.0625,-177.5,-1.839355,-0.9931641,-0.04394531,0.2617188,0.1235352,-0.04199219
2571,-9.9375,57.3125,-150.4375,-1.785156,-0.8842773,0.04052734,0.2558594,0.1313477,-0.03955078
2575,6.875,69,-109.6875,-1.835449,-0.8144531,0.09814453,0.25,0.1450195,-0.03515625
2579,19.375,74.3125,-56.25,-1.990234,-0.7055664,0.05957031,0.2426758,0.1523438,-0.02734375
2583,25.5625,56.5,-2.9375,-2.17627,-0.5698242,-0.03222656,0.2402344,0.1523438,-0.02441406
2587,27.0625,18.9375,34.5625,-2.191895,-0.4570313,-0.128418,0.2402344,0.1513672,-0.02441406
2591,23.875,-21.0625,58.0625,-2.044434,-0.4067383,-0.1782227,0.2436523,0.1489258,-0.02587891
2595,20.25,-47.75,76.125,-1.831543,-0.4570313,-0.1860352,0.2460938,0.1450195,-0.02734375
2599,20.3125,-54.3125,98.5625,-1.661133,-0.519043,-0.1669922,0.2509766,0.1386719,-0.03369141
2603,27,-48.4375,126.5,-1.583496,-0.6240234,-0.1435547,0.2568359,0.1289063,-0.03808594
2607,37.5,-40.9375,153.6875,-1.57959,-0.6435547,-0.1743164,0.2641602,0.1210938,-0.04345703
2611,42.5625,-40.5625,177.3125,-1.595215,-0.6005859,-0.2436523,0.2724609,0.1088867,-0.04638672
2615,39.9375,-48.75,190.9375,-1.614258,-0.5385742,-0.3325195,0.2783203,0.09228516,-0.05419922
2620,33.1875,-59.6875,198.125,-1.57959,-0.5620117,-0.3862305,0.2832031,0.07861328,-0.05712891
2624,28.25,-63.125,202.25,-1.57959,-0.581543,-0.3974609,0.2900391,0.06005859,-0.06640625
2628,26.1875,-70.875,208.4375,-1.672363,-0.6669922,-0.4169922,0.2949219,0.04003906,-0.07177734
2632,28.875,-81.8125,221.0625,-1.734375,-0.7290039,-0.4248047,0.3007813,0.02636719,-0.07861328
2636,28.1875,-92.6875,239.8125,-1.777344,-0.6860352,-0.4824219,0.3046875,0.00390625,-0.08837891
2640,16.25,-110.375,258.75,-1.723145,-0.6201172,-0.5209961,0.3046875,-0.01953125,-0.09912109
2644,5.5,-124.625,260.8125,-1.65332,-0.6513672,-0.5131836,0.3032227,-0.03710938,-0.1074219
2648,-0.4375,-134.5625,256.125,-1.575684,-0.6240234,-0.5131836,0.3032227,-0.06201172,-0.1181641
2652,-9.4375,-132.875,255.75,-1.48291,-0.6435547,-0.4516602,0.2963867,-0.08544922,-0.1303711
2656,-4.0625,-115.875,263.5,-1.544922,-0.7680664,-0.3706055,0.2939453,-0.1030273,-0.1386719
2660,2.125,-112.3125,290.6875,-1.719238,-0.6201172,-0.4321289,0.2856445,-0.1279297,-0.1469727
2664,-13.5625,-124.625,309,-1.668457,-0.3286133,-0.5517578,0.2758789,-0.1542969,-0.1591797
2668,-50.8125,-157.375,311.6875,-1.633789,-0.2084961,-0.6362305,0.2651367,-0.1704102,-0.1660156
2672,-70.5,-187.625,285,-1.455566,-0.4375,-0.5400391,0.25,-0.1918945,-0.1796875
2676,-63.3125,-195.5625,271.0625,-1.149414,-0.5966797,-0.3168945,0.2285156,-0.2104492,-0.1972656
2680,-42.125,-169.75,274.4375,-1.103027,-0.5737305,-0.2128906,0.215332,-0.2207031,-0.2080078
2684,-28.625,-138.5,315.875,-1.168945,-0.5229492,-0.1552734,0.1928711,-0.2368164,-0.2177734
2688,-18.5,-111,375.125,-1.285156,-0.4257813,-0.1821289,0.1650391,-0.2558594,-0.2255859
2692,-23.75,-110.1875,409.25,-1.277344,-0.1577148,-0.34375,0.1459961,-0.2670898,-0.2299805
2696,-56.0625,-149.9375,389.5625,-1.203613,0.08251953,-0.5400391,0.1142578,-0.2807617,-0.237793
2700,-87.375,-216.25,322.125,-1.056641,0.02441406,-0.6552734,0.07714844,-0.2905273,-0.2460938
2704,-101.4375,-279.5,273.5625,-0.6884766,-0.2470703,-0.5439453,0.05224609,-0.2866211,-0.2543945
2708,-96.0625,-280.625,266.0625,-0.1381836,-0.5073242,-0.3286133,0.01269531,-0.2807617,-0.2651367
2712,-78.75,-230.375,298.9375,0.2255859,-0.6748047,-0.128418,-0.02490234,-0.2753906,-0.269043
2716,-51.1875,-166.6875,321,0.4619141,-0.6669922,-0.01318359,-0.04736328,-0.2670898,-0.2719727
2720,-26.6875,-125.875,314,0.59375,-0.5463867,0.01708984,-0.08056641,-0.2583008,-0.2705078
2724,-14.375,-112.125,286.6875,0.609375,-0.3754883,-0.05517578,-0.109375,-0.2470703,-0.2666016
2728,-15.0625,-119.125,242.5,0.7954102,-0.2353516,-0.0859375,-0.1259766,-0.2392578,-0.2651367
2732,-25.75,-115.75,208.375,1.209961,-0.2861328,0.01708984,-0.1474609,-0.2280273,-0.2597656
2736,-31.3125,-85.25,185.6875,1.496582,-0.4335938,0.1210938,-0.1665039,-0.2143555,-0.2543945
2740,-25.0625,-56.4375,150.4375,1.760254,-0.5307617,0.2021484,-0.1748047,-0.2094727,-0.2529297
2744,-14.9375,-30.9375,92.125,1.961914,-0.4492188,0.2172852,-0.1855469,-0.1958008,-0.2529297
2749,-8.1875,-7.9375,12.5,2.012207,-0.2822266,0.2788086,-0.1899414,-0.1933594,-0.2490234
2753,1.75,10.125,-75.875,1.806641,-0.2509766,0.3134766,-0.1889648,-0.1933594,-0.2514648
2757,11.5,27.8125,-134.5,1.426758,-0.2275391,0.3017578,-0.184082,-0.2006836,-0.2543945
2761,19.8125,40,-165.5625,1.097656,-0.1499023,0.2441406,-0.1733398,-0.2094727,-0.2514648
2765,21.5,43.4375,-186,0.8339844,0.02441406,0.144043,-0.1674805,-0.2167969,-0.2558594
2769,10.875,43.625,-199.1875,0.7373047,0.15625,0.07519531,-0.1542969,-0.2270508,-0.2543945
2773,-6,51.0625,-212.5,0.7177734,0.1679688,0.06738281,-0.1391602,-0.2368164,-0.2597656
2777,-13.3125,60.625,-237.5,0.6328125,0.05517578,0.09814453,-0.1293945,-0.2431641,-0.2597656
2781,-5.875,68.5625,-270,0.543457,-0.06054688,0.1020508,-0.109375,-0.2504883,-0.2636719
2785,4.8125,91.6875,-291.6875,0.5087891,-0.1191406,0.1748047,-0.08544922,-0.2592773,-0.2651367
2789,17,133.4375,-284.25,0.1791992,-0.1694336,0.09423828,-0.06738281,-0.265625,-0.2680664
2793,23,160.375,-255.625,-0.1650391,-0.08789063,-0.02050781,-0.04003906,-0.2729492,-0.269043
2797,14.125,180.25,-223.625,-0.2661133,0.09423828,-0.1401367,-0.01025391,-0.2753906,-0.2705078
2801,-7.75,180.375,-236.125,-0.362793,0.2807617,-0.1938477,0.009277344,-0.2753906,-0.2680664
2805,-23.875,163.375,-293.125,-0.5141602,0.1333008,-0.112793,0.0390625,-0.2744141,-0.269043
2809,-24.8125,172,-331.6875,-0.5141602,-0.1381836,0.01708984,0.06884766,-0.265625,-0.2666016
2813,-3.6875,203.875,-301.3125,-0.9946289,-0.5112305,0.07128906,0.09277344,-0.2592773,-0.2626953
2817,24.4375,232.9375,-203.625,-1.292969,-0.4101563,-0.005371094,0.1235352,-0.2495117,-0.2568359
2821,32.5625,239.375,-138.3125,-1.420898,0.1333008,-0.2016602,0.1508789,-0.2441406,-0.2446289
2825,17.0625,210.8125,-138.5,-1.486328,0.269043,-0.2822266,0.1616211,-0.2416992,-0.237793
2829,3.9375,149.1875,-188.5,-1.606445,0.3388672,-0.3862305,0.1831055,-0.2329102,-0.2270508
2833,-11.4375,94.9375,-234.375,-1.296875,0.2109375,-0.2207031,0.2011719,-0.2207031,-0.2231445
2837,-14.5625,121.875,-239.875,-0.8706055,-0.02587891,-0.04003906,0.2104492,-0.2104492,-0.2148438
2841,-1.5625,176.75,-219,-0.9091797,-0.2822266,-0.06689453,0.2270508,-0.1933594,-0.2055664
2845,15.625,212.4375,-205.0625,-1.172852,-0.2275391,-0.2783203,0.2451172,-0.1767578,-0.1928711
2849,13.375,196.3125,-208.5625,-1.424316,-0.07617188,-0.4667969,0.2568359,-0.1679688,-0.1835938
2853,-5.4375,151.0625,-233.6875,-1.459473,0.0009765625,-0.5439453,0.2709961,-0.1494141,-0.1713867
2857,-30.3125,111.375,-263.25,-1.265625,-0.1616211,-0.4628906,0.2817383,-0.1279297,-0.1577148
2861,-42.8125,120.5625,-282.75,-0.9516602,-0.402832,-0.3129883,0.2866211,-0.1108398,-0.1508789
2865,-39.1875,159,-289.5,-0.9477539,-0.6748047,-0.3051758,0.2939453,-0.08203125,-0.1401367
2869,-31.625,194.5,-294,-1.11084,-0.8183594,-0.4208984,0.2998047,-0.05322266,-0.125
2873,-23,206.375,-299.9375,-1.37793,-0.8613281,-0.5092773,0.3032227,-0.03320313,-0.112793
2878,-23.875,191.125,-303.3125,-1.711426,-0.8725586,-0.5864258,0.3046875,-0.001953125,-0.09375
2882,-25.5,154.5625,-300.125,-1.912598,-0.9389648,-0.5361328,0.3007813,0.02636719,-0.07324219
2886,-21.9375,123.75,-293.875,-1.970703,-0.9580078,-0.4208984,0.2963867,0.04638672,-0.06640625
2890,-10.125,101.625,-270.0625,-2.060059,-1.008789,-0.3208008,0.2880859,0.07275391,-0.05566406
2894,7.875,85.3125,-230.875,-2.102539,-0.9194336,-0.2436523,0.2773438,0.09765625,-0.04345703
2898,17.4375,76.875,-187.5625,-2.141602,-0.7094727,-0.2016602,0.2700195,0.1098633,-0.04052734
2902,14.3125,61.8125,-141,-2.230469,-0.46875,-0.1474609,0.2626953,0.1210938,-0.03515625
2906,-1,38.4375,-98.625,-2.288574,-0.3442383,-0.112793,0.2543945,0.1347656,-0.03125
2910,-11.0625,18.9375,-59.8125,-2.276855,-0.3793945,-0.02441406,0.25,0.1386719,-0.02978516
2914,-10.625,6.5625,-17.5,-2.331543,-0.5424805,0.02099609,0.2475586,0.1425781,-0.02734375
2918,7.125,-15.25,29.4375,-2.381836,-0.6591797,0.001953125,0.2475586,0.1425781,-0.02734375
2922,28.8125,-39.4375,74.1875,-2.29248,-0.6708984,-0.07080078,0.2509766,0.1425781,-0.02734375
2926,35.75,-58.9375,115.625,-2.137695,-0.5966797,-0.1821289,0.2543945,0.1337891,-0.03369141
2930,31.0625,-75.375,149.9375,-2.005859,-0.5854492,-0.2939453,0.2602539,0.1210938,-0.04052734
2934,24.75,-87.4375,171.5,-1.866211,-0.6435547,-0.3554688,0.2675781,0.1123047,-0.04736328
2938,23.125,-91.5625,189.0625,-1.761719,-0.7524414,-0.3632813,0.2724609,0.09619141,-0.05419922
2942,28.125,-87.5,212.4375,-1.723145,-0.8457031,-0.3706055,0.2817383,0.08105469,-0.06542969
2946,33.1875,-87.8125,238.75,-1.757813,-0.8574219,-0.4516602,0.2880859,0.06494141,-0.07177734
2950,30.3125,-96.3125,252.5,-1.800293,-0.8027344,-0.5439453,0.2924805,0.04394531,-0.08300781
2954,18.8125,-113.6875,259.25,-1.777344,-0.7563477,-0.6323242,0.2998047,0.01757813,-0.09228516
2958,4.25,-130.625,256.5625,-1.78125,-0.7368164,-0.6630859,0.3022461,0.001464844,-0.09912109
2962,-8.5,-149.5625,262.625,-1.711426,-0.8027344,-0.6591797,0.3022461,-0.02197266,-0.1113281
2966,-10.1875,-155.625,281.125,-1.54834,-0.9038086,-0.5825195,0.3007813,-0.04833984,-0.1289063
2970,-2.8125,-144.8125,295.875,-1.405273,-0.9389648,-0.4902344,0.2973633,-0.06689453,-0.1357422
2974,14.4375,-133.1875,302.375,-1.401367,-0.9038086,-0.4594727,0.2924805,-0.09570313,-0.1494141
2978,22.9375,-133.1875,304.3125,-1.37793,-0.7055664,-0.5170898,0.2807617,-0.1230469,-0.1606445
2982,12.4375,-144.6875,302.4375,-1.401367,-0.4335938,-0.6245117,0.2734375,-0.1420898,-0.1660156
2986,-14.0625,-166.625,299,-1.308105,-0.2978516,-0.6479492,0.2592773,-0.1679688,-0.1796875
2990,-39.875,-170.6875,298.875,-1.149414,-0.3325195,-0.5439453,0.2426758,-0.1918945,-0.1904297
2994,-46.5,-156.875,298.5625,-1.141602,-0.453125,-0.4013672,0.2294922,-0.2045898,-0.199707
2998,-39.875,-170,290.375,-1.230957,-0.5,-0.3666992,0.2070313,-0.2246094,-0.2109375
3002,-26.5625,-193.5625,264.25,-1.172852,-0.3364258,-0.3862305,0.1821289,-0.2392578,-0.2246094
3007,-25,-214.375,247.9375,-1.017578,-0.3520508,-0.2939453,0.1689453,-0.2470703,-0.2338867
3011,-21.375,-206.4375,263.6875,-0.9052734,-0.2509766,-0.2436523,0.1401367,-0.2568359,-0.2460938
3015,-34.6875,-177.6875,302.6875,-0.715332,-0.1694336,-0.1899414,0.109375,-0.265625,-0.2529297
3019,-54.8125,-159.375,334.1875,-0.7695313,-0.08789063,-0.2783203,0.09033203,-0.2695313,-0.2583008
3023,-71.0625,-182.0625,316.8125,-0.746582,-0.09570313,-0.3476563,0.05712891,-0.2744141,-0.2666016
3027,-80,-229.625,271.8125,-0.5566406,-0.1499023,-0.3208008,0.02246094,-0.2719727,-0.2734375
3031,-71,-269.375,223.9375,-0.3242188,-0.2822266,-0.2592773,-0.004394531,-0.2670898,-0.2758789
3035,-56.4375,-281.125,211.5625,0.109375,-0.340332,-0.1860352,-0.03662109,-0.2592773,-0.2773438
3039,-39.5625,-247.25,224.375,0.5200195,-0.4492188,0.01367188,-0.07324219,-0.2543945,-0.2758789
3043,-8.0625,-172.4375,253,0.9501953,-0.5893555,0.2675781,-0.09375,-0.2441406,-0.2734375
3047,33.625,-86.375,279.25,1.128418,-0.5385742,0.3173828,-0.1201172,-0.2358398,-0.269043
3051,65.9375,-46.8125,265.875,1.097656,-0.3637695,0.1518555,-0.1411133,-0.2280273,-0.2636719
3055,68.4375,-68.875,213.5625,1.085938,-0.09570313,-0.1323242,-0.1518555,-0.2255859,-0.2583008
3059,35.6875,-113.5,154.8125,1.438477,0.03613281,-0.3012695,-0.168457,-0.2182617,-0.25
3063,-7.8125,-123.75,96.875,2.042969,0.008789063,-0.2670898,-0.184082,-0.2119141,-0.2421875
3067,-33.625,-83.3125,23.75,2.53125,-0.09960938,0.03662109,-0.1923828,-0.2070313,-0.237793
3071,-32.0625,-2.8125,-47.3125,2.446289,-0.1850586,0.2636719,-0.1972656,-0.2045898,-0.2353516
3075,-6.3125,57.3125,-104.9375,1.76416,-0.3442383,0.3134766,-0.1923828,-0.2094727,-0.2392578
3079,25.75,85.75,-143.625,1.26416,-0.2275391,0.2441406,-0.1865234,-0.2128906,-0.2436523
3083,37.75,95.875,-165.4375,0.8881836,-0.002441406,0.1210938,-0.1708984,-0.2246094,-0.2446289
3087,32.25,92.625,-182.1875,0.6870117,0.1992188,0.02880859,-0.1542969,-0.2368164,-0.2475586
3091,12.25,87.3125,-203.1875,0.59375,0.3081055,-0.01318359,-0.1435547,-0.2416992,-0.25
3095,-8.625,85.875,-220.125,0.527832,0.2612305,0.01708984,-0.1245117,-0.2529297,-0.2543945
3099,-15.25,102.9375,-240.0625,0.4970703,0.09814453,0.1518555,-0.1010742,-0.2607422,-0.2583008
3103,4,116.125,-254.75,0.1831055,-0.1152344,0.2021484,-0.08789063,-0.2641602,-0.2612305
3107,26.375,122,-254.625,-0.04101563,-0.01025391,0.1328125,-0.06298828,-0.2719727,-0.2651367
3111,35.8125,132.9375,-244.875,-0.1186523,0.09423828,0.1098633,-0.03662109,-0.2783203,-0.2636719
3115,26.125,152.25,-233.4375,-0.2270508,0.3935547,0.08251953,-0.01855469,-0.2817383,-0.2636719
3119,9.3125,190.125,-223.8125,-0.4365234,0.5058594,0.05957031,0.009277344,-0.2832031,-0.2636719
3123,-3.9375,188.8125,-197.0625,-0.9052734,0.1875,0.07128906,0.03808594,-0.2832031,-0.2597656
3127,28.4375,138.1875,-212.9375,-1.125977,-0.01025391,0.08251953,0.05322266,-0.2792969,-0.2597656
3131,54.125,108.5625,-235.5625,-0.7387695,0.1796875,0.2480469,0.07861328,-0.2768555,-0.2514648
3136,51.5,115.625,-234.4375,-0.7504883,0.3120117,0.09423828,0.1020508,-0.2744141,-0.2475586
3140,34.375,118.6875,-224.5625,-0.8935547,0.3935547,0.04443359,0.1152344,-0.2744141,-0.2421875
3144,1.75,108.5625,-201.5,-1.052734,0.4985352,-0.05517578,0.1367188,-0.2631836,-0.2368164
3148,-17.375,110.5625,-195,-0.9326172,0.1367188,0.1518555,0.1582031,-0.2529297,-0.2324219
3152,18.3125,99.625,-214,-1.176758,-0.1655273,0.1904297,0.1674805,-0.2480469,-0.230957
3156,49.5625,82.8125,-232.8125,-1.091309,0.008789063,0.1748047,0.1831055,-0.2368164,-0.2231445
3160,41.5625,83.3125,-233.375,-1.075684,0.2338867,0.03271484,0.2011719,-0.2280273,-0.2163086
3164,7,71.1875,-222.625,-1.091309,0.3310547,-0.0859375,0.2104492,-0.2182617,-0.2133789
3168,-20.375,79.125,-206.5625,-0.8896484,0.1679688,0.005859375,0.2260742,-0.203125,-0.206543
3172,-31.1875,103.3125,-189.4375,-0.8046875,-0.1616211,0.105957,0.2368164,-0.1870117,-0.2011719
3176,0.0625,139.4375,-194.4375,-0.8354492,-0.4296875,0.125,0.2451172,-0.1757813,-0.1972656
3180,27.25,149.75,-212.375,-1.15332,-0.324707,-0.04736328,0.2568359,-0.1606445,-0.1850586
3184,24.8125,117.75,-238,-1.35498,0.04736328,-0.2705078,0.2709961,-0.1445313,-0.1713867
3188,-14,72.5625,-250.5625,-1.362793,0.06689453,-0.359375,0.2773438,-0.1293945,-0.1699219
3192,-56,40.8125,-252.9375,-1.129883,-0.1035156,-0.3129883,0.2832031,-0.1054688,-0.1645508
3196,-84.4375,42.9375,-242.375,-0.831543,-0.4140625,-0.2324219,0.2866211,-0.08203125,-0.1616211
3200,-88.8125,64.1875,-241.125,-0.8007813,-0.8261719,-0.1630859,0.2890625,-0.06445313,-0.1591797
3204,-66,70.6875,-267.375,-0.9326172,-1.036133,-0.1743164,0.2915039,-0.03808594,-0.1538086
3208,-51.6875,70.875,-296.0625,-0.9946289,-0.9892578,-0.2207031,0.2890625,-0.01074219,-0.1455078
3212,-63.625,88.25,-314.0625,-1.071777,-0.9658203,-0.2207031,0.2880859,0.01025391,-0.1416016
3216,-81.25,115.125,-309.5,-1.331543,-1.125488,-0.2089844,0.2817383,0.03857422,-0.1289063
3220,-84.4375,132.25,-275.6875,-1.711426,-1.265137,-0.1630859,0.2773438,0.06982422,-0.1166992
3224,-71.4375,126,-224.5,-2.052246,-1.29248,-0.128418,0.2709961,0.08496094,-0.105957
3228,-50.4375,88.8125,-181.625,-2.242188,-1.11377,-0.1166992,0.2641602,0.1064453,-0.09082031
3232,-35.5,38.125,-155.6875,-2.214844,-0.8725586,-0.07861328,0.2568359,0.1225586,-0.08447266
3236,-22.375,2.1875,-135.625,-2.075684,-0.8183594,0.04443359,0.2509766,0.1289063,-0.08154297
3240,-3.625,-4,-94.8125,-1.912598,-0.7485352,0.1020508,0.2460938,0.1386719,-0.07861328
3244,9,7.125,-37.5625,-1.839355,-0.6162109,0.1020508,0.2412109,0.1450195,-0.07861328
3248,12.625,18.8125,19.3125,-1.815918,-0.4453125,0.06738281,0.2402344,0.1450195,-0.08007813
3252,10.8125,11.3125,54.25,-1.839355,-0.340332,-0.001464844,0.2436523,0.1435547,-0.07861328
3256,10.4375,-6.75,68.0625,-1.761719,-0.3598633,0.005859375,0.2460938,0.1386719,-0.08007813
3260,20.5,-18.6875,72.4375,-1.70752,-0.4414063,0.05957031,0.25,0.1347656,-0.07861328
3265,39.5625,-21.0625,85.5625,-1.757813,-0.534668,0.1132813,0.253418,0.1298828,-0.08300781
3269,54.25,-16.75,120.6875,-1.785156,-0.5073242,0.06738281,0.2558594,0.1201172,-0.08691406
3273,54.875,-12.5,160.5625,-1.827637,-0.4453125,-0.03222656,0.2641602,0.1123047,-0.09228516
3277,47.8125,-15.3125,187.875,-1.87793,-0.4257813,-0.09375,0.269043,0.09765625,-0.09375
3281,42.5625,-28.125,206.4375,-1.943848,-0.5268555,-0.1743164,0.2773438,0.07861328,-0.09765625
3285,40.4375,-46.625,218.8125,-1.990234,-0.5966797,-0.2128906,0.2817383,0.0625,-0.1020508
3289,42.375,-66.4375,232.375,-1.998047,-0.6787109,-0.2475586,0.2890625,0.04248047,-0.1088867
3293,39.5,-82.625,247.25,-1.947754,-0.7094727,-0.2783203,0.2939453,0.02001953,-0.1181641
3297,36.8125,-91,268.625,-1.874023,-0.7641602,-0.2900391,0.2963867,0.00390625,-0.1235352
3301,29.25,-79,293.375,-1.757813,-0.7211914,-0.3129883,0.2973633,-0.02197266,-0.1333008
3305,20.5625,-70.375,316.8125,-1.769531,-0.7172852,-0.3325195,0.2963867,-0.05322266,-0.137207
3309,9.3125,-76.375,327.5625,-1.79248,-0.6748047,-0.3666992,0.2949219,-0.07421875,-0.1416016
3313,5.4375,-97.9375,318.625,-1.769531,-0.7016602,-0.4091797,0.2900391,-0.1030273,-0.1494141
3317,4.5,-115.5625,302.4375,-1.672363,-0.7055664,-0.3862305,0.2792969,-0.1318359,-0.1577148
3321,1.3125,-124.9375,313.0625,-1.521484,-0.6474609,-0.378418,0.2749023,-0.1494141,-0.1630859
3325,-8.5,-124,332.0625,-1.339355,-0.4726563,-0.3974609,0.2592773,-0.1767578,-0.175293
3329,-32.375,-127.875,339.3125,-1.215332,-0.402832,-0.3901367,0.2402344,-0.203125,-0.1821289
3333,-45.5,-128.375,332.0625,-1.103027,-0.4570313,-0.324707,0.2285156,-0.2192383,-0.1928711
3337,-44.75,-139.9375,312.8125,-1.129883,-0.5385742,-0.2822266,0.2070313,-0.2368164,-0.2041016
3341,-40.875,-164.875,301.5,-1.106934,-0.4882813,-0.2861328,0.1821289,-0.2543945,-0.2148438
3345,-35.3125,-170.375,310.375,-0.9013672,-0.550293,-0.1899414,0.1630859,-0.2617188,-0.2202148
3349,-22.375,-185.5,307.875,-1.037109,-0.4765625,-0.2475586,0.1333008,-0.2753906,-0.230957
3353,-30.3125,-216.875,300.0625,-0.7578125,-0.1733398,-0.359375,0.09960938,-0.2856445,-0.237793
3357,-60.875,-214.9375,291.1875,-0.3007813,-0.1113281,-0.2324219,0.07714844,-0.2895508,-0.2446289
3361,-71.6875,-175.6875,290.6875,-0.05273438,-0.2978516,-0.01318359,0.04394531,-0.2895508,-0.2543945
3365,-44.5,-124.1875,290.25,0.02832031,-0.5463867,0.2636719,0.01074219,-0.2880859,-0.2583008
3369,-15.25,-106.5,283.75,-0.09521484,-0.2861328,0.1171875,-0.005859375,-0.2856445,-0.2583008
3373,-11.9375,-113,256.25,0.02832031,-0.002441406,0.001953125,-0.03320313,-0.2832031,-0.2597656
3377,-30.75,-116.375,230.8125,0.2294922,0.1484375,0.005859375,-0.05908203,-0.2783203,-0.2568359
3381,-46.6875,-112.8125,215.5625,0.3535156,0.1484375,-0.005371094,-0.07470703,-0.2729492,-0.2583008
3385,-51.8125,-105.3125,214.5,0.5820313,-0.09570313,0.03271484,-0.09619141,-0.2631836,-0.2597656
3389,-43.375,-96.75,198.5,0.8959961,-0.1616211,0.1020508,-0.1162109,-0.2519531,-0.2558594
3394,-22.125,-90.875,157.125,1.275879,-0.2744141,0.1132813,-0.1303711,-0.2456055,-0.2558594
3398,-1.6875,-82.9375,94.625,1.585938,-0.2744141,0.08642578,-0.1450195,-0.2368164,-0.2543945
3402,9.25,-42.4375,48.625,1.922852,-0.1308594,0.2060547,-0.1533203,-0.2319336,-0.2529297
3406,14.625,5.125,5.625,1.864746,-0.09960938,0.1557617,-0.1567383,-0.2319336,-0.2490234
3410,14.9375,31,-45.8125,1.632324,-0.01416016,0.1132813,-0.1557617,-0.234375,-0.2475586
3414,12.5,43.75,-95.8125,1.368652,0.02832031,0.06738281,-0.1484375,-0.2392578,-0.2514648
3418,6.25,45.6875,-140.3125,1.132324,0.105957,0.05957031,-0.1435547,-0.2416992,-0.25
3422,-1.6875,46.6875,-179.875,0.9814453,0.1333008,0.07910156,-0.1328125,-0.2504883,-0.2529297
3426,-7,55.75,-207.5,0.8261719,0.1176758,0.1020508,-0.1152344,-0.2583008,-0.2558594
3430,-10.6875,69.25,-224.5625,0.6713867,0.1254883,0.1098633,-0.1030273,-0.2617188,-0.2558594
3434,-15.5625,85.0625,-237,0.5200195,0.1484375,0.1098633,-0.08300781,-0.2695313,-0.2612305
3438,-19.875,115.4375,-239,0.4506836,0.1293945,0.1479492,-0.06054688,-0.2729492,-0.2651367
3442,-21.9375,148.4375,-233.6875,0.05908203,0.1367188,0.09033203,-0.04248047,-0.2744141,-0.269043
3446,-12.875,142.5625,-232.25,-0.4672852,0.0009765625,0.1787109,-0.01611328,-0.2753906,-0.2680664
3450,6.75,118.8125,-225.5625,-0.862793,0.07861328,0.144043,0.009277344,-0.2753906,-0.2705078
3454,14.25,97.4375,-220.375,-0.6767578,0.237793,0.2597656,0.0234375,-0.2753906,-0.269043
3458,5.125,111.875,-213.9375,-0.5722656,0.4594727,0.1367188,0.04492188,-0.2744141,-0.2666016
3462,-23.3125,121.75,-211.6875,-0.6225586,0.5488281,0.1289063,0.06787109,-0.2705078,-0.2666016
3466,-51.25,110.5625,-217.625,-0.8510742,0.4052734,-0.001464844,0.08203125,-0.265625,-0.2651367
3470,-59.3125,74.875,-239.375,-0.9438477,0.08642578,0.1904297,0.1020508,-0.2519531,-0.2680664
3474,-36.4375,69.125,-248.9375,-0.730957,-0.1230469,0.3364258,0.1186523,-0.2416992,-0.2666016
3478,-16.5625,114.75,-228.5625,-0.5102539,-0.1035156,0.4326172,0.1318359,-0.2319336,-0.2651367
3482,-6.6875,166.125,-195.625,-0.6455078,-0.04150391,0.1713867,0.1508789,-0.2231445,-0.2612305
3486,-17.875,181.9375,-181.8125,-0.8510742,0.08642578,0.005859375,0.1723633,-0.2104492,-0.2514648
3490,-23.1875,158.25,-208.1875,-1.133789,-0.07617188,-0.05126953,0.1855469,-0.203125,-0.2460938
3494,1.9375,125.5,-237.5,-1.12207,-0.581543,0.2211914,0.2045898,-0.1870117,-0.237793
3498,58.25,149.8125,-239.4375,-0.78125,-0.8613281,0.3598633,0.2211914,-0.1757813,-0.2285156
3502,96,216.1875,-200.3125,-0.8085938,-0.4101563,0.09814453,0.230957,-0.1669922,-0.2216797
3506,69.75,234.75,-162.6875,-1.35498,0.1875,-0.3515625,0.25,-0.1557617,-0.2011719
3510,9.625,180.25,-163.375,-1.552246,0.6108398,-0.5209961,0.2641602,-0.1445313,-0.1821289
3514,-34.3125,129.3125,-184.5,-1.563965,-0.2509766,-0.2861328,0.2724609,-0.1357422,-0.1728516
3518,11.5,73.6875,-226.0625,-1.560059,-0.6787109,-0.1015625,0.2792969,-0.1196289,-0.1660156
3523,53.125,72.6875,-236.25,-1.230957,-0.5927734,-0.02050781,0.2866211,-0.09814453,-0.1577148
3527,56.8125,114.1875,-212.6875,-1.195801,-0.324707,-0.1630859,0.2915039,-0.08544922,-0.1538086
3531,29.4375,128.125,-193.3125,-1.48291,-0.1499023,-0.3745117,0.2949219,-0.06835938,-0.1425781
3535,-13.125,111.0625,-184,-1.494141,-0.1191406,-0.4399414,0.2983398,-0.05175781,-0.1303711
3539,-49.8125,96.5,-194.5,-1.385742,-0.2783203,-0.394043,0.2998047,-0.04052734,-0.1264648
3543,-53.0625,82.25,-209.125,-1.439941,-0.7211914,-0.2939453,0.3007813,-0.01953125,-0.1157227
3547,-31.4375,68.625,-224.4375,-1.358887,-0.7485352,-0.2670898,0.2998047,0.002441406,-0.1074219
3551,-24.625,71.1875,-238.1875,-1.28125,-0.6821289,-0.2475586,0.2963867,0.01757813,-0.1020508
3555,-27.0625,82.0625,-244.625,-1.319824,-0.6318359,-0.2939453,0.2924805,0.04003906,-0.09521484
3559,-32.875,93.3125,-237.6875,-1.479004,-0.6748047,-0.2861328,0.2856445,0.06494141,-0.08544922
3563,-22.625,100.875,-217.6875,-1.742188,-0.7949219,-0.1899414,0.2807617,0.08007813,-0.07861328
3567,2.3125,97.8125,-190.625,-2.009766,-0.7446289,-0.109375,0.2724609,0.09619141,-0.06640625
3571,19.875,82.3125,-150.875,-2.32373,-0.6279297,-0.06689453,0.2666016,0.1123047,-0.06103516
3575,27.9375,49.375,-84.625,-2.528809,-0.484375,-0.05517578,0.2617188,0.1201172,-0.05712891
3579,29.375,12.4375,-13.1875,-2.447754,-0.3286133,-0.08203125,0.2583008,0.125,-0.05419922
3583,22.875,-16,39.9375,-2.214844,-0.1694336,-0.1166992,0.2583008,0.1264648,-0.05859375
3587,9.5625,-31.5,71.3125,-2.036621,-0.1577148,-0.112793,0.2617188,0.1210938,-0.05859375
3591,5.75,-40,98.5,-1.982422,-0.3095703,-0.07861328,0.2641602,0.1152344,-0.0625
3595,12.4375,-44.875,124.875,-1.978516,-0.4492188,-0.02832031,0.2700195,0.1025391,-0.06640625
3599,24.875,-45.6875,157.4375,-1.978516,-0.5581055,-0.04736328,0.2734375,0.09765625,-0.07177734
3603,35.0625,-44.875,197.5,-2.001953,-0.5927734,-0.1206055,0.2783203,0.08398438,-0.07763672
3607,36.0625,-48.3125,229.3125,-2.032715,-0.5424805,-0.2631836,0.2890625,0.06103516,-0.08154297
3611,27.1875,-54.875,249.375,-2.032715,-0.550293,-0.359375,0.2924805,0.04638672,-0.08691406
3615,18.625,-57.75,266.4375,-2.044434,-0.6318359,-0.4208984,0.2973633,0.02148438,-0.09228516
3619,14,-55.9375,289.8125,-2.04834,-0.6860352,-0.4902344,0.3032227,-0.003417969,-0.09765625
3623,3.4375,-57,325.5,-2.09082,-0.6938477,-0.5786133,0.3022461,-0.02441406,-0.1005859
3627,-8.75,-75.0625,350.125,-2.067871,-0.7094727,-0.6206055,0.3056641,-0.0546875,-0.1088867
3631,-26,-107.75,354.625,-1.912598,-0.6552734,-0.6513672,0.3022461,-0.09082031,-0.1166992
3635,-40.625,-131.125,345.1875,-1.672363,-0.6977539,-0.5898438,0.2973633,-0.1118164,-0.1235352
3639,-46.6875,-133.5625,343.4375,-1.447754,-0.7563477,-0.4594727,0.2866211,-0.1420898,-0.137207
3643,-40.5625,-123.8125,337.1875,-1.37793,-0.7832031,-0.3666992,0.2734375,-0.1704102,-0.1469727
3647,-32.9375,-112.75,333.9375,-1.289063,-0.6474609,-0.3554688,0.2626953,-0.1894531,-0.15625
3652,-39.9375,-97.4375,343.8125,-1.285156,-0.4296875,-0.394043,0.2451172,-0.2143555,-0.1645508
3656,-60.375,-90.9375,347.1875,-1.242188,-0.2783203,-0.4013672,0.2260742,-0.2368164,-0.1738281
3660,-79.625,-106.6875,337.6875,-1.292969,-0.324707,-0.4438477,0.2119141,-0.2519531,-0.1796875
3664,-84.5,-130.3125,317.625,-1.211426,-0.4101563,-0.4013672,0.1865234,-0.2695313,-0.1918945
3668,-78.5,-153.25,316.0625,-1.075684,-0.4921875,-0.3359375,0.1582031,-0.2807617,-0.2055664
3672,-73.1875,-164.375,325.125,-0.7617188,-0.4101563,-0.324707,0.1376953,-0.2866211,-0.2094727
3676,-67.875,-151.3125,315.5625,-0.4555664,-0.3598633,-0.2207031,0.1079102,-0.2983398,-0.2216797
3680,-68.6875,-129.5,308.375,-0.296875,-0.2084961,-0.1669922,0.07714844,-0.3032227,-0.2285156
3684,-68.0625,-114.375,281.25,-0.4287109,-0.1577148,-0.1474609,0.05712891,-0.3032227,-0.2353516
3688,-53.125,-139.375,255.4375,-0.5371094,-0.2431641,-0.109375,0.02978516,-0.3041992,-0.2392578
3692,-43.75,-138.4375,259.75,-0.1767578,-0.06835938,-0.0859375,0.0009765625,-0.2993164,-0.2446289
3696,-57.125,-111.875,266.3125,0.02050781,0.1333008,-0.05517578,-0.01757813,-0.296875,-0.2460938
3700,-67.625,-93.875,258.0625,0.05908203,0.1640625,0.01367188,-0.04248047,-0.2919922,-0.25
3704,-76.1875,-100.375,240.0625,0.01269531,0.105957,-0.05908203,-0.06884766,-0.2792969,-0.2529297
3708,-82.5,-119.5625,217.1875,0.1674805,0.07470703,-0.03222656,-0.08300781,-0.2719727,-0.2543945
3712,-80.6875,-125.125,199.75,0.543457,-0.1152344,0.1098633,-0.1069336,-0.2607422,-0.2558594
3716,-59.375,-105.625,185.1875,0.8959961,-0.2353516,0.2211914,-0.128418,-0.2470703,-0.2568359
3720,-41,-79.1875,160.25,1.179199,-0.1811523,0.2675781,-0.1391602,-0.2407227,-0.2529297
3724,-25.5625,-52.75,125.625,1.384277,-0.1811523,0.3173828,-0.1557617,-0.2304688,-0.2543945
3728,-12.875,-33.5625,84.6875,1.419434,-0.1538086,0.3291016,-0.1640625,-0.2216797,-0.2514648
3732,-5.125,-13.5,46.9375,1.539551,-0.1538086,0.3520508,-0.1665039,-0.2182617,-0.2543945
3736,-3,4.875,7.125,1.484863,-0.05664063,0.3330078,-0.1708984,-0.2167969,-0.2529297
3740,-4.25,10.5,-34.6875,1.330078,-0.006347656,0.3173828,-0.168457,-0.2158203,-0.2514648
3744,-0.375,6.5,-83.375,1.244629,0.02441406,0.3364258,-0.1674805,-0.2182617,-0.2529297
3748,2,13.625,-122.8125,1.206055,0.1020508,0.3671875,-0.1601563,-0.2246094,-0.2514648
3752,3.3125,27.5,-153.8125,1.039551,0.15625,0.3330078,-0.1533203,-0.2304688,-0.2529297
3756,1.5625,32.125,-174.0625,0.8339844,0.203125,0.2480469,-0.1435547,-0.234375,-0.2543945
3760,-2.125,32.6875,-189.5,0.7602539,0.1914063,0.2329102,-0.1318359,-0.2431641,-0.2568359
3764,-1.5625,38.6875,-208.75,0.7294922,0.1679688,0.2597656,-0.1186523,-0.2504883,-0.2583008
3768,2.75,52.0625,-231.8125,0.6557617,0.1484375,0.2749023,-0.1054688,-0.2568359,-0.2583008
3772,9.875,65.75,-256.375,0.5009766,0.09814453,0.2788086,-0.08789063,-0.2641602,-0.2612305
3776,17.9375,75.8125,-271.1875,0.3149414,0.01660156,0.2480469,-0.06494141,-0.2729492,-0.2597656
3781,26.9375,91.9375,-271.1875,0.2026367,-0.06054688,0.2094727,-0.04980469,-0.2753906,-0.2636719
3785,28,111,-262.3125,0.1132813,0.03613281,0.1367188,-0.0234375,-0.2817383,-0.2612305
3789,21.1875,141.5,-275.125,0.01660156,0.1333008,0.1367188,0.004394531,-0.2856445,-0.2612305
3793,14.125,149.25,-292.875,-0.5102539,0.01269531,0.07519531,0.0234375,-0.2841797,-0.2583008
3797,29.6875,137.125,-306.5,-0.8432617,-0.3095703,0.1210938,0.05566406,-0.2817383,-0.2568359
3801,55.75,118.3125,-273.625,-1.044922,-0.2587891,0.02099609,0.08544922,-0.2817383,-0.2514648
3805,43.8125,103.9375,-231.9375,-0.878418,0.2109375,-0.1054688,0.09960938,-0.2768555,-0.2460938
3809,0.9375,106.375,-217.25,-0.5683594,0.4790039,-0.1591797,0.1186523,-0.2695313,-0.2407227
3813,-36.5,121.4375,-231.4375,-0.78125,0.004882813,-0.0859375,0.1416016,-0.2592773,-0.2368164
3817,-6.4375,123,-242.0625,-1.141602,-0.7368164,0.1748047,0.1533203,-0.2504883,-0.2338867
3821,67.8125,110.875,-249.4375,-1.366211,-0.7250977,0.09033203,0.1757813,-0.2407227,-0.2285156
3825,94.1875,121.375,-231.375,-1.12207,-0.1577148,-0.01318359,0.1938477,-0.2304688,-0.2177734
3829,60.5625,147.8125,-218.4375,-1.161133,0.284668,-0.3476563,0.2070313,-0.2231445,-0.2094727
3833,9.8125,132.375,-213.1875,-1.37793,0.3081055,-0.4667969,0.222168,-0.2128906,-0.1987305
3837,-35.25,106.8125,-216.25,-1.347168,-0.1459961,-0.4208984,0.2392578,-0.1943359,-0.1889648
3841,-17.375,69.4375,-252.0625,-1.374023,-0.7524414,-0.1630859,0.2475586,-0.1831055,-0.1875
3845,25.875,80.75,-281.75,-0.9750977,-0.8222656,-0.001464844,0.2583008,-0.1621094,-0.1821289
3849,41,125.8125,-276.3125,-1.137695,-0.5463867,-0.2128906,0.269043,-0.140625,-0.1738281
3853,23.5,133.1875,-263.625,-1.501953,-0.3598633,-0.4516602,0.2773438,-0.1269531,-0.1674805
3857,-14.1875,109,-264.8125,-1.633789,-0.2587891,-0.5244141,0.2880859,-0.1030273,-0.1577148
3861,-53.5625,80.875,-266.6875,-1.637695,-0.371582,-0.5053711,0.2924805,-0.07714844,-0.1484375
3865,-74.75,54,-279.875,-1.641602,-0.6821289,-0.3286133,0.2949219,-0.05810547,-0.1425781
3869,-61.0625,36.375,-295.8125,-1.57959,-0.9467773,-0.1054688,0.2949219,-0.02929688,-0.1386719
3873,-42.6875,52.6875,-286.625,-1.525391,-0.8881836,0.05566406,0.2890625,0,-0.1347656
3877,-36.375,78.125,-261,-1.695801,-0.8725586,0.08251953,0.2890625,0.01855469,-0.1289063
3881,-29.0625,90,-224.625,-1.916504,-0.8027344,0.05566406,0.2856445,0.04150391,-0.1210938
3885,-24.8125,84.4375,-190.375,-2.04834,-0.6083984,0.03271484,0.2807617,0.06103516,-0.1113281
3889,-21.6875,75.375,-160.3125,-2.017578,-0.4296875,0.1098633,0.2773438,0.07373047,-0.1035156
3893,-14.1875,80.125,-133.5,-1.95166,-0.3950195,0.2211914,0.2724609,0.08740234,-0.09667969
3897,-0.6875,86.1875,-107.75,-2.021484,-0.3056641,0.1982422,0.2700195,0.09619141,-0.08837891
3901,10.375,73.8125,-71.3125,-2.296387,-0.3208008,0.1020508,0.2666016,0.1035156,-0.08447266
3905,16.125,37,-16.375,-2.374023,-0.1074219,-0.001464844,0.2651367,0.1074219,-0.08154297
3910,2.6875,-1.125,27.4375,-2.191895,0.04003906,-0.05517578,0.2651367,0.1074219,-0.08007813
3914,-10.3125,-26.75,58.875,-1.889648,-0.05273438,-0.04003906,0.2675781,0.1064453,-0.07861328
3918,-9.1875,-35.9375,71.5,-1.687988,-0.1381836,-0.02441406,0.2700195,0.1000977,-0.08154297
3922,-3.3125,-41.625,77.125,-1.67627,-0.2202148,-0.005371094,0.2734375,0.09375,-0.08447266
3926,6.5,-52.0625,92.375,-1.75,-0.3754883,0.01367188,0.2749023,0.08740234,-0.08984375
3930,21.5625,-61.25,111.1875,-1.82373,-0.4765625,0.04443359,0.2783203,0.08007813,-0.09228516
3934,33.5625,-59.3125,143.5625,-1.757813,-0.484375,0.01708984,0.2817383,0.06884766,-0.09912109
3938,35.3125,-45.1875,180.0625,-1.757813,-0.5,-0.03222656,0.2832031,0.05761719,-0.1035156
3942,35.9375,-37.625,206.9375,-1.889648,-0.5,-0.1323242,0.2880859,0.04003906,-0.1113281
3946,28.8125,-46.0625,231.625,-2.025391,-0.519043,-0.2016602,0.2924805,0.01855469,-0.1157227
3950,24.5625,-70.125,242.6875,-2.129883,-0.5893555,-0.2978516,0.2949219,0.004882813,-0.1181641
3954,20.3125,-97.0625,255.5625,-2.087402,-0.6938477,-0.2705078,0.2973633,-0.02050781,-0.1264648
3958,21,-105.875,279.5,-1.885742,-0.7719727,-0.2514648,0.2963867,-0.04443359,-0.137207
3962,23.5625,-89.375,305.5,-1.699707,-0.7602539,-0.1977539,0.2939453,-0.06201172,-0.1416016
3966,18.875,-71.8125,328.5625,-1.65332,-0.6435547,-0.2553711,0.2900391,-0.09326172,-0.1494141
3970,6.6875,-66.875,334.1875,-1.649414,-0.5151367,-0.3168945,0.2832031,-0.1245117,-0.1547852
3974,-7.125,-84.75,323.75,-1.691895,-0.4648438,-0.3554688,0.2758789,-0.1455078,-0.1606445
3978,-26.125,-111.5,317.75,-1.57959,-0.324707,-0.4091797,0.2651367,-0.171875,-0.1674805
3982,-45.125,-127.6875,308.75,-1.315918,-0.3833008,-0.309082,0.2485352,-0.1958008,-0.1767578
3986,-50.0625,-135.75,300.5,-1.168945,-0.4453125,-0.2592773,0.237793,-0.2070313,-0.1850586
3990,-45.6875,-128.4375,294.9375,-1.005859,-0.4296875,-0.2016602,0.215332,-0.2270508,-0.1958008
3994,-39.1875,-113.6875,292.625,-0.9365234,-0.3598633,-0.128418,0.1962891,-0.2431641,-0.2055664
3998,-40.3125,-111.375,284.6875,-1.005859,-0.1889648,-0.1977539,0.1796875,-0.2543945,-0.2109375
4002,-39.25,-115.25,268.6875,-1.001953,-0.1499023,-0.1552734,0.1567383,-0.2670898,-0.2163086
4006,-44.8125,-122.625,266.4375,-0.9711914,-0.09570313,-0.1166992,0.1342773,-0.2768555,-0.2246094
4010,-44,-125.4375,268.0625,-0.9438477,-0.05664063,-0.1782227,0.1186523,-0.2817383,-0.2285156
4014,-54.125,-129.375,271.6875,-0.8007813,0.02441406,-0.1362305,0.09375,-0.2895508,-0.2368164
4018,-65.1875,-128.25,277.375,-0.6806641,0.04394531,-0.1630859,0.06640625,-0.2919922,-0.2446289
4022,-72.1875,-130.3125,263.75,-0.6069336,0.04736328,-0.08984375,0.04638672,-0.2919922,-0.2490234
4026,-62,-123.9375,257.875,-0.4790039,-0.06054688,0.001953125,0.02001953,-0.2895508,-0.2568359
4030,-62.125,-123.9375,270.4375,-0.4482422,0.02050781,-0.0859375,-0.0078125,-0.2856445,-0.2583008
4034,-67.8125,-124.625,270.875,-0.2001953,0.06298828,-0.05126953,-0.02587891,-0.2832031,-0.2612305
4039,-71.8125,-128.0625,254.625,-0.08007813,0.05126953,-0.03613281,-0.05322266,-0.2729492,-0.2651367
4043,-73.125,-138.4375,227.0625,0.06689453,0.07470703,-0.02441406,-0.078125,-0.2607422,-0.2680664
4047,-76.5625,-149.75,199.375,0.140625,0.03222656,-0.001464844,-0.09472656,-0.2529297,-0.2651367
4051,-64.4375,-151.6875,193.875,0.4736328,-0.2314453,0.1479492,-0.1186523,-0.2416992,-0.2666016
4055,-36.6875,-123.875,192.75,0.8691406,-0.2939453,0.2368164,-0.1411133,-0.2294922,-0.2626953
4059,-20.6875,-89.75,185.125,1.089844,-0.1616211,0.2094727,-0.1533203,-0.2207031,-0.2597656
4063,-8.625,-63.3125,160,1.314453,-0.1772461,0.2290039,-0.1699219,-0.2094727,-0.2558594
4067,0.9375,-35.8125,126.75,1.481445,-0.1850586,0.2402344,-0.1782227,-0.2016602,-0.2543945
4071,15.8125,-18.1875,77.8125,1.605469,-0.2744141,0.2866211,-0.184082,-0.1967773,-0.2514648
4075,30.1875,0.5,24.375,1.69043,-0.1538086,0.2827148,-0.1875,-0.1943359,-0.25
4079,26.8125,18.25,-25.875,1.597656,-0.01806641,0.2788086,-0.1865234,-0.1982422,-0.25
4083,19.3125,28.3125,-64.75,1.361328,0.01660156,0.2636719,-0.1855469,-0.1992188,-0.25
4087,16.125,32.375,-95.25,1.209961,0.09423828,0.2519531,-0.1791992,-0.2045898,-0.25
4091,9.625,39.1875,-119.875,1.085938,0.1796875,0.2749023,-0.1708984,-0.2128906,-0.2514648
4095,4.5,45.125,-139.9375,0.9155273,0.2109375,0.2172852,-0.1650391,-0.2192383,-0.2514648
4099,0.25,43.75,-157.5625,0.8378906,0.1679688,0.2211914,-0.1542969,-0.2255859,-0.2558594
4103,3.5625,51.0625,-181.3125,0.8652344,0.1333008,0.2788086,-0.1435547,-0.2329102,-0.2568359
4107,16.875,75.375,-209.75,0.8032227,0.04003906,0.3789063,-0.1342773,-0.2382813,-0.2597656
4111,35.4375,97.5,-222.625,0.4931641,-0.002441406,0.3095703,-0.1137695,-0.2495117,-0.2626953
4115,48.625,108.0625,-227.4375,0.2412109,0.05126953,0.2290039,-0.09228516,-0.2607422,-0.2612305
4119,47.625,106.75,-225.8125,0.06298828,0.1992188,0.125,-0.07714844,-0.2670898,-0.2636719
4123,35.125,115.1875,-227.6875,0.1210938,0.2963867,0.125,-0.05322266,-0.2753906,-0.2626953
4127,22.5,129.125,-238.4375,0.02050781,0.2299805,0.1518555,-0.02929688,-0.2807617,-0.2636719
4131,28.25,128.3125,-269.5,-0.3046875,0.06298828,0.1328125,-0.01269531,-0.2841797,-0.2636719
4135,37.1875,109.1875,-276.25,-0.6845703,-0.06835938,0.1328125,0.01757813,-0.2856445,-0.2612305
4139,46.875,99.9375,-248.5,-0.6455078,0.02832031,0.09423828,0.04150391,-0.2856445,-0.2558594
4143,29.875,106.375,-236.875,-0.5332031,0.2729492,0.02099609,0.05712891,-0.2841797,-0.2529297
4147,10.1875,123.3125,-239.6875,-0.5874023,0.2265625,0.03271484,0.08056641,-0.2817383,-0.2475586
4151,11.9375,114.375,-265.25,-0.9438477,-0.04541016,0.09423828,0.1035156,-0.2744141,-0.2446289
4155,39.75,94.625,-291.1875,-1.041016,-0.1967773,0.1289063,0.1210938,-0.2680664,-0.2421875
4159,54.5,112.1875,-274.875,-0.9130859,-0.1772461,0.1982422,0.144043,-0.2607422,-0.2353516
4163,72.9375,169.625,-237.375,-1.044922,-0.1420898,0.1020508,0.1665039,-0.2504883,-0.2255859
4168,66.6875,182.4375,-194.25,-1.529297,0.1835938,-0.2246094,0.184082,-0.2470703,-0.2148438
4172,35.125,128.3125,-200.9375,-1.831543,0.300293,-0.3554688,0.203125,-0.2368164,-0.2041016
4176,15.75,29.75,-245.0625,-1.734375,0.1523438,-0.3208008,0.2163086,-0.2231445,-0.1987305
4180,-2.4375,-4.4375,-259.25,-0.9946289,0.04003906,-0.05517578,0.2236328,-0.2128906,-0.1958008
4184,-4.1875,49.8125,-244.375,-0.5644531,-0.2705078,0.144043,0.2353516,-0.1933594,-0.1972656
4188,16.6875,123.0625,-218.9375,-0.730957,-0.4726563,0.05957031,0.2485352,-0.1757813,-0.1889648
4192,28.875,158.1875,-209.4375,-1.141602,-0.2548828,-0.2089844,0.2558594,-0.1669922,-0.1821289
4196,13.4375,125.5625,-230.875,-1.610352,-0.1191406,-0.394043,0.269043,-0.1494141,-0.1713867
4200,-10.9375,48.8125,-261.1875,-1.62207,-0.1347656,-0.4130859,0.2783203,-0.1269531,-0.1630859
4204,-44.4375,8.1875,-276.1875,-1.211426,-0.1655273,-0.3051758,0.2832031,-0.1108398,-0.1616211
4208,-74.75,12.375,-276,-0.8666992,-0.3911133,-0.2167969,0.2880859,-0.08544922,-0.1616211
4212,-90.375,44.4375,-273.0625,-0.6845703,-0.6123047,-0.1630859,0.2866211,-0.05712891,-0.1606445
4216,-108.1875,88.6875,-276.5625,-0.7270508,-0.7446289,-0.2285156,0.2880859,-0.03466797,-0.1547852
4220,-123.4375,112.625,-298.375,-1.017578,-0.9233398,-0.2670898,0.2880859,-0.008300781,-0.144043
4224,-128.25,99.3125,-337.6875,-1.362793,-1.171875,-0.2670898,0.2841797,0.02734375,-0.1333008
4228,-118.375,69.5625,-362.5,-1.525391,-1.416504,-0.2089844,0.2807617,0.04980469,-0.1235352
4232,-97.4375,62,-336.25,-1.544922,-1.548828,-0.07861328,0.2675781,0.08496094,-0.1157227
4236,-67.375,82.3125,-279.125,-1.575684,-1.533203,0.05175781,0.2568359,0.1137695,-0.1035156
4240,-27.625,108.5,-226.125,-1.742188,-1.334961,0.03271484,0.2485352,0.1289063,-0.09765625
4244,-3.4375,117.6875,-188.3125,-1.990234,-0.9428711,-0.01318359,0.2402344,0.1474609,-0.08691406
4248,7.3125,111.0625,-157.8125,-2.29248,-0.7602539,-0.01660156,0.2294922,0.1601563,-0.07617188
4252,21.5,89.3125,-94.5,-2.505859,-0.6474609,-0.01660156,0.2246094,0.1660156,-0.06933594
4256,32.1875,58.5625,-10,-2.567871,-0.4257813,-0.02832031,0.222168,0.1738281,-0.06933594
4260,20.5,18.125,50.6875,-2.366211,-0.1655273,-0.1054688,0.2211914,0.1738281,-0.07080078
4264,1.3125,-22.5625,70.0625,-2.07959,-0.1811523,-0.1206055,0.2246094,0.1674805,-0.06640625
4268,-8,-47.3125,74.375,-1.78125,-0.2900391,-0.03613281,0.2285156,0.1625977,-0.06933594
4272,-11.5625,-49.0625,84.0625,-1.657227,-0.453125,0.07519531,0.234375,0.1547852,-0.07324219
4276,-2.5,-38.1875,108.9375,-1.67627,-0.6591797,0.1367188,0.2353516,0.1523438,-0.07617188
4280,10.875,-31.5625,142.75,-1.788574,-0.7792969,0.1210938,0.2426758,0.1411133,-0.07861328
4284,25.375,-38.875,167.4375,-1.881836,-0.8574219,0.05957031,0.25,0.1289063,-0.08300781
4288,35.1875,-53.25,187.8125,-1.912598,-0.8686523,-0.01318359,0.2592773,0.1186523,-0.08691406
4292,32.9375,-62.25,211.6875,-1.885742,-0.8535156,-0.09375,0.2666016,0.1025391,-0.09228516
4297,28.5,-72,233.5,-1.901367,-0.9233398,-0.1782227,0.2734375,0.08398438,-0.1020508
4301,25.25,-85.75,250.0625,-1.92041,-0.9736328,-0.2363281,0.2807617,0.06982422,-0.1074219
4305,26.25,-99.6875,263.5625,-1.889648,-1.055176,-0.2553711,0.2856445,0.04492188,-0.1166992
4309,27.8125,-109.5625,280.75,-1.839355,-1.074707,-0.2783203,0.2890625,0.02001953,-0.1279297
4313,29.4375,-116.75,294,-1.79248,-1.090332,-0.3051758,0.2915039,0,-0.1357422
4317,24.625,-127.25,304.1875,-1.746094,-0.9853516,-0.359375,0.2900391,-0.02685547,-0.1484375
4321,10.4375,-144.0625,312,-1.742188,-0.8999023,-0.4013672,0.2890625,-0.05566406,-0.1591797
4325,-2.25,-168.0625,311.3125,-1.67627,-0.9194336,-0.4052734,0.2856445,-0.07421875,-0.1630859
4329,-2.5625,-193.6875,309.5625,-1.525391,-0.9580078,-0.3745117,0.2734375,-0.1020508,-0.1821289
4333,4.3125,-203.6875,304.1875,-1.32373,-0.9428711,-0.3168945,0.2592773,-0.1279297,-0.1972656
4337,15.625,-197.1875,301.25,-1.15332,-0.9467773,-0.2055664,0.25,-0.1445313,-0.206543
4341,30.0625,-177.3125,313.25,-1.005859,-0.7988281,-0.1860352,0.230957,-0.1694336,-0.2216797
4345,34.375,-147.3125,319.1875,-0.9477539,-0.6591797,-0.1166992,0.2104492,-0.1943359,-0.2285156
4349,34.3125,-131.1875,324.8125,-1.029297,-0.4726563,-0.1782227,0.1962891,-0.2094727,-0.230957
4353,21.5,-126.9375,332.1875,-1.087402,-0.3364258,-0.2285156,0.1738281,-0.2319336,-0.2392578
4357,4.5,-140.5,333.0625,-1.052734,-0.2509766,-0.2670898,0.1484375,-0.2470703,-0.2446289
4361,-14.125,-156.6875,328.875,-0.9477539,-0.1616211,-0.3325195,0.128418,-0.2583008,-0.25
4365,-30.9375,-172.25,313.25,-0.7929688,-0.1616211,-0.309082,0.09960938,-0.2695313,-0.2558594
4369,-37.875,-183.25,296.75,-0.5991211,-0.2392578,-0.2246094,0.06542969,-0.2729492,-0.2597656
4373,-31.875,-169.5,297.875,-0.2929688,-0.3173828,-0.07080078,0.04248047,-0.2753906,-0.2651367
4377,-19.75,-135.8125,306.4375,-0.2231445,-0.2939453,-0.05908203,0.01269531,-0.2768555,-0.2680664
4381,-24.4375,-126.25,302.375,-0.1884766,-0.01416016,-0.1669922,-0.01757813,-0.2744141,-0.2705078
4385,-34.3125,-127.125,279.4375,-0.09521484,0.08642578,-0.1669922,-0.03759766,-0.2705078,-0.269043
4389,-43.6875,-136.75,251.625,-0.06445313,0.04394531,-0.1552734,-0.06396484,-0.2631836,-0.2719727
4393,-45.375,-140.4375,237.375,0.1831055,-0.006347656,-0.08984375,-0.09228516,-0.2543945,-0.269043
4397,-43.75,-134.875,229.375,0.2915039,-0.03369141,-0.03613281,-0.1069336,-0.2456055,-0.269043
4401,-34.0625,-119.25,220.625,0.6401367,-0.1113281,0.09814453,-0.1303711,-0.234375,-0.2626953
4405,-19.6875,-104.0625,204.75,0.7954102,-0.1733398,0.09814453,-0.1508789,-0.2207031,-0.2612305
4409,-4.625,-100.4375,167.8125,1.059082,-0.1381836,0.1132813,-0.1640625,-0.2143555,-0.2568359
4413,1.875,-92.875,121.9375,1.376465,-0.1113281,0.125,-0.1757813,-0.203125,-0.2529297
4417,11,-58.75,86.375,1.783691,-0.2548828,0.2597656,-0.1889648,-0.1982422,-0.2475586
4421,20.8125,-9.125,54.0625,1.888184,-0.2822266,0.2983398,-0.1938477,-0.1982422,-0.2446289
4426,28.375,21.375,10.1875,1.760254,-0.1850586,0.2519531,-0.1962891,-0.1967773,-0.2436523
4430,20.5,29.5625,-41.0625,1.566406,-0.006347656,0.1787109,-0.1923828,-0.1982422,-0.2436523
4434,8.0625,19.125,-98.8125,1.380371,0.03613281,0.1748047,-0.1899414,-0.2006836,-0.2446289
4438,-0.3125,15,-146,1.310547,0.04394531,0.2133789,-0.1831055,-0.2104492,-0.2446289
4442,-2,31.4375,-168.5,1.225586,0.0009765625,0.2172852,-0.1748047,-0.2158203,-0.2475586
4446,-1.5625,51.8125,-180.6875,1.066406,0.07080078,0.1674805,-0.1650391,-0.2231445,-0.2490234
4450,-6.875,68.75,-192.375,0.9272461,0.1176758,0.105957,-0.1508789,-0.2329102,-0.2514648
4454,-14.125,80.75,-209.875,0.7875977,0.1367188,0.04785156,-0.1328125,-0.2407227,-0.2568359
4458,-21.375,85.75,-244.5625,0.6054688,0.1020508,0.07519531,-0.1220703,-0.2470703,-0.2612305
4462,-19.5,81.1875,-284.3125,0.4233398,0.04736328,0.07519531,-0.09960938,-0.2543945,-0.2636719
4466,-23.5625,87.4375,-299.4375,0.2333984,0.02441406,0.05957031,-0.07714844,-0.2631836,-0.2666016
4470,-34.4375,100.4375,-284,0.01660156,0.06689453,-0.001464844,-0.05810547,-0.2641602,-0.269043
4474,-54.1875,128.875,-253.0625,0.01660156,0.08642578,0.07910156,-0.03173828,-0.2631836,-0.2758789
4478,-70,190.1875,-210.625,-0.02587891,0.1176758,0.1479492,-0.005859375,-0.2617188,-0.2773438
4482,-63.75,230.75,-218.1875,-0.6225586,-0.1811523,0.1943359,0.01171875,-0.2583008,-0.2827148
4486,-20.1875,166.0625,-265.75,-1.443848,-0.3134766,0.001953125,0.04492188,-0.2495117,-0.2827148
4490,3.1875,90.625,-302.1875,-1.223145,-0.03369141,0.06347656,0.07128906,-0.2441406,-0.2827148
4494,-15,82.4375,-285.4375,-0.9399414,0.06689453,0.09033203,0.08544922,-0.2407227,-0.2817383
4498,-42.1875,118,-241.0625,-0.765625,0.08642578,0.1518555,0.1069336,-0.2304688,-0.2758789
4502,-50.1875,190.3125,-191.5625,-0.6108398,-0.1772461,0.2788086,0.128418,-0.2182617,-0.2758789
4506,-32.5,269.375,-135.375,-0.9399414,-0.371582,0.105957,0.1450195,-0.2104492,-0.2705078
4510,5.6875,250.0625,-147.625,-1.70752,-0.4492188,-0.05908203,0.1689453,-0.2006836,-0.2612305
4514,33.4375,143.5625,-200.8125,-1.847168,-0.1035156,-0.3168945,0.1889648,-0.1943359,-0.2475586
4518,-0.9375,71.1875,-241.8125,-1.339355,0.2924805,-0.2553711,0.199707,-0.1870117,-0.2407227
4522,-49.125,59.9375,-249.625,-0.9868164,0.05126953,-0.1206055,0.2119141,-0.1679688,-0.2392578
4526,-62.375,112.375,-222.5625,-0.6108398,-0.4960938,0.1674805,0.2236328,-0.1494141,-0.2353516
4530,-26.0625,221.125,-172.125,-0.5722656,-0.7172852,0.1557617,0.2319336,-0.1357422,-0.2299805
4534,8.125,287.9375,-147.5625,-1.07959,-0.5737305,-0.2167969,0.25,-0.1230469,-0.2133789
4538,17.25,257.6875,-171.75,-1.785156,-0.2470703,-0.5322266,0.2675781,-0.1118164,-0.1904297
4542,-5.0625,142.9375,-224.1875,-2.149414,-0.06445313,-0.6708984,0.2758789,-0.1005859,-0.1782227
4546,-51.25,35.8125,-263.875,-1.82373,-0.07617188,-0.5092773,0.2841797,-0.078125,-0.168457
4550,-80.8125,21.375,-266.0625,-1.161133,-0.4726563,-0.1435547,0.2841797,-0.05078125,-0.1674805
4555,-70.9375,90.3125,-234.3125,-0.8974609,-0.8686523,0.09033203,0.2841797,-0.03320313,-0.1660156
4559,-37.1875,171,-202.4375,-1.087402,-0.9389648,0.05175781,0.2866211,-0.008300781,-0.1547852
4563,-5.625,203.6875,-197.125,-1.684082,-0.8339844,-0.1323242,0.2890625,0.008789063,-0.137207
4567,14.875,159.5625,-207,-2.253906,-0.6435547,-0.2670898,0.2900391,0.02001953,-0.125
4571,14.0625,89.0625,-206.4375,-2.257813,-0.4335938,-0.2285156,0.2880859,0.03857422,-0.112793
4575,-0.8125,50,-183.1875,-1.994141,-0.4101563,-0.1015625,0.2856445,0.05761719,-0.105957
4579,-3.875,39.375,-153.0625,-1.734375,-0.4067383,0.005859375,0.2783203,0.06640625,-0.1035156
4583,-3.0625,49.375,-132.875,-1.575684,-0.2939453,0.07519531,0.2749023,0.08251953,-0.1020508
4587,-7.25,61.125,-119.8125,-1.70752,-0.2006836,0.144043,0.2724609,0.09228516,-0.09375
4591,-16.875,61.5,-98.75,-1.936035,-0.1928711,0.2597656,0.2675781,0.1000977,-0.08984375
4595,-19.6875,45.625,-62.9375,-2.195801,-0.3364258,0.340332,0.2651367,0.1064453,-0.08300781
4599,-10.6875,15.1875,-21.9375,-2.315918,-0.3833008,0.390625,0.2617188,0.1123047,-0.07861328
4603,1.6875,-20.8125,16.5,-2.284668,-0.421875,0.3637695,0.2626953,0.1123047,-0.08007813
4607,13.0625,-46.6875,49.4375,-2.063965,-0.387207,0.2709961,0.2641602,0.1123047,-0.08300781
4611,16.0625,-58.625,74.75,-1.870117,-0.3598633,0.1713867,0.2666016,0.1035156,-0.08691406
4615,15,-62.875,97.1875,-1.79248,-0.3754883,0.1098633,0.2675781,0.1010742,-0.08984375
4619,14.6875,-67.6875,120.375,-1.769531,-0.4492188,0.02490234,0.269043,0.09228516,-0.09765625
4623,19.9375,-73.9375,143.75,-1.738281,-0.5463867,-0.005371094,0.2749023,0.08007813,-0.1044922
4627,31,-73.5625,167.75,-1.65332,-0.6396484,0.03662109,0.2792969,0.06884766,-0.1113281
4631,42.8125,-62.5625,187.25,-1.614258,-0.6591797,0.009765625,0.2817383,0.05273438,-0.1181641
4635,50.5,-52.0625,204.1875,-1.665039,-0.6513672,-0.05126953,0.2866211,0.03369141,-0.1235352
4639,56.0625,-54.0625,219.375,-1.757813,-0.6396484,-0.1513672,0.2866211,0.02001953,-0.1289063
4643,55.75,-58.625,227.9375,-1.769531,-0.5776367,-0.2128906,0.2915039,-0.003417969,-0.1333008
4647,51,-59.9375,244.9375,-1.858398,-0.5854492,-0.2744141,0.2949219,-0.02587891,-0.144043
4651,43.625,-69.1875,273.125,-1.893555,-0.581543,-0.3286133,0.2939453,-0.04296875,-0.1455078
4655,32.375,-81,288.4375,-1.78125,-0.5229492,-0.3632813,0.2900391,-0.06933594,-0.1538086
4659,18.0625,-89.6875,297.375,-1.719238,-0.4765625,-0.378418,0.2866211,-0.09814453,-0.1606445
4663,2.375,-103.0625,301.875,-1.629883,-0.4570313,-0.378418,0.2817383,-0.1157227,-0.1645508
4667,-4.375,-120.1875,291.0625,-1.595215,-0.5073242,-0.3666992,0.2700195,-0.1420898,-0.1738281
4671,-10.375,-140.5,284.8125,-1.463379,-0.4726563,-0.3745117,0.2583008,-0.1669922,-0.1835938
4675,-15.9375,-145.1875,280.5,-1.347168,-0.3950195,-0.3666992,0.2460938,-0.1831055,-0.1889648
4679,-30.5,-163.75,272.1875,-1.327637,-0.2900391,-0.4208984,0.2294922,-0.2006836,-0.2011719
4684,-32,-197.8125,241.25,-1.161133,-0.4375,-0.3208008,0.2094727,-0.2182617,-0.2133789
4688,-12.75,-199.5625,211.6875,-0.8046875,-0.46875,-0.1630859,0.1938477,-0.2255859,-0.2231445
4692,-1.1875,-165.125,214.625,-0.7270508,-0.2978516,-0.109375,0.1723633,-0.2392578,-0.2338867
4696,-5.4375,-140.125,247.4375,-0.8549805,-0.2431641,-0.1401367,0.1508789,-0.2495117,-0.2392578
4700,-4.4375,-121.5,275.1875,-0.730957,-0.2353516,-0.109375,0.1357422,-0.2583008,-0.2460938
4704,-7.75,-124.25,277.8125,-0.7504883,-0.09570313,-0.1899414,0.1103516,-0.2680664,-0.25
4708,-20.75,-142.25,263.125,-0.6225586,0.008789063,-0.2089844,0.08544922,-0.2768555,-0.2543945
4712,-36.625,-162.9375,242.8125,-0.5410156,0.02832031,-0.2089844,0.06787109,-0.2783203,-0.2568359
4716,-37.625,-164.75,225.875,-0.3432617,-0.09960938,-0.05517578,0.0390625,-0.2792969,-0.2626953
4720,-28.8125,-151.9375,242.75,-0.2231445,-0.1152344,-0.01318359,0.01269531,-0.2783203,-0.2666016
4724,-20.5625,-121.25,260,0.05126953,-0.09179688,0.1479492,-0.006835938,-0.2753906,-0.2680664
4728,-13.1875,-92.3125,268.5,0.05517578,0.03222656,0.1020508,-0.03320313,-0.2744141,-0.2666016
4732,-13.375,-95.375,253.4375,0.03564453,0.1176758,0.07519531,-0.05664063,-0.2680664,-0.2680664
4736,-14.375,-108,218.1875,0.04736328,0.2299805,0.04052734,-0.07226563,-0.2641602,-0.2651367
4740,-22.0625,-138.5625,188,0.125,0.253418,0.02099609,-0.09472656,-0.2592773,-0.2651367
4744,-29.4375,-146.75,161.4375,0.4619141,0.2807617,0.159668,-0.1162109,-0.2504883,-0.2612305
4748,-22.4375,-128.1875,174.6875,0.6518555,-0.04541016,0.2788086,-0.1293945,-0.2431641,-0.2568359
4752,-3.4375,-97.375,200.125,0.9233398,-0.2084961,0.3056641,-0.1508789,-0.2329102,-0.2514648
4756,19.375,-72,202.1875,1.399902,-0.1811523,0.1943359,-0.1674805,-0.2255859,-0.2460938
4760,27.875,-47.6875,148,1.86084,0.04736328,0.1020508,-0.1757813,-0.2182617,-0.2446289
4764,14.5625,-27.8125,57.8125,1.973145,0.2416992,0.04052734,-0.1875,-0.2119141,-0.2436523
4768,-10.625,-17.5,-29.1875,1.802734,0.1953125,0.07910156,-0.1899414,-0.2119141,-0.2392578
4772,-15.8125,-1.3125,-76.125,1.620605,-0.1113281,0.2211914,-0.1875,-0.2104492,-0.237793
4776,0.5,29.375,-95.4375,1.484863,-0.1308594,0.3291016,-0.1816406,-0.2167969,-0.2407227
4780,14.875,60.375,-116.5625,1.244629,0.05517578,0.3251953,-0.1748047,-0.2231445,-0.2436523
4784,19.75,78.6875,-135.4375,0.9619141,0.2109375,0.2329102,-0.1674805,-0.2294922,-0.2446289
4788,17.1875,80.625,-149.0625,0.7255859,0.253418,0.159668,-0.1542969,-0.2368164,-0.2475586
4792,7.5,68.0625,-168.375,0.625,0.3544922,0.08642578,-0.1391602,-0.2456055,-0.2514648
4796,-3.9375,63.5,-196.1875,0.6518555,0.3427734,0.1635742,-0.1293945,-0.2519531,-0.2514648
4800,-6.6875,74.0625,-222.375,0.5668945,0.2265625,0.2558594,-0.1113281,-0.2592773,-0.2558594
4804,3,91.625,-230.25,0.3535156,0.09423828,0.2709961,-0.09033203,-0.2641602,-0.2583008
4808,15.6875,99.6875,-230.25,0.1328125,0.1020508,0.2133789,-0.07714844,-0.2695313,-0.2583008
4813,15.25,101.75,-234.4375,0.03564453,0.2768555,0.1982422,-0.05224609,-0.2768555,-0.2636719
4817,4.0625,111.75,-236.125,-0.1186523,0.3740234,0.1557617,-0.03076172,-0.2817383,-0.2626953
4821,-14.8125,122.4375,-232.75,-0.2773438,0.4052734,0.1748047,-0.01416016,-0.2832031,-0.2626953
4825,-26.25,128.9375,-226.5625,-0.4750977,0.2416992,0.1787109,0.01074219,-0.2807617,-0.2651367
4829,-12,115.625,-247.3125,-0.5644531,0.04003906,0.3251953,0.03662109,-0.2768555,-0.2651367
4833,15.5625,116.75,-266.75,-0.6416016,0.01660156,0.3364258,0.05322266,-0.2729492,-0.2636719
4837,25.6875,123.5,-263.5,-0.7426758,0.15625,0.2675781,0.07617188,-0.2705078,-0.2612305
4841,19.9375,132,-234.875,-0.9399414,0.2416992,0.1098633,0.1020508,-0.265625,-0.2558594
4845,4.375,126.5625,-196,-1.005859,0.3310547,0.07519531,0.1166992,-0.2592773,-0.2543945
4849,-22.25,120.5625,-165.625,-1.001953,0.3896484,-0.001464844,0.1357422,-0.2543945,-0.2475586
4853,-29.25,76.75,-196.4375,-1.234863,0.1137695,0.02490234,0.1533203,-0.2407227,-0.2446289
4857,-19.4375,14,-238.125,-1.095215,0.1367188,0.03271484,0.1640625,-0.234375,-0.2436523
4861,-25.5625,30.375,-252.9375,-0.6342773,0.06689453,0.2905273,0.1757813,-0.2192383,-0.2436523
4865,-26.4375,80.125,-221.5,-0.7734375,-0.05664063,0.2133789,0.1889648,-0.203125,-0.2421875
4869,-31.9375,98.5625,-183,-0.9672852,0.02832031,0.07519531,0.199707,-0.1943359,-0.2392578
4873,-57.125,95.1875,-158.875,-0.9516602,0.253418,-0.0859375,0.2119141,-0.1806641,-0.2353516
4877,-91.75,68.875,-172.9375,-1.009766,0.03222656,-0.109375,0.222168,-0.1645508,-0.2324219
4881,-85.5,30.8125,-215.1875,-0.831543,-0.4140625,0.009765625,0.2270508,-0.1518555,-0.2324219
4885,-66.3125,45.8125,-243.75,-0.4750977,-0.4921875,0.140625,0.2329102,-0.1293945,-0.2338867
4889,-62.125,99.8125,-238.0625,-0.4868164,-0.503418,0.105957,0.2412109,-0.1083984,-0.2270508
4893,-60.4375,152.5625,-211.125,-0.6650391,-0.581543,-0.03222656,0.2475586,-0.09326172,-0.2216797
4897,-68.625,190.9375,-189.8125,-0.8432617,-0.6044922,-0.1513672,0.2568359,-0.07324219,-0.2094727
4901,-77,199.6875,-210.3125,-1.292969,-0.8222656,-0.2514648,0.2666016,-0.0546875,-0.1958008
4905,-53.3125,125.125,-266.1875,-1.831543,-1.195313,-0.3398438,0.2734375,-0.03710938,-0.1865234
4909,-22.75,55.6875,-314.9375,-1.65332,-1.078613,-0.1323242,0.2758789,-0.008300781,-0.1782227
4913,-19.875,65.9375,-310.4375,-1.455566,-0.9350586,0.04785156,0.269043,0.01855469,-0.1713867
4917,-28.3125,115.1875,-258.6875,-1.761719,-1.020508,0.1826172,0.2675781,0.03613281,-0.1660156
4921,-10.625,141.4375,-187.1875,-2.238281,-1.175781,0.2094727,0.2651367,0.05761719,-0.1547852
4925,17.6875,128.125,-131.0625,-2.498047,-0.8999023,0.1865234,0.2651367,0.07275391,-0.1425781
4929,33.8125,84.4375,-94.5,-2.524902,-0.6513672,0.105957,0.2651367,0.07617188,-0.1357422
4933,34.75,41.375,-63.1875,-2.280762,-0.355957,0.08251953,0.2626953,0.08251953,-0.1333008
4937,17.5,19.625,-26.0625,-1.92041,-0.2006836,0.09033203,0.2617188,0.08642578,-0.1333008
4942,4.3125,10.1875,4.3125,-1.641602,-0.2548828,0.144043,0.2626953,0.08740234,-0.1279297
4946,3.8125,9.6875,25.75,-1.385742,-0.3208008,0.1982422,0.2651367,0.08496094,-0.1303711
4950,4.6875,10.1875,32.125,-1.277344,-0.3286133,0.2133789,0.2651367,0.08496094,-0.1279297
4954,10.6875,3.5625,31.5625,-1.215332,-0.4140625,0.2094727,0.2675781,0.08251953,-0.1289063
4958,22,1.6875,37.125,-1.095215,-0.4804688,0.2329102,0.269043,0.07763672,-0.1289063
4962,34.5,7.75,45.375,-1.021484,-0.4765625,0.1865234,0.2700195,0.07275391,-0.1289063
4966,40.875,12.5,51.375,-0.9750977,-0.4179688,0.09814453,0.2700195,0.07128906,-0.1318359
4970,40,11.125,48.5,-0.9555664,-0.324707,-0.001464844,0.2724609,0.06396484,-0.1303711
4974,29.5,4.6875,40.75,-0.9672852,-0.2705078,-0.07080078,0.2749023,0.05761719,-0.1318359
4978,14.625,-5.3125,34,-0.9672852,-0.2392578,-0.1206055,0.2749023,0.05517578,-0.1303711
4982,-3.875,-17.875,25.8125,-0.9868164,-0.2353516,-0.1474609,0.2758789,0.05273438,-0.1347656
4986,-22.9375,-31.875,21.25,-0.9790039,-0.2666016,-0.1591797,0.2773438,0.05126953,-0.1357422
4990,-39.25,-42.8125,17.4375,-0.9326172,-0.2900391,-0.1552734,0.2758789,0.05126953,-0.1333008
4994,-54.5625,-52.375,11.4375,-0.9248047,-0.2783203,-0.1743164,0.2758789,0.05273438,-0.137207
4998,-74.0625,-69.1875,-2.8125,-0.9516602,-0.3325195,-0.1899414,0.2734375,0.05273438,-0.1425781
5002,-74.875,-73.75,2.75,-0.796875,-0.5541992,-0.09375,0.2724609,0.05517578,-0.1425781
5006,-70.1875,-66.25,0.375,-0.7504883,-0.534668,-0.07861328,0.2700195,0.05761719,-0.1484375
5010,-69.625,-64.875,-1.9375,-0.7695313,-0.5698242,-0.08984375,0.2675781,0.06005859,-0.1508789
5014,-62.4375,-56.125,4.1875,-0.6728516,-0.6162109,-0.05908203,0.2641602,0.06396484,-0.1538086
5018,-56.9375,-40.5,7.5,-0.6376953,-0.5698242,-0.07080078,0.2641602,0.06494141,-0.15625
5022,-50.0625,-31.5,6.875,-0.6572266,-0.6044922,-0.08203125,0.2626953,0.06640625,-0.1538086
5026,-41.9375,-27.5625,0.625,-0.6611328,-0.5776367,-0.09375,0.2617188,0.06640625,-0.15625
5030,-30.6875,-22.25,-4.75,-0.6186523,-0.6279297,-0.05517578,0.2602539,0.06738281,-0.1577148
