Packet number,Gyroscope X (deg/s),Gyroscope Y (deg/s),Gyroscope Z (deg/s),Accelerometer X (g),Accelerometer Y (g),Accelerometer Z (g),Magnetometer X (G),Magnetometer Y (G),Magnetometer Z (G)
2,2.3125,1.8125,-1.3125,0.7680664,0.6420898,-0.1977539,-0.2021484,-0.3041992,-0.06396484
6,2.1875,2.75,-2.0625,0.7568359,0.6459961,-0.2016602,-0.203125,-0.3032227,-0.06396484
10,2,2.375,-1.4375,0.7412109,0.6342773,-0.2207031,-0.2021484,-0.3017578,-0.0625
14,1.875,1.5,-1.1875,0.7333984,0.6303711,-0.2246094,-0.2006836,-0.3032227,-0.06103516
18,1.875,0.25,-0.875,0.7412109,0.6381836,-0.2167969,-0.2006836,-0.3032227,-0.0625
22,1.1875,-0.125,-0.4375,0.7568359,0.6459961,-0.2055664,-0.203125,-0.3041992,-0.06396484
26,0.4375,0.0625,-0.125,0.7641602,0.6459961,-0.2055664,-0.2006836,-0.3041992,-0.06396484
31,-0.1875,-0.375,-0.3125,0.7529297,0.6420898,-0.2055664,-0.2021484,-0.3032227,-0.0625
35,-0.75,-1.4375,-0.25,0.7641602,0.6420898,-0.2207031,-0.203125,-0.3041992,-0.0625
39,-1,-1.3125,0.25,0.7797852,0.6381836,-0.2089844,-0.2006836,-0.3056641,-0.0625
43,-1.1875,-0.3125,0.375,0.7797852,0.6225586,-0.1977539,-0.2021484,-0.3041992,-0.0625
47,-0.875,0.125,0.5,0.7797852,0.6381836,-0.2089844,-0.2021484,-0.3032227,-0.06396484
51,-1.5,0.625,0.875,0.7490234,0.6420898,-0.2207031,-0.2021484,-0.3032227,-0.06396484
55,-1.8125,-0.875,0.5625,0.7412109,0.6459961,-0.2246094,-0.2045898,-0.3032227,-0.0625
59,-1.9375,-1.5625,0.6875,0.7568359,0.6499023,-0.2128906,-0.2006836,-0.3041992,-0.0625
63,-2,-1.1875,0.8125,0.7680664,0.6420898,-0.2128906,-0.2021484,-0.3032227,-0.06396484
67,-1.625,-0.125,0.125,0.7568359,0.6420898,-0.2055664,-0.2006836,-0.3056641,-0.06396484
71,-0.875,-0.125,-0.3125,0.7529297,0.6381836,-0.2089844,-0.2021484,-0.3032227,-0.06396484
75,-0.4375,0,-0.1875,0.7490234,0.6381836,-0.2207031,-0.2021484,-0.3041992,-0.06396484
79,0.0625,-0.625,0.375,0.7451172,0.6381836,-0.2207031,-0.2006836,-0.3032227,-0.06396484
83,1.4375,-0.4375,-0.375,0.7490234,0.6538086,-0.2055664,-0.2021484,-0.3032227,-0.06396484
87,2.125,-0.125,-1.375,0.7451172,0.6538086,-0.2055664,-0.2021484,-0.3041992,-0.06396484
91,3.4375,-1.1875,-1.875,0.7333984,0.6655273,-0.1977539,-0.203125,-0.3041992,-0.06396484
95,4.25,-1.8125,-2.625,0.7529297,0.6884766,-0.1860352,-0.2021484,-0.3041992,-0.06396484
99,7.1875,1.125,-3.5,0.7797852,0.7041016,-0.1743164,-0.2021484,-0.3041992,-0.06396484
103,12.1875,7.875,-6.625,0.7993164,0.7973633,-0.1206055,-0.2006836,-0.3056641,-0.0625
107,11.6875,18.8125,-12.8125,0.7099609,0.8984375,-0.1552734,-0.2006836,-0.3056641,-0.06103516
111,8.875,18.875,-19.625,0.574707,0.9414063,-0.1782227,-0.199707,-0.3081055,-0.06103516
115,0.875,9.5625,-18.5,0.4775391,1.038574,-0.2246094,-0.1982422,-0.3081055,-0.0625
119,-10.8125,-7.125,-17.4375,0.4541016,1.061523,-0.1821289,-0.1972656,-0.3095703,-0.06542969
123,-8.6875,-10.5,-25.875,0.578125,1.100586,-0.1362305,-0.1948242,-0.3095703,-0.0625
127,11.3125,8.125,-49.875,0.6713867,1.213379,-0.05908203,-0.1938477,-0.3120117,-0.0625
131,23.25,35.375,-82.1875,0.5820313,1.458008,-0.04003906,-0.1899414,-0.3129883,-0.06396484
135,26.9375,42,-99.1875,0.3730469,1.566895,-0.08984375,-0.1816406,-0.3208008,-0.0625
139,32.6875,37.125,-111.6875,0.3339844,1.726074,-0.07080078,-0.1748047,-0.328125,-0.06396484
143,35.8125,37.6875,-121.0625,0.2797852,1.916504,-0.05517578,-0.1674805,-0.328125,-0.0625
147,43.8125,43.6875,-137.1875,0.2724609,2.099121,0.005859375,-0.1557617,-0.3369141,-0.06103516
151,40.75,51.875,-154.4375,0.1557617,2.530273,-0.05908203,-0.1450195,-0.3442383,-0.06103516
155,2.875,31.875,-168.375,-0.1186523,2.879883,-0.1860352,-0.1328125,-0.3505859,-0.05957031
160,-49.25,-16.1875,-173.4375,-0.08789063,2.950195,-0.2397461,-0.1186523,-0.3554688,-0.0625
164,-86.4375,-42.4375,-186.9375,0.3071289,2.845215,-0.2397461,-0.1030273,-0.3642578,-0.06640625
168,-103.4375,-44.5625,-215.3125,0.6948242,2.581055,-0.2553711,-0.09228516,-0.3666992,-0.07324219
172,-102.875,-31.375,-242.25,0.9697266,2.273926,-0.3129883,-0.07324219,-0.371582,-0.08154297
176,-100.375,-25.1875,-243.9375,1.012207,2.075684,-0.3398438,-0.05322266,-0.3754883,-0.09228516
180,-100.5625,-29.375,-235.375,1.05127,1.994141,-0.3823242,-0.03662109,-0.3769531,-0.09765625
184,-100.375,-29.25,-239.75,1.179199,1.873535,-0.3476563,-0.01611328,-0.3793945,-0.1074219
188,-95.4375,-22.5625,-247.1875,1.22168,1.749512,-0.3129883,0.005859375,-0.3779297,-0.1196289
192,-95,-19.4375,-252.5625,1.198242,1.597656,-0.2744141,0.02001953,-0.3754883,-0.1225586
196,-96.5,-19.4375,-250.4375,1.225586,1.473633,-0.2246094,0.04736328,-0.3730469,-0.1318359
200,-94.3125,-8.125,-241.625,1.283691,1.298828,-0.1899414,0.06787109,-0.3657227,-0.1416016
204,-85.875,5.0625,-231.25,1.147949,1.158691,-0.1977539,0.08300781,-0.3618164,-0.1455078
208,-74.6875,12.375,-223.625,1.031738,1.06543,-0.1474609,0.1079102,-0.3505859,-0.1538086
212,-65.3125,21.375,-210.625,0.8769531,1.088867,-0.1513672,0.1259766,-0.3393555,-0.1591797
216,-61.75,22.125,-207.1875,0.6289063,1.104492,-0.1474609,0.1401367,-0.3330078,-0.1606445
220,-63.9375,16.375,-206.9375,0.5668945,1.077148,-0.1630859,0.1591797,-0.3217773,-0.1660156
224,-69.5625,13.3125,-201.375,0.5087891,0.9956055,-0.1591797,0.1772461,-0.3081055,-0.1699219
228,-70.125,10.1875,-192.125,0.4736328,0.840332,-0.1435547,0.1865234,-0.296875,-0.1738281
232,-67.4375,10.1875,-181.75,0.3769531,0.793457,-0.1513672,0.199707,-0.2832031,-0.1782227
236,-70.3125,0.875,-170.125,0.2758789,0.7158203,-0.1166992,0.2119141,-0.2680664,-0.1796875
240,-77.1875,-10.125,-156.9375,0.2915039,0.6733398,-0.07861328,0.2211914,-0.2607422,-0.1835938
244,-87.25,-16.875,-151.9375,0.4038086,0.5097656,-0.02050781,0.2294922,-0.2431641,-0.1918945
248,-80.0625,-4.375,-145.4375,0.5200195,0.203125,0.08251953,0.2353516,-0.2280273,-0.1943359
252,-64.8125,16.75,-129.875,0.4272461,0.06298828,0.08251953,0.2402344,-0.2192383,-0.1987305
256,-47.75,30.4375,-117.625,0.2255859,0.03222656,0.07128906,0.25,-0.2055664,-0.1987305
260,-36.75,34.6875,-110.125,0.01269531,0.09423828,0.05175781,0.2543945,-0.1933594,-0.1958008
264,-34.4375,31.4375,-106.875,-0.09912109,0.140625,0.05957031,0.2583008,-0.1855469,-0.1958008
268,-41,24.9375,-96.1875,-0.2119141,0.09423828,0.01367188,0.2641602,-0.171875,-0.1958008
272,-43.9375,12.125,-86.5,-0.2270508,-0.03759766,0.001953125,0.2675781,-0.1645508,-0.1928711
276,-41.875,3.5625,-71.875,-0.1225586,-0.1381836,0.001953125,0.2709961,-0.1567383,-0.1958008
280,-35.875,7.8125,-59.75,-0.02587891,-0.2939453,0.01367188,0.2749023,-0.1494141,-0.1958008
284,-26.1875,16.1875,-51.9375,-0.04101563,-0.4067383,-0.01318359,0.2749023,-0.1445313,-0.1958008
289,-17.8125,20.6875,-42.4375,-0.07617188,-0.3364258,-0.07861328,0.2773438,-0.1381836,-0.1943359
293,-13.0625,16.625,-30.25,-0.1420898,-0.484375,-0.0859375,0.2773438,-0.1342773,-0.1904297
297,-18.9375,7.6875,-12.625,-0.1650391,-0.503418,-0.109375,0.2792969,-0.1318359,-0.1928711
301,-22.1875,-3.9375,9.9375,-0.1420898,-0.5927734,-0.1206055,0.2807617,-0.1318359,-0.1918945
305,-9.9375,-8.375,26.6875,-0.02978516,-0.6513672,-0.112793,0.2807617,-0.1318359,-0.1943359
309,6.75,-3.8125,42.5625,0.03955078,-0.5620117,-0.1054688,0.2792969,-0.1333008,-0.1972656
313,15.375,0,54.25,0.02832031,-0.4414063,-0.05517578,0.2773438,-0.1367188,-0.1958008
317,21.3125,1.625,66.5625,0.04345703,-0.3325195,-0.02050781,0.2758789,-0.1430664,-0.1918945
321,32.0625,12.1875,75.6875,0.04736328,-0.2900391,-0.04003906,0.2749023,-0.1508789,-0.1958008
325,44,16.1875,83.1875,-0.02587891,-0.1381836,-0.02441406,0.2724609,-0.1567383,-0.1918945
329,45.5,13.375,99.375,-0.04882813,0.02050781,-0.05908203,0.2724609,-0.1669922,-0.1875
333,41.625,4.625,122.625,-0.05664063,0.07861328,-0.04736328,0.269043,-0.1782227,-0.1875
337,41.625,-4.875,144.75,0.008789063,0.15625,-0.005371094,0.2641602,-0.1879883,-0.1835938
341,54.8125,4.375,157.125,0.1713867,0.2299805,0.04052734,0.2568359,-0.203125,-0.1850586
345,75.5,26,163.375,0.1635742,0.5761719,0.07910156,0.2519531,-0.2182617,-0.1806641
349,85.8125,42.6875,156.9375,-0.05273438,0.8520508,0.04443359,0.2475586,-0.2304688,-0.1738281
353,77.8125,38.625,144.6875,-0.2504883,1.112305,0.04443359,0.2402344,-0.2470703,-0.1660156
357,57.9375,25.0625,143.375,-0.2734375,1.236328,0.08251953,0.2329102,-0.2592773,-0.1630859
361,28.4375,10.8125,149.1875,-0.2890625,1.345215,0.01708984,0.2260742,-0.2680664,-0.1577148
365,-7.5,-14.4375,159.125,-0.3432617,1.158691,-0.01318359,0.2177734,-0.2792969,-0.1577148
369,-3.6875,-25.9375,170.8125,-0.07617188,0.8129883,-0.02832031,0.2045898,-0.2905273,-0.1577148
373,33.375,-10.5,159.25,0.06298828,0.8828125,-0.04736328,0.1962891,-0.296875,-0.1606445
377,58.75,5.0625,141.3125,0.09765625,1.205566,0.02490234,0.1831055,-0.3095703,-0.1577148
381,39.75,4.4375,139.5625,-0.02587891,1.52002,-0.005371094,0.1748047,-0.3178711,-0.1538086
385,-3.4375,-27.6875,157.1875,-0.1767578,1.306641,0.09033203,0.1616211,-0.3232422,-0.1538086
389,5.8125,-34.3125,177.4375,0.1713867,1.150879,0.07128906,0.1499023,-0.3305664,-0.1538086
393,28.3125,-16.4375,164.1875,0.3305664,1.251953,0.01708984,0.1333008,-0.3369141,-0.15625
397,36.3125,-3.6875,152.625,0.2216797,1.481445,-0.04736328,0.1235352,-0.3432617,-0.1538086
401,6.4375,-22.5625,155.0625,-0.002441406,1.566895,-0.1323242,0.109375,-0.3491211,-0.1508789
405,-19.8125,-56.3125,164.1875,0.07080078,1.081055,-0.05517578,0.09277344,-0.3520508,-0.1538086
409,23.1875,-50.5625,175.625,0.527832,0.8208008,0.02099609,0.08300781,-0.3530273,-0.1523438
413,80.625,-5.0625,155.875,0.7255859,1.135742,0.04052734,0.06542969,-0.359375,-0.1523438
418,97.125,27.9375,125.625,0.5239258,1.632813,-0.06298828,0.05224609,-0.3657227,-0.1425781
422,56.125,14.5625,123.875,0.1484375,1.788086,-0.1474609,0.04394531,-0.3691406,-0.1386719
426,2.3125,-36,154,0.004882813,1.508301,-0.1323242,0.03173828,-0.3706055,-0.1357422
430,5.9375,-60.6875,183.75,0.4350586,1.12793,-0.009277344,0.01513672,-0.3706055,-0.1347656
434,44.8125,-33.4375,178.0625,0.59375,1.349121,0.01367188,0.002441406,-0.3691406,-0.1347656
438,69.375,2.0625,140.8125,0.4155273,1.675781,0.009765625,-0.01416016,-0.3706055,-0.1279297
442,61.9375,5.1875,104.9375,0.1713867,1.865723,-0.04003906,-0.02587891,-0.3730469,-0.1225586
446,28.8125,-21,100.375,0.1171875,1.632813,-0.02050781,-0.02929688,-0.3706055,-0.1181641
450,20.5625,-44.9375,118.4375,0.4428711,1.356934,0.04052734,-0.04248047,-0.371582,-0.1166992
454,35.5,-35.3125,128.8125,0.7177734,1.356934,0.105957,-0.05419922,-0.3691406,-0.112793
458,47.375,-6.9375,114.125,0.7373047,1.485352,0.105957,-0.06298828,-0.3681641,-0.1088867
462,45.5,12,93.6875,0.5551758,1.543457,0.05957031,-0.07226563,-0.3657227,-0.1044922
466,36.1875,8.3125,84.5,0.4311523,1.39209,-0.03222656,-0.07958984,-0.3632813,-0.1020508
470,34.3125,0.75,84,0.5356445,1.217285,-0.03222656,-0.08398438,-0.3642578,-0.09765625
474,37.5625,5.5,86.6875,0.6479492,1.213379,-0.001464844,-0.09130859,-0.3618164,-0.09765625
478,33.0625,12.625,90.125,0.4775391,1.337402,-0.05517578,-0.09960938,-0.359375,-0.09375
482,18,-4.25,86.1875,0.3339844,1.302734,-0.07470703,-0.1044922,-0.3579102,-0.09082031
486,12.6875,-10.5,89.4375,0.4428711,1.186035,0.005859375,-0.112793,-0.3544922,-0.08837891
490,28.25,3.8125,86.8125,0.3959961,1.240234,-0.01318359,-0.1201172,-0.3520508,-0.08837891
494,52.75,20.25,68.375,0.2646484,1.458008,0.01708984,-0.1245117,-0.3505859,-0.08544922
498,57.375,36.8125,42.625,0.05517578,1.858398,0.04052734,-0.1293945,-0.3491211,-0.08154297
502,45.75,34.1875,24.625,-0.2734375,2.106934,0.05175781,-0.1318359,-0.3481445,-0.07861328
506,36.125,21.5625,2.875,-0.3203125,2.293457,0.009765625,-0.1328125,-0.3466797,-0.07763672
510,32.6875,26.875,-32.4375,-0.2700195,2.402344,0.02099609,-0.1318359,-0.3481445,-0.07763672
514,19.5625,28.625,-52.25,-0.4091797,2.437012,-0.07080078,-0.1269531,-0.3530273,-0.07324219
518,0.1875,9.0625,-58.1875,-0.5913086,2.510742,-0.1552734,-0.1220703,-0.3530273,-0.07177734
522,-29.375,-30.625,-65.625,-0.6342773,2.577148,-0.2089844,-0.1186523,-0.3554688,-0.07324219
526,-57.3125,-65.9375,-78.875,-0.3203125,2.483887,-0.112793,-0.1113281,-0.3569336,-0.07763672
530,-60.125,-67.25,-104.0625,0.2333984,2.130371,0.001953125,-0.109375,-0.3569336,-0.07763672
534,-28.125,-26.1875,-138.0625,0.659668,1.962891,0.1635742,-0.1010742,-0.359375,-0.07861328
538,-4.6875,22.4375,-166.125,0.6635742,2.126465,0.1210938,-0.08642578,-0.3657227,-0.08447266
542,-12.0625,36.375,-183.6875,0.3457031,2.324219,-0.01660156,-0.07714844,-0.3691406,-0.08447266
547,-37.125,14.25,-194.375,0.2333984,2.363281,-0.1782227,-0.05908203,-0.3730469,-0.08691406
551,-64.4375,-14.25,-200.375,0.3457031,2.297363,-0.2207031,-0.04150391,-0.3769531,-0.09228516
555,-87.375,-30,-201.125,0.625,2.141602,-0.2285156,-0.02832031,-0.3779297,-0.09765625
559,-100.25,-32.375,-200.125,0.7758789,1.893066,-0.2631836,-0.01171875,-0.3803711,-0.1044922
563,-96.8125,-27.875,-202.5,0.8803711,1.694824,-0.2592773,0.008300781,-0.3754883,-0.1157227
567,-89.375,-21.5625,-209.5625,0.8959961,1.578613,-0.2744141,0.02148438,-0.3754883,-0.1210938
571,-80.5,-15.875,-209.3125,0.9155273,1.454102,-0.2436523,0.0390625,-0.3730469,-0.1289063
575,-70.8125,-11.625,-204.6875,0.8222656,1.446289,-0.2246094,0.05712891,-0.3691406,-0.1386719
579,-71.625,-13.0625,-206.1875,0.7758789,1.504395,-0.1899414,0.06982422,-0.3632813,-0.1416016
583,-78.125,-10.75,-206.3125,0.7797852,1.446289,-0.1323242,0.09033203,-0.3579102,-0.1484375
587,-80.9375,-5.375,-200.3125,0.7294922,1.302734,-0.1245117,0.1079102,-0.3481445,-0.1538086
591,-76.1875,-1,-193.6875,0.59375,1.217285,-0.1323242,0.1201172,-0.3417969,-0.15625
595,-69.625,-1.625,-192.5,0.5239258,1.186035,-0.1513672,0.1367188,-0.3305664,-0.1645508
599,-68.5,-3.125,-197.1875,0.5087891,1.120117,-0.1362305,0.1523438,-0.3208008,-0.1699219
603,-67.25,-1.75,-186.9375,0.4814453,0.9916992,-0.1054688,0.1640625,-0.3129883,-0.1738281
607,-70.4375,-12.625,-172.6875,0.3574219,0.987793,-0.1054688,0.1796875,-0.2983398,-0.1796875
611,-80.4375,-20.375,-155.375,0.3886719,0.875,-0.04003906,0.1879883,-0.2880859,-0.1850586
615,-77.3125,-16.25,-153.4375,0.4775391,0.6577148,0.03662109,0.1972656,-0.2783203,-0.1889648
619,-58.625,2.8125,-157.375,0.5200195,0.5878906,0.05175781,0.2055664,-0.2641602,-0.1943359
623,-52.4375,12.875,-153.4375,0.3457031,0.5991211,0.05175781,0.2163086,-0.2504883,-0.1972656
627,-65.1875,4.4375,-140.0625,0.1367188,0.5371094,0.02099609,0.2236328,-0.2416992,-0.1972656
631,-78,-9.3125,-121.875,0.1674805,0.3935547,0.04052734,0.230957,-0.2280273,-0.2026367
635,-75,-7.6875,-102.9375,0.1831055,0.2265625,0.05566406,0.2353516,-0.2143555,-0.206543
639,-64.8125,1.0625,-97.75,0.09375,0.1757813,0.05957031,0.2402344,-0.2080078,-0.2080078
643,-52.6875,8.1875,-100.4375,0.02441406,0.1757813,0.06738281,0.2436523,-0.1958008,-0.2119141
647,-43.125,15.8125,-96.3125,-0.06835938,0.1445313,0.07519531,0.25,-0.1855469,-0.2133789
651,-43.1875,15,-82.125,-0.2543945,0.1640625,0.02490234,0.2519531,-0.1782227,-0.2133789
655,-44.9375,1.875,-68.6875,-0.3901367,0.1333008,0.02880859,0.253418,-0.1704102,-0.2119141
659,-42,-9.375,-56.4375,-0.3354492,0.1254883,0.05957031,0.2558594,-0.1606445,-0.2148438
663,-39.8125,-8.75,-51.4375,-0.2231445,0.1333008,0.1713867,0.2568359,-0.1567383,-0.2177734
667,-34.5,4.0625,-54.125,-0.09912109,0.1176758,0.1982422,0.2583008,-0.1494141,-0.2177734
671,-30.4375,21.875,-53.125,-0.246582,0.01660156,0.1367188,0.2602539,-0.1445313,-0.2163086
676,-33.375,20.9375,-47.125,-0.4130859,-0.02587891,-0.005371094,0.2641602,-0.1381836,-0.2177734
680,-37.9375,9.875,-33.375,-0.4868164,-0.1308594,-0.07080078,0.2651367,-0.1318359,-0.2163086
684,-38.5,-5.8125,-19.5,-0.5449219,-0.2705078,-0.1821289,0.2651367,-0.1279297,-0.2163086
688,-20.625,-24.625,-4.875,-0.3974609,-0.3989258,-0.06689453,0.2651367,-0.1269531,-0.2202148
692,-2.625,-17.125,3.5625,-0.1342773,-0.3173828,0.08642578,0.2626953,-0.1245117,-0.2202148
696,15.4375,7.1875,0.1875,-0.1572266,-0.3173828,0.144043,0.2641602,-0.1245117,-0.2216797
700,28.1875,14.25,6.5,-0.3125,-0.2314453,0.1674805,0.2651367,-0.1254883,-0.2202148
704,32.1875,11.0625,11.0625,-0.2851563,-0.1191406,0.1635742,0.2641602,-0.1269531,-0.21875
708,27.9375,7.5625,24.875,-0.2700195,-0.03759766,0.2021484,0.2651367,-0.1308594,-0.2148438
712,15.9375,0.125,41.9375,-0.2929688,0.01269531,0.2133789,0.2617188,-0.1357422,-0.2148438
716,8.6875,-4.0625,58.625,-0.378418,-0.01025391,0.159668,0.2626953,-0.1396484,-0.2177734
720,14.25,-10.75,61.375,-0.3510742,-0.06054688,0.1210938,0.2626953,-0.1455078,-0.2163086
724,30.5,-5.875,63.9375,-0.2041016,-0.006347656,0.1557617,0.2592773,-0.1508789,-0.2163086
728,41.75,7.5,67.9375,-0.1303711,0.05126953,0.2060547,0.2568359,-0.1582031,-0.2148438
732,46.625,15.875,80.125,-0.2270508,0.171875,0.159668,0.2558594,-0.1669922,-0.2119141
736,38.0625,10.1875,92.375,-0.2851563,0.2573242,0.1210938,0.2543945,-0.1733398,-0.2109375
740,37.8125,7.25,113.375,-0.2851563,0.2573242,0.05175781,0.2509766,-0.1821289,-0.2109375
744,47.0625,0.6875,115.3125,-0.3203125,0.4052734,0.03271484,0.2460938,-0.1943359,-0.206543
748,48.875,-4.25,111.4375,-0.2504883,0.5605469,0.08251953,0.2426758,-0.203125,-0.2055664
752,35.625,-7.3125,109.0625,-0.1806641,0.5488281,0.1289063,0.2402344,-0.2143555,-0.2055664
756,37.0625,-9.1875,119.625,-0.1420898,0.5019531,0.05175781,0.234375,-0.2255859,-0.2041016
760,52.25,-5.1875,130.125,-0.08789063,0.4594727,0.05175781,0.2270508,-0.2304688,-0.2011719
764,64.0625,0,126.1875,-0.1108398,0.6884766,0.06738281,0.21875,-0.2441406,-0.199707
768,60.375,-5.6875,128,-0.1030273,0.8129883,0.07128906,0.2128906,-0.2558594,-0.1958008
772,50.9375,-9,134.4375,-0.002441406,0.8208008,0.1098633,0.2055664,-0.2631836,-0.1918945
776,71.125,5.6875,131.0625,-0.01806641,0.8168945,0.08251953,0.1948242,-0.2753906,-0.1904297
780,83.875,11.375,119.625,-0.03710938,1.057617,0.08251953,0.1879883,-0.2856445,-0.1850586
784,64.375,4.625,118.8125,-0.1108398,1.255859,0.08251953,0.1831055,-0.2944336,-0.1821289
788,35.4375,-11.8125,133.4375,-0.08007813,1.135742,0.06347656,0.1738281,-0.3017578,-0.175293
792,37.3125,-19.9375,138.9375,0.03173828,1.081055,0.07910156,0.1630859,-0.3120117,-0.1738281
796,46.9375,-15.3125,131.8125,0.2294922,1.088867,0.08642578,0.1547852,-0.3168945,-0.1728516
800,53.0625,0,131.1875,0.2724609,1.116211,0.1328125,0.1425781,-0.3266602,-0.1699219
805,60.5625,17.6875,132.4375,0.09375,1.189941,-0.02441406,0.1318359,-0.3330078,-0.1660156
809,64.4375,10.1875,124.875,-0.02197266,1.287109,-0.04003906,0.125,-0.3393555,-0.1616211
813,58.1875,4,130.375,0.05908203,1.337402,0.01708984,0.1142578,-0.3432617,-0.15625
817,60.9375,6.1875,135.8125,0.03564453,1.407715,0.01367188,0.1020508,-0.3520508,-0.1538086
821,64.0625,7.3125,126.1875,0.03173828,1.547363,0.03662109,0.09375,-0.3544922,-0.1484375
825,55.3125,9.375,115.8125,0.04345703,1.59375,0.04052734,0.08300781,-0.3618164,-0.1455078
829,43.125,7.625,111.4375,0.02050781,1.512207,0.04785156,0.07373047,-0.3657227,-0.137207
833,44.9375,9.125,115.125,0.06689453,1.422852,-0.05908203,0.06542969,-0.3642578,-0.1347656
837,48,8.3125,109.3125,-0.03320313,1.481445,-0.01318359,0.05566406,-0.3681641,-0.1303711
841,40.25,-1.875,110.25,-0.04492188,1.531738,-0.0859375,0.04638672,-0.3706055,-0.1279297
845,27.125,-14.75,107.5,0.07861328,1.46582,-0.009277344,0.03808594,-0.371582,-0.1264648
849,27.8125,-15.5625,104.1875,0.175293,1.341309,-0.04003906,0.02490234,-0.3730469,-0.1210938
853,34.75,-11.5,95.6875,0.3417969,1.291016,-0.01318359,0.01757813,-0.3754883,-0.1210938
857,44.75,3.6875,87.4375,0.4775391,1.205566,-0.02832031,0.01171875,-0.3754883,-0.1181641
861,56.875,15.375,83.3125,0.4077148,1.213379,-0.08203125,0.0009765625,-0.3769531,-0.112793
865,52.5,10,79.9375,0.3959961,1.279297,-0.02050781,-0.005859375,-0.3754883,-0.1088867
869,39,10,90.9375,0.4506836,1.197754,-0.04736328,-0.009277344,-0.3779297,-0.1044922
873,42.6875,10.375,95.875,0.3925781,1.205566,-0.1054688,-0.01855469,-0.3754883,-0.1005859
877,42.4375,10.9375,88,0.3652344,1.287109,-0.1474609,-0.02685547,-0.3793945,-0.09765625
881,32.125,2.4375,83.125,0.2915039,1.325684,-0.1708984,-0.03076172,-0.3779297,-0.09667969
885,14.625,-15.3125,84.1875,0.3535156,1.20166,-0.09375,-0.0390625,-0.3779297,-0.09228516
889,9.75,-21.0625,95.3125,0.5512695,1.026855,-0.05126953,-0.04833984,-0.3754883,-0.09082031
893,16.0625,-10.5,99.125,0.5356445,1.154785,-0.06298828,-0.05566406,-0.3745117,-0.09082031
897,16.0625,-4.3125,91.75,0.4116211,1.244141,-0.0859375,-0.06298828,-0.3730469,-0.08837891
901,8.3125,-9.25,80.625,0.3378906,1.302734,-0.1401367,-0.07128906,-0.371582,-0.08837891
905,2.3125,-15.5,71.25,0.4155273,1.236328,-0.1166992,-0.07568359,-0.3691406,-0.08544922
909,-0.625,-13.375,69,0.4272461,1.150879,-0.1860352,-0.08203125,-0.3657227,-0.08544922
913,4.3125,-17.5625,69,0.4389648,1.049805,-0.1782227,-0.09033203,-0.3642578,-0.08447266
917,8.25,-20.75,72.125,0.5512695,1.022949,-0.1474609,-0.09375,-0.3632813,-0.08154297
921,11.6875,-17.6875,79,0.6362305,1.015137,-0.0859375,-0.09960938,-0.3618164,-0.08007813
925,12.375,-10.0625,82.3125,0.644043,1.112305,-0.05126953,-0.109375,-0.3569336,-0.07763672
929,14.875,2.25,76.3125,0.527832,1.081055,-0.07861328,-0.1103516,-0.3569336,-0.07861328
934,38.75,17.875,59.4375,0.4506836,1.120117,-0.06298828,-0.1176758,-0.3530273,-0.07763672
938,57.25,39.25,37.4375,0.2954102,1.384277,-0.03613281,-0.1201172,-0.3544922,-0.07177734
942,57.25,46.5625,17.0625,0.02441406,1.644531,-0.02441406,-0.1245117,-0.3554688,-0.07177734
946,48.6875,35.375,10.4375,-0.2041016,1.873535,-0.05908203,-0.1235352,-0.3544922,-0.06787109
950,25.25,10.75,8.125,-0.3007813,2.145508,-0.01318359,-0.1259766,-0.3530273,-0.06396484
954,-14,-14.5,4.9375,-0.3510742,2.273926,-0.03222656,-0.1259766,-0.3544922,-0.06396484
958,-43.875,-40.0625,-5.1875,-0.2041016,2.176758,0.02880859,-0.1269531,-0.3544922,-0.06640625
962,-53.6875,-41.875,-30.75,0.08642578,2.029297,0.1171875,-0.1245117,-0.3520508,-0.06787109
966,-50.875,-21.5,-54.375,0.2451172,1.900879,0.1518555,-0.1245117,-0.3530273,-0.07080078
970,-46.4375,-7.875,-71.25,0.190918,1.850586,0.1171875,-0.1176758,-0.3554688,-0.07470703
974,-49.875,-8.0625,-79.6875,0.125,1.858398,0.05566406,-0.1137695,-0.3569336,-0.07861328
978,-54.5625,-8.75,-89.9375,0.2333984,1.838867,0.07910156,-0.1079102,-0.3579102,-0.08300781
982,-51.6875,-5.625,-106.25,0.2915039,1.788086,0.07128906,-0.09863281,-0.359375,-0.08837891
986,-44.75,0.5625,-125.5625,0.3652344,1.924316,0.1132813,-0.09033203,-0.3618164,-0.09082031
990,-56.4375,-1.0625,-146.3125,0.3959961,2.001953,0.1171875,-0.08203125,-0.3666992,-0.09521484
994,-71,-5,-152.625,0.559082,1.88916,0.1367188,-0.06884766,-0.3681641,-0.1005859
998,-75,3.0625,-154.5625,0.7451172,1.737793,0.1635742,-0.05566406,-0.3681641,-0.1074219
1002,-67.8125,25.3125,-156.75,0.8417969,1.683105,0.08251953,-0.04492188,-0.3706055,-0.112793
1006,-62.5625,41.6875,-167.1875,0.6479492,1.733887,-0.04736328,-0.02832031,-0.3706055,-0.1196289
1010,-70.1875,36,-174.1875,0.4775391,1.765137,-0.1630859,-0.01416016,-0.371582,-0.1264648
1014,-86.9375,20.5,-171.75,0.4467773,1.671875,-0.2436523,0,-0.3706055,-0.1318359
1018,-94.75,8,-168.0625,0.4775391,1.539551,-0.2744141,0.01513672,-0.3691406,-0.1401367
1022,-92.0625,6.25,-169.25,0.559082,1.407715,-0.2744141,0.03076172,-0.3657227,-0.1494141
1026,-81.4375,11.1875,-171.5625,0.6054688,1.291016,-0.2436523,0.04150391,-0.3603516,-0.1538086
1030,-65.375,23.4375,-176.75,0.625,1.205566,-0.1743164,0.05957031,-0.3569336,-0.1591797
1034,-48.1875,36,-183.5,0.5708008,1.291016,-0.1474609,0.07617188,-0.3520508,-0.1630859
1038,-51.9375,43.875,-189.625,0.4506836,1.477539,-0.07080078,0.08886719,-0.3481445,-0.1674805
1042,-75.3125,33.25,-185.625,0.1518555,1.539551,-0.2167969,0.1079102,-0.3408203,-0.168457
1046,-103.375,-5.5,-173.5,0.1015625,1.275391,-0.2089844,0.1235352,-0.3291016,-0.1728516
1050,-104.0625,-17.5,-158.375,0.3925781,0.9682617,-0.2089844,0.1318359,-0.3256836,-0.1796875
1054,-77.875,-1.875,-154.25,0.543457,0.6772461,-0.112793,0.144043,-0.3105469,-0.1875
1058,-45.6875,18.3125,-151.5625,0.3769531,0.7856445,-0.1054688,0.1567383,-0.3017578,-0.1918945
1063,-37.375,18.6875,-153.9375,0.2104492,0.8129883,-0.02050781,0.1665039,-0.296875,-0.1943359
1067,-32.25,12.9375,-152.3125,0.1445313,0.8012695,0.03662109,0.1772461,-0.2866211,-0.1943359
1071,-25.875,9,-145.3125,0.1948242,0.840332,0.1171875,0.1904297,-0.2768555,-0.1958008
1075,-27.5,14,-137.375,0.1484375,0.921875,0.1635742,0.1962891,-0.2695313,-0.199707
1079,-39.25,7.875,-131.3125,-0.04101563,0.9140625,0.1479492,0.2070313,-0.2607422,-0.1958008
1083,-46,-2.9375,-127.5625,-0.01025391,0.7275391,0.1748047,0.2138672,-0.2480469,-0.2026367
1087,-38,1.375,-128.4375,0.1948242,0.6538086,0.2558594,0.21875,-0.2416992,-0.2041016
1091,-37,15.0625,-123.4375,0.1367188,0.6577148,0.2636719,0.2260742,-0.2304688,-0.2055664
1095,-51.9375,7.5,-112.0625,-0.02587891,0.6962891,0.2094727,0.234375,-0.2192383,-0.2055664
1099,-78.5,-9.625,-90.875,-0.08007813,0.5449219,0.1635742,0.2368164,-0.2094727,-0.2080078
1103,-94.25,-19.125,-74.5625,-0.05273438,0.3857422,0.1171875,0.2392578,-0.1992188,-0.2109375
1107,-88.75,-13.875,-74.3125,0.03173828,0.1020508,0.1289063,0.2426758,-0.1894531,-0.2163086
1111,-60.5625,6.25,-83.125,0.02832031,-0.1074219,0.1098633,0.2460938,-0.1821289,-0.21875
1115,-31.5,23.4375,-86.9375,-0.01025391,-0.1733398,0.105957,0.2475586,-0.171875,-0.2177734
1119,-13.0625,32.1875,-72.125,-0.1342773,-0.1499023,0.09423828,0.2519531,-0.1630859,-0.2163086
1123,-9.0625,27.0625,-58.125,-0.2661133,-0.04541016,0.05566406,0.2543945,-0.1606445,-0.2148438
1127,-19.5,13.125,-41.75,-0.3046875,0.004882813,0.05566406,0.2583008,-0.1533203,-0.2148438
1131,-32.625,1.375,-29.1875,-0.2700195,-0.07617188,0.02490234,0.2583008,-0.1469727,-0.2148438
1135,-33.125,-4.4375,-26,-0.1962891,-0.2783203,0.01367188,0.2602539,-0.1469727,-0.2163086
1139,-26.75,-4.6875,-20.625,-0.1030273,-0.4804688,-0.07080078,0.2592773,-0.1420898,-0.2177734
1143,-11.5,-5.25,-5.3125,-0.02587891,-0.9697266,-0.05908203,0.2602539,-0.140625,-0.2202148
1147,7.5625,-1.9375,14.375,0.2026367,-0.8300781,-0.06298828,0.2592773,-0.1381836,-0.21875
1151,29.6875,10.4375,44.625,0.2758789,-0.7792969,-0.07861328,0.2617188,-0.140625,-0.2202148
1155,48.625,23.6875,61.3125,0.04736328,-0.6279297,-0.1899414,0.2602539,-0.1479492,-0.21875
1159,66.875,22.5625,67.375,-0.07617188,-0.3676758,-0.2055664,0.2602539,-0.1542969,-0.2133789
1163,60.1875,13.6875,76.125,-0.1108398,-0.03369141,-0.1630859,0.2583008,-0.1630859,-0.2109375
1167,42.125,-11.875,99.9375,-0.09130859,0.04394531,-0.09375,0.2558594,-0.1743164,-0.2094727
1171,47.125,-15.5625,124.75,0.09375,-0.01025391,0.04443359,0.253418,-0.1821289,-0.2080078
1175,65.875,1.5625,119,0.1289063,0.1796875,0.105957,0.2460938,-0.1958008,-0.206543
1179,80.5625,24.5,114.25,0.109375,0.2885742,0.07519531,0.2402344,-0.2080078,-0.2026367
1183,72.5625,27.8125,110.125,-0.1030273,0.6420898,-0.01660156,0.2402344,-0.2182617,-0.1972656
1187,59.9375,9.875,126.5625,-0.2773438,0.7739258,-0.05517578,0.234375,-0.2304688,-0.1943359
1192,52,-9.625,142.8125,-0.1030273,0.6342773,0.06347656,0.2270508,-0.2416992,-0.1904297
1196,66.125,-0.8125,145.9375,0.1791992,0.6811523,0.140625,0.2211914,-0.2519531,-0.1875
1200,84.5,29.75,150.6875,0.2373047,0.7587891,0.08642578,0.2119141,-0.2631836,-0.1835938
1204,97.875,48.25,141.3125,-0.1264648,1.057617,-0.03222656,0.2055664,-0.2783203,-0.1767578
1208,81.25,27.625,139.0625,-0.3203125,1.275391,-0.06298828,0.1987305,-0.2880859,-0.1713867
1212,61.9375,4.1875,150.9375,-0.1689453,1.193848,0.009765625,0.1889648,-0.2983398,-0.1660156
1216,58.125,0.125,154.5,-0.04492188,1.287109,0.05957031,0.1782227,-0.3095703,-0.1591797
1220,39.0625,-7.8125,157.3125,-0.07617188,1.384277,0.001953125,0.1689453,-0.3154297,-0.1591797
1224,17.75,-26.125,158.75,0.0009765625,1.146973,0.07128906,0.1567383,-0.3266602,-0.15625
1228,39.6875,-15.75,158.8125,0.2685547,0.90625,0.01367188,0.1416016,-0.3344727,-0.1547852
1232,79.4375,12.9375,136.3125,0.3227539,1.112305,0.009765625,0.1333008,-0.3369141,-0.1538086
1236,90.9375,33.125,124.5,0.1674805,1.426758,-0.06298828,0.1210938,-0.3457031,-0.144043
1240,63.375,21.4375,135.6875,-0.1030273,1.504395,-0.1054688,0.1103516,-0.3530273,-0.1357422
1244,47.3125,-9.625,147.125,-0.09912109,1.438477,-0.1323242,0.1035156,-0.3569336,-0.1333008
1248,45,-18.625,145.375,0.2797852,1.39209,-0.02050781,0.08886719,-0.3642578,-0.1289063
1252,55.625,0.6875,141.75,0.3535156,1.446289,0.001953125,0.07470703,-0.3666992,-0.1264648
1256,61.4375,14.3125,132.5625,0.2026367,1.493164,-0.05908203,0.06542969,-0.3691406,-0.1225586
1260,61.125,16.125,120.5625,0.09033203,1.566895,-0.1054688,0.0546875,-0.3745117,-0.1166992
1264,53.0625,13.1875,114.375,0.05126953,1.597656,-0.1552734,0.04150391,-0.3754883,-0.1113281
1268,42.8125,0.75,115.3125,0.03955078,1.535645,-0.1552734,0.03417969,-0.3793945,-0.1074219
1272,40.3125,-9.375,115.625,0.1328125,1.527832,-0.1206055,0.0234375,-0.3793945,-0.105957
1276,38.4375,-8.1875,108.1875,0.4311523,1.473633,-0.02050781,0.01416016,-0.3803711,-0.1005859
1280,40.8125,10.375,107.8125,0.4350586,1.426758,0.001953125,0.005859375,-0.3793945,-0.09912109
1284,40.25,22.3125,103.75,0.2451172,1.43457,-0.05517578,-0.003417969,-0.3818359,-0.09375
1288,40.375,20.75,93.5,0.09375,1.458008,-0.2514648,-0.01025391,-0.3818359,-0.08837891
1292,43.5,11.75,80.125,0.07080078,1.411133,-0.3168945,-0.02001953,-0.3803711,-0.08837891
1296,51,0.6875,69.5,0.2216797,1.337402,-0.2089844,-0.0234375,-0.3818359,-0.08544922
1300,49.1875,-3.6875,72.1875,0.4619141,1.372559,-0.07861328,-0.03076172,-0.3779297,-0.08007813
1304,36.875,-3.4375,79.1875,0.5200195,1.399902,-0.02441406,-0.03515625,-0.3793945,-0.07470703
1308,17.875,-5.8125,83.8125,0.59375,1.298828,-0.009277344,-0.04248047,-0.3779297,-0.07177734
1312,15.4375,3.1875,81.6875,0.6362305,1.053711,-0.02441406,-0.05224609,-0.3779297,-0.07177734
1316,34.9375,18.375,71.75,0.5668945,0.9838867,-0.1206055,-0.05664063,-0.3779297,-0.06787109
1321,44.4375,21.9375,61.4375,0.4853516,1.030762,-0.1474609,-0.06054688,-0.3769531,-0.06542969
1325,40.625,14.75,59.25,0.5087891,1.057617,-0.1206055,-0.06640625,-0.3745117,-0.06396484
1329,31.4375,7.3125,58.5625,0.5859375,1.045898,-0.05126953,-0.07128906,-0.3769531,-0.05957031
1333,24.5625,16.1875,56.25,0.6713867,0.9995117,-0.05517578,-0.07568359,-0.3730469,-0.05859375
1337,32.375,31.25,55.625,0.5708008,1.022949,-0.1435547,-0.08056641,-0.3730469,-0.05566406
1341,34.9375,34.125,49.0625,0.3999023,1.154785,-0.2055664,-0.08398438,-0.3730469,-0.05273438
1345,21.875,25.0625,47.875,0.3110352,1.20166,-0.2324219,-0.08789063,-0.3691406,-0.05175781
1349,5.875,2.625,55,0.3305664,1.124023,-0.1938477,-0.09130859,-0.3706055,-0.05029297
1353,-1.25,-7.75,67.125,0.5009766,1.084961,-0.1552734,-0.09472656,-0.3666992,-0.05029297
1357,0.875,-4.125,71.3125,0.625,1.049805,-0.1323242,-0.1010742,-0.3642578,-0.04882813
1361,10.3125,9.5625,63.375,0.6831055,1.077148,-0.1245117,-0.1079102,-0.3632813,-0.04736328
1365,20.375,29.75,49.3125,0.6557617,1.06543,-0.1591797,-0.1113281,-0.3618164,-0.04736328
1369,28.8125,39.8125,40.3125,0.4775391,1.104492,-0.2207031,-0.1162109,-0.359375,-0.04638672
1373,26.0625,35,41.375,0.2954102,1.263672,-0.2861328,-0.1176758,-0.359375,-0.04638672
1377,8.3125,19.1875,44.875,0.140625,1.368652,-0.3129883,-0.1220703,-0.3579102,-0.04638672
1381,-7.75,1.8125,48.1875,0.04345703,1.376465,-0.324707,-0.1259766,-0.3569336,-0.04492188
1385,-15.625,-16.1875,39.9375,-0.04492188,1.430664,-0.3012695,-0.1293945,-0.3544922,-0.04638672
1389,-17.625,-23.0625,17.8125,0.08642578,1.454102,-0.2055664,-0.1318359,-0.3544922,-0.04638672
1393,-18.0625,-17.625,0.4375,0.1171875,1.485352,-0.1630859,-0.1318359,-0.3530273,-0.04638672
1397,-21.3125,-17.4375,-11.125,0.06298828,1.512207,-0.1591797,-0.1318359,-0.3520508,-0.04882813
1401,-27.4375,-20.1875,-16.125,0.08251953,1.566895,-0.1435547,-0.1318359,-0.3505859,-0.04882813
1405,-34.1875,-18.875,-23.375,0.05517578,1.632813,-0.1708984,-0.1303711,-0.3544922,-0.05029297
1409,-38.75,-25.9375,-36.875,-0.03710938,1.687012,-0.1782227,-0.1269531,-0.3544922,-0.05273438
1413,-44.25,-36.375,-52.3125,-0.006347656,1.749512,-0.1591797,-0.1245117,-0.3554688,-0.05419922
1417,-49,-43.375,-67.4375,0.1445313,1.741699,-0.109375,-0.1220703,-0.3569336,-0.05859375
1421,-48.75,-34.875,-82.375,0.3071289,1.753418,-0.05126953,-0.1162109,-0.3603516,-0.0625
1425,-41,-21.125,-98.0625,0.3071289,1.737793,-0.08203125,-0.1103516,-0.3603516,-0.0625
1429,-34.75,-14.8125,-112.4375,0.2373047,1.831055,-0.1166992,-0.1020508,-0.3642578,-0.06640625
1433,-35.9375,-18.0625,-127.9375,0.2216797,1.893066,-0.1166992,-0.09130859,-0.3666992,-0.06933594
1437,-46.5,-23.0625,-137.125,0.2216797,1.986328,-0.1362305,-0.08398438,-0.3666992,-0.07324219
1441,-63.9375,-36.6875,-142.5,0.2333984,2.009766,-0.1401367,-0.07128906,-0.371582,-0.07470703
1445,-79.5625,-46.6875,-146.4375,0.3652344,1.990234,-0.1362305,-0.05810547,-0.3745117,-0.08300781
1450,-87.375,-46.4375,-154.3125,0.5048828,1.885254,-0.109375,-0.05322266,-0.3745117,-0.08447266
1454,-84.625,-35.25,-161.75,0.6479492,1.780273,-0.1015625,-0.03662109,-0.3769531,-0.09375
1458,-76.8125,-15.5,-170,0.690918,1.749512,-0.1166992,-0.0234375,-0.3769531,-0.1044922
1462,-75,-10,-177.1875,0.527832,1.819336,-0.1938477,-0.01269531,-0.3793945,-0.1088867
1466,-87.1875,-20.3125,-177.875,0.5126953,1.81543,-0.2363281,0.003417969,-0.3769531,-0.1142578
1470,-101.9375,-30.125,-173.75,0.5512695,1.718262,-0.2475586,0.01904297,-0.3730469,-0.1210938
1474,-104.5625,-30.8125,-174.0625,0.6289063,1.574707,-0.2514648,0.03076172,-0.3706055,-0.1333008
1478,-96.4375,-24.3125,-180.625,0.6635742,1.477539,-0.2324219,0.04492188,-0.3681641,-0.1416016
1482,-87.125,-15.0625,-186,0.6791992,1.368652,-0.2207031,0.05957031,-0.3603516,-0.1508789
1486,-75.125,-6.5625,-183.5,0.6518555,1.287109,-0.1938477,0.07373047,-0.3554688,-0.1523438
1490,-68.875,-1.9375,-177.1875,0.559082,1.255859,-0.1630859,0.08789063,-0.3505859,-0.1606445
1494,-68.125,-4.375,-173.875,0.4931641,1.197754,-0.1591797,0.105957,-0.3417969,-0.1674805
1498,-57.125,0.125,-173.125,0.5512695,1.06543,-0.09375,0.1152344,-0.3378906,-0.168457
1502,-43,11.375,-166.4375,0.4775391,1.116211,-0.08984375,0.1308594,-0.3291016,-0.1738281
1506,-49.875,3.375,-163.125,0.2607422,1.244141,-0.1362305,0.1450195,-0.3208008,-0.1767578
1510,-70.375,-18.25,-164.125,0.2875977,1.17041,-0.109375,0.1533203,-0.3154297,-0.1796875
1514,-78.8125,-18,-164.125,0.5009766,0.8789063,-0.02050781,0.1665039,-0.3017578,-0.1875
1518,-63.0625,-0.75,-160.6875,0.625,0.6772461,0.08642578,0.1782227,-0.2919922,-0.1918945
1522,-51.3125,16.875,-152.875,0.3999023,0.6616211,0.005859375,0.1855469,-0.2832031,-0.1928711
1526,-49.4375,11.4375,-138.875,0.2104492,0.5913086,0.009765625,0.1972656,-0.2705078,-0.1958008
1530,-50.3125,0,-118.6875,0.1132813,0.6459961,0.05566406,0.2070313,-0.2607422,-0.199707
1534,-62.25,-10.25,-99.625,0.02441406,0.7509766,0.08642578,0.2094727,-0.2543945,-0.199707
1538,-79.125,-16.9375,-89.8125,-0.05273438,0.7158203,0.08642578,0.2163086,-0.2431641,-0.206543
1542,-80.5,-21.5,-94.1875,0.01660156,0.5332031,0.1518555,0.2202148,-0.2319336,-0.2119141
1546,-69.375,-6.1875,-95.3125,0.1328125,0.3310547,0.1904297,0.222168,-0.2246094,-0.2148438
1550,-54.25,13.0625,-91.4375,0.05908203,0.2573242,0.1904297,0.2270508,-0.2143555,-0.21875
1554,-49.5,16.375,-79.4375,-0.1845703,0.3120117,0.08642578,0.234375,-0.203125,-0.2202148
1558,-54.875,3,-66.8125,-0.2734375,0.2924805,0.07519531,0.2329102,-0.1982422,-0.2177734
1562,-58.5625,-8.25,-58.25,-0.2270508,0.2226563,0.09814453,0.237793,-0.1904297,-0.2231445
1566,-55,-6,-56.6875,-0.1420898,0.140625,0.1367188,0.2402344,-0.1821289,-0.2231445
1570,-44.5625,7.25,-62.375,-0.09130859,0.03222656,0.105957,0.2412109,-0.1782227,-0.2270508
1574,-31.9375,16.0625,-61.375,-0.1611328,-0.1694336,0.06347656,0.2451172,-0.1704102,-0.2270508
1579,-20,15.3125,-45.0625,-0.2192383,-0.2045898,0.02490234,0.2460938,-0.1621094,-0.2285156
1583,-16.1875,7.9375,-27.25,-0.296875,-0.2275391,-0.005371094,0.2485352,-0.1591797,-0.2255859
1587,-13.5625,-2.9375,-13.8125,-0.2661133,-0.1811523,0.02099609,0.25,-0.1567383,-0.2270508
1591,-14.4375,-8.75,-7.3125,-0.1611328,-0.2006836,0.07519531,0.2509766,-0.1542969,-0.2285156
1595,-7.125,-2.0625,3.125,-0.04101563,-0.3056641,0.105957,0.2485352,-0.1533203,-0.2270508
1599,15.8125,16.875,3.0625,-0.08007813,-0.2822266,0.08251953,0.25,-0.1557617,-0.2270508
1603,19.6875,20.8125,2.75,-0.230957,-0.1420898,0.02099609,0.2509766,-0.1542969,-0.2270508
1607,6.3125,2.9375,19.875,-0.28125,-0.1811523,-0.03222656,0.2509766,-0.1557617,-0.2231445
1611,-0.6875,-15.625,45.75,-0.1342773,-0.3325195,-0.04003906,0.25,-0.1606445,-0.2246094
1615,22.25,-8.8125,67.125,0.01660156,-0.3833008,-0.009277344,0.2475586,-0.1655273,-0.2255859
1619,46.5625,9.0625,65,-0.006347656,-0.2241211,-0.02441406,0.2451172,-0.1669922,-0.2246094
1623,57.9375,18.4375,66.0625,-0.1303711,-0.05273438,-0.04394531,0.2412109,-0.1767578,-0.2231445
1627,56.5625,7,81.5,-0.230957,0.04736328,-0.08203125,0.2436523,-0.1870117,-0.2202148
1631,55.8125,-5.625,95.125,-0.1572266,0.140625,-0.05908203,0.2402344,-0.1943359,-0.2177734
1635,59.625,-12.375,103.5625,0.008789063,0.2299805,0.01367188,0.2329102,-0.2045898,-0.2133789
1639,64.125,-4.625,118.5,0.1367188,0.21875,0.009765625,0.230957,-0.2182617,-0.2119141
1643,77.875,3.625,122.8125,0.05517578,0.3623047,0.01708984,0.2246094,-0.2246094,-0.2094727
1647,73.875,2.875,119.9375,0.07080078,0.5097656,0.02490234,0.21875,-0.2392578,-0.206543
1651,71.5,0.8125,131.9375,0.09033203,0.5644531,-0.02832031,0.2104492,-0.2495117,-0.2026367
1655,85.125,2.5,140.5,0.140625,0.5332031,-0.03222656,0.2045898,-0.2607422,-0.1987305
1659,106.3125,13.1875,133.25,0.206543,0.8286133,-0.02832031,0.1987305,-0.2744141,-0.1943359
1663,93.25,14.125,127.9375,0.159668,1.104492,0.005859375,0.1879883,-0.2856445,-0.1865234
1667,61.5,3.5,148.5625,0.1484375,1.026855,-0.04394531,0.1821289,-0.2929688,-0.1806641
1671,71.8125,0.6875,163.1875,0.1635742,0.9375,-0.03222656,0.1699219,-0.3041992,-0.1782227
1675,86.9375,10.875,155.1875,0.2836914,1.13916,-0.07080078,0.1567383,-0.3168945,-0.1713867
1679,87.8125,20.9375,145.9375,0.206543,1.341309,-0.1015625,0.1484375,-0.3232422,-0.1645508
1683,69.125,9.1875,149.375,0.07861328,1.353027,-0.1669922,0.1376953,-0.3330078,-0.1591797
1687,59.4375,-6.5625,154.8125,0.1987305,1.174316,-0.1166992,0.125,-0.3417969,-0.1547852
1691,82,2.375,164.3125,0.3999023,1.221191,-0.07861328,0.1152344,-0.3457031,-0.1508789
1695,90.8125,15.6875,155,0.3769531,1.508301,-0.09765625,0.09960938,-0.3530273,-0.1416016
1699,79.75,16.8125,151,0.2954102,1.687012,-0.1435547,0.08691406,-0.3603516,-0.1357422
1703,58.5625,7.6875,152.6875,0.2412109,1.59375,-0.07861328,0.07714844,-0.3657227,-0.1318359
1708,59.3125,10.5,153.3125,0.2954102,1.368652,-0.1245117,0.06396484,-0.3681641,-0.1235352
1712,79.1875,20.9375,147.5,0.2451172,1.52002,-0.1591797,0.04882813,-0.3754883,-0.1196289
1716,76.0625,19.25,139.8125,0.1210938,1.69873,-0.1743164,0.0390625,-0.3769531,-0.1142578
1720,49.125,-2.9375,138.75,-0.006347656,1.76123,-0.2285156,0.02587891,-0.3793945,-0.1088867
1724,30.625,-28.6875,143.375,0.190918,1.422852,-0.1166992,0.01416016,-0.3793945,-0.1035156
1728,53.8125,-16.6875,145.3125,0.4775391,1.291016,-0.05908203,0.003417969,-0.3803711,-0.1035156
1732,84.5,18.625,127.0625,0.5473633,1.454102,-0.07861328,-0.01269531,-0.3803711,-0.09765625
1736,98.8125,46.375,110.875,0.3417969,1.72998,-0.1899414,-0.02099609,-0.3818359,-0.08691406
1740,77.8125,38,101.75,0.004882813,1.912598,-0.3012695,-0.02685547,-0.3803711,-0.08007813
1744,43.25,-1.75,105.875,-0.06835938,1.838867,-0.309082,-0.03662109,-0.3818359,-0.07470703
1748,21.625,-26.0625,108.5,0.3110352,1.605469,-0.2016602,-0.04589844,-0.3779297,-0.07177734
1752,23.25,-20.5,101.0625,0.609375,1.349121,-0.1743164,-0.05224609,-0.3779297,-0.06542969
1756,56.25,11.8125,89.375,0.7680664,1.146973,-0.1708984,-0.06298828,-0.3745117,-0.06787109
1760,87.6875,43.625,71.375,0.578125,1.279297,-0.2324219,-0.06982422,-0.3730469,-0.05566406
1764,85.8125,44.5625,63.0625,0.3266602,1.523926,-0.2514648,-0.07470703,-0.3745117,-0.05419922
1768,58.1875,25.5,62.4375,0.2875977,1.562988,-0.2285156,-0.078125,-0.3730469,-0.04638672
1772,31.5,4.125,67.8125,0.4038086,1.450195,-0.1669922,-0.08398438,-0.371582,-0.04492188
1776,6.25,-4.625,73.125,0.5239258,1.349121,-0.2089844,-0.08886719,-0.3706055,-0.04345703
1780,-3.25,-7.8125,76.625,0.5395508,1.034668,-0.2207031,-0.09619141,-0.3691406,-0.04052734
1784,16.3125,0.0625,72.1875,0.6557617,0.840332,-0.2363281,-0.1030273,-0.3642578,-0.04052734
1788,42.6875,24.125,58.9375,0.6791992,0.9375,-0.2128906,-0.1030273,-0.3632813,-0.04052734
1792,46.625,38.625,49.375,0.4350586,1.186035,-0.2783203,-0.1103516,-0.3632813,-0.03662109
1796,24.5,18.5625,52.3125,0.2138672,1.325684,-0.2861328,-0.1162109,-0.3618164,-0.03271484
1800,-5.75,-10.6875,64.75,0.2685547,1.209473,-0.2861328,-0.1186523,-0.359375,-0.03271484
1804,-14.5625,-24.3125,73.5,0.4541016,1.04248,-0.2167969,-0.1245117,-0.3554688,-0.03369141
1808,-5.625,-13.9375,63.75,0.6289063,0.9453125,-0.2055664,-0.1293945,-0.3544922,-0.03271484
1812,21.5625,12.25,42.875,0.7294922,0.8710938,-0.1708984,-0.1342773,-0.3520508,-0.02978516
1816,36.5,33,31.625,0.578125,1.069336,-0.2207031,-0.1367188,-0.3505859,-0.02978516
1820,17.8125,23.0625,38.5,0.3266602,1.279297,-0.2514648,-0.1391602,-0.3481445,-0.02978516
1824,-14.9375,-8.25,53.875,0.175293,1.321777,-0.2978516,-0.1411133,-0.3481445,-0.02832031
1828,-30.375,-33.75,59.5,0.3110352,1.248047,-0.2167969,-0.1484375,-0.3442383,-0.03125
1832,-33.0625,-29.625,45.4375,0.4970703,1.225098,-0.1630859,-0.1533203,-0.3408203,-0.03125
1837,-30.8125,-13.875,30.6875,0.3886719,1.240234,-0.1821289,-0.1557617,-0.3408203,-0.03271484
1841,-24.0625,-14.0625,14.8125,0.2490234,1.213379,-0.1977539,-0.1557617,-0.3417969,-0.03271484
1845,-13.375,-8.4375,5.625,0.2451172,1.302734,-0.1669922,-0.1591797,-0.3408203,-0.03515625
1849,-9.375,-5.25,-6.1875,0.1367188,1.566895,-0.1206055,-0.1582031,-0.3393555,-0.03662109
1853,-26,-12.3125,-15.25,-0.06445313,1.869629,-0.1513672,-0.1567383,-0.3408203,-0.03662109
1857,-47.5625,-30.5625,-32.4375,-0.06445313,1.958984,-0.1513672,-0.1557617,-0.3408203,-0.03808594
1861,-59.1875,-41.5,-53.6875,0.1367188,1.966797,-0.09765625,-0.1518555,-0.3408203,-0.03955078
1865,-61.5,-35.1875,-71.625,0.3457031,1.924316,-0.009277344,-0.1494141,-0.3432617,-0.04638672
1869,-60.4375,-20.75,-85.375,0.4272461,1.939941,-0.001464844,-0.1435547,-0.3466797,-0.04736328
1873,-61,-11.25,-99.8125,0.3959961,1.947754,-0.04003906,-0.1367188,-0.3491211,-0.05029297
1877,-62.8125,-8,-117.0625,0.4077148,1.966797,-0.09765625,-0.1318359,-0.3530273,-0.05566406
1881,-64,-4.4375,-133.4375,0.5087891,1.958984,-0.1362305,-0.1201172,-0.3554688,-0.06103516
1885,-69.25,-1.8125,-148.3125,0.5551758,1.978516,-0.1860352,-0.1103516,-0.3579102,-0.06542969
1889,-80.125,-5,-159.4375,0.6171875,1.858398,-0.2397461,-0.09863281,-0.3642578,-0.07080078
1893,-84,-6.9375,-164.5625,0.6982422,1.737793,-0.309082,-0.08300781,-0.3666992,-0.08007813
1897,-82.5625,-6.4375,-166.9375,0.7333984,1.667969,-0.3286133,-0.07324219,-0.371582,-0.08544922
1901,-81.625,-7.75,-166.8125,0.7138672,1.632813,-0.34375,-0.05810547,-0.3730469,-0.09521484
1905,-82.5625,-9.375,-169.3125,0.7060547,1.652344,-0.2900391,-0.04248047,-0.3754883,-0.1005859
1909,-86.1875,-8.9375,-178.4375,0.7568359,1.609375,-0.2475586,-0.03320313,-0.3754883,-0.1074219
1913,-84.3125,-4.375,-181.625,0.7758789,1.523926,-0.2436523,-0.01611328,-0.3754883,-0.1142578
1917,-82.4375,-2.875,-177.1875,0.7021484,1.535645,-0.2592773,0,-0.3754883,-0.1235352
1921,-83.3125,-2.75,-175.5,0.6674805,1.422852,-0.2397461,0.01171875,-0.3745117,-0.1289063
1925,-71.75,4.75,-176.9375,0.6674805,1.356934,-0.2246094,0.02978516,-0.371582,-0.1357422
1929,-58.1875,16.5,-185.6875,0.5820313,1.493164,-0.2167969,0.04736328,-0.3681641,-0.144043
1933,-68.25,12.125,-189.375,0.3339844,1.648438,-0.2670898,0.05957031,-0.3642578,-0.1455078
1937,-91.75,-16.375,-182.5625,0.2685547,1.58252,-0.3051758,0.07861328,-0.3603516,-0.1508789
1941,-100.25,-27.375,-175.375,0.5859375,1.287109,-0.1899414,0.09375,-0.3491211,-0.1591797
1945,-77.6875,-4.8125,-176.75,0.7373047,1.061523,-0.1206055,0.1044922,-0.3457031,-0.1660156
1949,-49.6875,23.5,-183.5625,0.5356445,1.197754,-0.1206055,0.1176758,-0.3369141,-0.1713867
1953,-53.75,20.375,-188.625,0.2294922,1.317871,-0.1899414,0.1376953,-0.328125,-0.1738281
1957,-69.375,-6.125,-179.8125,0.1948242,1.193848,-0.1552734,0.1474609,-0.3217773,-0.1767578
1961,-82.25,-18.875,-168.0625,0.3574219,1.124023,-0.1054688,0.1591797,-0.3081055,-0.1835938
1966,-89.875,-16.4375,-162.5625,0.4506836,0.90625,-0.06689453,0.1738281,-0.2954102,-0.1904297
1970,-82.5,-8.3125,-160.875,0.4389648,0.6923828,-0.08203125,0.1821289,-0.2866211,-0.1918945
1974,-69,2,-158.125,0.4541016,0.5097656,-0.07080078,0.1914063,-0.2729492,-0.2011719
1978,-60,5.5,-153.125,0.3535156,0.4086914,-0.05517578,0.2021484,-0.2592773,-0.2055664
1982,-61.25,1.125,-138.5625,0.3808594,0.3349609,-0.005371094,0.2094727,-0.2519531,-0.206543
1986,-71.1875,2.75,-114.4375,0.3149414,0.2885742,-0.02050781,0.2163086,-0.2407227,-0.2119141
1990,-74.8125,-5.6875,-97.4375,0.04345703,0.09814453,-0.0859375,0.2236328,-0.2280273,-0.2133789
1994,-62.0625,-12.625,-92.1875,0.125,-0.04882813,-0.04003906,0.2246094,-0.2167969,-0.2163086
1998,-43.8125,-1.625,-87.5625,0.2177734,-0.1420898,0.02099609,0.2294922,-0.2104492,-0.2202148
2002,-26.1875,13.125,-79.4375,0.1171875,-0.1733398,0.05175781,0.2353516,-0.203125,-0.2231445
2006,-21.5625,12.5,-61.875,-0.09130859,-0.08007813,0.04443359,0.2368164,-0.1958008,-0.2216797
2010,-25.1875,2.625,-49.75,-0.1303711,-0.05664063,0.06347656,0.2392578,-0.1894531,-0.2216797
2014,-22.8125,1.375,-38.3125,-0.09521484,-0.09570313,0.1132813,0.2392578,-0.1845703,-0.2231445
2018,-18.9375,6.0625,-31.1875,-0.1381836,-0.1230469,0.09423828,0.2426758,-0.1831055,-0.2231445
2022,-13.0625,6.5,-24.8125,-0.215332,-0.1191406,0.07128906,0.2426758,-0.1782227,-0.2231445
2026,-10.5625,4.5,-18.375,-0.1884766,-0.1538086,0.08251953,0.2436523,-0.1743164,-0.2246094
2030,-5.375,6.5625,-7,-0.1499023,-0.2163086,0.09423828,0.2460938,-0.171875,-0.2231445
2034,2.8125,9.125,7.25,-0.1806641,-0.1850586,0.06738281,0.2460938,-0.1743164,-0.2246094
2038,6.3125,8.4375,16.25,-0.2583008,-0.1191406,0.03662109,0.2460938,-0.1767578,-0.2216797
2042,12.0625,4.75,27.0625,-0.2890625,-0.1269531,0.03271484,0.2460938,-0.1767578,-0.2231445
2046,15.5,1.625,31.125,-0.2426758,-0.02197266,0.07519531,0.2451172,-0.1806641,-0.2202148
2050,14.1875,1.875,39.875,-0.1845703,-0.04541016,0.06738281,0.2436523,-0.1831055,-0.21875
2054,18.5,1.8125,48.9375,-0.1767578,-0.07617188,0.02490234,0.2412109,-0.1870117,-0.2202148
2058,30.75,2.9375,62.375,-0.1342773,-0.1577148,0.02099609,0.2426758,-0.1918945,-0.21875
2062,45.9375,8.5,75.8125,-0.1147461,-0.02978516,0.02490234,0.2392578,-0.1992188,-0.2163086
2066,55.75,11.125,79,-0.1689453,0.1098633,0.001953125,0.2368164,-0.2045898,-0.2148438
2070,57.4375,7.375,82.4375,-0.1264648,0.2226563,-0.05908203,0.2319336,-0.2143555,-0.2109375
2074,64.9375,7.8125,90.625,-0.1186523,0.3271484,0.001953125,0.2294922,-0.2246094,-0.206543
2078,60.8125,4.9375,86.8125,-0.08789063,0.4555664,0.02490234,0.2246094,-0.2304688,-0.2055664
2082,48.1875,-4.6875,98.375,-0.04101563,0.4750977,0.001953125,0.2211914,-0.2392578,-0.2026367
2086,56.0625,-5.9375,123,0.1831055,0.140625,-0.01660156,0.2138672,-0.2519531,-0.1987305
2090,98.1875,15.25,124.3125,0.2138672,0.3583984,-0.02832031,0.2104492,-0.2592773,-0.1958008
2095,117.0625,37.8125,120.5,0.1831055,0.6923828,-0.05126953,0.2011719,-0.2729492,-0.1889648
2099,103.75,36.6875,116.75,-0.06445313,1.038574,-0.0859375,0.1948242,-0.2856445,-0.1767578
2103,62.3125,6.125,126.9375,-0.1533203,1.166504,-0.1323242,0.1914063,-0.2929688,-0.1738281
2107,33.5625,-23.125,153.4375,0.06298828,0.890625,-0.09765625,0.1796875,-0.3032227,-0.168457
2111,59.6875,-11.25,164.9375,0.3071289,0.7973633,-0.001464844,0.1665039,-0.3154297,-0.1674805
2115,88.4375,18.875,148.375,0.3496094,0.9799805,0.009765625,0.1591797,-0.3208008,-0.1645508
2119,93.25,33.5,133.3125,0.2138672,1.298828,-0.03613281,0.1474609,-0.3330078,-0.15625
2123,67.875,28.75,137.8125,0.06298828,1.407715,-0.1323242,0.1376953,-0.3408203,-0.1494141
2127,51.875,6.375,153.8125,-0.01416016,1.193848,-0.1591797,0.1293945,-0.3457031,-0.1455078
2131,75.9375,7.6875,153.8125,0.2797852,1.244141,-0.07861328,0.112793,-0.3520508,-0.1386719
2135,85.9375,29.6875,137.125,0.3808594,1.418945,-0.04736328,0.1010742,-0.3603516,-0.1303711
2139,76.25,38,137.625,0.2607422,1.55127,-0.1474609,0.09277344,-0.3642578,-0.1264648
2143,58.0625,30.875,149.8125,0.0009765625,1.461914,-0.2514648,0.08056641,-0.3691406,-0.1196289
2147,64,15.125,146.125,0.0009765625,1.376465,-0.2744141,0.06640625,-0.3745117,-0.1098633
2151,79.3125,17.0625,135.1875,0.2646484,1.458008,-0.1899414,0.05810547,-0.3769531,-0.1088867
2155,72.8125,27,127.75,0.3110352,1.628906,-0.1552734,0.04394531,-0.3793945,-0.1020508
2159,55.1875,25.625,129.1875,0.2758789,1.648438,-0.1899414,0.03417969,-0.3818359,-0.09521484
2163,42.9375,18.375,134.4375,0.1210938,1.555176,-0.324707,0.02490234,-0.3833008,-0.09082031
2167,40.3125,2.9375,131.3125,0.109375,1.450195,-0.309082,0.01171875,-0.3857422,-0.08837891
2171,48.875,-0.3125,125,0.2797852,1.395996,-0.2592773,0,-0.3842773,-0.08447266
2175,53.3125,6.3125,116.375,0.3730469,1.481445,-0.1782227,-0.006835938,-0.3833008,-0.07861328
2179,43.875,7.5,114.625,0.3925781,1.543457,-0.1708984,-0.01855469,-0.3857422,-0.07617188
2183,35.6875,10,116.875,0.3613281,1.46582,-0.1669922,-0.03173828,-0.3818359,-0.07177734
2187,42.3125,13,110.375,0.3227539,1.430664,-0.1938477,-0.03759766,-0.3803711,-0.06933594
2191,46.375,16.375,97.125,0.3339844,1.461914,-0.2016602,-0.04833984,-0.3793945,-0.06396484
2195,42.75,19.625,93.75,0.3417969,1.493164,-0.2055664,-0.05566406,-0.3793945,-0.06103516
2199,34.5625,15.25,93.75,0.2412109,1.539551,-0.2324219,-0.06152344,-0.3769531,-0.05566406
2203,22.5,4.25,87.0625,0.2216797,1.493164,-0.2207031,-0.06982422,-0.3754883,-0.05419922
2207,20.125,-0.0625,79.625,0.4272461,1.333496,-0.1860352,-0.07714844,-0.3730469,-0.05273438
2211,29.4375,12.375,69.3125,0.559082,1.166504,-0.2016602,-0.08203125,-0.3730469,-0.05029297
2215,42.375,28.9375,63.125,0.5395508,1.120117,-0.2363281,-0.08789063,-0.3681641,-0.04882813
2219,46.375,31.125,59.4375,0.4389648,1.146973,-0.2670898,-0.09228516,-0.3681641,-0.04492188
2224,40.75,25.125,62.1875,0.4853516,1.20166,-0.2475586,-0.09716797,-0.3681641,-0.04199219
2228,27.5,15.25,66.75,0.4350586,1.248047,-0.2822266,-0.09960938,-0.3666992,-0.03955078
2232,15.0625,4.125,64.0625,0.5239258,1.182129,-0.2246094,-0.1079102,-0.3642578,-0.03955078
2236,9.4375,2.0625,61.4375,0.6289063,1.073242,-0.2167969,-0.109375,-0.3632813,-0.03808594
2240,13.8125,11.75,57.8125,0.6948242,1.01123,-0.1821289,-0.1162109,-0.3618164,-0.03662109
2244,15,18.625,54.4375,0.5668945,1.019043,-0.2285156,-0.1210938,-0.3603516,-0.03662109
2248,12.25,14.8125,55,0.4853516,1.038574,-0.2475586,-0.1245117,-0.3579102,-0.03515625
2252,5.9375,9.25,55.9375,0.4194336,1.073242,-0.2514648,-0.1293945,-0.3569336,-0.03515625
2256,1.5,4.9375,54.4375,0.3188477,1.150879,-0.2744141,-0.1342773,-0.3505859,-0.03369141
2260,-3.1875,-3.75,47.625,0.2294922,1.178223,-0.2514648,-0.1376953,-0.3520508,-0.03369141
2264,-3.4375,-5.5,40.5625,0.2568359,1.251953,-0.2128906,-0.1401367,-0.3505859,-0.03515625
2268,-2,-0.125,23.9375,0.2177734,1.364746,-0.2016602,-0.1425781,-0.3457031,-0.03271484
2272,-1.75,4.5,4.9375,0.2177734,1.477539,-0.1860352,-0.1450195,-0.3457031,-0.03271484
2276,-7.6875,7.6875,-4.5625,0.1518555,1.597656,-0.2167969,-0.1459961,-0.3442383,-0.03808594
2280,-19.9375,1.5625,-12.125,0.07080078,1.769043,-0.2553711,-0.1435547,-0.3457031,-0.03515625
2284,-36.0625,-5.125,-25.0625,0.03564453,1.791992,-0.2670898,-0.1435547,-0.3481445,-0.03662109
2288,-41.125,-13.1875,-40.1875,-0.02197266,1.737793,-0.2900391,-0.1425781,-0.3466797,-0.03955078
2292,-36.4375,-23.3125,-57.125,-0.006347656,1.733887,-0.2631836,-0.1367188,-0.3491211,-0.04199219
2296,-36.5,-29.75,-72.375,0.109375,1.780273,-0.1899414,-0.1342773,-0.3544922,-0.04492188
2300,-43.125,-31.0625,-83.25,0.190918,1.827148,-0.1362305,-0.1293945,-0.3554688,-0.04638672
2304,-46.8125,-28.25,-94.875,0.2724609,1.78418,-0.09765625,-0.1210938,-0.3579102,-0.04882813
2308,-45.6875,-24,-104.75,0.3305664,1.842773,-0.1054688,-0.1137695,-0.359375,-0.05273438
2312,-49.375,-19.625,-117.0625,0.3266602,1.924316,-0.1245117,-0.1069336,-0.3642578,-0.05712891
2316,-57.5,-20.5,-129.9375,0.3378906,1.970703,-0.1782227,-0.09472656,-0.3681641,-0.05957031
2320,-67.125,-20.75,-141.9375,0.3886719,1.998047,-0.1977539,-0.08789063,-0.3691406,-0.06396484
2324,-78.9375,-22.4375,-153.75,0.3769531,1.962891,-0.2246094,-0.07470703,-0.371582,-0.07177734
2328,-84,-24.625,-157.5,0.4467773,1.924316,-0.2514648,-0.06298828,-0.3745117,-0.08007813
2332,-89.125,-23,-163.5625,0.5161133,1.88916,-0.2939453,-0.05224609,-0.3754883,-0.08300781
2336,-85.375,-14.6875,-172.1875,0.5859375,1.803711,-0.34375,-0.03662109,-0.3779297,-0.09228516
2340,-76.875,-4.5625,-185.5625,0.5668945,1.795898,-0.3745117,-0.02099609,-0.3793945,-0.1005859
2344,-74.375,-7.9375,-193.8125,0.4389648,1.807617,-0.4208984,-0.01171875,-0.3793945,-0.1044922
2348,-79.5,-23.1875,-193.75,0.4467773,1.706543,-0.4321289,0.009277344,-0.3803711,-0.1098633
2353,-79.875,-33.8125,-191.125,0.6171875,1.617188,-0.3632813,0.02587891,-0.3754883,-0.1181641
2357,-74.75,-23.375,-192.625,0.7294922,1.504395,-0.2900391,0.03808594,-0.3754883,-0.1235352
2361,-61.125,-12.9375,-196.625,0.6870117,1.422852,-0.2553711,0.05810547,-0.371582,-0.1318359
2365,-56.8125,-11.6875,-196.3125,0.574707,1.46582,-0.2744141,0.07470703,-0.3666992,-0.137207
2369,-64.8125,-19.875,-194.1875,0.5048828,1.43457,-0.2475586,0.08789063,-0.3603516,-0.1416016
2373,-69.875,-28.5625,-190.4375,0.5551758,1.291016,-0.2246094,0.105957,-0.3554688,-0.1494141
2377,-70.125,-26.8125,-181.3125,0.6479492,1.197754,-0.1821289,0.1210938,-0.3457031,-0.1547852
2381,-74,-25,-172.875,0.5395508,1.13916,-0.2128906,0.1308594,-0.3393555,-0.1577148
2385,-77.1875,-31,-166.125,0.4814453,0.972168,-0.1669922,0.1450195,-0.328125,-0.1660156
2389,-68.5625,-25.625,-161.75,0.5512695,0.8129883,-0.1206055,0.1582031,-0.3178711,-0.175293
2393,-49,-9.8125,-165.75,0.5048828,0.7587891,-0.05517578,0.1665039,-0.3120117,-0.1738281
2397,-34.1875,4.9375,-172.9375,0.4775391,0.6962891,0.001953125,0.1782227,-0.2993164,-0.1806641
2401,-28.5625,9.125,-165.625,0.3071289,0.6845703,0.01708984,0.1904297,-0.2895508,-0.1821289
2405,-35.4375,0.5625,-148.125,0.2294922,0.7119141,0.05566406,0.199707,-0.2807617,-0.1821289
2409,-55.375,-10.25,-129.5,0.190918,0.7856445,0.06347656,0.2104492,-0.2705078,-0.1850586
2413,-84.25,-21.3125,-107.625,0.06689453,0.6147461,-0.005371094,0.2163086,-0.2583008,-0.1889648
2417,-89.0625,-29.1875,-103.25,0.140625,0.4052734,0.01367188,0.2202148,-0.2495117,-0.1958008
2421,-73.5,-15,-104.3125,0.2177734,0.1445313,0.03271484,0.2236328,-0.2368164,-0.199707
2425,-50.5625,7.625,-101.3125,0.1171875,0.07080078,0.009765625,0.230957,-0.2246094,-0.2055664
2429,-34.5,11.0625,-92.4375,-0.09130859,0.09423828,0.005859375,0.2353516,-0.2207031,-0.206543
2433,-30.375,6,-82.3125,-0.1420898,0.1601563,0.009765625,0.2412109,-0.2119141,-0.2080078
2437,-35.4375,-0.5625,-67.4375,-0.2080078,0.1254883,0.02099609,0.2412109,-0.2016602,-0.2109375
2441,-41.9375,-11.6875,-56,-0.215332,0.1176758,0.03271484,0.2451172,-0.1982422,-0.2109375
2445,-41.3125,-10.375,-51.5625,-0.1108398,-0.06835938,0.07519531,0.2460938,-0.1918945,-0.2133789
2449,-23.75,0.625,-50.6875,-0.05664063,-0.2275391,0.09814453,0.2460938,-0.1855469,-0.2163086
2453,1.125,18.75,-47.5,-0.02587891,-0.3173828,0.08642578,0.25,-0.1821289,-0.2148438
2457,20.125,30.5625,-37.9375,-0.1611328,-0.2666016,0.03662109,0.253418,-0.1791992,-0.2133789
2461,24.5,26.1875,-21.0625,-0.2890625,-0.1538086,0.04785156,0.253418,-0.1767578,-0.2080078
2465,8.4375,10.1875,-4.625,-0.362793,0.04736328,0.009765625,0.2568359,-0.1767578,-0.2055664
2469,-6.625,-4.5,12,-0.3393555,-0.04541016,0.01367188,0.2568359,-0.1767578,-0.2080078
2473,-1.375,-10.5625,17.8125,-0.2504883,-0.05273438,0.07519531,0.2543945,-0.1782227,-0.2080078
2477,5.1875,-1.6875,20.5,-0.1728516,-0.03759766,0.1518555,0.253418,-0.1791992,-0.206543
2482,8.6875,6.625,24.125,-0.2348633,-0.01025391,0.1289063,0.253418,-0.1821289,-0.2094727
2486,8.3125,3.1875,34.625,-0.2583008,-0.01416016,0.08642578,0.253418,-0.1831055,-0.206543
2490,11.4375,2.8125,53.25,-0.2270508,-0.02197266,0.04052734,0.2519531,-0.1870117,-0.206543
2494,22,4.3125,66.125,-0.2929688,0.02441406,0.03271484,0.2485352,-0.1933594,-0.206543
2498,33.625,6,69.3125,-0.3393555,0.1523438,0.02880859,0.2485352,-0.2016602,-0.2026367
2502,36.6875,1.0625,71.0625,-0.3432617,0.2924805,0.07910156,0.2451172,-0.2055664,-0.2041016
2506,33.9375,-3.6875,76.5625,-0.2543945,0.4052734,0.1289063,0.2426758,-0.2128906,-0.2011719
2510,26.25,-6.3125,79.125,-0.09130859,0.4477539,0.1367188,0.2392578,-0.2207031,-0.2011719
2514,18.5,-1,89.6875,-0.04101563,0.4321289,0.1020508,0.2353516,-0.2246094,-0.1987305
2518,23.625,2.4375,108.125,-0.1533203,0.2768555,0.02880859,0.2294922,-0.234375,-0.1987305
2522,48.125,4.875,104.3125,-0.1806641,0.3583984,0.005859375,0.2246094,-0.2431641,-0.1987305
2526,57.8125,5.75,92.25,-0.1225586,0.6069336,0.02490234,0.2211914,-0.2495117,-0.1943359
2530,36.6875,-6.3125,101,0.03173828,0.7431641,0.009765625,0.215332,-0.2583008,-0.1918945
2534,28.8125,-3.375,134.4375,-0.01806641,0.6147461,0.02099609,0.2070313,-0.2680664,-0.1904297
2538,42.8125,-5.375,126.5,-0.02587891,0.6420898,-0.02050781,0.199707,-0.2744141,-0.1875
2542,50.75,5.375,122.6875,0.1518555,0.7626953,-0.005371094,0.1928711,-0.2841797,-0.1865234
2546,52.25,12.25,145,-0.07226563,0.855957,-0.1206055,0.1831055,-0.2944336,-0.1806641
2550,50.1875,-1.125,148.3125,-0.3901367,1.178223,-0.1782227,0.1757813,-0.3017578,-0.1796875
2554,26.375,-40.125,139.125,-0.3935547,1.178223,-0.1166992,0.1630859,-0.3129883,-0.175293
2558,28.6875,-56.3125,146.5625,0.06298828,1.022949,0.05566406,0.1508789,-0.3208008,-0.1767578
2562,52.4375,-35.25,149.6875,0.3032227,1.04248,0.1557617,0.1401367,-0.3242188,-0.1782227
2566,70.6875,-7.8125,140.1875,0.3071289,1.221191,0.1904297,0.1259766,-0.3330078,-0.1738281
2570,68.125,8.125,141.9375,0.1557617,1.372559,0.1020508,0.112793,-0.3417969,-0.1674805
2574,49.5,-2.25,140.4375,-0.03320313,1.516113,0.04785156,0.1035156,-0.3481445,-0.1630859
2578,33.0625,-15.5,159.5,-0.05664063,1.341309,-0.02441406,0.09277344,-0.3530273,-0.1591797
2582,43.75,-27.875,146.5,0.08251953,1.353027,0.08642578,0.07617188,-0.359375,-0.15625
2586,55.875,-9.125,125.3125,0.5009766,1.349121,0.1171875,0.06640625,-0.359375,-0.1547852
2590,61.3125,25.375,110.4375,0.4350586,1.310547,0.1132813,0.0546875,-0.3632813,-0.1494141
2594,59,28.875,114.4375,0.05517578,1.32959,-0.1474609,0.04492188,-0.3691406,-0.144043
2598,51.75,3.0625,115.875,0.109375,1.228516,-0.1245117,0.0390625,-0.3706055,-0.1416016
2602,62.375,4.625,122.3125,0.4428711,1.174316,-0.07861328,0.02832031,-0.371582,-0.1357422
2606,77.6875,21,116.625,0.4619141,1.251953,-0.06298828,0.01513672,-0.3754883,-0.1303711
2611,83.4375,37.375,110.5625,0.3496094,1.384277,-0.1015625,0.008300781,-0.3754883,-0.1210938
2615,74,36.5625,103.375,0.1328125,1.461914,-0.2128906,-0.0009765625,-0.3779297,-0.1157227
2619,61.625,19.125,95.0625,0.1791992,1.438477,-0.2128906,-0.0078125,-0.3793945,-0.1074219
2623,56.375,10.25,96,0.4272461,1.337402,-0.1669922,-0.01416016,-0.3779297,-0.1074219
2627,58.25,18.875,108.25,0.527832,1.263672,-0.1362305,-0.0234375,-0.3793945,-0.09765625
2631,69.5625,32.9375,104,0.4541016,1.345215,-0.1513672,-0.03417969,-0.3803711,-0.09521484
2635,72.0625,42.75,92.0625,0.3652344,1.407715,-0.2363281,-0.04003906,-0.3769531,-0.09082031
2639,66.3125,41.0625,84.75,0.2255859,1.418945,-0.2861328,-0.04736328,-0.3779297,-0.08447266
2643,50.5,25.5625,84.8125,0.140625,1.422852,-0.3168945,-0.05322266,-0.3779297,-0.08007813
2647,30.6875,0.0625,89.75,0.2026367,1.372559,-0.2822266,-0.05908203,-0.3745117,-0.07470703
2651,15.1875,-16.75,94.5625,0.4350586,1.213379,-0.2285156,-0.06640625,-0.3745117,-0.07324219
2655,16.4375,-18.0625,93.25,0.6635742,1.022949,-0.1669922,-0.078125,-0.371582,-0.07080078
2659,35.6875,3,88.9375,0.8803711,0.921875,-0.1245117,-0.08300781,-0.3691406,-0.06933594
2663,59.125,41.5625,75.5,0.8613281,0.9838867,-0.1552734,-0.09033203,-0.3681641,-0.06640625
2667,64,52.5625,66.6875,0.4970703,1.135742,-0.2514648,-0.09472656,-0.3666992,-0.06103516
2671,53.5,39.6875,70.875,0.4194336,1.193848,-0.2705078,-0.09863281,-0.3642578,-0.05859375
2675,38.1875,24.375,78.6875,0.3535156,1.154785,-0.2705078,-0.1030273,-0.3657227,-0.05419922
2679,29.8125,12.125,90.625,0.3652344,1.186035,-0.2553711,-0.1113281,-0.3603516,-0.05273438
2683,29.75,9.75,78.3125,0.4272461,1.225098,-0.2207031,-0.1176758,-0.3603516,-0.05029297
2687,39,24.0625,53.375,0.5512695,1.294922,-0.1245117,-0.1220703,-0.3569336,-0.04882813
2691,38.5625,48.4375,26.0625,0.5629883,1.450195,-0.04736328,-0.1259766,-0.3554688,-0.04492188
2695,30.6875,68.25,14.25,0.3959961,1.446289,-0.04003906,-0.128418,-0.3579102,-0.04492188
2699,31.5,72.5625,19,0.1484375,1.46582,-0.1743164,-0.1269531,-0.3554688,-0.04638672
2703,33.0625,63.875,25.625,-0.1186523,1.660156,-0.2705078,-0.128418,-0.3544922,-0.04638672
2707,29,42.625,17.6875,-0.3242188,1.850586,-0.3666992,-0.1303711,-0.3530273,-0.04345703
2711,17.4375,20.5,4.0625,-0.4013672,2.005859,-0.359375,-0.1318359,-0.3530273,-0.04492188
2715,2.375,1.0625,-12.0625,-0.4555664,2.161133,-0.3515625,-0.1303711,-0.3530273,-0.04199219
2719,-18.6875,-23.5625,-33.9375,-0.4555664,2.242676,-0.2900391,-0.1318359,-0.3544922,-0.04199219
2723,-44,-43.75,-53.0625,-0.2504883,2.250488,-0.1743164,-0.1245117,-0.3554688,-0.04345703
2727,-68.1875,-53.1875,-67.25,-0.08789063,2.106934,-0.128418,-0.1210938,-0.3569336,-0.04882813
2731,-77.1875,-56.5,-77.875,0.1328125,1.88916,-0.1015625,-0.1186523,-0.359375,-0.05175781
2735,-69.4375,-45.1875,-89.0625,0.2915039,1.788086,-0.07861328,-0.1113281,-0.3603516,-0.05419922
2740,-60.625,-30.0625,-101.625,0.3032227,1.862305,-0.112793,-0.1044922,-0.3632813,-0.0625
2744,-63.625,-28.1875,-119.5625,0.2451172,1.962891,-0.1591797,-0.09716797,-0.3666992,-0.06542969
2748,-74.875,-30.5625,-135.3125,0.3266602,2.013672,-0.1552734,-0.08789063,-0.3691406,-0.07080078
2752,-88.5,-32.875,-145.75,0.4077148,1.982422,-0.2089844,-0.07568359,-0.3706055,-0.07763672
2756,-93.125,-31.375,-158.5625,0.5009766,1.900879,-0.2436523,-0.06640625,-0.3730469,-0.08154297
2760,-92.4375,-24.6875,-172.0625,0.5668945,1.799805,-0.2670898,-0.05224609,-0.3745117,-0.08984375
2764,-89.0625,-21.6875,-174.9375,0.59375,1.710449,-0.324707,-0.03662109,-0.3769531,-0.09912109
2768,-84.875,-20.5625,-173.5,0.5898438,1.640625,-0.3208008,-0.02832031,-0.3754883,-0.1044922
2772,-81.875,-24.25,-167.9375,0.5126953,1.660156,-0.3554688,-0.01025391,-0.3754883,-0.112793
2776,-81.625,-30.3125,-171.0625,0.5126953,1.702637,-0.3325195,0.003417969,-0.3779297,-0.1196289
2780,-81.75,-30.5625,-181.875,0.59375,1.679688,-0.2783203,0.01416016,-0.3745117,-0.125
2784,-78.9375,-26.5625,-193.75,0.6328125,1.621094,-0.1977539,0.03173828,-0.3706055,-0.1303711
2788,-78.4375,-20.75,-193.0625,0.609375,1.562988,-0.2016602,0.04980469,-0.3681641,-0.1416016
2792,-77.25,-22.625,-188.9375,0.574707,1.442383,-0.1630859,0.06054688,-0.3642578,-0.1455078
2796,-70.9375,-16.4375,-181.5,0.6401367,1.39209,-0.1323242,0.07714844,-0.3569336,-0.1547852
2800,-67.6875,-10,-172.8125,0.5087891,1.43457,-0.112793,0.09375,-0.3520508,-0.1591797
2804,-70.9375,-14.4375,-175,0.3730469,1.508301,-0.112793,0.1044922,-0.3457031,-0.1606445
2808,-81.8125,-16.3125,-179.3125,0.4077148,1.523926,-0.112793,0.1201172,-0.3393555,-0.1728516
2812,-98.3125,-23.5,-170.125,0.2333984,1.461914,-0.1708984,0.1342773,-0.328125,-0.1782227
2816,-111.4375,-40.4375,-157.4375,0.2177734,1.380371,-0.1591797,0.1425781,-0.3208008,-0.1835938
2820,-128.5625,-50.9375,-143.125,0.2568359,1.306641,-0.1513672,0.1533203,-0.3095703,-0.1943359
2824,-144.8125,-60.5,-129.375,0.159668,1.186035,-0.2553711,0.1606445,-0.2929688,-0.206543
2828,-144.1875,-73.0625,-129.0625,0.2104492,0.9414063,-0.1938477,0.1640625,-0.2832031,-0.2163086
2832,-132.125,-67.4375,-131.875,0.3691406,0.8051758,-0.09765625,0.1713867,-0.2670898,-0.2270508
2836,-110.125,-47.6875,-142.3125,0.5473633,0.6733398,0.1132813,0.1738281,-0.2519531,-0.2392578
2840,-92.5625,-20.9375,-147.4375,0.6210938,0.6616211,0.1982422,0.1782227,-0.2431641,-0.2436523
2844,-90.0625,8.375,-145.5625,0.578125,0.6186523,0.2021484,0.1855469,-0.2270508,-0.2490234
2848,-96.9375,14.5625,-136.125,0.2797852,0.4672852,0.08251953,0.1928711,-0.2104492,-0.2568359
2852,-103,3.4375,-119.9375,0.159668,0.3427734,-0.01318359,0.1972656,-0.2006836,-0.2568359
2856,-101.875,-4.375,-103.8125,0.1289063,0.105957,-0.02441406,0.2045898,-0.1845703,-0.2597656
2860,-88.625,-4.8125,-97.125,0.1445313,-0.02197266,0.001953125,0.2080078,-0.1704102,-0.2636719
2864,-65.9375,6.8125,-93.375,0.2255859,-0.1694336,0.07910156,0.2104492,-0.1645508,-0.2651367
2869,-47.125,22.5625,-85.25,0.1445313,-0.1694336,0.1020508,0.2138672,-0.1542969,-0.2680664
2873,-43.3125,27.8125,-68.4375,-0.06835938,-0.09179688,0.04052734,0.2177734,-0.1430664,-0.2680664
2877,-44.9375,17.125,-55.4375,-0.1923828,-0.1420898,0.02099609,0.21875,-0.1381836,-0.2666016
2881,-39.125,7.25,-45.875,-0.1962891,-0.2431641,0.04443359,0.2211914,-0.1308594,-0.2666016
2885,-24.75,11.0625,-41.1875,-0.05273438,-0.2939453,0.140625,0.2236328,-0.1254883,-0.269043
2889,-12.5,22.625,-35.3125,-0.1381836,-0.3095703,0.09814453,0.2236328,-0.1220703,-0.2680664
2893,1.0625,28.4375,-35.125,-0.1459961,-0.3481445,0.07910156,0.2260742,-0.1181641,-0.2651367
2897,14.75,35.25,-26.125,-0.1572266,-0.3833008,0.05957031,0.230957,-0.1157227,-0.2636719
2901,27.25,38.9375,-11.0625,-0.246582,-0.2900391,0.04052734,0.2294922,-0.1166992,-0.2597656
2905,20.5625,32.3125,3.1875,-0.4633789,-0.09179688,-0.02832031,0.2329102,-0.1181641,-0.2597656
2909,4.3125,-0.0625,17.4375,-0.6689453,-0.1152344,-0.05126953,0.2353516,-0.1196289,-0.2543945
2913,-2.1875,-32.9375,25,-0.3666992,-0.1889648,0.02490234,0.2353516,-0.1196289,-0.2543945
2917,4.4375,-28.5625,30.75,-0.03320313,-0.324707,0.1328125,0.2319336,-0.1220703,-0.2583008
2921,34.9375,-3.125,32.875,0.140625,-0.4492188,0.2021484,0.230957,-0.1254883,-0.2597656
2925,67.75,29.8125,40.5625,0.1054688,-0.3676758,0.1943359,0.2294922,-0.1293945,-0.2583008
2929,81.5625,42.375,53.125,-0.1962891,-0.07617188,0.06738281,0.2319336,-0.1396484,-0.2558594
2933,77.625,26.3125,65.875,-0.3393555,0.105957,0.02490234,0.2319336,-0.1494141,-0.25
2937,64.3125,2.625,81.9375,-0.2890625,0.2807617,0.06738281,0.2319336,-0.1557617,-0.2460938
2941,52.4375,-8.75,95.9375,-0.1767578,0.2651367,0.1367188,0.2285156,-0.1679688,-0.2446289
2945,58.8125,-2.875,93.5625,-0.002441406,0.2226563,0.2021484,0.2260742,-0.1791992,-0.2446289
2949,71,17.5625,92.3125,0.0009765625,0.3120117,0.144043,0.2236328,-0.1855469,-0.2446289
2953,66.875,16.0625,95.9375,-0.1962891,0.4052734,0.03662109,0.21875,-0.1967773,-0.2392578
2957,53.4375,-5.375,121.5625,-0.09912109,0.4477539,-0.01660156,0.2138672,-0.2094727,-0.2338867
2961,73.375,-3.25,136.75,-0.09912109,0.3974609,0.05175781,0.2128906,-0.2167969,-0.2338867
2965,97.375,9.5,120.3125,-0.02197266,0.6342773,0.1479492,0.203125,-0.2329102,-0.2299805
2969,98.25,24.3125,105.75,-0.006347656,0.9956055,0.2021484,0.199707,-0.2456055,-0.2231445
2973,67.125,19.625,103.5,-0.1147461,1.248047,0.144043,0.1948242,-0.2529297,-0.2202148
2977,35.875,1,115.0625,-0.1303711,1.034668,0.08251953,0.1879883,-0.2631836,-0.2148438
2981,38.125,-8.9375,123.6875,-0.06445313,0.7705078,0.04052734,0.1831055,-0.2695313,-0.2133789
2985,72.125,1.3125,130.8125,0.125,0.6108398,0.159668,0.1772461,-0.2792969,-0.2119141
2989,96.375,15.75,139.9375,0.06298828,0.9760742,0.05566406,0.1650391,-0.2905273,-0.2055664
2993,87.5625,6.0625,134.4375,-0.002441406,1.349121,0.05175781,0.1547852,-0.3017578,-0.1972656
2998,55.5625,-7.25,138.375,0.09033203,1.310547,0.06738281,0.1499023,-0.3105469,-0.1918945
3002,58.625,-9.375,139.25,0.2216797,1.12793,0.144043,0.1376953,-0.3168945,-0.1918945
3006,80.3125,14.25,137.9375,0.4658203,1.04248,0.1367188,0.125,-0.3266602,-0.1835938
3010,103.75,50.9375,131.5,0.3691406,1.236328,0.09033203,0.1186523,-0.3330078,-0.1806641
3014,89.25,52.375,136.1875,0.0009765625,1.489258,-0.109375,0.109375,-0.3432617,-0.1728516
3018,53.75,13.5625,138.1875,-0.1923828,1.562988,-0.2436523,0.09765625,-0.3491211,-0.1616211
3022,24.3125,-25.0625,153.125,0.2646484,1.221191,-0.1015625,0.09130859,-0.3520508,-0.1606445
3026,43.8125,-7.6875,182.1875,0.5629883,0.90625,0.04785156,0.07470703,-0.3569336,-0.1577148
3030,80.5,31.8125,184.6875,0.5859375,1.189941,-0.07080078,0.05712891,-0.3618164,-0.1538086
3034,102.75,64.4375,160,0.3847656,1.46582,-0.2089844,0.04736328,-0.3666992,-0.1455078
3038,95.9375,66.625,128.5625,-0.02587891,1.72998,-0.3901367,0.03320313,-0.3691406,-0.1357422
3042,68.4375,31.375,121.4375,-0.1650391,1.574707,-0.3554688,0.02490234,-0.3730469,-0.1279297
3046,71.625,5.125,144.75,0.1289063,1.388184,-0.2705078,0.01513672,-0.3730469,-0.1235352
3050,84.0625,8.1875,149.75,0.2529297,1.586426,-0.1669922,0.003417969,-0.3754883,-0.1166992
3054,79.125,9.875,141.1875,0.2490234,1.772461,-0.09375,-0.01025391,-0.3769531,-0.1088867
3058,64.1875,6.75,130.4375,0.2724609,1.772461,-0.05908203,-0.02001953,-0.3779297,-0.1035156
3062,64.625,12.75,111.6875,0.3847656,1.59375,-0.02050781,-0.03076172,-0.3779297,-0.09765625
3066,82.625,32.75,101.375,0.4619141,1.559082,0.01367188,-0.04150391,-0.3769531,-0.09228516
3070,79.5625,46.125,93.9375,0.2373047,1.741699,-0.09375,-0.04589844,-0.3779297,-0.08691406
3074,62,31.625,90.1875,0.07470703,1.69873,-0.1552734,-0.05566406,-0.3769531,-0.08007813
3078,41.3125,11.125,86.5625,0.159668,1.628906,-0.1899414,-0.06298828,-0.3769531,-0.07617188
3082,26.9375,-1.375,80.8125,0.3378906,1.49707,-0.1513672,-0.06640625,-0.3730469,-0.07177734
3086,21.4375,-2.1875,72.625,0.5512695,1.259766,-0.109375,-0.07470703,-0.3730469,-0.07080078
3090,33.375,14.3125,68.8125,0.6982422,1.073242,-0.08203125,-0.08056641,-0.3706055,-0.06640625
3094,52.5,39.5,60.6875,0.7060547,0.9799805,-0.09765625,-0.08398438,-0.3706055,-0.06542969
3098,66.75,56.5625,54.4375,0.6362305,0.9995117,-0.1552734,-0.08886719,-0.3691406,-0.05957031
3102,68.5,63.3125,56,0.5126953,1.13916,-0.2592773,-0.09228516,-0.3691406,-0.05712891
3106,51.8125,50.625,59.0625,0.3071289,1.279297,-0.34375,-0.09472656,-0.3666992,-0.05273438
3110,30.125,16.75,61.9375,0.2836914,1.232422,-0.2861328,-0.09960938,-0.3657227,-0.04882813
3114,7.125,-4.5625,69.125,0.4970703,1.174316,-0.2246094,-0.1054688,-0.3632813,-0.04882813
3118,-2.5625,-4.875,71.1875,0.6518555,0.9799805,-0.1630859,-0.1113281,-0.3618164,-0.04882813
3122,10.125,6.75,62.125,0.7177734,0.8481445,-0.1552734,-0.1176758,-0.3603516,-0.04736328
3127,35.3125,32.25,51.3125,0.7060547,0.8208008,-0.2016602,-0.1210938,-0.359375,-0.04638672
3131,51.9375,47.8125,44,0.4892578,0.9296875,-0.2514648,-0.1235352,-0.3569336,-0.04052734
3135,56.3125,47.6875,44.8125,0.3149414,1.092773,-0.2900391,-0.1269531,-0.3554688,-0.04199219
3139,49.1875,39.375,49,0.1674805,1.333496,-0.3129883,-0.1303711,-0.3530273,-0.03955078
3143,28.5,16.25,45.5,-0.02587891,1.527832,-0.3168945,-0.1328125,-0.3544922,-0.03662109
3147,3.0625,-10.0625,39.5625,0.008789063,1.590332,-0.2861328,-0.1391602,-0.3520508,-0.03369141
3151,-14.375,-20.3125,28.625,0.1635742,1.527832,-0.2016602,-0.1425781,-0.3505859,-0.03515625
3155,-17.6875,-16.5625,17.6875,0.1948242,1.469727,-0.2128906,-0.1411133,-0.3481445,-0.03515625
3159,-11.4375,-9.375,6,0.1831055,1.52002,-0.1899414,-0.1425781,-0.3481445,-0.03662109
3163,-8.0625,-2.25,-7.9375,0.07080078,1.714355,-0.2553711,-0.1450195,-0.3481445,-0.03515625
3167,-9.125,-6.9375,-28.5,-0.08398438,1.858398,-0.2744141,-0.1425781,-0.3457031,-0.03808594
3171,-14.375,-12.6875,-50.6875,-0.07226563,1.998047,-0.2363281,-0.1401367,-0.3481445,-0.03662109
3175,-26.5625,-19.8125,-72.625,-0.1499023,2.137695,-0.2631836,-0.1342773,-0.3505859,-0.03808594
3179,-45.125,-40.25,-89.0625,-0.1923828,2.18457,-0.2822266,-0.1303711,-0.3530273,-0.03808594
3183,-61.875,-59.3125,-97.5625,-0.01025391,2.118652,-0.2436523,-0.1220703,-0.3569336,-0.04199219
3187,-67.125,-60.0625,-106.625,0.1987305,2.114746,-0.2089844,-0.1152344,-0.359375,-0.04492188
3191,-69.6875,-55.1875,-122.125,0.2607422,2.157227,-0.1899414,-0.109375,-0.3642578,-0.05029297
3195,-75.375,-55.0625,-143.6875,0.3769531,2.246582,-0.1591797,-0.09863281,-0.3666992,-0.05273438
3199,-89,-49.1875,-163.625,0.5048828,2.23877,-0.1708984,-0.08544922,-0.3730469,-0.0625
3203,-98,-46.3125,-177.75,0.578125,2.145508,-0.1860352,-0.07714844,-0.3730469,-0.06640625
3207,-103.3125,-43.75,-188,0.6948242,2.122559,-0.2246094,-0.05908203,-0.3779297,-0.07324219
3211,-113.375,-39.125,-195.9375,0.7490234,2.052246,-0.2744141,-0.04150391,-0.3779297,-0.08447266
3215,-122.5,-40.75,-194.5,0.7915039,1.916504,-0.309082,-0.03320313,-0.3793945,-0.08984375
3219,-126.375,-42.4375,-188.9375,0.8457031,1.88916,-0.324707,-0.01416016,-0.3803711,-0.1020508
3223,-134.4375,-40.25,-188.3125,0.8613281,1.865723,-0.3208008,0.0009765625,-0.3779297,-0.1142578
3227,-140.0625,-42.4375,-192.375,0.8691406,1.718262,-0.3554688,0.01269531,-0.3754883,-0.1225586
3231,-133.8125,-34.75,-199.0625,0.9853516,1.500488,-0.2939453,0.03076172,-0.3706055,-0.1386719
3235,-113.125,-9.0625,-202.0625,1.055176,1.325684,-0.2436523,0.04980469,-0.3642578,-0.1494141
3239,-90.6875,11.8125,-198.6875,0.8535156,1.337402,-0.2670898,0.06152344,-0.3618164,-0.1547852
3243,-88.75,6.3125,-197.125,0.6289063,1.356934,-0.3051758,0.08203125,-0.3530273,-0.1616211
3247,-85.9375,0.25,-191.25,0.7177734,1.158691,-0.2436523,0.09960938,-0.3457031,-0.1713867
3251,-71.875,11.9375,-186.5625,0.7333984,1.124023,-0.1669922,0.109375,-0.3378906,-0.175293
3256,-63.625,20,-180,0.5820313,1.112305,-0.1630859,0.128418,-0.328125,-0.1782227
3260,-64.625,18.125,-175.75,0.5009766,1.061523,-0.1821289,0.144043,-0.3168945,-0.1835938
3264,-62.5,15.75,-174.125,0.5708008,0.890625,-0.08984375,0.1523438,-0.3120117,-0.1865234
3268,-55.125,30.9375,-176.5625,0.5395508,0.8442383,-0.1015625,0.1699219,-0.3007813,-0.1918945
3272,-56,27.25,-174.625,0.3305664,0.7705078,-0.1206055,0.184082,-0.2895508,-0.1918945
3276,-68.3125,6.25,-158.9375,0.2104492,0.6616211,-0.1552734,0.1914063,-0.2783203,-0.1943359
3280,-79.25,-11.25,-132.375,0.2797852,0.4477539,-0.09765625,0.2021484,-0.2631836,-0.1987305
3284,-75,-11.0625,-113.5625,0.3378906,0.2416992,-0.04736328,0.2119141,-0.2519531,-0.2041016
3288,-50.6875,4.25,-111.1875,0.3032227,0.1333008,-0.02441406,0.215332,-0.2456055,-0.2080078
3292,-32.6875,18,-117.4375,0.190918,0.2338867,-0.01318359,0.2211914,-0.234375,-0.2109375
3296,-32.4375,17.4375,-111.3125,-0.02197266,0.2338867,-0.02441406,0.2285156,-0.2270508,-0.2109375
3300,-36.3125,3.375,-98.5,-0.1420898,0.1796875,-0.02832031,0.2319336,-0.2158203,-0.2109375
3304,-37.0625,-6.9375,-83.4375,-0.09521484,0.1020508,0.01708984,0.2368164,-0.2070313,-0.2133789
3308,-33.125,-4.1875,-71.3125,-0.05664063,0.140625,0.06347656,0.2412109,-0.1992188,-0.2133789
3312,-35.6875,-2.3125,-65.625,-0.1420898,0.1293945,0.07910156,0.2412109,-0.1943359,-0.2148438
3316,-38.875,-3,-59.6875,-0.1806641,0.1020508,0.02099609,0.2451172,-0.1870117,-0.2148438
3320,-38.125,-5.3125,-47.375,-0.2773438,-0.08007813,0.005859375,0.2460938,-0.1821289,-0.21875
3324,-21.5625,-0.1875,-42.5,-0.1806641,-0.1113281,0.009765625,0.2485352,-0.1767578,-0.2202148
3328,-15.9375,5.75,-36.5625,-0.3745117,-0.02587891,-0.02441406,0.2475586,-0.1733398,-0.2202148
3332,-27,-9.125,-30.375,-0.4829102,-0.06835938,-0.07080078,0.2509766,-0.1679688,-0.2202148
3336,-30.75,-30.625,-18.1875,-0.3393555,-0.3833008,-0.05517578,0.25,-0.1655273,-0.2231445
3340,-8.125,-31.9375,-7,0.03564453,-0.5268555,0.02880859,0.25,-0.1621094,-0.2255859
3344,20.5,-7,16.3125,0.140625,-0.4609375,0.140625,0.25,-0.1645508,-0.2255859
3348,35.75,6.8125,20.875,-0.01416016,-0.2509766,0.1982422,0.2475586,-0.1655273,-0.2270508
3352,35.75,11.75,30.3125,-0.06445313,-0.1074219,0.1748047,0.2460938,-0.1704102,-0.2246094
3356,28.9375,8.625,43.25,-0.1806641,-0.08789063,0.1328125,0.2451172,-0.1733398,-0.2231445
3360,31.8125,0.8125,55.0625,-0.1533203,-0.02197266,0.144043,0.2451172,-0.1767578,-0.2202148
3364,29.875,2.4375,60,-0.04492188,0.1020508,0.1982422,0.2451172,-0.1845703,-0.2202148
3368,26.1875,7.625,70.4375,-0.07226563,0.05908203,0.1826172,0.2402344,-0.1933594,-0.21875
3372,32.1875,8.0625,77.375,-0.06054688,0.06689453,0.1132813,0.2392578,-0.1967773,-0.21875
3376,41.125,12.5625,87.0625,-0.01806641,0.07861328,0.07519531,0.2368164,-0.2045898,-0.2163086
3380,51.6875,17.3125,96.9375,0.01269531,0.2338867,0.05566406,0.2319336,-0.2143555,-0.2119141
3385,59.125,22.3125,100.25,-0.04882813,0.4013672,0.05566406,0.230957,-0.2207031,-0.2094727
3389,56,21.9375,104.875,-0.09130859,0.4477539,0.005859375,0.2260742,-0.2329102,-0.2041016
3393,58.8125,16.5625,113.375,-0.09130859,0.4516602,-0.04394531,0.2211914,-0.2431641,-0.199707
3397,70.4375,16.5625,122.1875,-0.002441406,0.6342773,0.005859375,0.2163086,-0.2504883,-0.1987305
3401,63.5625,15.1875,126.375,0.02441406,0.8012695,-0.02441406,0.2094727,-0.2641602,-0.1918945
3405,48.875,6.625,132.8125,-0.04101563,0.8520508,-0.04003906,0.2021484,-0.2744141,-0.1875
3409,39.875,-4.875,140.625,0.09375,0.6811523,-0.07470703,0.1962891,-0.2817383,-0.1865234
3413,65.6875,7.25,149.25,0.2412109,0.6733398,-0.08203125,0.1855469,-0.2929688,-0.1821289
3417,85.75,22.75,146.75,0.1132813,0.9492188,-0.09765625,0.1738281,-0.3017578,-0.175293
3421,75.875,13.3125,141.5625,0.07080078,1.193848,-0.09765625,0.1665039,-0.3120117,-0.1728516
3425,48.3125,-4.5625,155.5625,0.1635742,1.154785,-0.07861328,0.1567383,-0.3208008,-0.1674805
3429,60,-3.3125,176.9375,0.2875977,0.987793,0.02099609,0.1416016,-0.3320313,-0.1630859
3433,86.3125,16.375,164.9375,0.3110352,1.255859,0.05957031,0.1318359,-0.3354492,-0.15625
3437,94.1875,34.25,144.375,0.2797852,1.578613,0.05175781,0.1186523,-0.3466797,-0.1523438
3441,60.75,27.375,132.8125,0.06689453,1.831055,-0.06298828,0.105957,-0.3544922,-0.144043
3445,25.9375,1.75,143.8125,0.05908203,1.562988,-0.08984375,0.09863281,-0.3579102,-0.1386719
3449,32.3125,-11.1875,159.8125,0.2607422,1.283203,-0.05126953,0.08544922,-0.3618164,-0.1357422
3453,64.125,12,150.625,0.4389648,1.36084,0.005859375,0.06884766,-0.3681641,-0.1347656
3457,85.6875,43.5625,127.625,0.3457031,1.555176,-0.112793,0.06152344,-0.3706055,-0.1289063
3461,73.4375,42.9375,118.3125,0.09033203,1.72998,-0.2055664,0.05078125,-0.3745117,-0.1196289
3465,37.4375,7.5625,123.625,0.03173828,1.667969,-0.2397461,0.0390625,-0.3779297,-0.1142578
3469,20.125,-17.6875,142.6875,0.3613281,1.240234,-0.1401367,0.03076172,-0.3779297,-0.1142578
3473,55.625,8,152.125,0.6948242,1.116211,-0.05517578,0.01660156,-0.3779297,-0.1113281
3477,96.625,60.1875,129.1875,0.6518555,1.372559,-0.1245117,0.002441406,-0.3803711,-0.1044922
3481,104.8125,90.25,106.5625,0.2529297,1.722168,-0.3359375,-0.004394531,-0.3793945,-0.09765625
3485,71.0625,66.6875,95.25,-0.215332,1.807617,-0.4975586,-0.01171875,-0.3818359,-0.08691406
3489,29.5,4.0625,103.125,-0.2041016,1.504395,-0.4399414,-0.01855469,-0.3818359,-0.08154297
3493,15.9375,-28.25,118.125,0.3227539,1.236328,-0.2900391,-0.02490234,-0.3818359,-0.08007813
3497,21.75,-23.875,123.5,0.659668,1.053711,-0.1474609,-0.03759766,-0.3779297,-0.08007813
3501,49.1875,5.125,118.6875,0.8339844,1.034668,-0.1245117,-0.04833984,-0.3779297,-0.07324219
3505,71.0625,35.5625,98.3125,0.7529297,1.158691,-0.1630859,-0.05566406,-0.3754883,-0.07177734
3509,73.0625,49.125,88.4375,0.6362305,1.240234,-0.2128906,-0.06494141,-0.3769531,-0.06396484
3514,66.0625,47.8125,85.9375,0.6171875,1.221191,-0.2553711,-0.06982422,-0.3745117,-0.05957031
3518,66.25,52.8125,78.75,0.6015625,1.154785,-0.34375,-0.07568359,-0.3745117,-0.05566406
3522,75.375,57.1875,68.5625,0.559082,1.131836,-0.378418,-0.08203125,-0.371582,-0.05175781
3526,79.875,58.4375,63.25,0.4892578,1.259766,-0.378418,-0.08886719,-0.3691406,-0.04492188
3530,68.0625,50.4375,75.25,0.3305664,1.438477,-0.3745117,-0.09130859,-0.3706055,-0.03955078
3534,44.3125,29.875,79,0.1987305,1.586426,-0.3168945,-0.09716797,-0.3681641,-0.03369141
3538,22.3125,12.9375,83.1875,0.1987305,1.570801,-0.2285156,-0.1069336,-0.3657227,-0.03515625
3542,15.5625,6.9375,80.9375,0.175293,1.613281,-0.2285156,-0.109375,-0.3632813,-0.03271484
3546,14.1875,6,65.4375,0.1328125,1.65625,-0.1743164,-0.1186523,-0.3618164,-0.02978516
3550,7.4375,7.75,50.9375,0.05126953,1.757324,-0.1669922,-0.1220703,-0.359375,-0.02978516
3554,-2.25,0.1875,37.8125,-0.02587891,1.718262,-0.1513672,-0.1245117,-0.3579102,-0.03125
3558,-6.3125,-4.5,29,0.02441406,1.687012,-0.1362305,-0.1259766,-0.3554688,-0.03125
3562,-7.6875,-4.1875,17.375,0.02441406,1.733887,-0.1591797,-0.1293945,-0.3530273,-0.03125
3566,-9.25,-3.25,0,0.02441406,1.757324,-0.1591797,-0.1318359,-0.3544922,-0.03125
3570,-15.75,-2,-17.125,-0.01416016,1.776367,-0.1899414,-0.1303711,-0.3544922,-0.02978516
3574,-24,-8.25,-31.6875,-0.05273438,1.733887,-0.2436523,-0.128418,-0.3544922,-0.03369141
3578,-30,-18.25,-45.125,-0.006347656,1.722168,-0.2514648,-0.1259766,-0.3569336,-0.03515625
3582,-36.75,-23.75,-56.4375,0.07080078,1.733887,-0.2514648,-0.1220703,-0.3579102,-0.03662109
3586,-45,-27.1875,-71,0.109375,1.753418,-0.2705078,-0.1162109,-0.359375,-0.03955078
3590,-47.625,-29.5625,-86.8125,0.1713867,1.69873,-0.2822266,-0.112793,-0.3642578,-0.04199219
3594,-45,-27,-104.6875,0.2758789,1.644531,-0.2631836,-0.1044922,-0.3657227,-0.04638672
3598,-37.5,-18.0625,-116.0625,0.3496094,1.644531,-0.2397461,-0.09472656,-0.3666992,-0.04882813
3602,-37.875,-16.1875,-124.25,0.3227539,1.745605,-0.2363281,-0.08886719,-0.3691406,-0.05175781
3606,-51.125,-23.4375,-126.4375,0.2993164,1.831055,-0.2397461,-0.07714844,-0.3745117,-0.05419922
3610,-70.25,-37.8125,-128.6875,0.3071289,1.838867,-0.2553711,-0.06494141,-0.3754883,-0.05957031
3614,-79.8125,-42.75,-136.5625,0.4541016,1.706543,-0.2207031,-0.05664063,-0.3779297,-0.06396484
3618,-69.75,-31.75,-149,0.6015625,1.605469,-0.2128906,-0.04589844,-0.3779297,-0.07324219
3622,-53.375,-13.6875,-158.8125,0.609375,1.617188,-0.1743164,-0.03076172,-0.3793945,-0.07861328
3626,-47.875,-6.125,-166.875,0.5161133,1.733887,-0.1860352,-0.0234375,-0.3793945,-0.08007813
3630,-58.875,-12.75,-168,0.4350586,1.831055,-0.1860352,-0.005859375,-0.3818359,-0.08691406
3634,-79.125,-28.125,-165.5625,0.4155273,1.88916,-0.2207031,0.006835938,-0.3833008,-0.09375
3638,-97.625,-37.5,-164.9375,0.5009766,1.791992,-0.2016602,0.02001953,-0.3803711,-0.09765625
3643,-103,-36.625,-168.4375,0.559082,1.687012,-0.2363281,0.03662109,-0.3769531,-0.105957
3647,-97,-28.4375,-174.1875,0.6289063,1.543457,-0.1938477,0.05078125,-0.371582,-0.1181641
3651,-85.1875,-11.375,-177.1875,0.6328125,1.504395,-0.1977539,0.06152344,-0.371582,-0.125
3655,-77.3125,-1.8125,-181.375,0.4619141,1.481445,-0.2475586,0.07714844,-0.3642578,-0.1333008
3659,-76.625,-6.5,-180.625,0.3496094,1.46582,-0.2553711,0.09521484,-0.359375,-0.1386719
3663,-82.375,-16.5625,-174.9375,0.2993164,1.477539,-0.2900391,0.1044922,-0.3530273,-0.1425781
3667,-87.1875,-24.625,-174,0.3227539,1.337402,-0.2324219,0.1210938,-0.3457031,-0.1508789
3671,-82,-22.375,-175.625,0.3847656,1.255859,-0.2705078,0.1357422,-0.3369141,-0.1577148
3675,-73.5625,-18.0625,-182.375,0.3999023,1.120117,-0.2055664,0.144043,-0.3291016,-0.1645508
3679,-68.6875,-17.0625,-182.0625,0.3652344,0.9995117,-0.1860352,0.1591797,-0.3154297,-0.1699219
3683,-63.1875,-19.25,-172.0625,0.4116211,0.8481445,-0.1245117,0.1738281,-0.3056641,-0.175293
3687,-57.4375,-15.1875,-165.625,0.4077148,0.777832,-0.1166992,0.1806641,-0.2954102,-0.1767578
3691,-54.125,-14.75,-156.8125,0.3613281,0.6694336,-0.07861328,0.1938477,-0.2832031,-0.1821289
3695,-47,-13.75,-146.625,0.2797852,0.5488281,-0.009277344,0.203125,-0.2729492,-0.1875
3699,-34.3125,-9.6875,-139.4375,0.3032227,0.6108398,0.1210938,0.2070313,-0.2641602,-0.1904297
3703,-33,0.9375,-135.6875,0.2026367,0.6420898,0.1518555,0.2177734,-0.2543945,-0.1918945
3707,-36.5625,3.875,-130.25,0.09033203,0.6811523,0.1674805,0.2236328,-0.2416992,-0.1943359
3711,-51.6875,0.875,-119,0.01660156,0.7080078,0.1367188,0.2294922,-0.2358398,-0.1958008
3715,-65.125,-4.25,-106.375,-0.1225586,0.5136719,0.07128906,0.2368164,-0.2231445,-0.1987305
3719,-60.3125,-6.1875,-107,-0.08398438,0.3544922,0.05957031,0.2412109,-0.2119141,-0.2011719
3723,-47.125,1.4375,-104.0625,-0.07617188,0.2148438,0.06738281,0.2451172,-0.2045898,-0.2041016
3727,-31.25,9,-96.6875,-0.1845703,0.1835938,0.04785156,0.2475586,-0.1943359,-0.2055664
3731,-24.375,5.1875,-87.25,-0.2773438,0.237793,0.06738281,0.2543945,-0.1845703,-0.206543
3735,-30.8125,-2.375,-74.875,-0.3354492,0.3081055,0.1020508,0.2558594,-0.1791992,-0.2080078
3739,-35.0625,-10.4375,-67.8125,-0.3164063,0.269043,0.1674805,0.2568359,-0.171875,-0.2080078
3743,-39.75,-6.9375,-64.375,-0.2583008,0.253418,0.1713867,0.2602539,-0.1621094,-0.2094727
3747,-41.375,-3.625,-65.625,-0.2504883,0.07470703,0.1674805,0.2617188,-0.1567383,-0.2109375
3751,-34.75,0.5625,-58.125,-0.1806641,-0.06054688,0.1479492,0.2626953,-0.1494141,-0.2119141
3755,-25.875,7.25,-44.6875,-0.2426758,-0.1499023,0.1020508,0.2641602,-0.1445313,-0.2119141
3759,-15.375,6.9375,-35.625,-0.2851563,-0.1459961,0.1132813,0.2626953,-0.1396484,-0.2094727
3763,-15.875,5.5,-24.375,-0.3354492,-0.1694336,0.07519531,0.2641602,-0.1367188,-0.2133789
3767,-10.375,-3.0625,-13.625,-0.3242188,-0.2084961,0.05957031,0.2651367,-0.1357422,-0.2133789
3772,-7.625,-4.1875,-2.75,-0.2890625,-0.2084961,0.09814453,0.2675781,-0.1333008,-0.2119141
3776,1.0625,0,4.25,-0.3125,-0.2314453,0.1289063,0.2666016,-0.1318359,-0.2119141
3780,12.25,2.875,9.625,-0.4052734,-0.1850586,0.1020508,0.2666016,-0.1333008,-0.2133789
3784,21.625,1.1875,15.125,-0.3745117,-0.09179688,0.1210938,0.2675781,-0.1342773,-0.2119141
3788,24.3125,0.3125,25.4375,-0.3510742,0.04003906,0.1943359,0.2675781,-0.1367188,-0.2119141
3792,19.4375,1.1875,38.875,-0.4248047,0.1445313,0.2329102,0.2641602,-0.1420898,-0.2119141
3796,13.9375,-2.25,42.625,-0.4946289,0.1875,0.1826172,0.2641602,-0.1445313,-0.2109375
3800,14.8125,-2.75,46.75,-0.4594727,0.1640625,0.159668,0.2626953,-0.1494141,-0.2109375
3804,20.8125,0.5,53.375,-0.4404297,0.1484375,0.1713867,0.2626953,-0.1542969,-0.2109375
3808,32.125,7.25,54.625,-0.4711914,0.2299805,0.1289063,0.2602539,-0.1591797,-0.2109375
3812,42.75,8.125,52.75,-0.5214844,0.2807617,0.1328125,0.2592773,-0.1669922,-0.2080078
3816,46,9.5,54.875,-0.4711914,0.4282227,0.1904297,0.2592773,-0.1733398,-0.206543
3820,41,10.0625,56.625,-0.5527344,0.5058594,0.1787109,0.2568359,-0.1767578,-0.2055664
3824,33.25,3.375,57,-0.5214844,0.5410156,0.1674805,0.2543945,-0.1845703,-0.2026367
3828,27.5625,-1.0625,64.875,-0.4829102,0.5019531,0.1787109,0.2519531,-0.1904297,-0.2011719
3832,23.4375,-2.8125,71.25,-0.4594727,0.4946289,0.1479492,0.2519531,-0.1967773,-0.1987305
3836,28.4375,-2.625,74.3125,-0.4169922,0.4555664,0.1479492,0.2475586,-0.2045898,-0.2011719
3840,39.875,1.875,76.75,-0.4091797,0.4594727,0.1328125,0.2436523,-0.2094727,-0.1987305
3844,52.875,5.125,74.25,-0.3823242,0.5839844,0.1674805,0.2436523,-0.2182617,-0.1958008
3848,50.0625,9.1875,74.0625,-0.3320313,0.7197266,0.2060547,0.2412109,-0.2246094,-0.1928711
3852,35.8125,7,81,-0.4555664,0.7895508,0.125,0.2353516,-0.2329102,-0.1904297
3856,22.9375,-10.6875,85.625,-0.4365234,0.7705078,0.1132813,0.230957,-0.2368164,-0.1865234
3860,11.625,-17.4375,91.5625,-0.2543945,0.6811523,0.1328125,0.2270508,-0.2470703,-0.1904297
3864,17.8125,-12.75,96.125,-0.1533203,0.5253906,0.1518555,0.2202148,-0.2543945,-0.1889648
3868,33.3125,-2,96.125,-0.1186523,0.6069336,0.09814453,0.2163086,-0.2583008,-0.1889648
3872,32,-1.6875,96.625,-0.1381836,0.7895508,0.03662109,0.2094727,-0.265625,-0.1875
3876,20.3125,-11.4375,110.1875,-0.1650391,0.7275391,-0.009277344,0.2021484,-0.2744141,-0.1865234
3880,17.9375,-21.625,113.25,-0.1147461,0.7001953,0.02490234,0.1962891,-0.2792969,-0.1835938
3884,25.6875,-19.0625,117.1875,0.03564453,0.5644531,0.01367188,0.1879883,-0.2880859,-0.1850586
3888,46.5,-12.8125,119.375,0.1015625,0.6772461,0.05566406,0.1782227,-0.2929688,-0.1835938
3892,52.8125,-5.5,121.875,0.1484375,0.8710938,0.06347656,0.1713867,-0.3007813,-0.1821289
3896,40.3125,-9.4375,124.5625,0.08642578,1.007324,0.02880859,0.1616211,-0.3081055,-0.1782227
3901,33.625,-15.75,136.625,0.1831055,0.7973633,0.03271484,0.1499023,-0.3154297,-0.1782227
3905,56.125,-4.4375,134.0625,0.3110352,0.7817383,0.009765625,0.144043,-0.3232422,-0.1738281
3909,86.75,21.25,124.5,0.3535156,0.875,-0.009277344,0.1333008,-0.3330078,-0.1699219
3913,95.1875,34.375,119.3125,0.2026367,1.205566,-0.07080078,0.1210938,-0.3393555,-0.1606445
3917,61.875,18.625,127.75,0.04345703,1.469727,-0.1206055,0.1152344,-0.3442383,-0.1577148
3921,12.375,-21.25,151.25,-0.04492188,1.225098,-0.2016602,0.1035156,-0.3505859,-0.1523438
3925,17.8125,-44.375,162.25,0.2685547,0.855957,-0.1743164,0.08886719,-0.3554688,-0.1538086
3929,55.4375,-30.625,158.125,0.6791992,0.8945313,-0.08984375,0.07617188,-0.3579102,-0.1484375
3933,92.25,14.125,147.4375,0.8149414,1.069336,-0.07470703,0.06054688,-0.3642578,-0.1455078
3937,103.5,47.3125,131.5625,0.5356445,1.310547,-0.1054688,0.04882813,-0.3706055,-0.1386719
3941,93.6875,52.625,129.5625,0.3305664,1.380371,-0.2475586,0.04248047,-0.371582,-0.1289063
3945,88.3125,40.375,135.1875,0.1674805,1.349121,-0.3359375,0.02978516,-0.3745117,-0.1210938
3949,100.125,26.3125,139.125,0.2490234,1.388184,-0.3359375,0.01904297,-0.3779297,-0.1113281
3953,107.8125,27.5625,132.5625,0.2954102,1.671875,-0.2553711,0.009277344,-0.3793945,-0.1074219
3957,91.75,22.3125,125.375,0.1791992,1.834961,-0.2089844,-0.003417969,-0.3818359,-0.09521484
3961,57.0625,2,123.875,0.1132813,1.788086,-0.1743164,-0.01269531,-0.3803711,-0.08837891
3965,45.0625,-10.875,125.1875,0.3457031,1.555176,-0.09765625,-0.02099609,-0.3803711,-0.08300781
3969,59.125,4.8125,118.5,0.5356445,1.493164,-0.08203125,-0.03173828,-0.3803711,-0.07861328
3973,76.125,28.1875,98.3125,0.5087891,1.570801,-0.0859375,-0.04248047,-0.3793945,-0.07324219
3977,73.1875,39.875,84.8125,0.3808594,1.644531,-0.128418,-0.04833984,-0.3779297,-0.06933594
3981,51,29.875,88.25,0.2138672,1.640625,-0.1860352,-0.05566406,-0.3779297,-0.0625
3985,26.875,8.875,94.4375,0.2373047,1.49707,-0.1977539,-0.06298828,-0.3754883,-0.05957031
3989,24.5625,1.5,100.4375,0.3535156,1.395996,-0.2363281,-0.06884766,-0.3754883,-0.05712891
3993,32.0625,1.6875,94.875,0.3808594,1.407715,-0.1977539,-0.08056641,-0.371582,-0.05566406
3997,27.5625,2.1875,86.125,0.3574219,1.500488,-0.1899414,-0.08789063,-0.3706055,-0.05029297
4001,11.5,-4.9375,83.9375,0.3071289,1.500488,-0.1821289,-0.09228516,-0.3666992,-0.05029297
4005,-13.375,-20.75,83.3125,0.3071289,1.426758,-0.1977539,-0.09863281,-0.3681641,-0.04882813
4009,-25.75,-29.6875,81.5625,0.4428711,1.174316,-0.1630859,-0.1069336,-0.3618164,-0.04882813
4013,-14,-20,75.875,0.5473633,0.9956055,-0.1743164,-0.1137695,-0.3618164,-0.04882813
4017,17.375,0.6875,57.1875,0.5859375,0.972168,-0.1821289,-0.1186523,-0.359375,-0.05029297
4021,44.25,23.8125,32.0625,0.5820313,1.108398,-0.1552734,-0.1235352,-0.3569336,-0.04736328
4025,49.875,37.6875,18.9375,0.4814453,1.193848,-0.128418,-0.1235352,-0.3569336,-0.04492188
4030,39.125,32.875,21.375,0.3886719,1.263672,-0.1015625,-0.1245117,-0.3579102,-0.04345703
4034,24.3125,26.25,26.875,0.3999023,1.279297,-0.06689453,-0.1245117,-0.3544922,-0.04199219
4038,14.25,24.625,24,0.3613281,1.294922,-0.0859375,-0.1269531,-0.3530273,-0.04052734
