Packet number,Gyroscope X (deg/s),Gyroscope Y (deg/s),Gyroscope Z (deg/s),Accelerometer X (g),Accelerometer Y (g),Accelerometer Z (g),Magnetometer X (G),Magnetometer Y (G),Magnetometer Z (G)
1,0.25,-1.1875,-0.4375,0.9658203,0.1333008,-0.1708984,-0.2924805,-0.1791992,-0.06103516
5,3.75,-1.4375,-0.9375,0.9775391,0.1523438,-0.1630859,-0.2915039,-0.1782227,-0.05957031
9,4.5625,-0.1875,-1.1875,1.000488,0.171875,-0.1552734,-0.2924805,-0.1791992,-0.06103516
13,2.5625,-0.375,0.0625,0.9697266,0.1914063,-0.1552734,-0.2924805,-0.1782227,-0.05957031
17,-1,-1.9375,0.1875,0.9658203,0.1953125,-0.1513672,-0.2900391,-0.1791992,-0.05957031
21,-1.9375,-1.875,-0.9375,0.9775391,0.1914063,-0.1513672,-0.2900391,-0.1782227,-0.05957031
25,-1.375,-1.6875,-2.375,0.9892578,0.1640625,-0.1708984,-0.293457,-0.1767578,-0.05957031
29,-0.6875,-1.4375,-0.0625,0.9892578,0.140625,-0.1591797,-0.2924805,-0.1791992,-0.05859375
33,1.125,-1.625,0.9375,0.9853516,0.140625,-0.1630859,-0.2924805,-0.1791992,-0.05957031
37,1.9375,-1,-0.4375,0.9736328,0.1679688,-0.1708984,-0.2924805,-0.1791992,-0.05712891
41,2,-3,-1.25,0.9619141,0.1796875,-0.1743164,-0.2915039,-0.1782227,-0.05957031
46,1.5,-3.1875,-1.375,0.9892578,0.1875,-0.1630859,-0.293457,-0.1791992,-0.05957031
50,0.75,-1.4375,-2.625,0.9931641,0.1796875,-0.1552734,-0.2900391,-0.1791992,-0.05859375
54,1.5,-2,-4.0625,0.9736328,0.1679688,-0.1708984,-0.2924805,-0.1782227,-0.05859375
58,3.375,-3.1875,-4.875,0.9892578,0.1640625,-0.1821289,-0.2900391,-0.1791992,-0.05957031
62,6.1875,-2.5,-4.625,1.008301,0.15625,-0.1743164,-0.2900391,-0.1791992,-0.05566406
66,9.1875,-2.25,-4,1.008301,0.1679688,-0.1708984,-0.2900391,-0.1806641,-0.05859375
70,9.375,-1.6875,-3.1875,1.000488,0.2338867,-0.1708984,-0.2900391,-0.1831055,-0.05566406
74,6.5,-1.875,-4.25,1.004395,0.2729492,-0.1708984,-0.2915039,-0.1821289,-0.05566406
78,4.5625,0.0625,-4.125,0.9931641,0.3041992,-0.1708984,-0.2915039,-0.1806641,-0.05419922
82,5.75,0.625,-6.8125,0.9853516,0.3623047,-0.1899414,-0.2890625,-0.1821289,-0.05566406
86,7.9375,-0.5,-11.6875,1.000488,0.4477539,-0.1899414,-0.2924805,-0.1821289,-0.05566406
90,10.875,0.125,-15.4375,1.023926,0.5214844,-0.1708984,-0.2900391,-0.1845703,-0.05566406
94,13,4.6875,-23,1.055176,0.6923828,-0.1630859,-0.2890625,-0.1855469,-0.05419922
98,8.375,6.125,-33.4375,0.9541016,0.8598633,-0.2128906,-0.2890625,-0.1879883,-0.05419922
102,9.6875,-1.6875,-46.625,0.9814453,0.8945313,-0.2128906,-0.2875977,-0.1904297,-0.05566406
106,24.5,-2.3125,-57.4375,1.097656,0.9799805,-0.2246094,-0.2851563,-0.1967773,-0.05419922
110,41.875,-1.3125,-73.1875,1.085938,1.228516,-0.2553711,-0.2827148,-0.2006836,-0.05273438
114,44.3125,-6.9375,-95.125,1.039551,1.430664,-0.2670898,-0.2792969,-0.2055664,-0.05175781
118,39.375,-13.6875,-110.625,1.159668,1.493164,-0.2436523,-0.2744141,-0.2182617,-0.04882813
122,33.3125,-14.1875,-122,1.244629,1.636719,-0.2592773,-0.2685547,-0.2231445,-0.04638672
126,14.8125,-17.375,-138.6875,1.244629,1.776367,-0.2631836,-0.2626953,-0.234375,-0.04345703
130,-25.8125,-23.0625,-144.5,1.283691,1.908691,-0.3168945,-0.2578125,-0.2441406,-0.04345703
134,-67.1875,-28.25,-152.25,1.395996,1.76123,-0.3168945,-0.2519531,-0.2529297,-0.04345703
138,-89.125,-28.3125,-162.6875,1.492676,1.531738,-0.3554688,-0.2412109,-0.265625,-0.04736328
142,-85.75,-26.25,-176.25,1.589844,1.310547,-0.378418,-0.2329102,-0.2783203,-0.05175781
146,-75.3125,-19.4375,-184.75,1.644043,1.255859,-0.3706055,-0.2255859,-0.2866211,-0.05273438
150,-78.125,-20.125,-193.0625,1.582031,1.275391,-0.3745117,-0.2128906,-0.2954102,-0.05566406
154,-84.375,-21.6875,-200.6875,1.663574,1.174316,-0.3515625,-0.2006836,-0.3105469,-0.0625
158,-88,-17.25,-206.25,1.706055,1.084961,-0.3325195,-0.1889648,-0.3178711,-0.06787109
162,-87.9375,-11.625,-208.4375,1.72168,0.9995117,-0.309082,-0.1748047,-0.328125,-0.07324219
166,-93.1875,-7.625,-207.5625,1.678711,0.9604492,-0.2783203,-0.1557617,-0.3393555,-0.08007813
170,-94.375,-2.125,-209.4375,1.647949,0.8286133,-0.2978516,-0.1450195,-0.3457031,-0.08544922
175,-82.875,3.1875,-211.75,1.585938,0.6772461,-0.2631836,-0.128418,-0.3530273,-0.09521484
179,-65.8125,9.4375,-208.1875,1.527832,0.6499023,-0.2363281,-0.1069336,-0.3618164,-0.1020508
183,-60.75,13.875,-204.375,1.384277,0.7080078,-0.2514648,-0.09375,-0.3666992,-0.1044922
187,-64.75,12.9375,-199.8125,1.268066,0.6923828,-0.2436523,-0.07568359,-0.371582,-0.1113281
191,-61.75,14,-195.8125,1.206055,0.6069336,-0.2553711,-0.05419922,-0.3769531,-0.1157227
195,-51.5,14.5625,-193.4375,1.105469,0.5566406,-0.2285156,-0.04150391,-0.3754883,-0.1166992
199,-40.375,13.625,-188.5625,1.02002,0.6186523,-0.2089844,-0.02246094,-0.3793945,-0.125
203,-46,10.625,-184.9375,0.9462891,0.7080078,-0.1362305,-0.003417969,-0.3779297,-0.125
207,-63.9375,10.0625,-179.125,0.8652344,0.6303711,-0.09765625,0.01074219,-0.3793945,-0.1333008
211,-76.25,13.1875,-170.25,0.7915039,0.4829102,-0.08203125,0.02734375,-0.3754883,-0.137207
215,-75,16.9375,-160.625,0.7177734,0.284668,-0.09765625,0.04394531,-0.3730469,-0.1469727
219,-60.625,20.1875,-148.5625,0.6132813,0.1992188,-0.112793,0.05712891,-0.3681641,-0.1508789
223,-47.5625,20.6875,-142.25,0.4970703,0.1679688,-0.07080078,0.07128906,-0.3657227,-0.1547852
227,-42.875,19.375,-134.3125,0.4272461,0.171875,-0.05908203,0.08447266,-0.359375,-0.1591797
231,-45.0625,20.1875,-121.9375,0.3339844,0.1992188,0.01367188,0.09277344,-0.3554688,-0.1616211
235,-56.9375,20.4375,-106.25,0.2607422,0.2070313,0.04052734,0.1035156,-0.3505859,-0.1645508
239,-66.75,22.3125,-91.75,0.175293,0.1523438,0.04443359,0.1142578,-0.3457031,-0.1713867
243,-68.375,21.4375,-82.1875,0.07861328,0.03613281,0.02099609,0.1201172,-0.3417969,-0.1728516
247,-56.75,24.8125,-77.6875,0.03173828,-0.08398438,0.04443359,0.1269531,-0.3344727,-0.1796875
251,-44.3125,26.4375,-72.125,-0.05664063,-0.1269531,-0.001464844,0.1357422,-0.3291016,-0.1835938
255,-33.9375,24.25,-58.9375,-0.1381836,-0.1577148,-0.009277344,0.1401367,-0.3256836,-0.1821289
259,-28.3125,19.4375,-46.375,-0.215332,-0.1459961,-0.02441406,0.1459961,-0.3232422,-0.1835938
263,-21.75,15,-31.9375,-0.246582,-0.1538086,-0.02832031,0.1499023,-0.3178711,-0.1835938
267,-15.25,11.6875,-22.8125,-0.2661133,-0.1694336,-0.03613281,0.1533203,-0.3178711,-0.1865234
271,-8.4375,7.8125,-12.375,-0.3164063,-0.2006836,-0.06298828,0.1547852,-0.3168945,-0.1835938
275,0.5625,2.5,-0.625,-0.3007813,-0.2353516,-0.02441406,0.1547852,-0.3154297,-0.1875
279,7.375,2.5,12.875,-0.2773438,-0.2353516,-0.02832031,0.1547852,-0.3154297,-0.1875
283,17.5,-0.75,29.375,-0.3125,-0.1928711,-0.05517578,0.1557617,-0.3154297,-0.1850586
287,22,-5.875,40.375,-0.2890625,-0.08789063,-0.03222656,0.1523438,-0.3178711,-0.1835938
291,19.25,-9.25,49.625,-0.2001953,-0.002441406,-0.02050781,0.1474609,-0.3208008,-0.1821289
295,13.4375,-10.9375,63.0625,-0.1303711,0.02441406,-0.01660156,0.144043,-0.3242188,-0.1835938
299,13.75,-14,76.5,-0.1342773,0.02441406,-0.03613281,0.1367188,-0.328125,-0.1806641
304,26.5,-19.0625,81.5625,-0.05664063,0.01660156,-0.03613281,0.1333008,-0.3305664,-0.1821289
308,42.125,-17.9375,86.6875,0.03173828,0.09423828,-0.03613281,0.1259766,-0.3369141,-0.1796875
312,46.5625,-18.8125,92.9375,0.109375,0.2416992,-0.01660156,0.1176758,-0.3408203,-0.1767578
316,38.75,-16.8125,105.625,0.159668,0.2573242,0.009765625,0.1103516,-0.3432617,-0.1699219
320,22.75,-21.4375,115.8125,0.1635742,0.4516602,-0.03222656,0.09765625,-0.3481445,-0.1728516
324,26.1875,-26.9375,122.25,0.2646484,0.3193359,-0.06689453,0.08691406,-0.3544922,-0.1699219
328,46,-25.375,124.5,0.4038086,0.3857422,-0.06689453,0.07861328,-0.3579102,-0.1674805
332,49.875,-22.625,126.8125,0.3999023,0.5878906,-0.08203125,0.06640625,-0.3603516,-0.1630859
336,37.1875,-28.5,133.8125,0.4541016,0.7041016,-0.06298828,0.05224609,-0.3642578,-0.1606445
340,23.6875,-30.6875,138.8125,0.6054688,0.6303711,-0.02050781,0.04248047,-0.3657227,-0.1591797
344,38.375,-26.6875,148.4375,0.659668,0.6845703,-0.03613281,0.02734375,-0.3681641,-0.1577148
348,48.8125,-26.75,145.3125,0.6557617,0.875,-0.06689453,0.01269531,-0.3706055,-0.1523438
352,34.4375,-30.125,140.4375,0.6870117,1.026855,-0.05908203,0.003417969,-0.371582,-0.1494141
356,6.75,-36.875,141.0625,0.7993164,0.9179688,-0.005371094,-0.01171875,-0.3706055,-0.1484375
360,12.375,-37.8125,155.5,0.8457031,0.7080078,-0.06298828,-0.02832031,-0.3691406,-0.1455078
364,34.6875,-40.0625,156,0.9155273,0.7041016,-0.02832031,-0.03759766,-0.3681641,-0.1455078
368,59.8125,-36.5,158.25,1.016113,0.8129883,-0.04003906,-0.05566406,-0.3681641,-0.1416016
372,66.0625,-30.4375,158,1.004395,1.150879,-0.04736328,-0.07128906,-0.3618164,-0.1357422
376,39.6875,-31.625,151.6875,0.9814453,1.353027,-0.04003906,-0.08203125,-0.3632813,-0.1303711
380,13.3125,-34.4375,147.9375,1.043457,1.158691,-0.04003906,-0.09716797,-0.3569336,-0.1264648
384,20.875,-33.75,141.75,1.144043,0.7973633,-0.05126953,-0.1113281,-0.3520508,-0.1235352
388,63.5,-24.5625,140.0625,1.229492,0.7275391,-0.07470703,-0.1210938,-0.3491211,-0.1196289
392,87.875,-9.5625,135.5625,1.19043,0.9956055,-0.1245117,-0.1328125,-0.3457031,-0.1142578
396,69.875,-6.8125,135.1875,1.074219,1.240234,-0.1821289,-0.1459961,-0.3378906,-0.105957
400,38.8125,-10.4375,140.9375,0.9814453,1.279297,-0.3129883,-0.1542969,-0.3344727,-0.1035156
404,13.625,-27.1875,137.1875,0.9736328,1.061523,-0.3129883,-0.1650391,-0.3266602,-0.1005859
408,20.8125,-33.6875,132.9375,1.144043,0.793457,-0.2631836,-0.1772461,-0.3193359,-0.09912109
412,42.1875,-31.25,127.9375,1.213867,0.6694336,-0.2055664,-0.184082,-0.3154297,-0.09228516
416,62.6875,-21.5,126.625,1.287598,0.7431641,-0.128418,-0.1938477,-0.3066406,-0.09082031
420,69.4375,-8,132.0625,1.171387,0.953125,-0.2167969,-0.2045898,-0.3007813,-0.08154297
424,62.5625,-12.25,123.4375,1.012207,1.088867,-0.2436523,-0.2080078,-0.2954102,-0.07861328
428,62.0625,-16.0625,113.9375,1.066406,1.003418,-0.2514648,-0.2172852,-0.2880859,-0.07324219
433,70.1875,-10.5625,105.4375,0.9970703,0.956543,-0.2397461,-0.2246094,-0.2832031,-0.06933594
437,78.9375,-12.3125,95.125,0.9462891,0.9682617,-0.3051758,-0.2280273,-0.2768555,-0.06542969
441,86.1875,-13.0625,84.8125,1.035645,0.9643555,-0.3208008,-0.2353516,-0.2705078,-0.05957031
445,89.375,-12.875,77.5,1.066406,1.022949,-0.34375,-0.2402344,-0.265625,-0.05029297
449,85.3125,-16.9375,74.8125,1.105469,1.069336,-0.3129883,-0.2426758,-0.2617188,-0.04638672
453,73,-16.1875,71.875,1.163574,1.112305,-0.2285156,-0.2460938,-0.2568359,-0.04052734
457,53,-13.5,69.0625,1.132324,1.112305,-0.2089844,-0.2509766,-0.2519531,-0.03369141
461,32.9375,-14.25,68.625,1.13623,1.04248,-0.2016602,-0.2553711,-0.2495117,-0.03271484
465,21.125,-12.875,65.4375,1.151855,0.9375,-0.2055664,-0.2568359,-0.2441406,-0.02832031
469,28.1875,-10.0625,56.5625,1.175293,0.7817383,-0.2285156,-0.2617188,-0.2382813,-0.02734375
473,42.9375,-5.375,50,1.179199,0.855957,-0.2324219,-0.2636719,-0.2368164,-0.02441406
477,38,-2.25,45.625,1.117188,1.038574,-0.1552734,-0.2675781,-0.2319336,-0.02294922
481,17.125,0.875,41.5625,1.085938,1.124023,-0.1362305,-0.2700195,-0.2280273,-0.01904297
485,-2.875,5.625,35.125,1.027832,1.061523,-0.1474609,-0.2700195,-0.2270508,-0.01904297
489,-12.875,9.0625,27.25,0.9775391,0.9643555,-0.1899414,-0.2700195,-0.2231445,-0.02148438
493,-14,11.25,19.5625,0.9272461,0.855957,-0.2436523,-0.2734375,-0.2216797,-0.02148438
497,3.9375,12.75,7.6875,0.8803711,0.7895508,-0.2900391,-0.2724609,-0.2207031,-0.02148438
501,18.3125,12.25,-6,0.8149414,0.8984375,-0.3359375,-0.2734375,-0.2216797,-0.02294922
505,16.5625,7.1875,-14.8125,0.8261719,1.061523,-0.3208008,-0.2724609,-0.2216797,-0.02441406
509,1.9375,4.25,-23.1875,0.8574219,1.146973,-0.3208008,-0.2734375,-0.2207031,-0.02294922
513,-8.1875,4.125,-29.6875,0.9155273,1.116211,-0.34375,-0.2700195,-0.2231445,-0.02441406
517,-1.25,7.6875,-44.25,0.9038086,1.124023,-0.4208984,-0.2685547,-0.2255859,-0.02587891
521,6.25,7.125,-62.1875,0.8417969,1.17041,-0.4824219,-0.2661133,-0.2294922,-0.02587891
525,3.625,-3.125,-70.25,0.7255859,1.294922,-0.5478516,-0.2626953,-0.234375,-0.02441406
529,-9.875,-18.8125,-75.375,0.7875977,1.337402,-0.5283203,-0.2602539,-0.2407227,-0.02441406
533,-21.6875,-25.125,-81.1875,0.9350586,1.353027,-0.4516602,-0.2568359,-0.2441406,-0.02294922
537,-28.5625,-25.875,-89.5,1.047363,1.384277,-0.3974609,-0.2543945,-0.2519531,-0.02294922
541,-31.875,-24.125,-99,1.151855,1.473633,-0.34375,-0.2470703,-0.2592773,-0.02294922
545,-39.5,-21.8125,-112.75,1.171387,1.555176,-0.359375,-0.2436523,-0.2641602,-0.02441406
549,-48.25,-22.5,-126.25,1.229492,1.578613,-0.3706055,-0.2363281,-0.2744141,-0.02587891
553,-62.9375,-22.3125,-135.8125,1.291504,1.59375,-0.3745117,-0.2294922,-0.2832031,-0.02734375
557,-77.9375,-21.3125,-141.625,1.372559,1.566895,-0.3359375,-0.2211914,-0.2895508,-0.02978516
562,-92.75,-17.4375,-150.5,1.399902,1.508301,-0.34375,-0.2114258,-0.2983398,-0.03369141
566,-101.875,-11.75,-156.1875,1.438477,1.399902,-0.359375,-0.203125,-0.3095703,-0.04052734
570,-110.6875,-7.9375,-162.5,1.438477,1.325684,-0.3823242,-0.1962891,-0.3129883,-0.04492188
574,-113.1875,-4.875,-169.4375,1.461914,1.248047,-0.4052734,-0.1816406,-0.3242188,-0.05419922
578,-110.8125,-1.4375,-177.5625,1.484863,1.12793,-0.3862305,-0.1699219,-0.3320313,-0.06542969
582,-101.875,6.375,-182.3125,1.492676,1.049805,-0.359375,-0.1591797,-0.3378906,-0.07080078
586,-100.8125,10.125,-180.75,1.407715,1.09668,-0.359375,-0.1450195,-0.3491211,-0.08154297
590,-110.5625,10.5625,-180.4375,1.372559,1.131836,-0.378418,-0.128418,-0.3544922,-0.08984375
594,-118.25,10.1875,-183.5,1.341797,0.953125,-0.359375,-0.1176758,-0.359375,-0.09667969
598,-111,12.4375,-184.1875,1.318359,0.793457,-0.3554688,-0.09960938,-0.3657227,-0.1088867
602,-95.1875,15.5625,-185.3125,1.26416,0.7197266,-0.3286133,-0.08056641,-0.3681641,-0.1166992
606,-81.125,18.3125,-185.625,1.163574,0.7392578,-0.2978516,-0.06884766,-0.3706055,-0.1225586
610,-79.9375,17.5625,-182.4375,1.109375,0.7705078,-0.2363281,-0.04980469,-0.3730469,-0.1303711
614,-87.4375,19,-175.0625,1.055176,0.7392578,-0.1977539,-0.03076172,-0.3745117,-0.1401367
618,-94.125,20.875,-167.5625,0.9580078,0.7275391,-0.2016602,-0.01855469,-0.3730469,-0.1455078
622,-96.9375,20.5625,-165.5625,0.8574219,0.5878906,-0.1977539,-0.0009765625,-0.3706055,-0.1547852
626,-77.75,24.875,-173,0.8071289,0.3740234,-0.1860352,0.01513672,-0.3666992,-0.1645508
630,-37.8125,31.3125,-180.875,0.6791992,0.1679688,-0.1552734,0.02587891,-0.3632813,-0.1645508
634,-13.625,30.6875,-174.0625,0.5161133,0.3081055,-0.1782227,0.04638672,-0.3603516,-0.168457
638,-23,19.3125,-153.1875,0.3999023,0.4086914,-0.1323242,0.06396484,-0.359375,-0.1713867
642,-38.125,10.1875,-136.3125,0.4116211,0.3662109,-0.09765625,0.07226563,-0.3579102,-0.1728516
646,-36.5,10.625,-126.4375,0.3535156,0.2456055,-0.07470703,0.08447266,-0.3520508,-0.1738281
650,-31.3125,8.5,-117.625,0.2875977,0.253418,-0.02832031,0.09765625,-0.3466797,-0.1782227
654,-36,9.0625,-111.4375,0.2373047,0.253418,0.02490234,0.1035156,-0.3432617,-0.1782227
658,-43.375,8.8125,-100.0625,0.1831055,0.1523438,0.03662109,0.1142578,-0.3408203,-0.1821289
662,-43.5,9.875,-90.9375,0.1635742,-0.02197266,0.04443359,0.1235352,-0.3330078,-0.1821289
666,-33.8125,15.1875,-73.3125,0.08642578,-0.1381836,0.02880859,0.128418,-0.3305664,-0.1865234
670,-23.75,14.5625,-59.875,-0.06835938,-0.1230469,-0.02832031,0.1342773,-0.3256836,-0.1904297
674,-13.75,7.1875,-48.1875,-0.1264648,-0.1420898,-0.009277344,0.1401367,-0.3217773,-0.1904297
678,-4.5625,6.9375,-38.8125,-0.09130859,-0.08007813,0.06347656,0.144043,-0.3193359,-0.1918945
682,-8.3125,9.4375,-27.75,-0.1572266,-0.02978516,0.05566406,0.1459961,-0.3178711,-0.1928711
686,-11.75,4,-14.375,-0.2192383,-0.05273438,0.03271484,0.1484375,-0.3178711,-0.1918945
691,-4.1875,0.125,-5.625,-0.1459961,-0.1152344,0.05175781,0.1474609,-0.3129883,-0.1918945
695,6,4.25,3.1875,-0.1186523,-0.09570313,0.07128906,0.1484375,-0.3154297,-0.1928711
699,10.5625,2.4375,17.625,-0.2001953,-0.04882813,0.06738281,0.1484375,-0.3154297,-0.1904297
703,8.0625,-0.0625,31,-0.1572266,0.04736328,0.08251953,0.1459961,-0.3178711,-0.1889648
707,2.625,-1,42.3125,-0.1420898,0.05126953,0.06347656,0.144043,-0.3168945,-0.1889648
711,4.1875,-3.125,54.25,-0.1264648,0.02050781,0.04443359,0.1391602,-0.3208008,-0.1889648
715,10.75,-3.3125,61.5,-0.06835938,0.04736328,0.04443359,0.1376953,-0.3256836,-0.1904297
719,25,-2.5,69.125,-0.05273438,0.05517578,0.001953125,0.1318359,-0.3266602,-0.1889648
723,34.9375,-4.8125,72.625,-0.01025391,0.1640625,0.01708984,0.125,-0.3320313,-0.1865234
727,32,-2.625,78.8125,0.07080078,0.1914063,0.03662109,0.1225586,-0.3344727,-0.1835938
731,23.5625,-3.25,90.8125,0.03955078,0.1523438,-0.02832031,0.1152344,-0.3378906,-0.1796875
735,21.75,-9.4375,100.8125,0.1367188,0.105957,-0.07470703,0.1069336,-0.3432617,-0.1806641
739,25.5,-10.6875,109.5625,0.3496094,0.03613281,-0.09765625,0.09863281,-0.3457031,-0.1821289
743,40.9375,-8.375,133.6875,0.3496094,0.1020508,-0.1362305,0.08886719,-0.3505859,-0.1767578
747,47.375,-13.8125,144.625,0.3149414,0.284668,-0.1323242,0.07470703,-0.3530273,-0.1738281
751,49.6875,-15.625,140.6875,0.3847656,0.4399414,-0.1474609,0.06640625,-0.3579102,-0.1699219
755,52.4375,-18.25,140.25,0.5473633,0.3818359,-0.2016602,0.05224609,-0.3632813,-0.1630859
759,70.625,-18.6875,146.6875,0.690918,0.4399414,-0.2207031,0.03662109,-0.3666992,-0.1630859
763,85.8125,-15.375,156.1875,0.7602539,0.6538086,-0.1938477,0.02832031,-0.3681641,-0.15625
767,74.5,-13.25,165.375,0.7021484,0.953125,-0.1630859,0.009277344,-0.371582,-0.1484375
771,46.25,-20.8125,175.625,0.6948242,1.019043,-0.1708984,-0.006835938,-0.3745117,-0.1425781
775,24.875,-26.8125,184.125,0.8300781,0.9760742,-0.1591797,-0.01855469,-0.3745117,-0.1401367
779,34.9375,-26.375,189.5,0.9311523,0.8286133,-0.2128906,-0.03662109,-0.371582,-0.1357422
783,65.8125,-26.375,180.5625,1.031738,0.9101563,-0.2055664,-0.05664063,-0.3666992,-0.1333008
787,86.1875,-21.3125,168.75,1.059082,1.06543,-0.2055664,-0.06884766,-0.3691406,-0.125
791,85.625,-14.8125,160.1875,1.0625,1.213379,-0.1474609,-0.08642578,-0.3642578,-0.1181641
795,72.75,-11.375,162.375,1.016113,1.263672,-0.2397461,-0.1020508,-0.3618164,-0.1113281
799,61.5625,-18.8125,165.625,0.9736328,1.341309,-0.2285156,-0.112793,-0.359375,-0.1074219
803,55.9375,-23.5625,164.9375,1.047363,1.356934,-0.2363281,-0.128418,-0.3520508,-0.1005859
807,47.9375,-22.625,153.875,1.09375,1.395996,-0.1591797,-0.1411133,-0.3457031,-0.09667969
811,34.625,-18.9375,138,1.140137,1.294922,-0.1669922,-0.1533203,-0.3408203,-0.09228516
815,32.75,-13.8125,136.125,1.209961,1.030762,-0.1938477,-0.1625977,-0.3330078,-0.08691406
820,50.3125,-10,142.5,1.117188,0.9956055,-0.2744141,-0.1748047,-0.3266602,-0.08447266
824,66.9375,-16.125,136.9375,1.09375,1.209473,-0.3706055,-0.1791992,-0.3208008,-0.08154297
828,70,-18.375,125.25,1.151855,1.337402,-0.309082,-0.1923828,-0.3129883,-0.07470703
832,53.0625,-18.8125,111.625,1.132324,1.380371,-0.3051758,-0.2006836,-0.3056641,-0.06787109
836,36.25,-22.3125,104,1.144043,1.158691,-0.2397461,-0.2055664,-0.3007813,-0.06542969
840,28.625,-23.875,100.9375,1.198242,0.9492188,-0.2016602,-0.2138672,-0.2944336,-0.0625
844,34.5,-18.1875,103.3125,1.198242,0.7666016,-0.1591797,-0.2197266,-0.2880859,-0.05859375
848,52.6875,-12.75,102.6875,1.159668,0.7119141,-0.1552734,-0.2255859,-0.2817383,-0.05419922
852,74.5,-5.5,94.3125,1.128418,0.8442383,-0.1938477,-0.2319336,-0.2768555,-0.05029297
856,80.0625,0.875,81.9375,1.097656,1.026855,-0.2128906,-0.2363281,-0.2695313,-0.04199219
860,58.6875,0,77.25,1.004395,1.182129,-0.2744141,-0.2412109,-0.2670898,-0.04052734
864,33.8125,-7.6875,74.125,1.047363,1.034668,-0.2514648,-0.2446289,-0.2607422,-0.03662109
868,25.375,-5.4375,72.1875,1.085938,0.8364258,-0.2246094,-0.2495117,-0.2558594,-0.03662109
872,30.5,-4.25,71.1875,1.097656,0.7197266,-0.1860352,-0.253418,-0.2519531,-0.03369141
876,48.25,3.75,66.875,1.105469,0.7080078,-0.1860352,-0.2568359,-0.2480469,-0.02978516
880,64.9375,14.125,53.3125,1.043457,0.8789063,-0.2285156,-0.2602539,-0.2416992,-0.02978516
884,67.9375,15.9375,43.25,0.9658203,1.030762,-0.2475586,-0.2602539,-0.2392578,-0.02832031
888,50.875,19.1875,38.875,0.9311523,1.251953,-0.2705078,-0.2636719,-0.2407227,-0.02441406
892,20.375,12,33.9375,0.7680664,1.248047,-0.3129883,-0.2636719,-0.2319336,-0.02294922
896,9.8125,4.125,25.75,0.8222656,0.9916992,-0.3168945,-0.2661133,-0.2319336,-0.02294922
900,23.3125,5.5,19.5,0.8457031,0.9101563,-0.3286133,-0.2675781,-0.2304688,-0.02294922
904,39.5,5.6875,8.8125,0.8496094,1.06543,-0.3286133,-0.2685547,-0.2304688,-0.02050781
908,38.125,7.3125,-2.5,0.8339844,1.232422,-0.3398438,-0.2685547,-0.2280273,-0.01757813
912,24.8125,1.9375,-8.3125,0.8183594,1.380371,-0.309082,-0.2685547,-0.2304688,-0.01757813
916,0.5625,-2.5625,-18.75,0.8457031,1.49707,-0.3012695,-0.2661133,-0.2304688,-0.01464844
920,-18.9375,-4.0625,-31.25,0.9116211,1.438477,-0.3051758,-0.2685547,-0.2319336,-0.01757813
924,-21.3125,-0.375,-48.4375,0.9697266,1.368652,-0.3168945,-0.2651367,-0.2358398,-0.01904297
928,-18.625,0.5,-60.6875,0.9541016,1.411133,-0.3554688,-0.2636719,-0.2392578,-0.01904297
932,-22.3125,-1.125,-71.0625,1.000488,1.500488,-0.3398438,-0.2592773,-0.2431641,-0.02050781
936,-34.25,-0.8125,-79.5625,0.9853516,1.644531,-0.3554688,-0.2568359,-0.2480469,-0.02294922
940,-49.625,-5.3125,-94.6875,1.027832,1.671875,-0.3632813,-0.2519531,-0.2558594,-0.02441406
944,-57.125,-4.125,-113.375,1.163574,1.609375,-0.3476563,-0.2470703,-0.2592773,-0.02978516
949,-53.625,1.5625,-132.4375,1.241211,1.516113,-0.34375,-0.237793,-0.2680664,-0.02978516
953,-55.5625,4.25,-143.125,1.217773,1.58252,-0.3901367,-0.2304688,-0.2768555,-0.03369141
957,-74.375,0.375,-149.9375,1.209961,1.586426,-0.4628906,-0.2255859,-0.2856445,-0.03662109
961,-86.625,-7.125,-156.625,1.291504,1.422852,-0.4555664,-0.2138672,-0.2944336,-0.04199219
965,-86.125,-5.1875,-166.3125,1.415527,1.314453,-0.4321289,-0.2045898,-0.3041992,-0.04882813
969,-85.3125,-3.6875,-172.75,1.446289,1.251953,-0.4013672,-0.1962891,-0.3120117,-0.05273438
973,-85.75,-0.125,-176.5,1.454102,1.217285,-0.4052734,-0.1831055,-0.3193359,-0.05957031
977,-87,0.375,-180.4375,1.419434,1.150879,-0.4130859,-0.168457,-0.3320313,-0.06787109
981,-84.25,0.5625,-182.75,1.399902,1.06543,-0.378418,-0.1591797,-0.3393555,-0.07177734
985,-75.8125,3.3125,-184.3125,1.438477,1.030762,-0.3325195,-0.1425781,-0.3466797,-0.08007813
989,-76.1875,8,-185.125,1.388184,1.120117,-0.3359375,-0.1269531,-0.3544922,-0.08691406
993,-81.6875,5.8125,-188.25,1.310547,1.030762,-0.3168945,-0.1162109,-0.3618164,-0.09228516
997,-78.125,9.9375,-187.0625,1.353516,0.8789063,-0.2861328,-0.09716797,-0.3681641,-0.09765625
1001,-67.8125,15.5625,-187.375,1.275879,0.9101563,-0.2631836,-0.07958984,-0.371582,-0.1044922
1005,-71.875,16,-185.6875,1.16748,0.987793,-0.2939453,-0.06640625,-0.3754883,-0.1113281
1009,-81.5625,13.625,-182.25,1.109375,0.921875,-0.2475586,-0.04736328,-0.3779297,-0.1181641
1013,-87.3125,14.6875,-179.8125,1.105469,0.7666016,-0.2207031,-0.03076172,-0.3803711,-0.1264648
1017,-85.0625,21.0625,-178,1.082031,0.6069336,-0.1899414,-0.01757813,-0.3779297,-0.1303711
1021,-77.3125,26.8125,-169.6875,0.9619141,0.5097656,-0.2128906,0.0009765625,-0.3754883,-0.1401367
1025,-78.125,27.375,-158.125,0.7797852,0.5136719,-0.2822266,0.01904297,-0.3730469,-0.1484375
1029,-84.8125,18.4375,-150.4375,0.6210938,0.3779297,-0.2514648,0.02832031,-0.3706055,-0.1523438
1033,-77.8125,13.75,-145.5625,0.625,0.1835938,-0.1977539,0.04394531,-0.3657227,-0.1591797
1037,-64.75,16,-137.75,0.6054688,0.08642578,-0.109375,0.05957031,-0.3618164,-0.1645508
1041,-52.5,19.875,-124.9375,0.5087891,0.06298828,-0.07470703,0.06787109,-0.3579102,-0.1699219
1045,-41.5625,20.6875,-116.0625,0.4077148,0.01660156,-0.04736328,0.08056641,-0.3530273,-0.1728516
1049,-27.1875,24.4375,-106.875,0.3266602,0.05126953,-0.005371094,0.09277344,-0.3505859,-0.1738281
1053,-25.5,24,-98.75,0.190918,0.1098633,-0.005371094,0.09619141,-0.3466797,-0.1767578
1057,-31.4375,21.75,-88.3125,0.08251953,0.1098633,-0.03222656,0.109375,-0.3432617,-0.1796875
1061,-32.5625,16.125,-79.25,-0.01416016,0.03613281,-0.04003906,0.1152344,-0.3393555,-0.1806641
1065,-31.0625,12.6875,-68.25,-0.03710938,-0.04541016,-0.03222656,0.1225586,-0.3354492,-0.1835938
1069,-25.125,10.875,-52.875,-0.03320313,-0.09570313,0.02880859,0.128418,-0.3320313,-0.1850586
1073,-18.6875,10.3125,-37.6875,-0.1186523,-0.04541016,0.05957031,0.1308594,-0.3291016,-0.1865234
1078,-15.125,9.3125,-28.8125,-0.1186523,0.01269531,0.08642578,0.1333008,-0.3256836,-0.1889648
1082,-12.0625,8.5,-22.4375,-0.1845703,-0.01416016,0.05175781,0.1367188,-0.3232422,-0.1889648
1086,-4.4375,5.3125,-14.5,-0.1030273,-0.07226563,0.09814453,0.1376953,-0.3242188,-0.1875
1090,2.6875,10.3125,0.1875,-0.1303711,-0.03369141,0.08251953,0.1376953,-0.3217773,-0.1865234
1094,5.3125,7.4375,13.75,-0.1923828,0.08642578,0.07910156,0.1401367,-0.3232422,-0.1865234
1098,-2,4.8125,23.1875,-0.1806641,0.1875,0.04052734,0.1391602,-0.3232422,-0.1875
1102,-4.9375,1,32,-0.1572266,0.1445313,0.05957031,0.1376953,-0.3256836,-0.1865234
1106,-2.9375,1.4375,39.9375,-0.1108398,0.1176758,0.07128906,0.1342773,-0.3242188,-0.1889648
1110,4.5,2.4375,50.125,-0.1069336,0.1020508,0.04052734,0.1308594,-0.3291016,-0.1865234
1114,16,0.0625,54.375,-0.1533203,0.1333008,-0.005371094,0.1293945,-0.3291016,-0.1875
1118,27.3125,-2.875,59,-0.05664063,0.1445313,0.005859375,0.1225586,-0.3354492,-0.1850586
1122,29.1875,-5.4375,70.375,-0.02197266,0.2456055,0.01367188,0.1176758,-0.3354492,-0.1806641
1126,20.4375,-9,81.625,0.07861328,0.300293,0.06347656,0.112793,-0.3432617,-0.1806641
1130,9,-5.75,94.8125,0.1445313,0.3388672,0.05175781,0.105957,-0.3442383,-0.1806641
1134,8.1875,-4.1875,100.9375,0.1367188,0.2729492,0.001953125,0.09619141,-0.3466797,-0.1796875
1138,24.625,-7.5625,103.6875,0.09375,0.2885742,-0.03613281,0.08886719,-0.3481445,-0.1767578
1142,37.5625,-10.875,100.75,0.2255859,0.3120117,-0.05517578,0.07958984,-0.3530273,-0.1767578
1146,36.25,-12.9375,109.8125,0.3266602,0.4672852,-0.03222656,0.06982422,-0.3544922,-0.1738281
1150,15.25,-14.5,124.8125,0.4506836,0.4711914,-0.009277344,0.06152344,-0.3569336,-0.1713867
1154,14.625,-17.3125,142.625,0.4350586,0.4125977,-0.02832031,0.04980469,-0.3603516,-0.1699219
1158,31.4375,-17,143.5625,0.578125,0.4477539,-0.04736328,0.03417969,-0.3632813,-0.1699219
1162,59.375,-10.0625,139.3125,0.5708008,0.6030273,-0.04736328,0.02490234,-0.3618164,-0.1645508
1166,60.8125,-8.6875,138.8125,0.59375,0.9916992,-0.09765625,0.01171875,-0.3666992,-0.1591797
1170,25.3125,-15.5625,142.1875,0.5317383,1.174316,-0.08203125,-0.001953125,-0.3681641,-0.15625
1174,-4.875,-30.625,148.9375,0.6791992,0.8984375,-0.0859375,-0.01269531,-0.3666992,-0.1547852
1178,15.9375,-30.1875,153.625,0.8457031,0.7275391,-0.02441406,-0.02685547,-0.3657227,-0.15625
1182,34.5,-21.125,155.4375,0.9970703,0.9995117,0.02880859,-0.04248047,-0.3642578,-0.1523438
1186,3.4375,-16.5,164.625,0.8457031,1.512207,-0.005371094,-0.05419922,-0.3632813,-0.1508789
1190,-58.4375,-25.625,158.3125,0.7412109,1.493164,-0.02050781,-0.06738281,-0.3569336,-0.1538086
1194,-68.8125,-35.375,154.125,0.7216797,0.9453125,-0.08203125,-0.08398438,-0.3491211,-0.15625
1198,-9.375,-44.5625,143.5625,0.8222656,0.6264648,-0.1054688,-0.09375,-0.3442383,-0.1616211
1202,60.5,-37.375,123.375,1.085938,0.7470703,-0.03222656,-0.1079102,-0.3408203,-0.15625
1207,76.25,-25.5,122.625,1.055176,1.17041,-0.02050781,-0.1210938,-0.3354492,-0.1508789
1211,33.6875,-34,127.5625,0.9736328,1.407715,-0.04003906,-0.1293945,-0.3344727,-0.144043
1215,-10.25,-41.4375,134.0625,0.9619141,1.015137,0.005859375,-0.1411133,-0.328125,-0.1425781
1219,4.0625,-45.5625,133.1875,1.043457,0.6459961,-0.05126953,-0.1533203,-0.3208008,-0.1416016
1223,71.4375,-40.375,121.4375,1.128418,0.5097656,-0.1054688,-0.1616211,-0.3168945,-0.137207
1227,124.5,-28.9375,103.125,1.209961,0.9140625,-0.04736328,-0.1699219,-0.3105469,-0.1303711
1231,107.1875,-21.0625,103,1.13623,1.368652,-0.03613281,-0.1791992,-0.3095703,-0.1181641
1235,42.875,-27.4375,105.5625,1.047363,1.384277,-0.01318359,-0.184082,-0.3081055,-0.1098633
1239,12.375,-30.5625,106.375,1.105469,0.8984375,-0.005371094,-0.1923828,-0.3007813,-0.1098633
1243,32.3125,-29.0625,106.5,1.151855,0.5214844,-0.08984375,-0.2006836,-0.2944336,-0.105957
1247,87.0625,-21.25,103.875,1.271973,0.4672852,-0.08203125,-0.206543,-0.2919922,-0.1035156
1251,116.625,-9.4375,98.5625,1.206055,0.9101563,-0.0859375,-0.2138672,-0.2866211,-0.09228516
1255,93.1875,-11.1875,96.625,1.144043,1.209473,-0.04736328,-0.21875,-0.2807617,-0.08544922
1259,54,-12.0625,98.9375,1.171387,1.143066,-0.03222656,-0.2246094,-0.2783203,-0.08154297
1263,44.1875,-10.3125,96.1875,1.202148,0.90625,-0.02441406,-0.2304688,-0.2719727,-0.07763672
1267,51.1875,-2.125,93.5,1.186523,0.921875,-0.04394531,-0.2353516,-0.2641602,-0.07324219
1271,47.75,-1.6875,87.8125,1.082031,1.022949,-0.02441406,-0.2387695,-0.2617188,-0.06933594
1275,42,-1.3125,82.75,1.109375,0.9956055,0.009765625,-0.2446289,-0.2558594,-0.06787109
1279,38.4375,5.25,79.4375,1.089844,1.045898,0.04785156,-0.2495117,-0.2504883,-0.06640625
1283,35.3125,10.3125,70.875,1.023926,1.124023,-0.01660156,-0.253418,-0.2480469,-0.0625
1287,29,13.3125,62.25,0.9970703,1.209473,-0.04736328,-0.2553711,-0.2416992,-0.06103516
1291,15.5625,14.8125,53.3125,0.9233398,1.287109,-0.1015625,-0.2592773,-0.2382813,-0.06396484
1295,3.875,13.9375,44.125,0.8652344,1.291016,-0.1245117,-0.2602539,-0.2358398,-0.0625
1299,-1.8125,12.5,34.625,0.8071289,1.259766,-0.1708984,-0.2617188,-0.2319336,-0.06396484
1303,6.125,8.9375,23.3125,0.7797852,1.228516,-0.1899414,-0.2636719,-0.2294922,-0.06396484
1307,16.5625,5.4375,10.625,0.8110352,1.337402,-0.1821289,-0.2651367,-0.2280273,-0.06396484
1311,15.75,7.875,-2.5625,0.8691406,1.559082,-0.1513672,-0.2661133,-0.2280273,-0.0625
1315,-3.625,8.125,-23.75,0.8417969,1.683105,-0.1401367,-0.2636719,-0.2294922,-0.06396484
1319,-24.125,8.25,-43.125,0.9233398,1.578613,-0.128418,-0.2626953,-0.2329102,-0.0625
1323,-34.25,9.9375,-57.0625,0.9116211,1.46582,-0.1669922,-0.2617188,-0.2358398,-0.06542969
1327,-37.6875,7.25,-68.3125,0.9155273,1.364746,-0.2089844,-0.2578125,-0.2368164,-0.06933594
1331,-31,5.1875,-81.3125,0.9541016,1.236328,-0.2167969,-0.2543945,-0.2416992,-0.07080078
1336,-12.625,7.375,-91.375,1.012207,1.162598,-0.1821289,-0.2495117,-0.2480469,-0.07324219
1340,-2.3125,9,-97.875,0.9697266,1.36084,-0.2128906,-0.2426758,-0.2543945,-0.07470703
1344,-12.3125,3,-106.75,0.9853516,1.566895,-0.2128906,-0.2387695,-0.2592773,-0.07617188
1348,-37.5,-0.125,-120.375,1.027832,1.683105,-0.2055664,-0.2329102,-0.265625,-0.07861328
1352,-55.6875,-5.125,-136.6875,1.121094,1.454102,-0.1977539,-0.2255859,-0.2768555,-0.08154297
1356,-51.5,-2.9375,-148.4375,1.22168,1.310547,-0.1899414,-0.21875,-0.2807617,-0.08300781
1360,-44.25,-2,-155.5,1.256348,1.267578,-0.1899414,-0.2104492,-0.2919922,-0.08691406
1364,-47.9375,-2.0625,-156.0625,1.275879,1.298828,-0.1630859,-0.1982422,-0.3017578,-0.08984375
1368,-56.0625,-1.6875,-157.0625,1.306641,1.255859,-0.1591797,-0.1923828,-0.3066406,-0.09228516
1372,-59.6875,1.125,-162.125,1.337891,1.232422,-0.1435547,-0.1806641,-0.3168945,-0.09667969
1376,-62.8125,7.1875,-171.875,1.368652,1.221191,-0.1166992,-0.1665039,-0.3242188,-0.1035156
1380,-73.875,10.75,-176.0625,1.314453,1.236328,-0.1435547,-0.1582031,-0.3291016,-0.1074219
1384,-87.0625,9.1875,-177.875,1.306641,1.120117,-0.1323242,-0.1425781,-0.3378906,-0.1157227
1388,-87.6875,12.4375,-175.4375,1.326172,0.9604492,-0.1323242,-0.1293945,-0.3442383,-0.1196289
1392,-76.3125,17.875,-171.6875,1.283691,0.8867188,-0.09765625,-0.1176758,-0.3457031,-0.1279297
1396,-67.8125,21.375,-165.5625,1.186523,0.9604492,-0.08203125,-0.1020508,-0.3530273,-0.1357422
1400,-69.25,20.625,-162.8125,1.117188,1.06543,-0.09375,-0.08544922,-0.3554688,-0.1386719
1404,-68.375,21.375,-169.125,1.121094,1.045898,-0.04736328,-0.07568359,-0.359375,-0.1469727
1408,-68.25,27,-173.875,1.074219,1.154785,-0.06298828,-0.05908203,-0.3579102,-0.1523438
1412,-82.5,23.375,-177,1.039551,1.13916,-0.04736328,-0.04150391,-0.3618164,-0.1606445
1416,-93.75,24.1875,-176.0625,1.05127,0.9296875,-0.04003906,-0.02929688,-0.3618164,-0.1660156
1420,-87.25,28.1875,-171.875,0.9892578,0.6811523,-0.05126953,-0.01269531,-0.3579102,-0.1728516
1424,-65.875,33.25,-164,0.9501953,0.5292969,-0.04394531,0.004394531,-0.3579102,-0.1796875
1428,-51.125,37.5,-160.1875,0.7915039,0.6616211,-0.05908203,0.01513672,-0.3544922,-0.1835938
1432,-55.75,32.875,-157.75,0.6791992,0.7001953,-0.07080078,0.03417969,-0.3530273,-0.1865234
1436,-67.875,26.75,-154.1875,0.6713867,0.5952148,-0.02832031,0.04882813,-0.3481445,-0.1918945
1440,-77.8125,25.3125,-146.125,0.6401367,0.4633789,-0.02832031,0.06054688,-0.3442383,-0.1972656
1444,-84.8125,25.75,-140.5,0.6132813,0.2807617,0.01708984,0.07373047,-0.3378906,-0.2011719
1448,-85.6875,33.0625,-128.3125,0.5239258,0.07080078,0.009765625,0.08691406,-0.3320313,-0.2094727
1452,-78.5625,35.875,-116.8125,0.3613281,-0.1459961,-0.01318359,0.09619141,-0.3266602,-0.2133789
1456,-55.9375,38.25,-106.3125,0.3188477,-0.3481445,-0.01318359,0.105957,-0.3178711,-0.2202148
1460,-22.8125,41.8125,-92.6875,0.1713867,-0.4375,-0.06298828,0.1166992,-0.3105469,-0.2216797
1465,1.9375,36.0625,-80.125,0.05126953,-0.2939453,-0.06689453,0.1235352,-0.3066406,-0.21875
1469,9.5625,29.4375,-69.3125,-0.04492188,-0.1694336,-0.04394531,0.1308594,-0.3056641,-0.2202148
1473,6.25,24.5625,-57.6875,-0.08398438,-0.1733398,0.009765625,0.1376953,-0.3032227,-0.2148438
1477,4.9375,19.5,-43.875,-0.1420898,-0.2163086,0.02099609,0.1416016,-0.3017578,-0.2163086
1481,6.6875,18.4375,-27,-0.1069336,-0.1967773,0.005859375,0.1459961,-0.2993164,-0.2148438
1485,12.1875,14.5625,-12.0625,-0.1650391,-0.1772461,-0.02050781,0.1484375,-0.3007813,-0.2119141
1489,14.25,9.375,4.625,-0.2041016,-0.06835938,-0.009277344,0.1508789,-0.2993164,-0.2109375
1493,8.8125,1.875,18.1875,-0.2192383,0.04394531,0.01708984,0.1499023,-0.3017578,-0.2094727
1497,-1.5,-0.9375,27.125,-0.1728516,0.1098633,0.04443359,0.1459961,-0.3032227,-0.2109375
1501,-5,-4.9375,35.6875,-0.1650391,0.0009765625,0.03662109,0.1450195,-0.3017578,-0.2109375
1505,10.1875,-6.8125,47.875,-0.1030273,-0.06445313,0.04785156,0.1425781,-0.3041992,-0.2119141
1509,34.375,-5.875,54.3125,-0.1030273,0.03613281,0.04785156,0.1376953,-0.3081055,-0.2094727
1513,48.5,-5.875,59.8125,-0.05273438,0.1875,0.07910156,0.1367188,-0.3105469,-0.206543
1517,45.1875,-2.6875,66.0625,-0.06835938,0.3662109,0.01708984,0.1308594,-0.3168945,-0.206543
1521,35.25,-11.4375,70.125,-0.08789063,0.4052734,-0.02832031,0.125,-0.3232422,-0.199707
1525,25.25,-18.4375,77.625,0.06298828,0.3388672,0.001953125,0.1186523,-0.3217773,-0.2011719
1529,21.75,-18.125,86.75,0.1445313,0.2456055,0.04785156,0.1118164,-0.3291016,-0.1987305
1533,29.8125,-15.8125,100.875,0.1635742,0.1835938,-0.02050781,0.1020508,-0.3320313,-0.1987305
1537,41.1875,-20.4375,106.75,0.1791992,0.269043,-0.04003906,0.09619141,-0.3354492,-0.1943359
1541,34.5,-25,109.4375,0.3149414,0.3818359,-0.03613281,0.08300781,-0.3408203,-0.1928711
1545,12.5625,-28.25,120.6875,0.4931641,0.3349609,-0.03222656,0.07373047,-0.3457031,-0.1904297
1549,8.8125,-30.5,134.375,0.5708008,0.1835938,-0.04394531,0.06542969,-0.3466797,-0.1889648
1553,34.75,-26.375,153.1875,0.5126953,0.01660156,-0.09375,0.05078125,-0.3481445,-0.1889648
1557,79.0625,-28.75,151.875,0.5239258,0.2226563,-0.1435547,0.03662109,-0.3520508,-0.1835938
1561,99.375,-29.4375,150.25,0.6948242,0.6108398,-0.1743164,0.02587891,-0.3569336,-0.1806641
1565,75.6875,-33.0625,158.3125,0.7758789,0.9799805,-0.1362305,0.01074219,-0.3618164,-0.1699219
1569,16.75,-47.875,169.125,0.8300781,1.022949,-0.1245117,-0.006835938,-0.3618164,-0.1699219
1573,9,-54.5,175.3125,0.9736328,0.4672852,-0.02832031,-0.02001953,-0.3603516,-0.1674805
1577,65.8125,-45.75,178.5625,1.175293,0.3232422,-0.08984375,-0.03759766,-0.359375,-0.1645508
1581,126.8125,-27.75,174.9375,1.159668,0.6884766,-0.1362305,-0.05664063,-0.359375,-0.15625
1585,124.875,-20,172.1875,1.066406,1.279297,-0.1401367,-0.06884766,-0.359375,-0.1494141
1589,69.25,-25.125,171.875,0.8613281,1.516113,-0.2363281,-0.08544922,-0.3569336,-0.137207
1594,32.0625,-50.75,168.375,1.027832,1.069336,-0.1630859,-0.1020508,-0.3544922,-0.1333008
1598,60.8125,-45.9375,172.375,1.349609,0.7197266,-0.1938477,-0.1113281,-0.3481445,-0.1289063
1602,123.1875,-27.875,166.9375,1.337891,0.8598633,-0.1054688,-0.1293945,-0.3432617,-0.1196289
1606,146.375,-12,150.8125,1.29541,1.356934,-0.1591797,-0.1435547,-0.3408203,-0.1074219
1610,118.1875,-2.5625,143.9375,1.09375,1.609375,-0.1435547,-0.1508789,-0.3354492,-0.09912109
1614,78.875,-13.3125,141,1.055176,1.625,-0.2744141,-0.1625977,-0.3305664,-0.09082031
1618,60.6875,-20.625,135.6875,1.19043,1.353027,-0.2475586,-0.1748047,-0.3232422,-0.08300781
1622,73.4375,-12.75,131.5625,1.206055,1.263672,-0.2167969,-0.1806641,-0.3193359,-0.07763672
1626,80.0625,-14.1875,121.75,1.113281,1.395996,-0.2744141,-0.1899414,-0.3120117,-0.07177734
1630,83.625,-13.4375,113.625,1.151855,1.384277,-0.2055664,-0.2006836,-0.3041992,-0.06396484
1634,83.0625,-7.8125,102.75,1.186523,1.454102,-0.1977539,-0.206543,-0.3032227,-0.05957031
1638,73.5625,-3.4375,92.375,1.16748,1.555176,-0.1782227,-0.2128906,-0.2954102,-0.05029297
1642,53.375,0.875,80.8125,1.128418,1.49707,-0.1474609,-0.2172852,-0.2895508,-0.04882813
1646,39.125,3.25,73,1.0625,1.317871,-0.2089844,-0.2211914,-0.2856445,-0.04638672
1650,38.3125,6.625,67.75,1.039551,1.150879,-0.1782227,-0.2270508,-0.2832031,-0.04492188
1654,39.8125,9.0625,62.9375,0.9814453,1.135742,-0.2363281,-0.2319336,-0.2792969,-0.03955078
1658,38.625,9.375,55.1875,0.9580078,1.104492,-0.2246094,-0.2329102,-0.2744141,-0.03808594
1662,30.6875,10.9375,47.625,0.9155273,1.081055,-0.2631836,-0.2353516,-0.2705078,-0.03808594
1666,23.0625,8.625,41.8125,0.9077148,0.9916992,-0.2553711,-0.2402344,-0.2695313,-0.03369141
1670,19.8125,8.625,37.6875,0.9038086,0.8520508,-0.2207031,-0.2387695,-0.265625,-0.03515625
1674,24.6875,11.4375,41.0625,0.8691406,0.8286133,-0.2285156,-0.2436523,-0.2631836,-0.03662109
1678,26.5625,7.6875,36.5,0.8071289,0.9375,-0.2285156,-0.2436523,-0.2617188,-0.03271484
1682,24.0625,5.8125,31.1875,0.8496094,1.092773,-0.2514648,-0.2470703,-0.2592773,-0.03125
1686,17.9375,4.125,25.75,0.8691406,1.197754,-0.2324219,-0.2470703,-0.2568359,-0.03125
1690,9.3125,5.4375,15.875,0.9077148,1.388184,-0.1821289,-0.2495117,-0.2558594,-0.03125
1694,1.6875,11.9375,1.75,0.9350586,1.500488,-0.1630859,-0.2495117,-0.2558594,-0.03125
1698,-9.3125,16.5,-11,0.8574219,1.586426,-0.2207031,-0.2495117,-0.2558594,-0.03271484
1702,-11.375,13.1875,-20.375,0.8071289,1.628906,-0.2670898,-0.2485352,-0.2568359,-0.03369141
1706,-15.9375,9.0625,-33.5,0.7836914,1.776367,-0.3476563,-0.2495117,-0.2568359,-0.03369141
1710,-19.875,2.5,-53.4375,0.7602539,1.834961,-0.3632813,-0.2460938,-0.2592773,-0.03955078
1714,-26.1875,-3.3125,-76.0625,0.8300781,1.850586,-0.3515625,-0.2402344,-0.265625,-0.03808594
1718,-31.375,-4.3125,-97.5,0.9423828,1.807617,-0.2939453,-0.2363281,-0.2695313,-0.03955078
1723,-38.0625,-2.75,-116.25,0.9931641,1.76123,-0.2978516,-0.2319336,-0.2768555,-0.04199219
1727,-48.5,-7.0625,-128.3125,1.043457,1.687012,-0.3398438,-0.222168,-0.2841797,-0.04638672
1731,-56.375,-9.3125,-140,1.151855,1.628906,-0.324707,-0.21875,-0.2905273,-0.04638672
1735,-65.5,-9,-150.3125,1.244629,1.493164,-0.3129883,-0.2089844,-0.2983398,-0.05273438
1739,-67.9375,-7.625,-157.375,1.302734,1.376465,-0.2705078,-0.1972656,-0.3081055,-0.05712891
1743,-72.4375,-5.125,-161.3125,1.333984,1.32959,-0.2744141,-0.1914063,-0.3154297,-0.05957031
1747,-80.4375,-3.5,-164.375,1.349609,1.287109,-0.2783203,-0.1782227,-0.3217773,-0.06542969
1751,-88.625,-2.875,-167.4375,1.341797,1.193848,-0.3012695,-0.1640625,-0.3320313,-0.07324219
1755,-87.0625,-0.6875,-174.375,1.368652,1.045898,-0.2705078,-0.1557617,-0.3369141,-0.07763672
1759,-79.25,6.5625,-176.375,1.361328,0.956543,-0.2363281,-0.1411133,-0.3457031,-0.08544922
1763,-75.625,10.125,-176,1.271973,0.9492188,-0.2363281,-0.1259766,-0.3530273,-0.09082031
1767,-74.625,8.9375,-175.6875,1.225586,0.9257813,-0.2553711,-0.1152344,-0.3569336,-0.09765625
1771,-67.125,12,-174.625,1.229492,0.824707,-0.2207031,-0.09863281,-0.3632813,-0.1044922
1775,-61.375,16,-170.0625,1.163574,0.855957,-0.2055664,-0.08056641,-0.3657227,-0.1088867
1779,-63.9375,16.125,-165.5625,1.05127,0.9101563,-0.1977539,-0.07128906,-0.3691406,-0.1142578
1783,-66,15.375,-168.3125,1.039551,0.840332,-0.1860352,-0.05664063,-0.371582,-0.1196289
1787,-57.5,21.8125,-168.8125,0.9931641,0.7431641,-0.1708984,-0.03759766,-0.3745117,-0.1264648
1791,-52.875,22.3125,-162.0625,0.8769531,0.809082,-0.1362305,-0.02685547,-0.3745117,-0.1303711
1795,-66.3125,19.875,-151.4375,0.7333984,0.8828125,-0.1743164,-0.009277344,-0.3745117,-0.137207
1799,-65.8125,17.9375,-154.375,0.6791992,0.6538086,-0.1474609,0.005859375,-0.3745117,-0.1416016
1803,-39.0625,26.0625,-153,0.609375,0.4399414,-0.1782227,0.01416016,-0.371582,-0.1455078
1807,0.125,27.125,-153.6875,0.4506836,0.5991211,-0.2167969,0.03076172,-0.3691406,-0.1469727
1811,10.4375,20.625,-152.3125,0.3535156,0.8867188,-0.2822266,0.04736328,-0.3691406,-0.1469727
1815,-10.125,4.9375,-155.75,0.2875977,1.038574,-0.2475586,0.05712891,-0.3681641,-0.1455078
1819,-31.625,-7.875,-152.4375,0.3847656,0.8520508,-0.1860352,0.07128906,-0.3666992,-0.1484375
1823,-43.4375,-10.5625,-145.4375,0.4233398,0.6923828,-0.1054688,0.08544922,-0.3618164,-0.1523438
1827,-55.6875,-15.5,-136.3125,0.3999023,0.5292969,-0.05126953,0.09765625,-0.3579102,-0.1547852
1831,-59.3125,-14,-127.8125,0.4541016,0.2963867,0.02099609,0.1069336,-0.3505859,-0.1606445
1835,-53.375,-4.4375,-116.6875,0.3925781,0.1020508,0.03662109,0.1176758,-0.3442383,-0.1660156
1839,-51.25,-1.25,-102.5,0.2412109,0.05908203,0.001953125,0.125,-0.3417969,-0.168457
1843,-57,-6.9375,-88.8125,0.125,-0.03369141,-0.01660156,0.1333008,-0.3330078,-0.175293
1847,-55.3125,-11.1875,-69.8125,0.1015625,-0.2470703,0.001953125,0.1391602,-0.328125,-0.1796875
1852,-36.1875,-12.5,-55.0625,0.08251953,-0.3637695,0.05175781,0.144043,-0.3256836,-0.1796875
1856,-12.8125,-8.5625,-41,0.125,-0.3173828,0.144043,0.1474609,-0.3208008,-0.1850586
1860,-5.9375,3.9375,-28.8125,0.05517578,-0.1152344,0.1787109,0.1508789,-0.3178711,-0.1850586
1864,-16.75,6.875,-17.0625,-0.05273438,-0.02587891,0.1826172,0.1508789,-0.3178711,-0.1850586
1868,-23.8125,5.6875,-4.375,-0.07226563,-0.1191406,0.1132813,0.1533203,-0.3178711,-0.1865234
1872,-9.6875,5.625,6.9375,-0.04101563,-0.1381836,0.1367188,0.1508789,-0.3154297,-0.1889648
1876,-0.25,11.125,13.75,-0.05273438,-0.002441406,0.125,0.1533203,-0.3178711,-0.1875
1880,-1.375,10.1875,26.8125,-0.1459961,0.05908203,0.1020508,0.1523438,-0.3168945,-0.1865234
1884,-5.4375,6.5,37.375,-0.1611328,0.02832031,0.07910156,0.1484375,-0.3154297,-0.1875
1888,7.5,6.1875,46.5625,-0.1069336,-0.04541016,0.04785156,0.1484375,-0.3193359,-0.1889648
1892,28.4375,8.4375,52.5625,-0.05664063,0.05908203,0.05957031,0.144043,-0.3232422,-0.1821289
1896,38.0625,12.0625,59.75,-0.02978516,0.2148438,0.05957031,0.1401367,-0.3256836,-0.1806641
1900,36.8125,14.875,68.3125,-0.1069336,0.2924805,-0.009277344,0.1367188,-0.3305664,-0.1806641
1904,39.3125,8,80.875,-0.1264648,0.3232422,-0.05126953,0.1318359,-0.3344727,-0.1782227
1908,46.4375,2.5625,90.1875,-0.05664063,0.3544922,-0.05517578,0.125,-0.3393555,-0.1738281
1912,54.125,-2,95.0625,0.02441406,0.3818359,-0.02441406,0.1201172,-0.3417969,-0.168457
1916,63.1875,1.75,95.0625,0.1635742,0.4013672,-0.01318359,0.112793,-0.3481445,-0.1660156
1920,75.625,6.4375,96.8125,0.1445313,0.4399414,-0.07080078,0.1035156,-0.3520508,-0.1591797
1924,78.0625,9.1875,100.6875,0.1948242,0.5991211,-0.08203125,0.09521484,-0.3569336,-0.1547852
1928,53.625,6.0625,106.9375,0.1445313,0.809082,-0.1245117,0.08691406,-0.3657227,-0.1455078
1932,21.625,-7.875,117.0625,0.2216797,0.7041016,-0.1401367,0.07714844,-0.3666992,-0.144043
1936,19.25,-12.25,128.9375,0.3032227,0.4907227,-0.1591797,0.06787109,-0.3706055,-0.1416016
1940,38.5625,-15.3125,130.75,0.4077148,0.4633789,-0.1206055,0.0546875,-0.371582,-0.1401367
1944,66.0625,-10.1875,132.0625,0.4970703,0.6108398,-0.1245117,0.04248047,-0.3730469,-0.137207
1948,69.6875,-6.4375,126.75,0.5126953,0.8984375,-0.0859375,0.03320313,-0.3779297,-0.1333008
1952,47.625,-4.875,127.625,0.5356445,0.9995117,-0.109375,0.02001953,-0.3793945,-0.1264648
1956,21.125,-10.4375,131.8125,0.6054688,0.8945313,-0.1166992,0.004394531,-0.3779297,-0.1225586
1960,33.0625,-12.0625,140.375,0.6635742,0.6733398,-0.1821289,-0.001953125,-0.3803711,-0.1225586
1964,64.8125,-13.875,138.125,0.7680664,0.7353516,-0.1977539,-0.01611328,-0.3818359,-0.1166992
1968,79.9375,-10.125,136.25,0.8149414,0.9916992,-0.1977539,-0.03173828,-0.3803711,-0.1088867
1972,68.625,-12,135.875,0.8032227,1.182129,-0.1899414,-0.04003906,-0.3803711,-0.1044922
1976,44.5625,-10.8125,142.375,0.8999023,1.225098,-0.1669922,-0.05322266,-0.3779297,-0.09765625
1981,31.375,-12.6875,148.375,0.8920898,1.131836,-0.1552734,-0.06738281,-0.3754883,-0.09521484
1985,36.5625,-12.625,147,0.9462891,1.104492,-0.1669922,-0.078125,-0.3730469,-0.09375
1989,46.3125,-10.625,134.875,0.9580078,1.12793,-0.128418,-0.09228516,-0.3691406,-0.09082031
1993,47.0625,-7.125,129.1875,0.9580078,1.205566,-0.1743164,-0.1054688,-0.3657227,-0.08300781
1997,37.1875,-7.625,124.5625,0.9389648,1.205566,-0.1435547,-0.112793,-0.3618164,-0.08300781
2001,36.25,-6.75,125.5625,0.9697266,1.04248,-0.1821289,-0.1245117,-0.3569336,-0.07763672
2005,48.0625,-3.875,122.5,0.9853516,1.030762,-0.1860352,-0.1352539,-0.3491211,-0.07617188
2009,54.625,0.3125,118,0.9892578,1.112305,-0.2089844,-0.1425781,-0.3481445,-0.07177734
2013,41.4375,0.6875,115.3125,0.9541016,1.267578,-0.2397461,-0.1533203,-0.3432617,-0.06640625
2017,14.5,-3.3125,111.8125,0.9501953,1.174316,-0.2246094,-0.1625977,-0.3354492,-0.06396484
2021,14.5625,-3.75,113.1875,0.9931641,0.8710938,-0.2670898,-0.168457,-0.3320313,-0.0625
2025,33.625,-2.125,110.0625,1.035645,0.8051758,-0.2397461,-0.1782227,-0.3256836,-0.0625
2029,43.875,4.5625,108.375,1.043457,0.9375,-0.2363281,-0.1855469,-0.3208008,-0.05859375
2033,29.125,2.75,107.6875,0.9350586,1.073242,-0.2592773,-0.1914063,-0.3154297,-0.05712891
2037,9.1875,-1,112,0.9697266,0.9760742,-0.2475586,-0.1972656,-0.3095703,-0.05419922
2041,21.875,-2.375,114.0625,0.8803711,0.9140625,-0.3706055,-0.206543,-0.3017578,-0.05273438
2045,46.875,-7.875,92.875,0.9462891,0.9375,-0.2900391,-0.2104492,-0.296875,-0.05273438
2049,65.6875,0.0625,76.9375,1.043457,0.9995117,-0.2553711,-0.2172852,-0.2919922,-0.04736328
2053,66.8125,3.5625,71,0.9541016,1.09668,-0.2592773,-0.2236328,-0.2856445,-0.04492188
2057,56.5625,-0.5625,65.4375,0.9462891,1.131836,-0.2900391,-0.2246094,-0.2817383,-0.03808594
2061,47.6875,-1.6875,61.8125,0.9814453,1.049805,-0.2553711,-0.2304688,-0.2792969,-0.03369141
2065,41.5,-0.5,58.3125,1.016113,0.9838867,-0.2016602,-0.2329102,-0.2744141,-0.03125
2069,37.8125,1.9375,55.875,0.9931641,0.9838867,-0.2128906,-0.234375,-0.2719727,-0.03125
2073,35.8125,3.6875,49.75,0.9658203,0.9604492,-0.2128906,-0.2387695,-0.2670898,-0.02441406
2077,39.3125,6.5625,42.5625,0.9462891,0.9604492,-0.2363281,-0.2436523,-0.2641602,-0.02587891
2081,43.25,8.5,35.4375,0.9350586,1.015137,-0.2324219,-0.2446289,-0.2631836,-0.02294922
2085,40.9375,12.25,31,0.9155273,1.120117,-0.2397461,-0.2460938,-0.2607422,-0.02294922
2089,28.25,14.5,27.125,0.8417969,1.244141,-0.2592773,-0.2470703,-0.2583008,-0.01904297
2093,7.6875,11.1875,24.375,0.7680664,1.349121,-0.2939453,-0.2470703,-0.2583008,-0.02050781
2097,-10.375,6.1875,14.1875,0.7602539,1.372559,-0.3012695,-0.2495117,-0.2568359,-0.02148438
2101,-18.625,3.6875,-0.4375,0.7680664,1.317871,-0.3168945,-0.2509766,-0.2558594,-0.02294922
2105,-12.6875,2.0625,-13.5,0.7797852,1.248047,-0.2978516,-0.2519531,-0.2558594,-0.02294922
2110,-3.4375,2.5625,-26.1875,0.7954102,1.364746,-0.2978516,-0.2485352,-0.2568359,-0.02441406
2114,-4.375,2.3125,-40,0.8222656,1.489258,-0.3012695,-0.2460938,-0.2592773,-0.02441406
2118,-13.5625,0.875,-52.125,0.8535156,1.59375,-0.309082,-0.2446289,-0.2607422,-0.02294922
2122,-30.5625,-2.875,-68,0.8222656,1.648438,-0.3476563,-0.2412109,-0.2670898,-0.02441406
2126,-40.9375,-10.75,-82.125,0.9233398,1.539551,-0.34375,-0.237793,-0.2705078,-0.03125
2130,-37.0625,-8.75,-95.0625,1.047363,1.422852,-0.309082,-0.2329102,-0.2744141,-0.02832031
2134,-26.3125,-4.5625,-104.5,1.05127,1.438477,-0.3051758,-0.2270508,-0.2807617,-0.03125
2138,-23.5,-5.6875,-120.6875,1.0625,1.547363,-0.3051758,-0.2197266,-0.2895508,-0.03369141
2142,-34.9375,-4,-132.8125,1.128418,1.609375,-0.2978516,-0.215332,-0.2954102,-0.03369141
2146,-56.4375,-5.4375,-140.8125,1.109375,1.574707,-0.3554688,-0.2055664,-0.3041992,-0.03808594
2150,-69.375,-9,-146.5,1.19043,1.458008,-0.3554688,-0.1962891,-0.3129883,-0.04345703
2154,-73.375,-7.0625,-154.75,1.268066,1.368652,-0.3666992,-0.1875,-0.3193359,-0.04638672
2158,-75.125,-4.625,-160.9375,1.29541,1.321777,-0.3325195,-0.1757813,-0.3291016,-0.05029297
2162,-81.625,-3.25,-164.625,1.322266,1.291016,-0.3476563,-0.1625977,-0.3369141,-0.05712891
2166,-84.3125,-0.3125,-170.8125,1.326172,1.193848,-0.3632813,-0.1533203,-0.3442383,-0.0625
2170,-83,2.1875,-171.25,1.337891,1.12793,-0.3745117,-0.1401367,-0.3491211,-0.07080078
2174,-82.5,1.6875,-169.1875,1.275879,1.116211,-0.3706055,-0.1245117,-0.3554688,-0.07763672
2178,-75.9375,0.875,-170.4375,1.268066,1.038574,-0.3359375,-0.1137695,-0.3603516,-0.08300781
2182,-60.625,4.5625,-175.9375,1.287598,1.003418,-0.2861328,-0.09716797,-0.3657227,-0.09082031
2186,-47.4375,14.5,-182,1.194336,1.053711,-0.2553711,-0.08056641,-0.3706055,-0.09375
2190,-48.875,13.5,-187.5625,1.074219,1.108398,-0.2900391,-0.07128906,-0.3745117,-0.09912109
2194,-54.875,10.5625,-187.25,1.043457,1.01123,-0.2900391,-0.05078125,-0.3779297,-0.1035156
2198,-58.3125,8.3125,-184,0.9541016,0.956543,-0.2861328,-0.03173828,-0.3803711,-0.1074219
2202,-61.625,5.125,-180.9375,0.9155273,0.890625,-0.2744141,-0.02001953,-0.3833008,-0.1113281
2206,-64.5,1.375,-175,0.8300781,0.8208008,-0.2397461,-0.0009765625,-0.3803711,-0.1166992
2210,-68.25,-2.1875,-169.75,0.8339844,0.8012695,-0.2016602,0.01513672,-0.3803711,-0.1235352
2214,-75.9375,-2.875,-167.125,0.7758789,0.7392578,-0.1743164,0.02734375,-0.3793945,-0.1279297
2218,-80.5625,-4.3125,-167.0625,0.7412109,0.6342773,-0.1362305,0.04248047,-0.3754883,-0.1357422
2222,-86.5,-1.9375,-162.5625,0.7333984,0.4829102,-0.1054688,0.05810547,-0.3706055,-0.1425781
2226,-83.8125,2.875,-149.125,0.6557617,0.2651367,-0.05517578,0.06884766,-0.3666992,-0.1469727
2230,-68.625,5.0625,-134.9375,0.543457,0.1757813,-0.05517578,0.08300781,-0.3618164,-0.1547852
2234,-48.25,9.375,-127.9375,0.4658203,0.1914063,-0.01660156,0.09521484,-0.3554688,-0.1616211
2239,-43.25,11.875,-116.0625,0.3652344,0.3271484,-0.01318359,0.1035156,-0.3491211,-0.1616211
2243,-57.5625,7.25,-103.125,0.2646484,0.4086914,0.02099609,0.1166992,-0.3457031,-0.1660156
2247,-69.25,9.375,-94.5,0.2646484,0.3935547,0.05175781,0.1235352,-0.3393555,-0.1728516
2251,-70.4375,11.5,-89,0.1557617,0.2299805,0.05175781,0.1293945,-0.3344727,-0.175293
2255,-61.8125,12.4375,-85,0.05126953,0.1137695,0.009765625,0.1376953,-0.3266602,-0.1806641
2259,-44.3125,13.5,-78.25,-0.02197266,-0.02978516,-0.02441406,0.144043,-0.3217773,-0.1865234
2263,-21.5625,12.625,-69.6875,-0.1030273,-0.06445313,-0.001464844,0.1499023,-0.3193359,-0.1865234
2267,-8,10.25,-56.5,-0.1499023,0.03222656,0.02490234,0.1557617,-0.3144531,-0.1865234
2271,-9.875,5.1875,-42.0625,-0.1650391,0.121582,0.03662109,0.1591797,-0.3120117,-0.1865234
2275,-19.5625,2.1875,-26.875,-0.1806641,0.1679688,0.07128906,0.1606445,-0.3095703,-0.1889648
2279,-32.125,1.25,-20.75,-0.1884766,0.15625,0.1020508,0.1650391,-0.3081055,-0.1889648
2283,-41.6875,-0.8125,-14.875,-0.1728516,0.02050781,0.08642578,0.1650391,-0.3032227,-0.1928711
2287,-31.125,1.5,-7.25,-0.1342773,-0.2163086,0.08642578,0.1665039,-0.3017578,-0.1928711
2291,-3.1875,6.625,-2.5,-0.1225586,-0.402832,0.1020508,0.1699219,-0.3017578,-0.1958008
2295,24.875,11.875,12.4375,-0.1767578,-0.3286133,0.03662109,0.1689453,-0.3007813,-0.1958008
2299,31.6875,6.75,27.1875,-0.1884766,-0.1381836,0.02490234,0.1674805,-0.3017578,-0.1918945
2303,28.375,4.0625,45.875,-0.1420898,-0.09960938,0.02099609,0.1650391,-0.3056641,-0.1918945
2307,22.125,2.5,62.25,-0.1572266,0.03613281,-0.01660156,0.1630859,-0.3105469,-0.1889648
2311,14.4375,-4.3125,76.375,-0.1303711,0.1020508,-0.03222656,0.1557617,-0.3129883,-0.1865234
2315,13.75,-8.9375,82.1875,-0.07617188,0.1098633,-0.03222656,0.1499023,-0.3178711,-0.1850586
2319,21.1875,-9.4375,82.4375,0.05126953,0.08642578,0.01708984,0.1450195,-0.3217773,-0.1865234
2323,36.5,-5.9375,87.9375,0.07080078,0.02832031,0.005859375,0.1376953,-0.3242188,-0.1806641
2327,51.8125,-5.375,98.625,0.1518555,0.07470703,0.02490234,0.1308594,-0.328125,-0.1806641
2331,60.625,-0.125,111,0.1948242,0.2924805,0.001953125,0.1201172,-0.3378906,-0.1782227
2335,51.75,-0.1875,119.75,0.1987305,0.5253906,-0.08203125,0.1166992,-0.3408203,-0.1728516
2339,27.4375,-10.25,131.5,0.2026367,0.5952148,-0.1362305,0.1044922,-0.3481445,-0.168457
2343,13.75,-19.6875,137.5625,0.3457031,0.4750977,-0.07080078,0.09130859,-0.3530273,-0.1674805
2347,33.8125,-16.75,141.0625,0.4116211,0.3388672,-0.1166992,0.08203125,-0.3554688,-0.1674805
2351,64.0625,-16.375,138.1875,0.5009766,0.4711914,-0.08984375,0.06884766,-0.359375,-0.1616211
2355,65.3125,-12.25,142.25,0.6015625,0.777832,-0.05908203,0.05566406,-0.3666992,-0.15625
2359,35,-9.75,154.6875,0.6054688,0.9179688,-0.07080078,0.04492188,-0.3666992,-0.15625
2363,29.625,-16.25,161.125,0.5473633,0.8168945,-0.1362305,0.02978516,-0.3691406,-0.1523438
2368,52.75,-23.4375,155.5625,0.6713867,0.7895508,-0.1743164,0.01416016,-0.3706055,-0.1484375
2372,76,-21.3125,149.75,0.8300781,0.9257813,-0.08203125,0.002441406,-0.371582,-0.1455078
2376,71.625,-12.5,157,0.8417969,1.236328,-0.06298828,-0.01171875,-0.3730469,-0.1386719
2380,34.625,-12.25,159.3125,0.7529297,1.469727,-0.08984375,-0.02685547,-0.3730469,-0.1318359
2384,-9,-16.4375,162.25,0.7915039,1.380371,-0.04394531,-0.03759766,-0.3706055,-0.1318359
2388,-31.0625,-17.0625,168.8125,0.8110352,1.287109,-0.1206055,-0.05664063,-0.3666992,-0.1333008
2392,-42,-25.5,169.3125,0.7993164,1.178223,-0.1513672,-0.07128906,-0.3603516,-0.1347656
2396,-39.5625,-37,166.8125,0.8300781,0.9604492,-0.1362305,-0.08203125,-0.3579102,-0.1386719
2400,-15.8125,-40.0625,155.3125,0.9619141,0.7041016,-0.04394531,-0.09960938,-0.3520508,-0.1386719
2404,23.4375,-27.5625,149.0625,1.0625,0.7158203,-0.08203125,-0.1137695,-0.3432617,-0.1386719
2408,59.125,-27.75,143.6875,0.9423828,0.8984375,-0.1899414,-0.1235352,-0.3417969,-0.1357422
2412,72.125,-36.1875,136.75,1.023926,1.189941,-0.1899414,-0.1367188,-0.3354492,-0.1289063
2416,61.625,-40.6875,133.5,1.066406,1.302734,-0.1245117,-0.1474609,-0.3305664,-0.1225586
2420,45.5,-42.25,123.125,1.147949,1.302734,-0.07080078,-0.1557617,-0.3256836,-0.1196289
2424,39,-38.4375,118.375,1.124512,1.124023,-0.01318359,-0.1665039,-0.3217773,-0.112793
2428,48.9375,-37.8125,118.25,1.113281,1.053711,-0.08203125,-0.1782227,-0.3168945,-0.1088867
2432,71.0625,-35.125,108.125,1.155762,1.06543,-0.02441406,-0.1831055,-0.3105469,-0.1035156
2436,86,-25,97.1875,1.19043,1.189941,-0.05517578,-0.1923828,-0.3066406,-0.09521484
2440,80.9375,-20.0625,91.625,1.09375,1.380371,-0.03222656,-0.1982422,-0.3017578,-0.08837891
2444,54.0625,-19.5,91.5,0.9775391,1.489258,-0.04003906,-0.203125,-0.2993164,-0.08300781
2448,22.625,-26.9375,87.8125,0.9658203,1.399902,-0.03222656,-0.2114258,-0.2944336,-0.07763672
2452,13.5625,-27.625,78.6875,1.059082,1.116211,-0.01660156,-0.2163086,-0.2880859,-0.07324219
2456,23.6875,-21.0625,73,1.117188,0.9101563,0.03271484,-0.2211914,-0.2856445,-0.07080078
2460,39.4375,-12.375,71.6875,1.089844,0.9296875,0.02099609,-0.2246094,-0.2792969,-0.06640625
2464,42.8125,-7.75,64.875,1.008301,1.092773,0.02099609,-0.2294922,-0.2768555,-0.06396484
2468,31.6875,-4.1875,55.75,1.012207,1.124023,0.02099609,-0.2329102,-0.2744141,-0.06103516
2472,19.375,1.25,47.625,0.9970703,1.061523,0.001953125,-0.2363281,-0.2695313,-0.05957031
2476,13,3.1875,43.6875,0.9580078,0.9335938,-0.03222656,-0.2387695,-0.2670898,-0.05859375
2480,10.9375,3.9375,40.75,0.9233398,0.9023438,-0.07080078,-0.2402344,-0.2641602,-0.05566406
2484,15.5,4.25,35.125,0.8730469,0.8325195,-0.1362305,-0.2436523,-0.2607422,-0.05859375
2488,27.125,1.125,29.875,0.8691406,0.8364258,-0.1474609,-0.2446289,-0.2592773,-0.05712891
2492,31.1875,1.375,24.9375,0.9194336,0.9257813,-0.07861328,-0.2460938,-0.2583008,-0.05419922
2497,27.875,3.4375,22.125,0.8959961,1.061523,-0.05517578,-0.2485352,-0.2568359,-0.05419922
2501,20.125,3.75,12.8125,0.9233398,1.205566,-0.02832031,-0.2485352,-0.2543945,-0.05175781
2505,7.1875,10.0625,3.0625,0.9155273,1.321777,-0.02441406,-0.2470703,-0.2558594,-0.05175781
2509,-5.75,11.625,-6.6875,0.8842773,1.298828,-0.01318359,-0.2485352,-0.2543945,-0.05273438
2513,-5.75,15.125,-15.9375,0.8920898,1.287109,-0.06298828,-0.2470703,-0.2568359,-0.05419922
2517,0.5625,18.125,-30.875,0.8803711,1.310547,-0.08203125,-0.2460938,-0.2568359,-0.05419922
2521,3.3125,19.0625,-42.625,0.8574219,1.388184,-0.112793,-0.2436523,-0.2607422,-0.05419922
2525,-1.8125,18.75,-50.6875,0.8496094,1.485352,-0.1474609,-0.2412109,-0.2617188,-0.05859375
2529,-12.625,15.5,-61.3125,0.8300781,1.555176,-0.1782227,-0.2402344,-0.2670898,-0.05957031
2533,-22.8125,14.25,-75.875,0.8959961,1.601563,-0.1669922,-0.234375,-0.2705078,-0.05957031
2537,-28.375,13.4375,-95.3125,0.9116211,1.512207,-0.1899414,-0.2294922,-0.2783203,-0.06542969
2541,-20,13.875,-108.875,0.9775391,1.426758,-0.1938477,-0.2236328,-0.2832031,-0.06542969
2545,-15,14.9375,-117.9375,1.000488,1.508301,-0.1743164,-0.2172852,-0.2880859,-0.06933594
2549,-29.4375,10.125,-125.75,1.02002,1.640625,-0.1977539,-0.2104492,-0.296875,-0.07177734
2553,-49.1875,8.875,-135.9375,1.144043,1.547363,-0.1708984,-0.2045898,-0.3017578,-0.07324219
2557,-56.75,13.875,-144.375,1.194336,1.430664,-0.2055664,-0.1923828,-0.3105469,-0.08007813
2561,-59.8125,14.4375,-152.8125,1.202148,1.372559,-0.2089844,-0.1806641,-0.3193359,-0.08300781
2565,-63.4375,16.1875,-157.5625,1.225586,1.356934,-0.2089844,-0.1748047,-0.3232422,-0.08837891
2569,-72.5625,16,-163.0625,1.213867,1.302734,-0.2207031,-0.1616211,-0.3305664,-0.09375
2573,-74.875,17.0625,-167.0625,1.225586,1.197754,-0.2324219,-0.1474609,-0.3378906,-0.1020508
2577,-70.75,18.3125,-171.0625,1.229492,1.104492,-0.2324219,-0.1342773,-0.3417969,-0.105957
2581,-67.625,19.5625,-171.875,1.198242,1.108398,-0.2246094,-0.1201172,-0.3481445,-0.112793
2585,-66.625,18.9375,-173.5625,1.16748,1.022949,-0.2016602,-0.1054688,-0.3520508,-0.1210938
2589,-62.625,18.5,-174.6875,1.124512,0.9799805,-0.2055664,-0.09472656,-0.3579102,-0.1235352
2593,-59.9375,19.8125,-173.3125,1.109375,0.972168,-0.1821289,-0.07714844,-0.3618164,-0.1289063
2597,-60.5,20.4375,-174.0625,0.9853516,0.9414063,-0.1669922,-0.06298828,-0.3642578,-0.1357422
2601,-58.125,17.1875,-171,0.9658203,0.855957,-0.1513672,-0.05078125,-0.3666992,-0.137207
2605,-52.625,16.625,-166.3125,0.9116211,0.875,-0.1552734,-0.03320313,-0.3691406,-0.1455078
2609,-51.5625,13.0625,-162.875,0.8300781,0.90625,-0.1206055,-0.01611328,-0.3691406,-0.1484375
2613,-54.625,11.3125,-164.5,0.7568359,0.8598633,-0.112793,-0.005859375,-0.3666992,-0.1538086
2617,-44.25,8.8125,-168,0.7836914,0.6342773,-0.04394531,0.01074219,-0.3681641,-0.1547852
2621,-24.5,17.375,-162.625,0.7680664,0.7001953,-0.02441406,0.02587891,-0.3666992,-0.1606445
2626,-30.625,14.3125,-158.875,0.6328125,0.8828125,-0.005371094,0.03662109,-0.3642578,-0.1616211
2630,-53.3125,9.6875,-150.25,0.5859375,0.8789063,0.009765625,0.0546875,-0.3618164,-0.1660156
2634,-66.5625,9.6875,-144.0625,0.5708008,0.7001953,0.03271484,0.06884766,-0.3569336,-0.1728516
2638,-72.875,8.75,-137.9375,0.5317383,0.5683594,0.03662109,0.07714844,-0.3530273,-0.1738281
2642,-70.8125,12.0625,-132.6875,0.527832,0.4399414,0.08642578,0.08789063,-0.3457031,-0.1796875
2646,-67.3125,20.3125,-128,0.4194336,0.3662109,0.05566406,0.1010742,-0.3378906,-0.1835938
2650,-66.125,21.125,-124.4375,0.3188477,0.2416992,0.03662109,0.1103516,-0.3344727,-0.1904297
2654,-65.5,20.0625,-115.1875,0.2412109,0.1098633,0.01708984,0.1201172,-0.3266602,-0.1943359
2658,-63.25,15.9375,-100.0625,0.190918,-0.006347656,0.04443359,0.1308594,-0.3193359,-0.199707
2662,-63.5,15.3125,-85.125,0.1635742,-0.09570313,0.04785156,0.1367188,-0.3144531,-0.2011719
2666,-57,21.5,-70.8125,0.1015625,-0.2275391,0.04052734,0.1450195,-0.3095703,-0.2055664
2670,-40.6875,25.625,-59.4375,-0.06054688,-0.2548828,-0.01318359,0.1484375,-0.3017578,-0.2080078
2674,-31,21.75,-52.0625,-0.1767578,-0.2006836,-0.01660156,0.1547852,-0.3007813,-0.2094727
2678,-28.875,15.75,-45.8125,-0.2041016,-0.2587891,-0.03222656,0.1591797,-0.2929688,-0.2109375
2682,-19,7.25,-30.375,-0.1845703,-0.4179688,-0.03222656,0.1640625,-0.2919922,-0.2133789
2686,-9.125,4.25,-11.5,-0.1147461,-0.2124023,-0.04003906,0.1640625,-0.2880859,-0.2109375
2690,6.9375,-0.875,14.0625,-0.1499023,-0.3208008,0.005859375,0.1650391,-0.2895508,-0.2133789
2694,10.0625,-4.8125,28.5625,-0.1147461,-0.2124023,0.04443359,0.1640625,-0.2919922,-0.2119141
2698,11.3125,-4.875,39.3125,-0.02587891,-0.1655273,0.09033203,0.1616211,-0.2919922,-0.2109375
2702,14,-0.4375,49.8125,-0.01806641,-0.1152344,0.09423828,0.1591797,-0.2944336,-0.2109375
2706,12.9375,1.6875,61.75,0.01269531,-0.05664063,0.07910156,0.1557617,-0.2983398,-0.2109375
2710,15.1875,2.8125,73.875,-0.01025391,-0.01416016,0.02099609,0.1523438,-0.3017578,-0.2080078
2714,23.375,1.375,82.875,0.02050781,0.008789063,-0.01660156,0.1450195,-0.3056641,-0.2080078
2718,41.3125,2.875,91.1875,0.05126953,0.05126953,-0.04003906,0.1376953,-0.3105469,-0.2055664
2722,54.375,0.4375,97.1875,0.004882813,0.2299805,-0.112793,0.1333008,-0.3154297,-0.2026367
2726,50.25,-4.6875,99.5,0.06298828,0.4204102,-0.1245117,0.125,-0.3217773,-0.1972656
2730,41.9375,-14.1875,109.75,0.08642578,0.3779297,-0.1401367,0.1152344,-0.328125,-0.1943359
2734,53.3125,-23.875,120.0625,0.1987305,0.3466797,-0.112793,0.109375,-0.3344727,-0.1918945
2738,69.25,-23.0625,122.125,0.3457031,0.5214844,-0.03613281,0.09863281,-0.3378906,-0.1875
2742,57.125,-20.9375,131.875,0.3925781,0.8325195,-0.001464844,0.08544922,-0.3432617,-0.1835938
2746,8.75,-29.625,140.125,0.3691406,0.9760742,0.02099609,0.07617188,-0.3491211,-0.1806641
2750,2.375,-33.375,144.375,0.4038086,0.5566406,-0.01660156,0.06152344,-0.3505859,-0.1835938
2755,47,-32.5,135,0.5317383,0.4594727,-0.1054688,0.04736328,-0.3530273,-0.1806641
2759,91.5,-29.9375,132.9375,0.59375,0.7001953,-0.1591797,0.0390625,-0.3569336,-0.1767578
2763,90.5,-33.0625,138.8125,0.6557617,1.049805,-0.1015625,0.02490234,-0.3603516,-0.1713867
2767,42.6875,-37.9375,146.6875,0.59375,1.317871,-0.07470703,0.008300781,-0.3632813,-0.1630859
2771,14.125,-49.75,160.25,0.543457,0.9179688,-0.09765625,-0.0009765625,-0.3642578,-0.1616211
2775,48,-57.1875,157.1875,0.7529297,0.7739258,-0.1245117,-0.01855469,-0.3632813,-0.1577148
2779,99.5625,-49.6875,144.25,0.9580078,0.855957,-0.05517578,-0.03515625,-0.3618164,-0.1523438
2783,120.875,-34.8125,134.8125,0.9970703,1.259766,-0.005371094,-0.04492188,-0.3657227,-0.1425781
2787,87.9375,-27.25,129.3125,0.9194336,1.547363,0.03271484,-0.05908203,-0.3657227,-0.1333008
2791,39.875,-25.1875,138.4375,0.7993164,1.321777,-0.005371094,-0.07226563,-0.3642578,-0.1264648
2795,27.3125,-35.5,144,0.8691406,1.104492,-0.05126953,-0.08203125,-0.3618164,-0.125
2799,49.8125,-29.5,138.25,1.039551,0.9335938,-0.02441406,-0.09716797,-0.3569336,-0.1210938
2803,74.5,-14.5625,126.9375,1.074219,1.06543,-0.005371094,-0.1079102,-0.3530273,-0.1142578
2807,72.0625,-5.1875,120.4375,1.074219,1.186035,-0.02050781,-0.1176758,-0.3520508,-0.1098633
2811,57.1875,-0.125,117.6875,0.9892578,1.225098,-0.06298828,-0.128418,-0.3466797,-0.1035156
2815,38.4375,0,114.625,0.9501953,1.13916,-0.1015625,-0.1391602,-0.3432617,-0.09912109
2819,30.75,-5.4375,118.625,0.9462891,0.9604492,-0.1708984,-0.1435547,-0.3393555,-0.09765625
2823,49.25,-8.4375,124.75,1.012207,0.8671875,-0.2167969,-0.1533203,-0.3354492,-0.09667969
2827,63.625,-11,123.8125,0.9580078,1.073242,-0.2397461,-0.1640625,-0.3305664,-0.08984375
2831,55.875,-18.3125,118.625,1.016113,1.213379,-0.1782227,-0.1699219,-0.3242188,-0.08447266
2835,39,-15.9375,114.0625,1.0625,1.232422,-0.1206055,-0.1782227,-0.3208008,-0.08154297
2839,25.875,-15.5625,108.625,1.055176,1.120117,-0.1015625,-0.1875,-0.3120117,-0.07470703
2843,29.25,-14.25,108.1875,1.09375,0.9956055,-0.1323242,-0.1948242,-0.3095703,-0.07324219
2847,39.875,-11,100.125,1.117188,0.9956055,-0.109375,-0.2006836,-0.3032227,-0.07177734
2851,46.0625,-4.75,94.0625,1.113281,1.026855,-0.1015625,-0.2089844,-0.2954102,-0.06640625
2855,44.6875,-0.375,89.0625,1.059082,1.049805,-0.112793,-0.2138672,-0.2944336,-0.06396484
2859,38,0.25,87.8125,1.012207,1.104492,-0.1323242,-0.2172852,-0.2880859,-0.06103516
2863,27.1875,-0.1875,84.5,0.9619141,1.154785,-0.128418,-0.2246094,-0.2817383,-0.05859375
2867,21.25,0.0625,81.6875,0.9423828,1.081055,-0.1054688,-0.2280273,-0.2783203,-0.05712891
2871,33.0625,3,74.6875,0.9116211,1.092773,-0.09765625,-0.2329102,-0.2744141,-0.05419922
2875,46.0625,6.25,61.4375,0.8652344,1.251953,-0.1054688,-0.237793,-0.2680664,-0.05273438
2879,49.8125,9.1875,44.75,0.8613281,1.403809,-0.03613281,-0.2387695,-0.2670898,-0.05175781
2884,35.8125,14.25,33.0625,0.8417969,1.597656,-0.02441406,-0.2426758,-0.2617188,-0.04882813
2888,14.75,12.25,21.6875,0.7758789,1.613281,-0.04394531,-0.2436523,-0.2607422,-0.04882813
2892,4.625,6.375,10,0.8032227,1.597656,-0.02050781,-0.2446289,-0.2592773,-0.04736328
2896,0.25,9.875,-5.25,0.8920898,1.578613,-0.001464844,-0.2436523,-0.2592773,-0.04736328
2900,-1.5,16.375,-19.0625,0.8959961,1.58252,-0.01318359,-0.2426758,-0.2607422,-0.05029297
2904,-5.1875,21.5625,-34.3125,0.8842773,1.58252,-0.05517578,-0.2426758,-0.2617188,-0.05029297
2908,-11.75,24.5625,-51.0625,0.8652344,1.590332,-0.109375,-0.2387695,-0.2641602,-0.05273438
2912,-17.1875,25.3125,-62.75,0.8457031,1.559082,-0.1630859,-0.2353516,-0.2680664,-0.05566406
2916,-22.4375,23.1875,-75.8125,0.8339844,1.527832,-0.2128906,-0.2329102,-0.2744141,-0.05712891
2920,-21.4375,21.5625,-87.375,0.8300781,1.49707,-0.2475586,-0.2294922,-0.2783203,-0.05957031
2924,-24.4375,17,-100,0.8457031,1.516113,-0.2783203,-0.2211914,-0.2841797,-0.06396484
2928,-28.3125,13.0625,-111.125,0.9116211,1.469727,-0.2744141,-0.2172852,-0.2905273,-0.06640625
2932,-30.8125,10.125,-121.4375,0.9389648,1.477539,-0.2978516,-0.2089844,-0.2954102,-0.06933594
2936,-32.375,7.8125,-135.75,0.9697266,1.461914,-0.2822266,-0.2006836,-0.3041992,-0.07324219
2940,-35.75,3.1875,-147.25,1.008301,1.415039,-0.2744141,-0.1938477,-0.3095703,-0.07617188
2944,-38.1875,0.8125,-152.375,1.085938,1.356934,-0.2822266,-0.184082,-0.3168945,-0.08007813
2948,-41.5,-2.3125,-158.625,1.105469,1.333496,-0.2705078,-0.1708984,-0.3266602,-0.08300781
2952,-47.1875,-5.5625,-163.9375,1.171387,1.325684,-0.2363281,-0.1625977,-0.3305664,-0.08447266
2956,-52.6875,-5.25,-167,1.171387,1.251953,-0.2207031,-0.1474609,-0.3393555,-0.09082031
2960,-51.9375,-6.5625,-173.9375,1.140137,1.189941,-0.2016602,-0.1328125,-0.3466797,-0.09375
2964,-47,-6.3125,-172.75,1.186523,1.13916,-0.1591797,-0.1259766,-0.3491211,-0.09667969
2968,-47.25,-5.375,-169.4375,1.159668,1.236328,-0.1245117,-0.109375,-0.3554688,-0.09912109
2972,-57.75,-5.8125,-168.1875,1.171387,1.291016,-0.1015625,-0.09472656,-0.3603516,-0.1044922
2976,-68.625,-0.8125,-168.75,1.186523,1.240234,-0.07080078,-0.08398438,-0.3666992,-0.1098633
2980,-70.6875,5.6875,-171.625,1.147949,1.20166,-0.06689453,-0.06884766,-0.3681641,-0.112793
2984,-75.9375,8.4375,-177,1.078125,1.228516,-0.1015625,-0.05078125,-0.371582,-0.1210938
2988,-82.4375,9,-178.6875,1.039551,1.120117,-0.09375,-0.04150391,-0.3745117,-0.1264648
2992,-78,10.5,-177.4375,1.000488,0.9838867,-0.1015625,-0.02099609,-0.3745117,-0.1318359
2996,-65.625,15.9375,-175.5,1.000488,0.9414063,-0.0859375,-0.005859375,-0.3730469,-0.1401367
3000,-66.1875,18,-171.5,0.8769531,1.019043,-0.0859375,0.006835938,-0.3706055,-0.1425781
3004,-74.0625,15.1875,-169.6875,0.7954102,0.953125,-0.1054688,0.0234375,-0.3706055,-0.1523438
3008,-74.6875,14.8125,-170.5,0.7602539,0.824707,-0.09765625,0.0390625,-0.3657227,-0.1577148
3013,-70.375,15.8125,-168.0625,0.7294922,0.7314453,-0.06689453,0.05078125,-0.3618164,-0.1616211
3017,-70.6875,16.625,-162.4375,0.6328125,0.6845703,-0.08203125,0.06787109,-0.3554688,-0.168457
3021,-68.5,13.6875,-157.75,0.5512695,0.5878906,-0.05126953,0.08300781,-0.3505859,-0.1728516
3025,-65.25,11.8125,-153.125,0.543457,0.5058594,0.005859375,0.09375,-0.3457031,-0.1767578
3029,-64.375,14.8125,-146.8125,0.5395508,0.4594727,0.04785156,0.1079102,-0.3393555,-0.1821289
3033,-69.9375,19.5625,-141.6875,0.4814453,0.3779297,0.04052734,0.1225586,-0.3320313,-0.1865234
3037,-75,23.3125,-132.3125,0.3691406,0.2456055,0.001953125,0.1308594,-0.3256836,-0.1904297
3041,-75.5,22,-121.9375,0.2607422,0.08642578,-0.001464844,0.1416016,-0.3154297,-0.1943359
3045,-68.6875,22.3125,-106.875,0.2026367,-0.05273438,-0.001464844,0.1508789,-0.3056641,-0.1987305
3049,-55.875,23.9375,-94.4375,0.1171875,-0.1733398,-0.005371094,0.1591797,-0.3007813,-0.2026367
3053,-35.1875,25,-79,0.03564453,-0.2470703,0.005859375,0.1665039,-0.2944336,-0.2055664
3057,-16.875,25.1875,-64.75,-0.02197266,-0.1694336,0.02099609,0.1699219,-0.2880859,-0.2055664
3061,-9.8125,24.625,-52.5625,-0.1186523,-0.03369141,0.01708984,0.1757813,-0.2841797,-0.2041016
3065,-9.625,17.6875,-40.6875,-0.2080078,0.03613281,0.01708984,0.1821289,-0.2832031,-0.2055664
3069,-12.375,11.625,-33.5625,-0.1884766,0.04394531,0.07128906,0.1865234,-0.2783203,-0.206543
3073,-14.75,11.5,-24.4375,-0.1806641,0.02050781,0.09033203,0.1865234,-0.2768555,-0.2055664
3077,-14.25,8.875,-14.8125,-0.2119141,-0.06835938,0.07910156,0.1865234,-0.2744141,-0.2055664
3081,-5.875,9.8125,-2.0625,-0.2041016,-0.1074219,0.03662109,0.1889648,-0.2729492,-0.2055664
3085,8.25,5.125,9.0625,-0.2734375,-0.09960938,0.02099609,0.1879883,-0.2729492,-0.2055664
3089,15.9375,0.25,17.5,-0.2192383,-0.01806641,0.04052734,0.1904297,-0.2744141,-0.2055664
3093,12.4375,-0.3125,30,-0.1650391,0.01660156,0.09033203,0.1879883,-0.2768555,-0.2041016
3097,12.375,3.9375,43.375,-0.1806641,0.004882813,0.08642578,0.1865234,-0.2783203,-0.199707
3101,20.9375,1.5,50.125,-0.2734375,0.04003906,-0.005371094,0.1831055,-0.2832031,-0.199707
3105,31.125,-5.25,57.5625,-0.1962891,0.1020508,-0.01318359,0.1796875,-0.2866211,-0.199707
3109,36.875,-8.3125,66.0625,-0.1806641,0.15625,-0.02441406,0.1772461,-0.2905273,-0.1972656
3113,37.5625,-15.25,75.9375,-0.1186523,0.2299805,0.02099609,0.1713867,-0.2954102,-0.1958008
3117,38.1875,-15,83.6875,-0.04101563,0.2963867,0.04443359,0.1650391,-0.3032227,-0.1928711
3121,32.6875,-17.25,88.4375,0.01269531,0.3701172,0.05566406,0.1606445,-0.3081055,-0.1928711
3125,20.75,-19.75,93.625,0.1054688,0.3544922,0.05566406,0.1523438,-0.3129883,-0.1928711
3129,14,-17.5625,110.375,0.2104492,0.2416992,0.04785156,0.144043,-0.3168945,-0.1875
3133,27.125,-16.8125,122.4375,0.1518555,0.300293,0.005859375,0.1367188,-0.3217773,-0.1904297
3137,37.3125,-20.1875,119.9375,0.2490234,0.4125977,-0.01660156,0.1235352,-0.3266602,-0.1889648
3142,41.25,-20.25,116.8125,0.3535156,0.4204102,-0.009277344,0.1152344,-0.3344727,-0.1865234
3146,40.875,-20,119.3125,0.5087891,0.4086914,0.009765625,0.1069336,-0.3354492,-0.1850586
3150,53.3125,-11.3125,141.5,0.4931641,0.3388672,-0.08203125,0.09277344,-0.3432617,-0.1806641
3154,76.125,-14.3125,145,0.4580078,0.5761719,-0.128418,0.07958984,-0.3491211,-0.1767578
3158,77.1875,-20.5625,140.5625,0.5859375,0.809082,-0.1245117,0.07128906,-0.3530273,-0.1699219
3162,57.625,-23.75,141.5,0.675293,0.8442383,-0.02832031,0.05566406,-0.3569336,-0.1645508
3166,41.625,-23.125,152.9375,0.7138672,0.809082,-0.07470703,0.04150391,-0.3603516,-0.1630859
3170,30.8125,-28.8125,161.8125,0.7294922,0.8325195,-0.1474609,0.03173828,-0.3632813,-0.1591797
3174,36.6875,-38.1875,164.9375,0.8183594,0.7314453,-0.2016602,0.01416016,-0.3657227,-0.1591797
3178,57.75,-36.875,162,0.9736328,0.6186523,-0.1362305,-0.001953125,-0.3666992,-0.1508789
3182,83.625,-30.3125,176.6875,1.035645,0.7353516,-0.1474609,-0.01513672,-0.3657227,-0.1484375
3186,79.25,-31.875,187.8125,0.9389648,1.255859,-0.1821289,-0.03173828,-0.3706055,-0.1416016
3190,44.0625,-44.1875,189.8125,0.9462891,1.415039,-0.1401367,-0.04980469,-0.3666992,-0.1357422
3194,34.5625,-53.6875,187.8125,0.9775391,1.251953,-0.1591797,-0.06396484,-0.3642578,-0.1347656
3198,66.3125,-56,177.9375,1.182617,1.084961,-0.04003906,-0.08300781,-0.3603516,-0.1289063
3202,96,-37.9375,171.6875,1.268066,1.325684,0.05175781,-0.1020508,-0.3579102,-0.1181641
3206,94.375,-25.75,173,1.163574,1.65625,-0.009277344,-0.1103516,-0.3544922,-0.1113281
3210,68.4375,-19.75,164.5,1.101563,1.803711,0.04443359,-0.1259766,-0.3466797,-0.1035156
3214,40.6875,-20.375,152.5,1.012207,1.694824,-0.02050781,-0.1401367,-0.3417969,-0.09667969
3218,32.75,-23,141.0625,1.078125,1.39209,-0.005371094,-0.1474609,-0.3369141,-0.09228516
3222,57.5625,-13.125,132.9375,1.182617,1.240234,-0.01318359,-0.1616211,-0.3305664,-0.09082031
3226,74.1875,-2.75,124.5625,1.113281,1.403809,-0.08984375,-0.168457,-0.3256836,-0.08447266
3230,64.4375,-3.0625,121.25,1.008301,1.458008,-0.1401367,-0.1772461,-0.3217773,-0.08007813
3234,49.5,-5.8125,112.8125,1.016113,1.403809,-0.1474609,-0.1865234,-0.3154297,-0.07324219
3238,45.375,-3.5,99.75,1.012207,1.228516,-0.1743164,-0.1938477,-0.3105469,-0.07080078
3242,47.9375,-3.375,92.875,1.039551,1.077148,-0.1591797,-0.1982422,-0.3056641,-0.06640625
3246,53.875,0.75,91.5,1.0625,1.06543,-0.1591797,-0.2055664,-0.3007813,-0.06103516
3250,48.375,2.4375,88.375,0.9423828,1.135742,-0.1899414,-0.2114258,-0.2944336,-0.05957031
3254,42.0625,-1.1875,87.25,0.8691406,1.09668,-0.1938477,-0.2163086,-0.2929688,-0.05566406
3258,42.1875,-2.5625,83.1875,0.8149414,1.143066,-0.2016602,-0.222168,-0.2866211,-0.05566406
3262,44.9375,-6.625,76.1875,0.8071289,1.217285,-0.1669922,-0.2270508,-0.2817383,-0.05029297
3266,42.4375,-7.4375,69.9375,0.8032227,1.388184,-0.1323242,-0.2304688,-0.2783203,-0.04638672
3271,28.5,-5.75,60.4375,0.8071289,1.562988,-0.05908203,-0.234375,-0.2729492,-0.04492188
3275,14.375,-1.25,43.625,0.8032227,1.65625,-0.05126953,-0.2387695,-0.2695313,-0.04345703
3279,10.5,5.5625,20.1875,0.7915039,1.65625,-0.05126953,-0.2387695,-0.2670898,-0.04052734
3283,6.125,8.625,4.1875,0.7255859,1.718262,-0.08203125,-0.237793,-0.2670898,-0.04052734
3287,-7.25,6.3125,-6.9375,0.6948242,1.795898,-0.1435547,-0.2402344,-0.2670898,-0.04345703
3291,-21.4375,1.0625,-20.625,0.6982422,1.76123,-0.1591797,-0.2412109,-0.265625,-0.04345703
3295,-30.4375,1.5625,-38.4375,0.7602539,1.722168,-0.1821289,-0.2402344,-0.2680664,-0.04345703
3299,-35.125,0.1875,-55.0625,0.7797852,1.621094,-0.1782227,-0.2353516,-0.2695313,-0.04638672
3303,-38.6875,-0.6875,-67.5625,0.8378906,1.570801,-0.1899414,-0.2329102,-0.2744141,-0.04736328
3307,-37.125,0.625,-83.6875,0.8999023,1.512207,-0.1362305,-0.2294922,-0.2792969,-0.05273438
3311,-33.75,3.875,-97.25,0.9155273,1.489258,-0.1435547,-0.2236328,-0.2856445,-0.05175781
3315,-26.75,6.125,-110.25,0.9541016,1.450195,-0.128418,-0.21875,-0.2880859,-0.05566406
3319,-18.3125,10.875,-122.6875,0.9697266,1.566895,-0.1552734,-0.2104492,-0.296875,-0.05957031
3323,-28.6875,7.5625,-135.4375,0.9541016,1.749512,-0.1860352,-0.2021484,-0.3066406,-0.05957031
3327,-54.5,2.75,-145.5625,1.027832,1.726074,-0.2246094,-0.1923828,-0.3105469,-0.06396484
3331,-74.9375,-1.75,-152.625,1.113281,1.543457,-0.2397461,-0.184082,-0.3178711,-0.06933594
3335,-78,-0.6875,-162.0625,1.233398,1.341309,-0.2055664,-0.1708984,-0.3266602,-0.07470703
3339,-65.8125,7.125,-165.75,1.287598,1.205566,-0.1899414,-0.1625977,-0.3305664,-0.08154297
3343,-58.75,12.375,-168.125,1.260254,1.263672,-0.1899414,-0.1494141,-0.3393555,-0.08691406
3347,-66.0625,12.3125,-170.0625,1.209961,1.310547,-0.1938477,-0.1342773,-0.3457031,-0.09228516
3351,-75.1875,13.25,-170.8125,1.186523,1.279297,-0.1860352,-0.1235352,-0.3491211,-0.09667969
3355,-86.6875,11.1875,-174.0625,1.171387,1.240234,-0.2055664,-0.109375,-0.3554688,-0.1035156
3359,-89.5,14.0625,-175.8125,1.194336,1.143066,-0.1743164,-0.09472656,-0.359375,-0.112793
3363,-89.375,16.875,-174,1.13623,1.069336,-0.1708984,-0.08203125,-0.3603516,-0.1181641
3367,-87.6875,17.3125,-172.6875,1.085938,1.015137,-0.1743164,-0.06494141,-0.3632813,-0.125
3371,-83.3125,19,-171.5,1.074219,0.953125,-0.1362305,-0.04736328,-0.3681641,-0.137207
3375,-76.5,25,-168.875,1.043457,0.8984375,-0.1054688,-0.03662109,-0.3657227,-0.1401367
3379,-71.1875,29.5,-165.125,0.9350586,0.9023438,-0.09765625,-0.01855469,-0.3666992,-0.1455078
3383,-70.6875,29.8125,-158.5625,0.8222656,0.9296875,-0.09765625,-0.0009765625,-0.3681641,-0.1523438
3387,-69.5,26.75,-153.1875,0.6831055,0.8867188,-0.1323242,0.006835938,-0.3642578,-0.1577148
3391,-60.5,21.25,-152,0.6635742,0.9023438,-0.1362305,0.02246094,-0.3642578,-0.1645508
3395,-56.25,18.75,-156.4375,0.6870117,0.9414063,-0.1054688,0.03808594,-0.3603516,-0.168457
3400,-62.9375,16,-155.5,0.6362305,0.9453125,-0.0859375,0.04882813,-0.3569336,-0.1699219
3404,-73.5625,13.3125,-152.5625,0.6674805,0.7817383,-0.001464844,0.06298828,-0.3505859,-0.1767578
3408,-78.5625,15.5625,-141.1875,0.6015625,0.6303711,0.005859375,0.07714844,-0.3457031,-0.1821289
3412,-72.875,20.25,-134.875,0.5473633,0.5019531,0.005859375,0.08544922,-0.3417969,-0.1875
3416,-63.625,23.1875,-133.125,0.4619141,0.4438477,0.001953125,0.09863281,-0.3354492,-0.1928711
3420,-63.0625,23.125,-128.3125,0.4077148,0.4243164,-0.001464844,0.1103516,-0.3266602,-0.1972656
3424,-72.0625,21.8125,-121.5,0.3188477,0.3466797,-0.009277344,0.1176758,-0.3232422,-0.2011719
3428,-81.375,18.125,-110.5625,0.2451172,0.1953125,-0.01660156,0.1293945,-0.3129883,-0.2055664
3432,-82.4375,15.125,-95.75,0.2294922,0.01269531,0.005859375,0.1391602,-0.3056641,-0.2119141
3436,-70.0625,17.875,-81.9375,0.1635742,-0.1616211,0.01708984,0.1459961,-0.2983398,-0.2133789
3440,-45.3125,22.3125,-71.5,0.1015625,-0.2626953,0.02880859,0.1533203,-0.2905273,-0.2177734
3444,-22.0625,23.0625,-62.6875,-0.01025391,-0.2241211,0.009765625,0.1591797,-0.2841797,-0.21875
3448,-8.625,20.25,-50,-0.03320313,-0.1850586,0.04785156,0.1630859,-0.2841797,-0.2202148
3452,-4.75,19.625,-38.1875,-0.07617188,-0.08789063,0.07519531,0.1665039,-0.2807617,-0.2177734
3456,-7.875,16.3125,-27.6875,-0.09912109,-0.04150391,0.07519531,0.1713867,-0.2783203,-0.21875
3460,-9.625,15.75,-16.125,-0.1459961,-0.09179688,0.04443359,0.1713867,-0.2783203,-0.2202148
3464,-5.25,11.6875,-5.125,-0.1806641,-0.1308594,0.03271484,0.1738281,-0.2753906,-0.2202148
3468,0.375,6.9375,8.3125,-0.1962891,-0.08398438,0.02490234,0.1748047,-0.2744141,-0.2177734
3472,1.875,2.8125,19.9375,-0.2041016,-0.02587891,0.04443359,0.1738281,-0.2753906,-0.21875
3476,7,-0.375,30.75,-0.1572266,-0.02587891,0.07128906,0.1713867,-0.2783203,-0.2177734
3480,15.3125,0.5625,40.5625,-0.2080078,0.04003906,0.02880859,0.1674805,-0.2792969,-0.2163086
3484,23.625,-5.375,48.5,-0.2080078,0.1333008,0.05566406,0.1674805,-0.2841797,-0.2163086
3488,31.9375,-5.1875,53.25,-0.1381836,0.2109375,0.09423828,0.1640625,-0.2856445,-0.2133789
3492,40.625,-5.0625,61.875,-0.1611328,0.3193359,0.07519531,0.1591797,-0.2919922,-0.2133789
3496,46.25,-7.625,64.375,-0.1611328,0.4516602,0.105957,0.1557617,-0.296875,-0.2109375
3500,45.875,-9.875,65.1875,-0.1303711,0.5761719,0.1098633,0.1508789,-0.3007813,-0.206543
3504,33.1875,-14.6875,69.8125,-0.09130859,0.7158203,0.125,0.1450195,-0.3066406,-0.2041016
3508,16.125,-20.125,79.3125,-0.06445313,0.6577148,0.125,0.1416016,-0.3095703,-0.2041016
3512,14.875,-23.5,84.125,0.01660156,0.5761719,0.1367188,0.1318359,-0.3120117,-0.2026367
3516,26.4375,-23.125,85.5625,0.05908203,0.5722656,0.1557617,0.125,-0.3193359,-0.2055664
3520,31.6875,-20.75,85.5625,0.1367188,0.6733398,0.1943359,0.1186523,-0.3208008,-0.2026367
3524,27.125,-17.375,88.625,0.1635742,0.7314453,0.1674805,0.1118164,-0.3256836,-0.199707
3529,20.125,-17.375,93.25,0.1987305,0.6962891,0.1674805,0.1035156,-0.3305664,-0.199707
3533,22.6875,-18.875,100.8125,0.1635742,0.6538086,0.09814453,0.09521484,-0.3320313,-0.1987305
3537,36.25,-20.5625,103.25,0.2646484,0.5878906,0.09814453,0.08691406,-0.3369141,-0.1987305
3541,55.625,-16.375,106,0.2797852,0.6772461,0.09423828,0.07617188,-0.3408203,-0.1918945
3545,58.625,-18.5625,106.8125,0.3110352,0.8828125,0.07128906,0.06884766,-0.3432617,-0.1889648
3549,41.4375,-20.1875,112.25,0.3496094,1.007324,0.07910156,0.05957031,-0.3481445,-0.1865234
3553,19.8125,-27.6875,116.8125,0.2993164,1.022949,0.06347656,0.04638672,-0.3505859,-0.1835938
3557,11.75,-31.875,119.875,0.4233398,0.7856445,0.08642578,0.04052734,-0.3520508,-0.1835938
3561,34.4375,-31.5,118.625,0.4541016,0.6845703,0.04785156,0.02587891,-0.3530273,-0.1806641
3565,60.125,-28.3125,113.3125,0.5976563,0.7509766,0.07910156,0.01269531,-0.3554688,-0.1782227
3569,55,-24.8125,118.625,0.5898438,1.015137,0.03662109,0.008300781,-0.3569336,-0.175293
3573,20.625,-32.375,127.4375,0.6015625,1.061523,0.06738281,-0.004394531,-0.3603516,-0.1713867
3577,8.1875,-34.375,135.1875,0.6132813,0.7856445,0.05566406,-0.02099609,-0.3579102,-0.168457
3581,30.75,-35.75,134.8125,0.6870117,0.6342773,0.01367188,-0.02929688,-0.359375,-0.168457
3585,65.375,-27.875,132,0.8183594,0.7197266,0.04443359,-0.04248047,-0.3579102,-0.1645508
3589,77.5,-21.125,127.3125,0.7915039,0.9916992,-0.01660156,-0.05664063,-0.3569336,-0.1577148
3593,57.5625,-23.6875,125.4375,0.7758789,1.158691,-0.01660156,-0.06396484,-0.3554688,-0.1538086
3597,25.6875,-31.8125,127.5,0.7680664,1.061523,-0.04394531,-0.07714844,-0.3544922,-0.1484375
3601,20.875,-37.875,136,0.8730469,0.7392578,-0.0859375,-0.08886719,-0.3491211,-0.1455078
3605,45.75,-39.6875,141.9375,0.9736328,0.6655273,-0.06298828,-0.09716797,-0.3457031,-0.1425781
3609,77.4375,-33.1875,138.625,1.05127,0.7895508,-0.05517578,-0.112793,-0.3432617,-0.137207
3613,94.875,-20.875,130.8125,1.070313,1.019043,-0.03222656,-0.1245117,-0.3393555,-0.1289063
3617,85.25,-15.625,122.0625,0.9931641,1.240234,-0.03222656,-0.1328125,-0.3378906,-0.1235352
3621,60.8125,-17.375,119.125,0.9853516,1.17041,-0.05517578,-0.1411133,-0.3354492,-0.1157227
3625,54.5625,-18,122.75,1.035645,0.9453125,-0.112793,-0.1518555,-0.3305664,-0.1088867
3629,64.375,-19.5625,127,1.082031,0.956543,-0.1513672,-0.1601563,-0.3266602,-0.105957
3633,69.6875,-19.4375,125.4375,1.097656,1.01123,-0.128418,-0.1708984,-0.3217773,-0.09765625
3637,73.125,-17,117.6875,1.09375,1.084961,-0.08984375,-0.1806641,-0.3154297,-0.09082031
3641,66.1875,-14.0625,116.0625,1.074219,1.158691,-0.07861328,-0.1865234,-0.3129883,-0.08691406
3645,55.75,-15.0625,110.3125,1.05127,1.174316,-0.109375,-0.1938477,-0.3041992,-0.08300781
3649,53.6875,-13.375,102.8125,1.105469,1.057617,-0.08203125,-0.203125,-0.3007813,-0.07470703
3653,60.8125,-7.125,100.875,1.109375,0.9916992,-0.06298828,-0.2055664,-0.296875,-0.07324219
3658,68.5,-3.625,97.1875,1.070313,1.022949,-0.07861328,-0.2138672,-0.2919922,-0.06640625
3662,73.6875,3,92.0625,1.082031,1.084961,-0.05908203,-0.2197266,-0.2856445,-0.06396484
3666,65.5625,8.75,88.1875,1.012207,1.236328,-0.09765625,-0.2246094,-0.2832031,-0.06103516
3670,43.8125,8.5625,82.5625,0.9116211,1.291016,-0.07080078,-0.2294922,-0.2753906,-0.05566406
3674,28.75,7.5625,81.6875,0.8535156,1.236328,-0.1435547,-0.2353516,-0.2705078,-0.05029297
3678,26.9375,2.8125,74.75,0.8222656,1.182129,-0.1591797,-0.237793,-0.2670898,-0.05175781
3682,33.75,2.3125,66.5,0.8457031,1.193848,-0.1474609,-0.2412109,-0.2617188,-0.05175781
3686,40.125,3.8125,58.25,0.8183594,1.298828,-0.1054688,-0.2446289,-0.2568359,-0.04736328
3690,37.5625,5.9375,51.5,0.7758789,1.500488,-0.1513672,-0.2485352,-0.2558594,-0.04638672
3694,25.0625,7.125,34.625,0.7602539,1.667969,-0.1401367,-0.2519531,-0.2495117,-0.04638672
3698,8.4375,7.1875,14.3125,0.7177734,1.776367,-0.1938477,-0.2519531,-0.2480469,-0.04492188
3702,-9.5625,4.1875,-9.5625,0.7060547,1.819336,-0.2016602,-0.2543945,-0.2519531,-0.04345703
3706,-27.875,2.6875,-31.3125,0.7412109,1.791992,-0.2436523,-0.253418,-0.2519531,-0.04736328
3710,-43,-0.25,-47.75,0.7602539,1.640625,-0.2475586,-0.2509766,-0.2529297,-0.04736328
3714,-48.5625,-4.5625,-62.9375,0.7875977,1.489258,-0.2592773,-0.2485352,-0.2558594,-0.04882813
3718,-39.1875,-4.125,-75.9375,0.8842773,1.356934,-0.2324219,-0.2446289,-0.2592773,-0.05273438
3722,-31.375,-5.125,-86.0625,0.8920898,1.454102,-0.2514648,-0.2387695,-0.2670898,-0.05419922
3726,-35,-8.5625,-99.5,0.9580078,1.539551,-0.2285156,-0.234375,-0.2719727,-0.05419922
3730,-42.5625,-8.125,-112.125,1.012207,1.555176,-0.2055664,-0.2280273,-0.2783203,-0.05712891
3734,-46.375,-8.625,-127.5,1.0625,1.508301,-0.2055664,-0.2211914,-0.2841797,-0.0625
3738,-45.4375,-7.3125,-141.3125,1.16748,1.523926,-0.1743164,-0.2163086,-0.2895508,-0.0625
3742,-53.25,-5.125,-152.25,1.237305,1.547363,-0.1513672,-0.206543,-0.2983398,-0.06640625
3746,-65.6875,-3.8125,-158.125,1.291504,1.493164,-0.1474609,-0.1923828,-0.3081055,-0.06787109
3750,-74.5625,0.1875,-162,1.337891,1.372559,-0.1166992,-0.1875,-0.3144531,-0.07324219
3754,-77.25,6.5625,-162.3125,1.353516,1.321777,-0.1362305,-0.1748047,-0.3232422,-0.08154297
3758,-77.75,9.8125,-161.6875,1.287598,1.325684,-0.1782227,-0.1601563,-0.328125,-0.08837891
3762,-81.5,7.3125,-165.875,1.275879,1.384277,-0.1938477,-0.1542969,-0.3344727,-0.09375
3766,-84.75,11.1875,-176.125,1.357422,1.32959,-0.1552734,-0.1391602,-0.3417969,-0.1005859
3770,-83.6875,16.75,-187.4375,1.368652,1.217285,-0.1513672,-0.1245117,-0.3505859,-0.1088867
3774,-86,21.625,-190.4375,1.357422,1.193848,-0.1552734,-0.112793,-0.3530273,-0.1142578
3778,-95.375,23.1875,-185.375,1.260254,1.100586,-0.1743164,-0.09375,-0.3579102,-0.1235352
3782,-97.0625,23.1875,-179.0625,1.244629,0.9799805,-0.1782227,-0.078125,-0.3603516,-0.1303711
3787,-83.8125,24.5625,-176.0625,1.121094,0.855957,-0.1782227,-0.06738281,-0.3632813,-0.1386719
3791,-60.3125,26.1875,-179.0625,1.097656,0.8481445,-0.128418,-0.04736328,-0.3632813,-0.1455078
3795,-47.5625,30.625,-183.3125,1.047363,0.9838867,-0.112793,-0.03076172,-0.3657227,-0.1494141
3799,-51.6875,28.6875,-184.25,0.9697266,1.049805,-0.1054688,-0.01611328,-0.3642578,-0.1523438
3803,-64.5,25.375,-179,0.9389648,0.9916992,-0.1015625,0,-0.3642578,-0.1577148
3807,-68,25,-171,0.8652344,0.8828125,-0.08984375,0.01757813,-0.3632813,-0.1645508
3811,-65.5,24.125,-168.5,0.8261719,0.809082,-0.07470703,0.02978516,-0.3618164,-0.1674805
3815,-57.75,26.75,-167.125,0.7797852,0.7666016,-0.05126953,0.04736328,-0.3569336,-0.1738281
3819,-51,27.6875,-170.5,0.6982422,0.7392578,-0.05126953,0.06298828,-0.3520508,-0.1767578
3823,-49.125,27.125,-174.5625,0.6674805,0.6459961,-0.03222656,0.07470703,-0.3491211,-0.1796875
3827,-50.4375,28.4375,-168.125,0.6479492,0.5527344,0.01367188,0.09130859,-0.3417969,-0.1821289
3831,-62.125,30.3125,-156.5,0.5976563,0.5058594,0.02099609,0.109375,-0.3378906,-0.1889648
3835,-75.1875,31.625,-141.8125,0.4658203,0.3623047,-0.001464844,0.1176758,-0.3305664,-0.1889648
3839,-76.1875,31.6875,-130.9375,0.3496094,0.1796875,-0.01660156,0.1342773,-0.3217773,-0.1958008
3843,-63.125,34,-126.875,0.3071289,-0.02197266,-0.01318359,0.1450195,-0.3120117,-0.1972656
3847,-43.375,37.75,-117.3125,0.1831055,-0.1074219,-0.06689453,0.1499023,-0.3066406,-0.2011719
3851,-33.9375,33.1875,-103.625,0.07470703,-0.04150391,-0.05908203,0.1630859,-0.2983398,-0.2041016
3855,-39.25,28.0625,-88.3125,0.0009765625,-0.02587891,-0.02050781,0.1689453,-0.2895508,-0.2041016
3859,-40.8125,27.125,-77.75,-0.05664063,-0.1308594,-0.009277344,0.1757813,-0.2841797,-0.2041016
3863,-22.375,28.5,-73.25,-0.06445313,-0.2587891,-0.005371094,0.1831055,-0.2792969,-0.206543
3867,-2.9375,27.8125,-65,-0.1225586,-0.2392578,-0.02441406,0.1904297,-0.2753906,-0.2041016
3871,1.3125,23.5625,-44.5625,-0.1884766,-0.1347656,-0.02441406,0.1938477,-0.2729492,-0.2055664
3875,-6.8125,12.875,-24.9375,-0.2851563,-0.1191406,-0.02441406,0.1962891,-0.2705078,-0.2026367
3879,-9.6875,7.25,-12,-0.2890625,-0.1850586,-0.03613281,0.1987305,-0.2680664,-0.2011719
3883,-6.625,2.125,-0.5,-0.3125,-0.1967773,-0.02832031,0.1987305,-0.2680664,-0.2011719
3887,-4.1875,-5.6875,16.375,-0.2583008,-0.1420898,-0.005371094,0.199707,-0.2670898,-0.2055664
3891,3.25,-8.8125,28,-0.2080078,-0.1616211,0.06347656,0.1972656,-0.2695313,-0.2055664
3895,20.8125,-5.375,36.25,-0.1767578,-0.1191406,0.09033203,0.1948242,-0.2705078,-0.2026367
3899,29.75,-5.6875,43.375,-0.1845703,0.01269531,0.09033203,0.1914063,-0.2744141,-0.2011719
3903,28.25,-4.1875,51.0625,-0.1611328,0.1176758,0.05566406,0.1889648,-0.2792969,-0.2011719
3907,24.125,-9,60.125,-0.1845703,0.140625,0.02490234,0.1879883,-0.2807617,-0.199707
3911,22.4375,-12.625,73.5625,-0.1264648,0.15625,0.02099609,0.1821289,-0.2880859,-0.1987305
3916,25.75,-17.8125,82.375,-0.1108398,0.1796875,0.01708984,0.1748047,-0.2929688,-0.1972656
3920,31.3125,-18.75,86.75,-0.002441406,0.1835938,0.02490234,0.1713867,-0.2954102,-0.1972656
3924,46,-16.625,91.875,-0.01025391,0.1835938,0.03662109,0.1616211,-0.3032227,-0.1958008
3928,53.6875,-19.5,101,0.06298828,0.3349609,0.009765625,0.1567383,-0.3105469,-0.1928711
3932,56.0625,-21.375,109.9375,0.1367188,0.4711914,0.03271484,0.1484375,-0.3144531,-0.1889648
3936,48,-23.5,115.5625,0.2333984,0.5644531,0.06347656,0.1367188,-0.3232422,-0.1850586
3940,48.625,-20.3125,120,0.3110352,0.5058594,0.08642578,0.1259766,-0.3291016,-0.1835938
3944,64.25,-12.125,124.6875,0.3339844,0.5136719,0.07519531,0.1210938,-0.3344727,-0.1821289
3948,75.8125,-9.3125,125.375,0.3496094,0.7275391,0.01367188,0.109375,-0.3417969,-0.1767578
3952,67.5625,-6,127.4375,0.3574219,0.8710938,-0.03222656,0.09521484,-0.3481445,-0.1674805
3956,42.125,-16.8125,133.75,0.3613281,0.9643555,-0.0859375,0.09033203,-0.3554688,-0.1674805
3960,38.4375,-22.9375,147.5625,0.4506836,0.7392578,-0.04394531,0.07470703,-0.3579102,-0.1630859
3964,61.75,-19.4375,145.8125,0.5009766,0.7739258,0.001953125,0.05712891,-0.3603516,-0.1616211
3968,71.5625,-16.1875,146.5,0.5629883,0.9956055,-0.03613281,0.04882813,-0.3632813,-0.1577148
3972,58.0625,-17.4375,144.8125,0.6132813,1.166504,-0.03222656,0.03564453,-0.3691406,-0.1494141
3976,31.875,-20.9375,149.125,0.675293,1.120117,-0.05126953,0.02001953,-0.3681641,-0.1469727
3980,27.6875,-21.4375,151,0.7294922,0.9023438,-0.04736328,0.009277344,-0.371582,-0.1425781
3984,57.5,-15.8125,150.125,0.7915039,0.8168945,-0.06689453,-0.005859375,-0.371582,-0.1425781
3988,76.125,-11.875,145.5625,0.8110352,1.026855,-0.112793,-0.02001953,-0.371582,-0.1347656
3992,72.125,-9.25,144.25,0.8496094,1.12793,-0.05908203,-0.02929688,-0.371582,-0.1303711
3996,55,-8.25,151.375,0.7836914,1.240234,-0.1591797,-0.04394531,-0.3691406,-0.1235352
4000,29,-19.9375,150.875,0.8574219,1.244141,-0.2016602,-0.05810547,-0.3681641,-0.1196289
4004,19.0625,-24.0625,152.5,0.9462891,1.034668,-0.1821289,-0.06884766,-0.3666992,-0.1210938
4008,29.25,-21.5,151.5,0.9541016,0.8984375,-0.1474609,-0.08300781,-0.3632813,-0.1157227
4012,57.125,-19.625,146.625,0.9736328,0.921875,-0.1977539,-0.09863281,-0.3579102,-0.1113281
4016,68.4375,-15.3125,147.25,0.9389648,1.279297,-0.2167969,-0.1069336,-0.3544922,-0.105957
4020,52,-20.1875,144.4375,0.8300781,1.473633,-0.2246094,-0.1201172,-0.3520508,-0.1020508
4024,33.5625,-33.3125,140.125,0.7954102,1.399902,-0.2207031,-0.1318359,-0.3457031,-0.09667969
4028,35.375,-40.1875,134.3125,0.9311523,1.271484,-0.1015625,-0.1411133,-0.3417969,-0.09228516
4032,45.4375,-36.6875,132.5625,1.031738,1.251953,-0.03613281,-0.1542969,-0.3354492,-0.08691406
4036,56.625,-27.625,127.6875,1.012207,1.341309,0.02880859,-0.1674805,-0.3305664,-0.08154297
4040,63,-16.6875,119.625,1.000488,1.543457,0.03271484,-0.1708984,-0.3266602,-0.07763672
4045,50.875,-9,103.625,0.9389648,1.803711,-0.005371094,-0.1806641,-0.3193359,-0.07177734
4049,22.875,-6.5,87.625,0.8730469,1.81543,-0.005371094,-0.1875,-0.3154297,-0.06787109
4053,-0.625,-7.25,77.125,0.8457031,1.640625,-0.03222656,-0.1914063,-0.3120117,-0.06542969
4057,-6.875,-4.75,67.375,0.8496094,1.380371,-0.04736328,-0.1972656,-0.3081055,-0.06640625
4061,2.8125,0,61.0625,0.8339844,1.217285,-0.07861328,-0.2021484,-0.3007813,-0.06640625
4065,16.5625,2.0625,52.125,0.8149414,1.232422,-0.112793,-0.2055664,-0.3007813,-0.06542969
4069,21.125,3.6875,41.25,0.7836914,1.291016,-0.112793,-0.2089844,-0.2954102,-0.06396484
4073,12.8125,3,33.875,0.7797852,1.314453,-0.0859375,-0.2104492,-0.2944336,-0.06396484
4077,1.6875,3.625,24.0625,0.8032227,1.259766,-0.07861328,-0.2128906,-0.2929688,-0.05957031
4081,-7.375,5.625,18.625,0.8071289,1.178223,-0.05517578,-0.2128906,-0.2929688,-0.06542969
4085,-16.25,6.6875,13,0.7797852,1.069336,-0.112793,-0.2138672,-0.2895508,-0.06542969
4089,-15.8125,6.25,6.0625,0.7719727,0.9140625,-0.1245117,-0.215332,-0.2905273,-0.06542969
4093,-6.0625,9.4375,-2.6875,0.8071289,0.7895508,-0.1166992,-0.2163086,-0.2905273,-0.06640625
4097,1.5625,12.375,-5.4375,0.8032227,0.7470703,-0.112793,-0.2128906,-0.2905273,-0.06933594
4101,-0.875,10.6875,-2.625,0.7719727,0.793457,-0.1323242,-0.215332,-0.2895508,-0.06787109
4105,-13.25,7.125,-1.125,0.7758789,0.7973633,-0.1206055,-0.215332,-0.2895508,-0.06787109
4109,-27.6875,3.6875,3.625,0.7875977,0.7548828,-0.1323242,-0.215332,-0.2905273,-0.07080078
4113,-42.8125,-0.5,9.4375,0.7915039,0.7080078,-0.1362305,-0.2138672,-0.2905273,-0.07177734
4117,-46.625,-3.0625,9.375,0.8378906,0.5683594,-0.1166992,-0.2163086,-0.2880859,-0.07617188
4121,-39.1875,0.6875,3.5,0.8730469,0.5058594,-0.0859375,-0.2163086,-0.2880859,-0.08154297
4125,-33.6875,4.75,4.6875,0.8496094,0.4477539,-0.08203125,-0.215332,-0.2856445,-0.08007813
4129,-38.8125,2.125,15.5,0.8574219,0.4594727,-0.08203125,-0.2138672,-0.2856445,-0.08544922
4133,-53.9375,0.6875,29.3125,0.8730469,0.4907227,-0.08203125,-0.2163086,-0.2832031,-0.08837891
4137,-70.25,-1.4375,34,0.7836914,0.5410156,-0.1474609,-0.21875,-0.2807617,-0.08984375
