Packet number,Gyroscope X (deg/s),Gyroscope Y (deg/s),Gyroscope Z (deg/s),Accelerometer X (g),Accelerometer Y (g),Accelerometer Z (g),Magnetometer X (G),Magnetometer Y (G),Magnetometer Z (G)
1,-5.625,-2.875,2.375,0.2758789,-0.9892578,-0.1669922,-0.1699219,0.2338867,-0.06396484
5,-6,-5.9375,4.0625,0.2607422,-0.9970703,-0.1630859,-0.168457,0.2348633,-0.0625
10,-3.8125,-10.75,2.875,0.2836914,-0.9892578,-0.1513672,-0.1674805,0.2348633,-0.06103516
14,-3.0625,-12.6875,1,0.3188477,-0.9658203,-0.1323242,-0.1674805,0.2348633,-0.05957031
18,-3.5,-10.6875,0.1875,0.3457031,-0.9580078,-0.109375,-0.1674805,0.2324219,-0.05566406
22,-3.25,-6.9375,0.0625,0.3457031,-0.9775391,-0.09375,-0.1674805,0.2338867,-0.05859375
26,-1.5625,-4.625,1.1875,0.3227539,-0.9853516,-0.1015625,-0.1665039,0.2324219,-0.05859375
30,0.5625,-4.0625,2.875,0.3110352,-0.9658203,-0.1245117,-0.1665039,0.2363281,-0.05712891
34,1.875,-4.375,2.8125,0.3149414,-0.9311523,-0.1401367,-0.168457,0.2348633,-0.05566406
38,1.9375,-5.875,0.75,0.3227539,-0.9077148,-0.1552734,-0.1674805,0.2348633,-0.05419922
42,1.4375,-6,-1.6875,0.3417969,-0.9155273,-0.1513672,-0.1674805,0.2348633,-0.05566406
46,0.5,-3.0625,-2.625,0.3535156,-0.9194336,-0.1435547,-0.168457,0.2348633,-0.05859375
50,-1.125,-0.375,-2.3125,0.3339844,-0.9350586,-0.1323242,-0.1674805,0.2338867,-0.05566406
54,-0.75,1.25,-1.6875,0.3188477,-0.9658203,-0.1435547,-0.1674805,0.2363281,-0.05712891
58,0.0625,0,-1.0625,0.3149414,-0.9814453,-0.1362305,-0.168457,0.2348633,-0.05859375
62,1.625,-0.875,-1.625,0.3457031,-0.9892578,-0.1513672,-0.1674805,0.2338867,-0.05712891
66,4.625,-1.1875,-1.3125,0.3959961,-1.000977,-0.1474609,-0.168457,0.2348633,-0.05859375
70,4.8125,0.4375,-3.0625,0.4619141,-0.9697266,-0.1401367,-0.1674805,0.2338867,-0.05859375
74,3.5625,5.8125,-5.5,0.5048828,-0.9697266,-0.1513672,-0.168457,0.2363281,-0.05859375
78,2.5625,10,-7.8125,0.5161133,-0.9658203,-0.1630859,-0.1699219,0.2348633,-0.05859375
82,1.25,13.9375,-10.3125,0.527832,-0.9853516,-0.1821289,-0.1674805,0.2324219,-0.05859375
86,2.3125,11.5625,-11.5625,0.5087891,-1.008789,-0.1782227,-0.168457,0.2324219,-0.05957031
90,5.0625,-0.4375,-12.8125,0.5048828,-0.9775391,-0.2055664,-0.1723633,0.2299805,-0.05859375
94,9.8125,-15.6875,-19.4375,0.6479492,-0.8959961,-0.1860352,-0.1723633,0.2324219,-0.05957031
98,8.5,-24.5,-31.25,0.7758789,-0.8183594,-0.1821289,-0.1733398,0.2314453,-0.05859375
102,4.375,-26,-44.375,0.9116211,-0.8496094,-0.1474609,-0.1772461,0.2285156,-0.05957031
106,3.1875,-26.375,-52.375,0.9775391,-0.9541016,-0.1435547,-0.1791992,0.2275391,-0.05957031
110,9.4375,-32.4375,-59.9375,1.074219,-1.012695,-0.1591797,-0.1855469,0.2236328,-0.05712891
114,20.9375,-37.25,-73.75,1.287598,-0.9931641,-0.08203125,-0.1875,0.2197266,-0.05712891
118,23.875,-19.875,-81.8125,1.512207,-0.8842773,-0.04003906,-0.1938477,0.2172852,-0.05566406
122,7,9,-88.875,1.644043,-0.7680664,-0.0859375,-0.2006836,0.2124023,-0.05859375
126,-10.5625,28.3125,-99.875,1.5625,-0.9116211,-0.1552734,-0.2080078,0.2084961,-0.05859375
130,-7.6875,25.625,-117.3125,1.500488,-1.105957,-0.2055664,-0.2089844,0.2011719,-0.05859375
134,0.3125,17,-137.5625,1.527832,-1.117676,-0.2128906,-0.21875,0.1948242,-0.06103516
139,-2.875,17,-156.4375,1.558594,-1.08252,-0.1938477,-0.2280273,0.1860352,-0.05957031
143,-5.8125,14.8125,-171.3125,1.473633,-1.203125,-0.2475586,-0.2353516,0.1762695,-0.0625
147,-3.1875,-3.625,-179.6875,1.458008,-1.323242,-0.2744141,-0.2460938,0.1660156,-0.06396484
151,0,-14.3125,-192.3125,1.678711,-1.288574,-0.2207031,-0.2553711,0.1499023,-0.06103516
155,-4.0625,-0.875,-207.6875,1.822266,-1.300293,-0.1435547,-0.2626953,0.1401367,-0.05957031
159,-9,27.9375,-217.3125,1.818359,-1.389648,-0.1245117,-0.2744141,0.1235352,-0.06103516
163,-11.75,53.4375,-221.5,1.72168,-1.467285,-0.1860352,-0.2827148,0.1049805,-0.0625
167,-13.5,70.625,-224.875,1.628418,-1.533203,-0.2436523,-0.2915039,0.09228516,-0.06640625
171,-12.1875,87.75,-228.5,1.554688,-1.501953,-0.2670898,-0.3007813,0.07275391,-0.07470703
175,-14.9375,102.0625,-232.75,1.39209,-1.517578,-0.2783203,-0.3081055,0.05126953,-0.08154297
179,-10.75,108,-234.3125,1.217773,-1.595215,-0.2939453,-0.3105469,0.03613281,-0.08691406
183,-3.0625,107.4375,-231.5,1.066406,-1.525391,-0.2978516,-0.3149414,0.01123047,-0.09521484
187,-1.0625,99.8125,-225.5,0.9194336,-1.455566,-0.2670898,-0.3139648,-0.009277344,-0.105957
191,6.0625,83.9375,-221.1875,0.8300781,-1.408691,-0.2861328,-0.3149414,-0.02685547,-0.112793
195,17.4375,66.5,-220.375,0.8183594,-1.338867,-0.2167969,-0.3125,-0.04931641,-0.1196289
199,23.4375,62.4375,-216.3125,0.8999023,-1.133301,-0.1977539,-0.3105469,-0.07177734,-0.125
203,18.1875,67.9375,-211.3125,0.8769531,-0.9853516,-0.1708984,-0.3081055,-0.08837891,-0.1289063
207,14.875,71.875,-199,0.8769531,-0.9077148,-0.1821289,-0.3041992,-0.109375,-0.1357422
211,9.75,78.125,-191.1875,0.9077148,-0.8183594,-0.1245117,-0.2958984,-0.1279297,-0.1425781
215,2.8125,94.125,-186.875,0.9580078,-0.7055664,-0.0859375,-0.2900391,-0.1430664,-0.1484375
219,-5.9375,114.1875,-189.5625,0.7680664,-0.7016602,-0.02832031,-0.2817383,-0.1606445,-0.1547852
223,-4.4375,125.625,-190.8125,0.4272461,-0.7792969,-0.03222656,-0.2700195,-0.1767578,-0.1660156
227,6.125,121.5625,-178.25,0.07080078,-0.8378906,-0.04003906,-0.2617188,-0.1904297,-0.1728516
231,20.4375,104.375,-154.8125,-0.2426758,-0.7602539,-0.112793,-0.2485352,-0.2055664,-0.1821289
235,32.6875,77.75,-134.0625,-0.3901367,-0.5307617,-0.1860352,-0.2353516,-0.2182617,-0.1875
239,33.875,51.3125,-117.9375,-0.4750977,-0.2587891,-0.2089844,-0.2280273,-0.2270508,-0.1889648
243,26.3125,31.6875,-99.75,-0.4169922,-0.1347656,-0.1821289,-0.2197266,-0.2392578,-0.1918945
247,18.5625,24.125,-86.0625,-0.4013672,-0.01416016,-0.07861328,-0.2128906,-0.2470703,-0.1928711
251,17.3125,17.9375,-76.75,-0.4594727,-0.06054688,-0.07080078,-0.2104492,-0.2504883,-0.1928711
255,24.625,5.5625,-62.4375,-0.5024414,-0.01416016,-0.03613281,-0.2045898,-0.2568359,-0.1928711
259,26.25,4.1875,-45,-0.4208984,0.171875,-0.07861328,-0.199707,-0.2631836,-0.1904297
263,16.9375,8.25,-23.125,-0.3901367,0.2729492,-0.0859375,-0.1962891,-0.265625,-0.1904297
268,5.8125,10.3125,-5.5,-0.362793,0.3466797,-0.09765625,-0.1948242,-0.2670898,-0.1918945
272,-3.125,14.3125,9.1875,-0.2773438,0.3120117,-0.03222656,-0.1948242,-0.2670898,-0.1904297
276,-8.625,20.3125,22.5,-0.2504883,0.2807617,-0.02832031,-0.1948242,-0.2641602,-0.1918945
280,-13.6875,17.125,35.125,-0.2890625,0.237793,-0.05908203,-0.1972656,-0.2631836,-0.1918945
284,-13.25,-0.1875,46,-0.3125,0.2299805,-0.05126953,-0.199707,-0.2592773,-0.1928711
288,-10.25,-20.3125,56.1875,-0.1923828,0.1679688,-0.04003906,-0.2021484,-0.2583008,-0.1958008
292,-8.4375,-35.875,68,-0.04882813,0.2109375,-0.04736328,-0.206543,-0.2543945,-0.1943359
296,-11.75,-46.125,78.0625,0.1557617,0.2265625,-0.02050781,-0.2104492,-0.2456055,-0.1928711
300,-16.4375,-45.25,82.625,0.3110352,0.1992188,0.03662109,-0.2172852,-0.2416992,-0.1889648
304,-17.8125,-33.3125,87.0625,0.4272461,0.08251953,0.09814453,-0.2246094,-0.234375,-0.1904297
308,-19.4375,-18.125,97.6875,0.3652344,-0.01806641,0.07128906,-0.2304688,-0.2280273,-0.1875
312,-20.75,-15.5625,117.3125,0.2724609,-0.1035156,0.01708984,-0.2353516,-0.2216797,-0.1875
316,-21.25,-17.6875,131.9375,0.2875977,-0.09179688,-0.02441406,-0.2426758,-0.2119141,-0.1850586
320,-24.8125,-26.25,138.6875,0.2451172,-0.002441406,-0.1362305,-0.2495117,-0.1982422,-0.1865234
324,-34.1875,-43.5625,136.4375,0.2294922,-0.07226563,-0.2285156,-0.2543945,-0.1879883,-0.1850586
328,-37.5625,-74.0625,138.25,0.2836914,-0.2006836,-0.2670898,-0.2626953,-0.1733398,-0.1806641
332,-41.4375,-91.5625,134.875,0.5161133,-0.3173828,-0.112793,-0.2700195,-0.1606445,-0.1782227
336,-39.3125,-83.5625,134.125,0.6713867,-0.4882813,0.02880859,-0.2768555,-0.1508789,-0.1699219
340,-44.6875,-66.5625,142.625,0.6674805,-0.6552734,0.06347656,-0.2827148,-0.1367188,-0.1660156
344,-42.9375,-67.8125,159.125,0.5859375,-0.7368164,-0.04003906,-0.2890625,-0.1181641,-0.1606445
348,-38.8125,-79.125,166.4375,0.7216797,-0.7485352,-0.109375,-0.293457,-0.1069336,-0.1547852
352,-38.625,-79.125,164.1875,0.9116211,-0.7792969,0.009765625,-0.3007813,-0.08691406,-0.1508789
356,-38.75,-50.875,160.5625,1.035645,-0.8496094,0.09033203,-0.3017578,-0.07080078,-0.144043
360,-41.4375,-33.0625,173.375,0.7993164,-0.9194336,-0.109375,-0.3041992,-0.05957031,-0.1425781
364,-45.25,-60.9375,176.875,0.6328125,-0.9775391,-0.2089844,-0.3081055,-0.03808594,-0.1401367
368,-30.4375,-101.625,174.25,0.7641602,-1.175781,-0.2436523,-0.3066406,-0.02050781,-0.1303711
372,-17.375,-111.3125,172.375,1.202148,-1.070801,-0.09375,-0.309082,-0.006835938,-0.125
376,-25.6875,-70.75,170.75,1.523926,-1.05127,0.06347656,-0.3115234,0.01025391,-0.1142578
380,-33.125,-19.8125,182.875,1.302734,-1.098145,-0.02441406,-0.3041992,0.02636719,-0.1113281
384,-39.375,-35.6875,198.125,0.9931641,-1.164063,-0.2631836,-0.3032227,0.04003906,-0.1113281
388,-27.125,-84.375,186.9375,1.085938,-1.233887,-0.2705078,-0.2983398,0.06103516,-0.1044922
392,-6.9375,-105.25,168.1875,1.48877,-1.148438,-0.1435547,-0.2924805,0.07763672,-0.09667969
397,-4.6875,-73.1875,148.6875,1.814453,-0.9350586,0.001953125,-0.2900391,0.08740234,-0.08984375
401,-21.8125,-14.0625,143.625,1.628418,-0.9541016,-0.03613281,-0.2851563,0.09863281,-0.08544922
405,-35.375,-4.5625,154.6875,1.248535,-1.179688,-0.1977539,-0.2768555,0.1152344,-0.08300781
409,-27.3125,-28.0625,155.5,1.089844,-1.362305,-0.2089844,-0.2700195,0.1235352,-0.08154297
413,-6.8125,-53.5625,146.5625,1.217773,-1.296387,-0.1708984,-0.2651367,0.1362305,-0.07617188
417,2.4375,-52.375,136.5,1.380371,-1.08252,-0.1591797,-0.2553711,0.1450195,-0.07324219
421,-5.3125,-31.75,125.5625,1.345703,-0.8686523,-0.1938477,-0.2543945,0.1523438,-0.07080078
425,-17.9375,-24.625,119.5,1.089844,-0.9619141,-0.3051758,-0.2460938,0.1625977,-0.06933594
429,-21,-35.875,115,0.9970703,-1.086426,-0.2705078,-0.2387695,0.1713867,-0.06542969
433,-15.5,-48.25,106.8125,0.9658203,-1.152344,-0.2128906,-0.2353516,0.1772461,-0.0625
437,-12.25,-53.3125,101.125,0.9814453,-1.133301,-0.1323242,-0.2304688,0.1850586,-0.05859375
441,-7.875,-49.4375,97.0625,0.9658203,-1.167969,-0.08984375,-0.2236328,0.1914063,-0.05419922
445,0.875,-43.5,95.5,0.9389648,-1.183594,-0.08984375,-0.2197266,0.1962891,-0.05029297
449,5.875,-41.875,91.25,0.9272461,-1.094238,-0.1708984,-0.215332,0.2011719,-0.04638672
453,8.8125,-44.3125,84.5625,0.9389648,-1.036133,-0.2055664,-0.2089844,0.2075195,-0.04736328
457,7,-43.25,80.8125,0.9619141,-0.9467773,-0.2397461,-0.2055664,0.2099609,-0.04492188
461,3.1875,-47.1875,77.25,0.9775391,-0.9658203,-0.1977539,-0.1982422,0.2163086,-0.04199219
465,10.1875,-56.375,76.5,1.124512,-1.004883,-0.2363281,-0.1938477,0.21875,-0.04052734
469,16.4375,-65.8125,70.3125,1.380371,-0.8457031,-0.2670898,-0.1889648,0.2226563,-0.03662109
473,21.0625,-72.5,47.8125,1.628418,-0.7329102,-0.3129883,-0.1831055,0.2250977,-0.03515625
477,21.875,-82.5625,13.25,1.86084,-0.5620117,-0.3823242,-0.1816406,0.2275391,-0.03271484
481,16.625,-83.3125,-20.875,2.155273,-0.5541992,-0.3901367,-0.1806641,0.2285156,-0.02978516
485,7.5625,-60.3125,-52.5625,2.341309,-0.5581055,-0.3515625,-0.184082,0.2250977,-0.02734375
489,-6.75,-20.5,-70.3125,2.372559,-0.6938477,-0.3051758,-0.1899414,0.2236328,-0.02587891
493,-16,25.8125,-82.0625,2.271973,-0.7832031,-0.3632813,-0.1923828,0.2211914,-0.02441406
497,-22.375,57,-92.875,2.108887,-0.8803711,-0.4628906,-0.199707,0.2148438,-0.02587891
501,-27.75,73.6875,-109.125,1.922852,-0.8842773,-0.5708008,-0.2055664,0.2099609,-0.02832031
505,-31.1875,68.9375,-130.0625,1.72168,-0.9814453,-0.6015625,-0.2128906,0.2050781,-0.02978516
509,-29,55.5625,-150.6875,1.686523,-1.055176,-0.574707,-0.2236328,0.1948242,-0.03125
513,-31.625,49.125,-167.1875,1.72168,-1.136719,-0.4863281,-0.2329102,0.1850586,-0.03369141
517,-35.6875,57,-181.0625,1.756348,-1.233887,-0.4438477,-0.2363281,0.1772461,-0.03515625
521,-36.375,64.1875,-188.75,1.706055,-1.393555,-0.4248047,-0.2495117,0.1660156,-0.03515625
526,-33.5,70.3125,-198.375,1.69043,-1.517578,-0.3862305,-0.2602539,0.1489258,-0.04052734
530,-27.6875,81.875,-208.1875,1.729004,-1.544922,-0.3632813,-0.2685547,0.1386719,-0.04199219
534,-28.8125,99.9375,-218.1875,1.647949,-1.541016,-0.3974609,-0.2783203,0.1225586,-0.04736328
538,-30.1875,108.125,-225.75,1.531738,-1.649902,-0.4130859,-0.2875977,0.1035156,-0.05273438
542,-26.375,119.125,-228.875,1.469727,-1.708008,-0.4091797,-0.2949219,0.09130859,-0.05957031
546,-24.4375,130.875,-229.25,1.349609,-1.704102,-0.3208008,-0.3017578,0.06982422,-0.06640625
550,-17.375,138.5,-225.125,1.171387,-1.785645,-0.3168945,-0.3081055,0.04736328,-0.08154297
554,-0.5625,133.8125,-218.9375,1.039551,-1.719727,-0.309082,-0.3125,0.03515625,-0.08984375
558,9.5,127,-219,0.9814453,-1.501953,-0.3325195,-0.3125,0.01269531,-0.1020508
562,13.25,110.875,-223.25,0.8535156,-1.397461,-0.3632813,-0.3149414,-0.01171875,-0.112793
566,18.5,95.25,-225.3125,0.8183594,-1.374023,-0.3012695,-0.3139648,-0.02929688,-0.1196289
570,22.9375,91.1875,-215.6875,0.8457031,-1.245605,-0.2705078,-0.3125,-0.05175781,-0.1303711
574,16.4375,96.625,-206.5,0.7568359,-1.062988,-0.2436523,-0.309082,-0.07324219,-0.137207
578,15,94.25,-196.875,0.6210938,-1.074707,-0.2363281,-0.3041992,-0.08935547,-0.1425781
582,19.4375,83.0625,-192.3125,0.5048828,-0.9467773,-0.2089844,-0.2973633,-0.109375,-0.1494141
586,22.375,76.75,-190.8125,0.5009766,-0.9194336,-0.112793,-0.2900391,-0.1279297,-0.1591797
590,24.375,81.625,-184,0.4116211,-0.8842773,0.01367188,-0.2827148,-0.140625,-0.1606445
594,31.5,87.75,-173.3125,0.2138672,-0.8300781,0.01708984,-0.2758789,-0.1591797,-0.1699219
598,42.5,85.375,-160.4375,-0.07617188,-0.7407227,-0.08984375,-0.2675781,-0.1782227,-0.175293
602,50.875,64.25,-137.9375,-0.2387695,-0.5424805,-0.1821289,-0.2592773,-0.1879883,-0.1767578
606,52.5,41.75,-116.8125,-0.1962891,-0.2163086,-0.2397461,-0.2495117,-0.2016602,-0.1806641
610,38.875,35.3125,-101.6875,-0.1303711,-0.03759766,-0.2514648,-0.2412109,-0.2158203,-0.1821289
614,19.9375,23.25,-86.5625,-0.215332,0.05126953,-0.2016602,-0.2387695,-0.2231445,-0.1835938
618,17.6875,8.375,-79.4375,-0.1611328,-0.05664063,-0.0859375,-0.2319336,-0.2294922,-0.1835938
622,26.375,-1.9375,-72.625,-0.1499023,0.004882813,-0.03222656,-0.2280273,-0.2368164,-0.1821289
626,25,-2.1875,-61.0625,-0.07617188,0.121582,0.005859375,-0.2270508,-0.2392578,-0.1806641
630,21.4375,1.125,-47.6875,-0.1069336,0.15625,-0.02832031,-0.2236328,-0.2456055,-0.1796875
634,15.1875,6.5,-31.4375,-0.07617188,0.2495117,-0.04736328,-0.2211914,-0.2504883,-0.1782227
638,2.125,12,-15.3125,-0.09521484,0.284668,-0.05517578,-0.21875,-0.2519531,-0.1806641
642,-3.5,13.125,-2.25,-0.1572266,0.2070313,-0.05908203,-0.2172852,-0.2529297,-0.1821289
646,-3.75,6.9375,12.0625,-0.1650391,0.237793,-0.06298828,-0.21875,-0.2529297,-0.1821289
650,-7,0.5,19.8125,-0.1650391,0.2924805,-0.07470703,-0.2172852,-0.2519531,-0.1806641
655,-8.4375,-8.625,27,-0.1611328,0.1835938,-0.03613281,-0.21875,-0.2495117,-0.1806641
659,-6.9375,-14,36.25,-0.1611328,0.08251953,-0.02832031,-0.222168,-0.2470703,-0.1806641
663,-4,-23.9375,55.125,-0.1030273,0.1176758,-0.06689453,-0.2236328,-0.2431641,-0.1806641
667,-9,-30.375,67.6875,-0.02197266,0.1992188,-0.07470703,-0.2255859,-0.2407227,-0.1782227
671,-14.1875,-36.25,77.75,0.09765625,0.105957,-0.02832031,-0.234375,-0.2329102,-0.1796875
675,-16.5,-29.625,81.6875,0.2255859,0.04736328,0.05175781,-0.2387695,-0.2280273,-0.1738281
679,-17.3125,-19.4375,90,0.1713867,-0.09960938,-0.001464844,-0.2436523,-0.2216797,-0.1738281
683,-17.5625,-32.25,105.625,0.08642578,-0.08398438,-0.08203125,-0.2509766,-0.2119141,-0.1738281
687,-12.3125,-50.9375,115.6875,0.2646484,-0.1074219,-0.0859375,-0.2543945,-0.2055664,-0.1713867
691,-12.75,-52.75,117.125,0.4931641,-0.01806641,-0.05126953,-0.2626953,-0.1958008,-0.1674805
695,-24.1875,-33.8125,116.75,0.59375,-0.1191406,-0.009277344,-0.2700195,-0.1821289,-0.1645508
699,-33.375,-18.5,125,0.5009766,-0.324707,-0.06298828,-0.2734375,-0.1757813,-0.1630859
703,-30.875,-36.875,139.4375,0.3110352,-0.4257813,-0.1474609,-0.2807617,-0.1630859,-0.1630859
707,-24.375,-72.3125,146,0.4467773,-0.421875,-0.1206055,-0.2851563,-0.1455078,-0.1591797
711,-17.875,-86.625,141.6875,0.7021484,-0.4882813,-0.01660156,-0.2866211,-0.1367188,-0.1547852
715,-19.625,-63.0625,135.75,0.9892578,-0.7016602,0.1171875,-0.2973633,-0.1220703,-0.1484375
719,-16.75,-28.0625,155.5,0.8920898,-0.7485352,-0.06689453,-0.3007813,-0.1069336,-0.1416016
723,-28.1875,-35.4375,175.125,0.7216797,-0.4921875,-0.2055664,-0.3041992,-0.09326172,-0.1416016
727,-34.4375,-59.3125,165.625,0.7177734,-0.6938477,-0.2089844,-0.3056641,-0.07568359,-0.1401367
731,-25.5625,-67.1875,155.1875,0.8730469,-0.8920898,-0.05126953,-0.309082,-0.05810547,-0.1347656
735,-28,-36.625,158.8125,1.008301,-0.9814453,0.05957031,-0.3115234,-0.046875,-0.1289063
739,-25.875,-15.5,185.0625,0.7333984,-1.144531,-0.2089844,-0.3105469,-0.02929688,-0.1289063
743,-29.4375,-42.8125,195,0.6054688,-0.9931641,-0.3476563,-0.309082,-0.008300781,-0.1225586
747,-26,-82.25,185.125,0.7060547,-1.237793,-0.3476563,-0.309082,0.004882813,-0.1210938
751,-10.625,-90.5625,181.6875,1.016113,-1.265137,-0.1977539,-0.3066406,0.02246094,-0.1113281
755,-16.8125,-61.5,184.625,1.194336,-1.136719,-0.05517578,-0.3041992,0.04394531,-0.1074219
759,-20.3125,-55,202.9375,0.8730469,-1.26123,-0.3666992,-0.2998047,0.05517578,-0.1020508
763,-14.9375,-100.8125,192.5,0.8417969,-1.29248,-0.5170898,-0.2949219,0.07519531,-0.09375
767,-1.0625,-147.8125,178.1875,1.085938,-1.48291,-0.4013672,-0.2900391,0.09228516,-0.08447266
771,18.6875,-137.125,178.1875,1.655762,-1.350586,-0.2055664,-0.2841797,0.1010742,-0.07617188
775,10.9375,-68.5,178.375,1.849121,-0.9814453,-0.05126953,-0.2783203,0.1162109,-0.06640625
779,-15.125,-38.3125,190.9375,1.546875,-1.164063,-0.3974609,-0.2700195,0.1313477,-0.0625
784,-17.625,-59.4375,180.5,1.46582,-1.269043,-0.4208984,-0.2636719,0.1411133,-0.05957031
788,-4.75,-85.3125,154.5,1.597656,-1.269043,-0.2939453,-0.2543945,0.1547852,-0.05419922
792,8.875,-80.125,131.25,1.725586,-1.191406,-0.2055664,-0.2470703,0.1650391,-0.05029297
796,8.1875,-57,116.125,1.59375,-1.121582,-0.2363281,-0.2412109,0.1713867,-0.04638672
800,8.0625,-41.1875,118.75,1.450195,-1.237793,-0.2553711,-0.234375,0.1787109,-0.03808594
804,6.625,-18.5625,124.9375,1.48877,-0.9853516,-0.3012695,-0.2270508,0.1860352,-0.04052734
808,-8.9375,-2.75,116.125,1.337891,-0.8842773,-0.3476563,-0.2236328,0.1923828,-0.04052734
812,-9.4375,-10.5625,99.4375,1.132324,-0.9619141,-0.3476563,-0.2138672,0.2026367,-0.03662109
816,-2.5,-38.5625,87.875,1.085938,-1.004883,-0.3515625,-0.206543,0.2060547,-0.03808594
820,5.9375,-61.9375,85.4375,1.403809,-0.9697266,-0.2285156,-0.206543,0.2114258,-0.03369141
824,10.25,-54.8125,75.6875,1.768066,-0.8300781,-0.1362305,-0.1972656,0.2163086,-0.02978516
828,14.9375,-31,53.125,2.023926,-0.7250977,-0.02832031,-0.1938477,0.21875,-0.02978516
832,21.75,-4.75,22.4375,2.155273,-0.6005859,-0.1362305,-0.1914063,0.2211914,-0.02978516
836,12.875,15.4375,-2.5,2.163086,-0.4414063,-0.2246094,-0.1914063,0.2226563,-0.03125
840,-2.3125,26.6875,-30.625,2.082031,-0.4882813,-0.2783203,-0.1914063,0.2211914,-0.03369141
844,-5.5625,33.375,-53.375,1.980957,-0.6669922,-0.2861328,-0.1923828,0.2211914,-0.03369141
848,-7.6875,40.1875,-67.6875,1.915039,-0.7407227,-0.2592773,-0.1972656,0.2163086,-0.03515625
852,-10.375,48.3125,-79.0625,1.899902,-0.8144531,-0.2822266,-0.2006836,0.2124023,-0.03808594
856,-11.6875,57.4375,-95.1875,1.895996,-0.8920898,-0.2436523,-0.206543,0.2075195,-0.03808594
860,-13.4375,67.5,-111.25,1.849121,-0.9775391,-0.2397461,-0.2114258,0.2011719,-0.04345703
864,-9.9375,70.4375,-130.6875,1.779785,-1.117676,-0.2324219,-0.2197266,0.1938477,-0.04638672
868,-2.125,73.9375,-151.125,1.725586,-1.179688,-0.2592773,-0.2246094,0.1899414,-0.04492188
872,0.375,76.375,-166.125,1.640137,-1.245605,-0.2744141,-0.2353516,0.1772461,-0.05273438
876,2.3125,80.0625,-176.3125,1.570313,-1.312012,-0.3325195,-0.2446289,0.1650391,-0.05859375
880,4.125,81.6875,-182.1875,1.496582,-1.366211,-0.3286133,-0.2519531,0.1586914,-0.06396484
884,5.375,84.5625,-187.5625,1.458008,-1.405273,-0.3476563,-0.2602539,0.1450195,-0.06933594
888,6.8125,86.9375,-194.4375,1.411621,-1.424316,-0.3632813,-0.2685547,0.1289063,-0.07617188
892,7.375,90.125,-199.125,1.353516,-1.439941,-0.3554688,-0.2758789,0.1176758,-0.08300781
896,5.75,93.1875,-199.1875,1.299316,-1.439941,-0.3359375,-0.2817383,0.1000977,-0.09082031
900,7.875,93.5625,-199.625,1.209961,-1.439941,-0.324707,-0.2915039,0.08398438,-0.09912109
904,10,87.4375,-202.125,1.109375,-1.37793,-0.3208008,-0.293457,0.07128906,-0.1044922
908,12.75,74.9375,-204.5625,1.043457,-1.405273,-0.2670898,-0.2998047,0.05371094,-0.1113281
913,19.8125,67.25,-203.1875,1.055176,-1.350586,-0.1899414,-0.3017578,0.03125,-0.1181641
917,21.6875,67.5,-201.75,1.02002,-1.245605,-0.2016602,-0.3056641,0.01611328,-0.1210938
921,22,59.0625,-202.375,0.8803711,-1.191406,-0.1743164,-0.309082,-0.003417969,-0.1264648
925,32.75,41.0625,-201.6875,0.9116211,-1.191406,-0.2436523,-0.3081055,-0.02441406,-0.1333008
929,32.1875,45.1875,-202.75,1.070313,-0.9389648,-0.1708984,-0.309082,-0.03955078,-0.1357422
933,19.5625,63.625,-194.4375,1.016113,-0.8574219,-0.1899414,-0.3066406,-0.06054688,-0.1401367
937,6.5,80.1875,-182.875,0.9077148,-0.7563477,-0.2553711,-0.3032227,-0.08056641,-0.1469727
941,-2.9375,82.0625,-174.4375,0.7255859,-0.7446289,-0.3012695,-0.3017578,-0.09326172,-0.1494141
945,-2.75,63.3125,-168.1875,0.5551758,-0.6860352,-0.2670898,-0.293457,-0.1108398,-0.1577148
949,-1.9375,44.3125,-163.625,0.5708008,-0.6591797,-0.1821289,-0.2900391,-0.1269531,-0.1630859
953,2.0625,34.3125,-159.3125,0.5976563,-0.581543,-0.109375,-0.2851563,-0.1381836,-0.1674805
957,3.9375,41.3125,-162.5,0.6982422,-0.5268555,0.04052734,-0.2792969,-0.1533203,-0.1699219
961,1,69.5625,-158.375,0.6401367,-0.4804688,0.1098633,-0.2700195,-0.1679688,-0.1738281
965,-1.125,99.375,-144.5,0.4116211,-0.4921875,0.05175781,-0.2661133,-0.1767578,-0.175293
969,-1,106.6875,-128.3125,0.04345703,-0.4453125,-0.02441406,-0.2543945,-0.1918945,-0.1889648
973,11.0625,93.9375,-117.125,-0.1884766,-0.4140625,-0.07080078,-0.2436523,-0.2006836,-0.1943359
977,21.75,71.25,-102.9375,-0.3510742,-0.2978516,-0.1054688,-0.2353516,-0.2070313,-0.1987305
981,23.375,51.1875,-84.0625,-0.3745117,-0.1230469,-0.09765625,-0.2280273,-0.2158203,-0.2041016
985,18.5,38.9375,-64.5,-0.3510742,0.02441406,-0.112793,-0.2211914,-0.2246094,-0.2080078
989,9.6875,28,-46.8125,-0.3125,0.04736328,-0.05517578,-0.21875,-0.2270508,-0.2055664
993,9.125,19.4375,-34.625,-0.2890625,0.07470703,0.005859375,-0.2138672,-0.2319336,-0.206543
997,9.9375,11.8125,-23.5,-0.230957,0.140625,0.01367188,-0.2114258,-0.2329102,-0.2080078
1001,7.4375,11.9375,-13.5625,-0.1650391,0.140625,0.04785156,-0.2089844,-0.2358398,-0.206543
1005,3.3125,9.25,0.1875,-0.2119141,0.1914063,0.04052734,-0.2089844,-0.2358398,-0.2094727
1009,1.125,1.9375,11.8125,-0.2041016,0.121582,0.05957031,-0.2104492,-0.2368164,-0.2094727
1013,4.8125,-6,24.4375,-0.1884766,0.1098633,0.06347656,-0.2104492,-0.2358398,-0.2109375
1017,7.0625,-13.75,40.5,-0.09912109,0.1875,0.02099609,-0.2128906,-0.2329102,-0.2080078
1021,1.9375,-17.625,50,-0.01806641,0.2338867,0.009765625,-0.215332,-0.2294922,-0.2055664
1025,-2.1875,-18.625,57,0.004882813,0.1875,-0.001464844,-0.21875,-0.2294922,-0.206543
1029,-6.25,-25.6875,66.375,0.02832031,0.09423828,0.009765625,-0.2197266,-0.2246094,-0.2055664
1033,-2.875,-37.75,76.0625,0.08251953,0.05517578,-0.02441406,-0.2270508,-0.2192383,-0.2041016
1037,-1.8125,-47.4375,80,0.1791992,0.06689453,-0.03222656,-0.2304688,-0.2143555,-0.199707
1042,-4.75,-48.5625,84.9375,0.2758789,0.01660156,0.005859375,-0.2387695,-0.2080078,-0.1987305
1046,-2.3125,-43.75,92.75,0.2607422,-0.09960938,-0.08203125,-0.2426758,-0.2016602,-0.1918945
1050,-5.1875,-54.375,100,0.2333984,-0.01806641,-0.1474609,-0.2485352,-0.1943359,-0.1904297
1054,-3.5,-62.8125,104,0.2758789,-0.07226563,-0.2553711,-0.2568359,-0.1845703,-0.1850586
1058,-12.25,-68.6875,112.5625,0.3808594,-0.05664063,-0.2324219,-0.2636719,-0.1743164,-0.1806641
1062,-23.625,-56.4375,118.5,0.5009766,-0.1616211,-0.1743164,-0.2685547,-0.1669922,-0.1767578
1066,-31.875,-49.625,138.3125,0.4467773,-0.3056641,-0.2670898,-0.2758789,-0.1542969,-0.1738281
1070,-46.6875,-60.4375,149.5,0.4931641,-0.340332,-0.1977539,-0.2817383,-0.1396484,-0.168457
1074,-44.4375,-76.4375,150.0625,0.5976563,-0.4921875,-0.1669922,-0.2875977,-0.1279297,-0.1660156
1078,-35.125,-77.5625,151.9375,0.8691406,-0.6669922,-0.009277344,-0.2924805,-0.1108398,-0.1616211
1082,-30.75,-78.5,162.875,0.8959961,-0.6240234,-0.1206055,-0.2983398,-0.09423828,-0.1547852
1086,-38.375,-76.375,159.375,1.074219,-0.5073242,0.005859375,-0.3007813,-0.08300781,-0.1508789
1090,-38.75,-58.375,147.125,1.117188,-0.7563477,0.06738281,-0.3066406,-0.06298828,-0.1455078
1094,-28.875,-51.375,156.5,0.8959961,-1.016602,-0.06298828,-0.3081055,-0.04833984,-0.1386719
1098,-23.9375,-64.6875,176.375,1.09375,-0.8764648,-0.02050781,-0.309082,-0.03564453,-0.1357422
1102,-18.25,-49.0625,178.0625,1.314453,-0.9658203,-0.005371094,-0.3105469,-0.015625,-0.1303711
1106,-17.625,-19.625,173.125,1.364746,-0.6938477,-0.01318359,-0.3081055,0.001464844,-0.1264648
1110,-43,-2.25,167.375,1.031738,-0.7172852,-0.1435547,-0.3066406,0.01367188,-0.125
1114,-42.5625,-31.625,163.9375,0.8071289,-1.102051,-0.2514648,-0.3017578,0.03125,-0.1235352
1118,-21.8125,-83.4375,156.6875,0.8920898,-1.191406,-0.2705078,-0.2983398,0.04882813,-0.1210938
1122,-6.4375,-97.5,144.25,1.283691,-1.167969,-0.1245117,-0.2983398,0.05859375,-0.1142578
1126,-4.375,-66.875,145.75,1.461914,-1.105957,-0.03613281,-0.293457,0.07275391,-0.1044922
1130,-15.75,-25.875,163,1.361328,-0.9506836,-0.109375,-0.2875977,0.08740234,-0.1005859
1134,-34.9375,-14.125,167.1875,1.163574,-0.9580078,-0.2285156,-0.2841797,0.09765625,-0.09765625
1138,-32,-39.375,157.25,0.9775391,-1.15625,-0.3515625,-0.2783203,0.1123047,-0.09667969
1142,-16.5625,-75.6875,136.6875,1.066406,-1.21875,-0.2475586,-0.2700195,0.125,-0.08984375
1146,-3.8125,-80.125,121.8125,1.271973,-1.191406,-0.1708984,-0.2685547,0.1298828,-0.08544922
1150,-5.9375,-53.875,125.5625,1.310547,-1.117676,-0.07861328,-0.2602539,0.1386719,-0.08007813
1154,-19.3125,-28.125,137.1875,1.268066,-1.078613,-0.1743164,-0.253418,0.1489258,-0.07470703
1158,-20.625,-31.75,148.75,1.039551,-1.175781,-0.2783203,-0.2470703,0.15625,-0.07324219
1162,-12,-66.6875,137.625,1.13623,-1.040039,-0.3168945,-0.2412109,0.1689453,-0.06933594
1166,0.4375,-87.3125,110.375,1.361328,-1.047363,-0.2167969,-0.2353516,0.1787109,-0.06396484
1171,8,-74.3125,92.5,1.601563,-0.9658203,-0.08203125,-0.2304688,0.1811523,-0.05957031
1175,3.625,-33.0625,90.25,1.659668,-0.8803711,-0.03613281,-0.2270508,0.1884766,-0.05566406
1179,-12.9375,15.0625,93.125,1.512207,-0.7832031,-0.05517578,-0.2197266,0.1938477,-0.05566406
1183,-22.0625,32.625,98.9375,1.194336,-0.8417969,-0.1899414,-0.2138672,0.1972656,-0.05712891
1187,-20.25,12.5,93.9375,1.039551,-0.8300781,-0.3012695,-0.206543,0.2036133,-0.05859375
1191,-15.75,-20.125,76.75,1.151855,-0.7910156,-0.2397461,-0.2006836,0.2084961,-0.05273438
1195,-12.75,-24.1875,60.5,1.446289,-0.8105469,-0.06298828,-0.199707,0.2138672,-0.05273438
1199,-13.625,2.625,49.0625,1.597656,-0.7641602,0.07519531,-0.1948242,0.2172852,-0.05029297
1203,-18.875,37.3125,41.0625,1.527832,-0.7641602,0.07519531,-0.1899414,0.21875,-0.05029297
1207,-17.125,48.25,30.5,1.291504,-0.8339844,0.005859375,-0.1889648,0.2211914,-0.05029297
1211,-4.4375,29,15.75,1.147949,-0.8613281,-0.1054688,-0.1865234,0.2236328,-0.05419922
1215,7.5625,0,-9.0625,1.19043,-0.8183594,-0.109375,-0.1865234,0.2226563,-0.05273438
1219,16.9375,-10.0625,-27,1.419434,-0.8027344,-0.03222656,-0.1865234,0.2226563,-0.05419922
1223,14.8125,4.25,-36.375,1.539551,-0.7524414,0.02099609,-0.1889648,0.2211914,-0.05419922
1227,8.875,27.0625,-43.5,1.63623,-0.7524414,-0.001464844,-0.1923828,0.2163086,-0.05859375
1231,2.5,46,-56.375,1.558594,-0.7988281,-0.04736328,-0.1948242,0.2163086,-0.05566406
1235,5.625,43.875,-68.375,1.46582,-0.9541016,-0.08984375,-0.1972656,0.2138672,-0.06103516
1239,14.375,33.5625,-83.5625,1.516113,-0.9428711,-0.09765625,-0.203125,0.2099609,-0.06396484
1243,17.25,28.0625,-102.25,1.59375,-0.9350586,-0.07080078,-0.2045898,0.2050781,-0.06542969
1247,20.9375,26.4375,-121.9375,1.628418,-0.9970703,-0.07470703,-0.2138672,0.1938477,-0.06933594
1251,23.4375,25,-135.1875,1.674805,-1.040039,-0.109375,-0.2211914,0.1884766,-0.07177734
1255,22.8125,29.625,-147.75,1.779785,-1.036133,-0.1054688,-0.2280273,0.1850586,-0.07617188
1259,20.1875,44.1875,-160.8125,1.806641,-1.129395,-0.109375,-0.2353516,0.1738281,-0.07763672
1263,19.25,53.4375,-172.3125,1.678711,-1.249512,-0.1821289,-0.2446289,0.1611328,-0.08154297
1267,25.4375,47.4375,-184.1875,1.585938,-1.304199,-0.2324219,-0.2509766,0.1523438,-0.08544922
1271,30.9375,41.4375,-198.8125,1.620605,-1.304199,-0.2592773,-0.2602539,0.1347656,-0.09082031
1275,27.375,49.125,-211.375,1.624512,-1.272949,-0.2553711,-0.2709961,0.1201172,-0.09765625
1279,23.6875,57.8125,-216.25,1.523926,-1.358398,-0.2822266,-0.2792969,0.1088867,-0.1005859
1283,20.625,66.125,-218.3125,1.438477,-1.370117,-0.3208008,-0.2866211,0.08886719,-0.1074219
1287,17.5625,72.625,-217.125,1.376465,-1.34668,-0.2978516,-0.2949219,0.06884766,-0.112793
1291,19.0625,78.1875,-217,1.256348,-1.350586,-0.2861328,-0.2973633,0.05517578,-0.1166992
1295,19.75,77.25,-214.9375,1.109375,-1.288574,-0.3286133,-0.3032227,0.03271484,-0.125
1300,22.3125,62.75,-213.5625,0.9853516,-1.280762,-0.3359375,-0.3056641,0.01123047,-0.1303711
1304,25.3125,54.8125,-205.5625,1.132324,-1.207031,-0.2167969,-0.3066406,-0.004394531,-0.1347656
1308,17.4375,77.875,-199.0625,1.260254,-1.047363,-0.1513672,-0.3081055,-0.02685547,-0.1386719
1312,5.75,98.3125,-193.8125,1.055176,-1.000977,-0.1938477,-0.3056641,-0.04833984,-0.1494141
1316,4.25,93.875,-186.1875,0.9038086,-1.08252,-0.2207031,-0.3017578,-0.06054688,-0.1547852
1320,13.3125,76.875,-182.75,0.8613281,-1.066895,-0.1708984,-0.2973633,-0.08056641,-0.1630859
1324,19.875,75.5,-183.5,0.9389648,-0.8959961,-0.06298828,-0.2924805,-0.09716797,-0.168457
1328,17.5,90.6875,-182.125,0.8769531,-0.7602539,-0.04394531,-0.2890625,-0.1108398,-0.1728516
1332,12.4375,107.5625,-177.125,0.690918,-0.7680664,-0.07861328,-0.2792969,-0.1293945,-0.1821289
1336,13.5,113.5625,-169.25,0.4272461,-0.7792969,-0.1166992,-0.2700195,-0.1455078,-0.1918945
1340,22,100.8125,-162.6875,0.159668,-0.7133789,-0.1552734,-0.2626953,-0.1582031,-0.1972656
1344,28.1875,80.8125,-155.6875,-0.02978516,-0.581543,-0.128418,-0.253418,-0.171875,-0.2041016
1348,31.0625,62.6875,-142.4375,-0.1845703,-0.5229492,-0.1015625,-0.2412109,-0.1855469,-0.2094727
1352,35.0625,47.375,-121.4375,-0.2119141,-0.4414063,-0.05126953,-0.2363281,-0.1967773,-0.2094727
1356,35.0625,42.8125,-100.4375,-0.1923828,-0.3134766,-0.005371094,-0.2270508,-0.2080078,-0.2133789
1360,34.625,45,-81.75,-0.1650391,-0.1616211,-0.01660156,-0.2211914,-0.2167969,-0.2148438
1364,29.75,38.1875,-72.1875,-0.3320313,0.03613281,-0.1054688,-0.2138672,-0.2207031,-0.2148438
1368,26.875,20.5,-66.0625,-0.3745117,0.02832031,-0.0859375,-0.2104492,-0.2294922,-0.2163086
1372,28.125,6.1875,-51.875,-0.2929688,0.07861328,-0.04736328,-0.206543,-0.2319336,-0.2163086
1376,22.8125,9.375,-36.625,-0.215332,0.1757813,0.001953125,-0.203125,-0.2368164,-0.2163086
1380,12.75,14.3125,-22.375,-0.3007813,0.2070313,-0.01660156,-0.2006836,-0.2407227,-0.2148438
1384,9,5.0625,-6.75,-0.3935547,0.1293945,-0.03613281,-0.1982422,-0.2431641,-0.2148438
1388,10.375,-13.3125,7,-0.378418,0.1367188,-0.04003906,-0.199707,-0.2416992,-0.2133789
1392,13.125,-24,16.8125,-0.2270508,0.1914063,0.01708984,-0.2021484,-0.2431641,-0.2109375
1396,10.5625,-18.125,28.5,-0.1459961,0.2299805,0.03662109,-0.203125,-0.2431641,-0.2109375
1400,3.375,-9.0625,42.375,-0.1069336,0.1992188,-0.01318359,-0.2045898,-0.2392578,-0.2094727
1404,-0.4375,-11.625,57.125,-0.1611328,0.140625,-0.07080078,-0.2089844,-0.2382813,-0.206543
1408,-3.8125,-19.6875,69.5625,-0.1303711,0.140625,-0.07080078,-0.2128906,-0.2329102,-0.2080078
1412,-9.125,-29.1875,82.4375,-0.07226563,0.1020508,-0.05908203,-0.215332,-0.2294922,-0.206543
1416,-11.125,-35.1875,90.75,0.01269531,0.02441406,-0.04394531,-0.222168,-0.2246094,-0.2055664
1420,-10.8125,-36.1875,98.875,0.1132813,-0.06835938,-0.001464844,-0.2319336,-0.2143555,-0.2011719
1424,-11.3125,-34.25,107.875,0.1674805,-0.1269531,-0.05908203,-0.2329102,-0.2080078,-0.2011719
1429,-14.875,-42.0625,121.625,0.1713867,-0.1733398,-0.109375,-0.2402344,-0.1992188,-0.1972656
1433,-16.25,-51.0625,126,0.2875977,-0.1694336,-0.06689453,-0.2485352,-0.1879883,-0.1958008
1437,-18.6875,-54.125,129.0625,0.3188477,-0.2783203,-0.04003906,-0.2543945,-0.1791992,-0.1928711
1441,-16.5625,-45.875,137.0625,0.4775391,-0.4414063,-0.005371094,-0.2602539,-0.1669922,-0.1875
1445,-19.875,-41.4375,158.5,0.4931641,-0.4375,-0.1552734,-0.2675781,-0.1533203,-0.1875
1449,-31,-53.5,166.1875,0.527832,-0.3598633,-0.2016602,-0.2734375,-0.1445313,-0.1850586
1453,-36.3125,-67.625,163.3125,0.6791992,-0.550293,-0.1206055,-0.2792969,-0.1245117,-0.1796875
1457,-31.4375,-59.0625,162.5,0.9155273,-0.7988281,0.04443359,-0.2851563,-0.1069336,-0.1738281
1461,-29.3125,-39.625,176.5625,0.9931641,-0.8725586,0.04443359,-0.2900391,-0.09570313,-0.1713867
1465,-29.6875,-28.25,184.125,0.9311523,-0.7641602,-0.001464844,-0.2924805,-0.078125,-0.168457
1469,-28.75,-41.9375,182.6875,0.8417969,-0.8183594,-0.1054688,-0.2958984,-0.05712891,-0.1674805
1473,-24.875,-53.625,180.5,0.9814453,-0.9814453,-0.07861328,-0.2958984,-0.04833984,-0.1616211
1477,-19.125,-60.6875,193.1875,1.124512,-0.9658203,-0.1435547,-0.2998047,-0.02441406,-0.1577148
1481,-25.5,-51.625,192.25,1.291504,-0.7485352,-0.112793,-0.2983398,-0.006835938,-0.1538086
1485,-35.8125,-48.1875,180.1875,1.256348,-0.8027344,-0.1743164,-0.2973633,0.007324219,-0.1523438
1489,-38.9375,-58.5625,171.5625,1.159668,-1.05127,-0.1669922,-0.2949219,0.02490234,-0.1469727
1493,-32.5625,-70.75,170.75,1.314453,-1.15625,-0.0859375,-0.293457,0.04394531,-0.1386719
1497,-32.9375,-44.875,174.6875,1.527832,-0.9775391,0.02880859,-0.2915039,0.05517578,-0.1347656
1501,-47.75,-9.9375,174,1.275879,-0.8647461,0.02880859,-0.2851563,0.07275391,-0.1318359
1505,-53.5,-24.0625,180.875,0.8803711,-1.08252,-0.1977539,-0.2783203,0.08984375,-0.1279297
1509,-44.75,-66.875,171.1875,0.9389648,-1.233887,-0.2207031,-0.2734375,0.1000977,-0.1235352
1513,-27.1875,-100.625,156.25,1.171387,-1.381836,-0.2285156,-0.2675781,0.1162109,-0.1166992
1517,-15.125,-102,147.6875,1.461914,-1.199219,-0.07861328,-0.2617188,0.1289063,-0.1074219
1521,-19.5625,-76,139.9375,1.516113,-1.059082,-0.06689453,-0.2578125,0.1362305,-0.1035156
1525,-24.125,-63.4375,131.125,1.260254,-1.1875,-0.1206055,-0.2519531,0.1459961,-0.09375
1529,-17.8125,-73.5,122.4375,1.09375,-1.284668,-0.1591797,-0.2460938,0.1547852,-0.08691406
1533,-2.25,-92.375,127.3125,1.155762,-1.362305,-0.2324219,-0.2436523,0.1635742,-0.08447266
1537,2.75,-97.125,121.625,1.364746,-1.098145,-0.1782227,-0.2363281,0.1723633,-0.07861328
1541,2.5625,-90.4375,107.1875,1.43457,-1.078613,-0.1474609,-0.2304688,0.1787109,-0.06933594
1545,10.0625,-75.625,90.4375,1.415527,-1.059082,-0.09375,-0.2255859,0.1835938,-0.06933594
1549,8,-53.6875,89.0625,1.39209,-0.9892578,-0.1166992,-0.222168,0.1875,-0.06640625
1553,0.5,-31.625,92.25,1.275879,-0.9311523,-0.1401367,-0.2163086,0.1962891,-0.06103516
1558,1.125,-31.625,97.0625,1.155762,-0.9116211,-0.2514648,-0.2128906,0.1987305,-0.05957031
1562,1.5625,-43.3125,91.25,1.198242,-0.7524414,-0.3051758,-0.2080078,0.2060547,-0.05712891
1566,-0.9375,-54.5625,78.5,1.322266,-0.7055664,-0.2744141,-0.2006836,0.2099609,-0.05419922
1570,-0.5,-53.6875,63.875,1.496582,-0.6552734,-0.1938477,-0.1982422,0.2148438,-0.05175781
1574,-7.375,-38.25,52.5625,1.663574,-0.5620117,-0.1899414,-0.1938477,0.2172852,-0.04736328
1578,-18.4375,-16.8125,38.8125,1.73291,-0.6123047,-0.1362305,-0.1914063,0.21875,-0.04638672
1582,-22.6875,1.625,23.0625,1.760254,-0.6821289,-0.1015625,-0.1889648,0.2197266,-0.04199219
1586,-22.3125,17.3125,2.5625,1.736816,-0.7524414,-0.04394531,-0.1875,0.2226563,-0.04345703
1590,-17.4375,26.625,-22.375,1.674805,-0.8574219,-0.01660156,-0.1865234,0.2211914,-0.04199219
1594,-6.375,34.875,-40.875,1.63623,-0.9658203,-0.005371094,-0.1899414,0.2226563,-0.04199219
1598,1.5625,45.3125,-53.125,1.601563,-0.9428711,-0.04394531,-0.1923828,0.21875,-0.04638672
1602,3.9375,52.25,-60.8125,1.558594,-0.9155273,-0.1323242,-0.1948242,0.2163086,-0.04882813
1606,4.375,49.8125,-74.125,1.550781,-0.8613281,-0.2055664,-0.1982422,0.2138672,-0.05175781
1610,4.25,46.4375,-91.8125,1.612793,-0.8725586,-0.2167969,-0.2021484,0.2075195,-0.05273438
1614,2.6875,50.75,-109.8125,1.702148,-0.9116211,-0.2089844,-0.2089844,0.2036133,-0.05712891
1618,-0.25,61.125,-122.9375,1.717773,-1.032227,-0.2128906,-0.215332,0.1972656,-0.05957031
1622,-1.5625,68.875,-131.0625,1.72168,-1.11377,-0.2167969,-0.222168,0.1914063,-0.06542969
1626,0.75,73.9375,-145.9375,1.709961,-1.1875,-0.2246094,-0.2319336,0.1811523,-0.06787109
1630,5.375,78.1875,-160.9375,1.702148,-1.257324,-0.2324219,-0.2363281,0.1738281,-0.07324219
1634,7.625,81.375,-171.875,1.694336,-1.338867,-0.2744141,-0.2446289,0.1611328,-0.07861328
1638,9.9375,86.125,-184.75,1.682617,-1.37793,-0.2783203,-0.2543945,0.1489258,-0.08544922
1642,13.125,93.5625,-193.0625,1.655762,-1.432129,-0.2978516,-0.2602539,0.1386719,-0.08984375
1646,11.0625,104.6875,-199.75,1.585938,-1.401367,-0.324707,-0.2685547,0.125,-0.09765625
1650,8.5625,110.9375,-206.0625,1.42334,-1.428223,-0.3398438,-0.2758789,0.1064453,-0.1074219
1654,14.5625,104.625,-209.25,1.229492,-1.486816,-0.3632813,-0.2817383,0.09521484,-0.1113281
1658,20.8125,90.5625,-208.6875,1.159668,-1.436035,-0.3554688,-0.2875977,0.07617188,-0.1210938
1662,21,85.5,-206.5,1.198242,-1.331055,-0.3168945,-0.293457,0.05761719,-0.1303711
1666,15.5625,89.4375,-207.125,1.151855,-1.319336,-0.2553711,-0.2973633,0.04248047,-0.1347656
1670,17.375,94.875,-208.0625,1.101563,-1.354492,-0.2055664,-0.2973633,0.02246094,-0.1455078
1674,20.4375,96.125,-209.0625,0.9853516,-1.323242,-0.1938477,-0.2998047,0,-0.1523438
1678,25.5625,94.1875,-208.625,0.8920898,-1.241699,-0.1630859,-0.2983398,-0.01464844,-0.1577148
1682,29.5,91.125,-204.875,0.7758789,-1.160156,-0.1743164,-0.2973633,-0.03564453,-0.1660156
1687,31.25,89.375,-195.0625,0.7099609,-1.059082,-0.1860352,-0.2900391,-0.05957031,-0.1767578
1691,29.4375,85.6875,-179.3125,0.6362305,-0.9892578,-0.1708984,-0.2875977,-0.07080078,-0.1806641
1695,28.125,85.75,-168.75,0.6362305,-0.8300781,-0.1435547,-0.2827148,-0.08935547,-0.1875
1699,24.6875,87.8125,-164.5625,0.5161133,-0.7250977,-0.09765625,-0.2768555,-0.1069336,-0.1943359
1703,25.5,87.8125,-159.6875,0.4272461,-0.7172852,-0.0859375,-0.2709961,-0.1196289,-0.1987305
1707,28.5,89.125,-151.125,0.3535156,-0.6787109,-0.04003906,-0.2617188,-0.1342773,-0.2080078
1711,33.3125,89.9375,-142,0.2138672,-0.5424805,-0.08203125,-0.253418,-0.1494141,-0.2119141
1715,32.125,84.75,-134.9375,0.06298828,-0.421875,-0.1054688,-0.2470703,-0.1606445,-0.2177734
1719,30.4375,72.5625,-123.9375,-0.1147461,-0.3520508,-0.1362305,-0.237793,-0.171875,-0.2231445
1723,28.5625,54.125,-107.8125,-0.1923828,-0.2744141,-0.09375,-0.2294922,-0.1845703,-0.2285156
1727,30.875,39.75,-92.375,-0.1845703,-0.2084961,-0.04003906,-0.2246094,-0.1904297,-0.230957
1731,29.125,31.4375,-77.3125,-0.1572266,-0.1035156,-0.02832031,-0.2172852,-0.1982422,-0.230957
1735,27.0625,24.9375,-66.3125,-0.1650391,0.004882813,-0.005371094,-0.2114258,-0.2045898,-0.230957
1739,24.1875,17.1875,-58.75,-0.1884766,0.05908203,-0.005371094,-0.2080078,-0.2104492,-0.2324219
1743,23.3125,9.5,-51.9375,-0.2119141,0.08642578,0.001953125,-0.2045898,-0.2143555,-0.2338867
1747,21.875,6.5,-36.9375,-0.1650391,0.08251953,0.05957031,-0.2006836,-0.2207031,-0.230957
1751,15.25,12.875,-19,-0.1459961,0.2070313,0.04443359,-0.199707,-0.2207031,-0.2299805
1755,6.4375,14.6875,-5.375,-0.2270508,0.1914063,-0.005371094,-0.1972656,-0.2246094,-0.2324219
1759,1.625,-0.9375,8.5,-0.3320313,0.1796875,-0.06298828,-0.1982422,-0.2255859,-0.230957
1763,3.3125,-19.8125,20.5,-0.2583008,0.1484375,-0.001464844,-0.2006836,-0.2231445,-0.230957
1767,1.0625,-26.25,33.1875,-0.1264648,0.1953125,0.03662109,-0.199707,-0.2216797,-0.2285156
1771,-1.75,-24,45.625,-0.03320313,0.1445313,0.05175781,-0.2055664,-0.2182617,-0.2270508
1775,-2.0625,-23.5,58.9375,0.008789063,0.1333008,0.001953125,-0.2080078,-0.2167969,-0.2255859
1779,-4.3125,-29.625,67.375,0.04345703,0.1914063,-0.05517578,-0.2138672,-0.2128906,-0.2255859
1783,-13.1875,-37.125,70.4375,0.09765625,0.203125,-0.05908203,-0.2172852,-0.2080078,-0.2216797
1787,-21.9375,-43.3125,77.375,0.1015625,0.07861328,-0.03222656,-0.2211914,-0.2055664,-0.2202148
1791,-22.375,-48.375,86.1875,0.1831055,-0.08398438,0.04052734,-0.2294922,-0.1958008,-0.2177734
1795,-19.75,-50.25,95.875,0.2138672,-0.1420898,0.02099609,-0.2363281,-0.1870117,-0.2163086
1799,-17,-55.625,102.4375,0.2875977,-0.2084961,0.01708984,-0.2402344,-0.1821289,-0.2133789
1803,-14.125,-64.0625,103.4375,0.2646484,-0.2163086,-0.02050781,-0.2470703,-0.171875,-0.2080078
1807,-9.8125,-74.5,110.625,0.3496094,-0.3754883,-0.06689453,-0.2553711,-0.1621094,-0.2055664
1811,-7.8125,-79.4375,117.9375,0.4853516,-0.3286133,-0.06689453,-0.2602539,-0.1533203,-0.1987305
1816,-11.25,-70,128.5,0.578125,-0.3911133,-0.1054688,-0.2675781,-0.1420898,-0.1928711
1820,-21.625,-59.0625,136.9375,0.609375,-0.4140625,-0.09375,-0.2734375,-0.1293945,-0.1875
1824,-26.75,-54.375,145.625,0.5239258,-0.6435547,-0.1513672,-0.2783203,-0.1166992,-0.1865234
1828,-23.3125,-61.75,152.875,0.5512695,-0.7407227,-0.1474609,-0.2827148,-0.1030273,-0.1796875
1832,-22.5,-58.3125,160.0625,0.690918,-0.7832031,-0.1323242,-0.2875977,-0.08837891,-0.1738281
1836,-23.3125,-45.625,166.8125,0.690918,-0.8222656,-0.1552734,-0.2915039,-0.07714844,-0.1728516
1840,-26.3125,-61.5,181.3125,0.5551758,-0.7250977,-0.3359375,-0.2958984,-0.05957031,-0.1699219
1844,-33,-92.5625,177.875,0.6518555,-0.9077148,-0.4013672,-0.2973633,-0.03808594,-0.1616211
1848,-26.5625,-132.9375,178.0625,0.8222656,-1.094238,-0.3666992,-0.3007813,-0.02441406,-0.1547852
1852,-9.5625,-137.9375,173.3125,1.260254,-1.11377,-0.1435547,-0.3041992,-0.006835938,-0.1425781
1856,-4.6875,-106.8125,177.1875,1.52002,-0.9155273,-0.128418,-0.3041992,0.01123047,-0.1318359
1860,-26.5625,-56.25,181.5,1.508301,-0.8183594,-0.1630859,-0.3041992,0.02392578,-0.1279297
1864,-44.9375,-39.5,190.8125,1.217773,-0.9853516,-0.3012695,-0.2998047,0.04394531,-0.1235352
1868,-43.25,-53.3125,185.8125,1.101563,-1.109863,-0.2744141,-0.2949219,0.06396484,-0.1157227
1872,-35.25,-73.25,182.75,1.179199,-1.15625,-0.2514648,-0.2900391,0.07519531,-0.1113281
1876,-33.75,-81.125,180.5,1.39209,-1.183594,-0.1591797,-0.2851563,0.08984375,-0.1020508
1880,-26.6875,-74.6875,172.3125,1.558594,-1.22998,-0.1435547,-0.2792969,0.1074219,-0.09667969
1884,-27,-67.625,164.1875,1.608887,-1.233887,-0.1708984,-0.2734375,0.1176758,-0.08984375
1888,-24.625,-57.8125,156.75,1.666992,-1.269043,-0.1245117,-0.2651367,0.1298828,-0.08544922
1892,-20.875,-42.0625,148,1.647949,-1.222656,-0.0859375,-0.2592773,0.1411133,-0.07861328
1896,-18.4375,-29.75,140.9375,1.481445,-1.179688,-0.1245117,-0.2543945,0.1499023,-0.07470703
1900,-13.8125,-38,136.875,1.314453,-1.136719,-0.2246094,-0.2460938,0.1601563,-0.07177734
1904,-11.3125,-56.375,128.3125,1.345703,-1.070801,-0.2436523,-0.2387695,0.1713867,-0.06933594
1908,-7.4375,-59.125,120.6875,1.535645,-1.012695,-0.1591797,-0.2353516,0.1772461,-0.06640625
1912,-12.5625,-40.5,108.75,1.632324,-0.9116211,-0.07080078,-0.2270508,0.1835938,-0.0625
1916,-17.375,-17.125,94.9375,1.500488,-0.9506836,-0.01660156,-0.2211914,0.1923828,-0.05957031
1920,-14.6875,-4.75,85.125,1.299316,-1.012695,0.01708984,-0.2172852,0.1948242,-0.05859375
1924,-5.5,-10.125,80.875,1.078125,-0.9853516,-0.0859375,-0.2114258,0.2036133,-0.05859375
1928,7.0625,-37.875,73.8125,1.047363,-0.9658203,-0.1552734,-0.206543,0.2075195,-0.05566406
1932,15.25,-63.8125,62.8125,1.279785,-0.7832031,-0.1669922,-0.2045898,0.2099609,-0.05419922
1936,17.75,-62.25,44.8125,1.531738,-0.7250977,-0.05908203,-0.199707,0.2124023,-0.05175781
1940,17.8125,-45.6875,35.9375,1.670898,-0.6474609,-0.04394531,-0.1982422,0.2163086,-0.04882813
1945,10.625,-29.125,26.625,1.768066,-0.5854492,-0.04003906,-0.1962891,0.2148438,-0.04736328
1949,6.75,-11.5625,10.875,1.872559,-0.6083984,-0.01660156,-0.1938477,0.2148438,-0.04638672
1953,5.9375,5.6875,-11.1875,1.895996,-0.5776367,-0.03613281,-0.1948242,0.2172852,-0.04882813
1957,4.5625,15.125,-38,1.802734,-0.6669922,-0.04394531,-0.1948242,0.2163086,-0.04882813
1961,15.25,15.75,-59.0625,1.802734,-0.7988281,-0.05908203,-0.1972656,0.2138672,-0.05029297
1965,18.3125,28.5,-75.9375,1.918945,-0.7368164,-0.05126953,-0.203125,0.2099609,-0.05273438
1969,11.375,52.4375,-91,1.884277,-0.7407227,-0.07080078,-0.206543,0.2050781,-0.05566406
1973,10.125,63.0625,-104.4375,1.72168,-0.8613281,-0.1552734,-0.2128906,0.1987305,-0.05859375
1977,10.75,57.75,-119.125,1.605469,-0.8959961,-0.2128906,-0.2197266,0.1923828,-0.06396484
1981,9.375,44.625,-135.125,1.558594,-0.9853516,-0.1860352,-0.2255859,0.1875,-0.06787109
1985,12.75,38,-148.75,1.624512,-1.086426,-0.1206055,-0.2329102,0.1772461,-0.06933594
1989,15.125,45.75,-158.25,1.663574,-1.15625,-0.06689453,-0.2412109,0.1660156,-0.07470703
1993,15.3125,58.3125,-164,1.651855,-1.207031,-0.07080078,-0.2485352,0.1577148,-0.07470703
1997,17.8125,69.3125,-169,1.59375,-1.308105,-0.0859375,-0.2553711,0.1474609,-0.08447266
2001,22.375,77.625,-171.6875,1.554688,-1.276855,-0.1474609,-0.2636719,0.1323242,-0.08837891
2005,21.75,83,-174.9375,1.492676,-1.280762,-0.1782227,-0.2675781,0.1225586,-0.09521484
2009,23.3125,89.1875,-179.4375,1.481445,-1.304199,-0.1821289,-0.2768555,0.1113281,-0.1020508
2013,24.375,97.875,-188.0625,1.438477,-1.269043,-0.2207031,-0.2817383,0.09228516,-0.112793
2017,24.0625,102.4375,-194.25,1.337891,-1.334961,-0.2055664,-0.2866211,0.08007813,-0.1166992
2021,27.1875,104.5625,-193.0625,1.252441,-1.370117,-0.2055664,-0.2900391,0.06396484,-0.1289063
2025,31.875,104.75,-188.25,1.159668,-1.34668,-0.2055664,-0.2958984,0.04492188,-0.1357422
2029,34.6875,105.1875,-182.4375,1.124512,-1.21875,-0.2089844,-0.2958984,0.03271484,-0.144043
2033,35.25,102,-181.9375,1.02002,-1.144531,-0.2363281,-0.2949219,0.01123047,-0.1547852
2037,38.3125,88.1875,-180,0.9541016,-1.121582,-0.2363281,-0.2949219,-0.006835938,-0.1660156
2041,40.3125,77.1875,-178.8125,1.004395,-1.059082,-0.1708984,-0.293457,-0.01953125,-0.1674805
2045,39.75,80.6875,-171.8125,1.109375,-0.9194336,-0.09765625,-0.2949219,-0.03955078,-0.175293
2049,32.875,89.5625,-174.5,0.9619141,-0.8261719,-0.1015625,-0.2890625,-0.05810547,-0.1806641
2053,36.875,78.875,-176.5625,0.7719727,-0.8881836,-0.1743164,-0.2841797,-0.07177734,-0.1865234
2057,42.75,60.0625,-179,0.7177734,-0.8686523,-0.128418,-0.2792969,-0.09082031,-0.1943359
2061,44.1875,56.8125,-178.5,0.7758789,-0.7407227,-0.07861328,-0.2734375,-0.109375,-0.199707
2065,35.8125,68.8125,-175.4375,0.7099609,-0.6279297,-0.03222656,-0.2700195,-0.1220703,-0.199707
2069,28.5625,84.75,-168.0625,0.543457,-0.6279297,-0.03613281,-0.2602539,-0.1396484,-0.2055664
2074,24.1875,95.8125,-156.1875,0.3305664,-0.5698242,-0.07470703,-0.2519531,-0.1567383,-0.2148438
2078,23.1875,95.0625,-143.125,0.08251953,-0.5229492,-0.128418,-0.2446289,-0.1645508,-0.21875
2082,25.1875,76.5625,-131.625,-0.1767578,-0.453125,-0.1323242,-0.2353516,-0.1782227,-0.2246094
2086,32.4375,49.5625,-119.1875,-0.3203125,-0.387207,-0.1206055,-0.2236328,-0.1894531,-0.2285156
2090,37.9375,27.6875,-104.9375,-0.3588867,-0.2392578,-0.1015625,-0.2197266,-0.1982422,-0.2270508
2094,33.4375,14.6875,-86.3125,-0.347168,-0.1347656,-0.08984375,-0.215332,-0.2070313,-0.2285156
2098,26.25,1.9375,-62.5625,-0.3549805,-0.06835938,-0.07861328,-0.2080078,-0.2158203,-0.2270508
2102,21.5625,-4.8125,-36.75,-0.2348633,-0.03369141,-0.02050781,-0.206543,-0.2182617,-0.2285156
2106,15.6875,-1.9375,-22.375,-0.09521484,0.1601563,0.06347656,-0.2055664,-0.2216797,-0.2270508
2110,14.8125,9.0625,-25.1875,-0.05664063,0.1333008,0.09033203,-0.2045898,-0.2246094,-0.2270508
2114,14.1875,11.375,-20.0625,-0.1225586,0.1137695,0.06347656,-0.2021484,-0.2280273,-0.2255859
2118,12.25,7.5625,-4.1875,-0.1303711,0.08251953,0.05566406,-0.199707,-0.2304688,-0.2246094
2122,9.5625,4.25,11.1875,-0.04492188,0.1875,0.07910156,-0.199707,-0.2304688,-0.2255859
2126,3.6875,9.625,20.3125,-0.02978516,0.2456055,0.08642578,-0.199707,-0.2304688,-0.2246094
2130,-5.125,13.75,32.5625,-0.08398438,0.1445313,0.01708984,-0.2021484,-0.2270508,-0.2285156
2134,-5,3.125,49.1875,-0.1459961,0.05908203,-0.01318359,-0.2045898,-0.2246094,-0.2285156
2138,-2.0625,-18.75,60.75,-0.08398438,0.1445313,-0.04394531,-0.2045898,-0.2207031,-0.2255859
2142,-2.75,-34.625,63.625,0.05126953,0.15625,-0.009277344,-0.2089844,-0.2192383,-0.2255859
2146,-3.0625,-40.5625,66.0625,0.1791992,0.1098633,0.02880859,-0.215332,-0.2128906,-0.2231445
2150,-0.25,-40.125,69.375,0.2177734,0.1098633,-0.02832031,-0.2172852,-0.2094727,-0.21875
2154,-7.9375,-47.375,81,0.2294922,0.07080078,-0.07080078,-0.222168,-0.2016602,-0.2177734
2158,-15.25,-56.75,91.5625,0.2451172,0.04003906,-0.07080078,-0.2304688,-0.1943359,-0.2133789
2162,-15.6875,-66.25,99.3125,0.2724609,-0.1035156,-0.04394531,-0.237793,-0.1894531,-0.2109375
2166,-12.75,-82.5625,106,0.3574219,-0.1074219,-0.04394531,-0.2446289,-0.1806641,-0.206543
2170,-12,-86.375,106,0.578125,-0.1811523,0.009765625,-0.2543945,-0.1704102,-0.199707
2174,-13.4375,-78.375,99.0625,0.6557617,-0.1772461,0.001953125,-0.2617188,-0.1630859,-0.1943359
2178,-11.625,-66.9375,92.9375,0.559082,-0.4101563,0.05957031,-0.2675781,-0.1542969,-0.1904297
2182,-3.6875,-75.25,116.0625,0.4931641,-0.4921875,-0.03222656,-0.2724609,-0.1445313,-0.1865234
2186,-2.8125,-78.1875,136.625,0.7641602,-0.3095703,-0.06298828,-0.2783203,-0.1367188,-0.1806641
2190,-16.6875,-62.625,137.8125,0.9155273,-0.2241211,-0.07861328,-0.2851563,-0.1230469,-0.1738281
2194,-30.5625,-61.0625,143.0625,0.8032227,-0.3754883,-0.1977539,-0.2900391,-0.1083984,-0.1713867
2198,-31.125,-77.0625,137.25,0.8652344,-0.5620117,-0.1206055,-0.2924805,-0.09814453,-0.1660156
2203,-21.25,-92.9375,139.8125,0.9658203,-0.6552734,-0.109375,-0.2983398,-0.08300781,-0.1577148
2207,-18.1875,-88.8125,142,1.206055,-0.6318359,-0.01318359,-0.3032227,-0.06835938,-0.1494141
2211,-23.0625,-63,142.6875,1.310547,-0.6083984,-0.01660156,-0.3056641,-0.05566406,-0.1469727
2215,-30.75,-39.625,145.5625,1.182617,-0.6748047,-0.1323242,-0.3066406,-0.04052734,-0.1386719
2219,-37.4375,-39.5,144.25,0.9350586,-0.7719727,-0.2016602,-0.3056641,-0.02441406,-0.1357422
2223,-26.875,-77.4375,144.3125,0.7875977,-0.9311523,-0.2436523,-0.309082,-0.01318359,-0.1333008
2227,-7.625,-111.6875,142.1875,0.9931641,-0.9970703,-0.2285156,-0.3081055,0.002441406,-0.1264648
2231,-0.1875,-109,138.875,1.318359,-0.8959961,-0.1054688,-0.309082,0.01611328,-0.1142578
2235,-5.75,-68.875,140.375,1.535645,-0.7949219,-0.04736328,-0.3066406,0.02636719,-0.105957
2239,-27.0625,-15.0625,145.6875,1.322266,-0.8105469,-0.0859375,-0.3056641,0.04003906,-0.1035156
2243,-36.1875,-16.9375,162.5625,0.8730469,-1.000977,-0.2705078,-0.3007813,0.05371094,-0.1005859
2247,-24.8125,-63.25,159.3125,0.7758789,-1.062988,-0.3901367,-0.2983398,0.06494141,-0.09912109
2251,-4.0625,-113.375,141.875,0.9619141,-1.117676,-0.3168945,-0.2924805,0.08105469,-0.09228516
2255,14.25,-121.625,130.9375,1.39209,-1.004883,-0.2089844,-0.2900391,0.09228516,-0.08154297
2259,8.25,-85.3125,125,1.589844,-0.8764648,-0.1435547,-0.2866211,0.09863281,-0.07617188
2263,-9.5625,-40.75,128.4375,1.415527,-0.8959961,-0.1821289,-0.2827148,0.1113281,-0.06787109
2267,-15.4375,-28.875,132.1875,1.059082,-1.05127,-0.2553711,-0.2744141,0.1225586,-0.06640625
2271,-3.4375,-60.4375,135.4375,0.8652344,-1.059082,-0.394043,-0.2700195,0.1274414,-0.0625
2275,9.1875,-96.5625,124.375,1.105469,-0.9970703,-0.359375,-0.2651367,0.1376953,-0.05957031
2279,21.4375,-104.25,104.1875,1.419434,-0.8959961,-0.2744141,-0.2578125,0.1474609,-0.05029297
2283,19.875,-76.5,90.3125,1.550781,-0.8183594,-0.2246094,-0.2553711,0.1523438,-0.04736328
2287,4.5,-41.1875,90.625,1.407715,-0.7871094,-0.2631836,-0.253418,0.1601563,-0.04199219
2291,-5.9375,-23.625,98.625,1.186523,-0.8613281,-0.2978516,-0.2470703,0.1660156,-0.04052734
2295,-9.6875,-25.5,98.0625,1.089844,-0.8725586,-0.3129883,-0.2426758,0.1713867,-0.03662109
2299,-10.8125,-30.375,91.0625,1.13623,-0.8417969,-0.2592773,-0.237793,0.1772461,-0.03515625
2303,-11.1875,-30.625,78.8125,1.121094,-0.8842773,-0.1938477,-0.2329102,0.1835938,-0.03125
2307,-4.3125,-33.25,72.6875,1.113281,-0.9580078,-0.1630859,-0.2294922,0.1875,-0.03369141
2311,2.125,-39.8125,65.1875,1.182617,-0.8920898,-0.112793,-0.2246094,0.1914063,-0.02832031
2315,9.3125,-38.375,57.8125,1.318359,-0.8535156,-0.1054688,-0.222168,0.1962891,-0.02441406
2319,13.5,-29.1875,49.75,1.415527,-0.7680664,-0.09375,-0.2163086,0.1987305,-0.02441406
2323,12.9375,-15.1875,39.875,1.508301,-0.6396484,-0.1474609,-0.215332,0.2026367,-0.02441406
2327,10.5,-2.8125,26.8125,1.527832,-0.5966797,-0.1860352,-0.2128906,0.2036133,-0.02441406
2332,6.875,5.0625,14.125,1.543457,-0.5893555,-0.1860352,-0.2114258,0.2050781,-0.02441406
2336,4.75,11.9375,3.0625,1.570313,-0.5893555,-0.2055664,-0.2104492,0.2060547,-0.02734375
2340,2.5,17.5,-10.75,1.589844,-0.5927734,-0.1977539,-0.2114258,0.2050781,-0.02832031
2344,3.875,21.5625,-28.875,1.59375,-0.6005859,-0.2246094,-0.2089844,0.2050781,-0.02832031
2348,5.6875,20.4375,-47.75,1.5625,-0.6708984,-0.2324219,-0.2138672,0.2026367,-0.02978516
2352,9.875,22.8125,-65.125,1.651855,-0.6669922,-0.2285156,-0.2172852,0.1962891,-0.03271484
2356,4.75,39.125,-81.1875,1.702148,-0.6821289,-0.2128906,-0.2197266,0.1962891,-0.03125
2360,-0.3125,59.6875,-93.125,1.574219,-0.7719727,-0.2553711,-0.2270508,0.1914063,-0.03662109
2364,-1.125,64.5625,-98.8125,1.42334,-0.8686523,-0.3325195,-0.2304688,0.1835938,-0.04052734
2368,-0.625,58.5625,-106.5625,1.357422,-0.8496094,-0.3823242,-0.2363281,0.1801758,-0.04345703
2372,-1.6875,50.5,-117.4375,1.376465,-0.8725586,-0.3554688,-0.2426758,0.1723633,-0.04736328
2376,-2.4375,48.75,-131.25,1.407715,-0.9350586,-0.3051758,-0.2495117,0.1625977,-0.05175781
2380,-1,49.8125,-139.9375,1.419434,-1.032227,-0.2900391,-0.2543945,0.1547852,-0.05419922
2384,-1,56.3125,-143.3125,1.481445,-1.05127,-0.2783203,-0.2617188,0.1435547,-0.05712891
2388,-4.875,67.125,-148.3125,1.46582,-1.02832,-0.2939453,-0.2685547,0.1323242,-0.06396484
2392,-5.5625,68.625,-155.125,1.337891,-1.105957,-0.3012695,-0.2724609,0.125,-0.06640625
2396,-0.3125,61.6875,-162.875,1.302734,-1.136719,-0.2861328,-0.2792969,0.1137695,-0.07080078
2400,1.6875,61.4375,-165.8125,1.384277,-1.15625,-0.2167969,-0.2841797,0.1000977,-0.07617188
2404,0,77.8125,-165.0625,1.438477,-1.148438,-0.1552734,-0.2890625,0.08886719,-0.08007813
2408,-1.0625,97.4375,-164.3125,1.345703,-1.164063,-0.1474609,-0.2949219,0.07519531,-0.08691406
2412,2,105.6875,-161.6875,1.202148,-1.175781,-0.2016602,-0.2998047,0.06005859,-0.09667969
2416,8.125,101.75,-160.25,1.124512,-1.175781,-0.2207031,-0.3032227,0.05126953,-0.1035156
2420,16.5625,95.875,-163.3125,1.163574,-1.105957,-0.2016602,-0.3041992,0.03271484,-0.1113281
2424,19.9375,94.9375,-167.1875,1.085938,-1.040039,-0.1938477,-0.3056641,0.01611328,-0.1210938
2428,24.75,83.9375,-168.1875,1.008301,-1.055176,-0.1860352,-0.309082,0.00390625,-0.1289063
2432,32.6875,76,-162.75,1.101563,-0.9736328,-0.1552734,-0.3081055,-0.01171875,-0.1347656
2436,26.75,91.4375,-156.625,1.29541,-0.7753906,-0.109375,-0.3056641,-0.03076172,-0.1425781
2440,14.125,112.625,-157,1.147949,-0.7211914,-0.1552734,-0.3017578,-0.04199219,-0.1494141
2444,15.375,109.75,-160.25,0.8691406,-0.8457031,-0.1977539,-0.2998047,-0.05957031,-0.1591797
2448,25.0625,82.6875,-162.5625,0.7216797,-0.8183594,-0.1821289,-0.2949219,-0.07421875,-0.1674805
2452,35.625,61.1875,-161.75,0.8652344,-0.7680664,-0.07470703,-0.2915039,-0.08837891,-0.1728516
2456,32.8125,76,-158.1875,1.027832,-0.5541992,-0.02832031,-0.2851563,-0.1044922,-0.1767578
2461,19.75,99.9375,-153,0.8652344,-0.503418,-0.05908203,-0.2792969,-0.1230469,-0.1850586
2465,17.75,105.5625,-143.8125,0.644043,-0.5463867,-0.09765625,-0.2724609,-0.1333008,-0.1889648
2469,19.8125,92.9375,-138.6875,0.4506836,-0.4257813,-0.1474609,-0.2651367,-0.1455078,-0.1987305
2473,23.5625,68.8125,-137.875,0.3227539,-0.4453125,-0.1206055,-0.2543945,-0.1606445,-0.2055664
2477,28.75,52,-134.625,0.3110352,-0.3481445,-0.05126953,-0.2509766,-0.1679688,-0.2041016
2481,25.6875,49.75,-125.5,0.2568359,-0.2626953,-0.01660156,-0.2412109,-0.1791992,-0.2109375
2485,18.4375,54.1875,-109.6875,0.159668,-0.2353516,0.005859375,-0.2353516,-0.1918945,-0.2109375
2489,16.25,55.8125,-92,0.01269531,-0.1772461,-0.01660156,-0.2294922,-0.1967773,-0.2148438
2493,18.0625,45.25,-84.625,-0.1611328,-0.1230469,-0.08203125,-0.2211914,-0.2055664,-0.21875
2497,21.625,21.5625,-77.9375,-0.3046875,-0.08007813,-0.112793,-0.215332,-0.2128906,-0.2202148
2501,22.25,1.0625,-66.5,-0.2929688,-0.02978516,-0.04394531,-0.2128906,-0.2207031,-0.2216797
2505,16.75,-8.25,-48.3125,-0.2583008,0.04394531,-0.01660156,-0.2104492,-0.2246094,-0.2202148
2509,9.8125,-10.6875,-31.1875,-0.1845703,0.0009765625,0.05957031,-0.206543,-0.2294922,-0.21875
2513,10.3125,-1.5625,-15.4375,-0.1147461,0.03222656,0.1020508,-0.2089844,-0.2294922,-0.2177734
2517,8.9375,11.9375,-0.375,-0.1069336,0.04736328,0.08642578,-0.2055664,-0.2319336,-0.2177734
2521,9.1875,15,11.875,-0.1767578,0.105957,0.01367188,-0.206543,-0.2304688,-0.2177734
2525,6.8125,6.375,21.3125,-0.215332,0.1640625,-0.06689453,-0.2045898,-0.2319336,-0.2163086
2529,-1.8125,-5.8125,33.6875,-0.2080078,0.1679688,-0.07080078,-0.206543,-0.2294922,-0.21875
2533,-7.1875,-16.4375,46.9375,-0.1459961,0.06689453,-0.02050781,-0.2080078,-0.2255859,-0.21875
2537,-3.3125,-26.1875,60.875,-0.1069336,0.02832031,-0.01318359,-0.2128906,-0.2255859,-0.2148438
2541,-5.5625,-39.5,75.9375,-0.006347656,0.1020508,-0.05908203,-0.2163086,-0.2192383,-0.2133789
2545,-9.5625,-47.25,84.5625,0.159668,0.07861328,-0.05908203,-0.2246094,-0.2128906,-0.2109375
2549,-13.1875,-47.4375,86.8125,0.2875977,0.03613281,-0.02050781,-0.2280273,-0.2080078,-0.2080078
2553,-16.9375,-40.375,91.625,0.3496094,-0.09179688,0.02099609,-0.2353516,-0.2016602,-0.206543
2557,-17.5625,-37.0625,101.25,0.3417969,-0.1538086,0.02099609,-0.2402344,-0.1904297,-0.2055664
2561,-17.375,-35.875,107,0.3496094,-0.1889648,-0.005371094,-0.2470703,-0.1855469,-0.2011719
2565,-19.3125,-37.8125,114,0.2954102,-0.1655273,-0.09765625,-0.2519531,-0.1733398,-0.1987305
2569,-26,-51.25,119.75,0.2724609,-0.2744141,-0.1401367,-0.2553711,-0.1621094,-0.1972656
2573,-25.1875,-66.25,127.5,0.3652344,-0.46875,-0.1474609,-0.2636719,-0.1542969,-0.1928711
2577,-21.75,-81.875,139.25,0.5161133,-0.5073242,-0.1206055,-0.2700195,-0.140625,-0.1904297
2581,-21.125,-79.5,145.625,0.7680664,-0.4960938,-0.005371094,-0.2783203,-0.1279297,-0.1821289
2585,-22.875,-60.875,149.3125,0.8652344,-0.5776367,0.001953125,-0.2817383,-0.1166992,-0.1796875
2590,-25.5,-53.875,151.125,0.8300781,-0.5776367,-0.05126953,-0.2851563,-0.1005859,-0.175293
2594,-21.75,-63.625,145.3125,0.7490234,-0.7133789,-0.1630859,-0.2915039,-0.08447266,-0.168457
2598,-15,-84.3125,143.625,0.8149414,-0.7290039,-0.1743164,-0.2949219,-0.07568359,-0.1674805
2602,-17.5625,-90.8125,152.125,0.9658203,-0.7485352,-0.1821289,-0.2958984,-0.05957031,-0.1577148
2606,-28.4375,-76.3125,164.0625,1.151855,-0.7753906,-0.07470703,-0.3007813,-0.04296875,-0.1523438
2610,-34.5625,-48.75,176.6875,1.19043,-0.9311523,-0.04394531,-0.3032227,-0.03076172,-0.1455078
2614,-32.5625,-52.5,183,1.13623,-0.8647461,-0.1591797,-0.3017578,-0.01171875,-0.144043
2618,-31.375,-67.5625,168.6875,1.155762,-0.8417969,-0.2363281,-0.3007813,0.007324219,-0.1386719
2622,-26.0625,-87.75,152.9375,1.194336,-0.9428711,-0.1669922,-0.3007813,0.01855469,-0.1303711
2626,-19.5,-90.625,153,1.368652,-0.9116211,-0.1245117,-0.3007813,0.03613281,-0.1235352
2630,-27.3125,-75.625,154.625,1.500488,-0.8881836,-0.08984375,-0.2983398,0.05126953,-0.1157227
2634,-38.3125,-61.0625,165.625,1.442383,-0.9619141,-0.1899414,-0.2958984,0.06103516,-0.1113281
2638,-40.1875,-61.5,163.5625,1.399902,-1.012695,-0.1362305,-0.2890625,0.07617188,-0.1044922
2642,-29.3125,-71.25,153.125,1.454102,-1.036133,-0.1054688,-0.2851563,0.08984375,-0.09765625
2646,-21.4375,-74.1875,145.125,1.566406,-0.9350586,-0.109375,-0.2827148,0.1010742,-0.09228516
2650,-21.0625,-69.125,129.625,1.620605,-0.8647461,-0.05517578,-0.2768555,0.1137695,-0.08447266
2654,-20.125,-52.75,112.75,1.624512,-0.9350586,-0.02832031,-0.2734375,0.1235352,-0.07861328
2658,-19.875,-35.4375,106.375,1.446289,-1.020508,-0.04394531,-0.2685547,0.1289063,-0.07470703
2662,-15.9375,-28.9375,112.1875,1.252441,-1.109863,-0.09375,-0.2617188,0.1362305,-0.07177734
2666,-5.6875,-42.1875,109.5625,1.140137,-1.004883,-0.2167969,-0.2592773,0.1459961,-0.06787109
2670,1.4375,-61.9375,95.9375,1.155762,-0.9658203,-0.2553711,-0.253418,0.1513672,-0.06787109
2674,6.875,-67,84.1875,1.29541,-0.8764648,-0.1977539,-0.2495117,0.1577148,-0.0625
2678,5.875,-52,75.6875,1.333984,-0.8105469,-0.1401367,-0.2460938,0.1650391,-0.05859375
2682,-1.75,-31.8125,73.9375,1.248535,-0.7680664,-0.1860352,-0.2436523,0.1674805,-0.05273438
2686,-9.125,-22.4375,76.375,1.078125,-0.8222656,-0.1474609,-0.237793,0.1738281,-0.05175781
2690,-6.25,-27,76.375,1.023926,-0.8613281,-0.1782227,-0.2353516,0.1801758,-0.05029297
2694,0.4375,-40.0625,70.4375,1.09375,-0.7910156,-0.2016602,-0.2304688,0.1835938,-0.04882813
2698,4.75,-47.4375,54.125,1.271973,-0.7563477,-0.1206055,-0.2280273,0.1875,-0.04736328
2702,10.8125,-40.875,43.3125,1.415527,-0.7524414,-0.05908203,-0.2246094,0.1899414,-0.04345703
2706,14.375,-33.25,37.6875,1.492676,-0.6899414,-0.09765625,-0.222168,0.1923828,-0.04199219
2710,18.625,-29.8125,27.875,1.640137,-0.6201172,-0.109375,-0.222168,0.1948242,-0.04199219
2714,19.6875,-19.6875,13.5,1.810547,-0.4765625,-0.1362305,-0.2197266,0.1962891,-0.04345703
2719,9.9375,1.0625,-0.5,1.938477,-0.3754883,-0.1708984,-0.21875,0.1962891,-0.04052734
2723,-3,22.75,-21.3125,1.942383,-0.3598633,-0.2207031,-0.2197266,0.1962891,-0.04199219
2727,-12.5,37.25,-40.4375,1.884277,-0.4960938,-0.2128906,-0.222168,0.1938477,-0.04199219
2731,-13.9375,44.875,-56.75,1.806641,-0.6123047,-0.2089844,-0.2236328,0.1923828,-0.04345703
2735,-14.25,46.8125,-74.5,1.686523,-0.7016602,-0.1977539,-0.2280273,0.1875,-0.04638672
2739,-7.9375,41.25,-89.625,1.655762,-0.8339844,-0.1708984,-0.2304688,0.1835938,-0.04736328
2743,-2.375,41.875,-107.1875,1.659668,-0.8535156,-0.1708984,-0.234375,0.1787109,-0.04882813
2747,1.8125,43.125,-120.625,1.655762,-0.9350586,-0.1743164,-0.2426758,0.1723633,-0.05175781
2751,4.125,47.8125,-133.4375,1.663574,-0.9194336,-0.1938477,-0.2495117,0.1625977,-0.05712891
2755,2.125,53.4375,-143.4375,1.63623,-0.9619141,-0.2055664,-0.2543945,0.1547852,-0.05957031
2759,2.3125,59.5,-151.1875,1.644043,-1.024414,-0.2207031,-0.2626953,0.1435547,-0.06396484
2763,0.375,68.875,-160.125,1.601563,-1.066895,-0.2207031,-0.2709961,0.1298828,-0.06933594
2767,2.25,73.0625,-169.125,1.527832,-1.183594,-0.2363281,-0.2734375,0.1225586,-0.07324219
2771,6.0625,77.3125,-175.6875,1.477539,-1.183594,-0.2436523,-0.2792969,0.1098633,-0.08007813
2775,6,83.1875,-178.3125,1.430664,-1.226563,-0.2324219,-0.2866211,0.09375,-0.08544922
2779,8.5625,91,-176.125,1.380371,-1.233887,-0.2285156,-0.2915039,0.08105469,-0.09082031
2783,7.8125,98.3125,-172.3125,1.333984,-1.183594,-0.2363281,-0.2973633,0.06640625,-0.1005859
2787,7.8125,100.875,-174.375,1.271973,-1.15625,-0.2363281,-0.3007813,0.04980469,-0.1098633
2791,11.5,98.125,-180.4375,1.179199,-1.179688,-0.2397461,-0.3007813,0.04003906,-0.1142578
2795,20.75,85.875,-182.0625,1.085938,-1.241699,-0.2436523,-0.3032227,0.02148438,-0.1210938
2799,32.125,73.25,-183.8125,1.109375,-1.074707,-0.1899414,-0.3041992,0,-0.1333008
2803,33.125,69.375,-184.8125,1.163574,-0.9775391,-0.1591797,-0.3066406,-0.01171875,-0.1347656
2807,32.5625,76.625,-188.25,1.225586,-0.8881836,-0.1401367,-0.3056641,-0.03320313,-0.144043
2811,29.75,86.5,-187.875,1.209961,-0.8457031,-0.1743164,-0.3032227,-0.05078125,-0.1494141
2815,23.6875,94.6875,-187.4375,1.082031,-0.7641602,-0.1860352,-0.3007813,-0.06689453,-0.15625
2819,21.125,94.5,-182.25,0.9423828,-0.7719727,-0.2055664,-0.2949219,-0.08300781,-0.1645508
2823,19.6875,83.5,-173.9375,0.8032227,-0.6977539,-0.1860352,-0.2875977,-0.1044922,-0.1699219
2827,15.6875,73.75,-165.375,0.8032227,-0.6318359,-0.1552734,-0.2841797,-0.1181641,-0.1767578
2831,11.1875,75.125,-160.875,0.8149414,-0.6005859,-0.08984375,-0.2783203,-0.1333008,-0.1806641
2835,9.0625,80.5,-154.5,0.7177734,-0.550293,-0.05908203,-0.2709961,-0.1479492,-0.1904297
2839,8.1875,84.375,-147.3125,0.6171875,-0.4648438,-0.04394531,-0.2636719,-0.1567383,-0.1928711
2843,6.3125,85.75,-140.625,0.4658203,-0.4101563,-0.07080078,-0.253418,-0.171875,-0.199707
2848,7.125,81.5625,-133.0625,0.3032227,-0.3833008,-0.07080078,-0.2436523,-0.1831055,-0.206543
2852,7.125,76,-123.8125,0.1484375,-0.3017578,-0.06298828,-0.2363281,-0.1904297,-0.2109375
2856,4.8125,62.75,-110.1875,-0.03710938,-0.2431641,-0.05517578,-0.2270508,-0.2006836,-0.2163086
2860,2.6875,50.4375,-94.75,-0.09130859,-0.2202148,-0.01318359,-0.2172852,-0.2104492,-0.2202148
2864,3.5,43.9375,-80.3125,-0.1381836,-0.2241211,0.02490234,-0.2138672,-0.2143555,-0.2231445
2868,7.3125,36.75,-66.4375,-0.2270508,-0.1772461,0.04052734,-0.206543,-0.2192383,-0.2255859
2872,14.875,28.3125,-53.9375,-0.2348633,-0.1269531,0.09423828,-0.203125,-0.2255859,-0.2255859
2876,23.375,21.25,-46.8125,-0.2851563,-0.002441406,0.05175781,-0.1982422,-0.2280273,-0.2270508
2880,22.5625,12.1875,-33.375,-0.3007813,0.07470703,0.02490234,-0.1972656,-0.2319336,-0.2255859
2884,16.0625,5.9375,-19.1875,-0.2231445,0.1640625,-0.01318359,-0.1938477,-0.2358398,-0.2255859
2888,7.25,-0.4375,-9.75,-0.2231445,0.1640625,0.01367188,-0.1923828,-0.2368164,-0.2255859
2892,5.375,-4.3125,1.875,-0.1806641,0.09423828,0.09814453,-0.1923828,-0.2392578,-0.2246094
2896,5.5625,3.5625,15,-0.1499023,0.07470703,0.140625,-0.1938477,-0.2392578,-0.2270508
2900,6.75,2.9375,28.6875,-0.2348633,0.105957,0.04443359,-0.1923828,-0.2368164,-0.2231445
2904,5.5625,-14.0625,38.375,-0.2119141,0.1367188,-0.02050781,-0.1938477,-0.2368164,-0.2246094
2908,4.625,-22.6875,48.5,-0.05273438,0.1098633,-0.001464844,-0.199707,-0.2329102,-0.2231445
2912,0.25,-25.1875,62.5,0.0009765625,0.1796875,0.009765625,-0.2021484,-0.2294922,-0.2216797
2916,-4,-33.3125,71.375,0.03564453,0.08251953,0.001953125,-0.2055664,-0.2270508,-0.21875
2920,2.6875,-46.3125,76.6875,0.1328125,0.07080078,-0.01660156,-0.2114258,-0.2207031,-0.2177734
2924,1.3125,-55.25,82.1875,0.2993164,0.09033203,0.009765625,-0.21875,-0.2192383,-0.2119141
2928,-1.9375,-53.1875,89.4375,0.4467773,0.05126953,0.04785156,-0.2270508,-0.2104492,-0.2109375
2932,-5.0625,-49.75,95.0625,0.5087891,0.02050781,0.05175781,-0.2319336,-0.2016602,-0.2055664
2936,-6.375,-56.4375,99.375,0.5048828,-0.01806641,0.02490234,-0.237793,-0.1967773,-0.2041016
2940,-3.0625,-70.875,100.9375,0.5629883,-0.08789063,0.05175781,-0.2446289,-0.1894531,-0.199707
2944,1.25,-77.3125,103.9375,0.6948242,-0.1347656,0.09814453,-0.2543945,-0.1791992,-0.1918945
2948,2.9375,-72.5625,115.75,0.8149414,-0.1928711,0.08642578,-0.2602539,-0.1743164,-0.1918945
2952,-2,-58.9375,124.875,0.9389648,-0.1499023,0.1171875,-0.2675781,-0.1645508,-0.1821289
2956,-7.8125,-37.125,123.625,0.9116211,-0.1191406,0.04052734,-0.2734375,-0.1518555,-0.1796875
2960,-19.1875,-29.25,126.4375,0.7255859,-0.2509766,-0.04394531,-0.2758789,-0.1445313,-0.1767578
2964,-24.25,-42.9375,137.0625,0.6362305,-0.340332,-0.112793,-0.2817383,-0.1308594,-0.1767578
2968,-24.8125,-54.9375,142.5625,0.7954102,-0.4296875,-0.04003906,-0.2866211,-0.1157227,-0.1728516
2972,-24.375,-54.875,145.4375,0.9116211,-0.4140625,-0.005371094,-0.2900391,-0.1054688,-0.1699219
2977,-27.125,-45.625,141.6875,0.9423828,-0.5385742,0.04052734,-0.293457,-0.08935547,-0.1645508
2981,-24.5625,-49.5,139.25,0.8300781,-0.6591797,-0.03613281,-0.2958984,-0.07568359,-0.1616211
2985,-14.0625,-70.875,138.5,0.7954102,-0.7407227,-0.1015625,-0.2973633,-0.06591797,-0.1591797
2989,-3.4375,-86.375,132.25,0.9389648,-0.7290039,-0.05126953,-0.3007813,-0.05078125,-0.1508789
2993,1.1875,-73.625,135.75,1.109375,-0.7329102,-0.01660156,-0.3032227,-0.03710938,-0.144043
2997,-5.375,-47.8125,145.1875,1.155762,-0.7016602,-0.05908203,-0.3041992,-0.02685547,-0.1401367
3001,-12.5,-34.75,155.5625,1.008301,-0.7055664,-0.1938477,-0.3056641,-0.01074219,-0.1347656
3005,-18.1875,-44.5625,156.0625,0.9389648,-0.6938477,-0.2939453,-0.3041992,0.002441406,-0.1303711
3009,-19.6875,-60.6875,149.75,0.9350586,-0.7988281,-0.2592773,-0.3032227,0.01367188,-0.1289063
3013,-17.75,-72.4375,149,1.004395,-0.8378906,-0.2631836,-0.3017578,0.02880859,-0.1225586
3017,-21,-72.3125,153.4375,1.109375,-0.9038086,-0.2363281,-0.2998047,0.04492188,-0.1166992
3021,-24.875,-71.0625,156.9375,1.140137,-0.9077148,-0.2363281,-0.2958984,0.05615234,-0.112793
3025,-26.6875,-71.75,155.4375,1.19043,-1.016602,-0.2592773,-0.293457,0.06982422,-0.1044922
3029,-23.875,-79.125,149.0625,1.182617,-1.05127,-0.2553711,-0.2900391,0.08251953,-0.09521484
3033,-20.0625,-91.0625,142.4375,1.252441,-1.05127,-0.2246094,-0.2851563,0.09228516,-0.09228516
3037,-15.1875,-87.1875,132.25,1.333984,-1.074707,-0.1401367,-0.2817383,0.1049805,-0.08447266
3041,-10.3125,-73.3125,131.75,1.353516,-1.066895,-0.1166992,-0.2758789,0.1162109,-0.07617188
3045,-10.3125,-61.5,133.125,1.29541,-1.036133,-0.1782227,-0.2744141,0.1235352,-0.07177734
3049,-8.1875,-63.1875,130.5625,1.252441,-1.008789,-0.2397461,-0.2675781,0.1337891,-0.06542969
3053,-6.125,-68.5,122.4375,1.244629,-0.9619141,-0.2514648,-0.2592773,0.1435547,-0.06103516
3057,-6.3125,-69.5,114.4375,1.252441,-0.9814453,-0.2207031,-0.2568359,0.1499023,-0.05712891
3061,-1.625,-65.1875,104.6875,1.260254,-0.9892578,-0.1977539,-0.2509766,0.1586914,-0.05029297
3065,2.8125,-59.875,92.3125,1.256348,-0.9541016,-0.1977539,-0.2460938,0.1660156,-0.04736328
3069,6,-55.0625,83.5,1.182617,-0.9931641,-0.2089844,-0.2436523,0.1713867,-0.04345703
3073,9.5625,-58.375,81,1.132324,-0.9931641,-0.2246094,-0.2402344,0.1748047,-0.04052734
3077,14.125,-55.4375,80.5,1.283691,-0.9350586,-0.1821289,-0.2319336,0.1811523,-0.03662109
3081,12.5625,-35,76.5,1.349609,-0.8144531,-0.1362305,-0.2294922,0.1860352,-0.03515625
3085,7.625,-13,70.5,1.283691,-0.7446289,-0.1552734,-0.2255859,0.1914063,-0.03515625
3089,6.3125,-7.125,66.375,1.163574,-0.7290039,-0.2592773,-0.2197266,0.1948242,-0.03271484
3093,4.3125,-19,56.6875,1.124512,-0.6899414,-0.3168945,-0.2172852,0.1972656,-0.03271484
3097,7.1875,-32.0625,43.4375,1.229492,-0.7524414,-0.2514648,-0.2138672,0.2011719,-0.03125
3101,10.1875,-28,33,1.395996,-0.7016602,-0.1591797,-0.2114258,0.2036133,-0.03125
3106,8.375,-11.75,26.4375,1.48877,-0.6591797,-0.1513672,-0.2114258,0.2060547,-0.02832031
3110,4.5,1.9375,17.375,1.52002,-0.6357422,-0.1782227,-0.2080078,0.2060547,-0.02978516
3114,2.9375,11.8125,4.9375,1.574219,-0.6318359,-0.1743164,-0.2080078,0.2075195,-0.03271484
3118,0.125,24.9375,-13.5,1.632324,-0.6005859,-0.1669922,-0.206543,0.2075195,-0.03271484
3122,-3.5,39.125,-29.5625,1.608887,-0.6513672,-0.1552734,-0.2080078,0.2060547,-0.03369141
3126,-5,51.5625,-42.3125,1.546875,-0.6938477,-0.1743164,-0.2104492,0.2050781,-0.03515625
3130,-7.3125,55.125,-54.25,1.42334,-0.7446289,-0.2207031,-0.2128906,0.2026367,-0.03808594
3134,-4.4375,49.625,-65.3125,1.380371,-0.8613281,-0.2207031,-0.2172852,0.2001953,-0.04052734
3138,0.1875,44.875,-80,1.42334,-0.8574219,-0.2128906,-0.2197266,0.1923828,-0.04345703
3142,2.25,48.25,-92.6875,1.523926,-0.9194336,-0.1782227,-0.2246094,0.1884766,-0.04638672
3146,1.375,60.8125,-104.0625,1.554688,-0.9038086,-0.1743164,-0.2294922,0.1850586,-0.05029297
3150,1.1875,71.75,-115.6875,1.492676,-0.9814453,-0.2016602,-0.2363281,0.1762695,-0.05273438
3154,5.25,77.3125,-125.5,1.42334,-1.012695,-0.2436523,-0.2402344,0.1699219,-0.05957031
3158,4.9375,75.25,-135.625,1.326172,-1.059082,-0.2822266,-0.2460938,0.1611328,-0.06542969
3162,8.375,68.6875,-138.125,1.353516,-1.117676,-0.2978516,-0.2553711,0.1523438,-0.07177734
3166,7.0625,69.125,-142.5,1.403809,-1.086426,-0.2475586,-0.2578125,0.1450195,-0.07177734
3170,6.75,75.4375,-148.75,1.43457,-1.129395,-0.2397461,-0.2651367,0.1323242,-0.08007813
3174,8.125,86.625,-155.6875,1.438477,-1.160156,-0.2089844,-0.2709961,0.1201172,-0.08691406
3178,7.3125,101.625,-158.9375,1.399902,-1.167969,-0.2055664,-0.2758789,0.1123047,-0.09228516
3182,5.8125,115.875,-160.9375,1.318359,-1.222656,-0.2167969,-0.2792969,0.1000977,-0.1005859
3186,6.3125,129.3125,-156.1875,1.202148,-1.26123,-0.2246094,-0.2841797,0.08496094,-0.112793
3190,9.1875,131.75,-148.9375,0.9853516,-1.253418,-0.2631836,-0.2851563,0.07519531,-0.1196289
3194,16.4375,117.1875,-149.125,0.8457031,-1.21875,-0.3012695,-0.2875977,0.06103516,-0.1318359
3198,28.375,91.625,-153.75,0.8183594,-1.148438,-0.2670898,-0.2900391,0.04638672,-0.1416016
3202,32.625,77.375,-159.625,0.8730469,-0.9814453,-0.1860352,-0.2924805,0.03613281,-0.1484375
3206,28.0625,69.5,-156.5,0.8881836,-0.9541016,-0.1552734,-0.2915039,0.01855469,-0.1538086
3210,27.125,62.6875,-150.4375,0.9233398,-0.9233398,-0.128418,-0.2924805,0.00390625,-0.1616211
3214,26.25,63.0625,-144.4375,1.02002,-0.8613281,-0.07470703,-0.2924805,-0.005859375,-0.1645508
3218,24.9375,70.4375,-144.375,1.008301,-0.7988281,-0.04003906,-0.2924805,-0.02050781,-0.1699219
3222,26.125,69.5625,-147.75,0.8881836,-0.7832031,-0.03613281,-0.2900391,-0.03808594,-0.1767578
3226,31.6875,60.25,-148.625,0.7993164,-0.8027344,-0.005371094,-0.2866211,-0.046875,-0.1806641
3230,39.0625,50.375,-148.4375,0.7719727,-0.7368164,0.005859375,-0.2841797,-0.06445313,-0.1850586
3235,43.75,42.6875,-143.25,0.8071289,-0.6279297,0.01708984,-0.2817383,-0.08056641,-0.1889648
3239,40.9375,46,-139.5,0.8300781,-0.519043,0.03271484,-0.2792969,-0.09082031,-0.1904297
3243,37,53.375,-133.875,0.7915039,-0.421875,0.001953125,-0.2744141,-0.1054688,-0.1958008
3247,30.5625,53.4375,-131.375,0.675293,-0.4179688,0.01708984,-0.2700195,-0.1181641,-0.1987305
3251,35.375,48,-129.9375,0.6401367,-0.4179688,0.03271484,-0.2675781,-0.1293945,-0.199707
3255,38.875,41.75,-130.0625,0.5551758,-0.3481445,0.05957031,-0.2592773,-0.1420898,-0.2026367
3259,39.4375,41.8125,-127.4375,0.5239258,-0.2744141,0.06738281,-0.2553711,-0.1567383,-0.2041016
3263,35.4375,46,-120.0625,0.4194336,-0.2353516,0.05957031,-0.2509766,-0.1645508,-0.206543
3267,33.375,50.5625,-111.8125,0.3149414,-0.2124023,0.04443359,-0.2426758,-0.1782227,-0.2109375
3271,31.625,51.875,-102.75,0.125,-0.1616211,0.01708984,-0.2363281,-0.1879883,-0.2148438
3275,31.375,42.625,-93.5,-0.02197266,-0.09960938,-0.02832031,-0.2319336,-0.1958008,-0.2163086
3279,30.5,27.5,-83.375,-0.1225586,-0.03759766,-0.05908203,-0.2255859,-0.2045898,-0.2148438
3283,25.125,15.25,-68.25,-0.1342773,0.02832031,-0.03222656,-0.2197266,-0.2119141,-0.2163086
3287,18.8125,9.0625,-53.5625,-0.1186523,0.04003906,0.02490234,-0.2172852,-0.2143555,-0.2163086
3291,17.375,5.25,-37.9375,-0.1303711,0.07080078,0.04052734,-0.2163086,-0.2216797,-0.2177734
3295,15.375,1.0625,-28.1875,-0.09130859,0.08251953,0.07519531,-0.2128906,-0.2246094,-0.2163086
3299,14.5625,-1.0625,-18.3125,-0.05664063,0.1137695,0.07519531,-0.2104492,-0.2270508,-0.2133789
3303,11.75,2.125,-9.1875,-0.02587891,0.1445313,0.08251953,-0.2104492,-0.2270508,-0.2163086
3307,8.375,5.4375,2.1875,-0.09912109,0.1757813,-0.001464844,-0.2104492,-0.2294922,-0.2163086
3311,0.875,-3.5,15.8125,-0.1767578,0.171875,-0.02832031,-0.2104492,-0.2280273,-0.2109375
3315,-1.75,-13.875,28.8125,-0.1381836,0.1254883,0.009765625,-0.2114258,-0.2270508,-0.2119141
3319,-4.8125,-19.375,43.125,-0.09912109,0.07470703,0.04443359,-0.2128906,-0.2246094,-0.2119141
3323,-2.4375,-30.4375,56.5625,-0.07226563,0.05517578,-0.009277344,-0.2172852,-0.2231445,-0.2109375
3327,-1.25,-45.875,61.9375,0.02441406,0.08642578,-0.04736328,-0.222168,-0.2182617,-0.2094727
3331,-3.375,-56.5625,67.8125,0.1557617,0.05126953,-0.009277344,-0.2270508,-0.2119141,-0.206543
3335,-4.0625,-51.8125,76.8125,0.3110352,0.01660156,-0.001464844,-0.2319336,-0.2094727,-0.2041016
3339,-11.5625,-41.6875,90.8125,0.3378906,0.02441406,-0.001464844,-0.2387695,-0.2006836,-0.199707
3343,-19.25,-38.6875,100.1875,0.3110352,-0.03369141,-0.04003906,-0.2460938,-0.1933594,-0.1958008
3347,-19.1875,-44.125,101.875,0.2724609,-0.1616211,-0.04736328,-0.2495117,-0.1845703,-0.1958008
3351,-14.375,-56.4375,108.9375,0.2685547,-0.2392578,-0.08984375,-0.2553711,-0.1757813,-0.1943359
3355,-15.8125,-65.0625,118.9375,0.3769531,-0.2392578,-0.05517578,-0.2626953,-0.1655273,-0.1875
3359,-15.125,-60.625,123.75,0.5161133,-0.324707,0.001953125,-0.2685547,-0.1582031,-0.1850586
3364,-18.875,-45.625,130.25,0.5512695,-0.3989258,-0.04736328,-0.2734375,-0.1455078,-0.1782227
3368,-24.3125,-52.75,145.5625,0.3769531,-0.4726563,-0.2055664,-0.2807617,-0.1318359,-0.1767578
3372,-25.9375,-83.5625,149.9375,0.4467773,-0.534668,-0.2246094,-0.2827148,-0.1196289,-0.1738281
3376,-16.9375,-107.6875,145.8125,0.6289063,-0.6396484,-0.1591797,-0.2900391,-0.1054688,-0.1645508
3380,-8.6875,-106.75,145.8125,0.9233398,-0.7329102,-0.05908203,-0.2983398,-0.08935547,-0.15625
3384,-12.0625,-73.4375,151.625,1.13623,-0.7250977,0.02099609,-0.3017578,-0.07958984,-0.1484375
3388,-25.0625,-29.3125,163.3125,1.031738,-0.8183594,-0.06298828,-0.3032227,-0.06298828,-0.144043
3392,-30.8125,-31.125,174.5,0.6479492,-0.8339844,-0.2978516,-0.3056641,-0.04589844,-0.144043
3396,-26.6875,-80,171.75,0.5087891,-0.9428711,-0.4399414,-0.3041992,-0.03173828,-0.1401367
3400,-8.375,-128.125,169.5,0.8730469,-1.016602,-0.4130859,-0.3081055,-0.015625,-0.1318359
3404,-9.5,-120.75,171,1.364746,-0.8647461,-0.2939453,-0.3081055,0.002441406,-0.1181641
3408,-31.625,-69.1875,175.8125,1.620605,-0.7641602,-0.1743164,-0.3081055,0.01513672,-0.112793
3412,-59.125,-27.4375,190.1875,1.302734,-0.8999023,-0.3012695,-0.3056641,0.03369141,-0.105957
3416,-73.4375,-44.5625,197.25,1.043457,-1.090332,-0.3901367,-0.3007813,0.05273438,-0.1035156
3420,-64.625,-86.875,189.6875,1.155762,-1.233887,-0.2705078,-0.2958984,0.06738281,-0.09765625
3424,-42.625,-104.8125,176.5625,1.504395,-1.214844,-0.112793,-0.2900391,0.08642578,-0.08691406
3428,-32.9375,-92.8125,165.3125,1.768066,-1.043945,0.01367188,-0.2866211,0.1025391,-0.07763672
3432,-38.5625,-57.0625,155.75,1.856934,-1.016602,0.07519531,-0.2792969,0.1123047,-0.07080078
3436,-37.625,-27.1875,147.375,1.709961,-1.15625,0.04443359,-0.2744141,0.125,-0.06396484
3440,-27,-16.4375,141.75,1.535645,-1.210938,0.001953125,-0.2675781,0.1376953,-0.0625
3444,-11.6875,-22,131.1875,1.403809,-1.167969,-0.1513672,-0.2602539,0.1435547,-0.05957031
3448,-0.875,-35.3125,116.6875,1.318359,-1.032227,-0.2631836,-0.2553711,0.1547852,-0.05712891
3452,3.3125,-51.3125,100.375,1.233398,-0.9580078,-0.3359375,-0.2485352,0.1625977,-0.05566406
3456,12.3125,-68.75,82.5625,1.206055,-0.9658203,-0.3359375,-0.2460938,0.1650391,-0.05175781
3460,17.1875,-70.125,73.25,1.349609,-0.8261719,-0.324707,-0.2412109,0.1738281,-0.05029297
3464,3.75,-52.5,71.3125,1.330078,-0.7368164,-0.2514648,-0.2363281,0.1772461,-0.04345703
3468,-5.5625,-37.125,69.5,1.202148,-0.8457031,-0.2128906,-0.234375,0.1801758,-0.04199219
3472,-2.8125,-31.375,65.25,1.070313,-0.9116211,-0.1669922,-0.2294922,0.1835938,-0.03955078
3476,-0.5,-33.9375,60.8125,0.9501953,-0.9116211,-0.1977539,-0.2255859,0.1899414,-0.03808594
3480,9.4375,-50.875,50.375,0.8842773,-0.9350586,-0.2324219,-0.2236328,0.1923828,-0.03515625
3484,20.1875,-70.5625,33.8125,0.9350586,-0.8686523,-0.2363281,-0.222168,0.1962891,-0.03271484
3488,23.6875,-72.9375,24.75,1.097656,-0.8613281,-0.1435547,-0.2211914,0.1972656,-0.02978516
3493,24.0625,-52.3125,27.625,1.213867,-0.8300781,-0.1015625,-0.21875,0.1972656,-0.02734375
3497,17.0625,-23.125,35.375,1.322266,-0.7485352,-0.0859375,-0.2163086,0.1987305,-0.02734375
3501,8,6.625,38.375,1.361328,-0.6630859,-0.1591797,-0.2138672,0.2026367,-0.02587891
3505,-0.125,18.875,26.6875,1.275879,-0.6669922,-0.2207031,-0.2114258,0.2026367,-0.02587891
3509,4.6875,16.0625,13.625,1.299316,-0.7172852,-0.2324219,-0.2089844,0.2060547,-0.02832031
3513,6,14.25,-0.4375,1.395996,-0.7016602,-0.1860352,-0.2089844,0.2050781,-0.02832031
3517,6.9375,23.9375,-11.5,1.543457,-0.7250977,-0.128418,-0.2104492,0.2060547,-0.02978516
3521,7.25,38.1875,-25.75,1.558594,-0.7016602,-0.1708984,-0.2128906,0.2060547,-0.03125
3525,7.875,42.6875,-40.6875,1.52002,-0.7290039,-0.2324219,-0.2128906,0.2026367,-0.03369141
3529,8.4375,43.5625,-56.8125,1.539551,-0.6899414,-0.2783203,-0.215332,0.2011719,-0.03808594
3533,5.8125,44.25,-72.625,1.52002,-0.7250977,-0.2861328,-0.2197266,0.1962891,-0.04199219
3537,2.75,46.5,-87.25,1.512207,-0.7172852,-0.2861328,-0.2246094,0.1914063,-0.04345703
3541,-1.4375,49.625,-98.875,1.461914,-0.8222656,-0.2783203,-0.2280273,0.1884766,-0.04736328
3545,0,51.0625,-109.5,1.454102,-0.8764648,-0.2705078,-0.2353516,0.1811523,-0.05029297
3549,-1.125,52.5625,-121.375,1.426758,-0.9194336,-0.2514648,-0.2412109,0.1738281,-0.05419922
3553,1.125,49.8125,-132.625,1.368652,-1.043945,-0.2475586,-0.2446289,0.1660156,-0.05566406
3557,8.8125,46,-141.8125,1.399902,-1.070801,-0.2167969,-0.2543945,0.1577148,-0.06103516
3561,9.625,53,-146.1875,1.46582,-1.047363,-0.2089844,-0.2578125,0.1459961,-0.06640625
3565,4.3125,71.0625,-149.75,1.523926,-1.055176,-0.2089844,-0.2651367,0.1376953,-0.06787109
3569,2.5,83.875,-158.375,1.361328,-1.125488,-0.2631836,-0.2709961,0.1264648,-0.07470703
3573,5.8125,81.875,-167.1875,1.241211,-1.179688,-0.3051758,-0.2783203,0.1113281,-0.08300781
3577,9.4375,74.875,-170.25,1.163574,-1.191406,-0.3051758,-0.2827148,0.1035156,-0.08544922
3581,11.4375,71.1875,-168.25,1.16748,-1.167969,-0.2670898,-0.2875977,0.08740234,-0.09375
3585,10.8125,72.4375,-164.9375,1.144043,-1.117676,-0.2783203,-0.2924805,0.07275391,-0.09765625
3589,13.9375,67.25,-167.4375,1.09375,-1.109863,-0.2705078,-0.2973633,0.0625,-0.1035156
3593,18,56.1875,-170.0625,1.124512,-1.020508,-0.2436523,-0.3007813,0.04638672,-0.1098633
3597,13.8125,55.9375,-170.0625,1.237305,-0.9467773,-0.1899414,-0.3041992,0.03027344,-0.1157227
3601,8.375,69,-169.875,1.237305,-0.9311523,-0.1552734,-0.3066406,0.01855469,-0.1196289
3605,7.6875,70.125,-168.625,1.066406,-0.9736328,-0.1630859,-0.3081055,0,-0.1279297
3609,14.75,61.1875,-165.6875,1.039551,-0.9892578,-0.1323242,-0.3105469,-0.01708984,-0.1303711
3613,18,61.4375,-166.0625,1.155762,-0.8686523,-0.08203125,-0.309082,-0.02832031,-0.1347656
3617,15.6875,76.625,-160.6875,1.179199,-0.8105469,-0.04394531,-0.3066406,-0.04589844,-0.1425781
3622,13.125,87.8125,-154.25,1.047363,-0.7016602,-0.1435547,-0.3032227,-0.06201172,-0.1469727
3626,14.625,75.3125,-157.75,0.9462891,-0.6787109,-0.1743164,-0.2983398,-0.07177734,-0.1538086
3630,13.875,66.1875,-163.0625,0.9775391,-0.6044922,-0.128418,-0.2973633,-0.09082031,-0.1616211
3634,12,69.125,-162.9375,0.9194336,-0.6630859,-0.01318359,-0.2900391,-0.1069336,-0.1645508
3638,12.125,81.3125,-157.9375,0.8613281,-0.6201172,0.005859375,-0.2866211,-0.1166992,-0.1699219
3642,12.125,89.4375,-150.3125,0.644043,-0.6630859,-0.009277344,-0.2792969,-0.1342773,-0.1767578
3646,16.5,93.3125,-139.5,0.5395508,-0.5893555,-0.03222656,-0.2709961,-0.1479492,-0.1835938
3650,19.4375,90.5,-127.8125,0.3652344,-0.4570313,-0.05908203,-0.2651367,-0.1567383,-0.1889648
3654,19.9375,75.875,-120.75,0.2412109,-0.3637695,-0.04736328,-0.2578125,-0.1694336,-0.1928711
3658,25.0625,61.6875,-111.75,0.2373047,-0.3325195,0.001953125,-0.2485352,-0.1791992,-0.2011719
3662,26.0625,59.625,-100.1875,0.2915039,-0.1499023,0.04443359,-0.2436523,-0.1879883,-0.2055664
3666,20.625,61.3125,-91.9375,0.2451172,-0.1459961,0.05566406,-0.234375,-0.1982422,-0.206543
3670,22.125,55.625,-82.9375,0.190918,-0.1113281,0.05175781,-0.2280273,-0.2055664,-0.2094727
3674,26.5,51.3125,-75,0.1870117,-0.01416016,0.05566406,-0.222168,-0.2119141,-0.2119141
3678,21.4375,46.6875,-69.1875,0.125,0.1293945,0.03271484,-0.215332,-0.2192383,-0.2177734
3682,18.4375,38,-64.0625,0.06689453,0.1020508,0.03271484,-0.2089844,-0.2270508,-0.2177734
3686,17.3125,31,-55.3125,0.06689453,0.07861328,0.08251953,-0.2055664,-0.2294922,-0.2177734
3690,18.0625,31.875,-44.8125,0.03955078,0.1523438,0.08642578,-0.2021484,-0.2329102,-0.2202148
3694,15.125,27.25,-37.75,-0.03710938,0.1835938,0.09814453,-0.1962891,-0.2382813,-0.2216797
3698,17.1875,21.75,-32,-0.1186523,0.1953125,0.04052734,-0.1948242,-0.2392578,-0.2216797
3702,14.0625,9.5,-25.25,-0.2231445,0.2148438,-0.001464844,-0.1899414,-0.2431641,-0.21875
3706,16.0625,-12.3125,-13.1875,-0.2929688,0.140625,-0.04736328,-0.1899414,-0.2441406,-0.2202148
3710,16,-29.5,5,-0.1499023,0.21875,0.005859375,-0.1914063,-0.2456055,-0.21875
3714,9,-23.4375,17.875,-0.02978516,0.284668,0.04785156,-0.1923828,-0.2470703,-0.2177734
3718,0.625,-21.125,27.1875,-0.1533203,0.2416992,-0.005371094,-0.1962891,-0.2456055,-0.2148438
3722,-0.375,-35.125,40.9375,-0.1845703,0.09814453,-0.05126953,-0.199707,-0.2456055,-0.2148438
3726,-1.75,-46.4375,57.1875,0.05126953,0.121582,-0.01318359,-0.2045898,-0.2407227,-0.2109375
3730,-8.5625,-36.4375,71.0625,0.2104492,0.140625,0.05175781,-0.2114258,-0.2368164,-0.2080078
3734,-18.3125,-23.25,79.625,0.2529297,0.1137695,0.1132813,-0.2128906,-0.2319336,-0.206543
3738,-16.3125,-10.0625,88.4375,0.2758789,0.0009765625,0.1020508,-0.2197266,-0.2246094,-0.2080078
3742,-22.9375,0,103.625,0.2568359,0.1098633,0.01708984,-0.2255859,-0.2167969,-0.2080078
3746,-38.6875,0.875,113.875,0.2333984,0.09814453,-0.05517578,-0.2280273,-0.2094727,-0.2080078
3751,-41.5,-16.3125,116,0.1289063,-0.1347656,-0.05517578,-0.234375,-0.1992188,-0.2094727
3755,-37.1875,-38.5625,120.625,0.1791992,-0.2392578,-0.05517578,-0.2387695,-0.1870117,-0.2109375
3759,-31.5,-63.625,127.5,0.3496094,-0.3481445,0.009765625,-0.2446289,-0.1767578,-0.206543
3763,-21.0625,-69.9375,128.625,0.6054688,-0.3286133,0.04443359,-0.2519531,-0.1655273,-0.2041016
3767,-23.625,-60.375,129.375,0.7373047,-0.2431641,0.05957031,-0.2602539,-0.1533203,-0.1987305
3771,-30.1875,-52,133.8125,0.6713867,-0.3754883,-0.01318359,-0.2651367,-0.1445313,-0.1958008
3775,-32.3125,-56.9375,137.5,0.659668,-0.4960938,-0.05908203,-0.2685547,-0.1308594,-0.1928711
3779,-24.8125,-74.5625,145.1875,0.6870117,-0.6474609,-0.109375,-0.2768555,-0.1157227,-0.1865234
3783,-20.875,-84.3125,142.8125,0.8300781,-0.503418,-0.03222656,-0.2807617,-0.1069336,-0.1821289
3787,-18.875,-88.4375,141.125,0.8261719,-0.6201172,-0.09375,-0.2875977,-0.09082031,-0.1738281
3791,-16.0625,-84.8125,147.6875,0.9311523,-0.6357422,-0.09375,-0.2949219,-0.07568359,-0.1660156
3795,-23.625,-76.9375,155.875,1.035645,-0.6083984,-0.1435547,-0.2958984,-0.06591797,-0.1616211
3799,-32,-80,160.6875,0.9697266,-0.6708984,-0.2363281,-0.3007813,-0.04931641,-0.1577148
3803,-32.375,-91.8125,153.125,1.027832,-0.8105469,-0.1513672,-0.3017578,-0.03076172,-0.1469727
3807,-24.25,-92.4375,148.375,1.101563,-0.8647461,-0.109375,-0.3007813,-0.02050781,-0.144043
3811,-23.3125,-82.875,157,1.179199,-0.9311523,-0.02050781,-0.3056641,-0.003417969,-0.1347656
3815,-23.9375,-66.4375,163.3125,1.147949,-0.9077148,-0.1054688,-0.3017578,0.01123047,-0.1279297
3819,-17.3125,-81.5625,155.0625,0.9580078,-1.024414,-0.2631836,-0.3041992,0.02392578,-0.1235352
3823,-2.625,-106.3125,146.125,1.066406,-1.043945,-0.3632813,-0.2998047,0.03857422,-0.1142578
3827,-0.375,-109.4375,151.4375,1.368652,-1.008789,-0.324707,-0.2983398,0.05273438,-0.1074219
3831,-11.5625,-87.3125,158.625,1.554688,-0.8183594,-0.3129883,-0.2973633,0.0625,-0.09912109
3835,-35.25,-59.3125,161.0625,1.543457,-0.7988281,-0.2167969,-0.2924805,0.07763672,-0.08984375
3839,-40.0625,-52.0625,155.4375,1.333984,-1.000977,-0.2397461,-0.2851563,0.09228516,-0.08447266
3843,-28.9375,-74.25,144.375,1.237305,-1.040039,-0.1938477,-0.2851563,0.1025391,-0.07861328
3847,-13.1875,-97.625,129.5,1.361328,-1.098145,-0.1743164,-0.2783203,0.1137695,-0.07177734
3851,-0.8125,-95.875,117.9375,1.570313,-1.043945,-0.1474609,-0.2724609,0.125,-0.06396484
3855,-4.5,-73.3125,109.375,1.585938,-0.9311523,-0.1669922,-0.2709961,0.1298828,-0.05859375
3859,-8.6875,-54.125,105.9375,1.364746,-0.9697266,-0.1860352,-0.2651367,0.1425781,-0.05419922
3863,-9.8125,-52.1875,105.875,1.229492,-0.9619141,-0.2631836,-0.2602539,0.1489258,-0.04882813
3867,-12.3125,-54.875,105.6875,1.206055,-1.004883,-0.2128906,-0.2568359,0.1523438,-0.04492188
3871,-8.125,-55.0625,98.875,1.186523,-0.9814453,-0.1669922,-0.2509766,0.1611328,-0.04199219
3875,2.0625,-54.6875,81.4375,1.101563,-0.9970703,-0.1782227,-0.2446289,0.1699219,-0.03662109
3880,11.9375,-61.6875,69.125,0.9658203,-1.012695,-0.2207031,-0.2436523,0.1713867,-0.03271484
3884,17.8125,-64.625,65.125,0.9853516,-0.9467773,-0.2631836,-0.237793,0.1772461,-0.02978516
3888,15.8125,-59.1875,65.125,0.9814453,-0.8999023,-0.2783203,-0.234375,0.1811523,-0.02832031
3892,12.3125,-51.375,68.375,0.9658203,-0.8920898,-0.2744141,-0.2319336,0.1826172,-0.02587891
3896,11.1875,-40.1875,74.625,1.047363,-0.8535156,-0.2436523,-0.2270508,0.1884766,-0.02148438
3900,5.0625,-26.25,79.0625,1.140137,-0.7641602,-0.2861328,-0.222168,0.1938477,-0.01904297
3904,-2.3125,-18.6875,71.875,1.182617,-0.7407227,-0.2744141,-0.2197266,0.1987305,-0.02050781
3908,-0.1875,-16.3125,54.875,1.248535,-0.7485352,-0.2592773,-0.2138672,0.2011719,-0.01904297
3912,0.375,-9.375,39.75,1.299316,-0.7719727,-0.1977539,-0.2104492,0.2075195,-0.01611328
3916,6.125,-0.25,30.9375,1.364746,-0.7563477,-0.1899414,-0.2080078,0.2060547,-0.01611328
3920,6.125,8.1875,20.75,1.395996,-0.6669922,-0.2670898,-0.2080078,0.2084961,-0.01611328
3924,4.25,11.3125,12.125,1.446289,-0.6821289,-0.2861328,-0.2055664,0.2084961,-0.01757813
3928,4.0625,18.6875,2,1.5625,-0.6630859,-0.2978516,-0.2045898,0.2099609,-0.01904297
3932,0.6875,29.625,-11.0625,1.663574,-0.6318359,-0.2783203,-0.2055664,0.2114258,-0.02148438
3936,-2.8125,45.75,-29.6875,1.698242,-0.6474609,-0.2475586,-0.2080078,0.2099609,-0.02294922
3940,-3.8125,59.9375,-46.25,1.647949,-0.6860352,-0.309082,-0.2089844,0.2075195,-0.02587891
3944,-7.9375,66.9375,-58,1.574219,-0.7016602,-0.3208008,-0.2114258,0.2050781,-0.02832031
3948,-9,70.125,-69.625,1.5625,-0.7949219,-0.3129883,-0.2163086,0.2001953,-0.03271484
3952,-7.625,76.4375,-82.625,1.574219,-0.8496094,-0.309082,-0.2172852,0.1948242,-0.03369141
3956,-8.25,78.75,-92.875,1.539551,-0.9272461,-0.3208008,-0.2246094,0.1914063,-0.03808594
3960,-5.9375,80.8125,-107.875,1.535645,-1.032227,-0.2939453,-0.2280273,0.1850586,-0.04638672
3964,-0.4375,81,-121.625,1.527832,-1.094238,-0.3359375,-0.234375,0.1787109,-0.04736328
3968,-1.3125,77.75,-136.1875,1.477539,-1.098145,-0.3208008,-0.2412109,0.1699219,-0.05273438
3972,3,75.125,-149.4375,1.458008,-1.199219,-0.3129883,-0.2470703,0.1586914,-0.05859375
3976,7.25,72.5625,-159.25,1.395996,-1.222656,-0.3012695,-0.2553711,0.1523438,-0.06396484
3980,10.5,68.125,-159.6875,1.426758,-1.272949,-0.3208008,-0.2626953,0.1411133,-0.06933594
3984,9.25,72.125,-164.9375,1.535645,-1.148438,-0.3051758,-0.2709961,0.1274414,-0.07470703
3988,7.3125,81.8125,-174.375,1.527832,-1.245605,-0.2822266,-0.2744141,0.1201172,-0.08007813
3992,9.75,92.75,-182.0625,1.458008,-1.26123,-0.2900391,-0.2841797,0.1035156,-0.08691406
3996,11.0625,97.0625,-187.1875,1.341797,-1.249512,-0.2978516,-0.2875977,0.08740234,-0.09667969
4000,14.3125,97.875,-192.5625,1.248535,-1.272949,-0.2861328,-0.293457,0.07617188,-0.1020508
4004,18.125,97.3125,-195.6875,1.159668,-1.265137,-0.3325195,-0.2958984,0.05859375,-0.1098633
4009,18.4375,92.375,-197.25,1.074219,-1.207031,-0.34375,-0.3007813,0.03857422,-0.1210938
4013,20.3125,87.8125,-197.5625,0.9931641,-1.222656,-0.3208008,-0.3007813,0.02490234,-0.1264648
4017,23.75,85.375,-191.875,0.9697266,-1.160156,-0.2670898,-0.3041992,0.006347656,-0.1347656
4021,20.5625,89.875,-186.1875,0.9541016,-1.040039,-0.2363281,-0.3017578,-0.01464844,-0.1425781
4025,20.5,86.3125,-183.25,0.8339844,-1.043945,-0.2207031,-0.3032227,-0.02832031,-0.1469727
4029,32.8125,76,-184.9375,0.8222656,-0.9775391,-0.2167969,-0.3007813,-0.046875,-0.1547852
4033,37.3125,66.8125,-189.0625,0.8417969,-0.7988281,-0.1669922,-0.2973633,-0.06689453,-0.1606445
4037,38.5625,70.9375,-189.3125,0.8842773,-0.7094727,-0.1474609,-0.2949219,-0.08203125,-0.1645508
4041,30,81.25,-188.375,0.7719727,-0.5463867,-0.1552734,-0.2900391,-0.1020508,-0.1713867
4045,19.75,84.75,-179.5,0.5820313,-0.5698242,-0.1899414,-0.2817383,-0.1206055,-0.1796875
4049,14.9375,75.0625,-158.0625,0.4077148,-0.581543,-0.1938477,-0.2783203,-0.1318359,-0.1821289
4053,13.25,58.6875,-141.5,0.3808594,-0.4960938,-0.1513672,-0.2700195,-0.1479492,-0.1889648
4057,10.25,49.0625,-135.8125,0.4155273,-0.355957,-0.04394531,-0.2626953,-0.1621094,-0.1928711
4061,11,45.3125,-134.75,0.3691406,-0.3481445,0.02880859,-0.2553711,-0.1694336,-0.1943359
4065,11.8125,41.5625,-128.5625,0.3032227,-0.3325195,0.05957031,-0.2495117,-0.1821289,-0.199707
4069,11.375,41.5,-117.5625,0.2797852,-0.2939453,0.1020508,-0.2426758,-0.1918945,-0.199707
4073,11.5,49.875,-105.125,0.2255859,-0.2275391,0.1020508,-0.237793,-0.2006836,-0.2026367
4077,9.6875,49.3125,-91.6875,-0.02197266,-0.1577148,0.06347656,-0.2280273,-0.2080078,-0.2080078
4081,13.25,33.375,-76.8125,-0.1147461,-0.1347656,0.03662109,-0.2246094,-0.2158203,-0.2094727
4085,14.875,19.8125,-63.1875,-0.1225586,-0.02587891,0.03662109,-0.21875,-0.2207031,-0.2094727
4089,12.125,10.5625,-51.6875,-0.09912109,0.02050781,0.05175781,-0.2163086,-0.2255859,-0.2109375
4093,10.9375,0.6875,-41.6875,-0.1069336,0.03222656,0.105957,-0.2128906,-0.2294922,-0.2119141
4097,20.125,-6.4375,-41.1875,-0.1303711,0.05517578,0.09423828,-0.2114258,-0.2304688,-0.2119141
4101,23.5625,-16,-33.8125,-0.1459961,0.105957,0.04785156,-0.2104492,-0.2358398,-0.2094727
4105,19.0625,-18.5,-14.8125,-0.01806641,0.140625,0.06347656,-0.2089844,-0.2392578,-0.206543
4109,11.625,-10.625,-1.5,0.0009765625,0.2495117,0.09033203,-0.2089844,-0.2407227,-0.206543
4113,7.875,-5.75,5.25,-0.08789063,0.2299805,0.02880859,-0.2104492,-0.2407227,-0.2041016
4117,3.875,-17.0625,17.5,-0.2270508,0.1914063,-0.04394531,-0.2104492,-0.2407227,-0.2026367
4121,4.875,-32.3125,30.0625,-0.1499023,0.1367188,-0.04394531,-0.2128906,-0.2392578,-0.2026367
4125,2.75,-42.3125,43.5,-0.05664063,0.15625,-0.02441406,-0.215332,-0.2368164,-0.199707
4129,-0.3125,-47.5,56.375,0.06298828,0.08251953,0.01367188,-0.2211914,-0.234375,-0.1958008
4133,0.9375,-47.4375,69.5,0.1987305,0.06298828,0.03662109,-0.2255859,-0.2319336,-0.1928711
4138,-0.625,-42.4375,77,0.3149414,0.1254883,0.05566406,-0.2294922,-0.2255859,-0.1918945
4142,-3.875,-32.75,80.5,0.3535156,0.09423828,0.05566406,-0.2363281,-0.2182617,-0.1889648
4146,-9.25,-27.1875,87.1875,0.2758789,0.04394531,0.009765625,-0.2412109,-0.2143555,-0.1865234
4150,-12.4375,-32.6875,94,0.2333984,-0.1655273,-0.009277344,-0.2470703,-0.2045898,-0.1835938
4154,-2.5,-51.9375,105.75,0.175293,-0.2163086,-0.07080078,-0.2543945,-0.1967773,-0.1806641
4158,2.625,-73.75,109.9375,0.3652344,-0.2163086,-0.02441406,-0.2578125,-0.1904297,-0.1767578
4162,8.9375,-73,112.125,0.6171875,-0.2202148,0.03662109,-0.2661133,-0.1806641,-0.1713867
4166,3.8125,-42.75,115.1875,0.7797852,-0.2241211,0.07910156,-0.2734375,-0.1704102,-0.1630859
4170,-7.1875,-16.625,130.5625,0.5512695,-0.3017578,-0.1166992,-0.2783203,-0.1621094,-0.1630859
4174,-12.75,-40.5625,145.1875,0.3574219,-0.3793945,-0.2514648,-0.2841797,-0.1494141,-0.1606445
4178,-5.3125,-80.6875,145,0.4814453,-0.5,-0.2397461,-0.2890625,-0.1342773,-0.1591797
4182,4.3125,-94.8125,143.4375,0.8574219,-0.5541992,-0.05126953,-0.293457,-0.1254883,-0.1523438
4186,5.125,-66.625,147.0625,1.097656,-0.534668,0.03662109,-0.3007813,-0.1108398,-0.144043
4190,-5.75,-29.625,157.625,1.035645,-0.565918,-0.06298828,-0.3017578,-0.09570313,-0.1386719
4194,-9.9375,-41.125,167.1875,0.7451172,-0.5541992,-0.2553711,-0.3041992,-0.08447266,-0.1386719
4198,-4.5625,-76.9375,157.625,0.7602539,-0.7641602,-0.3208008,-0.309082,-0.06689453,-0.1347656
4202,8.75,-101.875,159.875,1.082031,-0.8066406,-0.2207031,-0.3125,-0.05078125,-0.125
4206,8.25,-80.8125,166.5,1.458008,-0.6977539,-0.07470703,-0.3125,-0.03808594,-0.1181641
4210,-8.375,-22.875,169.375,1.605469,-0.6513672,-0.02441406,-0.3139648,-0.02197266,-0.112793
4214,-21.0625,-0.0625,178.125,1.078125,-0.6938477,-0.2939453,-0.3125,-0.003417969,-0.112793
4218,-23.1875,-40.5,168.9375,0.8457031,-0.7949219,-0.4516602,-0.3105469,0.007324219,-0.1098633
4222,-7.625,-97.9375,148.3125,0.9423828,-1.05127,-0.4091797,-0.3081055,0.02636719,-0.1044922
4226,8.75,-109.5,142.25,1.380371,-0.9272461,-0.1821289,-0.3041992,0.03857422,-0.09667969
4230,1.5,-71.625,147.875,1.566406,-0.8496094,-0.07861328,-0.3032227,0.04882813,-0.09082031
4234,-10.875,-40.375,158.875,1.442383,-0.8417969,-0.2128906,-0.2998047,0.0625,-0.08447266
4238,-17.375,-40.625,155,1.287598,-0.9658203,-0.3208008,-0.293457,0.07763672,-0.08154297
4242,-8.1875,-59.5625,140.0625,1.217773,-1.086426,-0.3325195,-0.2915039,0.08642578,-0.07861328
4246,4.625,-73.6875,130.5625,1.314453,-1.086426,-0.2397461,-0.2875977,0.09863281,-0.07177734
4250,8.6875,-63.375,126.625,1.469727,-0.9194336,-0.2436523,-0.2827148,0.1088867,-0.06640625
4254,-3.25,-39.125,129,1.477539,-0.8417969,-0.2475586,-0.2768555,0.1162109,-0.0625
4258,-15.3125,-23.8125,130,1.330078,-0.8881836,-0.3168945,-0.2724609,0.1289063,-0.05957031
4262,-14.125,-36,122.3125,1.140137,-1.004883,-0.3823242,-0.2675781,0.1376953,-0.05712891
4267,-4.1875,-63.5,107.5,1.147949,-1.024414,-0.3129883,-0.2626953,0.1425781,-0.05273438
4271,7.8125,-74.375,94.125,1.26416,-1.012695,-0.2246094,-0.2568359,0.1523438,-0.04882813
4275,14.5625,-69.1875,86.1875,1.318359,-0.9619141,-0.1782227,-0.2519531,0.1577148,-0.04492188
4279,15.625,-48.6875,88.375,1.461914,-0.8105469,-0.2016602,-0.2485352,0.1635742,-0.04052734
4283,0.4375,-14.3125,85.6875,1.430664,-0.6591797,-0.2128906,-0.2446289,0.1674805,-0.03955078
4287,-12.375,7.25,83.125,1.213867,-0.7133789,-0.2900391,-0.2387695,0.1738281,-0.03808594
4291,-17.3125,7.6875,78,1.043457,-0.7753906,-0.3012695,-0.2353516,0.1811523,-0.03808594
4295,-16.4375,-8.375,69.9375,0.9077148,-0.8144531,-0.3208008,-0.2294922,0.1835938,-0.03515625
4299,-9.8125,-32.6875,60.4375,0.9389648,-0.8881836,-0.2631836,-0.2255859,0.1899414,-0.03515625
4303,-1.1875,-42.5625,50.6875,1.117188,-0.8261719,-0.1630859,-0.2246094,0.1914063,-0.03369141
4307,3,-37.9375,40.9375,1.241211,-0.7719727,-0.1245117,-0.2211914,0.1938477,-0.03125
4311,3.0625,-27.9375,34.6875,1.357422,-0.6708984,-0.1435547,-0.2197266,0.1972656,-0.02978516
4315,-4.0625,-13.4375,22.6875,1.419434,-0.6005859,-0.1401367,-0.2172852,0.1987305,-0.02832031
4319,-8.3125,4.25,8.8125,1.458008,-0.6357422,-0.1323242,-0.2163086,0.2001953,-0.02441406
4323,-7.875,20.1875,-4.625,1.399902,-0.6708984,-0.1362305,-0.215332,0.2036133,-0.02587891
4327,-7,28.3125,-11.3125,1.318359,-0.6977539,-0.1743164,-0.2163086,0.2011719,-0.02734375
4331,-4.125,26.1875,-16.5,1.26416,-0.7446289,-0.2016602,-0.215332,0.1987305,-0.02978516
4335,1,21.625,-25.625,1.345703,-0.7290039,-0.2016602,-0.21875,0.1987305,-0.02978516
4339,5.25,19.75,-37.8125,1.473633,-0.6938477,-0.2167969,-0.21875,0.1962891,-0.02978516
4343,4.5625,22.625,-56,1.546875,-0.6123047,-0.2475586,-0.2211914,0.1938477,-0.03369141
4347,2.5625,24.9375,-74.5,1.539551,-0.6787109,-0.2553711,-0.2255859,0.1899414,-0.03515625
4351,5.875,22.8125,-86.9375,1.550781,-0.7602539,-0.2631836,-0.2294922,0.1860352,-0.03369141
4355,3.875,27.6875,-98.5,1.663574,-0.7211914,-0.2553711,-0.2353516,0.1772461,-0.04052734
4359,-1.875,41.3125,-108.75,1.698242,-0.7832031,-0.2436523,-0.2412109,0.1723633,-0.04052734
4363,-6.1875,54.5625,-117.375,1.628418,-0.8725586,-0.2553711,-0.2470703,0.1674805,-0.04345703
4367,-4,57.25,-128.375,1.550781,-0.9619141,-0.2744141,-0.2519531,0.15625,-0.04736328
4371,-0.75,56.625,-137,1.558594,-1.016602,-0.2783203,-0.2578125,0.1459961,-0.05029297
4375,-1.0625,61.8125,-146.375,1.574219,-1.040039,-0.2514648,-0.2636719,0.1411133,-0.05273438
4379,0.1875,70.4375,-153.8125,1.558594,-1.105957,-0.2592773,-0.2724609,0.1313477,-0.05859375
4383,2.0625,78.1875,-159.3125,1.512207,-1.136719,-0.2744141,-0.2792969,0.1176758,-0.06396484
4387,2.6875,84.75,-163.9375,1.504395,-1.129395,-0.2631836,-0.2827148,0.1074219,-0.06787109
4391,1.9375,96.5,-168.9375,1.477539,-1.144531,-0.2514648,-0.2875977,0.09375,-0.07763672
4396,3.1875,103.1875,-171.875,1.345703,-1.160156,-0.3129883,-0.2949219,0.07861328,-0.08691406
4400,6.125,97.0625,-173.8125,1.241211,-1.195313,-0.3168945,-0.2973633,0.06884766,-0.09228516
4404,9.9375,91.5,-172.625,1.29541,-1.171875,-0.2822266,-0.2998047,0.05126953,-0.1020508
4408,12.1875,97.25,-173.1875,1.333984,-1.175781,-0.2089844,-0.3041992,0.03369141,-0.1088867
4412,14.125,108.75,-174.125,1.271973,-1.102051,-0.2167969,-0.3066406,0.02246094,-0.1157227
4416,16.5,109.875,-174.3125,1.132324,-1.08252,-0.2363281,-0.3056641,0.004882813,-0.1264648
4420,20.5625,102.625,-171.9375,1.055176,-1.043945,-0.2631836,-0.3066406,-0.01318359,-0.137207
4424,24.3125,97.3125,-170.4375,1.059082,-0.9580078,-0.2246094,-0.3066406,-0.02685547,-0.1401367
4428,23.3125,95.8125,-170.125,0.9970703,-0.8842773,-0.2055664,-0.3032227,-0.04443359,-0.1508789
4432,25.5625,84.375,-168.8125,0.8803711,-0.8686523,-0.1743164,-0.2998047,-0.06201172,-0.1606445
4436,30.375,75.75,-166.3125,0.9423828,-0.7753906,-0.1362305,-0.2949219,-0.07568359,-0.1645508
4440,25.9375,80.375,-166.25,0.9619141,-0.6748047,-0.09375,-0.2915039,-0.09179688,-0.168457
4444,23.5,87.75,-160.6875,0.8920898,-0.6669922,-0.07080078,-0.2841797,-0.109375,-0.1782227
4448,19.6875,95.5,-154.0625,0.7993164,-0.6474609,-0.03222656,-0.2783203,-0.1196289,-0.1806641
4452,19.125,101.5625,-151.125,0.6635742,-0.6005859,-0.02832031,-0.2724609,-0.1357422,-0.1904297
4456,21.6875,100.75,-145.8125,0.4658203,-0.6162109,-0.02050781,-0.2617188,-0.1533203,-0.1987305
4460,23.6875,100.4375,-136.125,0.3959961,-0.550293,0.01367188,-0.2553711,-0.1591797,-0.2041016
4464,24.8125,104.75,-124.875,0.2724609,-0.4882813,0.01367188,-0.2460938,-0.1733398,-0.2109375
4468,26.3125,102.875,-113.6875,0.09033203,-0.3989258,-0.005371094,-0.234375,-0.1855469,-0.21875
4472,32.1875,92.4375,-101.4375,-0.02978516,-0.3173828,-0.04736328,-0.2270508,-0.1933594,-0.2216797
4476,34.625,77.6875,-91.5,-0.1342773,-0.2202148,-0.07861328,-0.2163086,-0.2016602,-0.2270508
4480,36.625,59.375,-81.1875,-0.2041016,-0.1113281,-0.0859375,-0.2080078,-0.2104492,-0.2299805
4484,36.5,39.5625,-71.625,-0.262207,0.0009765625,-0.07861328,-0.2021484,-0.2182617,-0.2324219
4488,34.8125,21.5,-61.4375,-0.262207,0.07080078,-0.1054688,-0.1972656,-0.2231445,-0.2338867
4492,28.75,9.375,-47.3125,-0.2001953,0.1176758,-0.04736328,-0.1914063,-0.2280273,-0.2324219
4496,20,7.8125,-29.8125,-0.1303711,0.203125,-0.04003906,-0.1923828,-0.2319336,-0.2324219
4500,8.8125,7.25,-16.8125,-0.1499023,0.237793,-0.02050781,-0.1889648,-0.234375,-0.230957
4504,4.5,-0.625,-6.625,-0.1728516,0.1757813,0.009765625,-0.1889648,-0.2368164,-0.230957
4508,7.9375,-11,2.9375,-0.09912109,0.1333008,0.05957031,-0.1899414,-0.2358398,-0.230957
4512,8.5,-15.25,9.875,0.0009765625,0.1601563,0.1171875,-0.1889648,-0.2368164,-0.2299805
4516,8.0625,-12.125,19.5,0.05126953,0.1484375,0.1289063,-0.1914063,-0.2358398,-0.2285156
4520,7.625,-14.0625,29.5625,0.01660156,0.2070313,0.04443359,-0.1923828,-0.234375,-0.2270508
4525,3.375,-22.6875,36.9375,0.03564453,0.2226563,0.02099609,-0.1948242,-0.234375,-0.2255859
4529,1.1875,-29.375,46.5625,0.09765625,0.1679688,0.03271484,-0.1982422,-0.2319336,-0.2231445
4533,0.1875,-31.125,59.125,0.1791992,0.15625,0.03271484,-0.203125,-0.2280273,-0.2216797
4537,-1.6875,-37,66.6875,0.2026367,0.2070313,-0.02050781,-0.2080078,-0.2246094,-0.2202148
4541,-7.125,-50.6875,68.6875,0.2607422,0.203125,-0.02832031,-0.2138672,-0.2192383,-0.2148438
4545,-9.375,-59.5625,70.75,0.3886719,0.09033203,0.04443359,-0.2172852,-0.2143555,-0.2148438
4549,-10.625,-51.875,74.875,0.5200195,0.03613281,0.1132813,-0.2255859,-0.2119141,-0.2094727
4553,-12.875,-39.8125,82.9375,0.4892578,-0.04541016,0.1289063,-0.2319336,-0.2016602,-0.206543
4557,-13.3125,-41.5625,88.9375,0.4194336,-0.04882813,0.06738281,-0.2353516,-0.1992188,-0.2094727
4561,-9.75,-53.125,89.625,0.3999023,-0.1850586,0.05175781,-0.2426758,-0.1879883,-0.2055664
4565,-0.6875,-67.75,96.75,0.4467773,-0.2275391,0.02880859,-0.2485352,-0.1806641,-0.1972656
4569,4.625,-72.0625,103.375,0.6479492,-0.1967773,0.05566406,-0.2543945,-0.1767578,-0.1943359
4573,2.25,-62.5,106.3125,0.7680664,-0.08789063,0.01367188,-0.2602539,-0.1669922,-0.1889648
4577,-13.5,-46.375,107.5,0.7490234,-0.1655273,-0.02050781,-0.2675781,-0.1557617,-0.1850586
4581,-21.125,-45.75,116,0.5629883,-0.3637695,-0.1054688,-0.2700195,-0.1508789,-0.1806641
4585,-16.875,-69.875,127.25,0.5395508,-0.4492188,-0.1206055,-0.2758789,-0.1357422,-0.1782227
4589,-9.25,-92.3125,136.6875,0.7529297,-0.4335938,-0.112793,-0.2827148,-0.1245117,-0.1713867
4593,-11.875,-85.25,135.625,1.027832,-0.3442383,-0.05126953,-0.2875977,-0.1132813,-0.1660156
4597,-28.75,-54.125,136.4375,1.117188,-0.4067383,0.03271484,-0.2924805,-0.09814453,-0.1606445
4601,-42,-18.8125,139.5,0.9311523,-0.6474609,0.001953125,-0.2958984,-0.08447266,-0.1577148
4605,-37.8125,-36.9375,156.9375,0.5200195,-0.7910156,-0.2128906,-0.2973633,-0.07324219,-0.15625
4609,-29.125,-85,164.25,0.6674805,-0.7792969,-0.2089844,-0.3007813,-0.05810547,-0.1523438
4613,-19.625,-107,158.4375,1.016113,-0.8496094,-0.07861328,-0.3017578,-0.03955078,-0.144043
4617,-11.8125,-91.875,157.375,1.337891,-0.8803711,0.03271484,-0.3041992,-0.02685547,-0.1357422
4621,-14.6875,-58.4375,158.1875,1.364746,-0.8105469,-0.04394531,-0.3066406,-0.01074219,-0.1303711
4625,-23,-53.6875,159.875,1.159668,-0.8066406,-0.1513672,-0.3066406,0.00390625,-0.1235352
4629,-19.4375,-74.4375,151.25,1.117188,-0.9541016,-0.1860352,-0.3041992,0.01367188,-0.1225586
4633,-2.8125,-89.9375,145.375,1.275879,-1.020508,-0.1206055,-0.3032227,0.03027344,-0.1157227
4637,-1.125,-76.9375,145.375,1.43457,-0.8803711,-0.08203125,-0.3017578,0.04394531,-0.105957
4641,-6.25,-57.5625,148.5625,1.407715,-0.8959961,-0.1435547,-0.2973633,0.05371094,-0.1020508
4645,-8.5625,-54.125,149.625,1.322266,-0.8647461,-0.2055664,-0.2949219,0.06738281,-0.09667969
4649,-9.8125,-58.5625,141.8125,1.283691,-0.8842773,-0.2475586,-0.2915039,0.08007813,-0.09228516
4654,-6.1875,-65.6875,134.125,1.314453,-0.9814453,-0.2246094,-0.2875977,0.08740234,-0.08691406
4658,-4.8125,-55.8125,133.5,1.454102,-0.9155273,-0.1401367,-0.2817383,0.1000977,-0.08300781
4662,-12,-29.875,128.125,1.446289,-0.8183594,-0.1245117,-0.2783203,0.1113281,-0.07861328
4666,-18.5,-15.6875,117.8125,1.144043,-0.8686523,-0.2285156,-0.2758789,0.1176758,-0.07763672
4670,-15.125,-39.25,114.3125,0.8652344,-0.9970703,-0.34375,-0.2700195,0.1274414,-0.07324219
4674,-5,-80.625,114.125,0.8959961,-1.016602,-0.3632813,-0.2636719,0.1376953,-0.06787109
4678,5.0625,-104.1875,109,1.22168,-0.9233398,-0.2861328,-0.2602539,0.1435547,-0.0625
4682,4.5625,-89.6875,100.3125,1.504395,-0.8066406,-0.1708984,-0.2553711,0.1513672,-0.05712891
4686,-2.0625,-57.75,92.25,1.558594,-0.7602539,-0.112793,-0.2519531,0.1601563,-0.04882813
4690,-13.4375,-27.875,83.125,1.39209,-0.7832031,-0.1206055,-0.2485352,0.1635742,-0.04736328
4694,-14,-21.0625,78.3125,1.16748,-0.9194336,-0.1860352,-0.2446289,0.1689453,-0.04345703
4698,-8.1875,-31.3125,70.375,1.059082,-0.9389648,-0.1977539,-0.2387695,0.1748047,-0.04199219
4702,2.5625,-47.4375,64.0625,1.09375,-0.9506836,-0.1860352,-0.2363281,0.1787109,-0.03955078
4706,9.0625,-48.6875,56.625,1.244629,-0.8920898,-0.1323242,-0.2329102,0.1850586,-0.03662109
4710,10.0625,-33.8125,52.625,1.361328,-0.8417969,-0.0859375,-0.2304688,0.1875,-0.03369141
4714,8.375,-11.3125,45.6875,1.384277,-0.7485352,-0.06298828,-0.2280273,0.1884766,-0.03271484
4718,8.25,9.875,41.5,1.361328,-0.7016602,-0.09375,-0.2255859,0.1923828,-0.03369141
4722,3.625,29.125,36.3125,1.314453,-0.5927734,-0.1245117,-0.2211914,0.1938477,-0.03515625
4726,-2.3125,38.8125,28.9375,1.213867,-0.5581055,-0.1977539,-0.21875,0.1962891,-0.03662109
4730,-2.8125,28.9375,10.4375,1.074219,-0.6044922,-0.2705078,-0.21875,0.1972656,-0.03955078
4734,4.8125,7.0625,-7.375,1.055176,-0.6435547,-0.2822266,-0.21875,0.2001953,-0.04052734
4738,9.75,-9.6875,-21.6875,1.182617,-0.6318359,-0.2207031,-0.21875,0.1962891,-0.04199219
4742,8.4375,-8.8125,-27.25,1.403809,-0.5893555,-0.1782227,-0.2197266,0.1962891,-0.04052734
4746,3.0625,5.3125,-35.6875,1.554688,-0.5854492,-0.1552734,-0.222168,0.1938477,-0.04199219
4750,-1.9375,25.6875,-47.1875,1.69043,-0.5737305,-0.1513672,-0.2246094,0.1923828,-0.04199219
4754,-8.25,49.9375,-60.9375,1.736816,-0.5854492,-0.1708984,-0.2280273,0.1875,-0.04345703
4758,-16.5625,64.6875,-73.875,1.644043,-0.6630859,-0.2324219,-0.2319336,0.1850586,-0.04736328
4762,-18.8125,66.375,-83.75,1.620605,-0.7524414,-0.2397461,-0.234375,0.1801758,-0.04882813
4766,-19.125,69.0625,-94.625,1.620605,-0.7910156,-0.2128906,-0.2387695,0.1762695,-0.05273438
4770,-16.5,69.25,-108.625,1.546875,-0.8803711,-0.2363281,-0.2436523,0.1689453,-0.05566406
4774,-11.4375,56.875,-121.1875,1.481445,-0.9272461,-0.2592773,-0.2470703,0.1625977,-0.05712891
4778,-5.1875,41.3125,-131.875,1.644043,-0.9506836,-0.2397461,-0.2553711,0.1523438,-0.06396484
4783,-8.3125,50.625,-147.3125,1.818359,-0.9467773,-0.1821289,-0.2617188,0.1425781,-0.06396484
4787,-12.5,70.125,-158.125,1.814453,-1.078613,-0.1435547,-0.2661133,0.1362305,-0.06933594
4791,-12.3125,89.0625,-164.75,1.73291,-1.183594,-0.1630859,-0.2734375,0.1225586,-0.07324219
4795,-9.1875,99.6875,-173.875,1.612793,-1.265137,-0.1669922,-0.2807617,0.1074219,-0.08154297
4799,-2.4375,104.8125,-180.25,1.531738,-1.338867,-0.128418,-0.2841797,0.09863281,-0.08544922
4803,4.6875,114.0625,-180.9375,1.458008,-1.331055,-0.1206055,-0.2900391,0.08251953,-0.09765625
4807,8.8125,122.9375,-181.125,1.322266,-1.34668,-0.1323242,-0.2924805,0.06640625,-0.1044922
4811,15.8125,127.875,-179.25,1.229492,-1.331055,-0.1630859,-0.2973633,0.05517578,-0.1142578
4815,23.25,130.1875,-179.5,1.121094,-1.233887,-0.2167969,-0.2998047,0.03857422,-0.1264648
4819,22.8125,126.75,-180.8125,0.9931641,-1.148438,-0.2514648,-0.2973633,0.01855469,-0.137207
4823,26.5,116.25,-180.9375,0.8574219,-1.171875,-0.2397461,-0.2998047,0.007324219,-0.1455078
4827,33.8125,102.4375,-175,0.7719727,-1.105957,-0.2055664,-0.2973633,-0.01171875,-0.1577148
4831,36.6875,90.375,-162.5,0.7451172,-0.9853516,-0.1591797,-0.293457,-0.03076172,-0.1660156
4835,37.8125,83.125,-154.125,0.7719727,-0.9155273,-0.09765625,-0.2924805,-0.04199219,-0.1699219
4839,42.4375,75.625,-153.875,0.7568359,-0.8339844,-0.1015625,-0.2875977,-0.05957031,-0.1782227
4843,45.3125,67.0625,-151.1875,0.7602539,-0.7133789,-0.0859375,-0.2851563,-0.07568359,-0.1850586
4847,40.25,62.375,-144.4375,0.8222656,-0.5581055,-0.05908203,-0.2817383,-0.08691406,-0.1875
4851,35.5,60.8125,-138.25,0.8842773,-0.5620117,-0.02441406,-0.2768555,-0.1020508,-0.1928711
4855,35.625,65.3125,-138.5625,0.8881836,-0.4921875,0.04443359,-0.2724609,-0.1181641,-0.1972656
4859,35.3125,71.1875,-139.375,0.8457031,-0.4726563,0.07128906,-0.2675781,-0.1279297,-0.1972656
4863,33.3125,77.8125,-134.5625,0.7602539,-0.453125,0.06738281,-0.2602539,-0.140625,-0.2026367
4867,32,85.9375,-127.9375,0.644043,-0.3793945,0.04785156,-0.253418,-0.1567383,-0.2094727
4871,32.1875,87.75,-119.0625,0.5126953,-0.3754883,0.02099609,-0.2446289,-0.1645508,-0.2119141
4875,32.625,85.5,-116.75,0.3847656,-0.2626953,-0.02832031,-0.2353516,-0.1757813,-0.2202148
4879,30.8125,77.125,-113.25,0.206543,-0.2470703,-0.04736328,-0.2255859,-0.1879883,-0.2231445
4883,29.625,66.75,-106.625,0.07861328,-0.2275391,-0.03613281,-0.2211914,-0.1958008,-0.2285156
4887,31.375,60.1875,-96.1875,-0.05664063,-0.1811523,-0.05126953,-0.2114258,-0.2045898,-0.2299805
4891,30.9375,49.875,-83.125,-0.2426758,-0.1035156,-0.09765625,-0.2021484,-0.2143555,-0.2338867
4895,27.4375,30.75,-64.25,-0.3706055,-0.06054688,-0.1323242,-0.1982422,-0.2192383,-0.2353516
4899,27.0625,7.5,-44.25,-0.3823242,-0.04541016,-0.1015625,-0.1938477,-0.2246094,-0.2353516
4903,29.4375,-7.75,-31.125,-0.2929688,0.05517578,-0.05517578,-0.1923828,-0.2294922,-0.2353516
4907,27.6875,-11.4375,-23.875,-0.1962891,0.1835938,-0.04736328,-0.1914063,-0.2319336,-0.230957
4912,14.4375,-7.25,-13.9375,-0.1303711,0.2226563,-0.03613281,-0.1914063,-0.2329102,-0.2285156
4916,1.9375,1,0.375,-0.1225586,0.1254883,0.001953125,-0.1899414,-0.2358398,-0.2299805
4920,-2.25,6.4375,17.9375,-0.1806641,0.08642578,-0.02050781,-0.1914063,-0.234375,-0.2285156
4924,-8.6875,-0.375,32.4375,-0.2270508,0.09033203,-0.02832031,-0.1899414,-0.2329102,-0.230957
4928,-8.9375,-10.625,41.0625,-0.2001953,0.04394531,-0.01660156,-0.1923828,-0.2294922,-0.230957
4932,-8.1875,-22.0625,50.8125,-0.1689453,0.008789063,0.01367188,-0.1948242,-0.2255859,-0.2270508
4936,-2.9375,-33.0625,61.9375,-0.08789063,-0.02978516,-0.009277344,-0.199707,-0.2216797,-0.2299805
4940,-0.5,-45.1875,72.75,0.03564453,0.05517578,-0.05126953,-0.2045898,-0.2192383,-0.2255859
4944,-6.75,-54,78.6875,0.1445313,0.05126953,-0.05517578,-0.2089844,-0.2158203,-0.2231445
4948,-8.75,-62.0625,86.5,0.2294922,-0.02978516,-0.04394531,-0.2172852,-0.2070313,-0.21875
4952,-10.1875,-67.4375,92.1875,0.3339844,-0.06835938,-0.04394531,-0.2255859,-0.2016602,-0.2148438
4956,-10.25,-70.5,95.1875,0.4155273,-0.1459961,0.01708984,-0.2304688,-0.1958008,-0.2119141
4960,-5.375,-71.5625,100.1875,0.4541016,-0.1655273,-0.009277344,-0.2402344,-0.1870117,-0.2094727
4964,-4.625,-79.8125,103.8125,0.4931641,-0.2006836,-0.03222656,-0.2470703,-0.1782227,-0.2011719
4968,-3.0625,-83.25,111.875,0.6328125,-0.2978516,-0.03222656,-0.2519531,-0.171875,-0.1972656
4972,-5.1875,-78.0625,119.625,0.7641602,-0.2666016,-0.009277344,-0.2617188,-0.1621094,-0.1889648
4976,-8.625,-67.5625,123,0.7680664,-0.2900391,0.001953125,-0.2700195,-0.1494141,-0.1865234
4980,-10,-70.6875,125.375,0.7177734,-0.3637695,-0.05126953,-0.2744141,-0.1420898,-0.1806641
4984,-7.5625,-76.8125,132.375,0.8032227,-0.4882813,-0.05908203,-0.2792969,-0.1293945,-0.1767578
4988,-8.375,-75.125,140.5,0.9155273,-0.5151367,-0.01660156,-0.2851563,-0.1166992,-0.1660156
4992,-10.4375,-74.125,146,0.9619141,-0.5424805,-0.02832031,-0.2900391,-0.1069336,-0.1645508
4996,-12.125,-68.375,144.6875,1.055176,-0.4921875,-0.009277344,-0.2949219,-0.09082031,-0.1591797
5000,-15.75,-61.5,146.0625,1.027832,-0.5737305,-0.05908203,-0.2983398,-0.07568359,-0.1508789
5004,-17.875,-58.5,152.1875,1.055176,-0.6357422,-0.08203125,-0.2998047,-0.06689453,-0.1494141
5008,-19.3125,-63.0625,159,1.085938,-0.6787109,-0.1401367,-0.3041992,-0.04931641,-0.144043
5012,-20.5,-65.125,159.875,1.237305,-0.6240234,-0.1054688,-0.3017578,-0.03466797,-0.1401367
5016,-29.0625,-52.75,152.6875,1.299316,-0.5776367,-0.04003906,-0.3056641,-0.02197266,-0.1347656
5020,-32.4375,-47.375,148,1.109375,-0.7871094,-0.1166992,-0.3041992,-0.005859375,-0.1303711
5024,-24.875,-66.3125,151,1.035645,-0.8842773,-0.1552734,-0.3017578,0.01123047,-0.1235352
5028,-14.5,-93.125,155.0625,1.198242,-0.8613281,-0.2207031,-0.3041992,0.02148438,-0.1196289
5032,-11.75,-102.125,151.1875,1.46582,-0.7329102,-0.112793,-0.3017578,0.03515625,-0.1098633
5036,-15.875,-89.375,144.25,1.674805,-0.6938477,-0.02050781,-0.3007813,0.04882813,-0.1005859
5041,-18.3125,-57.5,133.0625,1.72168,-0.6591797,0.06347656,-0.2983398,0.05859375,-0.09912109
5045,-24.4375,-30.5625,123.5,1.578125,-0.7211914,0.01708984,-0.2949219,0.07128906,-0.09228516
5049,-23.0625,-24.25,114.3125,1.333984,-0.8764648,-0.05908203,-0.2890625,0.08251953,-0.09082031
5053,-12.75,-36.375,105.75,1.140137,-0.9506836,-0.1435547,-0.2851563,0.08984375,-0.08691406
5057,-3.375,-60.0625,102,1.066406,-0.9541016,-0.2285156,-0.2827148,0.09765625,-0.08300781
5061,3.8125,-78.5,99.0625,1.171387,-0.9116211,-0.1821289,-0.2807617,0.1064453,-0.07617188
5065,6.5625,-74.0625,97.6875,1.349609,-0.8803711,-0.1206055,-0.2783203,0.1123047,-0.07080078
5069,1.9375,-47.4375,94.6875,1.415527,-0.7910156,-0.07470703,-0.2758789,0.1201172,-0.06542969
5073,-8,-18.375,91.4375,1.26416,-0.8144531,-0.112793,-0.2709961,0.1264648,-0.0625
5077,-13.25,-4.5625,91.75,1.047363,-0.8842773,-0.1860352,-0.2675781,0.1313477,-0.0625
5081,-15,-9.75,87.6875,0.8110352,-0.9155273,-0.2861328,-0.2636719,0.1411133,-0.05957031
5085,-8.3125,-35.9375,78.625,0.6557617,-1.016602,-0.3051758,-0.2578125,0.1474609,-0.05859375
5089,7.875,-67.625,71.125,0.6557617,-1.094238,-0.2631836,-0.2553711,0.1499023,-0.05712891
5093,18.4375,-78.5,70.8125,0.8457031,-0.9541016,-0.2128906,-0.253418,0.15625,-0.05175781
5097,18.9375,-73.75,71.25,0.9038086,-0.8959961,-0.2016602,-0.2495117,0.1601563,-0.04736328
5101,21.6875,-73.25,68.9375,0.8920898,-0.8574219,-0.2822266,-0.2470703,0.1635742,-0.04492188
5105,24.1875,-80.75,64.5,0.9501953,-0.7910156,-0.324707,-0.2446289,0.1689453,-0.03808594
5109,22.75,-78.1875,53.8125,1.05127,-0.7094727,-0.324707,-0.2426758,0.1738281,-0.03369141
5113,15.3125,-65.75,45.6875,1.09375,-0.6938477,-0.2978516,-0.2387695,0.1762695,-0.03271484
5117,6.25,-50.6875,47.75,1.05127,-0.7602539,-0.2670898,-0.2363281,0.1787109,-0.02734375
5121,1.875,-38.6875,52.75,1.039551,-0.7792969,-0.2514648,-0.2329102,0.1811523,-0.02148438
5125,1.9375,-33.5,55.3125,1.05127,-0.8144531,-0.2324219,-0.2319336,0.1835938,-0.02294922
5129,5.5,-29.8125,50.5,1.082031,-0.7368164,-0.2324219,-0.2270508,0.1875,-0.02050781
5133,8.625,-31,40.5625,1.13623,-0.7016602,-0.2363281,-0.2246094,0.1938477,-0.02050781
5137,10.3125,-30.625,30,1.291504,-0.6240234,-0.2363281,-0.222168,0.1938477,-0.01904297
5141,8.125,-19.875,21.1875,1.446289,-0.6240234,-0.1821289,-0.2197266,0.1962891,-0.01757813
5145,10.5625,-7,13.5625,1.550781,-0.5854492,-0.2128906,-0.2197266,0.2001953,-0.01757813
5149,9.25,3.375,4.4375,1.736816,-0.46875,-0.2861328,-0.21875,0.1972656,-0.01464844
5153,-0.4375,19.0625,-14.375,1.89209,-0.3911133,-0.2397461,-0.2197266,0.2001953,-0.01904297
5157,-5.25,28.9375,-39.0625,1.950195,-0.4453125,-0.2978516,-0.2197266,0.1972656,-0.01904297
5161,-10.3125,35.1875,-62.0625,1.984863,-0.4921875,-0.3129883,-0.222168,0.1948242,-0.02294922
5165,-17.75,43.3125,-81.3125,2.042969,-0.581543,-0.2861328,-0.2280273,0.1884766,-0.02294922
5170,-23.6875,59.75,-97.625,2.082031,-0.7407227,-0.2397461,-0.2329102,0.1835938,-0.02441406
5174,-25,80.5625,-109.3125,2.054688,-0.8686523,-0.2475586,-0.237793,0.1787109,-0.02832031
5178,-26.0625,93.375,-126,1.903809,-0.9775391,-0.2705078,-0.2436523,0.1699219,-0.03271484
5182,-20.1875,93.875,-143.625,1.787598,-1.136719,-0.3012695,-0.2495117,0.1601563,-0.03808594
5186,-11.6875,92.75,-159.375,1.729004,-1.22998,-0.309082,-0.2553711,0.1513672,-0.04345703
5190,-4.125,94.625,-171.875,1.698242,-1.300293,-0.3051758,-0.2626953,0.1386719,-0.04736328
5194,0.3125,99.0625,-181.25,1.624512,-1.29248,-0.3168945,-0.2734375,0.1274414,-0.05712891
5198,0.5625,106,-187.875,1.566406,-1.366211,-0.3476563,-0.2768555,0.1176758,-0.06103516
5202,2.375,114.8125,-191.1875,1.516113,-1.393555,-0.3398438,-0.2827148,0.1010742,-0.07177734
5206,3.0625,125.375,-191.4375,1.419434,-1.397461,-0.3706055,-0.2915039,0.08398438,-0.08300781
5210,2.8125,130.4375,-192.25,1.279785,-1.389648,-0.3823242,-0.2949219,0.07275391,-0.08984375
