Packet number,Gyroscope X (deg/s),Gyroscope Y (deg/s),Gyroscope Z (deg/s),Accelerometer X (g),Accelerometer Y (g),Accelerometer Z (g),Magnetometer X (G),Magnetometer Y (G),Magnetometer Z (G)
0,-0.5,-1.125,0.5625,-0.9438477,-0.3134766,-0.05908203,0.2675781,0.1064453,-0.1020508
4,0.9375,-1.5625,0.1875,-0.9326172,-0.2978516,-0.07080078,0.269043,0.1074219,-0.1005859
8,0.75,-0.9375,-0.125,-0.9130859,-0.2861328,-0.08984375,0.2675781,0.1049805,-0.1005859
12,-0.8125,0.0625,-0.0625,-0.9248047,-0.2705078,-0.09765625,0.269043,0.1049805,-0.09765625
16,-2.9375,0.25,1.25,-0.9365234,-0.2744141,-0.09765625,0.2700195,0.1049805,-0.09912109
20,-3.4375,0.25,1.625,-0.9248047,-0.2939453,-0.08203125,0.2675781,0.1049805,-0.09912109
24,-3,0.9375,1.125,-0.9208984,-0.3095703,-0.07080078,0.269043,0.1064453,-0.09912109
28,-2,0.875,-0.0625,-0.9326172,-0.3095703,-0.07470703,0.2700195,0.1064453,-0.09912109
32,-0.6875,-0.3125,-0.25,-0.9399414,-0.3134766,-0.06298828,0.2675781,0.1064453,-0.09912109
36,0.3125,-0.3125,0.375,-0.9365234,-0.2978516,-0.06689453,0.269043,0.1064453,-0.09667969
40,0.0625,-0.4375,0.4375,-0.9399414,-0.2978516,-0.06689453,0.2700195,0.1064453,-0.09765625
44,-0.3125,-1.3125,-0.5,-0.9248047,-0.2900391,-0.08203125,0.2675781,0.1049805,-0.09912109
48,-0.9375,-0.375,-0.8125,-0.9208984,-0.3017578,-0.07861328,0.2675781,0.1049805,-0.09765625
52,-0.125,-0.625,-0.625,-0.9399414,-0.3056641,-0.06689453,0.2675781,0.1049805,-0.09667969
56,1,-1,-0.25,-0.9399414,-0.2939453,-0.06689453,0.2675781,0.1035156,-0.09912109
60,0.875,-0.75,-0.375,-0.9365234,-0.3056641,-0.07861328,0.2675781,0.1064453,-0.09912109
64,0.5625,-1.375,-1.6875,-0.9365234,-0.2978516,-0.07861328,0.269043,0.1064453,-0.09912109
68,0.3125,-1.1875,-1.375,-0.9287109,-0.2900391,-0.0859375,0.2675781,0.1049805,-0.1005859
72,0.5,-0.375,-0.5625,-0.9365234,-0.2900391,-0.07080078,0.2666016,0.1064453,-0.09765625
76,0.5,-1.375,-0.1875,-0.9438477,-0.2822266,-0.08203125,0.2675781,0.1064453,-0.1005859
80,-0.4375,-1.25,-0.4375,-0.9287109,-0.2861328,-0.07861328,0.2675781,0.1049805,-0.1005859
84,-0.875,-2,-0.9375,-0.9399414,-0.2939453,-0.08203125,0.269043,0.1035156,-0.1005859
88,-0.875,-1.9375,-0.8125,-0.9248047,-0.2900391,-0.07861328,0.2675781,0.1064453,-0.09765625
92,-0.125,-1.5,-0.625,-0.9365234,-0.3017578,-0.07470703,0.2675781,0.1064453,-0.1005859
97,0.1875,-1.4375,-0.1875,-0.9248047,-0.2978516,-0.07861328,0.269043,0.1049805,-0.1005859
101,0.5625,-1.4375,-0.625,-0.9169922,-0.2900391,-0.08984375,0.2666016,0.1049805,-0.1005859
105,0,-0.9375,-1.3125,-0.9169922,-0.3017578,-0.08984375,0.2675781,0.1049805,-0.1005859
109,0.3125,-0.5,-2,-0.9287109,-0.2939453,-0.07861328,0.269043,0.1064453,-0.1020508
113,1.5625,-0.25,-0.625,-0.9326172,-0.2939453,-0.0859375,0.2666016,0.1064453,-0.1005859
117,1.9375,-0.3125,0,-0.9287109,-0.2783203,-0.08203125,0.2675781,0.1064453,-0.1005859
121,0.25,-0.0625,0,-0.9169922,-0.2626953,-0.09765625,0.2675781,0.1064453,-0.1005859
125,-2.8125,0,-0.5,-0.9287109,-0.2783203,-0.1015625,0.2666016,0.1064453,-0.1005859
129,-2.8125,-0.5625,-1.25,-0.9326172,-0.3056641,-0.0859375,0.2675781,0.1074219,-0.1005859
133,-0.0625,-0.3125,-1.375,-0.9248047,-0.3208008,-0.07080078,0.2675781,0.1049805,-0.09765625
137,3.1875,0.4375,-1.0625,-0.9130859,-0.3056641,-0.0859375,0.2666016,0.1064453,-0.09912109
141,3.1875,2.5,-1,-0.9248047,-0.2744141,-0.09375,0.2666016,0.1074219,-0.09912109
145,-0.375,2.1875,-0.6875,-0.9477539,-0.2548828,-0.1015625,0.2675781,0.1049805,-0.1020508
149,-3.3125,0.8125,0.3125,-0.9516602,-0.2705078,-0.07080078,0.2675781,0.1064453,-0.1005859
153,-2.3125,-0.3125,1.1875,-0.9438477,-0.3017578,-0.06298828,0.2675781,0.1074219,-0.09765625
157,0.8125,-0.6875,0.9375,-0.9130859,-0.3208008,-0.07470703,0.2675781,0.1088867,-0.1005859
161,1.1875,1.375,-0.75,-0.9130859,-0.2939453,-0.07861328,0.2675781,0.1074219,-0.09912109
165,-0.1875,0.375,-1.8125,-0.9326172,-0.2861328,-0.09375,0.2675781,0.1064453,-0.1020508
169,-0.25,0.25,-1.375,-0.9208984,-0.2900391,-0.08203125,0.2675781,0.1064453,-0.1005859
173,1.4375,1.25,0.1875,-0.9169922,-0.2978516,-0.0859375,0.2675781,0.1064453,-0.1005859
177,1.5,2.625,0.5625,-0.9248047,-0.2744141,-0.07861328,0.2666016,0.1074219,-0.1005859
181,-0.125,1.8125,0.5625,-0.9477539,-0.2744141,-0.08203125,0.2651367,0.1049805,-0.1005859
185,-1.5625,0.8125,1.1875,-0.9365234,-0.2861328,-0.07470703,0.2675781,0.1074219,-0.09912109
189,-1.1875,1.375,1.125,-0.9169922,-0.3017578,-0.07861328,0.2666016,0.1049805,-0.1005859
193,-0.4375,1.6875,0.125,-0.9326172,-0.2900391,-0.08203125,0.2666016,0.1064453,-0.09912109
197,-1.125,1.75,-0.1875,-0.9248047,-0.2900391,-0.09375,0.2675781,0.1074219,-0.09765625
201,-1.5,2.3125,0.1875,-0.9399414,-0.2822266,-0.07470703,0.2675781,0.1049805,-0.09765625
205,-2.0625,2.25,1.375,-0.9399414,-0.2900391,-0.07470703,0.2666016,0.1064453,-0.09765625
209,-2.125,1.8125,1.5,-0.9399414,-0.3017578,-0.06298828,0.2700195,0.1064453,-0.09912109
213,-1.375,1,0.375,-0.9438477,-0.3208008,-0.06689453,0.269043,0.1074219,-0.09765625
217,0.125,0.625,-0.4375,-0.9326172,-0.3364258,-0.07470703,0.2675781,0.1074219,-0.09765625
221,1.875,1.6875,0.1875,-0.9208984,-0.3173828,-0.07470703,0.269043,0.1064453,-0.09765625
226,0.75,2.25,0.25,-0.9208984,-0.2900391,-0.1015625,0.269043,0.1064453,-0.1005859
230,-2.5625,2.0625,-1.0625,-0.9248047,-0.2861328,-0.1015625,0.2675781,0.1064453,-0.09765625
234,-5.625,1.4375,-2.6875,-0.9326172,-0.3208008,-0.0859375,0.2675781,0.1064453,-0.09667969
238,-7.1875,1.375,-3.1875,-0.9248047,-0.3598633,-0.08984375,0.2675781,0.1064453,-0.09667969
242,-8.5,1.1875,-4.4375,-0.9326172,-0.4179688,-0.09375,0.2709961,0.1074219,-0.09765625
246,-7.1875,-0.3125,-8.25,-0.9477539,-0.503418,-0.08203125,0.269043,0.1074219,-0.09521484
250,-8,-1.25,-12.875,-0.9633789,-0.5581055,-0.1206055,0.2675781,0.1098633,-0.09667969
254,-13.6875,-5.75,-21.0625,-0.9750977,-0.5927734,-0.1362305,0.2666016,0.1088867,-0.09375
258,-35.625,-19.4375,-44.25,-0.9672852,-0.6044922,-0.1899414,0.2651367,0.1137695,-0.09521484
262,-67.3125,-38.125,-70.625,-0.862793,-0.7602539,-0.2553711,0.2617188,0.1176758,-0.09521484
266,-81,-36.25,-88.6875,-0.6572266,-1.086426,-0.1630859,0.2583008,0.1264648,-0.09375
270,-68.3125,-7.9375,-87.3125,-0.6342773,-1.350586,-0.07470703,0.2543945,0.1313477,-0.09082031
274,-52.8125,11.0625,-70,-0.8237305,-1.587891,-0.07080078,0.2485352,0.1411133,-0.08984375
278,-34.5625,17.3125,-60.4375,-0.7773438,-1.789551,-0.07470703,0.2460938,0.1450195,-0.08544922
282,-11.375,24.875,-85.375,-0.78125,-1.898438,-0.03613281,0.2451172,0.1513672,-0.08154297
286,10.1875,21.3125,-127.75,-0.9130859,-1.886719,-0.07470703,0.2392578,0.1577148,-0.08007813
290,17.8125,15.6875,-158.8125,-1.056641,-1.820801,-0.05908203,0.2294922,0.1699219,-0.08154297
294,29.875,16.875,-176.625,-1.118652,-1.875,-0.04003906,0.222168,0.1762695,-0.08007813
298,52.0625,20.375,-184.25,-1.219238,-1.840332,-0.04736328,0.2104492,0.1884766,-0.08154297
302,70.8125,22.25,-186.3125,-1.300781,-1.665527,-0.07861328,0.1972656,0.1987305,-0.08447266
306,67.5,19.5,-185.5,-1.385742,-1.505859,-0.1552734,0.1879883,0.2050781,-0.08691406
310,50.3125,11.9375,-192.5625,-1.40918,-1.475098,-0.1245117,0.1738281,0.2163086,-0.09082031
314,48.1875,5.1875,-207.9375,-1.351074,-1.626465,-0.07080078,0.1606445,0.2260742,-0.09228516
318,61,6.375,-226.6875,-1.362793,-1.653809,-0.02832031,0.1484375,0.2324219,-0.09667969
322,76.1875,5.875,-232.9375,-1.463379,-1.606934,-0.04394531,0.1293945,0.2426758,-0.1005859
326,87.5,2.3125,-232.375,-1.505859,-1.529297,-0.05908203,0.109375,0.2509766,-0.1044922
330,99.5625,-1.25,-229.875,-1.494141,-1.471191,-0.05908203,0.09619141,0.2548828,-0.112793
334,111.25,-3.6875,-228.0625,-1.494141,-1.354492,-0.07080078,0.07617188,0.2612305,-0.1196289
338,111.25,-10.125,-228.5625,-1.467285,-1.121582,-0.1166992,0.05322266,0.262207,-0.1289063
342,93.8125,-21.8125,-226.0625,-1.443848,-1.008789,-0.128418,0.04052734,0.2651367,-0.1333008
346,74.75,-34.6875,-223.625,-1.315918,-1.012695,-0.1166992,0.01660156,0.2661133,-0.1425781
350,67.8125,-36.375,-224.625,-1.157227,-1.040039,-0.07470703,-0.004394531,0.2636719,-0.1484375
355,67.375,-32.5,-222,-1.129883,-0.9970703,-0.07080078,-0.02099609,0.262207,-0.1523438
359,67,-31.5,-215.9375,-1.095215,-0.9272461,-0.01660156,-0.04248047,0.2612305,-0.15625
363,68.0625,-35.9375,-208.0625,-1.067871,-0.8959961,-0.001464844,-0.06494141,0.2563477,-0.1630859
367,70.125,-40.5,-203.9375,-0.9477539,-0.8105469,0.009765625,-0.07714844,0.2475586,-0.1630859
371,62.0625,-42.6875,-205.6875,-0.878418,-0.6630859,0.005859375,-0.09716797,0.2426758,-0.168457
375,55.8125,-47.1875,-207.5,-0.8549805,-0.6435547,0.03662109,-0.1162109,0.2324219,-0.1699219
379,62.8125,-50.125,-198.75,-0.7504883,-0.6630859,0.09033203,-0.1293945,0.2250977,-0.1699219
383,77.625,-48.875,-184.5625,-0.5102539,-0.5307617,0.08251953,-0.1484375,0.2148438,-0.1782227
387,82.125,-45.25,-171,-0.4091797,-0.3481445,-0.001464844,-0.1640625,0.2026367,-0.1796875
391,72.1875,-45.75,-157.875,-0.3666992,-0.2626953,-0.07470703,-0.1733398,0.1948242,-0.1806641
395,62.25,-45.4375,-149.8125,-0.230957,-0.1967773,-0.05126953,-0.1889648,0.1826172,-0.1835938
399,54.8125,-40.0625,-149.6875,-0.1533203,-0.1381836,-0.02832031,-0.2021484,0.1699219,-0.1835938
403,55.5625,-37.0625,-146.8125,-0.1342773,-0.04150391,-0.02441406,-0.206543,0.1611328,-0.1835938
407,60.9375,-37.375,-134.125,-0.1225586,0.1176758,-0.02832031,-0.21875,0.1499023,-0.1850586
411,65.625,-37.25,-112.1875,-0.1108398,0.2924805,-0.112793,-0.2294922,0.1362305,-0.1865234
415,61.4375,-36.25,-88.8125,0.008789063,0.5214844,-0.1708984,-0.2329102,0.1289063,-0.1875
419,51.75,-32.3125,-70.25,0.109375,0.6884766,-0.2397461,-0.2412109,0.1201172,-0.1904297
423,34.6875,-26,-53.375,0.140625,0.8168945,-0.2783203,-0.2460938,0.1137695,-0.1865234
427,10.875,-23.875,-32.4375,0.2216797,0.8598633,-0.3012695,-0.2460938,0.1064453,-0.1865234
431,-7.4375,-16.75,-12.6875,0.3110352,0.7353516,-0.2475586,-0.2495117,0.1074219,-0.1865234
435,-3,-5.6875,6.5,0.3032227,0.5913086,-0.1899414,-0.2495117,0.1064453,-0.1850586
439,4.375,3.1875,28.5625,0.2568359,0.5952148,-0.1821289,-0.2495117,0.1074219,-0.1835938
443,-7.125,4.125,51.1875,0.2412109,0.5991211,-0.2285156,-0.2470703,0.1113281,-0.1821289
447,-23.25,4.875,67.25,0.3535156,0.4516602,-0.2207031,-0.2446289,0.1162109,-0.1850586
451,-35.75,13.5,75.8125,0.3339844,0.2768555,-0.1821289,-0.2412109,0.1201172,-0.1850586
455,-43,18.0625,83.25,0.2104492,0.1254883,-0.128418,-0.2363281,0.1289063,-0.1821289
459,-54.375,14.5625,94.25,0.1445313,-0.04541016,-0.05517578,-0.2319336,0.1376953,-0.1821289
463,-54,12.5625,103.75,0.190918,-0.3095703,0.01708984,-0.2294922,0.1450195,-0.1796875
467,-39.6875,20.25,106.9375,0.2294922,-0.4648438,0.05566406,-0.222168,0.1523438,-0.1767578
471,-34.75,31.4375,106.875,0.1635742,-0.01025391,-0.009277344,-0.2128906,0.1635742,-0.1782227
475,-29.9375,36.0625,125.5625,0.06689453,-0.46875,0.04052734,-0.2055664,0.1699219,-0.1796875
479,-38.0625,40.75,139.5,0.03564453,-0.4765625,0.03662109,-0.1962891,0.1787109,-0.1767578
484,-55.0625,40.5625,140.5,-0.06445313,-0.534668,0.07128906,-0.184082,0.1899414,-0.1796875
488,-73.4375,26.75,134.75,-0.1147461,-0.6669922,0.1098633,-0.1772461,0.1938477,-0.175293
492,-75,18.75,130.5,-0.07617188,-0.9389648,0.1674805,-0.1665039,0.2075195,-0.175293
496,-63.5625,19.0625,135.3125,0.01269531,-1.08252,0.125,-0.1542969,0.2163086,-0.168457
500,-48.125,35.0625,132.1875,0.008789063,-1.121582,0.159668,-0.1459961,0.2211914,-0.1674805
504,-39.5625,36.6875,130.25,-0.2080078,-1.066895,0.1713867,-0.1318359,0.2314453,-0.1630859
508,-41.75,27.3125,138.9375,-0.2001953,-1.066895,0.1367188,-0.1186523,0.2363281,-0.1645508
512,-46.875,28.8125,134.1875,-0.1303711,-1.121582,0.1367188,-0.1113281,0.2412109,-0.1630859
516,-40.9375,29.5625,120,-0.262207,-1.144531,0.1328125,-0.09716797,0.2460938,-0.1577148
520,-32.4375,25.5,118.25,-0.3588867,-1.102051,0.1557617,-0.08642578,0.2485352,-0.1538086
524,-39.875,22.0625,127,-0.4169922,-1.020508,0.05957031,-0.078125,0.2509766,-0.1547852
528,-40.25,17,128.1875,-0.328125,-1.183594,0.06347656,-0.06494141,0.2563477,-0.1523438
532,-16.5625,26.75,125.8125,-0.2583008,-1.22998,0.09814453,-0.05224609,0.2597656,-0.1508789
536,7.875,42.0625,127.1875,-0.3901367,-1.074707,0.05566406,-0.04492188,0.2612305,-0.1508789
540,-7.75,41.0625,135.25,-0.5527344,-0.7641602,-0.07080078,-0.02929688,0.2612305,-0.1508789
544,-45.125,29.5,130.6875,-0.6030273,-0.8144531,-0.04394531,-0.01757813,0.262207,-0.1523438
548,-54.6875,18.9375,115,-0.5834961,-0.9931641,0.02099609,-0.0078125,0.262207,-0.1484375
552,-39.375,19.875,114.8125,-0.5605469,-1.020508,0.04785156,0.003417969,0.2636719,-0.144043
556,-24,31.1875,124.5625,-0.6455078,-0.9506836,-0.04003906,0.01513672,0.2636719,-0.144043
560,-25.625,36.8125,138.5,-0.8164063,-0.8457031,-0.07080078,0.02490234,0.262207,-0.1416016
564,-42.3125,33,150.375,-0.8085938,-0.9038086,-0.07080078,0.0390625,0.262207,-0.1357422
568,-38.5,35.6875,146.1875,-0.8046875,-0.9506836,0.001953125,0.05322266,0.2587891,-0.1357422
572,-39.6875,27.1875,144.3125,-0.8588867,-0.8959961,-0.02441406,0.06298828,0.2573242,-0.1333008
576,-48.25,27.5,141.3125,-0.8007813,-0.9389648,-0.07080078,0.07714844,0.2548828,-0.1289063
580,-49,34.0625,138.25,-0.9516602,-1.032227,-0.02441406,0.09033203,0.2509766,-0.1225586
584,-45.25,32.875,140.875,-1.056641,-1.066895,0.01367188,0.1010742,0.2485352,-0.1210938
588,-38.125,30.6875,147.125,-1.106934,-1.02832,0.04785156,0.112793,0.2460938,-0.1166992
592,-33.9375,21.625,152.9375,-1.067871,-1.11377,0.04785156,0.1269531,0.2397461,-0.112793
596,-27.6875,19.4375,150.75,-1.001953,-1.160156,-0.04003906,0.1357422,0.2363281,-0.1113281
600,-22.9375,24.0625,140.1875,-0.9750977,-1.105957,-0.04736328,0.1474609,0.2285156,-0.105957
604,-22.375,24.5,129.6875,-1.129883,-1.012695,-0.03613281,0.1591797,0.2236328,-0.1074219
608,-22.625,20.4375,133.6875,-1.149414,-0.9619141,-0.001464844,0.1665039,0.2172852,-0.1044922
613,-35.0625,15.5625,143.9375,-1.157227,-0.9350586,-0.05517578,0.1772461,0.2114258,-0.1020508
617,-44.125,10.625,136.6875,-1.075684,-1.036133,-0.04736328,0.1879883,0.2036133,-0.09765625
621,-41.25,5.1875,126.125,-1.063965,-1.129395,-0.02441406,0.1938477,0.1972656,-0.09521484
625,-31,2.9375,122.875,-1.009766,-1.144531,-0.04394531,0.203125,0.1914063,-0.09228516
629,-39.3125,0.6875,120.5625,-0.9711914,-1.012695,-0.1206055,0.2104492,0.1860352,-0.08984375
633,-62.125,-4.6875,110,-0.9013672,-1.086426,-0.1474609,0.215332,0.1772461,-0.08984375
637,-66.4375,-9.5625,97.3125,-0.8818359,-1.342773,-0.09375,0.2246094,0.1713867,-0.08544922
641,-38.375,-7,93.4375,-0.7348633,-1.564453,-0.04736328,0.2294922,0.1674805,-0.08154297
645,-2.25,7.8125,84.0625,-0.6264648,-1.505859,-0.07470703,0.2329102,0.1650391,-0.08007813
649,18.0625,19.625,75.625,-0.6650391,-1.296387,-0.07861328,0.2402344,0.1577148,-0.08154297
653,11.8125,18.25,74.8125,-0.765625,-1.175781,-0.1552734,0.2436523,0.1499023,-0.08007813
657,-2.6875,14.375,70.25,-0.7231445,-1.249512,-0.1054688,0.2475586,0.1474609,-0.08007813
661,-5.875,13.8125,57.125,-0.6533203,-1.408691,-0.09375,0.25,0.1411133,-0.08007813
665,2.8125,14.3125,34.3125,-0.6962891,-1.443848,-0.009277344,0.253418,0.1376953,-0.07763672
669,9.125,2.6875,14.25,-0.7890625,-1.505859,-0.005371094,0.2558594,0.1347656,-0.07861328
673,16.1875,-4.8125,0.25,-0.730957,-1.614746,0.009765625,0.2543945,0.1347656,-0.07763672
677,30,-3.375,-18.9375,-0.6416016,-1.630371,-0.03222656,0.253418,0.1347656,-0.07861328
681,30.9375,4,-41.1875,-0.7114258,-1.486816,-0.109375,0.2543945,0.1347656,-0.08154297
685,11.6875,1.1875,-57.375,-0.8549805,-1.509766,-0.1708984,0.2519531,0.1386719,-0.08300781
689,1.5625,-0.4375,-75.125,-0.8198242,-1.711914,-0.08203125,0.2475586,0.1435547,-0.08007813
693,19.1875,8.625,-98.5625,-0.8354492,-1.863281,0.03662109,0.2426758,0.1489258,-0.08154297
697,38.5,9.75,-114,-1.013672,-1.777832,0.04443359,0.237793,0.15625,-0.08447266
701,38.9375,1.625,-128.75,-1.091309,-1.692383,0.03271484,0.2319336,0.1635742,-0.08544922
705,36.75,-6.3125,-149.125,-1.12207,-1.750977,0.04052734,0.2260742,0.1699219,-0.08544922
709,47.125,-9.125,-167.875,-1.203613,-1.711914,0.04443359,0.215332,0.1787109,-0.08984375
713,51.9375,-13.3125,-177.875,-1.312012,-1.61084,0.001953125,0.2045898,0.1899414,-0.09228516
717,48.0625,-20.25,-188.0625,-1.37793,-1.580078,-0.02441406,0.1962891,0.1972656,-0.09375
721,50.8125,-25.125,-198.25,-1.358887,-1.626465,-0.04394531,0.1821289,0.2075195,-0.09912109
725,56.6875,-25.75,-208.6875,-1.389648,-1.552734,-0.07470703,0.1650391,0.2197266,-0.105957
729,58.9375,-26.0625,-215.4375,-1.432129,-1.475098,-0.08984375,0.1547852,0.2275391,-0.1074219
733,60.6875,-28.6875,-219.4375,-1.490234,-1.45166,-0.05517578,0.1357422,0.2363281,-0.112793
737,69.8125,-33.3125,-225.625,-1.521484,-1.408691,-0.04394531,0.1166992,0.2451172,-0.1196289
742,76.4375,-38.0625,-226,-1.486328,-1.26123,-0.09375,0.1035156,0.25,-0.1235352
746,70.8125,-41.8125,-223.3125,-1.459473,-1.102051,-0.1245117,0.08056641,0.2539063,-0.1303711
750,63.9375,-48.4375,-221,-1.343262,-1.074707,-0.1435547,0.06054688,0.2597656,-0.137207
754,60.8125,-46.6875,-216.125,-1.230957,-1.040039,-0.1669922,0.04492188,0.2597656,-0.1386719
758,53.25,-42.4375,-214.5,-1.137695,-0.9697266,-0.1743164,0.02490234,0.2636719,-0.1455078
762,43.5,-40.3125,-215.4375,-1.067871,-0.9541016,-0.1435547,0.0009765625,0.2636719,-0.1508789
766,31.0625,-39.0625,-215.75,-1.013672,-0.8574219,-0.112793,-0.01269531,0.262207,-0.1508789
770,12.25,-40.875,-223.375,-1.017578,-0.7871094,-0.05908203,-0.03515625,0.2612305,-0.1547852
774,-5.75,-48.25,-216.125,-0.9790039,-0.8647461,-0.03613281,-0.05566406,0.2587891,-0.1494141
778,-9.5,-45.4375,-208.3125,-0.8432617,-1.032227,0.03662109,-0.07324219,0.2573242,-0.1494141
782,13.0625,-37.125,-206,-0.7231445,-1.175781,0.06738281,-0.09375,0.2548828,-0.1469727
786,45.6875,-27,-201.875,-0.6689453,-1.062988,0.06738281,-0.1137695,0.2451172,-0.1455078
790,69.3125,-18.125,-196.3125,-0.7075195,-0.7753906,0.04443359,-0.1269531,0.2412109,-0.1494141
794,73.5625,-23.9375,-186.1875,-0.8007813,-0.4921875,-0.02832031,-0.1435547,0.2314453,-0.1538086
798,66.625,-34.4375,-176.5625,-0.6186523,-0.2241211,-0.05126953,-0.1601563,0.21875,-0.1591797
802,55.5625,-39.875,-166.75,-0.5141602,-0.06835938,-0.07470703,-0.1723633,0.2124023,-0.1616211
806,44.3125,-42.625,-151.5,-0.3510742,0.05517578,-0.09375,-0.1855469,0.2011719,-0.1616211
810,34,-42.9375,-134.4375,-0.2119141,0.06689453,-0.1245117,-0.1982422,0.1899414,-0.1616211
814,32.875,-35.9375,-121.875,-0.05273438,0.1137695,-0.1166992,-0.2045898,0.1811523,-0.1616211
818,34.125,-28.75,-106.9375,0.03173828,0.1992188,-0.1552734,-0.2128906,0.1748047,-0.1591797
822,32.6875,-19.1875,-97.8125,0.09375,0.3271484,-0.1474609,-0.2197266,0.1650391,-0.1630859
826,22,-14.5,-86.1875,0.1289063,0.5913086,-0.1591797,-0.2280273,0.1586914,-0.1606445
830,8.875,-11.625,-66.5625,0.07861328,0.6616211,-0.1362305,-0.2319336,0.1538086,-0.1616211
834,-0.0625,-12.6875,-43.875,0.08642578,0.6616211,-0.09375,-0.2353516,0.1513672,-0.1616211
838,-0.625,-14.75,-17.4375,0.2138672,0.5253906,-0.1015625,-0.237793,0.1474609,-0.1606445
842,5.0625,-3.125,6.3125,0.2724609,0.3974609,-0.02050781,-0.2402344,0.1474609,-0.1591797
846,13.75,0.75,23.125,0.2758789,0.3271484,-0.001464844,-0.2363281,0.1459961,-0.1616211
850,13.0625,0.1875,35.375,0.2255859,0.3120117,-0.02050781,-0.2363281,0.1489258,-0.1606445
854,2,-3.25,45.9375,0.2373047,0.2573242,-0.01660156,-0.234375,0.1499023,-0.1616211
858,-11.6875,-7.1875,58.75,0.2836914,0.1176758,-0.08203125,-0.2329102,0.1538086,-0.1630859
862,-19.4375,-4.6875,67.75,0.3417969,-0.04541016,-0.08984375,-0.2319336,0.1577148,-0.1591797
866,-18,-0.4375,74.375,0.3574219,-0.1772461,-0.1054688,-0.2280273,0.1650391,-0.1577148
871,-14.8125,10.5625,82.5,0.3266602,-0.2314453,-0.05126953,-0.2211914,0.1699219,-0.1577148
875,-9.6875,15.3125,86.5625,0.1831055,-0.2587891,-0.07080078,-0.215332,0.1738281,-0.1591797
879,-9.375,17.5625,102.0625,0.190918,-0.1850586,-0.07080078,-0.2089844,0.1801758,-0.1606445
883,-18.875,26.875,112.3125,0.09765625,-0.1928711,-0.05517578,-0.2006836,0.1860352,-0.1591797
887,-29.5,23.5625,122.4375,-0.06835938,-0.2314453,-0.01318359,-0.1938477,0.1948242,-0.15625
891,-33.25,20.625,130.875,-0.06445313,-0.3950195,0.03662109,-0.1855469,0.2026367,-0.1577148
895,-16.8125,24.625,130.625,-0.1264648,-0.453125,0.07910156,-0.1723633,0.2099609,-0.1577148
899,-20.875,23.5,144.6875,-0.1845703,-0.3134766,-0.07470703,-0.1640625,0.2148438,-0.1577148
903,-40.6875,26.875,147.3125,-0.2734375,-0.3989258,-0.005371094,-0.1518555,0.2226563,-0.15625
907,-42.1875,22.125,152,-0.3588867,-0.6005859,0.009765625,-0.1376953,0.2275391,-0.1538086
911,-32.1875,24.1875,159.4375,-0.4287109,-0.6708984,0.01708984,-0.128418,0.2373047,-0.1547852
915,-34.9375,24.1875,171.375,-0.4208984,-0.6748047,-0.01660156,-0.1137695,0.2426758,-0.1523438
919,-47.75,23.75,169.625,-0.5141602,-0.7250977,-0.07470703,-0.09619141,0.25,-0.1508789
923,-52.375,24,163.1875,-0.5952148,-0.9038086,-0.005371094,-0.08789063,0.2539063,-0.1494141
927,-40.0625,23.625,168.5625,-0.7387695,-1.066895,-0.009277344,-0.07226563,0.2597656,-0.1455078
931,-21.4375,25.4375,180.0625,-0.6030273,-1.016602,0.01367188,-0.05322266,0.2612305,-0.1425781
935,-36.4375,32.125,184.6875,-0.6650391,-0.8066406,-0.1669922,-0.04150391,0.2661133,-0.144043
939,-78.3125,27.1875,176.0625,-0.8237305,-0.8457031,-0.1821289,-0.02099609,0.2675781,-0.1401367
943,-85.9375,17.3125,169.75,-0.8857422,-1.26123,-0.07470703,-0.004394531,0.2685547,-0.1318359
947,-64.375,16.1875,173.0625,-0.8007813,-1.45166,-0.05126953,0.005859375,0.2685547,-0.1279297
951,-43.0625,27.75,177.125,-0.715332,-1.362305,-0.05517578,0.02246094,0.2685547,-0.125
955,-53.25,33.375,174.0625,-0.9052734,-1.210938,-0.109375,0.04052734,0.2661133,-0.1196289
959,-64.875,22,164.5625,-1.037109,-1.296387,-0.09375,0.05224609,0.2661133,-0.1166992
963,-53.5625,12,163.375,-0.9594727,-1.486816,-0.02441406,0.06787109,0.262207,-0.1113281
967,-37.3125,17.0625,162.0625,-0.8354492,-1.428223,-0.1015625,0.08300781,0.2597656,-0.1074219
971,-48.125,19.3125,155.75,-0.9477539,-1.222656,-0.1938477,0.09277344,0.2563477,-0.1044922
975,-70.9375,9.875,145.8125,-0.9946289,-1.296387,-0.1552734,0.1079102,0.2524414,-0.09912109
979,-73.875,5.25,138.0625,-0.9829102,-1.471191,-0.112793,0.1176758,0.2475586,-0.09375
983,-50,6.375,132.6875,-0.9365234,-1.595215,-0.01318359,0.128418,0.2460938,-0.08984375
987,-20.875,11,134.5625,-0.9516602,-1.447754,-0.05908203,0.1391602,0.2397461,-0.08544922
991,-21.625,13,133.75,-0.9438477,-1.249512,-0.1245117,0.1508789,0.2324219,-0.08544922
995,-38.6875,9.4375,121.375,-0.9750977,-1.183594,-0.1401367,0.1567383,0.2285156,-0.08300781
1000,-45.5,0.625,110,-0.9594727,-1.338867,-0.08984375,0.1689453,0.2250977,-0.08007813
1004,-16.75,6.4375,99.5,-0.8276367,-1.374023,-0.02050781,0.1748047,0.2172852,-0.07861328
1008,16.1875,18.125,90.8125,-0.8393555,-1.102051,-0.01318359,0.1796875,0.2138672,-0.07470703
1012,15.375,20.6875,96.4375,-1.095215,-0.7446289,-0.1323242,0.1865234,0.2075195,-0.07763672
1016,-21.0625,1.875,111.875,-1.157227,-0.7016602,-0.2246094,0.1948242,0.2011719,-0.07470703
1020,-40.25,-6.6875,105.5,-0.8818359,-1.012695,-0.1782227,0.2011719,0.1972656,-0.07617188
1024,-26.25,-0.4375,93.25,-0.796875,-1.222656,-0.1513672,0.2094727,0.1923828,-0.07470703
1028,-5.5625,11.4375,86.1875,-0.78125,-1.11377,-0.1206055,0.2128906,0.1835938,-0.06933594
1032,2.625,15.4375,93.125,-0.9438477,-0.9853516,-0.07470703,0.2177734,0.1801758,-0.07177734
1036,4.1875,5.375,99.4375,-0.9633789,-0.9272461,-0.1015625,0.2260742,0.1748047,-0.07080078
1040,-4.375,-8.75,91.625,-0.9013672,-0.9311523,-0.1474609,0.2294922,0.1674805,-0.06933594
1044,-20.25,-15.6875,70.4375,-0.6767578,-0.9775391,-0.1630859,0.2353516,0.1625977,-0.06933594
1048,-35.5,-13.75,44.4375,-0.6689453,-1.024414,-0.1591797,0.2392578,0.1586914,-0.07177734
1052,-49.25,-26.8125,26.9375,-0.715332,-1.245605,-0.1743164,0.2402344,0.15625,-0.06933594
1056,-30.5,-26.3125,18.4375,-0.5488281,-1.614746,-0.06689453,0.2412109,0.1577148,-0.07080078
1060,17.3125,-4.1875,7.75,-0.4790039,-1.743164,-0.001464844,0.2402344,0.1547852,-0.07080078
1064,63.3125,13.875,1,-0.6342773,-1.580078,-0.04394531,0.2402344,0.1538086,-0.07324219
1068,75.125,14.375,-8.4375,-0.8085938,-1.257324,-0.112793,0.2426758,0.1538086,-0.07177734
1072,52.8125,7.875,-19.3125,-0.8549805,-1.136719,-0.1474609,0.2412109,0.1538086,-0.07763672
1076,26.4375,0,-38.5,-0.8745117,-1.226563,-0.109375,0.2402344,0.1538086,-0.07861328
1080,12.3125,-9.625,-57.125,-0.8164063,-1.447754,-0.08984375,0.2392578,0.1577148,-0.08007813
1084,2.75,-8.1875,-72.625,-0.7231445,-1.618652,-0.03222656,0.234375,0.1611328,-0.08154297
1088,4,-3.375,-87.75,-0.7192383,-1.809082,0.02880859,0.2285156,0.1660156,-0.08300781
1092,18.6875,2.9375,-102.3125,-0.7734375,-1.914063,0.09423828,0.2236328,0.1699219,-0.08300781
1096,38.4375,5.625,-116.3125,-0.9287109,-1.882813,0.1289063,0.2202148,0.1772461,-0.08447266
1100,49,-2.5625,-130.9375,-1.091309,-1.743164,0.09033203,0.2119141,0.1850586,-0.08544922
1104,52.1875,-12.3125,-146.25,-1.129883,-1.622559,0.03662109,0.2045898,0.1914063,-0.08691406
1108,51.625,-20.1875,-158.8125,-1.125977,-1.537109,-0.03222656,0.1938477,0.2026367,-0.09375
1112,49.1875,-21.375,-169.5625,-1.12207,-1.48291,-0.07861328,0.1806641,0.2084961,-0.09667969
1116,47.75,-24,-179.1875,-1.180664,-1.490723,-0.128418,0.1713867,0.2163086,-0.1020508
1120,49.25,-23.5,-187.5625,-1.133789,-1.509766,-0.1054688,0.1557617,0.2250977,-0.1044922
1124,60.875,-19.875,-195.1875,-1.199707,-1.505859,-0.109375,0.1416016,0.2324219,-0.1113281
1129,72.1875,-19.625,-196.25,-1.273438,-1.405273,-0.128418,0.1293945,0.2373047,-0.112793
1133,76.3125,-19.0625,-193.0625,-1.227051,-1.29248,-0.1743164,0.1142578,0.2451172,-0.1196289
1137,71.1875,-20.5625,-199.3125,-1.234863,-1.078613,-0.2207031,0.09619141,0.25,-0.1264648
1141,49.8125,-26.3125,-204.5,-1.203613,-0.9311523,-0.2553711,0.08544922,0.2524414,-0.1303711
1145,26.1875,-28.875,-205.75,-1.118652,-0.9311523,-0.2324219,0.06298828,0.2573242,-0.1347656
1149,16,-28,-207.0625,-1.044922,-1.012695,-0.1821289,0.04638672,0.2612305,-0.1386719
1153,24.1875,-21.1875,-201.4375,-0.9477539,-1.109863,-0.1323242,0.03173828,0.2636719,-0.1347656
1157,44.3125,-9.3125,-192,-0.9169922,-1.040039,-0.09375,0.01269531,0.2651367,-0.137207
1161,52.875,-5,-184.8125,-0.8935547,-0.8183594,-0.1166992,-0.006835938,0.2651367,-0.1416016
1165,33,-6.0625,-186,-0.9287109,-0.5151367,-0.1323242,-0.02001953,0.2651367,-0.1469727
1169,2.0625,-18.625,-181.4375,-0.9013672,-0.534668,-0.0859375,-0.03515625,0.2661133,-0.1455078
1173,-6.9375,-20,-174.1875,-0.6884766,-0.6938477,0.02490234,-0.05224609,0.2612305,-0.1425781
1177,-0.5625,-16.9375,-169,-0.6962891,-0.8300781,0.1020508,-0.06640625,0.262207,-0.144043
1181,16.5625,-21.6875,-163.1875,-0.5722656,-0.9194336,0.140625,-0.08056641,0.2587891,-0.1416016
1185,34.6875,-15.5,-154.375,-0.5292969,-0.8417969,0.159668,-0.09619141,0.2539063,-0.1425781
1189,37.8125,-18.4375,-147.9375,-0.5449219,-0.7680664,0.1132813,-0.1079102,0.25,-0.1455078
1193,31.8125,-26.1875,-142.75,-0.4594727,-0.7524414,0.09814453,-0.1201172,0.2436523,-0.1494141
1197,32.625,-32.5625,-143,-0.3125,-0.7641602,0.06738281,-0.1352539,0.2387695,-0.1494141
1201,40.875,-35.8125,-149.875,-0.2504883,-0.7792969,0.06738281,-0.1450195,0.2324219,-0.1484375
1205,55.1875,-34,-144.3125,-0.1499023,-0.6513672,0.03662109,-0.1591797,0.2236328,-0.1508789
1209,63.5,-25.75,-128.125,-0.06835938,-0.4609375,-0.04394531,-0.1708984,0.2138672,-0.1538086
1213,56.8125,-19.6875,-113.8125,-0.08398438,-0.1577148,-0.0859375,-0.1757813,0.2060547,-0.1547852
1217,32.1875,-19.6875,-100.4375,-0.04492188,0.05517578,-0.1015625,-0.1865234,0.2001953,-0.1591797
1221,3.6875,-19.3125,-88.5,-0.06054688,0.08642578,-0.05126953,-0.1948242,0.1938477,-0.1591797
1225,-8.8125,-21.5,-77,0.03173828,-0.01416016,0.02880859,-0.2006836,0.1899414,-0.1577148
1229,-0.125,-21.1875,-69.25,0.07861328,-0.1113281,0.08251953,-0.2045898,0.1860352,-0.1547852
1233,20.875,-20.0625,-57.75,0.140625,-0.1772461,0.09814453,-0.2114258,0.1811523,-0.1547852
1237,39.625,-11.25,-46.5625,0.2724609,0.008789063,0.05566406,-0.2138672,0.1787109,-0.1547852
1241,30.0625,-7.625,-40.875,0.1328125,0.21875,-0.01318359,-0.21875,0.1738281,-0.15625
1245,10.875,-16.3125,-28.0625,0.1484375,0.284668,-0.04394531,-0.21875,0.1689453,-0.1577148
1249,-9.1875,-19.125,-9.8125,0.2412109,0.08642578,-0.04736328,-0.2236328,0.1699219,-0.1538086
1253,-4.875,-14.75,1.4375,0.3808594,-0.1499023,0.04052734,-0.222168,0.1689453,-0.15625
1258,12.5625,-7.8125,8.4375,0.3691406,-0.2978516,0.05957031,-0.2236328,0.1699219,-0.1523438
1262,36.875,-1.9375,17.5625,0.4272461,-0.3134766,0.07519531,-0.2236328,0.1689453,-0.1547852
1266,53.75,9,26.9375,0.4077148,-0.1420898,0.02880859,-0.222168,0.1689453,-0.1577148
1270,41.25,13.1875,40.8125,0.2836914,0.09423828,-0.08984375,-0.2211914,0.1689453,-0.1616211
1274,1.625,8.375,54.5,0.2177734,0.1293945,-0.1166992,-0.2163086,0.1699219,-0.1630859
1278,-28.3125,4.1875,61.75,0.3032227,-0.07617188,-0.02832031,-0.2128906,0.1738281,-0.1630859
1282,-32.375,6.1875,68.9375,0.2724609,-0.3989258,0.02880859,-0.2089844,0.1787109,-0.1591797
1286,-13.0625,10.9375,74.4375,0.3457031,-0.5463867,0.09423828,-0.2055664,0.1850586,-0.1616211
1290,7.4375,20.8125,79.25,0.3110352,-0.4609375,0.04785156,-0.199707,0.1875,-0.1606445
1294,11.5,28,88,0.1445313,-0.3833008,0.06347656,-0.1914063,0.1923828,-0.1630859
1298,-1.1875,24.3125,94.3125,0.06689453,-0.3134766,0.01708984,-0.1855469,0.1972656,-0.1645508
1302,-20.25,17.5625,91.6875,0.05126953,-0.324707,0.04443359,-0.1791992,0.2026367,-0.1660156
1306,-33.4375,11.625,93.9375,0.06298828,-0.3598633,-0.001464844,-0.1723633,0.2075195,-0.1674805
1310,-39.25,16.75,96.5,0.04736328,-0.4921875,0.09423828,-0.1665039,0.2138672,-0.1645508
1314,-15.5,22.6875,99.0625,-0.1459961,-0.6396484,0.1518555,-0.1557617,0.21875,-0.1630859
1318,13.0625,26.375,119.6875,-0.2929688,-0.5541992,0.08251953,-0.1459961,0.2236328,-0.1660156
1322,-3.9375,23.4375,143.8125,-0.1147461,-0.2431641,-0.05517578,-0.1391602,0.2275391,-0.1660156
1326,-45.375,25.75,133.0625,-0.2041016,-0.2353516,-0.1206055,-0.1269531,0.2324219,-0.1645508
1330,-77.25,11.5625,123.6875,-0.3242188,-0.5737305,-0.05126953,-0.1137695,0.2397461,-0.1616211
1334,-51.5,11.4375,124.3125,-0.3320313,-0.8959961,0.07910156,-0.1044922,0.2436523,-0.1577148
1338,-5.625,28.375,139.875,-0.3974609,-0.9233398,0.09423828,-0.09228516,0.2485352,-0.15625
1342,1.3125,39.4375,164.5625,-0.4829102,-0.4882813,-0.05517578,-0.08056641,0.25,-0.1547852
1346,-44.375,33.1875,170,-0.6342773,-0.4492188,-0.1630859,-0.06640625,0.2548828,-0.1547852
1350,-77.1875,16.125,158.875,-0.6376953,-0.8417969,-0.1015625,-0.05078125,0.2563477,-0.1538086
1354,-47.625,16.4375,152.5,-0.5141602,-1.257324,0.05957031,-0.03515625,0.262207,-0.1469727
1358,-9.625,34.375,168.875,-0.5292969,-1.136719,-0.04003906,-0.0234375,0.262207,-0.1484375
1362,-13.125,51.0625,173.1875,-0.6962891,-0.8803711,-0.05126953,-0.006835938,0.2636719,-0.1469727
1366,-41.25,40.0625,166.25,-0.9594727,-0.8183594,-0.09765625,0.01171875,0.2612305,-0.144043
1370,-62.3125,20.3125,163.0625,-0.9365234,-1.020508,-0.04394531,0.02148438,0.262207,-0.1416016
1374,-49.5,22.75,165.875,-0.699707,-1.280762,-0.009277344,0.03808594,0.2612305,-0.1386719
1378,-31.75,37.5625,166.5625,-0.765625,-1.265137,-0.04736328,0.05224609,0.2597656,-0.1357422
1382,-33.8125,40.9375,163.75,-0.9711914,-1.086426,-0.07080078,0.06396484,0.2573242,-0.1333008
1387,-65.6875,30.625,161.625,-1.060547,-1.062988,-0.07861328,0.08056641,0.2548828,-0.1289063
1391,-84.8125,13.8125,151.75,-1.021484,-1.315918,-0.03613281,0.09521484,0.25,-0.1235352
1395,-74.125,7.4375,142.1875,-0.862793,-1.501953,-0.005371094,0.105957,0.2475586,-0.1166992
1399,-51.6875,13.9375,141.1875,-0.8125,-1.498535,-0.04736328,0.1166992,0.2436523,-0.1113281
1403,-44.9375,22.5,139.5,-0.8706055,-1.408691,-0.09765625,0.128418,0.2397461,-0.1088867
1407,-49.4375,21.25,128.625,-1.013672,-1.358398,-0.09765625,0.1342773,0.2363281,-0.1044922
1411,-46.8125,11.8125,123.9375,-1.005859,-1.471191,-0.01318359,0.1474609,0.2314453,-0.09765625
1415,-25.8125,14.0625,120.375,-0.9169922,-1.490723,0.009765625,0.1567383,0.2250977,-0.09667969
1419,-7.875,14.4375,116.75,-0.8745117,-1.319336,-0.005371094,0.1630859,0.2211914,-0.09521484
1423,-17.25,17.3125,112.3125,-0.8666992,-1.171875,-0.1513672,0.1723633,0.2138672,-0.09375
1427,-37.8125,17.6875,95.875,-0.9711914,-1.152344,-0.109375,0.1806641,0.2114258,-0.09082031
1431,-42.6875,9.8125,83.125,-0.9711914,-1.241699,-0.04736328,0.1855469,0.2060547,-0.08691406
1435,-31.875,10.875,74.875,-0.9091797,-1.280762,0.02099609,0.1914063,0.2001953,-0.08447266
1439,-7.3125,14.0625,73.8125,-0.9130859,-1.226563,0.05175781,0.1972656,0.1972656,-0.08154297
1443,10.375,14.875,75.75,-0.9399414,-1.016602,0.009765625,0.2021484,0.1962891,-0.08154297
1447,12,12.0625,76.875,-0.9516602,-0.8339844,-0.05908203,0.2080078,0.1914063,-0.08300781
1451,1.1875,7.1875,73.8125,-0.9516602,-0.7172852,-0.1015625,0.2128906,0.1835938,-0.08154297
1455,-17.5625,-0.875,66.375,-0.9130859,-0.6977539,-0.1435547,0.215332,0.1811523,-0.08007813
1459,-28.8125,-3.0625,57.25,-0.8510742,-0.7563477,-0.1206055,0.2202148,0.1787109,-0.08154297
1463,-30.75,-2.9375,54.5,-0.8745117,-0.7949219,-0.09375,0.2236328,0.1738281,-0.07861328
1467,-26.4375,-5.25,58.8125,-0.8164063,-0.9155273,-0.08984375,0.2260742,0.1713867,-0.07763672
1471,-18.875,-0.125,56.8125,-0.7192383,-1.004883,-0.09375,0.2294922,0.1689453,-0.07470703
1475,-8.5,3.4375,47.625,-0.715332,-1.094238,-0.09375,0.2319336,0.1635742,-0.07617188
1479,3.4375,5.25,36.875,-0.7036133,-1.090332,-0.07861328,0.234375,0.1611328,-0.07617188
1483,5.75,5.25,29.0625,-0.7348633,-1.047363,-0.07861328,0.2368164,0.1577148,-0.07324219
1487,0.5625,1.625,20.25,-0.7114258,-1.090332,-0.1166992,0.237793,0.15625,-0.07470703
1491,-2.875,-0.1875,10.75,-0.6962891,-1.269043,-0.1206055,0.2402344,0.1547852,-0.07177734
1495,0.5,0,-3.5,-0.6611328,-1.432129,-0.1015625,0.2392578,0.1547852,-0.07617188
1499,14.875,0.1875,-18.75,-0.6494141,-1.603027,-0.08203125,0.2402344,0.1577148,-0.07470703
1503,31.75,4.0625,-33.875,-0.6806641,-1.723633,-0.07861328,0.2392578,0.1577148,-0.07470703
1507,48.25,1.9375,-49.6875,-0.6962891,-1.840332,-0.1362305,0.2353516,0.1601563,-0.07763672
1511,65.5625,8.8125,-69.1875,-0.6303711,-1.789551,-0.1054688,0.2329102,0.1625977,-0.08007813
1516,69.1875,12.4375,-85.5,-0.765625,-1.700195,-0.1782227,0.2294922,0.1650391,-0.08447266
1520,60.3125,6.625,-98.5,-0.8393555,-1.61084,-0.1899414,0.2260742,0.1713867,-0.08984375
1524,51.3125,2.9375,-111.9375,-0.8549805,-1.645996,-0.1782227,0.2163086,0.1748047,-0.09228516
1528,55.375,6.5,-127.1875,-0.8706055,-1.67334,-0.1708984,0.2119141,0.1811523,-0.09228516
1532,58.3125,7.0625,-140.375,-1.001953,-1.657715,-0.1591797,0.2045898,0.1899414,-0.09667969
1536,70.0625,6.25,-153.875,-1.025391,-1.638184,-0.1166992,0.1948242,0.1972656,-0.09765625
1540,79.8125,7.25,-166.5,-1.103027,-1.517578,-0.1630859,0.1879883,0.2036133,-0.1020508
1544,79.375,5.1875,-176.0625,-1.219238,-1.362305,-0.1899414,0.1748047,0.2114258,-0.1074219
1548,74.5,-0.0625,-181.4375,-1.269531,-1.288574,-0.2055664,0.1606445,0.21875,-0.112793
1552,73.5625,-3.5,-182.3125,-1.253906,-1.22998,-0.1821289,0.1523438,0.2236328,-0.1166992
1556,76.25,-7.25,-180.0625,-1.257813,-1.245605,-0.1977539,0.1391602,0.2324219,-0.1235352
1560,88.375,-5.125,-177.6875,-1.145508,-1.21875,-0.2246094,0.1235352,0.2348633,-0.1289063
1564,94.5625,0.6875,-180.25,-1.106934,-1.074707,-0.2514648,0.112793,0.2412109,-0.1333008
1568,88.5,0.5,-181,-1.149414,-0.9155273,-0.2436523,0.09863281,0.2436523,-0.1416016
1572,73.3125,-5.3125,-182.4375,-1.149414,-0.8261719,-0.1782227,0.08300781,0.2460938,-0.1484375
1576,63.3125,-11.4375,-172.875,-1.048828,-0.8725586,-0.1591797,0.06982422,0.25,-0.1523438
1580,60.6875,-7.375,-169.5,-0.9868164,-0.8417969,-0.08984375,0.05712891,0.2539063,-0.15625
1584,53.125,-11.1875,-166.875,-1.071777,-0.8027344,-0.04394531,0.0390625,0.2548828,-0.1616211
1588,52.9375,-19.25,-161.6875,-0.9672852,-0.9194336,-0.02441406,0.02978516,0.2548828,-0.1660156
1592,61.25,-13.6875,-163.5625,-0.8666992,-0.8496094,0.06347656,0.01269531,0.2548828,-0.168457
1596,71.1875,-22.1875,-157.5,-0.878418,-0.8686523,-0.01318359,-0.003417969,0.2524414,-0.175293
1600,81,-22.125,-150.75,-0.6264648,-0.6708984,-0.09375,-0.01269531,0.25,-0.175293
1604,73.8125,-12.1875,-149.8125,-0.6533203,-0.484375,-0.2089844,-0.02685547,0.2475586,-0.1835938
1608,61.5,-13.375,-139.125,-0.6264648,-0.3676758,-0.2167969,-0.04150391,0.2436523,-0.1904297
1612,44.1875,-10,-125.375,-0.5292969,-0.3208008,-0.1860352,-0.04980469,0.2412109,-0.1904297
1616,35.375,-9.0625,-114.4375,-0.4482422,-0.3208008,-0.1591797,-0.06298828,0.2387695,-0.1958008
1620,25.4375,-2.8125,-101.3125,-0.3354492,-0.2861328,-0.1166992,-0.07128906,0.2324219,-0.1972656
1624,19.875,-1.5,-96.75,-0.2734375,-0.355957,-0.112793,-0.078125,0.2324219,-0.1972656
1628,12.6875,-2,-99.0625,-0.2504883,-0.324707,-0.0859375,-0.08544922,0.2285156,-0.2011719
1632,7.125,-0.875,-93.4375,-0.1806641,-0.2939453,-0.0859375,-0.09375,0.2250977,-0.199707
1636,-1.5,3.875,-85,-0.1884766,-0.2587891,-0.1362305,-0.09960938,0.2226563,-0.2011719
1640,-9,6.125,-71.3125,-0.1264648,-0.2978516,-0.1323242,-0.1054688,0.2197266,-0.2026367
1645,-2.1875,12.1875,-54.25,0.0009765625,-0.3911133,-0.05908203,-0.1113281,0.2197266,-0.2011719
1649,6.875,24.1875,-45.6875,0.05908203,-0.355957,0.06347656,-0.1113281,0.21875,-0.2011719
1653,7,25.6875,-36.1875,0.004882813,-0.324707,0.1171875,-0.1162109,0.2172852,-0.2011719
1657,-4.875,21.0625,-34.75,-0.05664063,-0.3325195,0.1787109,-0.1152344,0.2148438,-0.2041016
1661,-13.875,11,-30.4375,0.03173828,-0.3833008,0.1557617,-0.1162109,0.2138672,-0.199707
1665,-22.75,10.9375,-26.125,0.09033203,-0.4921875,0.2211914,-0.1186523,0.2138672,-0.2026367
1669,-13.75,10.9375,-20.1875,0.1557617,-0.6240234,0.2133789,-0.1220703,0.2148438,-0.2026367
1673,-8.25,21.5625,-18.3125,0.08642578,-0.6005859,0.2441406,-0.1235352,0.2124023,-0.2026367
1677,-1.9375,12.25,-17.375,0.04345703,-0.519043,0.09423828,-0.1210938,0.2124023,-0.2011719
1681,-14.25,12.0625,-13.75,0.125,-0.3286133,0.09033203,-0.1210938,0.2138672,-0.2011719
1685,-20.5,5.6875,-3.1875,0.1674805,-0.3637695,-0.08203125,-0.1220703,0.2124023,-0.2011719
1689,-27.4375,8.1875,11.0625,0.3457031,-0.3911133,-0.112793,-0.1210938,0.2163086,-0.199707
1693,-31,22,15.5,0.4272461,-0.3950195,-0.1977539,-0.1201172,0.2163086,-0.1987305
1697,-44.1875,44.25,21.875,0.2875977,-0.453125,-0.07080078,-0.1176758,0.2172852,-0.1987305
1701,-39.125,48,23.75,0.05517578,-0.5698242,0.06347656,-0.1152344,0.2226563,-0.1943359
1705,-29.1875,41.125,30.3125,0.04736328,-0.5073242,0.144043,-0.1103516,0.2260742,-0.1928711
1709,-30.75,36.5625,31.25,0.07861328,-0.4296875,0.05566406,-0.1069336,0.2275391,-0.1928711
1713,-39.6875,39.25,31.9375,0.01660156,-0.3481445,0.03662109,-0.1010742,0.2299805,-0.1904297
1717,-47.0625,34.875,34.5625,-0.1499023,-0.3793945,-0.1435547,-0.09863281,0.2324219,-0.1875
1721,-50.625,37.625,37.625,-0.08007813,-0.1811523,-0.08984375,-0.09375,0.2348633,-0.1865234
1725,-54.1875,39.625,53.75,-0.262207,-0.2084961,-0.2285156,-0.08642578,0.2397461,-0.1835938
1729,-47.8125,40.75,77.0625,-0.1499023,-0.1616211,-0.2783203,-0.08056641,0.2426758,-0.1796875
1733,-43.25,57.125,86.375,-0.215332,-0.08789063,-0.3012695,-0.07470703,0.2436523,-0.1767578
1737,-51.375,63.8125,101.125,-0.2734375,0.1020508,-0.4516602,-0.06494141,0.2485352,-0.1767578
1741,-103.75,71.8125,103.6875,-0.3432617,0.3466797,-0.3476563,-0.05224609,0.2509766,-0.1713867
1745,-178.1875,56.5,122.9375,-0.5991211,0.07470703,-0.3823242,-0.04394531,0.2587891,-0.1630859
1749,-206.5625,35.6875,134.0625,-0.4672852,-0.7250977,-0.07861328,-0.02929688,0.2685547,-0.1455078
1753,-179.6875,31.0625,120.75,-0.5024414,-1.374023,0.1904297,-0.01611328,0.2749023,-0.1279297
1757,-117.25,32.8125,122,-0.5605469,-1.544922,0.2675781,-0.005859375,0.2788086,-0.1181641
1761,-70.3125,44.1875,128.3125,-0.5683594,-1.408691,0.3481445,0.005859375,0.2797852,-0.1074219
1765,-40.6875,42.1875,126.75,-0.6923828,-1.191406,0.3134766,0.02001953,0.2797852,-0.1035156
1769,-38.1875,30.9375,127.0625,-0.8125,-0.9077148,0.1865234,0.03076172,0.2788086,-0.1005859
1774,-65.5,12.75,140.75,-0.9594727,-0.9892578,0.01708984,0.04394531,0.2788086,-0.09667969
1778,-78.8125,-3.5,148,-0.7114258,-1.21875,0.09423828,0.05810547,0.2773438,-0.08984375
1782,-69.625,-1.8125,146.3125,-0.6650391,-1.350586,0.1210938,0.06884766,0.2749023,-0.08447266
1786,-61.4375,-4.1875,150.25,-0.6845703,-1.385742,0.1289063,0.08300781,0.2700195,-0.07861328
1790,-45.1875,-6.9375,145.1875,-0.715332,-1.436035,0.05175781,0.09619141,0.2661133,-0.07617188
1794,-43.375,-8.875,136.6875,-0.878418,-1.374023,-0.02441406,0.105957,0.262207,-0.07324219
1798,-45.625,-22.5,123.8125,-0.9248047,-1.300293,-0.128418,0.1142578,0.2587891,-0.06933594
1802,-43.9375,-33.25,114,-0.862793,-1.210938,-0.07080078,0.1269531,0.2539063,-0.06787109
1806,-41.875,-37.5,125.5,-0.730957,-1.183594,-0.2016602,0.1357422,0.2485352,-0.06640625
1810,-39.8125,-31.375,125.625,-0.5488281,-1.11377,-0.2363281,0.1450195,0.2451172,-0.06396484
1814,-46.625,-24.9375,115.75,-0.5991211,-1.086426,-0.3012695,0.1557617,0.2397461,-0.06396484
1818,-50.875,-19.6875,108.5,-0.8432617,-1.207031,-0.2783203,0.1630859,0.2338867,-0.06103516
1822,-44.625,-20.125,108.75,-0.8818359,-1.308105,-0.1591797,0.1689453,0.2285156,-0.05712891
1826,-15.9375,-21.0625,102.8125,-0.9013672,-1.327148,-0.0859375,0.1796875,0.2226563,-0.05712891
1830,5.5,-21.625,103.5,-0.9287109,-1.055176,-0.1166992,0.1821289,0.2197266,-0.05859375
1834,-8.5,-33.9375,106.6875,-0.9594727,-0.8066406,-0.3325195,0.1928711,0.2138672,-0.06103516
1838,-48.5625,-49.25,94.9375,-0.9516602,-0.8144531,-0.4975586,0.1972656,0.2050781,-0.0625
1842,-80.8125,-54.3125,86.1875,-0.8007813,-1.125488,-0.4594727,0.2021484,0.2026367,-0.05957031
1846,-69.125,-52.6875,78,-0.7504883,-1.436035,-0.378418,0.2055664,0.1987305,-0.06103516
1850,-32,-46,74.625,-0.6030273,-1.463379,-0.394043,0.2128906,0.1923828,-0.05712891
1854,-13.1875,-26.8125,69,-0.5874023,-1.179688,-0.4321289,0.215332,0.1899414,-0.05957031
1858,-20.625,-24.9375,58.5,-0.7114258,-0.9697266,-0.4863281,0.2202148,0.1850586,-0.06103516
1862,-43.5,-31.125,47.0625,-0.6689453,-0.8647461,-0.5092773,0.2236328,0.1811523,-0.0625
1866,-71.4375,-29,35.375,-0.6264648,-0.8842773,-0.4707031,0.2236328,0.1801758,-0.05957031
1870,-89.0625,-29.25,25.3125,-0.699707,-1.008789,-0.3706055,0.2270508,0.1787109,-0.05859375
1874,-98.25,-32.125,17.75,-0.6884766,-1.164063,-0.2900391,0.2270508,0.1748047,-0.05273438
1878,-94.0625,-31.875,9.4375,-0.6264648,-1.370117,-0.2016602,0.2285156,0.1772461,-0.05029297
1882,-77.9375,-29.5625,-0.4375,-0.5795898,-1.529297,-0.1513672,0.2270508,0.1772461,-0.04345703
1886,-50.3125,-24.375,-17.1875,-0.5566406,-1.591309,-0.08984375,0.2270508,0.1762695,-0.04345703
1890,-39.75,-19.6875,-31.5,-0.6845703,-1.401367,-0.07861328,0.2285156,0.1801758,-0.04345703
1894,-53.125,-26.875,-41.75,-0.7231445,-1.432129,-0.1015625,0.2236328,0.1811523,-0.04052734
1898,-63.9375,-31.375,-59.125,-0.7075195,-1.568359,0.001953125,0.2211914,0.1850586,-0.03955078
1903,-62,-38.5,-72,-0.7617188,-1.852051,0.08251953,0.2177734,0.1875,-0.03662109
1907,-53.3125,-39.375,-88.5625,-0.78125,-1.968262,0.159668,0.2128906,0.1948242,-0.03662109
1911,-39,-47.25,-111.9375,-0.9287109,-2.205566,0.1210938,0.2045898,0.2011719,-0.03271484
1915,-13.8125,-54.375,-129.625,-0.9326172,-2.422852,0.05957031,0.1987305,0.2036133,-0.03515625
1919,37.5625,-49.375,-146.75,-0.8974609,-2.52002,-0.009277344,0.1889648,0.2148438,-0.03662109
1923,86.0625,-42.5625,-154.625,-0.9868164,-2.294922,-0.2475586,0.1748047,0.2236328,-0.04199219
1927,104.9375,-40.5625,-165.8125,-1.048828,-2.026855,-0.4438477,0.1674805,0.2285156,-0.04882813
1931,103.1875,-44.8125,-179.4375,-1.12207,-1.781738,-0.5898438,0.1547852,0.2363281,-0.06103516
1935,93.4375,-44.75,-189.9375,-1.103027,-1.669434,-0.6245117,0.1357422,0.2436523,-0.07080078
1939,92.8125,-42.625,-198.5,-1.137695,-1.603027,-0.6669922,0.125,0.2485352,-0.07861328
1943,82.9375,-39.1875,-206.9375,-1.07959,-1.479004,-0.6630859,0.1079102,0.2563477,-0.08544922
1947,78.5,-32.8125,-215.75,-1.099121,-1.513672,-0.6015625,0.08691406,0.2597656,-0.09375
1951,93.6875,-24.625,-221,-1.083496,-1.45166,-0.5629883,0.07617188,0.2651367,-0.09912109
1955,100,-13,-222.4375,-1.114746,-1.148438,-0.5708008,0.05322266,0.2675781,-0.1088867
1959,82.3125,-13.5,-222.9375,-1.25,-0.8496094,-0.5283203,0.03076172,0.2700195,-0.1166992
1963,62.6875,-20.8125,-215.25,-1.219238,-0.7832031,-0.4321289,0.01904297,0.2709961,-0.1210938
1967,56.8125,-22.0625,-202.875,-1.063965,-0.7250977,-0.3632813,-0.0009765625,0.2700195,-0.1279297
1971,52.0625,-15.375,-189.1875,-0.9365234,-0.6279297,-0.3208008,-0.02099609,0.2700195,-0.1303711
1975,39.375,-16.875,-178.25,-0.9130859,-0.6162109,-0.2939453,-0.03417969,0.2685547,-0.1318359
1979,31.875,-17.8125,-173.875,-0.730957,-0.6938477,-0.1899414,-0.05322266,0.2636719,-0.1333008
1983,35.75,-11.6875,-174,-0.6225586,-0.7602539,-0.1323242,-0.06884766,0.2612305,-0.1357422
1987,42,-5.5,-168.1875,-0.6225586,-0.6513672,-0.112793,-0.07958984,0.2573242,-0.1357422
1991,30.875,-10.0625,-158.875,-0.6225586,-0.5424805,-0.09375,-0.09472656,0.2524414,-0.1401367
1995,23.0625,-14.5,-151.25,-0.5175781,-0.6821289,0.02099609,-0.1103516,0.2475586,-0.1416016
1999,42.5,-12.3125,-144.1875,-0.3974609,-0.7753906,0.04785156,-0.1201172,0.2436523,-0.144043
2003,60.625,-8.6875,-139.6875,-0.362793,-0.5893555,0.001953125,-0.1318359,0.2373047,-0.1469727
2007,61.5,-8.5625,-132.8125,-0.3125,-0.387207,-0.06689453,-0.1435547,0.2285156,-0.1494141
2011,52.0625,-11,-123.6875,-0.2583008,-0.2978516,-0.05517578,-0.1533203,0.2250977,-0.1538086
2015,56.25,-12.5625,-111.3125,-0.1845703,-0.3017578,-0.02050781,-0.1625977,0.2172852,-0.1577148
2019,68.6875,-10.5,-94.625,-0.1147461,-0.1850586,-0.07470703,-0.1733398,0.2084961,-0.1591797
2023,68.8125,-10.1875,-84.25,-0.04492188,0.01660156,-0.109375,-0.1772461,0.2036133,-0.1630859
2027,55.75,-8.125,-74.75,-0.002441406,0.203125,-0.1206055,-0.1855469,0.1948242,-0.1699219
2032,33.4375,-11.75,-62.1875,0.01269531,0.2573242,-0.1977539,-0.1865234,0.1899414,-0.1699219
2036,0.5625,-12.0625,-56.9375,0.1674805,0.3310547,-0.1630859,-0.1914063,0.1875,-0.168457
2040,-16.0625,-10.4375,-47.375,0.1367188,0.1176758,-0.07861328,-0.1962891,0.1835938,-0.1699219
2044,-9.1875,-6.9375,-25.5,0.2451172,-0.08398438,-0.009277344,-0.199707,0.1811523,-0.1699219
2048,7.875,5.5,-9.375,0.3227539,-0.1308594,0.03271484,-0.2021484,0.1811523,-0.1660156
2052,14.6875,12.25,1.1875,0.2797852,-0.06835938,0.02490234,-0.2021484,0.1801758,-0.168457
2056,3.9375,10.875,6.4375,0.2451172,0.0009765625,0.03662109,-0.199707,0.1801758,-0.1728516
2060,-10.6875,2,12.8125,0.2255859,-0.1459961,0.04052734,-0.1982422,0.1787109,-0.1699219
2064,-11.0625,0.9375,15.8125,0.3574219,-0.2666016,0.08251953,-0.1982422,0.1826172,-0.1699219
2068,0.1875,9.5625,18.8125,0.3378906,-0.3056641,0.1098633,-0.1972656,0.1826172,-0.168457
2072,6.875,12.4375,34.5625,0.2685547,-0.1616211,0.04443359,-0.1962891,0.1835938,-0.1699219
2076,-9.125,14.1875,51.125,0.2294922,-0.1381836,0.02490234,-0.1923828,0.1850586,-0.1713867
2080,-24,11.9375,59.9375,0.2724609,-0.2744141,0.02099609,-0.1875,0.1914063,-0.1738281
2084,-28.3125,15.75,60.1875,0.2685547,-0.3833008,0.09033203,-0.184082,0.1923828,-0.1713867
2088,-23.0625,16,62.4375,0.1484375,-0.4414063,0.1098633,-0.1806641,0.1972656,-0.1699219
2092,-18.75,16.125,66.3125,0.1015625,-0.4726563,0.1635742,-0.1723633,0.2026367,-0.1699219
2096,-17.375,11.4375,81.25,0.06298828,-0.4296875,0.05175781,-0.1699219,0.2060547,-0.1699219
2100,-22.25,14.0625,90,0.1015625,-0.4726563,0.04785156,-0.1625977,0.2114258,-0.168457
2104,-13.9375,16.8125,94.4375,0.04736328,-0.565918,0.005859375,-0.1557617,0.2148438,-0.1674805
2108,-3.0625,28.625,104.75,0.04345703,-0.5229492,0.01708984,-0.1494141,0.21875,-0.168457
2112,-5.25,34.375,114.625,-0.1069336,-0.4492188,-0.005371094,-0.1376953,0.2226563,-0.168457
2116,-39.4375,27.25,114.5625,-0.1420898,-0.3442383,-0.01318359,-0.1269531,0.2285156,-0.1699219
2120,-58.4375,16.1875,106.9375,-0.2583008,-0.6396484,0.02490234,-0.1201172,0.2324219,-0.1660156
2124,-49.375,14.3125,107.75,-0.215332,-0.7753906,0.125,-0.1103516,0.2387695,-0.1616211
2128,-21.8125,20.4375,114.4375,-0.3203125,-0.8496094,0.08251953,-0.09863281,0.2436523,-0.1606445
2132,-2.5625,27.625,122,-0.362793,-0.6787109,0.06738281,-0.09130859,0.2451172,-0.1616211
2136,-20.25,23.5,141.5,-0.3901367,-0.3793945,-0.1206055,-0.078125,0.2475586,-0.1630859
2140,-71.375,17.6875,144.1875,-0.4248047,-0.421875,-0.128418,-0.06640625,0.2524414,-0.15625
2144,-96.0625,7.5625,140.5,-0.4790039,-0.8339844,-0.1323242,-0.05810547,0.2587891,-0.1547852
2148,-67.25,8.875,132,-0.4130859,-1.207031,0.01708984,-0.04394531,0.262207,-0.1469727
2152,-10.9375,28.5625,136.1875,-0.4326172,-1.059082,-0.01660156,-0.03076172,0.2636719,-0.1425781
2156,-30.4375,44.6875,158.4375,-0.6069336,-0.534668,-0.1015625,-0.02099609,0.2651367,-0.144043
2161,-94.1875,27.75,164.4375,-0.8818359,-0.5966797,-0.2089844,-0.004394531,0.2661133,-0.1386719
2165,-137.3125,-0.75,153.8125,-0.8164063,-1.070801,-0.1362305,0.01171875,0.2675781,-0.1303711
2169,-110.625,-8,141,-0.5913086,-1.552734,-0.02832031,0.02246094,0.2709961,-0.1225586
2173,-44.9375,14.125,136.3125,-0.5292969,-1.412598,0.04052734,0.03417969,0.2700195,-0.112793
2177,-38.5625,21.5625,160.625,-0.746582,-1.024414,-0.2167969,0.04882813,0.2685547,-0.1113281
2181,-56.6875,15.125,157.875,-0.7075195,-1.117676,-0.2514648,0.06054688,0.2675781,-0.1074219
2185,-54.25,17.375,142.625,-0.7075195,-1.22998,-0.2324219,0.07226563,0.262207,-0.1035156
2189,-40.875,24.375,135.375,-0.8007813,-1.08252,-0.1743164,0.08691406,0.2612305,-0.09765625
2193,-55.0625,24.75,142.375,-0.9829102,-0.9467773,-0.2670898,0.09619141,0.2587891,-0.09667969
2197,-84,13.3125,140.625,-1.07959,-1.074707,-0.2631836,0.1079102,0.2524414,-0.08837891
2201,-91.0625,1.625,133.9375,-1.060547,-1.308105,-0.2055664,0.1201172,0.25,-0.08300781
2205,-72.6875,-2.5625,127.6875,-0.9052734,-1.443848,-0.1401367,0.1293945,0.2475586,-0.07617188
2209,-46.4375,6.0625,124.75,-0.8935547,-1.366211,-0.1401367,0.1391602,0.2426758,-0.07177734
2213,-31.25,9.75,127.625,-0.9169922,-1.241699,-0.1513672,0.1499023,0.2363281,-0.06787109
2217,-25.125,15.25,123.75,-0.9326172,-1.08252,-0.1630859,0.1582031,0.2324219,-0.06640625
2221,-34.5625,16.875,120.75,-1.071777,-0.9467773,-0.2167969,0.1674805,0.2260742,-0.06542969
2225,-59.75,5.8125,116.9375,-1.176758,-0.9272461,-0.1669922,0.1772461,0.21875,-0.0625
2229,-70.1875,-12.75,108.3125,-1.118652,-1.144531,-0.1245117,0.1821289,0.2148438,-0.05859375
2233,-56.25,-16.125,103.0625,-0.9399414,-1.253418,-0.02832031,0.1914063,0.2124023,-0.05175781
2237,-39.25,-12.25,101.375,-0.9091797,-1.222656,-0.07080078,0.1972656,0.2050781,-0.05029297
2241,-33,-14,100,-0.9091797,-1.175781,-0.1015625,0.203125,0.1987305,-0.04882813
2245,-29.6875,-17.5,95,-0.8276367,-1.233887,-0.1401367,0.2094727,0.1938477,-0.04638672
2249,-23.6875,-20.375,86.4375,-0.7504883,-1.296387,-0.1513672,0.2177734,0.1884766,-0.04736328
2253,-17.75,-18.5625,76.6875,-0.6728516,-1.374023,-0.1899414,0.2211914,0.1835938,-0.04736328
2257,-11.6875,-17.0625,64.125,-0.6689453,-1.424316,-0.1708984,0.2246094,0.1801758,-0.04736328
2261,-11.4375,-21.1875,54.75,-0.6806641,-1.48291,-0.2089844,0.230957,0.1738281,-0.04736328
2265,-10.8125,-24,45.625,-0.5795898,-1.630371,-0.2592773,0.2294922,0.1713867,-0.04882813
2269,-2.4375,-20.6875,29.8125,-0.4790039,-1.758789,-0.2900391,0.234375,0.1713867,-0.05029297
2273,17.9375,-14.5625,4.6875,-0.4287109,-1.890625,-0.3286133,0.2368164,0.1660156,-0.05175781
2277,32.0625,-12.25,-21.1875,-0.5214844,-1.863281,-0.394043,0.2353516,0.1699219,-0.05419922
2281,33.625,-17.25,-56.75,-0.4907227,-1.840332,-0.4282227,0.234375,0.1689453,-0.05566406
2285,32.25,-10.25,-88.1875,-0.5253906,-1.812988,-0.3823242,0.2270508,0.1748047,-0.06103516
2290,30.875,5.4375,-103.6875,-0.6303711,-1.766602,-0.3012695,0.2246094,0.1772461,-0.06103516
2294,25.4375,10.9375,-102.75,-0.7890625,-1.762695,-0.2514648,0.215332,0.1850586,-0.06542969
2298,25.75,15.375,-104.1875,-0.765625,-1.836426,-0.1513672,0.2119141,0.1914063,-0.06542969
2302,34.1875,21.75,-118.875,-0.878418,-1.875,-0.07861328,0.203125,0.1972656,-0.06542969
2306,43.8125,14.25,-138.4375,-1.017578,-1.855957,-0.08984375,0.1962891,0.2026367,-0.06640625
2310,53.25,7.375,-154.5,-1.037109,-1.793457,-0.0859375,0.184082,0.2114258,-0.06933594
2314,63.8125,6.6875,-166.9375,-1.052734,-1.704102,-0.1323242,0.1772461,0.2163086,-0.06933594
2318,70.0625,7.3125,-173.4375,-1.114746,-1.614746,-0.2016602,0.1640625,0.2260742,-0.07617188
2322,72,7.1875,-176.1875,-1.161133,-1.533203,-0.2246094,0.1499023,0.2338867,-0.07861328
2326,75.25,5.3125,-179.25,-1.176758,-1.517578,-0.2397461,0.1401367,0.2387695,-0.08447266
2330,85.5625,5.4375,-185.3125,-1.176758,-1.509766,-0.1938477,0.1259766,0.2460938,-0.08984375
2334,95.3125,7.9375,-191,-1.253906,-1.42041,-0.1899414,0.1079102,0.2509766,-0.09667969
2338,95.5625,0.8125,-199.3125,-1.335449,-1.253418,-0.1860352,0.09863281,0.2573242,-0.1035156
2342,89.5625,-12.75,-200.9375,-1.370117,-1.199219,-0.2207031,0.08056641,0.262207,-0.1113281
2346,87.9375,-19.5,-196.5,-1.25,-1.171875,-0.1669922,0.06152344,0.2636719,-0.1181641
2350,94.375,-19.9375,-193.25,-1.187988,-1.152344,-0.1552734,0.04980469,0.2651367,-0.125
2354,100.875,-22.875,-192.5625,-1.168945,-1.078613,-0.1630859,0.03173828,0.2651367,-0.1318359
2358,100.5625,-27.1875,-196.3125,-1.099121,-0.8725586,-0.1782227,0.01171875,0.2651367,-0.1425781
2362,84.0625,-35,-192.625,-1.044922,-0.7524414,-0.1743164,-0.0009765625,0.2636719,-0.1469727
2366,69,-39.625,-183.625,-0.8818359,-0.7988281,-0.1860352,-0.01855469,0.2612305,-0.1523438
2370,71.5625,-31.125,-177.875,-0.7036133,-0.8261719,-0.1015625,-0.0390625,0.2587891,-0.1577148
2374,77.0625,-25.0625,-181.0625,-0.7504883,-0.7211914,-0.0859375,-0.04980469,0.2539063,-0.1606445
2378,66.625,-29.5,-177.625,-0.746582,-0.5463867,-0.06689453,-0.06738281,0.2485352,-0.1674805
2382,52.4375,-33.1875,-165.9375,-0.7114258,-0.5424805,0.01367188,-0.08642578,0.2436523,-0.1713867
2386,45.8125,-37,-153.625,-0.5834961,-0.550293,0.05175781,-0.09619141,0.2397461,-0.1728516
2390,52.0625,-35.6875,-147.4375,-0.4443359,-0.519043,0.04785156,-0.1103516,0.2324219,-0.175293
2394,50.625,-33.125,-133.5,-0.4365234,-0.4375,0.03271484,-0.1235352,0.2250977,-0.175293
2398,52.25,-33.5625,-119.3125,-0.3354492,-0.5073242,0.01367188,-0.1328125,0.2197266,-0.1767578
2402,67,-30.625,-109.625,-0.1689453,-0.5424805,-0.009277344,-0.1425781,0.2138672,-0.1821289
2406,89.9375,-17.1875,-100,-0.03320313,-0.4492188,-0.02832031,-0.1542969,0.2050781,-0.1875
2410,99,-4.5,-86.75,-0.07226563,-0.2509766,-0.06298828,-0.1591797,0.1987305,-0.1904297
2414,95.0625,-3.9375,-77.5625,-0.1499023,-0.09960938,-0.06298828,-0.1650391,0.1884766,-0.1972656
2419,83.1875,-12.3125,-75.375,-0.1069336,0.09814453,-0.0859375,-0.1723633,0.1787109,-0.2026367
2423,57.5625,-23.0625,-73.875,-0.05664063,0.2573242,-0.1015625,-0.1757813,0.1738281,-0.206543
2427,29.3125,-31.5625,-65.3125,0.04736328,0.284668,-0.1015625,-0.1816406,0.1674805,-0.2094727
2431,4.75,-28.25,-46.1875,0.1557617,0.1601563,-0.09765625,-0.1875,0.1611328,-0.206543
2435,-1.25,-16.1875,-25.8125,0.2529297,0.004882813,-0.03222656,-0.1875,0.1611328,-0.206543
2439,7.3125,-1.6875,-10.0625,0.3149414,-0.07617188,0.009765625,-0.1923828,0.1601563,-0.2055664
2443,11.4375,11.6875,-0.125,0.2216797,-0.03369141,0.07519531,-0.1923828,0.1601563,-0.2041016
2447,12.5,14.3125,11.875,0.1210938,-0.02197266,0.09814453,-0.1923828,0.1586914,-0.206543
2451,5.625,4.6875,15.5,0.06689453,0.04003906,0.07519531,-0.1899414,0.1601563,-0.2080078
2455,-8.6875,-9.5,15,0.175293,0.1098633,0.005859375,-0.1899414,0.1586914,-0.2080078
2459,-26.1875,-2.1875,23,0.2568359,0.03613281,-0.005371094,-0.1899414,0.1601563,-0.2080078
2463,-27.875,7,39.8125,0.175293,-0.1035156,0.01708984,-0.1865234,0.1635742,-0.2055664
2467,-27.25,9.9375,55.25,0.1445313,-0.1459961,0.05175781,-0.184082,0.1689453,-0.2055664
2471,-27.375,13.0625,68.0625,0.1987305,-0.2124023,0.05957031,-0.1806641,0.1723633,-0.199707
2475,-24.25,17.6875,74.6875,0.1791992,-0.2978516,0.07128906,-0.1757813,0.1772461,-0.2026367
2479,-25.4375,22.5625,78.5,0.1713867,-0.2509766,0.05957031,-0.1699219,0.1835938,-0.2026367
2483,-37.375,24.25,83.0625,0.02050781,-0.3173828,0.07519531,-0.1625977,0.1850586,-0.2026367
2487,-48.1875,20.625,89.5,-0.002441406,-0.4067383,0.105957,-0.1582031,0.1938477,-0.2011719
2491,-46.1875,20.4375,85.875,-0.05273438,-0.4882813,0.1518555,-0.1484375,0.2001953,-0.1987305
2495,-41.6875,14.4375,87.25,-0.1499023,-0.4492188,0.09033203,-0.1435547,0.2036133,-0.1972656
2499,-39,16.0625,91.75,-0.1499023,-0.4453125,0.09033203,-0.1352539,0.2084961,-0.1943359
2503,-40.1875,18.6875,105.5625,-0.28125,-0.4257813,0.02099609,-0.1269531,0.2148438,-0.1918945
2507,-43.0625,17.6875,123.25,-0.262207,-0.484375,-0.01660156,-0.1210938,0.21875,-0.1889648
2511,-45.6875,21.875,128.9375,-0.2773438,-0.5073242,-0.04394531,-0.1079102,0.2260742,-0.1865234
2515,-57.8125,23.5,130.125,-0.3823242,-0.46875,-0.09375,-0.09619141,0.2324219,-0.1850586
2519,-67.875,20.5,133.5,-0.4790039,-0.6083984,-0.09765625,-0.08886719,0.2363281,-0.1821289
2523,-75.875,19.4375,144.375,-0.4750977,-0.7211914,-0.07470703,-0.07470703,0.2426758,-0.175293
2527,-66.625,23.6875,141.1875,-0.5332031,-0.8686523,-0.05517578,-0.06298828,0.2485352,-0.1728516
2531,-67.375,26.1875,147.6875,-0.5874023,-0.7719727,-0.0859375,-0.05224609,0.25,-0.168457
2535,-77,24.125,151.9375,-0.6533203,-0.8105469,-0.09375,-0.03759766,0.2548828,-0.1630859
2539,-89.375,20.9375,157.25,-0.6689453,-0.9038086,-0.1206055,-0.02246094,0.2597656,-0.15625
2543,-86.5625,25.1875,154.375,-0.7773438,-1.070801,-0.1054688,-0.01171875,0.2597656,-0.1484375
2548,-76.5,24.0625,162.0625,-0.8745117,-1.152344,-0.1206055,0.002441406,0.2636719,-0.1469727
2552,-77.375,24.5,166,-0.7387695,-1.090332,-0.1552734,0.01757813,0.2651367,-0.1386719
2556,-83.125,28.875,162.0625,-0.8432617,-1.086426,-0.1206055,0.03173828,0.2651367,-0.1333008
2560,-96.4375,22.4375,165.5625,-0.9633789,-1.171875,-0.1630859,0.04736328,0.2651367,-0.1264648
2564,-92.875,19.625,162.25,-0.9248047,-1.366211,-0.07861328,0.06396484,0.262207,-0.1181641
2568,-62,27.75,157.625,-0.9438477,-1.501953,0.03271484,0.07470703,0.2612305,-0.112793
2572,-44.3125,28.375,167.4375,-1.029297,-1.199219,-0.06689453,0.08886719,0.2563477,-0.1088867
2576,-76.875,18.4375,159.9375,-1.087402,-0.9970703,-0.128418,0.1035156,0.2509766,-0.1020508
2580,-112.6875,-3.125,142.5625,-1.184082,-1.148438,-0.1899414,0.112793,0.25,-0.09521484
2584,-113.625,-16.9375,134.875,-1.017578,-1.471191,-0.112793,0.1259766,0.2460938,-0.08544922
2588,-78.375,-9.375,132.9375,-0.9326172,-1.603027,-0.05908203,0.1342773,0.2451172,-0.07861328
2592,-43.5625,-2.5,143.625,-0.9248047,-1.459473,-0.09375,0.144043,0.2397461,-0.07617188
2596,-41.75,4.6875,142.375,-0.8857422,-1.284668,-0.128418,0.1547852,0.2338867,-0.07324219
2600,-46,0.9375,131.6875,-1.013672,-1.308105,-0.1245117,0.1650391,0.2236328,-0.07080078
2604,-34.5625,-6.1875,128.125,-0.9365234,-1.467285,-0.06298828,0.1723633,0.2211914,-0.06787109
2608,-2.5625,-0.5,120.6875,-0.8125,-1.439941,-0.01660156,0.1821289,0.2138672,-0.06640625
2612,27.25,5.5625,121.3125,-0.831543,-1.296387,-0.05908203,0.1914063,0.2075195,-0.06787109
2616,30.875,8,128.625,-0.847168,-1.055176,-0.1669922,0.1987305,0.2026367,-0.06933594
2620,9.5625,6.6875,120.875,-0.8393555,-1.016602,-0.2592773,0.2070313,0.1923828,-0.06933594
2624,-14.75,-0.1875,100.625,-0.831543,-1.109863,-0.3129883,0.2138672,0.1860352,-0.07177734
2628,-31.375,0.625,85.4375,-0.7543945,-1.308105,-0.2207031,0.21875,0.1811523,-0.06933594
2632,-25.4375,4.5,79.4375,-0.730957,-1.638184,-0.08203125,0.2236328,0.1748047,-0.06640625
2636,-1.75,9.8125,74.0625,-0.7075195,-1.770508,0.01708984,0.2294922,0.1699219,-0.06787109
2640,11.625,10.25,65.8125,-0.7231445,-1.785645,0.001953125,0.2319336,0.1689453,-0.06396484
2644,15.75,0.125,43.75,-0.6767578,-1.812988,-0.02050781,0.237793,0.1611328,-0.06542969
2648,11.3125,-9,18.3125,-0.6030273,-1.824707,-0.08984375,0.237793,0.1586914,-0.06640625
2652,6.9375,-11.75,-11.8125,-0.4946289,-1.890625,-0.1015625,0.2402344,0.1577148,-0.06787109
2656,13,-9.375,-41.0625,-0.4946289,-1.949219,-0.0859375,0.237793,0.1586914,-0.06933594
2660,30.0625,-3.25,-67.375,-0.5332031,-1.9375,-0.05126953,0.2353516,0.1625977,-0.07177734
2664,43.5,2.6875,-83.625,-0.6923828,-1.789551,-0.05908203,0.2319336,0.1650391,-0.07324219
2668,42.3125,0.375,-93.9375,-0.831543,-1.708008,-0.08203125,0.2260742,0.1723633,-0.07470703
2672,39.8125,-5.25,-108.0625,-0.8974609,-1.750977,-0.02832031,0.2202148,0.1787109,-0.07763672
2677,50.625,-8.25,-127.375,-0.8974609,-1.809082,-0.04003906,0.2138672,0.1835938,-0.08007813
2681,62.4375,-6.5625,-145.1875,-0.9750977,-1.727539,-0.05126953,0.2055664,0.1914063,-0.08544922
2685,63.9375,-10.75,-159.625,-1.11084,-1.626465,-0.09375,0.1948242,0.2011719,-0.08984375
2689,63.5,-18.1875,-168.3125,-1.12207,-1.64209,-0.0859375,0.1865234,0.2060547,-0.09375
2693,71.0625,-16.875,-174.75,-1.137695,-1.626465,-0.07080078,0.1738281,0.2148438,-0.09765625
2697,78.6875,-16.875,-178.625,-1.199707,-1.548828,-0.1054688,0.1591797,0.2226563,-0.1035156
2701,84.0625,-19.6875,-182.5,-1.246094,-1.509766,-0.1435547,0.1508789,0.2260742,-0.1098633
2705,91,-20.5625,-187.3125,-1.23877,-1.45166,-0.1435547,0.1342773,0.2338867,-0.1166992
2709,94.6875,-20.0625,-194.5625,-1.23877,-1.350586,-0.1552734,0.1201172,0.2397461,-0.125
2713,98.6875,-20.6875,-198.75,-1.265625,-1.26123,-0.1630859,0.1079102,0.2436523,-0.1303711
2717,98.4375,-22.3125,-201.25,-1.28125,-1.164063,-0.1245117,0.09033203,0.2485352,-0.1386719
2721,94.125,-27.8125,-197.875,-1.285156,-1.070801,-0.1054688,0.07128906,0.25,-0.1484375
2725,91.25,-33.5625,-193.3125,-1.184082,-0.9892578,-0.07861328,0.05957031,0.2524414,-0.1538086
2729,86.4375,-35.3125,-188.3125,-1.114746,-0.9116211,-0.07861328,0.04052734,0.2539063,-0.1616211
2733,74.5625,-38.4375,-185.0625,-1.07959,-0.8261719,-0.08984375,0.02148438,0.2509766,-0.1674805
2737,59.6875,-44.625,-180.75,-0.9946289,-0.8378906,-0.05126953,0.008300781,0.2509766,-0.1713867
2741,58.375,-44.0625,-171.75,-0.8276367,-0.9970703,-0.01660156,-0.0078125,0.2509766,-0.1767578
2745,73.1875,-35.5,-172.375,-0.7192383,-1.016602,0.001953125,-0.02587891,0.2485352,-0.1821289
2749,84,-31.0625,-168.5625,-0.7231445,-0.8496094,-0.02832031,-0.03662109,0.2436523,-0.1835938
2753,78.25,-31.3125,-163.25,-0.6884766,-0.7016602,-0.04394531,-0.05566406,0.2373047,-0.1904297
2757,65.8125,-37.9375,-148,-0.6342773,-0.6708984,-0.05517578,-0.06884766,0.2314453,-0.1943359
2761,57.875,-35.875,-143.75,-0.4052734,-0.6591797,-0.01318359,-0.078125,0.2275391,-0.199707
2765,49.25,-31.625,-142.875,-0.4130859,-0.5966797,-0.009277344,-0.09375,0.2226563,-0.2026367
2769,38.625,-31.5625,-137.75,-0.4208984,-0.5698242,0.05566406,-0.1054688,0.2163086,-0.2026367
2773,43.4375,-30.5625,-132.4375,-0.4130859,-0.6591797,0.1367188,-0.1152344,0.2124023,-0.2041016
2777,68.625,-33.9375,-128.25,-0.4052734,-0.6318359,0.1557617,-0.1259766,0.2036133,-0.2055664
2781,88.0625,-39.125,-127.4375,-0.3007813,-0.3208008,0.05175781,-0.1391602,0.1948242,-0.2109375
2785,83.6875,-39.125,-129.875,-0.2426758,0.0009765625,-0.02832031,-0.1474609,0.1884766,-0.2148438
2789,54.5625,-43.1875,-119.4375,-0.2661133,0.2885742,-0.08984375,-0.1567383,0.1772461,-0.21875
2793,24.75,-50.3125,-100.25,-0.1611328,0.4360352,-0.09375,-0.168457,0.1689453,-0.2177734
2797,1.25,-44.75,-73.125,0.05908203,0.2573242,-0.07861328,-0.1733398,0.1660156,-0.2163086
2801,-7.25,-29.875,-56.0625,0.1870117,0.2265625,-0.05517578,-0.1816406,0.1625977,-0.2133789
2806,-17.75,-18.4375,-41.125,0.1674805,0.1835938,-0.04394531,-0.1855469,0.1586914,-0.2119141
2810,-23.5,-11.125,-26.875,0.1328125,0.03613281,0.05566406,-0.1889648,0.1601563,-0.2109375
2814,-15,-9.375,-18.875,0.1674805,-0.09179688,0.1171875,-0.1914063,0.1586914,-0.2080078
2818,-1.3125,-6.0625,-13.8125,0.2294922,-0.08789063,0.144043,-0.1923828,0.1577148,-0.2080078
2822,5.5625,-2.5625,-5.5625,0.2026367,-0.03369141,0.105957,-0.1938477,0.1577148,-0.206543
2826,1.5,2.3125,6.8125,0.2177734,0.0009765625,0.09033203,-0.1923828,0.1577148,-0.2080078
2830,-3.125,3.9375,18,0.1635742,-0.04882813,0.1367188,-0.1923828,0.1586914,-0.2055664
2834,-4.8125,2.0625,33.5,0.1987305,-0.1113281,0.1479492,-0.1899414,0.1611328,-0.2041016
2838,-9.1875,4.25,41.1875,0.2333984,-0.1347656,0.1367188,-0.1875,0.1625977,-0.206543
2842,-13.75,1.9375,43.625,0.2138672,-0.2084961,0.1098633,-0.1855469,0.1635742,-0.2055664
2846,-16.4375,3.6875,46.4375,0.2412109,-0.2587891,0.105957,-0.184082,0.1660156,-0.2055664
2850,-20.75,5.3125,54.625,0.1831055,-0.3017578,0.09033203,-0.1791992,0.1713867,-0.2041016
2854,-28,5.625,63.75,0.1987305,-0.3286133,0.07519531,-0.1757813,0.1762695,-0.2026367
2858,-32.3125,8.75,66.8125,0.1870117,-0.3793945,0.07519531,-0.1733398,0.1801758,-0.2011719
2862,-32,12.875,71.875,0.1557617,-0.4179688,0.07128906,-0.1674805,0.1835938,-0.2011719
2866,-30.9375,17.5625,79.375,0.01269531,-0.7368164,0.07128906,-0.1616211,0.1914063,-0.1987305
2870,-24.5,16.875,85.875,0.04736328,-0.4804688,0.05175781,-0.1567383,0.1923828,-0.199707
2874,-18.5,23.9375,87.5,0.02832031,-0.4609375,0.04785156,-0.1494141,0.1987305,-0.199707
2878,-19,27.5,95.5,-0.02197266,-0.3442383,0.001953125,-0.1425781,0.2036133,-0.199707
2882,-37.5,31,106.3125,-0.1030273,-0.2822266,-0.03613281,-0.1352539,0.2075195,-0.199707
2886,-52.0625,31.375,110.375,-0.2348633,-0.4335938,-0.009277344,-0.1235352,0.2138672,-0.1958008
2890,-48.5625,31.375,116.3125,-0.3203125,-0.6123047,0.01708984,-0.112793,0.2197266,-0.1943359
2894,-35.6875,33.3125,125.3125,-0.3125,-0.5927734,0.04052734,-0.1069336,0.2226563,-0.1928711
2898,-51.8125,36.375,134.1875,-0.3046875,-0.4609375,-0.04736328,-0.09375,0.2275391,-0.1918945
2902,-73.75,36.25,129.375,-0.4829102,-0.5698242,-0.04003906,-0.078125,0.2363281,-0.1865234
2906,-76.1875,29.625,130.4375,-0.6264648,-0.8222656,0.04785156,-0.07128906,0.2397461,-0.1835938
2910,-41.875,31.375,137.5625,-0.7036133,-1.040039,0.08251953,-0.05908203,0.2451172,-0.1796875
2914,3.8125,44.0625,152.4375,-0.6728516,-0.9194336,0.08642578,-0.04394531,0.2475586,-0.1782227
2918,4.6875,51,168.9375,-0.730957,-0.503418,-0.06298828,-0.03320313,0.2485352,-0.1796875
2922,-45.4375,43.125,179.125,-0.862793,-0.3325195,-0.1743164,-0.01513672,0.2475586,-0.1796875
2926,-103,26.75,174.6875,-0.9516602,-0.6201172,-0.1899414,0.003417969,0.2509766,-0.175293
2930,-113.1875,14.75,170.125,-0.9438477,-1.102051,-0.1054688,0.01269531,0.2524414,-0.1674805
2935,-72.5625,20.125,164.5,-0.847168,-1.432129,0.02880859,0.02978516,0.2539063,-0.1606445
2939,-19.5625,38.9375,175.0625,-0.7270508,-1.245605,-0.04736328,0.04638672,0.2524414,-0.1547852
2943,-24.25,63.125,186.375,-0.8432617,-0.8613281,-0.1362305,0.05810547,0.2509766,-0.1547852
2947,-76.5625,60.3125,193.4375,-1.12207,-0.8066406,-0.2475586,0.07617188,0.2475586,-0.1494141
2951,-125.0625,43.625,194.4375,-1.07959,-1.203125,-0.1401367,0.09521484,0.2426758,-0.1416016
2955,-124.75,37.75,184.8125,-1.037109,-1.661621,-0.005371094,0.1079102,0.2397461,-0.1318359
2959,-74.6875,42.0625,172.5,-0.8896484,-1.987793,0.09814453,0.1225586,0.2363281,-0.1210938
2963,-25.1875,62.875,166.875,-0.8818359,-1.74707,0.1635742,0.1376953,0.2299805,-0.1181641
2967,-23.5,65.875,161.0625,-1.083496,-1.432129,0.03662109,0.1499023,0.2260742,-0.1142578
2971,-52,48.875,144.625,-1.230957,-1.296387,0.06738281,0.1630859,0.2172852,-0.1088867
2975,-71.1875,23.25,125.8125,-1.261719,-1.424316,0.06738281,0.1757813,0.2114258,-0.1035156
2979,-61.5,5.9375,114.125,-1.157227,-1.537109,0.1020508,0.1806641,0.2084961,-0.09912109
2983,-38.5625,4.1875,108.25,-1.021484,-1.447754,0.05175781,0.1889648,0.2036133,-0.09667969
2987,-25.25,6.5625,105.1875,-1.009766,-1.249512,-0.02441406,0.1972656,0.1972656,-0.09228516
2991,-25.75,4,103.4375,-0.9946289,-1.090332,-0.06689453,0.2011719,0.1923828,-0.09228516
2995,-37.125,0.3125,99.1875,-0.9594727,-1.004883,-0.1245117,0.2094727,0.1860352,-0.08984375
2999,-47.0625,-4.375,86.5625,-0.9130859,-1.020508,-0.1206055,0.2163086,0.1801758,-0.08544922
3003,-54.75,-7.5625,74.5625,-0.8896484,-1.016602,-0.1015625,0.21875,0.1787109,-0.08447266
3007,-60.625,-10.3125,68.875,-0.8974609,-1.016602,-0.06298828,0.2236328,0.1723633,-0.08154297
3011,-69.5,-17.1875,68.0625,-0.8935547,-1.090332,-0.07080078,0.2270508,0.1699219,-0.07861328
3015,-66.25,-26.25,65.75,-0.7231445,-1.370117,-0.09375,0.2294922,0.1660156,-0.07470703
3019,-42.6875,-20.5,60.8125,-0.5566406,-1.556641,-0.06298828,0.234375,0.1625977,-0.07324219
3023,-12.625,-6.875,47.25,-0.4326172,-1.61084,-0.06298828,0.2368164,0.1586914,-0.07324219
3027,8.25,6.875,27.375,-0.4790039,-1.521484,-0.07470703,0.2392578,0.1577148,-0.07177734
3031,13.625,5.375,11.25,-0.6147461,-1.459473,-0.1015625,0.2412109,0.1547852,-0.07324219
3035,14.125,2.5,-5.5625,-0.6108398,-1.424316,-0.07861328,0.2402344,0.1523438,-0.07324219
3039,12.25,1.5,-21.125,-0.6455078,-1.408691,-0.0859375,0.2402344,0.15625,-0.07324219
3043,5.5,-3.5625,-39.375,-0.6962891,-1.37793,-0.1206055,0.237793,0.15625,-0.07470703
3047,-9.375,-10.75,-56.9375,-0.6845703,-1.42041,-0.1323242,0.2368164,0.1601563,-0.07470703
3051,-11.0625,-11.0625,-74,-0.6533203,-1.630371,-0.09375,0.2329102,0.1635742,-0.07470703
3055,7.125,-5.875,-90.75,-0.6572266,-1.743164,-0.04003906,0.2285156,0.1699219,-0.07470703
3059,34.1875,2.625,-99.625,-0.7036133,-1.719727,-0.04736328,0.222168,0.1762695,-0.07861328
3064,50.1875,9.9375,-105.125,-0.8046875,-1.606934,-0.07861328,0.21875,0.1801758,-0.08007813
3068,50.625,8.8125,-113.5,-0.8818359,-1.513672,-0.1206055,0.2094727,0.1884766,-0.08007813
3072,44.25,4.4375,-130.125,-0.9365234,-1.479004,-0.09765625,0.2021484,0.1938477,-0.08300781
3076,41.125,-1.3125,-146.5,-1.001953,-1.521484,-0.08984375,0.1962891,0.2001953,-0.08544922
3080,45.4375,-2.6875,-156.5,-1.025391,-1.556641,-0.05517578,0.184082,0.2075195,-0.08691406
3084,56.375,-1.9375,-162.0625,-1.067871,-1.618652,-0.02441406,0.1723633,0.2172852,-0.09228516
3088,76.25,0.5625,-163.8125,-1.137695,-1.649902,-0.02441406,0.1640625,0.2197266,-0.09521484
3092,93.875,1.125,-165.1875,-1.187988,-1.544922,-0.05126953,0.1499023,0.2275391,-0.1035156
3096,98,-5.25,-166.6875,-1.25,-1.393555,-0.07470703,0.1391602,0.2338867,-0.1088867
3100,91.6875,-16.375,-169.0625,-1.230957,-1.327148,-0.08984375,0.1308594,0.2373047,-0.1142578
3104,86,-25.1875,-174.125,-1.141602,-1.354492,-0.09765625,0.1142578,0.2426758,-0.1235352
3108,88.5,-24.4375,-176.3125,-1.11084,-1.432129,-0.07470703,0.09960938,0.2475586,-0.1303711
3112,94.875,-23.8125,-177.6875,-1.083496,-1.401367,-0.08984375,0.08789063,0.25,-0.1357422
3116,95.375,-24.0625,-180.625,-1.114746,-1.338867,-0.0859375,0.07128906,0.2509766,-0.144043
3120,94.5625,-30.75,-182.125,-1.07959,-1.331055,-0.07470703,0.0546875,0.2539063,-0.1538086
3124,101.8125,-29,-183.8125,-1.013672,-1.342773,-0.04394531,0.04150391,0.2539063,-0.1577148
3128,111.875,-29.875,-181.1875,-1.071777,-1.296387,-0.04736328,0.02587891,0.2524414,-0.1674805
3132,114.125,-37.5625,-180.125,-1.013672,-1.22998,-0.08203125,0.006835938,0.2485352,-0.1782227
3136,117,-38.1875,-186.6875,-0.8432617,-1.222656,-0.06689453,-0.005859375,0.2475586,-0.1806641
3140,126,-35.25,-189.4375,-0.8354492,-1.171875,-0.09765625,-0.02246094,0.2412109,-0.1928711
3144,125.625,-33.9375,-188.875,-0.765625,-1.012695,-0.109375,-0.04248047,0.2338867,-0.2026367
3148,120.5,-32.1875,-183.875,-0.746582,-0.9233398,-0.09375,-0.05419922,0.2275391,-0.2080078
3152,112.75,-29.1875,-178.5625,-0.6806641,-0.7871094,-0.05517578,-0.07128906,0.2172852,-0.2177734
3156,102.6875,-30.625,-173.6875,-0.6611328,-0.6552734,-0.04736328,-0.08642578,0.2075195,-0.2255859
3160,87.5,-32.6875,-173.375,-0.5834961,-0.503418,0.001953125,-0.09619141,0.2001953,-0.2270508
3164,69.5,-37.75,-172.5625,-0.6342773,-0.4296875,0.02490234,-0.1113281,0.1899414,-0.2338867
3168,60.9375,-45.875,-166.5,-0.5644531,-0.4375,0.08642578,-0.1259766,0.1811523,-0.2368164
3172,64.6875,-43.1875,-156,-0.4482422,-0.3754883,0.1171875,-0.1376953,0.1738281,-0.237793
3176,74.6875,-38.8125,-145,-0.3974609,-0.2241211,0.09033203,-0.1494141,0.1625977,-0.2392578
3180,76.625,-35.8125,-132.3125,-0.3549805,0.01660156,0.04052734,-0.1601563,0.1499023,-0.2421875
3184,66.9375,-36.8125,-118.625,-0.3125,0.2495117,-0.02050781,-0.1674805,0.1425781,-0.2446289
3188,54.9375,-37.25,-99.375,-0.3046875,0.1953125,-0.05908203,-0.1782227,0.1313477,-0.2460938
3193,29.3125,-38.375,-86.375,-0.1806641,0.6381836,-0.07080078,-0.1855469,0.1210938,-0.2446289
3197,-6.75,-44.5,-68.875,-0.1767578,0.7548828,-0.05908203,-0.1889648,0.1176758,-0.2436523
3201,-35.0625,-51.9375,-49.625,-0.03710938,0.5566406,-0.06298828,-0.1962891,0.1152344,-0.2407227
3205,-38.4375,-48.25,-35,0.08642578,0.3349609,-0.01318359,-0.2021484,0.1152344,-0.2368164
3209,-20.5,-38.375,-21.5625,0.2177734,0.1484375,0.05566406,-0.2055664,0.1152344,-0.2299805
3213,8.125,-22.3125,-4.25,0.2724609,0.1367188,0.03271484,-0.2080078,0.1137695,-0.2299805
3217,20.4375,-6.625,12.5625,0.2412109,0.2573242,-0.02441406,-0.2089844,0.1152344,-0.2285156
3221,10.875,2.125,27.75,0.1831055,0.3779297,-0.04003906,-0.2080078,0.1152344,-0.2299805
3225,-6.875,1.25,45.125,0.1445313,0.3120117,-0.02441406,-0.206543,0.1162109,-0.2285156
3229,-18.6875,-1.3125,52.1875,0.1791992,0.1992188,0.02490234,-0.203125,0.1186523,-0.2285156
3233,-25.125,-1.875,59.375,0.1635742,0.09814453,0.005859375,-0.203125,0.125,-0.2270508
3237,-38.9375,-1.125,67.1875,0.1713867,0.02050781,-0.009277344,-0.199707,0.1274414,-0.2270508
3241,-46.5,1.9375,78.6875,0.1713867,-0.1499023,-0.009277344,-0.1948242,0.1386719,-0.2231445
3245,-42.375,11.1875,88.25,0.1987305,-0.2900391,0.01367188,-0.1923828,0.1411133,-0.2231445
3249,-33.875,20,97.5625,0.1870117,-0.2744141,-0.02441406,-0.1865234,0.1513672,-0.2231445
3253,-45.875,26.375,103.9375,0.159668,-0.2163086,-0.08984375,-0.1772461,0.1586914,-0.2216797
3257,-59.25,32.25,105.3125,0.01660156,-0.324707,-0.05908203,-0.1708984,0.1635742,-0.2216797
3261,-68.1875,33.5625,107.125,-0.1069336,-0.4335938,-0.02832031,-0.1640625,0.1723633,-0.2163086
3265,-71.4375,29.6875,111.0625,-0.2583008,-0.9389648,0.02099609,-0.1557617,0.1826172,-0.2148438
3269,-70.4375,25.625,115.0625,-0.1186523,-0.5151367,0.03271484,-0.1459961,0.1899414,-0.2119141
3273,-72.5625,29.1875,117.6875,-0.1923828,-0.550293,-0.05126953,-0.1376953,0.1972656,-0.206543
3277,-67.1875,37.375,123.6875,-0.3393555,-0.6669922,-0.009277344,-0.1245117,0.2060547,-0.2055664
3281,-55.5,42,149.5625,-0.4287109,-0.7016602,-0.07080078,-0.1176758,0.2114258,-0.2026367
3285,-65.1875,44.3125,162.8125,-0.347168,-0.6279297,-0.06689453,-0.1020508,0.21875,-0.199707
3289,-84.25,43.875,150.6875,-0.4985352,-0.6474609,-0.08203125,-0.08642578,0.2285156,-0.1972656
3293,-93.1875,36.4375,142.4375,-0.6342773,-0.8339844,0.001953125,-0.07714844,0.2324219,-0.1918945
3297,-84.6875,35.6875,160.375,-0.6533203,-0.9970703,0.02099609,-0.06298828,0.2397461,-0.1850586
3301,-74.25,43.3125,174.125,-0.6264648,-1.11377,0.04052734,-0.04736328,0.2451172,-0.1806641
3305,-70.875,45.125,172.6875,-0.7695313,-0.9350586,-0.06689453,-0.03320313,0.2485352,-0.1782227
3309,-102.875,31,164.25,-0.8896484,-0.8496094,-0.02050781,-0.01611328,0.2539063,-0.1713867
3313,-131.9375,11.625,170.0625,-0.9091797,-1.11377,-0.02441406,0,0.2573242,-0.1616211
3317,-128.625,2.9375,171.25,-0.8164063,-1.494629,0.09033203,0.009277344,0.2587891,-0.1523438
3322,-78.5,-2.625,161.125,-0.7734375,-1.882813,0.06347656,0.02587891,0.2612305,-0.1469727
3326,-10,16.3125,146.8125,-0.6303711,-1.773926,0.1289063,0.04150391,0.2612305,-0.1401367
3330,4.875,37.25,157.6875,-0.7734375,-1.342773,-0.04394531,0.05224609,0.2563477,-0.1416016
3334,-13.375,41,161.5,-0.878418,-1.15625,-0.01660156,0.06640625,0.2539063,-0.1401367
3338,-40.125,25.625,155.9375,-1.037109,-1.078613,-0.07080078,0.08056641,0.2485352,-0.1401367
3342,-62.9375,8.25,155.9375,-0.8857422,-1.214844,-0.1015625,0.09033203,0.2460938,-0.1347656
3346,-63.0625,13.625,148.375,-0.8164063,-1.389648,-0.1166992,0.1035156,0.2426758,-0.1289063
3350,-44.0625,22.375,144.75,-0.8164063,-1.428223,-0.1206055,0.1176758,0.2387695,-0.1235352
3354,-51.1875,32.0625,148.6875,-0.878418,-1.210938,-0.1669922,0.1269531,0.2363281,-0.1210938
3358,-68.125,32.9375,142.875,-0.9829102,-1.237793,-0.1054688,0.1376953,0.2324219,-0.1157227
3362,-73.25,26.5625,137.125,-1.071777,-1.315918,-0.04736328,0.1499023,0.2236328,-0.1098633
3366,-67.625,14,130.1875,-1.075684,-1.393555,-0.02050781,0.1567383,0.2211914,-0.1044922
3370,-55.1875,9.875,118.5625,-0.9130859,-1.381836,-0.02832031,0.1665039,0.2172852,-0.1005859
3374,-35.875,19.8125,109.125,-0.9633789,-1.272949,-0.005371094,0.1757813,0.2124023,-0.09375
3378,-24.25,24.9375,115.875,-1.009766,-1.070801,-0.01660156,0.1831055,0.2075195,-0.09375
3382,-30.8125,23.1875,126.5625,-1.063965,-0.9311523,0.001953125,0.1914063,0.2011719,-0.08984375
3386,-57.9375,6.6875,117.9375,-1.033203,-0.8842773,-0.06689453,0.2021484,0.1948242,-0.08544922
3390,-85.125,-14.625,96.125,-0.9555664,-1.121582,-0.04736328,0.2080078,0.1884766,-0.08447266
3394,-83.1875,-19.5,80.5,-0.7773438,-1.397461,0.02490234,0.2119141,0.1860352,-0.07861328
3398,-61.6875,-14.375,72.75,-0.7387695,-1.521484,0.09814453,0.2177734,0.1811523,-0.07324219
3402,-42.5625,-13.25,73.0625,-0.7192383,-1.568359,0.08251953,0.2202148,0.1772461,-0.07177734
3406,-29.25,-15.3125,68.8125,-0.6342773,-1.630371,0.05566406,0.2236328,0.1748047,-0.07080078
3410,-20.875,-15.5625,56.6875,-0.5410156,-1.67334,0.001953125,0.2294922,0.1674805,-0.06933594
3414,-14.9375,-13,36,-0.4711914,-1.735352,-0.02050781,0.2319336,0.1674805,-0.07080078
3418,-10,-14.125,14.875,-0.4672852,-1.777832,-0.04003906,0.234375,0.1650391,-0.06933594
3422,-9.375,-17.1875,-5.5,-0.4868164,-1.844238,-0.04394531,0.2329102,0.1635742,-0.07080078
3426,-2.625,-21.1875,-27.6875,-0.4907227,-1.968262,-0.06298828,0.2329102,0.1660156,-0.07177734
3430,18.875,-16.25,-52.6875,-0.4482422,-2.038574,-0.05908203,0.230957,0.1660156,-0.07080078
3434,42.3125,-8.75,-72.125,-0.5141602,-1.976074,-0.09765625,0.2246094,0.1713867,-0.07470703
3438,53.0625,-3.875,-85.0625,-0.5605469,-1.871094,-0.1552734,0.222168,0.1738281,-0.07861328
3442,51.875,0.75,-101.8125,-0.6225586,-1.805176,-0.1552734,0.2163086,0.1801758,-0.08154297
3446,48.625,0.75,-120.75,-0.7387695,-1.836426,-0.1743164,0.2080078,0.1875,-0.08447266
3451,52.9375,1.1875,-140.25,-0.831543,-1.844238,-0.1362305,0.2045898,0.1923828,-0.08837891
3455,61.375,1.1875,-155.9375,-0.9248047,-1.867188,-0.1552734,0.1938477,0.2001953,-0.09082031
3459,74.5,5.125,-171.875,-0.9946289,-1.793457,-0.1362305,0.1796875,0.2075195,-0.09521484
3463,80.25,4.625,-179.5625,-1.149414,-1.688477,-0.1743164,0.1738281,0.2148438,-0.09912109
3467,82.5,1.6875,-184.875,-1.184082,-1.599121,-0.1821289,0.1567383,0.2211914,-0.105957
3471,84.4375,-0.6875,-188.375,-1.223145,-1.568359,-0.2055664,0.1450195,0.2299805,-0.112793
3475,91,-1.375,-197.3125,-1.195801,-1.505859,-0.2016602,0.1333008,0.2338867,-0.1157227
3479,90.4375,-3.0625,-204.1875,-1.227051,-1.385742,-0.2363281,0.1186523,0.2412109,-0.1225586
3483,87.625,-3.5,-204.625,-1.234863,-1.342773,-0.2207031,0.09960938,0.2451172,-0.1289063
3487,88,-1.875,-203.8125,-1.199707,-1.300293,-0.2089844,0.08886719,0.2485352,-0.1347656
3491,92.75,0.875,-202.875,-1.141602,-1.21875,-0.1977539,0.07128906,0.2509766,-0.1416016
3495,88.625,-1.1875,-204.75,-1.199707,-1.070801,-0.1938477,0.05322266,0.2548828,-0.1484375
3499,76.375,-10.9375,-200.9375,-1.157227,-0.9658203,-0.1630859,0.04052734,0.2563477,-0.15625
3503,62.8125,-17,-194,-1.07959,-0.9775391,-0.1245117,0.02148438,0.2573242,-0.1606445
3507,58.8125,-15.1875,-185.5,-0.9516602,-0.9892578,-0.05126953,0.003417969,0.2548828,-0.1674805
3511,57.75,-19.5,-182.3125,-0.9516602,-1.008789,-0.02832031,-0.0078125,0.2548828,-0.168457
3515,55.4375,-25.625,-182.3125,-0.796875,-0.9892578,-0.02441406,-0.02490234,0.2524414,-0.1728516
3519,49.125,-24.75,-185.6875,-0.7695313,-1.047363,0.005859375,-0.04394531,0.2485352,-0.1767578
3523,60.6875,-24.25,-184,-0.7231445,-1.109863,0.04785156,-0.05810547,0.2451172,-0.1782227
3527,82.1875,-17.1875,-172.9375,-0.6303711,-1.11377,0.1132813,-0.07226563,0.2397461,-0.1821289
3531,107.6875,-6.9375,-163.3125,-0.6147461,-0.9658203,0.1132813,-0.08886719,0.2299805,-0.1904297
3535,113.3125,-6.375,-147.5625,-0.5756836,-0.7792969,0.07519531,-0.09716797,0.2236328,-0.1928711
3539,99.125,-11.6875,-141.8125,-0.5683594,-0.6201172,0.04443359,-0.109375,0.2148438,-0.2026367
3543,76.5,-24.6875,-143.5625,-0.4672852,-0.565918,0.05175781,-0.1245117,0.2050781,-0.2080078
3547,61.625,-32.1875,-149.1875,-0.362793,-0.5698242,0.07128906,-0.1318359,0.1987305,-0.2119141
3551,55.8125,-34.75,-149.75,-0.2929688,-0.5385742,0.1132813,-0.1450195,0.1884766,-0.2163086
3555,59.3125,-35.0625,-141.75,-0.246582,-0.565918,0.09814453,-0.1557617,0.1772461,-0.2163086
3559,67.5,-31.3125,-133.8125,-0.1689453,-0.4257813,0.08642578,-0.1665039,0.1713867,-0.2148438
3563,68.125,-28.125,-122.6875,-0.09912109,-0.2470703,0.02880859,-0.1748047,0.1586914,-0.2216797
3567,55.125,-26.25,-121.5,-0.07226563,-0.02978516,-0.02050781,-0.1855469,0.1489258,-0.2231445
3571,30.0625,-28.25,-116.5,-0.07226563,0.1020508,0.01708984,-0.1914063,0.1425781,-0.2255859
3575,16.0625,-31.6875,-107.8125,-0.09521484,0.07080078,0.03662109,-0.1982422,0.1337891,-0.2246094
3580,13.625,-33.1875,-91.75,0.0009765625,0.105957,0.005859375,-0.2080078,0.1289063,-0.2231445
3584,10.375,-22.8125,-72.9375,0.09765625,0.1875,0.02099609,-0.2080078,0.1225586,-0.2216797
3588,7.25,-15.625,-52.3125,0.08251953,0.2226563,0.01367188,-0.2138672,0.1176758,-0.2202148
3592,0.625,-9.6875,-32.3125,0.109375,0.2299805,0.06738281,-0.21875,0.1137695,-0.21875
3596,-0.625,-10.8125,-18.0625,0.1557617,0.171875,0.06347656,-0.2197266,0.1123047,-0.21875
3600,0.5,-9.9375,-13.8125,0.2026367,0.1875,0.125,-0.2197266,0.1098633,-0.2163086
3604,3.3125,-14.0625,-5.9375,0.1635742,0.2070313,0.09814453,-0.2236328,0.1098633,-0.2177734
3608,-3,-15.5625,8.75,0.2529297,0.2963867,0.04443359,-0.2246094,0.1113281,-0.2163086
3612,-18.5,-14.8125,18.3125,0.2529297,0.2924805,-0.009277344,-0.222168,0.1137695,-0.2163086
3616,-29.0625,-16,27.9375,0.3071289,0.2148438,-0.05126953,-0.222168,0.1152344,-0.2119141
3620,-33.9375,-6.0625,42.625,0.3071289,0.1254883,-0.04003906,-0.2236328,0.1186523,-0.2109375
3624,-35.875,2.5,57.625,0.2607422,0.06298828,-0.02441406,-0.2211914,0.1225586,-0.2080078
3628,-36.4375,5.25,72.3125,0.2026367,0.004882813,-0.001464844,-0.2172852,0.1298828,-0.2094727
3632,-41,7.0625,81.0625,0.190918,0.02832031,0.03271484,-0.2114258,0.1362305,-0.206543
3636,-59.5625,2.125,89.8125,0.07080078,0.06298828,-0.04394531,-0.2089844,0.1425781,-0.2055664
3640,-88.1875,-7.5,95.6875,0.01660156,-0.1152344,-0.04736328,-0.2045898,0.1538086,-0.1987305
3644,-86.0625,-12.375,102.75,0.05517578,-0.5073242,-0.009277344,-0.1982422,0.1611328,-0.1987305
3648,-56.9375,1.3125,113.6875,0.1328125,-0.8613281,0.04785156,-0.1938477,0.1699219,-0.1904297
3652,-28.125,19.625,116,0.09375,-0.46875,0.03662109,-0.184082,0.1787109,-0.1889648
3656,-40.5,21.5,128.9375,-0.07226563,-0.3134766,-0.09765625,-0.1791992,0.1875,-0.1875
3660,-57.8125,23.875,134.9375,-0.1420898,-0.4414063,-0.1015625,-0.1674805,0.1948242,-0.1865234
3664,-66.375,25.5,142.5,-0.2734375,-0.6357422,-0.07470703,-0.1557617,0.2050781,-0.1835938
3668,-65.875,19.6875,144.0625,-0.2700195,-0.7524414,0.03271484,-0.1474609,0.2138672,-0.1821289
3672,-69.5,12,149.1875,-0.2348633,-0.7988281,0.04052734,-0.1376953,0.2226563,-0.175293
3676,-71.5,11.9375,143.875,-0.230957,-0.9506836,0.04052734,-0.1210938,0.2299805,-0.1728516
3680,-64.4375,14.3125,145.25,-0.3862305,-1.059082,-0.001464844,-0.112793,0.2348633,-0.168457
3684,-43.8125,19.875,151.5,-0.3706055,-1.22998,0.07519531,-0.09960938,0.2426758,-0.1645508
3688,-18.0625,29.3125,161.4375,-0.3588867,-1.043945,0.01708984,-0.08398438,0.2460938,-0.1630859
3692,-37.8125,31.9375,157.0625,-0.5292969,-0.7680664,-0.02441406,-0.07568359,0.25,-0.1630859
3696,-79.25,14.8125,158.875,-0.8046875,-0.7910156,-0.1206055,-0.05908203,0.2548828,-0.1606445
3700,-113.4375,-12.25,158.625,-0.6923828,-1.098145,-0.06689453,-0.04394531,0.2597656,-0.1494141
3704,-93.8125,-16.375,158.5,-0.5913086,-1.494629,0.001953125,-0.03515625,0.2636719,-0.144043
3709,-40.625,0.625,163,-0.4169922,-1.544922,0.02099609,-0.02001953,0.2685547,-0.137207
3713,-36,19.5,180.3125,-0.5063477,-1.129395,-0.1743164,-0.0009765625,0.2675781,-0.1357422
3717,-67.4375,19.25,175.5,-0.6069336,-1.129395,-0.1782227,0.008300781,0.2675781,-0.1333008
3721,-90.125,9.0625,168.125,-0.7075195,-1.34668,-0.1860352,0.02490234,0.2661133,-0.125
3725,-77.75,4.5625,161.3125,-0.6147461,-1.61084,-0.112793,0.04248047,0.2685547,-0.1210938
3729,-33.625,14.9375,148.9375,-0.5253906,-1.64209,-0.05908203,0.05224609,0.2675781,-0.1142578
3733,-6.9375,29.875,152.1875,-0.5874023,-1.331055,-0.1206055,0.06640625,0.262207,-0.112793
3737,-26.875,34.9375,155.125,-0.6884766,-1.117676,-0.1782227,0.08056641,0.2573242,-0.112793
3741,-57.875,25.8125,148.875,-0.8046875,-1.203125,-0.1401367,0.09033203,0.2548828,-0.1113281
3745,-64.625,16.5,141.9375,-0.7773438,-1.424316,-0.07080078,0.105957,0.2539063,-0.1035156
3749,-46.3125,19.125,136.4375,-0.7387695,-1.509766,0.009765625,0.1166992,0.2485352,-0.09765625
3753,-21.8125,20.75,131.6875,-0.7695313,-1.447754,-0.02050781,0.125,0.2451172,-0.09667969
3757,-20.25,18.4375,131.25,-0.78125,-1.288574,-0.07861328,0.1376953,0.2387695,-0.09521484
3761,-34.125,12.875,126,-0.765625,-1.241699,-0.0859375,0.1474609,0.2324219,-0.09082031
3765,-39,8.0625,114.375,-0.746582,-1.300293,-0.04003906,0.1547852,0.2299805,-0.08984375
3769,-30.5625,6.1875,102.6875,-0.7734375,-1.288574,-0.04003906,0.1640625,0.2236328,-0.08691406
3773,-20.75,7.4375,99.9375,-0.8164063,-1.179688,-0.05908203,0.1723633,0.2197266,-0.08544922
3777,-17.6875,8.5625,101.3125,-0.8666992,-1.05127,-0.0859375,0.1772461,0.2172852,-0.08300781
3781,-23.3125,4.8125,103.4375,-0.9130859,-0.9892578,-0.1362305,0.184082,0.2099609,-0.08154297
3785,-30,3.25,102.9375,-0.9248047,-1.012695,-0.1362305,0.1914063,0.2036133,-0.08154297
3789,-29.4375,6.25,97.9375,-0.9013672,-1.070801,-0.09375,0.1972656,0.2001953,-0.07763672
3793,-16.9375,7.4375,87.8125,-0.9091797,-1.121582,-0.0859375,0.2045898,0.1923828,-0.07470703
3797,-4.0625,10.3125,83,-0.8896484,-1.05127,-0.02441406,0.2104492,0.1884766,-0.07470703
3801,0,6.0625,82.5,-0.9287109,-0.9814453,-0.05908203,0.215332,0.1850586,-0.07324219
3805,-3.75,-1.1875,77.0625,-0.8588867,-0.9233398,-0.08984375,0.2202148,0.1801758,-0.07470703
