Packet number,Gyroscope X (deg/s),Gyroscope Y (deg/s),Gyroscope Z (deg/s),Accelerometer X (g),Accelerometer Y (g),Accelerometer Z (g),Magnetometer X (G),Magnetometer Y (G),Magnetometer Z (G)
1,13,6.9375,-4.6875,-0.9555664,-0.02587891,-0.1591797,0.3081055,-0.046875,0.1069336
5,9.875,6.3125,-2.8125,-0.9907227,0.01269531,-0.1860352,0.3056641,-0.046875,0.1069336
9,1.9375,3,0.3125,-1.009766,0.04736328,-0.1977539,0.3071289,-0.04589844,0.1083984
13,-6.75,-1.4375,2.6875,-1.013672,0.05908203,-0.2167969,0.3071289,-0.04443359,0.1069336
17,-10.375,-2.9375,1.25,-0.9790039,0.03613281,-0.1977539,0.3071289,-0.04589844,0.1098633
21,-8.9375,-3,-1.6875,-0.9555664,-0.01806641,-0.1899414,0.3056641,-0.04589844,0.1083984
25,3.875,1,-5.75,-0.9130859,-0.1230469,-0.1708984,0.3056641,-0.04589844,0.1083984
29,12.9375,4.9375,-6.6875,-0.9555664,-0.08398438,-0.1860352,0.3071289,-0.04443359,0.1083984
33,14.4375,3.3125,-3.875,-0.9790039,-0.03369141,-0.1821289,0.3071289,-0.04443359,0.1083984
37,9.25,2.0625,-1.0625,-0.9829102,0.004882813,-0.1899414,0.3046875,-0.04296875,0.1083984
42,0.5625,-1.0625,2.8125,-0.9946289,0.02832031,-0.1899414,0.3071289,-0.04443359,0.1098633
46,-6.8125,-3.75,4.4375,-0.9750977,0.02441406,-0.1821289,0.3046875,-0.04296875,0.1069336
50,-7.625,-3.8125,4,-0.9438477,-0.02587891,-0.1743164,0.3056641,-0.04589844,0.1069336
54,-0.125,-0.4375,1.125,-0.9287109,-0.06445313,-0.1552734,0.3056641,-0.04443359,0.1069336
58,9.25,3.375,-1.6875,-0.9326172,-0.07226563,-0.1591797,0.3071289,-0.04589844,0.1083984
62,12.3125,4.9375,-2,-0.9594727,-0.03369141,-0.1708984,0.3071289,-0.04296875,0.1083984
66,8.8125,4.0625,0.0625,-0.9790039,0.01269531,-0.1782227,0.3071289,-0.04199219,0.1069336
70,2.25,2.125,2.375,-0.9907227,0.02441406,-0.1938477,0.3071289,-0.04443359,0.1098633
74,-2.6875,0.125,3.625,-1.001953,0.02441406,-0.1899414,0.3071289,-0.04443359,0.1083984
78,-2.375,-0.5625,2.625,-0.9790039,-0.01806641,-0.1669922,0.3046875,-0.04296875,0.1083984
82,2.5625,1.4375,-0.5625,-0.9555664,-0.03759766,-0.1591797,0.3056641,-0.04296875,0.1098633
86,7.3125,4.0625,-2.375,-0.9672852,-0.02587891,-0.1708984,0.3056641,-0.04443359,0.1083984
90,10.625,5.5,-3.75,-0.9946289,-0.006347656,-0.1821289,0.3071289,-0.04296875,0.1098633
94,9.5,4.3125,-5.0625,-1.021484,0.02441406,-0.1977539,0.3046875,-0.04199219,0.1113281
98,2.5,2.875,-4.0625,-1.029297,0.08251953,-0.1860352,0.3046875,-0.04052734,0.1098633
102,-7.25,1,-5.75,-1.060547,0.08251953,-0.1552734,0.3032227,-0.04052734,0.1098633
106,-13.1875,1.0625,-6.75,-1.11084,0.05126953,-0.1362305,0.3056641,-0.03955078,0.1113281
110,-13.75,3,-10.9375,-1.157227,-0.006347656,-0.1015625,0.3046875,-0.04199219,0.1113281
114,-8,9.8125,-16,-1.219238,-0.04541016,-0.09375,0.3032227,-0.04052734,0.1098633
118,-2.4375,16.5,-20.125,-1.331543,-0.05273438,-0.109375,0.3046875,-0.03808594,0.1123047
122,-3.1875,17.6875,-20.5,-1.40918,-0.002441406,-0.1743164,0.3032227,-0.03808594,0.1123047
126,-10.6875,21.6875,-21.25,-1.447754,0.0009765625,-0.2055664,0.3022461,-0.03564453,0.1166992
130,-17.75,18.5,-21.6875,-1.513672,-0.006347656,-0.2822266,0.3022461,-0.03564453,0.1166992
134,-18.25,15.5625,-22.25,-1.501953,-0.07226563,-0.3286133,0.3022461,-0.03320313,0.1181641
138,-13.125,13.625,-30.6875,-1.533203,-0.09179688,-0.3398438,0.2983398,-0.03173828,0.1206055
142,-9.125,9.75,-35.6875,-1.513672,-0.1074219,-0.3398438,0.2983398,-0.02929688,0.1220703
146,-11.25,4.5625,-36.875,-1.471191,-0.1035156,-0.3051758,0.2998047,-0.02587891,0.1235352
150,-17.625,-0.5,-37.625,-1.405273,-0.1074219,-0.324707,0.2983398,-0.0234375,0.1235352
154,-23.375,-7.6875,-36.25,-1.335449,-0.1459961,-0.3325195,0.2973633,-0.02050781,0.1235352
158,-21.9375,-12.625,-37.75,-1.253906,-0.2470703,-0.3515625,0.2973633,-0.01953125,0.1220703
162,-11.9375,-17.9375,-39.5625,-1.129883,-0.3442383,-0.3862305,0.2983398,-0.01708984,0.1206055
166,-0.4375,-21.25,-33.6875,-1.157227,-0.46875,-0.4052734,0.2983398,-0.01464844,0.1191406
171,7.25,-34.375,-27.6875,-1.025391,-0.3286133,-0.3745117,0.2983398,-0.009277344,0.1181641
175,14.9375,-40,-24.25,-0.8857422,-0.2861328,-0.3286133,0.2998047,-0.008300781,0.1137695
179,23.625,-40.4375,-22.625,-0.878418,-0.2861328,-0.394043,0.3007813,-0.006835938,0.1113281
183,29.1875,-57,-15.0625,-0.878418,-0.2353516,-0.3325195,0.3032227,-0.003417969,0.105957
187,26.4375,-68,-4.1875,-0.7387695,-0.1191406,-0.2397461,0.3046875,-0.001953125,0.1015625
191,20.375,-65.375,1.625,-0.6767578,-0.02978516,-0.1977539,0.3081055,-0.0004882813,0.09326172
195,15.1875,-60.5,-7,-0.5371094,0.008789063,-0.1245117,0.3115234,0,0.08691406
199,34.1875,-43.75,-35,-0.7075195,-0.2124023,-0.1821289,0.3105469,0.001464844,0.08398438
203,56.625,-57.0625,-36.25,-0.9594727,-0.3520508,-0.3359375,0.3115234,0.004882813,0.08007813
207,67.875,-97.5,-10.5625,-0.831543,-0.2783203,-0.1166992,0.3139648,0.01123047,0.07421875
211,53.375,-115.125,18.5,-0.3901367,0.05517578,0.1982422,0.3188477,0.01269531,0.05810547
215,19.5,-108.6875,34.5625,-0.1030273,0.3193359,0.4750977,0.3188477,0.01367188,0.05126953
219,-4.0625,-77.25,7.625,0.1791992,0.4633789,0.7138672,0.3222656,0.008789063,0.04199219
223,-22.1875,-15.9375,-34.9375,0.05517578,0.2807617,0.5712891,0.3222656,0.008789063,0.03613281
227,-37.25,8.375,-40.6875,-0.4130859,-0.1269531,0.2172852,0.3222656,0.01269531,0.03515625
231,-38.8125,9.5,-19.3125,-0.5913086,-0.4570313,-0.1015625,0.3222656,0.01269531,0.03759766
235,-33.25,4.625,9.1875,-0.7231445,-0.4804688,-0.2783203,0.3212891,0.01611328,0.04052734
239,-14.75,-2.25,23.9375,-0.7270508,-0.4335938,-0.34375,0.3237305,0.01269531,0.0390625
243,7.1875,-0.6875,20.25,-0.6225586,-0.2470703,-0.2207031,0.3222656,0.01025391,0.0390625
247,14.0625,11.25,11.75,-0.5834961,-0.01025391,-0.1323242,0.3222656,0.008789063,0.0390625
251,-1.4375,19.75,11.3125,-0.6923828,0.09423828,-0.1513672,0.3222656,0.007324219,0.04052734
255,-12.75,18.1875,13.25,-0.7929688,0.01269531,-0.1860352,0.3222656,0.006347656,0.04199219
259,-17.1875,13.3125,14.8125,-0.796875,0.008789063,-0.1899414,0.3222656,0.004882813,0.04589844
263,-25.3125,11.1875,17.25,-0.8164063,-0.006347656,-0.1435547,0.3212891,0.00390625,0.04589844
267,-31.9375,5,21.4375,-0.7695313,-0.02978516,-0.04003906,0.3222656,0.001464844,0.04736328
271,-35.5625,9.1875,23.3125,-0.6147461,-0.04541016,0.1098633,0.3237305,-0.003417969,0.04980469
275,-33.0625,26.9375,24.8125,-0.5371094,-0.1191406,0.125,0.3222656,-0.004394531,0.04980469
279,-15.0625,42.8125,23.6875,-0.6108398,-0.2163086,0.03271484,0.3212891,-0.008300781,0.05126953
283,8.75,48.625,21.0625,-0.7387695,-0.1616211,-0.05126953,0.3222656,-0.009277344,0.05810547
287,9.1875,42.8125,24.4375,-0.78125,0.04736328,-0.08984375,0.3198242,-0.01171875,0.06347656
291,-7.9375,24.25,29.8125,-0.7890625,0.15625,-0.07470703,0.3198242,-0.01318359,0.06347656
295,-26.4375,16.1875,34.0625,-0.5683594,0.1445313,0.01708984,0.3198242,-0.01708984,0.06787109
300,-25.625,30.6875,38.5,-0.3432617,-0.05664063,0.1635742,0.3198242,-0.01953125,0.06787109
304,-9.875,62.75,35.125,-0.3745117,-0.09179688,0.1289063,0.3188477,-0.02441406,0.07177734
308,13.5625,79.75,31,-0.6689453,-0.1577148,-0.04736328,0.3154297,-0.02929688,0.08251953
312,36.9375,81.9375,29.5625,-0.831543,-0.09960938,-0.2324219,0.3154297,-0.03076172,0.08691406
316,34,69,26.5,-1.048828,0.2573242,-0.3823242,0.3129883,-0.02929688,0.09228516
320,-0.875,39.8125,17.25,-1.149414,0.3974609,-0.3666992,0.3115234,-0.03173828,0.09912109
324,-32,20,11.6875,-1.048828,0.237793,-0.2592773,0.3105469,-0.03466797,0.1000977
328,-44.125,15.9375,11.4375,-0.9750977,0.04736328,-0.2670898,0.309082,-0.03710938,0.1015625
332,-35.1875,11.5625,5.75,-0.9516602,-0.03759766,-0.2670898,0.309082,-0.03955078,0.1044922
336,-23.5,16.5625,-11.9375,-0.9633789,-0.1074219,-0.1899414,0.3056641,-0.04052734,0.1044922
340,-10.5,19.4375,-13.5,-0.9555664,-0.2275391,-0.1669922,0.3071289,-0.03955078,0.1069336
344,0.5625,14.8125,-4.625,-0.9672852,-0.1577148,-0.1552734,0.3056641,-0.03808594,0.1083984
348,2.875,16,-8.4375,-0.8549805,0.06689453,-0.04394531,0.3046875,-0.03710938,0.1113281
352,-0.8125,33.6875,-16.125,-0.8974609,0.05908203,-0.08984375,0.3032227,-0.03808594,0.1113281
356,-7.125,39.875,-29.375,-1.044922,0.05908203,-0.1669922,0.3022461,-0.03466797,0.1152344
360,-20.5,31.125,-34.5,-1.149414,-0.1230469,-0.2475586,0.2998047,-0.03320313,0.1181641
364,-30.125,13.0625,-10.375,-1.234863,-0.3950195,-0.2744141,0.2998047,-0.03076172,0.1206055
368,-18.8125,-5.25,21,-1.161133,-0.5541992,-0.1977539,0.2998047,-0.03320313,0.1220703
372,-0.125,-7.3125,22.125,-0.9399414,-0.2202148,-0.1401367,0.2998047,-0.03564453,0.1220703
376,5.75,1.625,12.5625,-0.8125,-0.08398438,-0.06298828,0.2998047,-0.03710938,0.1220703
380,8.625,21.1875,2.25,-0.8354492,-0.1381836,-0.08984375,0.2998047,-0.03564453,0.1206055
384,21.0625,29,-0.5,-1.021484,-0.1811523,-0.1860352,0.2998047,-0.03808594,0.1235352
388,25.75,26.75,-0.125,-1.137695,-0.1269531,-0.2475586,0.2973633,-0.03466797,0.125
392,17,15.25,5.1875,-1.15332,-0.03369141,-0.3129883,0.2973633,-0.03466797,0.1274414
396,-6.125,2.25,8.1875,-1.025391,-0.002441406,-0.2783203,0.2973633,-0.03466797,0.1274414
400,-18.875,-1.5625,10.875,-0.9594727,-0.09570313,-0.2783203,0.2963867,-0.03466797,0.1274414
404,-13.4375,-1.4375,6.6875,-0.8745117,-0.2045898,-0.1899414,0.2973633,-0.03710938,0.1289063
408,3.875,8.375,-0.875,-0.8276367,-0.2470703,-0.1552734,0.2949219,-0.03808594,0.1274414
412,18.125,15.8125,-0.5625,-0.9868164,-0.3056641,-0.1435547,0.2949219,-0.03564453,0.1289063
416,29.4375,15.1875,7.125,-1.060547,-0.2045898,-0.2055664,0.2963867,-0.03808594,0.1289063
420,27.375,11.4375,9.4375,-0.9907227,0.004882813,-0.2397461,0.2924805,-0.03564453,0.1313477
424,20.9375,12.125,2.4375,-0.9829102,0.08251953,-0.2705078,0.2949219,-0.03564453,0.1313477
429,23.125,11,-7.375,-1.118652,-0.01416016,-0.3051758,0.2924805,-0.03320313,0.1342773
433,17.8125,1.0625,-17.1875,-1.227051,0.1523438,-0.2900391,0.2939453,-0.03320313,0.1328125
437,-10.6875,-6.25,-17.125,-1.227051,0.121582,-0.309082,0.2924805,-0.03173828,0.1313477
441,-42,-16.4375,-1,-1.269531,-0.03759766,-0.34375,0.2915039,-0.03173828,0.1328125
445,-41,-21.0625,2.8125,-1.304199,-0.3911133,-0.3476563,0.2924805,-0.03320313,0.1313477
449,-21.875,-15.375,8.875,-1.362793,-0.6201172,-0.3862305,0.2939453,-0.03320313,0.1289063
453,-8,-3.75,5.3125,-1.362793,-0.2392578,-0.359375,0.2949219,-0.03710938,0.1289063
457,-8.25,5.8125,1.875,-1.537109,-0.1308594,-0.3862305,0.2949219,-0.03808594,0.1289063
461,-19.5625,6.25,5.125,-1.668457,-0.1035156,-0.4360352,0.2949219,-0.03710938,0.1313477
465,-23.375,6.3125,8.5,-1.691895,-0.2314453,-0.4936523,0.2949219,-0.04052734,0.1313477
469,-12.875,10.375,8.6875,-1.757813,-0.2163086,-0.5629883,0.2939453,-0.04052734,0.1303711
473,-11.25,6.75,8.875,-1.761719,-0.1191406,-0.5668945,0.2939453,-0.04052734,0.1313477
477,-18.5625,4.625,12.5625,-1.699707,-0.08789063,-0.559082,0.2939453,-0.04199219,0.1328125
481,-21.25,3.875,12.3125,-1.614258,-0.1616211,-0.5209961,0.2939453,-0.04443359,0.1328125
485,-10.75,4.8125,10.625,-1.541016,-0.1772461,-0.4975586,0.2924805,-0.046875,0.1313477
489,-0.875,10.3125,-0.6875,-1.370117,-0.05664063,-0.4438477,0.2939453,-0.046875,0.1342773
493,-5.1875,21.625,-11.4375,-1.393555,0.05517578,-0.394043,0.2915039,-0.04833984,0.1342773
497,-14.1875,19.0625,-13.875,-1.447754,-0.006347656,-0.4091797,0.2900391,-0.04833984,0.137207
501,-13.0625,17.9375,-20.75,-1.45166,-0.04541016,-0.4824219,0.2915039,-0.04296875,0.137207
505,-10.375,10.9375,-26.125,-1.494141,-0.02978516,-0.4902344,0.2915039,-0.04443359,0.1411133
509,-15.375,0.6875,-28.3125,-1.374023,0.02832031,-0.4013672,0.2900391,-0.04199219,0.1411133
513,-26.8125,0,-31.125,-1.215332,0.05908203,-0.309082,0.2915039,-0.04052734,0.1425781
517,-33.625,0,-37.1875,-1.087402,-0.02587891,-0.2783203,0.2900391,-0.04052734,0.1411133
521,-22.0625,8,-47.375,-1.017578,-0.1850586,-0.2861328,0.2890625,-0.03808594,0.1411133
525,-8.625,9,-51,-0.9594727,-0.1850586,-0.359375,0.2900391,-0.03320313,0.144043
529,3.3125,4.3125,-54.9375,-1.052734,-0.1811523,-0.4013672,0.2880859,-0.03076172,0.1425781
533,1.75,-13.9375,-49.5,-1.063965,-0.09179688,-0.4746094,0.2890625,-0.02587891,0.144043
537,-8.125,-35.1875,-43.8125,-1.048828,-0.06445313,-0.4169922,0.2900391,-0.02197266,0.1411133
541,-12.75,-50,-39.375,-0.7890625,-0.1381836,-0.3359375,0.2890625,-0.02050781,0.1381836
545,2.3125,-41.8125,-43.9375,-0.5644531,-0.2353516,-0.2089844,0.2915039,-0.01708984,0.1342773
549,24.4375,-25.4375,-48.5,-0.730957,-0.2861328,-0.2744141,0.2939453,-0.01074219,0.1303711
553,33,-44.9375,-35.5625,-0.8896484,-0.2392578,-0.2978516,0.2939453,-0.008300781,0.1289063
558,31.6875,-61.5625,-19.625,-0.7773438,-0.2084961,-0.2089844,0.2963867,-0.003417969,0.1235352
562,39.8125,-67.5625,-10.25,-0.6455078,-0.3325195,-0.1938477,0.2973633,0,0.1166992
566,68.8125,-70.1875,-9.9375,-0.5449219,-0.2744141,-0.109375,0.3007813,0,0.1123047
570,86.25,-62.0625,-8.875,-0.3745117,-0.09570313,0.02099609,0.3032227,0.004882813,0.1044922
574,80.25,-50.625,-9.1875,-0.3901367,0.07861328,-0.001464844,0.3056641,0.008789063,0.09472656
578,59.75,-52.5625,-7.3125,-0.5756836,0.07470703,-0.05908203,0.3056641,0.01367188,0.09326172
582,44.25,-57.0625,-3.1875,-0.6806641,-0.08789063,-0.2089844,0.309082,0.01367188,0.08544922
586,44.4375,-75,2.5,-0.6962891,-0.1499023,-0.2553711,0.3081055,0.01757813,0.07861328
590,51.5,-73.0625,-1.375,-0.4946289,-0.1347656,-0.1860352,0.3129883,0.01757813,0.07324219
594,53.375,-59.625,-5.6875,-0.4868164,-0.1538086,-0.2246094,0.3129883,0.01855469,0.06494141
598,40.625,-64.0625,1.1875,-0.5874023,-0.1152344,-0.1669922,0.3164063,0.02001953,0.05664063
602,27.4375,-74.0625,12.875,-0.5834961,-0.1577148,-0.01660156,0.3154297,0.02001953,0.05273438
606,19.25,-76.25,26.125,-0.2773438,0.03222656,0.3017578,0.3212891,0.01855469,0.04443359
610,1.3125,-44.0625,9.0625,-0.06445313,0.1835938,0.5214844,0.3198242,0.01611328,0.0390625
614,-16.5625,-7.0625,-17.4375,-0.4208984,0.1640625,0.4868164,0.3222656,0.01611328,0.03515625
618,-41.25,-7.5,-16.25,-0.6884766,-0.1420898,0.3330078,0.3212891,0.01757813,0.03515625
622,-55.4375,-5.5,5.1875,-0.6611328,-0.2705078,0.2021484,0.3212891,0.01757813,0.03613281
626,-57.75,1.875,20.875,-0.5566406,-0.3911133,0.1674805,0.3222656,0.01611328,0.03613281
630,-50.4375,17.3125,31.6875,-0.5410156,-0.355957,0.1479492,0.3237305,0.01269531,0.03759766
634,-41.8125,33.125,37.8125,-0.5756836,-0.2241211,0.07128906,0.3212891,0.008789063,0.04296875
638,-32.9375,44.3125,35.875,-0.715332,-0.1191406,-0.04003906,0.3222656,0.004882813,0.04443359
642,-28.5625,41.6875,32.125,-0.9130859,0.04736328,-0.1245117,0.3212891,-0.0004882813,0.04980469
646,-39,29,31.25,-0.9169922,0.1293945,-0.07861328,0.3198242,-0.001953125,0.05419922
650,-51.0625,23.25,32.4375,-0.8237305,0.05908203,0.03662109,0.3212891,-0.005859375,0.05810547
654,-54.4375,23,34.875,-0.730957,-0.01806641,0.1098633,0.3222656,-0.01074219,0.05810547
658,-45.0625,35.8125,32.875,-0.7036133,-0.1191406,0.05175781,0.3198242,-0.01806641,0.06201172
662,-29.5,39.3125,29.5,-0.7851563,-0.1035156,-0.03613281,0.3188477,-0.01806641,0.06494141
666,-18,35.625,26.4375,-0.7543945,-0.06445313,-0.07861328,0.3188477,-0.02197266,0.06884766
670,-22.375,29.75,29.5,-0.765625,0.004882813,-0.06298828,0.3188477,-0.02441406,0.07421875
674,-35.6875,31.125,45.625,-0.7036133,-0.1191406,-0.09765625,0.3164063,-0.02832031,0.07568359
678,-26.6875,32.625,64.6875,-0.765625,-0.2084961,-0.1435547,0.3173828,-0.03466797,0.07861328
682,-1.6875,32.1875,63.0625,-0.6689453,-0.2314453,-0.1362305,0.3164063,-0.04052734,0.08398438
687,15.75,38.5625,62.875,-0.6533203,-0.06835938,-0.1743164,0.3173828,-0.04296875,0.08398438
691,8.0625,35.75,65.3125,-0.7270508,0.09423828,-0.1323242,0.3139648,-0.05175781,0.08691406
695,-12.1875,35.875,65.9375,-0.730957,0.4165039,-0.1630859,0.3129883,-0.05810547,0.09082031
699,-35.375,31.875,60.875,-0.8896484,0.269043,-0.1860352,0.3139648,-0.06054688,0.09326172
703,-38.875,17.25,54.25,-0.9287109,0.1293945,-0.2670898,0.3105469,-0.06835938,0.09619141
707,-24.25,10.3125,44.1875,-0.9052734,0.07080078,-0.2475586,0.3115234,-0.07714844,0.09765625
711,-5.1875,14.5,32,-0.8432617,0.008789063,-0.2055664,0.3105469,-0.07958984,0.09912109
715,12.9375,22.8125,21.5,-0.8974609,0.07080078,-0.1669922,0.309082,-0.08203125,0.1000977
719,11.3125,16.75,19.75,-0.9868164,0.2456055,-0.1782227,0.3081055,-0.08447266,0.1000977
723,-9,1,14.3125,-0.9555664,0.4243164,-0.128418,0.3071289,-0.08447266,0.1044922
727,-33.1875,-4.375,5.25,-0.8085938,0.3466797,-0.04736328,0.309082,-0.08544922,0.1030273
731,-40.375,5.875,1.375,-0.7543945,0.04394531,-0.02441406,0.3056641,-0.08935547,0.1015625
735,-22.125,18.6875,3.5,-0.8510742,-0.1459961,-0.09375,0.3071289,-0.08935547,0.1030273
739,2.9375,24.3125,-1.75,-0.9399414,-0.1113281,-0.128418,0.3081055,-0.09082031,0.1044922
743,8.5625,21.25,-2.375,-1.041016,-0.002441406,-0.2016602,0.3046875,-0.09082031,0.1069336
747,-3.6875,7.125,13.5,-1.029297,0.04003906,-0.2397461,0.3046875,-0.09082031,0.1069336
751,-13.9375,2.625,31.4375,-0.8974609,0.121582,-0.2246094,0.3032227,-0.09082031,0.1083984
755,-23.0625,14.9375,37.625,-0.8666992,0.1020508,-0.1743164,0.3007813,-0.09570313,0.1083984
759,-16.25,26.3125,40.375,-1.106934,0.01269531,-0.2744141,0.3032227,-0.09960938,0.1098633
763,2.6875,9.5625,21.3125,-1.277344,0.06298828,-0.3359375,0.3022461,-0.1030273,0.1098633
767,13.4375,-8,11.3125,-1.157227,0.15625,-0.2363281,0.3007813,-0.1030273,0.1113281
771,0,-14.75,11.25,-1.009766,0.3041992,-0.1362305,0.3007813,-0.1044922,0.1113281
775,-13.0625,-6.125,0.375,-0.9477539,0.1601563,-0.04736328,0.3007813,-0.1044922,0.1113281
779,-6.1875,5.5,-5,-1.029297,-0.07226563,-0.04736328,0.3022461,-0.1054688,0.1098633
783,11.0625,6.625,3.5,-1.103027,-0.2275391,-0.07861328,0.2998047,-0.1069336,0.1113281
787,34.875,7.625,5.125,-1.052734,-0.07226563,-0.1054688,0.3032227,-0.1044922,0.1113281
791,43.625,17.25,-14.4375,-1.029297,0.1875,-0.1245117,0.2983398,-0.1030273,0.1137695
795,21.625,25.5625,-25.8125,-1.242188,0.253418,-0.2475586,0.3007813,-0.1005859,0.1137695
799,-14.875,10.5625,-17.8125,-1.389648,0.1137695,-0.359375,0.2973633,-0.09716797,0.1166992
803,-30.0625,-5.3125,-4.375,-1.339355,-0.09570313,-0.3666992,0.2983398,-0.09960938,0.1166992
807,-21.6875,-6.75,-0.25,-1.37793,-0.1230469,-0.3325195,0.2973633,-0.09960938,0.1152344
811,-17.875,-7.5,-1.1875,-1.405273,-0.09179688,-0.3129883,0.2998047,-0.09814453,0.1152344
816,-11.5625,-1.625,1,-1.389648,-0.1035156,-0.3515625,0.2983398,-0.1005859,0.1137695
820,2.125,7.6875,-3.1875,-1.471191,-0.09179688,-0.3862305,0.2998047,-0.1005859,0.1152344
824,6.875,15,-0.5,-1.571777,-0.01025391,-0.4130859,0.2983398,-0.1005859,0.1166992
828,7.125,18.0625,6.5,-1.65332,0.04736328,-0.4594727,0.2973633,-0.09960938,0.1166992
832,8.8125,19.5625,9,-1.75,0.105957,-0.4936523,0.2998047,-0.1005859,0.1206055
836,5.5,14.375,10.3125,-1.738281,0.2416992,-0.4628906,0.2963867,-0.1020508,0.1206055
840,-9.625,13.6875,4.5625,-1.625977,0.3427734,-0.378418,0.2973633,-0.1005859,0.1220703
844,-23.3125,19.125,-3,-1.494141,0.300293,-0.324707,0.2949219,-0.1020508,0.1220703
848,-18.5,31.8125,-13.5625,-1.428223,0.1254883,-0.3168945,0.2949219,-0.1020508,0.125
852,-10.6875,40.1875,-15.9375,-1.513672,0.07080078,-0.3823242,0.2939453,-0.1005859,0.1274414
856,-21.5625,36.0625,-1.9375,-1.505859,0.1367188,-0.394043,0.2939453,-0.1020508,0.1303711
860,-38.5625,36.0625,9,-1.424316,0.1020508,-0.4052734,0.2900391,-0.1030273,0.1328125
864,-36.6875,33.25,5.75,-1.455566,0.04736328,-0.3974609,0.2880859,-0.1069336,0.1357422
868,-20.9375,31.8125,-4.25,-1.289063,-0.01025391,-0.3286133,0.2890625,-0.1069336,0.137207
872,-4.875,41.4375,-13.625,-1.165039,0.06689453,-0.2744141,0.2856445,-0.1083984,0.1396484
876,2.75,47.75,-25.1875,-1.149414,0.08251953,-0.309082,0.2841797,-0.1044922,0.144043
880,1.1875,43.25,-25.4375,-1.203613,0.1137695,-0.378418,0.2817383,-0.1030273,0.1464844
884,0.5,27.625,-26.875,-1.219238,0.07470703,-0.4746094,0.2817383,-0.1005859,0.1508789
888,6.4375,13.5,-34.875,-1.114746,0.09033203,-0.4863281,0.2817383,-0.09716797,0.1518555
892,6.625,4.0625,-44.75,-0.9985352,0.1445313,-0.4667969,0.2807617,-0.09326172,0.1533203
896,-2.0625,-1.875,-47,-0.9985352,0.08251953,-0.5014648,0.2817383,-0.08935547,0.1533203
900,-11.625,-20.375,-44.0625,-0.9868164,0.1176758,-0.5864258,0.2807617,-0.08837891,0.1518555
904,-15.8125,-36.375,-47.25,-0.9438477,0.01660156,-0.5976563,0.2832031,-0.08544922,0.1508789
908,-6.625,-56.75,-44.25,-0.8745117,-0.1269531,-0.5244141,0.2866211,-0.08056641,0.1464844
912,5.4375,-69.25,-40.875,-0.7036133,-0.1035156,-0.3515625,0.2915039,-0.078125,0.1411133
916,11.625,-69.25,-42.8125,-0.5253906,-0.02978516,-0.2900391,0.2900391,-0.07568359,0.137207
920,12.125,-65.0625,-41.0625,-0.6264648,-0.08789063,-0.3325195,0.2949219,-0.07177734,0.1328125
924,27,-74.5,-34.5,-0.715332,-0.2353516,-0.3632813,0.3007813,-0.06689453,0.125
928,43.8125,-84.75,-25.5625,-0.6845703,-0.1655273,-0.3398438,0.2998047,-0.06445313,0.1220703
932,47.3125,-91.0625,-21.625,-0.5488281,-0.01806641,-0.2207031,0.3056641,-0.06054688,0.1113281
936,53.9375,-84.75,-30.5625,-0.4985352,0.02441406,-0.2055664,0.309082,-0.0546875,0.1030273
940,60.0625,-82.25,-38.6875,-0.4365234,-0.006347656,-0.09375,0.3115234,-0.05078125,0.09912109
945,74.6875,-71.5,-43.1875,-0.4594727,-0.08007813,-0.05517578,0.3115234,-0.04589844,0.08935547
949,74.3125,-75.625,-31.5625,-0.6533203,-0.06054688,-0.06298828,0.3154297,-0.03808594,0.08398438
953,62.625,-85.6875,-14.3125,-0.5795898,-0.05664063,-0.03222656,0.3212891,-0.03564453,0.07568359
957,49.875,-91.1875,-5,-0.4672852,0.04394531,0.1289063,0.3222656,-0.03173828,0.06787109
961,38.625,-75.625,-7.9375,-0.4130859,0.05517578,0.1748047,0.3237305,-0.03076172,0.05957031
965,33.4375,-67.25,-10.6875,-0.4521484,0.07470703,0.2905273,0.324707,-0.02832031,0.05273438
969,18.5,-50.875,-10.75,-0.362793,0.05908203,0.3520508,0.3261719,-0.02929688,0.04443359
973,11,-27,-7.125,-0.4482422,-0.04150391,0.2441406,0.3271484,-0.02685547,0.04296875
977,11.375,-16.3125,-3.8125,-0.7231445,-0.09960938,0.07519531,0.3261719,-0.02587891,0.04052734
981,9.375,-13.3125,5.9375,-0.78125,-0.09960938,-0.1054688,0.3271484,-0.02587891,0.04052734
985,12.375,-14.5625,8,-0.9091797,-0.02197266,-0.1513672,0.3295898,-0.02587891,0.0390625
989,14.4375,-19.625,1.4375,-0.8198242,0.09033203,-0.05517578,0.328125,-0.02587891,0.03515625
993,4.3125,-11.5625,-1.9375,-0.796875,0.1875,0.02490234,0.3271484,-0.02685547,0.03515625
997,-16.4375,-7.3125,-3.5625,-0.8198242,0.171875,0.02099609,0.328125,-0.02685547,0.03369141
1001,-26.375,-8.25,-2.25,-0.9946289,-0.01025391,-0.07861328,0.328125,-0.02587891,0.03222656
1005,-24.25,-18.875,0,-0.9672852,-0.08007813,-0.02441406,0.328125,-0.02587891,0.03076172
1009,-24.25,-16.5,4.5,-0.796875,-0.06054688,0.1518555,0.3271484,-0.02685547,0.02978516
1013,-28.125,-7.8125,9.25,-0.7270508,-0.07226563,0.2402344,0.3295898,-0.02685547,0.02978516
1017,-26.75,3.5,13.5,-0.6923828,-0.1616211,0.2060547,0.3305664,-0.02929688,0.02832031
1021,-11.5625,14.1875,13.0625,-0.746582,-0.2124023,0.1557617,0.3295898,-0.03173828,0.02978516
1025,-2.9375,19.25,19.5,-0.8046875,-0.1347656,0.1132813,0.3295898,-0.03320313,0.03076172
1029,-4.25,19.75,25.3125,-0.8510742,-0.01025391,0.1171875,0.3295898,-0.03564453,0.03369141
1033,-14,17.5625,26.9375,-0.8046875,0.09423828,0.1748047,0.328125,-0.03564453,0.03515625
1037,-25.5,18.875,26.3125,-0.6806641,0.1333008,0.2636719,0.3295898,-0.03955078,0.03759766
1041,-37,26.0625,24.125,-0.5874023,0.07861328,0.2709961,0.3295898,-0.04296875,0.0390625
1045,-44,33.125,26.875,-0.6225586,-0.01416016,0.2133789,0.3295898,-0.04833984,0.04296875
1049,-46.0625,34.5,33.5,-0.6416016,-0.08398438,0.144043,0.3271484,-0.04931641,0.04443359
1053,-37.9375,39.6875,40.6875,-0.6845703,-0.1499023,0.06347656,0.3261719,-0.05322266,0.04882813
1057,-22.8125,39.3125,41.9375,-0.699707,-0.04541016,-0.009277344,0.3261719,-0.05810547,0.05126953
1061,-21.375,38.9375,34,-0.6225586,0.1601563,-0.01318359,0.3261719,-0.06201172,0.05419922
1065,-31.5625,41.1875,26.25,-0.6962891,0.2265625,-0.07861328,0.324707,-0.06689453,0.06201172
1069,-49,36.75,29.5625,-0.8237305,0.1640625,-0.128418,0.3222656,-0.06933594,0.06201172
1074,-54.8125,26.25,31.3125,-0.8393555,0.05908203,-0.1552734,0.3222656,-0.07177734,0.06494141
1078,-47.125,23.1875,29.625,-0.7695313,0.008789063,-0.1474609,0.3198242,-0.07568359,0.06640625
1082,-35.6875,26.6875,21.875,-0.765625,-0.01025391,-0.1552734,0.3212891,-0.08056641,0.06884766
1086,-25.9375,28.1875,10.625,-0.8125,-0.02197266,-0.1860352,0.3198242,-0.08300781,0.06884766
1090,-20.5625,25.6875,7.4375,-0.8588867,-0.04541016,-0.1860352,0.3188477,-0.08544922,0.07421875
1094,-17.375,23.1875,13.8125,-0.9829102,-0.1230469,-0.1821289,0.3173828,-0.08544922,0.07714844
1098,-8.4375,12.5,19.5,-1.009766,-0.02587891,-0.2055664,0.3164063,-0.08837891,0.07861328
1102,-2,4,15.4375,-0.9169922,0.1796875,-0.2089844,0.3173828,-0.09082031,0.07714844
1106,-12.625,3.625,-3.875,-0.8935547,0.3232422,-0.1743164,0.3164063,-0.09082031,0.07861328
1110,-33.875,-0.375,-7,-0.9868164,0.1367188,-0.1362305,0.3154297,-0.09082031,0.07861328
1114,-42.375,-10.4375,6.0625,-1.005859,-0.06835938,-0.02832031,0.3164063,-0.09082031,0.07861328
1118,-28.6875,-8.125,8.5625,-0.8237305,-0.1420898,0.09033203,0.3164063,-0.09326172,0.07568359
1122,-6.375,13.1875,2.375,-0.8046875,-0.2006836,0.09814453,0.3173828,-0.09423828,0.07568359
1126,14.25,26.1875,4,-0.878418,-0.2392578,-0.001464844,0.3154297,-0.09716797,0.07714844
1130,39.5625,32.1875,0,-1.013672,-0.1811523,-0.1401367,0.3154297,-0.09423828,0.08007813
1134,47.75,30,-0.25,-1.230957,-0.1074219,-0.1821289,0.3129883,-0.09179688,0.08251953
1138,39.4375,17.8125,11.875,-1.285156,0.04394531,-0.2128906,0.3129883,-0.09082031,0.08544922
1142,22.8125,2.625,18.8125,-1.277344,0.140625,-0.1899414,0.3115234,-0.09179688,0.08789063
1146,5.0625,-5.375,11.375,-1.125977,0.2226563,-0.1552734,0.3105469,-0.09326172,0.08789063
1150,-1.1875,-1.625,0.25,-1.099121,0.07861328,-0.1474609,0.3115234,-0.09179688,0.08691406
1154,0.875,-3.25,-1.3125,-1.20752,-0.01025391,-0.1630859,0.3129883,-0.09326172,0.08691406
1158,3.8125,-11.25,2.25,-1.184082,-0.09570313,-0.1401367,0.3139648,-0.09179688,0.08691406
1162,11.875,-11.125,8.5,-1.165039,-0.09960938,-0.1015625,0.3139648,-0.09326172,0.08544922
1166,19.625,-11.75,12.5,-1.149414,-0.07226563,-0.1362305,0.3129883,-0.09326172,0.08398438
1170,23.375,-9.6875,6.3125,-1.044922,0.1333008,-0.1362305,0.3129883,-0.09570313,0.08544922
1174,14,1.1875,-10.25,-1.071777,0.203125,-0.1166992,0.3115234,-0.09423828,0.08544922
1178,0.75,5.0625,-18.4375,-1.289063,0.05517578,-0.1821289,0.3154297,-0.09179688,0.08251953
1182,-11.25,-5.625,-9.1875,-1.420898,-0.09179688,-0.1899414,0.3139648,-0.09082031,0.08251953
1186,-12.4375,-11.25,4.4375,-1.416992,-0.2392578,-0.1860352,0.3129883,-0.09082031,0.08398438
1190,-6.5625,-12.3125,15.5625,-1.463379,-0.1772461,-0.1860352,0.3129883,-0.09326172,0.08251953
1194,0.125,-11.375,17.8125,-1.393555,-0.08007813,-0.1513672,0.3129883,-0.09326172,0.08251953
1198,6.625,3.3125,10.5,-1.385742,-0.006347656,-0.1362305,0.3139648,-0.09423828,0.07861328
1203,11.8125,13,6.5,-1.459473,0.07470703,-0.1552734,0.3129883,-0.09570313,0.08105469
1207,10.5,15.8125,3.5625,-1.509766,0.1601563,-0.1630859,0.3115234,-0.09570313,0.08105469
1211,-0.5625,15.1875,3.9375,-1.521484,0.1992188,-0.1743164,0.3105469,-0.09716797,0.08544922
1215,-7.8125,11.0625,2.625,-1.475098,0.1601563,-0.1669922,0.3115234,-0.09716797,0.08544922
1219,-15.25,13.5,-0.75,-1.351074,0.1679688,-0.1513672,0.3129883,-0.09716797,0.08691406
1223,-21.75,18.4375,-2.375,-1.257813,0.1137695,-0.09765625,0.3139648,-0.09814453,0.08789063
1227,-22,29.0625,-6.8125,-1.230957,0.01269531,-0.1206055,0.3105469,-0.09570313,0.08935547
1231,-8.6875,36.375,-8.875,-1.327637,-0.08398438,-0.1435547,0.309082,-0.09716797,0.09228516
1235,5,37.25,-10.125,-1.37793,-0.01806641,-0.1782227,0.309082,-0.09716797,0.09326172
1239,2.625,39,-7.1875,-1.35498,0.1254883,-0.2128906,0.3081055,-0.09423828,0.1000977
1243,-7.9375,43.625,-6.75,-1.315918,0.2226563,-0.3129883,0.3071289,-0.09423828,0.1000977
1247,-19.3125,45.8125,-13.25,-1.428223,0.2109375,-0.3632813,0.3046875,-0.09326172,0.1044922
1251,-23.1875,35.125,-18.875,-1.513672,0.1020508,-0.4052734,0.3032227,-0.09423828,0.1098633
1255,-20.375,22.4375,-22.375,-1.428223,0.07080078,-0.3862305,0.3007813,-0.09326172,0.1113281
1259,-13.25,22.125,-33.5,-1.28125,0.05908203,-0.3051758,0.2983398,-0.09179688,0.1166992
1263,-13.9375,32.9375,-40.25,-1.211426,0.121582,-0.3476563,0.3007813,-0.08837891,0.1166992
1267,-20,29.625,-42.75,-1.381836,0.008789063,-0.394043,0.2998047,-0.08300781,0.1191406
1271,-18,7.25,-39.1875,-1.351074,-0.1308594,-0.4208984,0.2998047,-0.08203125,0.1191406
1275,-10.75,-8.5,-34,-1.187988,-0.2124023,-0.3515625,0.2998047,-0.08056641,0.1206055
1279,10.4375,-10.5,-37.5625,-0.9750977,-0.3056641,-0.3129883,0.2998047,-0.078125,0.1191406
1283,36.6875,-4.8125,-46.125,-0.9790039,-0.2548828,-0.309082,0.3007813,-0.07324219,0.1166992
1287,48.5625,-13.875,-43.625,-1.063965,-0.2392578,-0.3823242,0.3022461,-0.06689453,0.1166992
1291,47.0625,-35.9375,-27.375,-1.056641,-0.1113281,-0.3554688,0.3022461,-0.06298828,0.1166992
1295,31.5625,-48.5625,-20.25,-0.78125,0.01269531,-0.2207031,0.3046875,-0.05957031,0.1123047
1299,16.3125,-45,-18.4375,-0.6689453,-0.08789063,-0.2016602,0.309082,-0.05712891,0.1083984
1303,28.6875,-43.3125,-22.5,-0.6108398,-0.2275391,-0.1782227,0.3056641,-0.0546875,0.105957
1307,53.25,-37.875,-31.0625,-0.7695313,-0.1889648,-0.2246094,0.3105469,-0.05078125,0.1000977
1311,65.5,-53.375,-19.9375,-0.8007813,-0.1347656,-0.2016602,0.3115234,-0.04443359,0.09765625
1315,54.125,-66.875,-11,-0.5722656,0.05908203,-0.08984375,0.3129883,-0.04296875,0.09326172
1319,39.5625,-63.375,-10.0625,-0.4404297,0.06298828,-0.001464844,0.3154297,-0.04052734,0.08544922
1323,33.5625,-47.8125,-10.5625,-0.4521484,-0.02587891,-0.04736328,0.3188477,-0.03808594,0.08105469
1327,46.4375,-35,-12.8125,-0.6225586,-0.2202148,-0.1938477,0.3173828,-0.03710938,0.07861328
1332,74.375,-42.8125,-9.4375,-0.8432617,-0.2822266,-0.3051758,0.3198242,-0.03320313,0.07324219
1336,78.4375,-61.5,-7.3125,-0.7426758,0.07470703,-0.2246094,0.3222656,-0.03076172,0.06884766
1340,40.4375,-73.0625,-3,-0.4907227,0.3271484,0.04052734,0.3222656,-0.02832031,0.06201172
1344,2.375,-62.375,-2.8125,-0.3706055,0.1953125,0.1713867,0.3237305,-0.02685547,0.05419922
1348,-4.5625,-52.5625,-6.9375,-0.5795898,-0.01806641,0.159668,0.324707,-0.02832031,0.04736328
1352,-1.5,-50.1875,-12.5,-0.5952148,-0.08398438,0.1328125,0.3271484,-0.02441406,0.04589844
1356,7.4375,-42.4375,-14,-0.6962891,-0.1850586,0.09423828,0.324707,-0.02441406,0.04296875
1360,15.3125,-45.9375,-11.1875,-0.7929688,-0.2124023,0.01708984,0.3271484,-0.0234375,0.03613281
1364,17.5,-48.375,-10.8125,-0.5795898,-0.05273438,0.1943359,0.328125,-0.0234375,0.03222656
1368,-1.0625,-30.75,-4.9375,-0.4555664,0.01660156,0.3134766,0.3295898,-0.02050781,0.02832031
1372,-16.625,-11.0625,3.4375,-0.5644531,-0.07617188,0.2441406,0.3305664,-0.02197266,0.02685547
1376,-15.3125,-2.25,9,-0.7734375,-0.1928711,0.04443359,0.3320313,-0.02197266,0.02392578
1380,-4.5,-8.3125,10.4375,-0.8857422,-0.1889648,-0.09375,0.3295898,-0.0234375,0.02539063
1384,-3.125,-15.25,12.6875,-0.796875,-0.02978516,-0.04736328,0.3295898,-0.02587891,0.02685547
1388,-11.75,-10.9375,14.5625,-0.7426758,-0.01025391,-0.001464844,0.328125,-0.02587891,0.02148438
1392,-10.9375,-5.3125,8,-0.8125,-0.03759766,-0.02050781,0.328125,-0.02832031,0.02294922
1396,-8.8125,-6.3125,2.1875,-0.8198242,-0.03369141,-0.009277344,0.3320313,-0.03076172,0.02148438
1400,-17.625,-6,7.375,-0.78125,-0.01806641,0.05566406,0.3295898,-0.02929688,0.02294922
1404,-27.75,-5.1875,13.875,-0.7426758,-0.05664063,0.1210938,0.3320313,-0.02929688,0.02148438
1408,-32.5625,-1,19.5,-0.6845703,-0.08789063,0.1943359,0.3320313,-0.03173828,0.01855469
1412,-36.25,7,24.25,-0.6303711,-0.1074219,0.2329102,0.3305664,-0.03320313,0.02148438
1416,-32.625,17.125,26.875,-0.5952148,-0.1850586,0.2329102,0.3305664,-0.03710938,0.02294922
1420,-28.25,24.625,31,-0.6264648,-0.1381836,0.2060547,0.3305664,-0.04052734,0.02392578
1424,-30,26.75,37.75,-0.5874023,-0.1152344,0.1943359,0.3320313,-0.04443359,0.02539063
1428,-35.75,31.75,49.375,-0.5874023,-0.08398438,0.09423828,0.3295898,-0.046875,0.02978516
1432,-34.75,29.75,49.9375,-0.6962891,-0.1113281,-0.04003906,0.3295898,-0.05322266,0.03222656
1436,-29.25,20.75,51.6875,-0.730957,-0.1074219,-0.06689453,0.3295898,-0.05957031,0.03515625
1440,-27.875,13.5625,53.75,-0.6303711,0.0009765625,-0.009277344,0.3295898,-0.06445313,0.03759766
1444,-18,25.0625,38.375,-0.5102539,0.06689453,0.09814453,0.328125,-0.06933594,0.03613281
1448,-6.875,44.0625,31.8125,-0.6416016,0.02050781,0.04785156,0.328125,-0.07324219,0.0390625
1452,-3.9375,41.6875,41,-0.7773438,0.07861328,-0.0859375,0.3271484,-0.07714844,0.04589844
1456,-10.4375,33.4375,46.9375,-0.8588867,0.2456055,-0.1362305,0.3271484,-0.08056641,0.04882813
1461,-12.8125,23.375,38.75,-0.9672852,0.21875,-0.1630859,0.324707,-0.08300781,0.04980469
1465,-10.0625,17.5,24.3125,-1.013672,0.2924805,-0.1323242,0.3261719,-0.09082031,0.05419922
1469,-20.875,4.6875,14.125,-0.9633789,0.3701172,-0.02832031,0.324707,-0.08837891,0.05419922
1473,-41.4375,2.0625,14.9375,-0.8549805,0.2807617,0.01367188,0.3237305,-0.09179688,0.05419922
1477,-49.375,2.625,16.8125,-0.8745117,0.04394531,0.09814453,0.324707,-0.09326172,0.05419922
1481,-33.6875,6.125,24.125,-0.9365234,-0.2163086,0.144043,0.3237305,-0.09716797,0.05419922
1485,2.6875,12.375,29.9375,-0.9013672,-0.2783203,0.1713867,0.3237305,-0.1005859,0.05273438
1489,31.3125,23.75,22.875,-0.8818359,-0.01025391,0.1367188,0.3212891,-0.1020508,0.05517578
1493,26,28.75,17.625,-0.9477539,0.171875,0.09033203,0.3198242,-0.1044922,0.05810547
1497,-0.5,19.5625,27.8125,-1.15332,0.1601563,0.02490234,0.3212891,-0.1044922,0.06201172
1501,-23.9375,3.1875,39.75,-1.12207,0.05517578,0.03271484,0.3198242,-0.1083984,0.06201172
1505,-21.75,0.875,48.25,-1.001953,-0.09960938,0.02490234,0.3173828,-0.1118164,0.06201172
1509,0.9375,-0.125,43.125,-0.9287109,-0.1074219,0.01367188,0.3173828,-0.1166992,0.06201172
1513,28.6875,6.5625,32.75,-0.7387695,0.01660156,0.05957031,0.3164063,-0.1220703,0.06494141
1517,23.625,22.4375,25.1875,-0.7504883,0.3388672,0.009765625,0.3164063,-0.1230469,0.06201172
1521,-12.875,24.375,25.0625,-1.005859,0.300293,-0.09765625,0.3139648,-0.1230469,0.06640625
1525,-37.5625,5.375,40.25,-1.187988,0.04736328,-0.1743164,0.3115234,-0.1269531,0.06787109
1529,-31.625,-12.0625,51.1875,-1.187988,-0.1152344,-0.1977539,0.3129883,-0.1333008,0.06640625
1533,-11.5,-14.875,43.1875,-1.044922,0.004882813,-0.1435547,0.3115234,-0.1396484,0.06494141
1537,-4.125,-2.625,25.375,-0.878418,0.1367188,-0.04003906,0.3139648,-0.140625,0.06347656
1541,-17.5,24.0625,17.3125,-0.699707,0.3041992,0.06738281,0.3115234,-0.1430664,0.06347656
1545,-33.125,44.375,13.875,-1.013672,0.1640625,-0.02441406,0.3115234,-0.1469727,0.06640625
1549,-22.8125,28.625,17.3125,-1.315918,-0.01025391,-0.1591797,0.309082,-0.1479492,0.06884766
1553,-1.5625,4.875,20.6875,-1.32373,0.05908203,-0.2128906,0.3081055,-0.1494141,0.06884766
1557,-3.1875,-8.5625,16.3125,-1.215332,0.3193359,-0.1630859,0.3081055,-0.1518555,0.0703125
1561,-15.1875,-12.1875,9.625,-1.161133,0.3232422,-0.1166992,0.3081055,-0.1518555,0.06884766
1565,-27.1875,-12.6875,10.75,-1.129883,0.2885742,-0.03613281,0.309082,-0.1533203,0.06640625
1569,-27.3125,-4,11.75,-1.099121,0.3120117,-0.08203125,0.3056641,-0.1533203,0.06640625
1573,-30.6875,3.5,-1.1875,-1.227051,0.3310547,-0.1474609,0.3056641,-0.1567383,0.06494141
1577,-35.4375,0.1875,0.25,-1.358887,0.1875,-0.2514648,0.3056641,-0.1567383,0.06201172
1581,-22.9375,-12.0625,3.5625,-1.393555,0.04003906,-0.2324219,0.3056641,-0.1582031,0.06347656
1585,-1.3125,-11.8125,2.75,-1.28125,0.140625,-0.1166992,0.3056641,-0.1591797,0.06201172
1590,-2.1875,-4.75,-0.75,-1.300781,0.4282227,-0.05517578,0.3081055,-0.1606445,0.06103516
1594,-24.25,1.0625,1.5,-1.304199,0.5214844,-0.02050781,0.3081055,-0.1606445,0.06103516
1598,-40.625,7.5,6.5,-1.366211,0.3740234,-0.001464844,0.3081055,-0.1606445,0.05810547
1602,-28.625,9.0625,7.5,-1.455566,0.2148438,-0.04394531,0.3056641,-0.1606445,0.06103516
1606,-8.625,13.3125,9.25,-1.432129,0.2070313,-0.04736328,0.3071289,-0.1621094,0.05957031
1610,14.125,21,7.75,-1.416992,0.2070313,-0.07470703,0.3056641,-0.1655273,0.06347656
1614,31.125,29.6875,3.625,-1.436035,0.3740234,-0.109375,0.3046875,-0.1645508,0.06347656
1618,27.1875,33.5625,-0.0625,-1.498047,0.5722656,-0.1977539,0.3046875,-0.1630859,0.06787109
1622,12.1875,30.75,-5.8125,-1.533203,0.6772461,-0.2475586,0.3022461,-0.1630859,0.07177734
1626,0.0625,27.6875,-15.0625,-1.467285,0.6225586,-0.2592773,0.3022461,-0.1645508,0.07324219
1630,0.125,33.375,-29.6875,-1.405273,0.5214844,-0.2514648,0.3022461,-0.1591797,0.07714844
1634,6.8125,37.4375,-43.125,-1.420898,0.3935547,-0.2475586,0.3007813,-0.1567383,0.07861328
1638,11.125,35.9375,-47.1875,-1.413086,0.3505859,-0.2397461,0.3022461,-0.1533203,0.08398438
1642,10.3125,36.3125,-47.5625,-1.370117,0.3427734,-0.3012695,0.3032227,-0.1494141,0.08544922
1646,11.25,38.75,-60.6875,-1.343262,0.3120117,-0.324707,0.3046875,-0.1445313,0.08935547
1650,14.5625,36.625,-69.3125,-1.405273,0.2109375,-0.3823242,0.3022461,-0.1381836,0.09228516
1654,15.25,23.5,-69.125,-1.439941,0.1293945,-0.3901367,0.3032227,-0.1318359,0.09765625
1658,8.9375,4.9375,-61.6875,-1.397461,0.1875,-0.3398438,0.3032227,-0.1230469,0.09765625
1662,-11,-2.5,-60.6875,-1.118652,0.2456055,-0.1860352,0.3046875,-0.1196289,0.1000977
1666,-24.5625,5.75,-64.25,-1.029297,0.1176758,-0.0859375,0.3056641,-0.1157227,0.09619141
1670,-18.75,15.875,-74.8125,-0.9555664,-0.1420898,-0.06689453,0.3071289,-0.109375,0.09912109
1674,9.75,25.375,-83.1875,-1.013672,-0.3286133,-0.08984375,0.3071289,-0.1020508,0.09912109
1678,31.6875,24.9375,-76.25,-1.005859,-0.3286133,-0.1552734,0.3081055,-0.09570313,0.09912109
1682,40.8125,20.6875,-64.25,-1.017578,-0.2431641,-0.1669922,0.3081055,-0.08837891,0.1030273
1686,43.875,16.5,-55.3125,-0.9399414,-0.1616211,-0.1630859,0.3071289,-0.07958984,0.105957
1690,45,11.375,-59.625,-0.9633789,-0.08007813,-0.2055664,0.3056641,-0.07421875,0.1098633
1694,39.75,-5,-66.5,-0.9326172,0.0009765625,-0.1938477,0.3071289,-0.06689453,0.1083984
1698,22.1875,-14,-58.1875,-0.7773438,-0.07617188,-0.1435547,0.3071289,-0.05957031,0.1044922
1702,14.3125,-19.1875,-48.9375,-0.7426758,-0.1850586,-0.1630859,0.3056641,-0.05566406,0.1069336
1706,18.3125,-22.625,-38.4375,-0.7036133,-0.2861328,-0.1743164,0.309082,-0.04931641,0.105957
1710,26.5,-28.0625,-29.6875,-0.6455078,-0.2900391,-0.1591797,0.309082,-0.04443359,0.1030273
1714,38.1875,-25.25,-24,-0.5991211,-0.3017578,-0.1474609,0.309082,-0.04443359,0.1000977
1719,49.0625,-19.6875,-18.5,-0.6069336,-0.3173828,-0.1938477,0.309082,-0.03808594,0.09765625
1723,60.6875,-28.3125,-19.1875,-0.7348633,-0.1811523,-0.2363281,0.3105469,-0.03564453,0.09619141
1727,53.3125,-42.625,-19.625,-0.6806641,0.004882813,-0.2285156,0.3129883,-0.03320313,0.09082031
1731,29.375,-54.6875,-16.125,-0.6728516,0.05908203,-0.1474609,0.3129883,-0.02832031,0.08691406
1735,5.6875,-65.6875,-13.625,-0.6650391,-0.02587891,-0.128418,0.3154297,-0.02685547,0.08251953
1739,5.0625,-71.1875,-15.0625,-0.5410156,-0.2431641,-0.05908203,0.3173828,-0.02587891,0.07861328
1743,34.0625,-57.5,-17.375,-0.4521484,-0.4414063,-0.01660156,0.3188477,-0.02587891,0.0703125
1747,65.4375,-46.3125,-16.1875,-0.5253906,-0.3442383,0.005859375,0.3212891,-0.02197266,0.06347656
1751,67.9375,-43.875,-11.75,-0.4868164,-0.03369141,0.03271484,0.3212891,-0.01708984,0.06103516
1755,47.3125,-40.75,-10.6875,-0.5371094,0.121582,0.09033203,0.3222656,-0.01318359,0.05517578
1759,14.875,-44.5,-10.75,-0.4907227,0.2070313,0.2060547,0.3237305,-0.01464844,0.05126953
1763,-18.125,-31.0625,-12.5,-0.3901367,0.08642578,0.2441406,0.324707,-0.01318359,0.04882813
1767,-32.6875,-14.5,-2.875,-0.5683594,-0.2202148,0.09814453,0.3222656,-0.01171875,0.04736328
1771,-15.625,-8.0625,4.4375,-0.7114258,-0.4414063,-0.112793,0.324707,-0.01318359,0.04443359
1775,13.1875,-6.125,9.1875,-0.8085938,-0.402832,-0.2167969,0.324707,-0.01464844,0.04443359
1779,23,-11.375,10.9375,-0.8085938,-0.1420898,-0.1821289,0.3237305,-0.01464844,0.04199219
1783,14.5,-14.125,11.5,-0.78125,-0.002441406,-0.07861328,0.324707,-0.01708984,0.04296875
1787,-2,-14.5,12.5625,-0.746582,0.06298828,0.001953125,0.324707,-0.01708984,0.04199219
1791,-11.0625,-6.625,13.8125,-0.7578125,-0.03369141,0.005859375,0.3261719,-0.01806641,0.04052734
1795,-11,-3.1875,13.375,-0.878418,-0.08007813,-0.04736328,0.3295898,-0.01953125,0.04052734
1799,-15.8125,-9.25,19.9375,-0.8857422,-0.1230469,-0.005371094,0.328125,-0.02050781,0.0390625
1803,-19.25,-9.1875,25.6875,-0.8007813,-0.1459961,0.06347656,0.328125,-0.0234375,0.03759766
1807,-21.3125,-6.4375,28.875,-0.746582,-0.1733398,0.125,0.3295898,-0.02587891,0.03759766
1811,-19.875,-0.3125,36.75,-0.6767578,-0.2548828,0.144043,0.328125,-0.02929688,0.03759766
1815,-16.3125,8.4375,43.5625,-0.6689453,-0.2548828,0.1132813,0.3295898,-0.03564453,0.03759766
1819,-7.5,13.25,47.4375,-0.7036133,-0.2900391,0.09814453,0.3295898,-0.03955078,0.03759766
1823,1.6875,17.6875,51.25,-0.7231445,-0.2314453,0.07519531,0.3295898,-0.04199219,0.04199219
1827,4.1875,20.1875,48.75,-0.7578125,-0.1347656,0.04785156,0.3271484,-0.046875,0.04199219
1831,-0.625,18.5,51.625,-0.7695313,-0.1191406,0.03271484,0.3295898,-0.05078125,0.04296875
1835,-6.875,14.875,64.0625,-0.746582,-0.1420898,0.04052734,0.328125,-0.05712891,0.04296875
1839,-4,11.6875,72.4375,-0.6572266,-0.09960938,0.09033203,0.3261719,-0.06445313,0.04443359
1843,-0.75,22.375,70.875,-0.5644531,0.02832031,0.1098633,0.3271484,-0.07177734,0.04882813
1848,0.1875,35.6875,65.375,-0.6884766,0.04736328,-0.005371094,0.3261719,-0.07421875,0.04980469
1852,-0.875,28.375,62.125,-0.8935547,0.1445313,-0.1669922,0.324707,-0.08203125,0.05273438
1856,-15.25,5.375,62.5,-0.8896484,0.1484375,-0.1401367,0.3237305,-0.08837891,0.05664063
1860,-32.6875,-12.125,65.9375,-0.730957,0.2148438,-0.1166992,0.3237305,-0.09423828,0.05517578
1864,-43.5625,-17.5625,69.1875,-0.5683594,0.1914063,0.005859375,0.3222656,-0.1005859,0.05273438
1868,-42.3125,-1.75,66.9375,-0.4326172,0.1176758,0.07519531,0.3222656,-0.109375,0.04980469
1872,-23.25,22.875,58.5625,-0.5449219,0.09033203,-0.005371094,0.3222656,-0.1157227,0.05273438
1876,-4,25.4375,46.0625,-0.7504883,0.1254883,-0.112793,0.3212891,-0.1220703,0.05273438
1880,5.5,15.25,44.5,-0.8666992,0.1640625,-0.1513672,0.3173828,-0.1245117,0.05517578
1884,-8.3125,-8.125,55.625,-0.847168,0.3779297,-0.08203125,0.3173828,-0.1279297,0.05810547
1888,-32.75,-12.4375,62.5,-0.6376953,0.4985352,-0.03222656,0.3154297,-0.1342773,0.05419922
1892,-47.75,-0.8125,49.875,-0.6611328,0.5214844,-0.02832031,0.3139648,-0.140625,0.05273438
1896,-52.3125,3.4375,22.25,-0.7617188,0.4204102,-0.109375,0.3139648,-0.1445313,0.05126953
1900,-49.75,-5.375,7.9375,-0.9907227,0.1367188,-0.1630859,0.3154297,-0.1479492,0.05273438
1904,-42,-30.8125,22.25,-1.048828,-0.01416016,-0.08984375,0.3139648,-0.1518555,0.04736328
1908,-33.875,-43.375,42.4375,-0.9248047,0.1020508,-0.009277344,0.3139648,-0.1533203,0.04736328
1912,-25.3125,-46.625,36.8125,-0.9052734,0.3466797,0.04052734,0.3129883,-0.1582031,0.04052734
1916,-27,-35.5625,1.4375,-0.7851563,0.5410156,0.08642578,0.3129883,-0.1606445,0.03515625
1920,-41.5625,-15.4375,-31.8125,-0.9287109,0.3427734,-0.04003906,0.3139648,-0.1621094,0.03222656
1924,-49.625,-28.875,-15.8125,-1.319824,0.0009765625,-0.07470703,0.3164063,-0.1582031,0.02685547
1928,-49.125,-62.75,17.5,-1.401367,-0.04150391,0.02099609,0.3164063,-0.1606445,0.02294922
1932,-27.6875,-77,34.125,-1.187988,0.06298828,0.2329102,0.3164063,-0.1645508,0.01855469
1936,-2.9375,-62.3125,12.25,-0.8896484,0.3896484,0.3671875,0.3154297,-0.1655273,0.009277344
1940,1.6875,-20.625,-36.125,-0.7426758,0.5253906,0.4521484,0.3188477,-0.1645508,0.004882813
1944,-12.875,20.4375,-55.3125,-1.017578,0.2924805,0.2709961,0.3173828,-0.1630859,0.006347656
1948,-27.25,4.25,-27.8125,-1.521484,-0.02587891,0.1171875,0.3164063,-0.1567383,0.006347656
1952,-11.75,-30,2.6875,-1.618164,-0.1035156,0.1943359,0.3198242,-0.1557617,0.00390625
1956,15.25,-31.9375,2,-1.374023,0.09814453,0.3671875,0.3188477,-0.1557617,0.004882813
1960,17.3125,-12.9375,-12.375,-1.20752,0.4013672,0.409668,0.3188477,-0.1557617,0
1964,5.5625,10.25,-29.0625,-1.23877,0.2963867,0.3056641,0.3188477,-0.1533203,0.0009765625
1968,0.125,14.25,-27.125,-1.463379,0.1293945,0.1826172,0.3188477,-0.1518555,0
1972,9,9,-19,-1.471191,-0.02587891,0.1713867,0.3212891,-0.1494141,0.002441406
1977,18.875,10.3125,-8.5625,-1.479004,0.05908203,0.08642578,0.3212891,-0.1469727,0.004882813
1981,20.5,4.25,-5.1875,-1.48291,0.1757813,0.05175781,0.3212891,-0.1469727,0.006347656
1985,19.3125,1,-8,-1.436035,0.2338867,0.01367188,0.3212891,-0.1469727,0.004882813
1989,5.1875,-2.8125,-7.4375,-1.374023,0.315918,0.01708984,0.3212891,-0.1455078,0.004882813
1993,-16.875,-4.6875,-4.875,-1.246094,0.3310547,0.02490234,0.3222656,-0.1420898,0.00390625
1997,-36.75,-1.9375,-1.875,-1.195801,0.237793,0.03271484,0.3212891,-0.1445313,0.00390625
2001,-39.4375,-1.6875,0.6875,-1.191895,0.03613281,0.02490234,0.3222656,-0.1445313,0.00390625
2005,-22.5625,-0.0625,1.25,-1.133789,-0.09570313,0.04443359,0.3237305,-0.1445313,0.00390625
2009,-0.0625,3.0625,1.625,-1.087402,-0.07617188,0.06738281,0.3212891,-0.1445313,0.0009765625
2013,13.6875,9.9375,0.375,-1.048828,0.02832031,0.1132813,0.3237305,-0.1455078,0.002441406
2017,17.1875,15.25,1.5625,-1.07959,0.1484375,0.1787109,0.3212891,-0.1469727,0.004882813
2021,14,22.9375,-0.25,-1.125977,0.2226563,0.1943359,0.3212891,-0.1445313,0.0078125
2025,8.0625,26.8125,0.8125,-1.25,0.21875,0.2250977,0.3212891,-0.1445313,0.009277344
2029,8.0625,32,1.8125,-1.25,0.1757813,0.2290039,0.3198242,-0.1445313,0.01171875
2033,22.3125,48.5625,-5.5,-1.269531,0.171875,0.2250977,0.3198242,-0.1445313,0.01611328
2037,36.75,65,-20.3125,-1.381836,0.2768555,0.1674805,0.3198242,-0.1445313,0.02148438
2041,31.625,67.25,-25.0625,-1.513672,0.3583984,0.06347656,0.3198242,-0.1430664,0.02685547
2045,14,58.0625,-23.5625,-1.563965,0.3857422,-0.005371094,0.3188477,-0.1367188,0.03369141
2049,-4.375,46,-22.125,-1.54834,0.2924805,-0.02441406,0.3188477,-0.1357422,0.03759766
2053,-11.125,39.6875,-23.6875,-1.413086,0.2265625,0.009765625,0.3198242,-0.1342773,0.04443359
2057,-11.1875,44.5,-29.75,-1.312012,0.09423828,0.03271484,0.3188477,-0.1308594,0.04443359
2061,3.4375,49.375,-35.9375,-1.315918,-0.04150391,0.02490234,0.3173828,-0.1293945,0.04882813
2065,18.875,48.6875,-37.125,-1.339355,-0.06445313,-0.02050781,0.3173828,-0.1269531,0.05419922
2069,25.5625,45.1875,-32.875,-1.304199,0.06298828,-0.03222656,0.3188477,-0.1206055,0.05810547
2073,15.8125,41.4375,-31,-1.273438,0.1293945,-0.03613281,0.3188477,-0.1166992,0.06347656
2077,7.75,37.3125,-30.75,-1.257813,0.1176758,-0.08203125,0.3173828,-0.1142578,0.06640625
2081,12.9375,32.3125,-37.375,-1.203613,0.008789063,-0.1513672,0.3164063,-0.1108398,0.07177734
2085,27.75,28,-49.0625,-1.15332,0.008789063,-0.1513672,0.3154297,-0.1069336,0.07421875
2089,29.625,24.0625,-53.8125,-1.060547,0.04394531,-0.1743164,0.3164063,-0.1020508,0.07861328
2093,24.25,16.8125,-47.25,-1.044922,0.04003906,-0.1938477,0.3154297,-0.09570313,0.07861328
2097,16.4375,10,-44.125,-0.9248047,0.02832031,-0.2128906,0.3164063,-0.08935547,0.08105469
2101,15.5625,4.5625,-46.9375,-0.9013672,-0.02587891,-0.2207031,0.3164063,-0.08691406,0.08105469
2106,18,-5.8125,-49.6875,-0.8818359,-0.09570313,-0.2514648,0.3139648,-0.08056641,0.08105469
2110,33,-16.75,-59.3125,-0.78125,-0.1269531,-0.2167969,0.3164063,-0.07568359,0.07861328
2114,39.125,-19.125,-60.625,-0.7426758,-0.05664063,-0.2397461,0.3188477,-0.07177734,0.07861328
2118,28.6875,-29.25,-55.6875,-0.7426758,-0.002441406,-0.2285156,0.3173828,-0.06298828,0.07714844
2122,10.4375,-41.625,-44.125,-0.7543945,-0.05664063,-0.2475586,0.3188477,-0.05712891,0.07421875
2126,2.75,-56.6875,-36.25,-0.6923828,-0.2548828,-0.2363281,0.3198242,-0.0546875,0.07177734
2130,29.8125,-61.8125,-36.6875,-0.5214844,-0.4414063,-0.109375,0.3222656,-0.05175781,0.06640625
2134,67.5625,-57.8125,-39.3125,-0.4750977,-0.4492188,-0.0859375,0.3237305,-0.046875,0.05664063
2138,89.1875,-57.4375,-36.375,-0.4365234,-0.2353516,0.03271484,0.3261719,-0.04296875,0.05810547
2142,87.6875,-60.625,-23.8125,-0.3393555,-0.08398438,0.1479492,0.3271484,-0.03564453,0.04736328
2146,68.6875,-50.4375,-12.125,-0.2851563,0.03222656,0.1748047,0.328125,-0.03466797,0.04443359
2150,56.625,-47.4375,-5.9375,-0.4365234,-0.04882813,0.07910156,0.3295898,-0.03076172,0.0390625
2154,58.3125,-48.9375,-6.5625,-0.5102539,-0.08398438,-0.001464844,0.3305664,-0.02929688,0.03222656
2158,61,-46.75,-14.25,-0.3745117,0.03613281,0.05957031,0.3320313,-0.02685547,0.02685547
2162,36.5,-32.4375,-12.125,-0.3862305,0.2807617,0.125,0.328125,-0.02685547,0.02392578
2166,-9.9375,-28.125,-9.0625,-0.5756836,0.2226563,0.02880859,0.3295898,-0.02441406,0.02148438
2170,-36.8125,-32,-5.125,-0.6806641,-0.1074219,-0.01318359,0.3295898,-0.0234375,0.01855469
2174,-24.75,-29,0.75,-0.715332,-0.3520508,-0.04394531,0.3320313,-0.02441406,0.01464844
2178,8,-21.0625,4,-0.78125,-0.4257813,-0.07861328,0.3295898,-0.02441406,0.01074219
2182,34,-20.5625,2.125,-0.862793,-0.2045898,-0.001464844,0.3305664,-0.02441406,0.01074219
2186,20.5,-21.25,5.9375,-0.7851563,0.1176758,0.140625,0.3330078,-0.02441406,0.009277344
2190,-7.3125,-16.8125,6.6875,-0.746582,0.140625,0.2368164,0.3305664,-0.02587891,0.006347656
2194,-21.0625,-10.125,4.125,-0.746582,-0.01025391,0.2558594,0.3320313,-0.02441406,0.004882813
2198,-30.5625,-4.125,7.5,-0.7504883,-0.1074219,0.1982422,0.3330078,-0.02587891,0.004882813
2202,-34.4375,0.75,16.625,-0.7851563,-0.2783203,0.144043,0.3320313,-0.02685547,0.006347656
2206,-22.4375,4.8125,24.3125,-0.8510742,-0.3950195,0.06347656,0.3330078,-0.03076172,0.004882813
2210,-3.75,6.125,29.5625,-0.8706055,-0.3442383,0.05175781,0.3320313,-0.03173828,0.006347656
2214,9.6875,8.4375,32.375,-0.8510742,-0.2470703,0.06738281,0.3330078,-0.03466797,0.0078125
2218,15.75,13.0625,36.125,-0.8198242,-0.1152344,0.09423828,0.3330078,-0.03955078,0.006347656
2222,21.8125,19.75,29.5625,-0.8974609,-0.04150391,0.06738281,0.3320313,-0.04052734,0.009277344
2226,18.0625,13.875,26.6875,-0.9399414,0.07080078,0.09033203,0.3330078,-0.04443359,0.01318359
2230,2.6875,10.1875,29.5625,-0.9052734,0.1020508,0.1674805,0.3330078,-0.04833984,0.01074219
2235,-10.9375,9.125,33.0625,-0.8745117,0.04736328,0.1865234,0.3330078,-0.04931641,0.01171875
2239,-14.375,9.6875,35.5,-0.7578125,0.0009765625,0.2094727,0.3344727,-0.05175781,0.01171875
2243,-9.5625,22.25,31.9375,-0.6342773,-0.06445313,0.2402344,0.3330078,-0.05712891,0.01464844
2247,1.9375,36.75,29.0625,-0.6416016,-0.1035156,0.2060547,0.3330078,-0.05957031,0.01611328
2251,4.6875,43.25,31.3125,-0.6572266,0.02441406,0.1367188,0.3330078,-0.06201172,0.02148438
2255,-21.1875,41.5,37.0625,-0.715332,0.2768555,0.05175781,0.3305664,-0.06689453,0.02539063
2259,-62.3125,30.25,40.5625,-0.7504883,0.171875,-0.01660156,0.3320313,-0.06933594,0.02685547
2263,-67.5625,26.5,43,-0.746582,-0.2470703,-0.09375,0.3305664,-0.07324219,0.03515625
2267,-29.75,27.875,49,-0.7426758,-0.4140625,-0.109375,0.3305664,-0.078125,0.03369141
2271,10.25,29.875,51.375,-0.6572266,-0.1811523,-0.02050781,0.3295898,-0.08447266,0.03369141
2275,23.75,31.25,53.25,-0.6303711,0.171875,-0.005371094,0.3295898,-0.08935547,0.03759766
2279,-2.9375,28.875,54.6875,-0.6342773,0.4790039,-0.05517578,0.3261719,-0.09326172,0.04052734
2283,-34.1875,28.3125,44.9375,-0.6650391,0.4282227,-0.07080078,0.3261719,-0.09716797,0.04199219
2287,-44.8125,16.5,37.6875,-0.765625,0.1914063,-0.07861328,0.324707,-0.1020508,0.04589844
2291,-41.5,2.9375,40.625,-0.715332,0.04736328,-0.01318359,0.3237305,-0.1069336,0.04443359
2295,-27.1875,-3.1875,48.5,-0.5913086,0.004882813,0.06738281,0.3212891,-0.1108398,0.04443359
2299,-12.875,3.5625,47.0625,-0.4750977,0.1992188,0.1210938,0.3212891,-0.1166992,0.04443359
2303,-10.6875,19.8125,33.5625,-0.5292969,0.1953125,0.06347656,0.3212891,-0.1206055,0.04736328
2307,-8.6875,23.3125,28.625,-0.7543945,0.121582,-0.009277344,0.3212891,-0.1230469,0.04736328
2311,-10.25,11.5625,33.4375,-0.8706055,0.07080078,-0.05126953,0.3188477,-0.1269531,0.04736328
2315,-13.9375,-2,38.8125,-0.8588867,0.1333008,-0.01318359,0.3198242,-0.1318359,0.04882813
2319,-17.5,-4.9375,36,-0.8125,0.1523438,0.05566406,0.3173828,-0.1318359,0.04882813
2323,-13.375,5.4375,31.4375,-0.8237305,0.1293945,0.07128906,0.3173828,-0.1381836,0.04736328
2327,-10,12.875,34.75,-1.021484,0.1484375,-0.05126953,0.3173828,-0.140625,0.04882813
2331,-4.8125,-2.625,35.5625,-1.253906,0.2768555,-0.09765625,0.3154297,-0.1445313,0.04882813
2335,-5.25,-18.1875,21.75,-1.199707,0.4633789,-0.1206055,0.3164063,-0.1479492,0.04882813
2339,-21.1875,-24.4375,2.8125,-1.199707,0.5722656,-0.06298828,0.3139648,-0.1508789,0.04443359
2343,-39.4375,-28.3125,-10.875,-1.191895,0.4165039,-0.06689453,0.3139648,-0.1494141,0.04443359
2347,-47.4375,-30.875,-20.6875,-1.223145,0.2148438,-0.01318359,0.3164063,-0.1479492,0.04052734
2351,-40.25,-31.25,-18.125,-1.242188,0.01269531,0.04443359,0.3164063,-0.1469727,0.03515625
2355,-25.0625,-32.125,-12.3125,-1.296875,-0.05664063,0.08642578,0.3164063,-0.1469727,0.03222656
2359,-4.125,-30.5,-11.6875,-1.327637,0.004882813,0.140625,0.3198242,-0.1469727,0.02978516
2364,6,-22.1875,-16.125,-1.362793,0.1835938,0.159668,0.3188477,-0.1469727,0.02539063
2368,0.1875,-16.875,-19.875,-1.424316,0.3193359,0.1826172,0.3198242,-0.1445313,0.02392578
2372,-15.0625,-13.3125,-23.6875,-1.424316,0.3193359,0.1826172,0.3198242,-0.140625,0.02392578
2376,-20.625,-8.9375,-25.0625,-1.420898,0.1523438,0.1713867,0.3222656,-0.140625,0.02148438
2380,-15.9375,-10,-19.75,-1.447754,0.06689453,0.1171875,0.3222656,-0.1367188,0.02294922
2384,-9.75,-13.25,-17.375,-1.358887,0.1098633,0.125,0.3212891,-0.1367188,0.01708984
2388,-15.0625,-9.0625,-16.5,-1.23877,0.1254883,0.1713867,0.3212891,-0.1342773,0.01855469
2392,-24.125,-2.0625,-9.5625,-1.168945,0.06298828,0.1748047,0.3222656,-0.1342773,0.01611328
2396,-22.9375,3.25,-2.25,-1.165039,-0.04150391,0.144043,0.3261719,-0.1333008,0.01708984
2400,-8.4375,3.4375,4,-1.184082,-0.09960938,0.09814453,0.3212891,-0.1333008,0.01611328
2404,12.3125,2.8125,6.375,-1.125977,-0.06054688,0.08642578,0.3237305,-0.1333008,0.01611328
2408,32.5625,7.5625,0.6875,-1.063965,0.04394531,0.09423828,0.3212891,-0.1333008,0.01708984
2412,35.875,12.5625,-3.75,-1.037109,0.2109375,0.09814453,0.3212891,-0.1357422,0.01855469
2416,18.125,16.125,-3.4375,-1.056641,0.3041992,0.05566406,0.3198242,-0.1333008,0.02148438
2420,-5.8125,11.625,3.125,-1.157227,0.2729492,-0.001464844,0.3222656,-0.1333008,0.02392578
2424,-19.5,3.3125,8.75,-1.199707,0.1523438,-0.001464844,0.3222656,-0.1342773,0.02148438
2428,-19.3125,-1.5625,12.625,-1.191895,0.07470703,0.03662109,0.3212891,-0.1333008,0.02148438
2432,-12.3125,-1.75,13.875,-1.176758,0.05126953,0.07910156,0.3198242,-0.1342773,0.02148438
2436,-1.625,4.125,13.4375,-1.145508,0.07861328,0.1674805,0.3198242,-0.1367188,0.02001953
2440,6.625,18.4375,8.5,-1.137695,0.1523438,0.2250977,0.3198242,-0.1396484,0.02392578
2444,14.5625,33.4375,2.5625,-1.23877,0.21875,0.2368164,0.3188477,-0.1381836,0.02392578
2448,14.5625,42.6875,-0.75,-1.351074,0.284668,0.2060547,0.3188477,-0.1367188,0.02832031
2452,7.25,45.3125,-1.5,-1.436035,0.3388672,0.1826172,0.3212891,-0.1381836,0.03515625
2456,2,50.375,-5.1875,-1.443848,0.2768555,0.159668,0.3173828,-0.1396484,0.03759766
2460,11.25,58.625,-10.1875,-1.490234,0.2109375,0.125,0.3173828,-0.1396484,0.04589844
2464,24.5625,67.25,-19.125,-1.509766,0.1992188,0.1098633,0.3188477,-0.1357422,0.04882813
2468,27.5625,77.6875,-25.1875,-1.541016,0.3081055,0.07128906,0.3164063,-0.1333008,0.05517578
2472,10.75,79.125,-25.5625,-1.57959,0.3583984,0.02099609,0.3139648,-0.1293945,0.06494141
2476,-13.0625,80.125,-23.5625,-1.591309,0.3544922,-0.05126953,0.3115234,-0.1279297,0.06884766
2480,-24.625,78.125,-27.5,-1.571777,0.1757813,-0.1591797,0.3105469,-0.1269531,0.07861328
2484,-11.5,79.875,-41,-1.563965,-0.02197266,-0.1899414,0.309082,-0.1245117,0.08251953
2488,9.125,84.0625,-52.5,-1.541016,-0.1269531,-0.2207031,0.3081055,-0.1220703,0.08789063
2493,18.5,82.875,-48.25,-1.599121,-0.09179688,-0.34375,0.3071289,-0.1132813,0.09765625
2497,12.875,68.25,-42.75,-1.65332,0.008789063,-0.5014648,0.3032227,-0.1083984,0.1044922
2501,9.3125,42.4375,-48,-1.575684,0.0009765625,-0.59375,0.3022461,-0.1044922,0.1083984
2505,19.9375,19.375,-57.5,-1.455566,-0.06054688,-0.6630859,0.3022461,-0.09960938,0.1123047
2509,31.5,-4.125,-71.5,-1.265625,0.05517578,-0.6591797,0.3032227,-0.09326172,0.1123047
2513,17.625,-28.625,-76.25,-1.137695,0.1875,-0.6479492,0.3032227,-0.08544922,0.1123047
2517,-15.625,-73.5625,-65.375,-1.005859,0.1176758,-0.5976563,0.3056641,-0.08056641,0.1098633
2521,-47.5,-119.6875,-38.25,-0.6342773,-0.04150391,-0.4785156,0.309082,-0.07568359,0.1000977
2525,-44.125,-127.375,-27.5625,-0.04492188,-0.2705078,-0.2705078,0.3139648,-0.07568359,0.09228516
2529,-7.75,-99.8125,-47.75,0.140625,-0.2275391,-0.1860352,0.3188477,-0.07421875,0.08007813
2533,20.125,-97.25,-51,-0.06054688,-0.2202148,-0.2089844,0.3198242,-0.06835938,0.0703125
2537,19.6875,-112.5625,-41.6875,-0.05664063,-0.1230469,-0.1206055,0.3237305,-0.06591797,0.06201172
2541,1.0625,-114.5,-28.5,0.1015625,-0.02197266,-0.05517578,0.328125,-0.06054688,0.04980469
2545,-12.1875,-106.4375,-20.0625,-0.03710938,-0.2045898,-0.07861328,0.3295898,-0.05957031,0.0390625
2549,-0.625,-105.5625,-12,-0.1030273,-0.3754883,-0.05126953,0.328125,-0.05810547,0.03369141
2553,34.1875,-88.25,-8.25,-0.1069336,-0.5112305,0.001953125,0.3320313,-0.05712891,0.02001953
2557,84.8125,-68.125,-11.5,-0.2504883,-0.4414063,0.06347656,0.3320313,-0.05566406,0.01318359
2561,109.75,-53.25,-10.6875,-0.3203125,-0.07617188,0.140625,0.3354492,-0.05322266,0.01074219
2565,89,-40.4375,-7.0625,-0.347168,0.3081055,0.2329102,0.3330078,-0.05322266,0.00390625
2569,42.8125,-27.5,-5.75,-0.4985352,0.3544922,0.2290039,0.3330078,-0.05078125,0
2573,9.6875,-27.375,-5.125,-0.699707,0.2226563,0.2211914,0.3354492,-0.04931641,-0.002441406
2577,-12.8125,-27.625,1.6875,-0.7348633,0.05126953,0.2060547,0.3344727,-0.04931641,-0.00390625
2581,-13.5625,-21.5,6.6875,-0.7734375,-0.1420898,0.2021484,0.3354492,-0.04931641,-0.005371094
2585,-2.3125,-15.1875,8.6875,-0.8549805,-0.1694336,0.1479492,0.3354492,-0.05175781,-0.008300781
2589,5.625,-13.625,9.6875,-0.8896484,-0.1616211,0.1982422,0.3330078,-0.05175781,-0.009277344
2593,15.625,-6.8125,13.1875,-0.8666992,-0.1308594,0.1982422,0.3354492,-0.05175781,-0.01074219
2597,20.625,-4.25,13.625,-0.9013672,0.004882813,0.1982422,0.3354492,-0.05322266,-0.01220703
2601,10.6875,-4.75,15.3125,-0.9169922,0.1020508,0.2060547,0.3354492,-0.0546875,-0.01220703
2605,1.25,-5.5,16.75,-0.9326172,0.05517578,0.1865234,0.3354492,-0.05712891,-0.01367188
2609,1.625,-6.125,16,-0.9208984,0.01660156,0.1982422,0.3354492,-0.05957031,-0.01074219
2613,5,-2.625,12.8125,-0.8818359,-0.002441406,0.2094727,0.3330078,-0.05810547,-0.01367188
2617,6.625,0.3125,12.0625,-0.8666992,-0.01806641,0.2133789,0.3354492,-0.06201172,-0.01367188
2622,6.6875,5.0625,12.75,-0.8276367,-0.02587891,0.1748047,0.3354492,-0.06054688,-0.01464844
2626,9.8125,11.125,10.125,-0.8666992,-0.06445313,0.1289063,0.3330078,-0.06445313,-0.01220703
2630,12.0625,9.25,10.625,-0.9130859,-0.05273438,0.09814453,0.3354492,-0.06445313,-0.009277344
2634,10,5.8125,14.6875,-0.8745117,-0.02197266,0.1210938,0.3344727,-0.06445313,-0.01074219
2638,5.125,2.875,18.125,-0.796875,0.04003906,0.159668,0.3344727,-0.06689453,-0.009277344
2642,-4.5,5.375,16.875,-0.7348633,0.08251953,0.1748047,0.3354492,-0.06835938,-0.01074219
2646,-15.1875,8.1875,19.5,-0.6728516,0.04736328,0.1904297,0.3364258,-0.06835938,-0.009277344
2650,-24.25,14.4375,22.125,-0.6147461,0.03613281,0.1748047,0.3354492,-0.07177734,-0.008300781
2654,-29.3125,16,26.0625,-0.5722656,-0.02197266,0.1748047,0.3354492,-0.07421875,-0.008300781
2658,-29.1875,17.375,31,-0.4711914,-0.02587891,0.1826172,0.3354492,-0.07568359,-0.005371094
2662,-35.5,22.125,37.5,-0.3974609,0.03222656,0.1904297,0.3344727,-0.07958984,-0.005371094
2666,-47.1875,25.8125,50.1875,-0.3549805,0.04736328,0.1210938,0.3330078,-0.08544922,-0.002441406
2670,-53,30.875,55.9375,-0.3320313,0.09033203,0.03271484,0.3330078,-0.08837891,-0.002441406
2674,-51.375,29.9375,48.6875,-0.3666992,0.121582,-0.04003906,0.3330078,-0.09570313,0.0009765625
2678,-50.25,27.625,37.25,-0.3706055,0.04003906,-0.09765625,0.3330078,-0.1005859,0.004882813
2682,-47.8125,25.5,40.1875,-0.4829102,-0.1191406,-0.1054688,0.3305664,-0.1020508,0.004882813
2686,-40.5625,14.5625,56.4375,-0.5722656,-0.2509766,-0.07470703,0.3305664,-0.1083984,0.006347656
2690,-18.1875,5.875,76,-0.5141602,-0.2241211,-0.04003906,0.3261719,-0.1157227,0.0078125
2694,7.375,8.125,73.8125,-0.4711914,-0.07226563,0.005859375,0.328125,-0.1220703,0.006347656
2698,30.4375,27.6875,57.4375,-0.5605469,0.1254883,-0.009277344,0.324707,-0.1293945,0.009277344
2702,36.25,32.6875,34.5625,-0.8857422,0.2299805,-0.04003906,0.324707,-0.1333008,0.01171875
2706,29.5,14.0625,32.9375,-1.067871,0.2573242,-0.02832031,0.324707,-0.1333008,0.01318359
2710,17.125,-7.5625,45.125,-1.083496,0.3193359,0.05175781,0.324707,-0.1381836,0.01855469
2714,0.1875,-20.3125,48.25,-1.103027,0.5097656,0.09423828,0.3212891,-0.140625,0.01611328
2718,-22.3125,-20.875,33.75,-1.056641,0.3935547,0.2021484,0.3222656,-0.1469727,0.01611328
2722,-20.75,-7.8125,30.1875,-1.099121,0.1098633,0.2480469,0.3212891,-0.1518555,0.01074219
2726,14.1875,1.625,29.1875,-1.246094,-0.05273438,0.1826172,0.3198242,-0.1542969,0.009277344
2730,55,0.375,14.8125,-1.339355,0.253418,0.2250977,0.3198242,-0.1542969,0.01171875
2734,59.1875,4.6875,-4.75,-1.242188,0.5644531,0.2329102,0.3188477,-0.1557617,0.01464844
2738,22.8125,10.3125,-14.875,-1.23877,0.7353516,0.2211914,0.3198242,-0.1533203,0.01611328
2742,-20.0625,9.1875,-19.125,-1.223145,0.5566406,0.2133789,0.3188477,-0.1518555,0.01611328
2746,-38.8125,19.5625,-17.375,-1.215332,0.21875,0.2441406,0.3198242,-0.1508789,0.01708984
2751,-24.5,32.125,-10.8125,-1.312012,-0.06054688,0.2519531,0.3188477,-0.1494141,0.01855469
2755,11.75,41.375,-18.4375,-1.525391,-0.1928711,0.09814453,0.3212891,-0.1494141,0.02001953
2759,47.6875,27.3125,-24.125,-1.723145,-0.08789063,0.001953125,0.3188477,-0.1455078,0.02392578
2763,54.0625,16.4375,-21.0625,-1.54834,0.2265625,-0.005371094,0.3188477,-0.1420898,0.02832031
2767,31.4375,16.0625,-17.5,-1.439941,0.4672852,-0.02832031,0.3212891,-0.1381836,0.02978516
2771,3,14.75,-23.625,-1.358887,0.4868164,-0.03613281,0.3188477,-0.1381836,0.03222656
2775,-20.1875,16.5,-30.5625,-1.285156,0.3623047,-0.04003906,0.3188477,-0.1357422,0.03613281
2779,-29.25,11.625,-31.25,-1.358887,0.07861328,-0.06298828,0.3188477,-0.1342773,0.03515625
2783,-21.625,-6.125,-22.125,-1.35498,-0.1308594,-0.02832031,0.3212891,-0.1308594,0.03369141
2787,-11.375,-12.9375,-7.75,-1.118652,-0.1538086,0.09814453,0.3237305,-0.1293945,0.03515625
2791,-4.1875,-4.375,1.625,-0.9438477,-0.05664063,0.2060547,0.3198242,-0.1293945,0.03222656
2795,7.5,15.375,-1.625,-0.8046875,-0.02587891,0.2558594,0.3212891,-0.1293945,0.03369141
2799,23.375,40.75,-8.125,-0.8164063,-0.06054688,0.2211914,0.3212891,-0.1293945,0.03613281
2803,40.25,51.5625,-10.8125,-0.9555664,-0.04882813,0.140625,0.3222656,-0.1269531,0.0390625
2807,41.125,52.25,-4.8125,-0.9633789,0.121582,0.1098633,0.3188477,-0.1269531,0.04589844
2811,26,48.5625,-3.5625,-1.118652,0.2070313,-0.02832031,0.3173828,-0.1230469,0.05273438
2815,14.25,31.375,-5.5625,-1.25,0.171875,-0.1435547,0.3173828,-0.1220703,0.05419922
2819,0.25,13.25,-2.375,-1.176758,0.2070313,-0.1323242,0.3154297,-0.1220703,0.05810547
2823,-10.875,7.9375,-1,-1.075684,0.1953125,-0.09765625,0.3164063,-0.1230469,0.05957031
2827,-12.625,6.6875,-7.125,-1.083496,0.1601563,-0.1054688,0.3154297,-0.1230469,0.05957031
2831,-12.9375,6.625,-12.8125,-1.052734,0.1445313,-0.0859375,0.3173828,-0.1220703,0.05957031
2835,-12.9375,13.8125,-16.875,-1.125977,0.07080078,-0.07080078,0.3173828,-0.1220703,0.05957031
2839,-6.4375,18.875,-18.3125,-1.23877,-0.006347656,-0.06298828,0.3173828,-0.1220703,0.06347656
2843,6.3125,23.8125,-15.75,-1.385742,-0.05273438,-0.09765625,0.3164063,-0.1181641,0.06347656
2847,12.75,20.625,-10.6875,-1.48291,0.06298828,-0.1015625,0.3154297,-0.1166992,0.06494141
2851,2.5,15.3125,-5.0625,-1.479004,0.1796875,-0.109375,0.3164063,-0.1157227,0.06640625
2855,-13.25,14.5625,-3.5,-1.381836,0.2265625,-0.06298828,0.3154297,-0.1142578,0.0703125
2859,-20.6875,25.3125,-7.5,-1.315918,0.121582,-0.03613281,0.3139648,-0.1181641,0.06884766
2863,-8.625,37.375,-11.9375,-1.401367,-0.01416016,-0.04736328,0.3139648,-0.1142578,0.07177734
2867,8.5625,44.375,-17.5,-1.447754,0.004882813,-0.128418,0.3129883,-0.1142578,0.07568359
2871,17.6875,46.1875,-18.4375,-1.544922,0.02832031,-0.1474609,0.3139648,-0.1118164,0.08105469
2875,16.25,43.25,-17.125,-1.552246,0.121582,-0.1860352,0.3105469,-0.109375,0.08251953
2880,7.625,41.375,-16.4375,-1.513672,0.1523438,-0.2128906,0.309082,-0.1069336,0.08691406
2884,1.5,47,-21,-1.443848,0.1835938,-0.2553711,0.309082,-0.1044922,0.09326172
2888,-0.1875,53.1875,-31.625,-1.479004,0.1293945,-0.3515625,0.309082,-0.1044922,0.09619141
2892,6.5,53.5,-42.5,-1.513672,0.09814453,-0.4169922,0.3056641,-0.1005859,0.1015625
2896,8.375,44.0625,-49.25,-1.54834,0.08251953,-0.4863281,0.3056641,-0.09570313,0.105957
2900,-6.75,27.3125,-52.5,-1.393555,0.1992188,-0.4438477,0.3056641,-0.09179688,0.1083984
2904,-29.9375,19.875,-56.25,-1.168945,0.1293945,-0.3745117,0.3046875,-0.08691406,0.1113281
2908,-35.0625,18.8125,-64.3125,-1.052734,-0.1347656,-0.3632813,0.3046875,-0.08300781,0.1113281
2912,-13.3125,13.0625,-72.125,-1.029297,-0.3989258,-0.3666992,0.3032227,-0.078125,0.1137695
2916,10,4.3125,-78.9375,-0.9438477,0.1992188,-0.3325195,0.3046875,-0.07177734,0.1137695
2920,32.5625,-13,-57.875,-1.021484,-0.46875,-0.3974609,0.3056641,-0.06689453,0.1137695
2924,41.3125,-33.5,-39.75,-0.9477539,-0.3989258,-0.324707,0.3032227,-0.05957031,0.1137695
2928,44.8125,-48.5,-24.625,-0.699707,-0.2202148,-0.2592773,0.3056641,-0.05566406,0.1113281
2932,41.5625,-56.9375,-25.9375,-0.5566406,-0.04541016,-0.1362305,0.309082,-0.04931641,0.1044922
2936,43.625,-65.125,-33.9375,-0.4287109,-0.04541016,-0.112793,0.309082,-0.046875,0.1000977
2940,46.8125,-77.375,-41,-0.3588867,0.02832031,0.04052734,0.3139648,-0.04296875,0.09326172
2944,22.8125,-89.125,-32.8125,-0.2734375,0.1992188,0.1865234,0.3154297,-0.03808594,0.08398438
2948,-8.25,-94.375,-23.1875,-0.1264648,0.2226563,0.3173828,0.3173828,-0.03710938,0.07861328
2952,-26.4375,-83.4375,-27.0625,-0.08789063,0.1914063,0.3598633,0.3198242,-0.03173828,0.06884766
2956,-27.5625,-57.75,-36.9375,-0.1767578,-0.08789063,0.2133789,0.3222656,-0.02929688,0.06201172
2960,-2.75,-45.125,-38.375,-0.3745117,-0.3364258,0.09814453,0.3237305,-0.02929688,0.05957031
2964,11.75,-40.1875,-29.375,-0.3935547,-0.1850586,0.04052734,0.3237305,-0.02587891,0.05419922
2968,-2.375,-30.125,-12.1875,-0.3242188,-0.1420898,0.04785156,0.3261719,-0.0234375,0.04980469
2972,-14.1875,-13.5625,2.5,-0.4130859,-0.2241211,0.005859375,0.3261719,-0.0234375,0.05126953
2976,-6.625,-0.5625,9.8125,-0.5024414,-0.3286133,-0.1166992,0.324707,-0.02441406,0.04736328
2980,14.5625,11.9375,8.5,-0.6186523,-0.402832,-0.1860352,0.3261719,-0.02441406,0.04736328
2984,35.5625,16.4375,8.3125,-0.8085938,-0.3017578,-0.3129883,0.324707,-0.02587891,0.04980469
2988,32.25,0.8125,14.5,-0.9287109,-0.1113281,-0.2861328,0.324707,-0.02441406,0.05126953
2992,12.4375,-9.9375,20.6875,-0.8198242,-0.03759766,-0.128418,0.324707,-0.02587891,0.04980469
2996,-0.125,-5.4375,24.4375,-0.7192383,-0.1113281,-0.02050781,0.324707,-0.02929688,0.04882813
3000,7.9375,9.3125,22.1875,-0.831543,-0.2431641,-0.128418,0.3271484,-0.02832031,0.04882813
3004,23.0625,4,18.375,-0.9907227,-0.1967773,-0.1435547,0.324707,-0.03173828,0.04882813
3009,22.4375,-1.4375,17.1875,-0.9399414,-0.06445313,-0.06689453,0.324707,-0.03320313,0.05126953
3013,9.8125,-2.375,21.4375,-0.9477539,-0.02197266,0.001953125,0.3271484,-0.03466797,0.04882813
3017,6.375,-1.5625,20.875,-0.9750977,-0.08007813,-0.02050781,0.324707,-0.03710938,0.04736328
3021,11.25,-2.9375,17.375,-1.009766,-0.07226563,-0.04003906,0.3261719,-0.03808594,0.04980469
3025,11.25,-4.3125,14.6875,-0.9829102,-0.07226563,-0.001464844,0.3271484,-0.03808594,0.04882813
3029,12.375,-1.1875,15.625,-0.9907227,-0.08007813,-0.01318359,0.3261719,-0.04052734,0.04736328
3033,14.75,-1.9375,14.5625,-1.033203,-0.06445313,-0.05126953,0.3271484,-0.04052734,0.04980469
3037,17.25,-5.125,9.125,-1.048828,-0.02587891,-0.07861328,0.3261719,-0.04296875,0.04736328
3041,13.8125,-10.25,5.6875,-1.021484,-0.01806641,-0.06689453,0.328125,-0.04443359,0.04736328
3045,5.375,-14.625,8.1875,-0.9365234,-0.04150391,-0.02050781,0.328125,-0.04443359,0.04589844
3049,0.1875,-12.9375,11.125,-0.8549805,-0.09570313,0.02099609,0.3271484,-0.04199219,0.04443359
3053,3.3125,-9.625,9.4375,-0.8085938,-0.1616211,0.02490234,0.3271484,-0.04443359,0.04199219
3057,5.6875,-6.375,12,-0.7578125,-0.1459961,0.005859375,0.3295898,-0.04443359,0.04199219
3061,1.75,-2.6875,19.5625,-0.730957,-0.1538086,0.009765625,0.328125,-0.046875,0.04199219
3065,2.125,0.125,24.375,-0.7270508,-0.1655273,-0.009277344,0.3271484,-0.05078125,0.04296875
3069,2.9375,2.3125,25.75,-0.6650391,-0.1074219,0.02490234,0.328125,-0.05078125,0.04052734
3073,-1.4375,3.8125,29.8125,-0.5874023,-0.04150391,0.04785156,0.3271484,-0.05566406,0.04296875
3077,-10.875,7.4375,33.75,-0.5449219,-0.002441406,0.06738281,0.3271484,-0.05566406,0.04296875
3081,-21.125,9.9375,37.25,-0.5527344,0.0009765625,0.04443359,0.328125,-0.06054688,0.04296875
3085,-28,15.3125,40.5,-0.5253906,-0.006347656,0.03662109,0.3271484,-0.06445313,0.04296875
3089,-32.3125,22.1875,42.875,-0.5722656,-0.03759766,-0.001464844,0.3261719,-0.07080078,0.04589844
3093,-25.625,26.1875,42.5,-0.6689453,-0.1420898,-0.04736328,0.328125,-0.07324219,0.04589844
3097,-10.9375,20.6875,43.25,-0.7075195,-0.1113281,-0.112793,0.3271484,-0.07714844,0.05126953
3101,-3.375,13.625,43.5625,-0.6533203,0.05126953,-0.1015625,0.3237305,-0.08203125,0.05126953
3105,-13.5,10,40.625,-0.6264648,0.2299805,-0.04394531,0.324707,-0.08544922,0.05126953
3109,-32.3125,9.1875,31.1875,-0.6069336,0.4282227,-0.001464844,0.324707,-0.08935547,0.05419922
3113,-52.9375,7.5,30.6875,-0.7036133,0.1679688,0.005859375,0.3237305,-0.09423828,0.05126953
3117,-51.875,8.8125,34.5,-0.7231445,-0.03759766,-0.02050781,0.3237305,-0.09716797,0.05419922
3121,-39.8125,5.3125,39.8125,-0.7734375,-0.07226563,-0.03222656,0.3212891,-0.1030273,0.05273438
3125,-23.875,-1.25,43.3125,-0.7036133,-0.02587891,0.02099609,0.3212891,-0.1069336,0.05517578
3129,-6,-0.8125,34.875,-0.6264648,0.04736328,0.1098633,0.3198242,-0.1118164,0.05419922
3133,-1.0625,7.25,30.875,-0.5683594,0.237793,0.2021484,0.3212891,-0.1142578,0.05517578
3138,-17.125,16.6875,27.875,-0.7075195,0.2226563,0.1635742,0.3198242,-0.1181641,0.05517578
3142,-22.5625,17.4375,36,-0.847168,0.08642578,0.140625,0.3198242,-0.1196289,0.05517578
3146,-17.8125,15,40.125,-1.017578,0.09033203,0.02880859,0.3188477,-0.1230469,0.05517578
3150,-12.125,2.8125,33.625,-1.12207,0.1640625,-0.009277344,0.3173828,-0.1293945,0.05957031
3154,-12.9375,-4.5,21.9375,-1.145508,0.2612305,-0.04736328,0.3154297,-0.1318359,0.05810547
3158,-22.875,-16,11.3125,-1.172852,0.284668,0.005859375,0.3164063,-0.1318359,0.05664063
3162,-35.5625,-20.625,14.4375,-1.075684,0.2070313,0.06347656,0.3173828,-0.1357422,0.05273438
3166,-40.3125,-15.0625,18.375,-1.083496,0.1137695,0.03662109,0.3164063,-0.1367188,0.05126953
3170,-29,-15.1875,17.4375,-1.269531,0.04736328,-0.06298828,0.3164063,-0.1396484,0.04980469
3174,-16.3125,-21.375,10.5,-1.308105,0.1679688,-0.07861328,0.3164063,-0.1420898,0.04736328
3178,-20.8125,-25.6875,1.4375,-1.37793,0.2416992,-0.06298828,0.3154297,-0.1430664,0.04443359
3182,-30.625,-29.9375,0.125,-1.351074,0.140625,-0.04003906,0.3139648,-0.1430664,0.04199219
3186,-33.6875,-33.8125,5.3125,-1.308105,0.1254883,0.01708984,0.3173828,-0.1445313,0.03759766
3190,-27,-33.375,4.75,-1.215332,0.1254883,0.05566406,0.3154297,-0.1430664,0.03613281
3194,-14.9375,-25.5,-9.4375,-1.137695,0.1875,0.09033203,0.3173828,-0.1455078,0.03515625
3198,-15.75,-15.4375,-23.6875,-1.149414,0.09814453,0.08251953,0.3188477,-0.1445313,0.02978516
3202,-21.625,-16.0625,-11.8125,-1.273438,-0.02978516,0.04785156,0.3198242,-0.1420898,0.02685547
3206,-21,-23.4375,6.9375,-1.289063,-0.09179688,0.05175781,0.3173828,-0.1420898,0.02539063
3210,-3.9375,-21.6875,14.5625,-1.308105,-0.04882813,0.05566406,0.3173828,-0.1445313,0.02294922
3214,15.375,-19.4375,8.3125,-1.28125,0.1293945,0.05566406,0.3198242,-0.1445313,0.02001953
3218,18,-9.4375,-5,-1.211426,0.3583984,0.02880859,0.3173828,-0.1455078,0.02148438
3222,-3.0625,-5.375,-14.3125,-1.296875,0.4516602,-0.04003906,0.3198242,-0.1445313,0.02148438
3226,-29.5,-16.5625,-7.8125,-1.420898,0.284668,-0.1015625,0.3198242,-0.1430664,0.02001953
3230,-37.0625,-27.75,-1.0625,-1.389648,0.1367188,-0.04736328,0.3212891,-0.1430664,0.01611328
3234,-34.875,-32.0625,2.5625,-1.335449,0.01660156,-0.01318359,0.3212891,-0.1430664,0.01171875
3238,-27,-33.4375,6.25,-1.25,-0.03369141,0.02880859,0.3222656,-0.1430664,0.009277344
3242,-19.1875,-29.8125,9.0625,-1.118652,-0.03369141,0.105957,0.3212891,-0.1455078,0.0078125
3246,-11.0625,-16.5,9.875,-1.021484,0.0009765625,0.1674805,0.3212891,-0.1455078,0.002441406
3250,-1.125,-3.125,7.5625,-1.063965,0.01660156,0.1826172,0.3212891,-0.1479492,0.0009765625
3254,6.5,1.5625,9.375,-1.172852,0.02441406,0.1635742,0.3212891,-0.1479492,0.002441406
3258,13.1875,0.9375,13.875,-1.184082,0.07080078,0.2060547,0.3198242,-0.1494141,0.002441406
3262,19.1875,4.1875,17.5625,-1.199707,0.1367188,0.2329102,0.3198242,-0.1508789,0.002441406
3267,25.5625,10.25,16.875,-1.168945,0.284668,0.3095703,0.3173828,-0.1518555,0.00390625
3271,28.125,29.875,8.25,-1.187988,0.3740234,0.340332,0.3188477,-0.1533203,0.004882813
3275,27.0625,47.0625,-1.3125,-1.319824,0.4360352,0.3095703,0.3198242,-0.1533203,0.01074219
3279,17.875,61,-7.1875,-1.432129,0.4477539,0.1826172,0.3188477,-0.1533203,0.01318359
3283,7.25,67.75,-11.8125,-1.65332,0.3623047,0.03271484,0.3173828,-0.1508789,0.02148438
3287,0.8125,61.9375,-10.25,-1.761719,0.2456055,-0.05908203,0.3173828,-0.1494141,0.02539063
3291,3.4375,57.5625,-5.0625,-1.742188,0.1914063,-0.1245117,0.3164063,-0.1494141,0.03076172
3295,7.3125,56.625,-9.8125,-1.687988,0.2265625,-0.1513672,0.3164063,-0.1479492,0.0390625
3299,11.0625,57.125,-20.1875,-1.629883,0.1875,-0.1015625,0.3164063,-0.1469727,0.04199219
3303,21.875,65.375,-31.875,-1.494141,0.07470703,-0.0859375,0.3139648,-0.1455078,0.04882813
3307,39.875,74.8125,-43.4375,-1.467285,0.02441406,-0.07080078,0.3154297,-0.1396484,0.05517578
3311,57.8125,81,-52,-1.416992,0.004882813,-0.1206055,0.3129883,-0.1357422,0.06347656
3315,67.3125,80.875,-60.4375,-1.416992,0.04003906,-0.1630859,0.3105469,-0.1293945,0.0703125
3319,66.3125,72.625,-57.6875,-1.413086,0.04394531,-0.2207031,0.309082,-0.1196289,0.08251953
3323,59.875,54.5625,-53.5,-1.347168,0.09033203,-0.2167969,0.3115234,-0.1157227,0.08691406
3327,46.25,40.9375,-49.5625,-1.184082,0.1176758,-0.1938477,0.309082,-0.1083984,0.09082031
3331,35.1875,32.375,-48.25,-1.041016,0.06689453,-0.1630859,0.309082,-0.1005859,0.09472656
3335,34.8125,25.0625,-54.125,-0.9399414,0.02441406,-0.1860352,0.3071289,-0.09570313,0.09619141
3339,34,17.375,-58.375,-0.8276367,-0.03759766,-0.1630859,0.3081055,-0.09082031,0.1015625
3343,38.375,10.625,-47.75,-0.7617188,-0.1269531,-0.1899414,0.3081055,-0.08300781,0.1030273
3347,45.1875,-1.0625,-42,-0.6494141,-0.08398438,-0.2207031,0.3081055,-0.07714844,0.1030273
3351,52.6875,-8.1875,-39.5625,-0.5488281,-0.06445313,-0.2436523,0.3105469,-0.07177734,0.1044922
3355,56.9375,-15.4375,-39.4375,-0.5063477,-0.05273438,-0.2631836,0.309082,-0.06689453,0.1015625
3359,57.375,-33.625,-37.75,-0.5795898,0.04003906,-0.2436523,0.309082,-0.06201172,0.1000977
3363,45.9375,-55,-38.4375,-0.4443359,0.09814453,-0.1938477,0.3105469,-0.05566406,0.09912109
3367,30.5,-65.3125,-39.1875,-0.3549805,0.121582,-0.128418,0.3129883,-0.05175781,0.09082031
3371,16.3125,-72.125,-38.0625,-0.2583008,-0.03759766,-0.07080078,0.3154297,-0.046875,0.08691406
3375,24.75,-66.8125,-34.25,-0.28125,-0.2822266,-0.01660156,0.3164063,-0.04443359,0.08007813
3379,43.0625,-66.125,-26.3125,-0.3432617,-0.3911133,-0.005371094,0.3173828,-0.04052734,0.07324219
3383,55.6875,-64.125,-12.125,-0.3125,-0.2431641,0.08642578,0.3188477,-0.03564453,0.06494141
3387,54.625,-55.8125,-6.625,-0.2080078,-0.06445313,0.2441406,0.3237305,-0.03564453,0.05957031
3391,43.625,-37.625,-3.3125,-0.2387695,0.04736328,0.3442383,0.3222656,-0.03320313,0.05664063
3396,24.9375,-17,-0.9375,-0.3203125,0.05126953,0.3330078,0.324707,-0.03076172,0.05419922
3400,18,4.3125,5.4375,-0.5292969,-0.08789063,0.1635742,0.324707,-0.03320313,0.05126953
3404,15.8125,6.3125,10,-0.699707,-0.03759766,0.005859375,0.324707,-0.03173828,0.05419922
3408,5.625,6.375,13.6875,-0.699707,0.05908203,-0.04736328,0.3237305,-0.03320313,0.05664063
3412,-8.625,11.875,10.0625,-0.8046875,0.09033203,-0.1977539,0.3261719,-0.03466797,0.05273438
3416,-15.4375,4.625,6.125,-0.9399414,-0.05273438,-0.2592773,0.324707,-0.03564453,0.05517578
3420,-11.375,-2.375,6.0625,-0.9326172,-0.1928711,-0.2670898,0.3261719,-0.03710938,0.05517578
3424,-1.875,-3.75,9.6875,-0.9208984,-0.2275391,-0.2397461,0.324707,-0.03808594,0.05517578
3428,10.625,-5.5,11.125,-0.9750977,-0.2353516,-0.1938477,0.324707,-0.03710938,0.05517578
3432,17.4375,-7.9375,15.3125,-0.9555664,-0.1538086,-0.112793,0.324707,-0.03808594,0.05419922
3436,17,-8.0625,17.5625,-0.9208984,-0.04541016,-0.005371094,0.324707,-0.03955078,0.05273438
3440,11.4375,-3.8125,13.3125,-0.9091797,0.008789063,0.05957031,0.324707,-0.04052734,0.05126953
3444,7.375,0.9375,8.9375,-0.9477539,0.0009765625,0.04052734,0.324707,-0.04052734,0.05419922
3448,1.6875,-0.25,8.375,-0.9868164,0.004882813,-0.005371094,0.324707,-0.04296875,0.05126953
3452,-3.6875,-1.75,8.75,-0.9829102,-0.04541016,-0.01318359,0.3261719,-0.04296875,0.05126953
3456,-7.8125,-3.5625,9.75,-0.9399414,-0.06054688,-0.009277344,0.324707,-0.04443359,0.05126953
3460,-9.5625,-3,11.4375,-0.8745117,-0.09570313,-0.02441406,0.3261719,-0.046875,0.05126953
3464,-9.8125,-1.75,11,-0.8237305,-0.1074219,-0.04736328,0.3261719,-0.046875,0.05273438
3468,-13.5,-4,12.75,-0.730957,-0.08007813,-0.03222656,0.3261719,-0.046875,0.05126953
3472,-22.25,-4.8125,18.625,-0.6376953,-0.05664063,0.005859375,0.3261719,-0.04931641,0.05126953
3476,-37,-5,22.9375,-0.5102539,0.008789063,0.08251953,0.324707,-0.05322266,0.04882813
3480,-51.1875,1.1875,23.375,-0.3354492,0.02441406,0.1367188,0.3271484,-0.05566406,0.04980469
3484,-55,15.25,22.3125,-0.3432617,-0.1347656,0.1171875,0.3271484,-0.05957031,0.05126953
3488,-47.25,21.5625,29,-0.4672852,-0.2548828,0.04443359,0.3271484,-0.06298828,0.05126953
3492,-34.5625,22.375,42.4375,-0.4790039,-0.2744141,0.02880859,0.3261719,-0.06591797,0.05419922
3496,-26.625,21.375,58.625,-0.4946289,-0.1308594,-0.02441406,0.3237305,-0.07080078,0.05664063
3500,-26.875,20.75,67.5625,-0.4711914,0.02050781,-0.06298828,0.324707,-0.078125,0.05810547
3504,-30.3125,21.25,66.3125,-0.5644531,0.121582,-0.08203125,0.3222656,-0.08203125,0.05957031
3508,-34.8125,17.6875,56.25,-0.6533203,0.1640625,-0.1015625,0.3212891,-0.09179688,0.06201172
3512,-39.5,8.625,50.875,-0.6689453,0.1367188,-0.09375,0.3198242,-0.09716797,0.06347656
3516,-36.5625,11.125,52.75,-0.6455078,0.06298828,-0.112793,0.3188477,-0.1005859,0.06347656
3520,-31.4375,8.6875,51.75,-0.796875,0.1333008,-0.1630859,0.3198242,-0.1069336,0.06201172
3525,-37,-1,45.875,-0.8276367,0.1523438,-0.1669922,0.3198242,-0.1157227,0.06347656
3529,-34.375,-5.125,44.6875,-0.9013672,0.0009765625,-0.1552734,0.3188477,-0.1166992,0.06201172
3533,-23.0625,-18.8125,48.25,-0.9130859,0.05126953,-0.09765625,0.3173828,-0.1220703,0.05957031
3537,-12.1875,-22.5,49,-0.847168,0.2148438,-0.06298828,0.3139648,-0.1308594,0.05664063
3541,-19.375,-23.1875,35.3125,-0.8935547,0.5292969,-0.04736328,0.3164063,-0.1318359,0.05810547
3545,-41.75,-19.75,11,-0.9594727,0.4360352,-0.05517578,0.3164063,-0.1357422,0.05517578
3549,-57.25,-27.1875,4.5,-1.106934,0.2265625,-0.06298828,0.3164063,-0.1396484,0.04980469
3553,-60.75,-40.6875,17.625,-1.176758,0.03613281,-0.09765625,0.3164063,-0.1396484,0.04882813
3557,-53.1875,-58,27.5,-1.253906,0.07470703,-0.001464844,0.3188477,-0.1430664,0.04199219
3561,-37.375,-60.75,17.875,-1.114746,0.1254883,0.1020508,0.3188477,-0.1469727,0.03369141
3565,-24.25,-45,-1.5,-1.044922,0.1953125,0.1982422,0.3173828,-0.1479492,0.03076172
3569,-18.6875,-26,-8.625,-1.15332,0.2226563,0.1943359,0.3188477,-0.1479492,0.02539063
3573,-27.375,-25.5,-7.75,-1.389648,0.2729492,0.1826172,0.3188477,-0.1479492,0.02148438
3577,-33.75,-34.4375,-6,-1.45166,0.253418,0.1674805,0.3188477,-0.1479492,0.02001953
3581,-34.75,-41.625,-13.6875,-1.393555,0.2299805,0.1826172,0.3188477,-0.1479492,0.01464844
3585,-32,-35.125,-18.125,-1.292969,0.1254883,0.1713867,0.3222656,-0.1469727,0.01318359
3589,-24.5625,-31.375,-18.1875,-1.319824,0.03222656,0.1943359,0.3212891,-0.1455078,0.009277344
3593,-12,-28.25,-17.375,-1.261719,-0.01806641,0.2021484,0.3212891,-0.1430664,0.004882813
3597,0.9375,-22.6875,-14.125,-1.253906,-0.002441406,0.2368164,0.3222656,-0.1420898,0.002441406
3601,6.5625,-16.875,-14.875,-1.215332,0.06689453,0.2290039,0.324707,-0.140625,-0.001464844
3605,3.0625,-10.625,-9.75,-1.191895,0.1098633,0.1748047,0.3237305,-0.1396484,-0.001464844
3609,1.4375,-10,-9,-1.199707,0.09423828,0.1132813,0.3261719,-0.1381836,-0.002441406
3613,6.375,-11.875,-10.875,-1.230957,0.06689453,0.09033203,0.324707,-0.1381836,-0.00390625
3617,3.75,-17.5,-7.375,-1.273438,0.1020508,0.09033203,0.324707,-0.1357422,-0.002441406
3621,-4.6875,-23.5,-1.3125,-1.261719,0.07080078,0.1367188,0.324707,-0.1357422,-0.00390625
3625,-10.25,-27.375,7.3125,-1.195801,0.04736328,0.1982422,0.324707,-0.1357422,-0.009277344
3629,-12,-22.25,10.9375,-1.063965,0.08642578,0.2866211,0.324707,-0.1381836,-0.01074219
3633,-7.625,-5.9375,7.3125,-1.025391,0.05908203,0.3212891,0.3237305,-0.1381836,-0.01367188
3637,6.375,10.625,0.8125,-1.083496,0.02441406,0.2944336,0.3261719,-0.1381836,-0.01220703
3641,15.875,18,-1.8125,-1.184082,0.06298828,0.2441406,0.324707,-0.1396484,-0.009277344
3645,12.625,18.75,4,-1.227051,0.15625,0.2133789,0.3237305,-0.1367188,-0.009277344
3649,-1.875,15.25,10.3125,-1.257813,0.203125,0.1635742,0.324707,-0.1381836,-0.008300781
3654,-11.125,13.75,13.6875,-1.195801,0.1796875,0.159668,0.3222656,-0.140625,-0.008300781
3658,-12.3125,20.3125,12,-1.161133,0.1484375,0.1479492,0.3222656,-0.140625,-0.002441406
3662,0.5625,28.5625,5.625,-1.149414,0.05908203,0.1635742,0.3237305,-0.1420898,-0.002441406
3666,22.8125,41.1875,-3.1875,-1.203613,0.07080078,0.144043,0.3222656,-0.1420898,-0.001464844
3670,35.875,46.5,-7.5625,-1.269531,0.1757813,0.1289063,0.3222656,-0.1430664,0.00390625
3674,28.6875,49.4375,-5.9375,-1.339355,0.3041992,0.08642578,0.3222656,-0.1420898,0.009277344
3678,10.8125,43.4375,1.8125,-1.479004,0.3349609,0.02099609,0.3222656,-0.1396484,0.01464844
3682,-4.25,33.4375,4.9375,-1.479004,0.300293,0.05566406,0.3212891,-0.1396484,0.02001953
3686,-5.625,35,2.1875,-1.37793,0.2070313,0.1210938,0.3198242,-0.140625,0.02001953
3690,6.125,47.0625,-5.375,-1.327637,0.1445313,0.144043,0.3188477,-0.1420898,0.02148438
3694,16.5625,62.5,-13.75,-1.37793,0.2070313,0.06738281,0.3198242,-0.140625,0.02978516
3698,18.4375,68.8125,-19,-1.45166,0.2573242,-0.001464844,0.3188477,-0.1396484,0.03515625
3702,13.375,70.3125,-26.6875,-1.463379,0.2807617,-0.06689453,0.3188477,-0.1357422,0.04199219
3706,9.1875,68.3125,-33.625,-1.463379,0.2148438,-0.1015625,0.3173828,-0.1333008,0.04882813
3710,12.8125,62.9375,-42.4375,-1.413086,0.1640625,-0.1166992,0.3164063,-0.1269531,0.05419922
3714,14.875,64.625,-52.8125,-1.343262,0.1640625,-0.112793,0.3164063,-0.1254883,0.05957031
3718,10.375,66.5625,-57.5,-1.351074,-0.006347656,-0.1166992,0.3154297,-0.1166992,0.06787109
3722,15.625,65.8125,-51.5625,-1.343262,-0.1074219,-0.1860352,0.3164063,-0.1142578,0.0703125
3726,28.8125,58.0625,-56.375,-1.424316,-0.1694336,-0.2089844,0.3139648,-0.1083984,0.08105469
3730,39.1875,42.3125,-52.625,-1.304199,-0.1772461,-0.2089844,0.3139648,-0.1005859,0.08544922
3734,41.3125,34.75,-47,-1.176758,-0.1074219,-0.2514648,0.3129883,-0.09570313,0.08789063
3738,53.375,29,-54.75,-1.141602,-0.1381836,-0.324707,0.3139648,-0.09082031,0.09228516
3742,64.4375,16.625,-57.1875,-1.106934,-0.1269531,-0.3745117,0.3115234,-0.08300781,0.09326172
3746,67.375,-4.8125,-52.4375,-1.037109,-0.07617188,-0.3359375,0.3115234,-0.07714844,0.09472656
3750,66.0625,-27.375,-42.75,-0.8974609,-0.02197266,-0.3325195,0.3115234,-0.07080078,0.09472656
3754,64.375,-45.625,-51,-0.6108398,0.07080078,-0.2514648,0.3154297,-0.06201172,0.08935547
3758,67.125,-46.75,-61.3125,-0.4555664,0.004882813,-0.1474609,0.3154297,-0.05712891,0.08789063
3762,66.875,-56.625,-67.75,-0.4091797,-0.04150391,-0.1743164,0.3154297,-0.046875,0.08398438
3766,68.0625,-72.5,-65.3125,-0.2851563,-0.01025391,-0.07861328,0.3154297,-0.03808594,0.07714844
3770,47.25,-79.125,-52.5625,-0.1420898,0.01660156,0.02490234,0.3198242,-0.03320313,0.07177734
3774,20.625,-83.5625,-35.625,-0.1342773,-0.08789063,0.08251953,0.3212891,-0.02685547,0.06201172
3778,16.1875,-78.5,-26.125,-0.02978516,-0.2666016,0.144043,0.3237305,-0.0234375,0.05664063
3783,30.3125,-57.375,-23.1875,-0.01025391,-0.3134766,0.1904297,0.324707,-0.02050781,0.04882813
3787,33.8125,-38.1875,-11.875,-0.1533203,-0.3286133,0.1132813,0.3237305,-0.01953125,0.04296875
3791,43.625,-26.75,-0.625,-0.3393555,-0.3989258,0.01367188,0.3261719,-0.01806641,0.0390625
3795,52.8125,-25.9375,6.625,-0.4287109,-0.2431641,-0.005371094,0.3271484,-0.01708984,0.03759766
3799,44.625,-14.9375,12.375,-0.5063477,-0.1230469,-0.02441406,0.328125,-0.01806641,0.03369141
3803,38.3125,-7.6875,12.4375,-0.7075195,-0.1347656,-0.1630859,0.328125,-0.01708984,0.03369141
3807,48.75,-11.9375,9.0625,-0.9829102,-0.2202148,-0.2783203,0.3271484,-0.01806641,0.03222656
3811,55.3125,-28.9375,10.0625,-1.063965,-0.07226563,-0.2705078,0.3295898,-0.01953125,0.02832031
3815,49.875,-43.125,10.1875,-0.9438477,0.08251953,-0.04003906,0.3295898,-0.01708984,0.02539063
3819,31.0625,-43,8.3125,-0.8007813,0.3120117,0.1557617,0.3295898,-0.01953125,0.02294922
3823,3.875,-37.5625,-1,-0.7851563,0.3232422,0.2368164,0.3305664,-0.01806641,0.01611328
3827,-17.4375,-32.375,-7.1875,-0.8745117,0.04736328,0.1904297,0.3305664,-0.01708984,0.01318359
3831,-19.125,-35.5625,-3.8125,-0.9169922,-0.1772461,0.2133789,0.3295898,-0.01806641,0.01074219
3835,-7.75,-28,2.5,-0.7851563,-0.3095703,0.2788086,0.3305664,-0.01953125,0.0078125
3839,8.3125,-11.25,8,-0.7578125,-0.2666016,0.2866211,0.3295898,-0.01806641,0.0078125
3843,14.25,-2.0625,11.375,-0.8393555,-0.1733398,0.2172852,0.3320313,-0.01953125,0.006347656
3847,10.25,0.625,14.625,-0.8393555,-0.1035156,0.1826172,0.3305664,-0.02050781,0.00390625
3851,5.625,3.125,19.4375,-0.8510742,-0.1269531,0.1713867,0.3320313,-0.02441406,0.006347656
3855,8.8125,5.125,20.125,-0.8706055,-0.09570313,0.144043,0.3320313,-0.02441406,0.004882813
3859,2.9375,5.875,21.4375,-0.847168,0.0009765625,0.144043,0.3320313,-0.02685547,0.004882813
3863,-8.1875,7.875,21.4375,-0.8046875,-0.01025391,0.1518555,0.3330078,-0.02832031,0.006347656
3867,-8,12.6875,19.0625,-0.8237305,-0.09960938,0.1132813,0.3320313,-0.02929688,0.0078125
3871,-8.8125,10.75,20.125,-0.7695313,-0.06445313,0.1210938,0.3330078,-0.03173828,0.0078125
3875,-18.8125,11.375,25.1875,-0.6416016,-0.03369141,0.1557617,0.3344727,-0.03466797,0.01074219
3879,-36.8125,10.0625,32.25,-0.5292969,-0.02197266,0.2172852,0.3344727,-0.03710938,0.009277344
3883,-58.75,15.5625,43.0625,-0.3706055,0.02832031,0.2636719,0.3320313,-0.04199219,0.01171875
3887,-72.25,29.5,49.5,-0.2773438,-0.09570313,0.2133789,0.3320313,-0.04833984,0.01318359
3891,-60.125,43.8125,49.25,-0.3393555,-0.1733398,0.1171875,0.3330078,-0.04931641,0.01708984
3895,-43.75,47.625,46.1875,-0.347168,-0.06835938,0.05566406,0.3320313,-0.05712891,0.02148438
3899,-43.5,46.4375,49.25,-0.3974609,0.05517578,0.01708984,0.3305664,-0.06201172,0.02539063
3903,-61.875,35.25,64.75,-0.4750977,0.1835938,-0.03613281,0.328125,-0.06835938,0.02978516
3907,-81.8125,23.875,71,-0.4555664,0.1835938,-0.01318359,0.3295898,-0.07421875,0.03076172
3912,-87.9375,28.5625,66.3125,-0.4130859,0.1137695,-0.04003906,0.328125,-0.08447266,0.03369141
3916,-72,36.5625,50.625,-0.5566406,-0.09570313,-0.09765625,0.328125,-0.08935547,0.03515625
3920,-40.8125,31.6875,46.3125,-0.7387695,-0.1694336,-0.1630859,0.3271484,-0.09570313,0.0390625
3924,-25.3125,15.6875,48.25,-0.7617188,0.06689453,-0.07080078,0.324707,-0.1005859,0.04296875
3928,-35.875,7.6875,53.1875,-0.730957,0.3349609,-0.04736328,0.324707,-0.1054688,0.04199219
3932,-65,8.8125,44.125,-0.78125,0.3935547,-0.02050781,0.3237305,-0.1108398,0.04199219
3936,-82.875,11.125,35.5,-0.9399414,0.121582,-0.08984375,0.3222656,-0.1181641,0.04199219
3940,-73.375,-0.4375,38.6875,-1.165039,-0.1850586,-0.112793,0.3212891,-0.1206055,0.04052734
3944,-38.875,-19.1875,49.75,-1.165039,-0.2548828,-0.04394531,0.3212891,-0.1269531,0.0390625
3948,0.125,-22.4375,46.625,-1.001953,0.01269531,0.06347656,0.3237305,-0.1333008,0.03613281
3952,8.5625,-9.3125,19.75,-0.9555664,0.3427734,0.1518555,0.3198242,-0.1342773,0.03613281
3956,-20.5625,12.625,9.9375,-1.052734,0.3740234,0.04785156,0.3188477,-0.1367188,0.03515625
3960,-52.75,2.5,20.3125,-1.405273,0.1640625,-0.1054688,0.3198242,-0.1396484,0.03613281
3964,-54.8125,-25.6875,36.8125,-1.494141,-0.01416016,-0.1630859,0.3188477,-0.1420898,0.03613281
3968,-33.1875,-48.25,32.375,-1.405273,0.01660156,-0.07470703,0.3173828,-0.1455078,0.02978516
3972,-8.125,-51.4375,19.3125,-1.172852,0.121582,0.01708984,0.3188477,-0.1494141,0.02294922
3976,-2.875,-39.5625,7.1875,-0.9907227,0.253418,0.1367188,0.3188477,-0.1508789,0.02001953
3980,-3.25,-19.9375,0,-1.009766,0.2456055,0.2441406,0.3188477,-0.1508789,0.01708984
3984,0.3125,-7.0625,-3.875,-1.176758,0.2070313,0.2597656,0.3198242,-0.1508789,0.01708984
3988,4.9375,-1.625,-4.6875,-1.203613,0.1601563,0.2983398,0.3188477,-0.1508789,0.01464844
3992,6.375,6.5625,-0.1875,-1.242188,0.1835938,0.2983398,0.3198242,-0.1494141,0.01464844
3996,10.125,9.9375,-3,-1.277344,0.1757813,0.2368164,0.3198242,-0.1494141,0.01611328
4000,20.375,13.125,-9.625,-1.289063,0.21875,0.1982422,0.3212891,-0.1508789,0.01708984
4004,26.8125,13.75,-20.3125,-1.335449,0.284668,0.1367188,0.3173828,-0.1494141,0.01855469
4008,18.5625,7.9375,-27.0625,-1.347168,0.3349609,0.08251953,0.3198242,-0.1445313,0.02148438
4012,-2.6875,3.25,-24.5,-1.308105,0.3081055,0.03271484,0.3188477,-0.1445313,0.02294922
4016,-18.6875,-2.9375,-18.6875,-1.327637,0.171875,-0.009277344,0.3198242,-0.1420898,0.02392578
4020,-19.5625,-9.9375,-14.25,-1.265625,0.08251953,-0.01318359,0.3198242,-0.140625,0.01855469
4024,-13.5,-11.9375,-17.0625,-1.230957,0.07470703,-0.005371094,0.3212891,-0.1396484,0.01855469
4028,-2.3125,-15.25,-22.625,-1.219238,0.05517578,-0.001464844,0.3212891,-0.1357422,0.01855469
4032,0.375,-12.3125,-24.5625,-1.137695,0.1523438,0.04785156,0.3222656,-0.1357422,0.01611328
4036,-5.4375,-5.625,-24.75,-1.12207,0.1020508,0.09423828,0.3222656,-0.1333008,0.01464844
4041,-9.25,-0.875,-20.6875,-1.20752,0.06689453,0.07519531,0.3222656,-0.1279297,0.01708984
4045,-14,-3.8125,-11.6875,-1.289063,-0.006347656,0.04785156,0.3222656,-0.1279297,0.01611328
4049,-19.5625,-6.6875,-1.375,-1.300781,0.04003906,0.07519531,0.324707,-0.1279297,0.01464844
4053,-24.0625,-2.25,2.8125,-1.223145,0.05126953,0.1020508,0.3237305,-0.1279297,0.01318359
4057,-22.5,8.5,3.0625,-1.23877,0.05908203,0.08642578,0.324707,-0.1279297,0.01318359
4061,-12.5,19.875,-2.25,-1.215332,-0.01025391,0.06738281,0.324707,-0.1279297,0.01464844
4065,6.125,32.875,-6.8125,-1.223145,-0.1113281,0.02490234,0.3237305,-0.1279297,0.01611328
4069,26.5,40.3125,-7.6875,-1.277344,-0.09179688,-0.04394531,0.3237305,-0.1279297,0.02001953
4073,26.875,38.1875,-1.9375,-1.347168,0.06689453,-0.1206055,0.3222656,-0.1279297,0.02392578
4077,12.25,27.1875,4.625,-1.393555,0.1484375,-0.1591797,0.3222656,-0.1269531,0.02832031
4081,-9.75,14.8125,13.875,-1.351074,0.1953125,-0.08203125,0.3222656,-0.1269531,0.02978516
4085,-20.125,12.125,19.1875,-1.265625,0.1137695,-0.02832031,0.3198242,-0.1279297,0.02978516
4089,-14.375,15.375,17.875,-1.227051,0.05517578,0.04443359,0.3222656,-0.1308594,0.03076172
4093,3.0625,27,17,-1.184082,0.004882813,0.08251953,0.3198242,-0.1333008,0.03515625
4097,22.125,41.8125,14.4375,-1.246094,0.09033203,0.02099609,0.3188477,-0.1342773,0.03613281
4101,35.4375,53.3125,11.875,-1.351074,0.2070313,0.01367188,0.3188477,-0.1342773,0.0390625
4105,27.0625,62.6875,13.1875,-1.529297,0.4672852,-0.04003906,0.3173828,-0.1357422,0.04736328
4109,1.375,56.0625,6,-1.595215,0.5722656,-0.1245117,0.3154297,-0.1342773,0.04980469
4113,-7.9375,56.5625,-11.3125,-1.595215,0.4633789,-0.1708984,0.3154297,-0.1342773,0.05664063
4117,-9.625,50.4375,-28.5,-1.680176,0.269043,-0.2553711,0.3115234,-0.1342773,0.06201172
4121,-7.125,38.4375,-34.125,-1.723145,0.1367188,-0.2939453,0.3139648,-0.1318359,0.06347656
4125,-3.625,17.25,-30.5625,-1.614258,-0.01806641,-0.2475586,0.3139648,-0.1279297,0.06787109
4129,12.5,12,-31.375,-1.257813,-0.1308594,-0.1323242,0.3129883,-0.1254883,0.06884766
4133,39.25,31.8125,-43.6875,-0.9985352,-0.1772461,-0.109375,0.3154297,-0.1206055,0.07177734
4137,68.25,54.25,-56.8125,-1.083496,-0.1230469,-0.1513672,0.3129883,-0.1166992,0.07568359
4141,74.4375,46,-62.8125,-1.300781,-0.04541016,-0.2783203,0.3129883,-0.1069336,0.08251953
4145,61.25,16.625,-44.375,-1.315918,-0.07226563,-0.2861328,0.3115234,-0.1005859,0.08544922
4149,52.4375,-15.4375,-23.3125,-1.125977,-0.08398438,-0.2514648,0.3139648,-0.09570313,0.08691406
4153,54.1875,-26.5,-29.9375,-0.7348633,0.09033203,-0.1166992,0.3139648,-0.09179688,0.08691406
4157,50.6875,-16.125,-42.625,-0.5292969,0.07080078,0.02880859,0.3154297,-0.08837891,0.08398438
4161,54.4375,-2.375,-46.25,-0.4555664,-0.1113281,0.09814453,0.3154297,-0.08056641,0.08251953
4165,65.5625,1.8125,-39.125,-0.5605469,-0.1538086,0.04443359,0.3154297,-0.07568359,0.08105469
4170,81.4375,-9.125,-28.375,-0.6611328,-0.1967773,0.04443359,0.3164063,-0.07080078,0.08251953
4174,84.125,-17.8125,-14.75,-0.5527344,-0.04541016,-0.03613281,0.3154297,-0.06689453,0.08398438
4178,77.125,-23.3125,-4.8125,-0.5253906,0.08642578,0.009765625,0.3173828,-0.06201172,0.08105469
4182,61.6875,-21.75,-0.125,-0.6186523,0.05126953,-0.02441406,0.3173828,-0.05957031,0.07861328
4186,64.5625,-33.625,-1.8125,-0.6376953,0.1020508,-0.02832031,0.3173828,-0.05957031,0.07714844
4190,67.4375,-43.6875,-20.8125,-0.6342773,0.269043,0.04785156,0.3198242,-0.05566406,0.07421875
4194,57.75,-46.375,-36.5625,-0.6611328,0.2768555,0.06347656,0.3212891,-0.05322266,0.0703125
4198,40.5,-55.75,-46.125,-0.5991211,0.2299805,0.1171875,0.3212891,-0.046875,0.06347656
4202,26.5,-59.4375,-49.8125,-0.5141602,0.07470703,0.1865234,0.324707,-0.04052734,0.05957031
4206,9,-53,-45.75,-0.4594727,0.02832031,0.1865234,0.324707,-0.03808594,0.05419922
4210,-8.1875,-50.9375,-39.6875,-0.4946289,-0.1577148,0.08642578,0.3261719,-0.03173828,0.04882813
4214,-2.4375,-45,-34.25,-0.4287109,-0.3754883,0.009765625,0.3271484,-0.02832031,0.04443359
4218,18.5,-31.5,-30.5625,-0.4404297,-0.4726563,-0.112793,0.328125,-0.02832031,0.04443359
4222,20.875,-26.125,-26.9375,-0.4790039,-0.1420898,-0.05517578,0.3261719,-0.02197266,0.0390625
4226,6.6875,-26.25,-15.0625,-0.5371094,-0.2705078,-0.1708984,0.3271484,-0.02197266,0.03515625
4230,-0.5,-26.5625,-6.5,-0.5605469,-0.324707,-0.1552734,0.328125,-0.01806641,0.03515625
4234,4.0625,-20.75,0.6875,-0.5644531,-0.4296875,-0.1054688,0.3271484,-0.01953125,0.03076172
4238,19.6875,-11.5625,11.5625,-0.5913086,-0.3911133,-0.01660156,0.3295898,-0.02050781,0.02978516
4242,21.4375,-4.25,17.1875,-0.5566406,-0.1499023,0.1367188,0.3295898,-0.01953125,0.02832031
4246,12.5,11.8125,19.8125,-0.6533203,-0.1035156,0.07910156,0.328125,-0.0234375,0.02832031
4250,10.9375,12.625,19.4375,-0.9013672,-0.08007813,0.001953125,0.3295898,-0.02197266,0.02978516
4254,1.4375,5.125,21.25,-0.8974609,0.01660156,0.02880859,0.328125,-0.02587891,0.03076172
4258,-10.375,8,22.6875,-0.862793,0.0009765625,0.05957031,0.3295898,-0.02832031,0.02978516
4262,-13.6875,9.6875,17.625,-0.9399414,-0.04541016,-0.005371094,0.3305664,-0.03076172,0.03222656
4266,-6.875,6.75,14.9375,-1.001953,-0.1459961,-0.05908203,0.3295898,-0.03076172,0.03222656
4270,1.6875,2.5625,16.4375,-0.9985352,-0.1269531,-0.01660156,0.328125,-0.03173828,0.03222656
4274,1.375,-0.4375,16.125,-0.9130859,-0.04150391,0.07910156,0.3305664,-0.03466797,0.03369141
4278,-6.9375,-0.25,17.5,-0.831543,0.008789063,0.1982422,0.3295898,-0.03564453,0.03369141
4282,-14.25,4.625,15.1875,-0.7114258,-0.02197266,0.3291016,0.328125,-0.03808594,0.03369141
4286,-11.1875,18.875,14.3125,-0.5566406,-0.1420898,0.4018555,0.3295898,-0.04052734,0.03613281
4290,-2.75,38.8125,17.875,-0.5063477,-0.1035156,0.3330078,0.3271484,-0.04199219,0.03613281
4294,-4.9375,48.125,22.1875,-0.5644531,0.05126953,0.1674805,0.328125,-0.04199219,0.04052734
4299,-32,44.1875,33.0625,-0.5644531,0.3120117,0.105957,0.3271484,-0.04589844,0.04589844
4303,-70.375,29.4375,49.25,-0.5722656,-0.2202148,0.125,0.3271484,-0.04833984,0.04736328
4307,-105,16.5,41.375,-0.3588867,0.2070313,0.09423828,0.324707,-0.05566406,0.05126953
4311,-97.625,24.3125,25,-0.1186523,-0.03369141,0.1943359,0.3261719,-0.06054688,0.05126953
4315,-78.375,56.75,19.9375,-0.1459961,-0.2431641,0.1289063,0.3261719,-0.06445313,0.05517578
4319,-57.5625,75.8125,42.125,-0.5024414,-0.3325195,-0.1054688,0.3237305,-0.06933594,0.06103516
4323,-37.875,60.375,64,-0.7348633,-0.1616211,-0.2475586,0.3198242,-0.07421875,0.06640625
4327,-36.5,39.0625,69.9375,-0.6572266,0.15625,-0.2207031,0.3198242,-0.07958984,0.07177734
4331,-49.75,31.6875,50.5625,-0.5449219,0.2729492,-0.1782227,0.3188477,-0.08837891,0.07714844
4335,-55.5625,38.75,29.75,-0.5605469,0.1445313,-0.1552734,0.3173828,-0.09716797,0.07714844
4339,-51.6875,42.5625,21.125,-0.7348633,-0.1308594,-0.1899414,0.3139648,-0.09814453,0.08007813
4343,-36.6875,36,37.875,-0.9091797,-0.2392578,-0.2475586,0.3139648,-0.1030273,0.08398438
4347,-24.1875,24.3125,47.25,-0.9287109,-0.1191406,-0.2475586,0.3129883,-0.1069336,0.08691406
4351,-11.1875,20.75,49.6875,-0.9516602,0.0009765625,-0.3129883,0.309082,-0.1108398,0.08789063
4355,7,13.1875,29.5,-1.009766,0.04736328,-0.3051758,0.3081055,-0.1142578,0.08935547
4359,16.625,4.125,9.125,-1.052734,0.2109375,-0.3012695,0.3071289,-0.1166992,0.09082031
4363,-7.875,-6.75,-1.75,-1.067871,0.2807617,-0.2553711,0.3071289,-0.1181641,0.09082031
4367,-46.3125,-18.1875,20.6875,-1.227051,0.140625,-0.3286133,0.3071289,-0.1166992,0.09082031
4371,-55.5,-40.6875,24.25,-1.234863,-0.08398438,-0.3901367,0.3071289,-0.1220703,0.08691406
4375,-29.9375,-51.5625,19.5625,-1.199707,-0.2045898,-0.2900391,0.309082,-0.1254883,0.08105469
4379,4.625,-52.125,9.5,-1.168945,-0.1499023,-0.2128906,0.309082,-0.1279297,0.07568359
4383,28.4375,-47,0.5,-1.157227,0.01660156,-0.05517578,0.3129883,-0.1279297,0.07177734
4387,31.3125,-35.0625,-3.625,-1.191895,0.2573242,-0.005371094,0.3129883,-0.1269531,0.07177734
4391,5.25,-36.6875,-0.5625,-1.362793,0.4555664,-0.04736328,0.3139648,-0.1254883,0.06787109
4395,-20.75,-47.9375,1,-1.490234,0.4204102,-0.02832031,0.3139648,-0.1269531,0.06347656
4399,-31.5625,-57.875,-10.125,-1.509766,0.2807617,-0.01660156,0.3164063,-0.1269531,0.05810547
4403,-28.375,-56.75,-18.3125,-1.358887,0.06689453,0.08251953,0.3173828,-0.1245117,0.05419922
4407,-11.1875,-42.1875,-15.4375,-1.285156,-0.1191406,0.1518555,0.3173828,-0.1254883,0.04589844
4411,6.5625,-27.125,-6.3125,-1.285156,-0.02587891,0.159668,0.3198242,-0.1245117,0.04199219
4415,12.875,-17.1875,-2.3125,-1.296875,0.1875,0.1289063,0.3198242,-0.1245117,0.04296875
4419,10.6875,-8.8125,-11.9375,-1.331543,0.3466797,0.04052734,0.3188477,-0.1220703,0.04199219
4423,6.5625,-11.125,-23.875,-1.370117,0.2924805,0.005859375,0.3198242,-0.1220703,0.0390625
4428,-11.125,-18.5,-22.375,-1.343262,0.203125,-0.05517578,0.3212891,-0.1196289,0.0390625
4432,-18.625,-26.9375,-12.0625,-1.331543,-0.01416016,-0.06689453,0.3212891,-0.1196289,0.03515625
4436,-8.9375,-34.4375,-4.0625,-1.300781,-0.1577148,-0.06689453,0.3222656,-0.1166992,0.03222656
4440,15.5,-31.3125,0,-1.125977,-0.1381836,0.02490234,0.3237305,-0.1166992,0.03222656
4444,28.8125,-12.625,-8.125,-1.021484,0.05908203,0.05175781,0.3222656,-0.1166992,0.02832031
4448,28.5625,1.125,-15.8125,-1.145508,0.09033203,0.03271484,0.3237305,-0.1157227,0.02832031
4452,15.6875,1.6875,-9.875,-1.285156,0.06298828,-0.02832031,0.3237305,-0.1132813,0.02832031
4456,5.5,-3.8125,3.6875,-1.351074,-0.01416016,-0.01318359,0.3237305,-0.1132813,0.02978516
4460,4.375,-8.5,13.125,-1.327637,-0.01806641,0.005859375,0.3222656,-0.1118164,0.03076172
4464,7.3125,-6.875,15.8125,-1.246094,0.07080078,0.04785156,0.3237305,-0.1142578,0.02832031
4468,4,5.0625,9.75,-1.118652,0.1679688,0.09423828,0.3237305,-0.1166992,0.02978516
4472,3.6875,21.1875,2.9375,-1.161133,0.1254883,0.08642578,0.3237305,-0.1157227,0.02978516
4476,4,25.9375,0.875,-1.32373,0.1098633,0.01708984,0.3212891,-0.1181641,0.03222656
4480,-1.9375,20.6875,6.375,-1.420898,0.2148438,-0.02832031,0.3222656,-0.1166992,0.03613281
4484,-15.1875,14.5,8.625,-1.389648,0.253418,0.04785156,0.3222656,-0.1166992,0.03369141
4488,-17.4375,22.0625,5.625,-1.32373,0.1679688,0.09033203,0.3198242,-0.1196289,0.03759766
4492,-10.0625,33.875,1.75,-1.32373,0.05908203,0.140625,0.3212891,-0.1196289,0.0390625
4496,3.0625,52.5625,-1.75,-1.277344,0.02050781,0.1518555,0.3222656,-0.1206055,0.04052734
4500,11.4375,71.5625,-1.5625,-1.397461,0.05517578,0.05957031,0.3212891,-0.1206055,0.04736328
4504,17.375,78.375,0.75,-1.583496,0.1020508,-0.03222656,0.3173828,-0.1181641,0.05664063
4508,21.25,76.5625,3.625,-1.691895,0.1601563,-0.109375,0.3173828,-0.1181641,0.05957031
4512,24.6875,74.375,5.3125,-1.734375,0.2148438,-0.1015625,0.3154297,-0.1181641,0.06884766
4516,39.5625,78.5,-5.9375,-1.57959,0.2299805,-0.05908203,0.3115234,-0.1166992,0.07568359
4520,51.3125,96.25,-30.4375,-1.494141,0.3427734,-0.06689453,0.3115234,-0.1142578,0.08251953
4524,41.0625,102.875,-42.25,-1.525391,0.3232422,-0.128418,0.309082,-0.1108398,0.09326172
4528,25.9375,97.125,-44.125,-1.533203,0.1757813,-0.2822266,0.3032227,-0.1044922,0.1030273
4532,32.0625,81.75,-51.9375,-1.587402,-0.08398438,-0.4746094,0.3022461,-0.09814453,0.1113281
4536,52.0625,57.3125,-53.25,-1.544922,-0.2587891,-0.5629883,0.2983398,-0.09179688,0.1181641
4540,65.0625,35.0625,-44.6875,-1.277344,-0.1577148,-0.4555664,0.2973633,-0.08544922,0.1220703
4544,51.9375,30.1875,-45,-1.048828,0.1020508,-0.4091797,0.2973633,-0.08203125,0.125
4548,36.3125,20.8125,-58.75,-1.013672,0.04003906,-0.359375,0.2963867,-0.07177734,0.1289063
4552,36,15,-64.8125,-0.9169922,-0.1499023,-0.3168945,0.2963867,-0.06835938,0.1303711
4557,43.5625,7.25,-61.0625,-0.8745117,-0.2587891,-0.3051758,0.2949219,-0.06201172,0.1289063
4561,40.3125,-5.375,-46.4375,-0.7617188,-0.1655273,-0.3325195,0.2939453,-0.05322266,0.1328125
4565,27.6875,-21.4375,-39.5625,-0.7426758,-0.1459961,-0.2939453,0.2949219,-0.046875,0.1289063
4569,31.1875,-35.9375,-37.125,-0.5102539,-0.3017578,-0.1938477,0.2973633,-0.04443359,0.1274414
4573,37.375,-32.5625,-41.875,-0.3164063,-0.1733398,-0.04736328,0.2983398,-0.03710938,0.1220703
4577,29.875,-23.125,-37.75,-0.3588867,-0.1308594,-0.05908203,0.3007813,-0.03320313,0.1206055
4581,28.4375,-29.0625,-27.25,-0.4555664,-0.2626953,-0.08984375,0.3007813,-0.03076172,0.1206055
4585,39.3125,-43,-18.0625,-0.3935547,-0.2900391,-0.04003906,0.3032227,-0.02587891,0.1181641
4589,46.8125,-43.0625,-13.8125,-0.230957,-0.2548828,0.04785156,0.3032227,-0.0234375,0.1123047
4593,55.6875,-35.9375,-7.75,-0.4130859,-0.2509766,-0.03613281,0.3032227,-0.02050781,0.1083984
4597,54.1875,-46,-2,-0.4248047,-0.09960938,-0.05908203,0.3056641,-0.01953125,0.1044922
4601,42.375,-44.875,2.5625,-0.3432617,-0.02587891,-0.01318359,0.309082,-0.01806641,0.1000977
4605,36.25,-41.1875,-1.0625,-0.3974609,-0.01416016,-0.03613281,0.3105469,-0.01464844,0.09619141
4609,27.375,-40.75,-4.75,-0.4907227,-0.006347656,-0.05908203,0.3105469,-0.01464844,0.09326172
4613,15.3125,-39.8125,-3.5,-0.4829102,-0.006347656,-0.1435547,0.3139648,-0.01171875,0.08789063
4617,13.25,-39.9375,-7.75,-0.4482422,-0.06835938,-0.01660156,0.3115234,-0.01171875,0.08544922
4621,9.25,-26.3125,-9.125,-0.4482422,0.004882813,-0.02050781,0.3154297,-0.01171875,0.08105469
4625,-12.25,-22.9375,-3.6875,-0.5371094,-0.02197266,-0.06689453,0.3154297,-0.009277344,0.07861328
4629,-21.375,-18.9375,1,-0.6806641,-0.1850586,-0.1323242,0.3154297,-0.01074219,0.07714844
4633,-20.3125,-19.375,7.75,-0.6923828,-0.2275391,-0.1669922,0.3164063,-0.01074219,0.07568359
4637,-8.125,-12.75,13.1875,-0.7192383,-0.3056641,-0.1782227,0.3173828,-0.01171875,0.07421875
4641,10.25,-9.4375,13.625,-0.7348633,-0.2084961,-0.1435547,0.3188477,-0.01318359,0.07324219
4645,16,-1.75,14.875,-0.7504883,-0.1074219,-0.1591797,0.3188477,-0.015625,0.07324219
4649,11.5,1.375,15.625,-0.8666992,-0.006347656,-0.1323242,0.3188477,-0.01708984,0.07324219
4653,0.25,-0.25,18.375,-0.8818359,0.105957,-0.1166992,0.3198242,-0.01806641,0.07324219
4657,-1.125,1.3125,11.9375,-0.9946289,0.04003906,-0.2978516,0.3173828,-0.01806641,0.07324219
4661,-0.75,-11.8125,2.4375,-1.184082,0.140625,-0.3706055,0.3198242,-0.01953125,0.07324219
4665,-14.125,-27.5625,-0.75,-1.083496,0.1333008,-0.2900391,0.3173828,-0.01953125,0.07177734
4669,-24.3125,-33.3125,-4.375,-1.017578,0.07861328,-0.1323242,0.3188477,-0.02197266,0.06640625
4673,-33.125,-34.8125,-7.375,-0.8745117,-0.04541016,0.005859375,0.3212891,-0.01953125,0.06494141
4677,-24.25,-25.8125,-6.75,-0.8393555,-0.3095703,0.07519531,0.3198242,-0.02050781,0.06494141
4681,-8.8125,-20.75,-1.25,-0.7851563,-0.3793945,0.1098633,0.3212891,-0.02050781,0.06347656
4686,0.3125,-12.5,9.5625,-0.6689453,-0.3793945,0.1479492,0.3237305,-0.02197266,0.05957031
4690,4.875,-1.625,18.0625,-0.5795898,-0.3134766,0.1904297,0.3212891,-0.0234375,0.05810547
4694,2.9375,7.25,28.4375,-0.4868164,-0.2045898,0.2021484,0.3237305,-0.02441406,0.05810547
4698,-12.0625,13.6875,35.875,-0.3862305,-0.09570313,0.2172852,0.3222656,-0.02832031,0.05810547
4702,-30.4375,24.875,45.375,-0.2929688,-0.1191406,0.1289063,0.3212891,-0.02929688,0.06201172
4706,-38.0625,29.9375,50.8125,-0.2348633,-0.1889648,0.07519531,0.3222656,-0.03710938,0.06347656
4710,-39.75,43.875,55.875,-0.2119141,-0.2084961,0.001953125,0.3222656,-0.04296875,0.06884766
4714,-30.1875,46.4375,62.9375,-0.4091797,-0.3208008,-0.1054688,0.3198242,-0.04833984,0.07324219
4718,-15.375,39.0625,75.125,-0.5063477,-0.2587891,-0.1435547,0.3212891,-0.05566406,0.07421875
4722,-6.1875,28,81.75,-0.5527344,-0.1113281,-0.1362305,0.3188477,-0.06445313,0.07861328
4726,-9.1875,21.1875,79.4375,-0.4868164,0.1601563,-0.1015625,0.3188477,-0.06933594,0.08105469
4730,-10.875,28.0625,65.8125,-0.5410156,0.140625,-0.1362305,0.3154297,-0.07714844,0.08251953
4734,-13.75,32.625,55.9375,-0.7617188,0.1176758,-0.1591797,0.3154297,-0.08447266,0.08691406
4738,-18.0625,16.25,57,-0.9287109,0.1484375,-0.1782227,0.3129883,-0.08935547,0.08691406
4742,-32.5,4.625,69,-0.9365234,0.2963867,-0.2514648,0.3115234,-0.09326172,0.08789063
4746,-54.75,-7.9375,66.5625,-1.137695,0.3120117,-0.3012695,0.3129883,-0.1020508,0.08789063
4750,-65.125,-25.5625,64.1875,-1.168945,0.2885742,-0.2592773,0.3105469,-0.1069336,0.08691406
4754,-67.875,-38,59.3125,-1.103027,0.2573242,-0.1362305,0.3105469,-0.1166992,0.08007813
4758,-48.4375,-39.375,47.3125,-0.9985352,0.2885742,-0.03613281,0.3105469,-0.1245117,0.07714844
4762,-40.25,-25.875,15.3125,-0.9248047,0.4013672,0.03662109,0.3129883,-0.1293945,0.07324219
4766,-54.375,-4.9375,12.125,-0.9594727,0.237793,-0.02441406,0.3129883,-0.1318359,0.0703125
4770,-67.6875,-10.5,29.3125,-1.25,0.02050781,-0.1245117,0.3115234,-0.1357422,0.06787109
4774,-52.5,-34,45,-1.261719,-0.1347656,-0.1323242,0.3129883,-0.140625,0.06640625
4778,-25.1875,-49.75,50.8125,-1.168945,0.05908203,0.01367188,0.3129883,-0.1445313,0.06201172
4782,-0.125,-43.3125,25.125,-0.8896484,0.3271484,0.1674805,0.3115234,-0.1494141,0.05664063
4786,1.0625,-15.1875,-10.0625,-0.7890625,0.4829102,0.2329102,0.3105469,-0.1494141,0.05273438
4790,-18.125,7.5625,-23.0625,-0.878418,0.3505859,0.159668,0.3129883,-0.1494141,0.05419922
4794,-40.375,4.5,-5.5625,-1.184082,0.09033203,-0.01318359,0.3115234,-0.1469727,0.05419922
4798,-42.0625,-21.6875,21.5625,-1.308105,-0.1655273,-0.04003906,0.3115234,-0.1508789,0.05126953
4802,-18.125,-35.625,39.25,-1.203613,-0.1694336,0.05175781,0.3115234,-0.1542969,0.04882813
4806,14.0625,-29.4375,31.8125,-1.075684,-0.03759766,0.09814453,0.3129883,-0.1557617,0.04882813
4810,30.8125,-11.375,18.25,-0.9326172,0.2070313,0.1635742,0.3115234,-0.1591797,0.04443359
4815,27.4375,10.3125,7,-0.9633789,0.3310547,0.125,0.3115234,-0.1606445,0.04589844
4819,15.8125,14.375,5.375,-1.195801,0.3310547,0.03662109,0.3081055,-0.1591797,0.04589844
4823,13.375,8.75,2.4375,-1.253906,0.3232422,-0.01660156,0.3105469,-0.1606445,0.04980469
4827,9.1875,6.5625,-3.625,-1.227051,0.3041992,-0.009277344,0.3105469,-0.1582031,0.04736328
4831,3.4375,5.0625,-3.1875,-1.277344,0.2729492,-0.0859375,0.3105469,-0.1582031,0.05126953
4835,-6,-5,1.875,-1.366211,0.2226563,-0.1245117,0.3105469,-0.1582031,0.05126953
4839,-11.25,-15.75,11.625,-1.405273,0.2573242,-0.1206055,0.309082,-0.1591797,0.04980469
4843,-13.875,-20,12,-1.273438,0.3349609,-0.04736328,0.3105469,-0.1606445,0.04736328
4847,-10.625,-12.0625,0.5625,-1.265625,0.3857422,-0.05126953,0.3115234,-0.1630859,0.04589844
4851,-11.625,-4.75,-10.3125,-1.315918,0.4052734,-0.07470703,0.3129883,-0.1606445,0.04589844
4855,-21.5,-4.5,-8.125,-1.362793,0.3740234,-0.1054688,0.3105469,-0.1606445,0.04296875
4859,-29.125,-5.8125,-2.5,-1.397461,0.2924805,-0.1435547,0.309082,-0.1591797,0.04199219
4863,-34.5625,-14.6875,6,-1.447754,0.2651367,-0.1743164,0.3105469,-0.1606445,0.04199219
4867,-36.5,-25.5625,10.1875,-1.331543,0.21875,-0.1362305,0.3105469,-0.1621094,0.03759766
4871,-24.875,-20.125,3.4375,-1.149414,0.1992188,-0.05517578,0.3115234,-0.1630859,0.03515625
4875,-6.625,-5.5625,-7.4375,-1.083496,0.121582,-0.005371094,0.3105469,-0.1655273,0.03369141
4879,8.8125,4.375,-9.5,-1.180664,0.1020508,-0.02050781,0.3115234,-0.1645508,0.03369141
4883,11.75,2.75,-1.0625,-1.227051,0.1445313,-0.005371094,0.3115234,-0.1630859,0.03369141
4887,12.9375,5.1875,4.375,-1.227051,0.2109375,-0.01318359,0.3115234,-0.1630859,0.03369141
4891,16.375,6.625,6.3125,-1.292969,0.269043,-0.009277344,0.3115234,-0.1621094,0.03369141
4895,24.5,10.1875,1.625,-1.304199,0.2807617,0.009765625,0.3105469,-0.1645508,0.03759766
4899,46.8125,23.875,-9,-1.296875,0.2495117,0.07910156,0.3115234,-0.1630859,0.0390625
4903,56.9375,37.375,-18.25,-1.385742,0.4438477,0.05175781,0.3115234,-0.1591797,0.04296875
4907,35.125,43.9375,-18.375,-1.479004,0.6577148,-0.02050781,0.3105469,-0.1582031,0.04589844
4911,-5.375,39.5625,-11.8125,-1.633789,0.6381836,-0.1206055,0.3115234,-0.1557617,0.04980469
4915,-23.1875,30.625,-12.4375,-1.614258,0.4125977,-0.1977539,0.3105469,-0.1557617,0.05517578
4919,-6.9375,33.75,-23.875,-1.560059,0.1601563,-0.2246094,0.3081055,-0.1542969,0.05664063
4923,22.5,36,-37.0625,-1.54834,0.06298828,-0.2705078,0.309082,-0.1508789,0.06201172
4927,39.5625,35.125,-41.5,-1.57959,0.1293945,-0.2553711,0.3105469,-0.1469727,0.06640625
4931,36.9375,29.25,-40.125,-1.48291,0.269043,-0.2285156,0.309082,-0.1420898,0.06640625
4935,30.3125,27.3125,-47,-1.413086,0.2456055,-0.1860352,0.3105469,-0.1381836,0.06884766
4939,34.75,28.6875,-57,-1.339355,0.1445313,-0.1860352,0.309082,-0.1308594,0.07568359
4944,45.4375,30.375,-66.4375,-1.339355,0.03613281,-0.1513672,0.309082,-0.1269531,0.07568359
4948,52.625,25.625,-65.875,-1.331543,0.07080078,-0.1821289,0.3105469,-0.1181641,0.08105469
4952,38.1875,8.0625,-62.3125,-1.351074,0.1484375,-0.1474609,0.3115234,-0.109375,0.08398438
4956,20.5,-7.5,-51.9375,-1.129883,0.05126953,-0.05908203,0.3129883,-0.1054688,0.08398438
4960,23.75,-0.625,-56.0625,-0.9013672,-0.1230469,0.01708984,0.3154297,-0.1005859,0.08398438
4964,45.125,13.6875,-66.5,-0.8164063,-0.1850586,-0.001464844,0.3129883,-0.09179688,0.08544922
4968,61.0625,16.25,-63.375,-0.9365234,-0.2006836,-0.05908203,0.3139648,-0.08837891,0.08691406
4972,59.5,-1,-48,-0.9052734,-0.02197266,-0.1630859,0.3154297,-0.078125,0.08789063
4976,41.5,-18.3125,-35.25,-0.7929688,0.06689453,-0.1474609,0.3164063,-0.07177734,0.08789063
4980,38.125,-26.8125,-36.8125,-0.6303711,-0.002441406,-0.1245117,0.3154297,-0.06835938,0.08691406
4984,53.5,-27.625,-45.75,-0.5566406,-0.04541016,-0.1362305,0.3164063,-0.06201172,0.08398438
4988,63.5625,-33.9375,-45.75,-0.6225586,-0.05273438,-0.1669922,0.3173828,-0.05712891,0.08007813
4992,60.4375,-50.875,-37,-0.6303711,0.08251953,-0.1938477,0.3212891,-0.05322266,0.07714844
4996,45.125,-69.3125,-26,-0.6147461,0.121582,-0.1782227,0.3198242,-0.04589844,0.07324219
5000,36.9375,-85.9375,-29.25,-0.4365234,0.1020508,-0.08203125,0.3212891,-0.04296875,0.06201172
5004,44.6875,-82.3125,-38.4375,-0.2119141,0.02832031,0.05957031,0.3222656,-0.04199219,0.05957031
5008,57.9375,-64.875,-41.75,-0.3393555,-0.1113281,0.009765625,0.324707,-0.03466797,0.04980469
5012,71.875,-71.9375,-37.125,-0.5952148,-0.1152344,-0.109375,0.3271484,-0.02929688,0.04296875
5016,72.375,-92.1875,-30,-0.4672852,0.05517578,0.04785156,0.3305664,-0.02587891,0.03759766
5020,39.875,-90.6875,-14.875,-0.2348633,0.2963867,0.3291016,0.3295898,-0.0234375,0.02685547
5024,16,-72.25,-25.9375,-0.08789063,0.2495117,0.5214844,0.3320313,-0.01953125,0.01855469
5028,-1.4375,-40.125,-37.875,-0.1108398,0.1445313,0.6137695,0.3320313,-0.01806641,0.01318359
5032,-22.8125,-10.3125,-30.875,-0.3125,-0.07226563,0.4672852,0.3305664,-0.01464844,0.01171875
5036,-29.0625,2.25,-18.5,-0.5913086,-0.324707,0.1787109,0.3305664,-0.01171875,0.009277344
5040,-21,-2.375,-5.8125,-0.746582,-0.4296875,0.01367188,0.3295898,-0.01171875,0.01171875
5044,-16.3125,-5.75,8,-0.6767578,-0.3208008,-0.001464844,0.3305664,-0.01074219,0.01074219
5048,-16.6875,1.5,14.9375,-0.6342773,-0.2705078,-0.02441406,0.3320313,-0.01318359,0.01074219
5052,-6.8125,8.125,10.125,-0.7075195,-0.2783203,-0.04394531,0.328125,-0.01464844,0.009277344
5056,0.1875,10.5625,12.5,-0.8198242,-0.2705078,-0.1054688,0.3295898,-0.015625,0.01074219
5060,4.9375,6.625,20.625,-0.8896484,-0.2587891,-0.1362305,0.3295898,-0.01708984,0.01074219
5064,10.25,0.9375,26.25,-0.9248047,-0.1811523,-0.1015625,0.3295898,-0.015625,0.01074219
5068,3.0625,-7.3125,30.5,-0.862793,-0.02197266,-0.001464844,0.3320313,-0.02050781,0.01318359
5073,-6.125,-5.625,29.25,-0.7348633,0.04003906,0.125,0.3295898,-0.02441406,0.01074219
5077,-13.3125,0.8125,24.875,-0.6923828,0.04736328,0.1713867,0.3320313,-0.02685547,0.009277344
5081,-24.125,6.3125,26.25,-0.6108398,0.01660156,0.2172852,0.3320313,-0.02832031,0.01074219
5085,-33.9375,13.8125,29.625,-0.5488281,-0.04541016,0.2133789,0.3305664,-0.03076172,0.01318359
5089,-38.6875,22.875,34.125,-0.5292969,-0.1035156,0.1518555,0.3320313,-0.03466797,0.01318359
5093,-35.875,28.8125,37.0625,-0.5253906,-0.1035156,0.05957031,0.3305664,-0.03955078,0.01708984
5097,-38.8125,31.75,41.8125,-0.5371094,-0.04541016,-0.03613281,0.3330078,-0.04296875,0.02148438
5101,-47.4375,25.8125,47.75,-0.5488281,-0.002441406,-0.05908203,0.3320313,-0.046875,0.02294922
5105,-53.625,22.125,51.5625,-0.5371094,-0.06054688,-0.04394531,0.3320313,-0.05078125,0.02539063
5109,-48.875,18.5625,54.875,-0.5175781,-0.09179688,0.03662109,0.3320313,-0.06201172,0.02685547
5113,-40.9375,24.1875,56.1875,-0.4633789,-0.04541016,0.1132813,0.3305664,-0.06445313,0.02832031
5117,-28.875,31.9375,52.5625,-0.5566406,-0.03759766,0.1367188,0.3305664,-0.06933594,0.03076172
5121,-18.5,38.375,56.5625,-0.6108398,-0.01025391,0.140625,0.3295898,-0.07568359,0.03515625
5125,-7.1875,43.4375,55.3125,-0.746582,0.02050781,0.09814453,0.3271484,-0.08056641,0.03759766
5129,0.8125,47.25,53.6875,-0.8935547,0.1098633,0.009765625,0.3261719,-0.08544922,0.04199219
5133,3.625,33.625,51.5625,-1.025391,0.1601563,-0.05126953,0.324707,-0.09326172,0.04589844
5137,5,16.875,51.25,-0.9907227,0.2070313,-0.03222656,0.3237305,-0.09716797,0.04882813
5141,-1.0625,4.6875,44.4375,-0.9907227,0.3505859,0.01708984,0.3222656,-0.09960938,0.04882813
5145,-19.9375,-5.6875,43.375,-0.9248047,0.4013672,0.08251953,0.3222656,-0.1044922,0.04882813
5149,-37.4375,-15.5625,45.25,-0.8085938,0.3388672,0.1210938,0.3222656,-0.1083984,0.04736328
5153,-41.1875,-16.125,39,-0.7192383,0.3427734,0.140625,0.3237305,-0.1157227,0.04736328
5157,-49.875,-8.375,25.5625,-0.6650391,0.1679688,0.1557617,0.3212891,-0.1196289,0.04199219
5161,-53.5,4.4375,23.6875,-0.699707,-0.07226563,0.1098633,0.3222656,-0.1196289,0.04199219
5165,-43.125,15.125,26.0625,-0.765625,-0.3754883,-0.01660156,0.3212891,-0.1245117,0.04199219
5169,-15.75,10.25,45.25,-1.017578,-0.4453125,-0.1435547,0.3212891,-0.1279297,0.04199219
5173,10.0625,-9.5625,62.375,-1.20752,-0.1538086,-0.1166992,0.3188477,-0.1333008,0.04589844
5177,21.75,-19.625,49.125,-1.215332,0.4243164,-0.06298828,0.3188477,-0.1381836,0.04199219
5181,1.375,-23.375,20.5625,-1.246094,0.6499023,-0.06689453,0.3173828,-0.140625,0.04052734
5185,-49.9375,-27.8125,1.4375,-1.203613,0.7431641,0.005859375,0.3164063,-0.1430664,0.0390625
5189,-88,-28.375,3.4375,-1.25,0.3701172,0.009765625,0.3198242,-0.1445313,0.03515625
5193,-86.1875,-34.875,11.625,-1.381836,-0.03759766,0.08251953,0.3173828,-0.1469727,0.02832031
5197,-51.4375,-37.9375,16.75,-1.401367,-0.1772461,0.1518555,0.3188477,-0.1494141,0.02539063
5202,-19.125,-34.1875,12.75,-1.300781,0.04736328,0.2675781,0.3173828,-0.1533203,0.02001953
5206,-2.1875,-17.3125,0.875,-1.253906,0.1796875,0.2709961,0.3188477,-0.1518555,0.01708984
5210,-2.0625,-6.9375,-6.8125,-1.300781,0.269043,0.2441406,0.3198242,-0.1533203,0.01464844
5214,-14.4375,-2.9375,-4,-1.339355,0.2338867,0.1674805,0.3188477,-0.1533203,0.01611328
5218,-19.8125,-5.75,6.625,-1.374023,0.1098633,0.1328125,0.3173828,-0.1518555,0.01318359
5222,-1.4375,-5,5.5,-1.401367,0.03222656,0.105957,0.3173828,-0.1533203,0.01464844
5226,17.75,-5.3125,2.3125,-1.385742,0.1640625,0.08642578,0.3198242,-0.1518555,0.01611328
5230,19.0625,-4.875,-1.1875,-1.296875,0.3041992,0.09033203,0.3173828,-0.1518555,0.01318359
5234,6.875,0.0625,-6.8125,-1.195801,0.3544922,0.08251953,0.3188477,-0.1518555,0.01464844
5238,-9.75,6.5,-6.6875,-1.12207,0.2729492,0.07128906,0.3188477,-0.1518555,0.01611328
5242,-16.4375,13.0625,-1.9375,-1.172852,0.1098633,-0.001464844,0.3173828,-0.1518555,0.01464844
5246,-10.5,9.375,4.8125,-1.230957,0.04394531,-0.05908203,0.3188477,-0.1494141,0.01611328
5250,-2,2.75,10,-1.223145,0.08642578,-0.06298828,0.3188477,-0.1518555,0.01611328
5254,-2.6875,-1.9375,14.625,-1.129883,0.1953125,-0.02441406,0.3173828,-0.1533203,0.01611328
5258,-13.0625,-3.875,16.75,-1.052734,0.253418,-0.02832031,0.3164063,-0.1557617,0.01611328
5262,-21.375,-2.9375,16.9375,-1.005859,0.2299805,-0.005371094,0.3164063,-0.1557617,0.01464844
5266,-23.75,-3.0625,17.6875,-1.033203,0.1640625,-0.04003906,0.3154297,-0.1582031,0.01318359
5270,-17.4375,-6.75,20.25,-1.033203,0.1176758,-0.02050781,0.3164063,-0.1621094,0.01171875
