Packet number,Gyroscope X (deg/s),Gyroscope Y (deg/s),Gyroscope Z (deg/s),Accelerometer X (g),Accelerometer Y (g),Accelerometer Z (g),Magnetometer X (G),Magnetometer Y (G),Magnetometer Z (G)
0,13.125,6,3.75,-0.9438477,-0.3017578,-0.2167969,0.2832031,0.04394531,0.1220703
4,14.5,7.0625,3,-0.9594727,-0.2783203,-0.2167969,0.2841797,0.04394531,0.1220703
8,13.125,6.0625,1.3125,-1.005859,-0.2822266,-0.2324219,0.2832031,0.04394531,0.1220703
12,10,1.25,1.5625,-1.021484,-0.2744141,-0.2363281,0.2832031,0.04638672,0.1220703
16,4.6875,-4.375,1.5,-1.001953,-0.2666016,-0.2207031,0.2817383,0.04638672,0.1206055
20,0.5,-6.6875,0.1875,-0.9633789,-0.2626953,-0.1977539,0.2841797,0.04394531,0.1235352
24,-1.625,-6.625,-2.375,-0.9399414,-0.2861328,-0.1821289,0.2832031,0.04394531,0.1206055
28,-2.3125,-4.9375,-4,-0.9130859,-0.3134766,-0.1669922,0.2817383,0.04492188,0.1220703
32,-0.25,-1.8125,-5.375,-0.9091797,-0.3442383,-0.1743164,0.2832031,0.04492188,0.1191406
36,1.5,0.3125,-5.6875,-0.9130859,-0.3325195,-0.1708984,0.2832031,0.04638672,0.1191406
40,0.4375,1,-4.375,-0.9287109,-0.3173828,-0.1669922,0.2832031,0.04638672,0.1206055
44,-0.8125,1.6875,-4.375,-0.9287109,-0.3134766,-0.1630859,0.2832031,0.04638672,0.1191406
48,-1.5625,3.5625,-3.875,-0.9365234,-0.3056641,-0.1591797,0.2832031,0.04638672,0.1206055
52,-0.625,7.0625,-4.9375,-0.9438477,-0.3017578,-0.1669922,0.2841797,0.04638672,0.1191406
56,1.1875,12.5,-7.25,-0.9868164,-0.3056641,-0.1669922,0.2817383,0.04736328,0.1220703
60,4.125,19.1875,-10.6875,-1.044922,-0.3208008,-0.1899414,0.2832031,0.04638672,0.1220703
64,6.3125,24.4375,-13.5,-1.11084,-0.3286133,-0.2167969,0.2792969,0.04882813,0.125
68,7.5,26.625,-17.625,-1.230957,-0.3598633,-0.2514648,0.2792969,0.05273438,0.1259766
72,10,27.75,-23.625,-1.335449,-0.3676758,-0.2822266,0.2773438,0.05371094,0.1303711
76,11.0625,21.8125,-29.375,-1.424316,-0.3676758,-0.3208008,0.2749023,0.05615234,0.1303711
80,6.1875,14.6875,-35.625,-1.45166,-0.3520508,-0.359375,0.2749023,0.06005859,0.1303711
84,2.125,7.3125,-45.0625,-1.432129,-0.3950195,-0.3632813,0.2700195,0.06103516,0.1328125
88,1.8125,3.1875,-49.9375,-1.366211,-0.4414063,-0.3554688,0.2709961,0.06640625,0.1313477
92,1.25,0.9375,-51.5,-1.312012,-0.484375,-0.3515625,0.2675781,0.07128906,0.1328125
96,-1.8125,0.1875,-55.375,-1.261719,-0.503418,-0.3706055,0.2675781,0.07373047,0.1328125
100,-3.3125,1.5,-61.5,-1.195801,-0.5385742,-0.3745117,0.2626953,0.07861328,0.1328125
104,-3.1875,3.1875,-63.5,-1.145508,-0.6162109,-0.3706055,0.2617188,0.08398438,0.1342773
108,0.9375,0.1875,-60.375,-1.087402,-0.6474609,-0.3476563,0.2592773,0.08642578,0.1328125
112,3.5625,0.375,-57.875,-1.001953,-0.6044922,-0.3208008,0.2583008,0.09375,0.1357422
116,2.875,5.625,-60.5,-0.9052734,-0.5463867,-0.3051758,0.253418,0.09619141,0.1342773
120,1.6875,10.6875,-65.1875,-0.9326172,-0.5698242,-0.3208008,0.2519531,0.1000977,0.1342773
125,0.0625,8.5625,-64.375,-0.8974609,-0.5620117,-0.3666992,0.25,0.1049805,0.1357422
129,-0.75,6.8125,-58.75,-0.8745117,-0.6513672,-0.3974609,0.2475586,0.1113281,0.137207
133,5.5,0.5,-50.0625,-0.8510742,-0.6748047,-0.4091797,0.2451172,0.1152344,0.137207
137,12,-7.625,-42.125,-0.7929688,-0.6201172,-0.3706055,0.2392578,0.1201172,0.137207
141,13.125,-11.875,-41.4375,-0.7504883,-0.5893555,-0.3901367,0.2412109,0.1210938,0.1357422
145,18.9375,-18.4375,-42.4375,-0.7231445,-0.6513672,-0.4169922,0.2392578,0.1264648,0.1328125
149,30.5625,-31.875,-37.625,-0.7617188,-0.7055664,-0.4091797,0.2368164,0.1298828,0.1328125
153,44,-52.6875,-23.25,-0.6767578,-0.6899414,-0.3208008,0.2392578,0.1337891,0.1274414
157,50.25,-66.6875,-9.125,-0.6069336,-0.5268555,-0.1938477,0.2368164,0.1386719,0.1206055
161,47.3125,-75.8125,-1.8125,-0.4868164,-0.421875,-0.1054688,0.2412109,0.1386719,0.1137695
165,53.5,-65.625,-1.5625,-0.3588867,-0.4570313,-0.005371094,0.2426758,0.1401367,0.105957
169,69.875,-44.1875,-5.125,-0.3242188,-0.5,-0.009277344,0.2475586,0.1435547,0.09912109
173,84.875,-32.8125,0.0625,-0.4482422,-0.46875,-0.04394531,0.2460938,0.1459961,0.09082031
177,89.625,-40.6875,10,-0.4907227,-0.2939453,0.01367188,0.2475586,0.1459961,0.08251953
181,71.625,-48,12.625,-0.4404297,-0.04882813,0.105957,0.2509766,0.1513672,0.07861328
185,45.5,-51.25,6.3125,-0.3549805,0.008789063,0.1865234,0.2519531,0.1513672,0.06884766
189,31.4375,-36.75,-11.5,-0.215332,-0.06835938,0.2749023,0.253418,0.1523438,0.06201172
193,18.125,-11.8125,-23.6875,-0.246582,-0.1616211,0.1865234,0.253418,0.1523438,0.06103516
197,-0.0625,-6.25,-23.6875,-0.3935547,-0.3676758,0.04443359,0.2519531,0.15625,0.05810547
201,-9.9375,-7.25,-13.9375,-0.4555664,-0.5854492,-0.128418,0.2519531,0.15625,0.06103516
205,-4.5625,-12.8125,-0.375,-0.4907227,-0.6860352,-0.2128906,0.253418,0.1586914,0.05957031
209,1.3125,-12.875,8.0625,-0.4829102,-0.6474609,-0.2514648,0.2509766,0.1586914,0.05810547
213,8.1875,-6.875,11.125,-0.4829102,-0.5966797,-0.2016602,0.2509766,0.1577148,0.05664063
217,12.875,-1.25,8.875,-0.5527344,-0.5229492,-0.1401367,0.253418,0.1577148,0.05517578
221,11.6875,0.8125,9.1875,-0.5913086,-0.4609375,-0.04736328,0.253418,0.15625,0.05664063
225,2.875,5.625,11.1875,-0.5874023,-0.421875,-0.01660156,0.2543945,0.15625,0.05419922
229,-1.875,14.625,14.3125,-0.6806641,-0.5112305,-0.09765625,0.253418,0.1538086,0.05419922
233,3.75,14.0625,13,-0.8125,-0.534668,-0.1474609,0.2543945,0.1538086,0.05664063
237,1.9375,3.3125,12.0625,-0.8857422,-0.4648438,-0.1362305,0.2558594,0.1513672,0.05810547
241,-9.1875,-10.9375,12.75,-0.8549805,-0.4296875,-0.09765625,0.2558594,0.1523438,0.05664063
245,-18.4375,-22.25,14.3125,-0.796875,-0.4492188,-0.06298828,0.2568359,0.1523438,0.05517578
249,-24.6875,-29.1875,16.3125,-0.7075195,-0.4765625,-0.04394531,0.2602539,0.1459961,0.05517578
254,-27.9375,-27.125,19.9375,-0.6376953,-0.5737305,-0.07080078,0.2602539,0.1474609,0.05664063
258,-17.625,-25.1875,25.0625,-0.6108398,-0.6630859,-0.0859375,0.2617188,0.1435547,0.05419922
262,-5.875,-28.0625,33.375,-0.5795898,-0.6279297,-0.05517578,0.2666016,0.1425781,0.05273438
266,-1.8125,-28.875,41.0625,-0.4555664,-0.4765625,0.01708984,0.2651367,0.1386719,0.05126953
270,-7.875,-17.125,45.625,-0.28125,-0.2861328,0.105957,0.2700195,0.1347656,0.04980469
274,-22.4375,4,47.0625,-0.2504883,-0.1850586,0.07910156,0.2724609,0.1323242,0.04882813
278,-32,17.25,43.875,-0.3706055,-0.2163086,0.001953125,0.2709961,0.1274414,0.05126953
282,-34.1875,19.8125,37.8125,-0.4711914,-0.3095703,-0.06689453,0.2758789,0.1225586,0.05419922
286,-30.5,12.5625,35.625,-0.5488281,-0.3833008,-0.112793,0.2773438,0.1186523,0.05664063
290,-24.75,4.125,44.0625,-0.5024414,-0.4453125,-0.09375,0.2783203,0.1162109,0.05810547
294,-20.375,6.5625,56.8125,-0.4633789,-0.402832,-0.03613281,0.2792969,0.1123047,0.06103516
298,-21.0625,21.3125,57.5,-0.4013672,-0.3095703,0.04052734,0.2817383,0.1064453,0.06103516
302,-18.25,51.9375,52.0625,-0.4482422,-0.3442383,0.005859375,0.2841797,0.1025391,0.06494141
306,-3.5625,67.4375,41.3125,-0.7114258,-0.3676758,-0.0859375,0.2817383,0.09521484,0.0703125
310,9.125,61.75,22.4375,-0.9091797,-0.3208008,-0.1054688,0.2832031,0.09228516,0.07568359
314,11,54.4375,10,-0.8666992,-0.2900391,-0.06689453,0.2841797,0.09228516,0.08105469
318,10.125,52.0625,9.1875,-0.878418,-0.2978516,-0.08203125,0.2817383,0.09228516,0.08398438
322,6.0625,47.0625,8.0625,-0.9946289,-0.2314453,-0.1245117,0.2783203,0.09130859,0.09082031
326,-9.125,30.9375,6.375,-1.141602,-0.2084961,-0.1245117,0.2792969,0.09228516,0.09228516
330,-26.625,11.125,3.1875,-1.133789,-0.2861328,-0.1782227,0.2792969,0.09130859,0.09326172
334,-36.625,-6.25,5.5625,-1.099121,-0.4067383,-0.1938477,0.2792969,0.08886719,0.09472656
338,-39.8125,-15.6875,9.1875,-1.041016,-0.4921875,-0.2397461,0.2783203,0.08642578,0.09472656
342,-34.5625,-23.0625,14.3125,-1.052734,-0.5776367,-0.2016602,0.2807617,0.08642578,0.09765625
346,-25.125,-29.875,21.4375,-0.9750977,-0.5581055,-0.1591797,0.2807617,0.08251953,0.09326172
350,-18.25,-29.4375,24,-0.9052734,-0.453125,-0.08984375,0.2832031,0.07861328,0.09326172
354,-14.3125,-24.9375,21.9375,-0.8706055,-0.4296875,-0.04394531,0.2832031,0.07617188,0.09228516
358,-9.5625,-17.1875,19.1875,-0.8125,-0.3950195,0.04443359,0.2856445,0.07373047,0.08935547
362,-8.6875,-4.375,13.8125,-0.8198242,-0.402832,0.06738281,0.2866211,0.07275391,0.08789063
366,-5.375,7.75,15.125,-0.8549805,-0.5151367,0.04443359,0.2866211,0.07275391,0.08789063
370,3.375,16.5,19.1875,-0.9052734,-0.503418,0.001953125,0.2866211,0.06982422,0.09228516
374,13.0625,19,20.75,-0.9750977,-0.4726563,-0.05908203,0.2880859,0.06982422,0.09228516
378,25.875,20,20.4375,-1.005859,-0.3950195,-0.1054688,0.2880859,0.06640625,0.09082031
383,29.6875,18.0625,7.75,-1.067871,-0.2202148,-0.1435547,0.2866211,0.06884766,0.09228516
387,14.0625,9.8125,-9.3125,-1.071777,-0.1381836,-0.1206055,0.2866211,0.06738281,0.09228516
391,-12.625,-3,-8.8125,-1.060547,-0.2626953,-0.1166992,0.2866211,0.06982422,0.09472656
395,-31.25,-14.1875,7.375,-1.07959,-0.46875,-0.1435547,0.2866211,0.06738281,0.09326172
399,-27.375,-20.875,22.375,-1.087402,-0.6435547,-0.1323242,0.2880859,0.06640625,0.09326172
403,-4.1875,-17.375,24.5625,-1.11084,-0.6748047,-0.112793,0.2890625,0.06396484,0.09326172
407,14.75,-4.6875,7.5625,-1.087402,-0.5463867,-0.07080078,0.2890625,0.0625,0.09082031
411,18.875,13,-2.625,-1.118652,-0.4570313,-0.06298828,0.2915039,0.06103516,0.09082031
415,11.75,22.0625,-2.125,-1.296875,-0.4570313,-0.1323242,0.2866211,0.0625,0.09228516
419,3.875,15.625,2.0625,-1.463379,-0.4492188,-0.2246094,0.2880859,0.0625,0.09472656
423,-10,-7.75,6.75,-1.571777,-0.3793945,-0.3012695,0.2880859,0.06396484,0.09326172
427,-24.25,-31.4375,7.375,-1.486328,-0.4257813,-0.2783203,0.2880859,0.06103516,0.09228516
431,-31.875,-38.4375,6.1875,-1.35498,-0.4882813,-0.2089844,0.2890625,0.06103516,0.09082031
435,-32.25,-32.125,5.3125,-1.257813,-0.5385742,-0.1054688,0.2924805,0.05859375,0.08789063
439,-31.5,-21.1875,3.4375,-1.253906,-0.5112305,-0.07470703,0.2924805,0.05761719,0.08789063
443,-29.9375,-11.9375,0.5625,-1.242188,-0.4804688,-0.04003906,0.2949219,0.05615234,0.08789063
447,-29.625,-1.375,-1.375,-1.273438,-0.4960938,-0.04394531,0.2949219,0.05517578,0.08691406
451,-27.5625,9.75,-5.125,-1.312012,-0.4804688,-0.07861328,0.2924805,0.05371094,0.08789063
455,-24.9375,18.4375,-11.625,-1.339355,-0.4570313,-0.1166992,0.2924805,0.05371094,0.08935547
459,-26.625,29.0625,-20.0625,-1.343262,-0.4101563,-0.1899414,0.2915039,0.05371094,0.09228516
463,-33.5,31.4375,-30.125,-1.467285,-0.4414063,-0.2705078,0.2915039,0.05371094,0.09619141
467,-40.5,21.1875,-31.4375,-1.475098,-0.5385742,-0.3012695,0.2880859,0.05761719,0.1000977
471,-43.625,15.5,-27.5,-1.381836,-0.6005859,-0.309082,0.2866211,0.05859375,0.1044922
475,-39.1875,17.9375,-29.25,-1.32373,-0.6396484,-0.3515625,0.2841797,0.05859375,0.1069336
479,-32.875,20.4375,-34.6875,-1.296875,-0.6396484,-0.3901367,0.2841797,0.06005859,0.1069336
483,-27.125,27.5,-42.75,-1.227051,-0.6318359,-0.3974609,0.2817383,0.06103516,0.1098633
487,-22.25,37.75,-54.125,-1.230957,-0.6821289,-0.4248047,0.2783203,0.06396484,0.1137695
491,-14.4375,38.3125,-61.25,-1.327637,-0.7524414,-0.4399414,0.2749023,0.06884766,0.1206055
495,-10.6875,22,-55.75,-1.370117,-0.7563477,-0.4360352,0.2734375,0.07128906,0.1206055
499,-13.75,-3.625,-46.4375,-1.304199,-0.7172852,-0.3745117,0.2709961,0.07763672,0.1206055
503,-16.8125,-17.9375,-42.5625,-1.033203,-0.6318359,-0.2861328,0.269043,0.07861328,0.1220703
507,-19.375,-12.4375,-48.5,-0.862793,-0.6357422,-0.2246094,0.2675781,0.08251953,0.1220703
512,-7.5625,3.0625,-57.1875,-0.7075195,-0.7329102,-0.2207031,0.2666016,0.08496094,0.1206055
516,12.8125,18.5625,-60.0625,-0.7036133,-0.7910156,-0.2514648,0.2641602,0.09130859,0.1235352
520,30.5625,20.1875,-48.75,-0.7387695,-0.8027344,-0.3051758,0.2602539,0.09521484,0.125
524,39.5,13.5,-28.75,-0.715332,-0.6630859,-0.324707,0.2592773,0.1025391,0.125
528,41.75,8.4375,-20.875,-0.6689453,-0.5463867,-0.3476563,0.2583008,0.1035156,0.1235352
532,46.8125,0.125,-22.0625,-0.6806641,-0.4960938,-0.3325195,0.2558594,0.1064453,0.1206055
536,55.125,-8.25,-24.1875,-0.5644531,-0.4335938,-0.2861328,0.2558594,0.1113281,0.1181641
540,65.75,-12.5625,-24.9375,-0.5102539,-0.371582,-0.2285156,0.2543945,0.1176758,0.1152344
544,68.375,-15.1875,-19.9375,-0.5024414,-0.3325195,-0.1513672,0.2558594,0.1201172,0.1137695
548,67.625,-19.75,-14.5,-0.4750977,-0.2939453,-0.09375,0.253418,0.1235352,0.1098633
552,70.9375,-20.875,-12.1875,-0.4907227,-0.3833008,-0.04736328,0.253418,0.1274414,0.1015625
556,87.75,-20.375,-14.125,-0.4482422,-0.4921875,0.04052734,0.2558594,0.1298828,0.09765625
560,113.6875,-6.0625,-14.375,-0.3588867,-0.534668,0.125,0.253418,0.1347656,0.09082031
564,138,9.3125,-6.625,-0.4091797,-0.3833008,0.105957,0.253418,0.1411133,0.08544922
568,135.6875,0.625,4.5625,-0.5644531,-0.08398438,0.08642578,0.253418,0.1435547,0.08007813
572,99.125,-31.875,20.375,-0.5991211,0.284668,0.1132813,0.253418,0.1474609,0.07177734
576,34.8125,-62.1875,19.75,-0.5175781,0.5136719,0.1210938,0.2543945,0.1474609,0.06201172
580,-17.25,-68.5625,-12.0625,-0.347168,0.2226563,0.02490234,0.2592773,0.1474609,0.05517578
584,-28.4375,-60.6875,-27.6875,-0.3432617,-0.3481445,-0.0859375,0.2592773,0.1499023,0.05419922
588,-25.6875,-55.5625,-36.875,-0.1264648,0.7739258,-0.1323242,0.2602539,0.1489258,0.04980469
592,-6.5625,-41.4375,-2.25,-0.2080078,-0.6005859,-0.1362305,0.2602539,0.1513672,0.04882813
596,-8.375,-23.75,16.4375,-0.2348633,-0.519043,-0.1669922,0.2602539,0.1513672,0.04589844
600,-5.625,-7.6875,24.375,-0.3823242,-0.519043,-0.1977539,0.2617188,0.1474609,0.04589844
604,6.0625,1.875,24.0625,-0.5371094,-0.4609375,-0.1669922,0.2626953,0.1459961,0.04443359
608,9.9375,7.1875,16.5625,-0.6376953,-0.2822266,-0.07470703,0.2651367,0.1450195,0.04589844
612,-3.9375,8.0625,13.1875,-0.7036133,-0.2084961,-0.09375,0.2641602,0.1435547,0.04589844
616,-17.6875,5.6875,11.625,-0.8085938,-0.3134766,-0.1362305,0.2651367,0.1425781,0.04443359
620,-18.1875,-4.5625,8.875,-0.9169922,-0.4492188,-0.1552734,0.2651367,0.1411133,0.04980469
624,-17.6875,-17.375,10.125,-0.847168,-0.4179688,-0.109375,0.2651367,0.1386719,0.04882813
628,-23,-20.375,12,-0.7270508,-0.4101563,-0.02832031,0.2675781,0.1401367,0.04882813
632,-21.0625,-13.9375,11.4375,-0.6186523,-0.4765625,0.02880859,0.2675781,0.1362305,0.04882813
636,-12.125,-0.6875,10.25,-0.5683594,-0.484375,0.09033203,0.2700195,0.1347656,0.04589844
641,-10,5.625,17,-0.5834961,-0.4179688,0.159668,0.2700195,0.1347656,0.04736328
645,-17,6.3125,25,-0.5756836,-0.3364258,0.2250977,0.269043,0.1347656,0.04882813
649,-22.9375,6.6875,30.8125,-0.5214844,-0.3017578,0.2636719,0.2724609,0.1298828,0.04980469
653,-28.625,9.5,37.0625,-0.4633789,-0.2353516,0.2749023,0.2724609,0.1289063,0.05273438
657,-31.4375,14.25,40,-0.4287109,-0.1967773,0.2709961,0.2773438,0.1235352,0.05517578
661,-40.375,19.4375,42.75,-0.4091797,-0.1074219,0.2021484,0.2773438,0.1201172,0.05664063
665,-52.0625,24.5625,46.125,-0.3549805,-0.04882813,0.105957,0.2773438,0.1152344,0.05957031
669,-61.25,27.0625,45.75,-0.4052734,0.008789063,-0.03222656,0.2792969,0.1113281,0.06347656
673,-66.5625,18.75,33.75,-0.4521484,0.02050781,-0.1323242,0.2792969,0.1035156,0.0703125
677,-72.1875,21.1875,15.625,-0.4555664,-0.1889648,-0.1435547,0.2807617,0.1010742,0.07324219
681,-68.75,25.1875,14.5,-0.5527344,-0.4296875,-0.2089844,0.2807617,0.09619141,0.08007813
685,-58.125,21.125,32.6875,-0.5371094,-0.5268555,-0.2783203,0.2807617,0.09228516,0.08398438
689,-46.875,35.125,41.875,-0.6376953,-0.5541992,-0.3286133,0.2832031,0.08740234,0.08789063
693,-28.6875,39.125,31.9375,-0.8745117,-0.6123047,-0.394043,0.2832031,0.08496094,0.09228516
697,-5.5,29.3125,20.875,-0.9555664,-0.565918,-0.3554688,0.2817383,0.08105469,0.09326172
701,2.3125,18.625,15,-0.9091797,-0.4335938,-0.2670898,0.2807617,0.08105469,0.09765625
705,0.6875,17.9375,15.0625,-0.8745117,-0.3911133,-0.2055664,0.2807617,0.07763672,0.09912109
709,-5.125,16.875,17.1875,-0.9438477,-0.421875,-0.1899414,0.2817383,0.07763672,0.1000977
713,-4.3125,12.625,17.875,-0.9907227,-0.4921875,-0.2324219,0.2817383,0.07763672,0.1015625
717,3.5,12.25,12.0625,-0.9985352,-0.5541992,-0.3051758,0.2832031,0.07519531,0.1044922
721,8,1,12.8125,-1.11084,-0.565918,-0.3286133,0.2807617,0.07373047,0.1015625
725,8.375,-19.3125,25.875,-1.12207,-0.5854492,-0.3129883,0.2807617,0.07373047,0.1015625
729,9.8125,-36.3125,36.9375,-1.157227,-0.565918,-0.2285156,0.2856445,0.06982422,0.09912109
733,11.8125,-44.5,33.125,-1.067871,-0.5541992,-0.1552734,0.2866211,0.06738281,0.09619141
737,16.4375,-44.1875,32.4375,-1.001953,-0.46875,-0.1054688,0.2890625,0.06494141,0.09472656
741,14.5625,-39.1875,23.1875,-0.9052734,-0.3208008,-0.06298828,0.2900391,0.06396484,0.08789063
745,2.5,-33,14.1875,-0.8818359,-0.3325195,-0.009277344,0.2924805,0.06103516,0.08251953
749,-4.75,-26.875,20.25,-0.9013672,-0.4960938,0.009765625,0.2939453,0.0625,0.08105469
753,4.9375,-20.625,35.0625,-0.9052734,-0.565918,0.01708984,0.2963867,0.05761719,0.08105469
757,28.0625,-5.375,35.875,-0.9399414,-0.5268555,0.005859375,0.2949219,0.05615234,0.08007813
761,52.9375,5.5625,19.875,-1.060547,-0.3095703,-0.04394531,0.2983398,0.05371094,0.07861328
765,54,4.1875,-0.25,-1.15332,-0.07617188,-0.03222656,0.2983398,0.05273438,0.07714844
770,22.25,-10.875,-8.8125,-1.211426,0.004882813,-0.04736328,0.2963867,0.05517578,0.07324219
774,-12.4375,-36.125,4.625,-1.234863,-0.1928711,-0.07470703,0.2983398,0.05615234,0.07324219
778,-14.5,-44.875,13,-1.246094,-0.4765625,-0.07470703,0.3007813,0.05517578,0.06884766
782,6.6875,-48.375,9.375,-1.343262,-0.6044922,-0.03222656,0.3022461,0.05371094,0.06494141
786,29.3125,-41.625,-3.5625,-1.261719,-0.5385742,0.04785156,0.3022461,0.05371094,0.06347656
790,35.9375,-19.125,-13.375,-1.300781,-0.46875,0.105957,0.3022461,0.05517578,0.05957031
794,31.3125,-7.8125,-17.375,-1.475098,-0.4414063,0.08251953,0.3032227,0.05615234,0.05517578
798,15.8125,-14.1875,-14,-1.614258,-0.3989258,0.08642578,0.3022461,0.05761719,0.05419922
802,-5,-21.0625,-9.375,-1.606445,-0.4296875,0.09814453,0.3046875,0.06103516,0.05273438
806,-16,-14.75,-7.75,-1.556152,-0.5541992,0.105957,0.3022461,0.06005859,0.05126953
810,-12.625,0.25,-16.3125,-1.541016,-0.5581055,0.08642578,0.3022461,0.06103516,0.04980469
814,-11.875,15.3125,-29.5,-1.494141,-0.503418,0.07128906,0.3022461,0.06396484,0.05273438
818,-21.4375,24.0625,-35.125,-1.436035,-0.484375,0.03271484,0.2983398,0.06738281,0.05419922
822,-35.25,27.25,-35.25,-1.413086,-0.5541992,-0.05126953,0.2998047,0.06738281,0.05664063
826,-43.8125,23.25,-31,-1.389648,-0.6435547,-0.09375,0.2973633,0.06982422,0.06103516
830,-47.875,20.6875,-24.6875,-1.308105,-0.7055664,-0.1054688,0.2939453,0.07128906,0.06494141
834,-46.375,22.5625,-19.6875,-1.246094,-0.7250977,-0.109375,0.2939453,0.07373047,0.06787109
838,-42.9375,26.6875,-20.375,-1.219238,-0.7094727,-0.09765625,0.2915039,0.07275391,0.0703125
842,-35.5625,34.5625,-28,-1.125977,-0.7055664,-0.07470703,0.2915039,0.07373047,0.07421875
846,-33.4375,44.9375,-35.1875,-1.07959,-0.6748047,-0.05126953,0.2890625,0.07373047,0.08007813
850,-35.5,53.1875,-35.5625,-1.07959,-0.6899414,-0.0859375,0.2866211,0.07763672,0.08544922
854,-38.9375,52.125,-33.4375,-1.133789,-0.6899414,-0.1708984,0.2832031,0.08105469,0.09228516
858,-44.375,42.25,-26.75,-1.114746,-0.6899414,-0.2744141,0.2807617,0.08007813,0.09326172
862,-40.6875,38,-23.4375,-1.075684,-0.8066406,-0.3286133,0.2783203,0.08105469,0.1015625
866,-16.75,41.75,-30.0625,-1.001953,-0.9194336,-0.324707,0.2749023,0.08251953,0.1044922
870,7.8125,49.6875,-34.3125,-0.9672852,-0.8261719,-0.2670898,0.2734375,0.08496094,0.1083984
874,13.625,49.1875,-33.75,-0.9750977,-0.6860352,-0.2246094,0.2709961,0.08886719,0.1123047
878,9,52.4375,-29.125,-0.9169922,-0.5581055,-0.2324219,0.2666016,0.09130859,0.1152344
882,1.8125,53.25,-35.3125,-1.001953,-0.5737305,-0.2592773,0.2651367,0.09375,0.1181641
886,8.25,48.3125,-37.125,-0.9594727,-0.6748047,-0.2861328,0.2617188,0.09619141,0.1235352
890,24.625,46.125,-33.25,-0.9130859,-0.7133789,-0.2861328,0.2568359,0.1010742,0.125
894,43.125,45.75,-28.9375,-0.8896484,-0.6821289,-0.2861328,0.2543945,0.1035156,0.1274414
899,52.9375,33.625,-14.9375,-1.017578,-0.5893555,-0.2475586,0.2519531,0.1074219,0.1289063
903,48.4375,9.5,0.25,-0.9248047,-0.3325195,-0.2475586,0.2509766,0.1098633,0.1289063
907,42.75,-3,-1.5,-0.831543,-0.1733398,-0.2089844,0.25,0.1123047,0.1303711
911,39.9375,-12.75,-21,-0.7387695,-0.1074219,-0.2089844,0.25,0.1162109,0.1235352
915,37.6875,-20.3125,-38.625,-0.6069336,-0.1889648,-0.2397461,0.25,0.1186523,0.1220703
919,38.625,-25.75,-40.0625,-0.5449219,-0.3286133,-0.34375,0.2485352,0.1225586,0.1191406
923,47.0625,-42.75,-27.1875,-0.6030273,-0.4804688,-0.4013672,0.2475586,0.1274414,0.1137695
927,63.6875,-66.6875,-14,-0.5214844,-0.4296875,-0.359375,0.2485352,0.1313477,0.1083984
931,70.1875,-80.875,-16.75,-0.3203125,-0.1577148,-0.2744141,0.25,0.1337891,0.09912109
935,64.8125,-81,-30.1875,-0.215332,-0.04882813,-0.1474609,0.2509766,0.1376953,0.09082031
939,63.75,-73.4375,-43.5,-0.1572266,-0.1538086,-0.03613281,0.2519531,0.1435547,0.08007813
943,62.1875,-68.8125,-38,-0.1689453,-0.1772461,0.02490234,0.2519531,0.1474609,0.07421875
947,42.5,-66.9375,-23.75,-0.2734375,-0.1616211,0.005859375,0.253418,0.1513672,0.06347656
951,23.1875,-78.875,-11.8125,-0.2890625,-0.2744141,-0.01318359,0.2519531,0.1547852,0.05810547
955,16.0625,-71.8125,-4.1875,-0.1767578,-0.3950195,-0.05517578,0.2543945,0.15625,0.05273438
959,17.25,-61.6875,-1.4375,-0.2773438,-0.3989258,-0.06298828,0.2568359,0.1547852,0.04589844
963,19.3125,-50.3125,-10.25,-0.3007813,-0.4296875,-0.05126953,0.2583008,0.15625,0.0390625
967,18.6875,-41.875,-7.125,-0.3588867,-0.453125,0.04443359,0.2568359,0.15625,0.03759766
971,9.8125,-33.375,2.125,-0.3935547,-0.453125,0.05957031,0.2583008,0.1601563,0.03076172
975,3.5,-21.625,8.9375,-0.3974609,-0.5307617,0.04443359,0.2583008,0.1586914,0.02832031
979,11.1875,-7.875,15.75,-0.4868164,-0.6474609,0.02490234,0.2592773,0.1577148,0.02685547
983,25.25,2.9375,18.625,-0.5527344,-0.6123047,0.08251953,0.2602539,0.1547852,0.02685547
987,28.75,15.75,19.25,-0.5488281,-0.4921875,0.1132813,0.2617188,0.1547852,0.02392578
991,22.125,28.5,19.0625,-0.6533203,-0.4140625,0.09423828,0.2617188,0.1538086,0.02685547
995,15.25,30.25,17.8125,-0.8164063,-0.46875,0.05957031,0.2626953,0.1513672,0.02685547
999,11.8125,21.75,18.1875,-0.8818359,-0.4726563,0.03271484,0.2626953,0.1513672,0.02832031
1003,5.9375,11.5625,17.25,-0.8974609,-0.4453125,0.05957031,0.2651367,0.1489258,0.02685547
1007,-2.875,0.9375,19.4375,-0.8432617,-0.4179688,0.1132813,0.2641602,0.1474609,0.03076172
1011,-10,-1.8125,23.1875,-0.7578125,-0.4257813,0.1674805,0.2651367,0.1459961,0.02978516
1015,-12.875,3.375,21.125,-0.6767578,-0.4140625,0.2021484,0.2675781,0.1450195,0.02978516
1019,-14.9375,10.9375,22.875,-0.6303711,-0.421875,0.2060547,0.269043,0.1435547,0.03076172
1023,-13.125,13.5,27.25,-0.5795898,-0.3676758,0.2290039,0.269043,0.1401367,0.03369141
1028,-19.375,13.5,31.125,-0.5683594,-0.2509766,0.2402344,0.2709961,0.1401367,0.03369141
1032,-32.125,6.5,38.8125,-0.5024414,-0.1459961,0.2211914,0.2709961,0.1362305,0.0390625
1036,-54.8125,3.25,45.75,-0.3745117,0.02441406,0.2480469,0.2749023,0.1313477,0.03759766
1040,-77.875,8.875,42.9375,-0.3125,0.02050781,0.1557617,0.2758789,0.1264648,0.04296875
1044,-86.875,13.6875,38.9375,-0.3085938,-0.08398438,0.03662109,0.2792969,0.1235352,0.04882813
1048,-84.25,14.5625,35.3125,-0.3125,-0.2124023,-0.07470703,0.2807617,0.1162109,0.05126953
1052,-75.4375,12.5625,35.6875,-0.3007813,-0.3173828,-0.1474609,0.2807617,0.1123047,0.05664063
1056,-66.875,15.5625,40.9375,-0.3320313,-0.4726563,-0.1899414,0.2832031,0.1074219,0.06103516
1060,-58.625,18.1875,51.625,-0.4169922,-0.550293,-0.2207031,0.2817383,0.1025391,0.06640625
1064,-45.5,27.4375,62.5,-0.4365234,-0.5307617,-0.2822266,0.2832031,0.09765625,0.06884766
1068,-32.6875,32.9375,56.9375,-0.6303711,-0.5112305,-0.309082,0.2856445,0.08886719,0.07324219
1072,-14.25,23.25,41.375,-0.7192383,-0.5307617,-0.2631836,0.2880859,0.08496094,0.07568359
1076,-9.375,18.8125,37.875,-0.7192383,-0.5385742,-0.1552734,0.2890625,0.08251953,0.07861328
1080,-19.6875,14.0625,58.125,-0.8393555,-0.5268555,-0.112793,0.2890625,0.07617188,0.08105469
1084,-29.75,3.9375,79.125,-0.9633789,-0.550293,-0.1591797,0.2900391,0.06884766,0.08105469
1088,-19.75,-3,72.5625,-0.9013672,-0.534668,-0.2055664,0.2915039,0.06396484,0.08105469
1092,6.3125,16.25,43.875,-0.765625,-0.5581055,-0.2436523,0.2973633,0.05615234,0.08398438
1096,28.8125,32.1875,20.75,-0.9868164,-0.5307617,-0.3129883,0.2963867,0.05517578,0.08544922
1100,31.6875,13.25,22.4375,-1.223145,-0.4296875,-0.3359375,0.2963867,0.05371094,0.08789063
1104,10.375,-30.6875,39.25,-1.300781,-0.2861328,-0.3129883,0.2949219,0.05273438,0.08544922
1108,-17.125,-74.5,57.8125,-1.15332,-0.2084961,-0.2475586,0.2998047,0.04736328,0.08007813
1112,-37.875,-95.9375,63.0625,-0.9633789,-0.2626953,-0.1166992,0.3022461,0.04248047,0.07714844
1116,-35.0625,-88.3125,60.625,-0.847168,-0.3676758,0.01708984,0.3056641,0.03515625,0.06787109
1120,-12.75,-62.8125,43.5625,-0.847168,-0.453125,0.1328125,0.3105469,0.02880859,0.06103516
1124,21.75,-34.375,25.0625,-0.831543,-0.4453125,0.1826172,0.3129883,0.02636719,0.05517578
1128,45.6875,-3.9375,14.5,-0.8818359,-0.2744141,0.2211914,0.3139648,0.02392578,0.05273438
1132,50.625,12.9375,14.4375,-1.106934,-0.2163086,0.1865234,0.3129883,0.02490234,0.05273438
1136,38,6.875,20,-1.37793,-0.1381836,0.1787109,0.3154297,0.02490234,0.05273438
1140,10.625,-7.625,32.9375,-1.35498,-0.1152344,0.1635742,0.3139648,0.02148438,0.05126953
1144,-3.9375,-13.625,42.1875,-1.277344,-0.1772461,0.1132813,0.3139648,0.01855469,0.05126953
1148,4.875,-5.1875,34.875,-1.191895,-0.2241211,0.07519531,0.3164063,0.01367188,0.04980469
1152,22.25,10,16.1875,-1.180664,-0.1889648,0.06738281,0.3154297,0.01269531,0.04882813
1157,31.375,23.8125,4.875,-1.211426,-0.1420898,0.01367188,0.3188477,0.01269531,0.04980469
1161,24.75,18,3.5,-1.362793,-0.05273438,-0.005371094,0.3173828,0.01269531,0.04980469
1165,2.125,-4.4375,3.8125,-1.389648,-0.06054688,-0.06298828,0.3164063,0.01269531,0.05419922
1169,-18.125,-30.9375,13.8125,-1.335449,-0.1191406,-0.07080078,0.3164063,0.01123047,0.05273438
1173,-25.75,-45.25,16,-1.180664,-0.2202148,-0.07080078,0.3164063,0.008789063,0.04980469
1177,-16.5625,-44.5,7.3125,-1.125977,-0.3056641,-0.1166992,0.3173828,0.008789063,0.04589844
1181,1.5625,-42.6875,-9.0625,-1.114746,-0.402832,-0.07080078,0.3188477,0.007324219,0.04199219
1185,12.375,-38.25,-12.25,-1.11084,-0.4648438,-0.04003906,0.3188477,0.007324219,0.0390625
1189,17.4375,-35.4375,-0.5625,-1.149414,-0.4570313,0.02490234,0.3198242,0.01025391,0.03369141
1193,22.9375,-27.8125,4.8125,-1.265625,-0.4067383,0.09814453,0.3198242,0.008789063,0.03222656
1197,22.125,-21.6875,3.875,-1.416992,-0.324707,0.1787109,0.3212891,0.008789063,0.02978516
1201,20.75,-9.25,4.375,-1.599121,-0.3095703,0.2558594,0.3212891,0.01025391,0.02832031
1205,16.5625,4.375,-0.75,-1.79248,-0.2163086,0.3330078,0.3198242,0.01025391,0.02832031
1209,6.6875,16.0625,-14.5,-1.912598,-0.09960938,0.3520508,0.3222656,0.01025391,0.02539063
1213,-13.625,23.0625,-34.5625,-1.932129,0.01269531,0.355957,0.3198242,0.01123047,0.02832031
1217,-42.4375,28.75,-49.5,-1.839355,-0.04541016,0.3212891,0.3188477,0.01513672,0.03222656
1221,-67.5625,36.4375,-56.3125,-1.746094,-0.2314453,0.2021484,0.3173828,0.02001953,0.03369141
1225,-76.5,43.8125,-65.875,-1.637695,-0.4296875,0.09423828,0.3173828,0.02490234,0.04052734
1229,-72.5625,53,-71,-1.583496,-0.6162109,-0.001464844,0.3129883,0.02880859,0.04736328
1233,-60.8125,56.0625,-72.0625,-1.54834,-0.7407227,-0.05517578,0.3115234,0.03271484,0.05126953
1237,-44,58.875,-69.125,-1.443848,-0.8027344,-0.08984375,0.3081055,0.03857422,0.05957031
1241,-24.9375,66.875,-69,-1.381836,-0.7446289,-0.05517578,0.3046875,0.04638672,0.06640625
1245,-18.875,71.125,-71.6875,-1.347168,-0.581543,-0.05126953,0.3007813,0.04882813,0.0703125
1249,-24.0625,69.125,-78.375,-1.289063,-0.4765625,-0.04736328,0.2973633,0.05517578,0.07861328
1253,-35.25,62.9375,-81.4375,-1.211426,-0.4648438,-0.08984375,0.2924805,0.0625,0.08544922
1257,-39,59.3125,-78.75,-1.129883,-0.581543,-0.1401367,0.2900391,0.06640625,0.08935547
1261,-31.6875,51.875,-74.25,-1.141602,-0.6552734,-0.1860352,0.2832031,0.07275391,0.09619141
1265,-24.375,38.25,-62.1875,-1.067871,-0.6396484,-0.1977539,0.2792969,0.08007813,0.1015625
1269,-21.8125,22.25,-49.75,-0.9790039,-0.519043,-0.2397461,0.2773438,0.08398438,0.1044922
1273,-16.625,5.25,-50.125,-0.8007813,-0.3520508,-0.2207031,0.2734375,0.08496094,0.1069336
1277,-21.625,-0.25,-64.125,-0.5488281,-0.2314453,-0.2363281,0.2709961,0.08984375,0.105957
1281,-20.4375,6.5,-80,-0.4208984,-0.3911133,-0.2822266,0.2700195,0.09375,0.1098633
1286,-4.375,9.0625,-79.125,-0.3974609,-0.565918,-0.3398438,0.2666016,0.1000977,0.1113281
1290,15.375,1.6875,-61.5,-0.3901367,-0.6630859,-0.359375,0.2626953,0.1098633,0.1098633
1294,35.3125,-14.125,-38.6875,-0.3549805,-0.5737305,-0.3515625,0.2602539,0.1098633,0.1098633
1298,47.5,-19.9375,-26.625,-0.246582,-0.4414063,-0.34375,0.2592773,0.1152344,0.1069336
1302,60.5,-12.125,-30.25,-0.1459961,-0.3793945,-0.3325195,0.2592773,0.1176758,0.1030273
1306,71.0625,2.0625,-37,-0.1923828,-0.3286133,-0.2822266,0.2568359,0.1210938,0.09912109
1310,70.6875,-5.375,-27.375,-0.3974609,-0.3598633,-0.3051758,0.2568359,0.1289063,0.09619141
1314,72.3125,-34.5,-5.5,-0.4404297,-0.3208008,-0.2783203,0.2558594,0.1323242,0.09228516
1318,76.1875,-56.4375,0.0625,-0.4208984,-0.2939453,-0.2089844,0.2583008,0.1347656,0.08691406
1322,78.5625,-70.6875,-2.875,-0.2890625,-0.1811523,-0.08203125,0.2583008,0.1376953,0.07714844
1326,66.5,-70.375,-2.125,-0.2231445,-0.1577148,0.05957031,0.2592773,0.1411133,0.06884766
1330,52.1875,-69.1875,4.5,-0.1962891,-0.2006836,0.2094727,0.2602539,0.1411133,0.05957031
1334,39.3125,-58.9375,17.9375,-0.1845703,-0.2470703,0.3251953,0.2641602,0.1411133,0.05126953
1338,36.125,-36.4375,21,-0.1689453,-0.2509766,0.375,0.2675781,0.1411133,0.04443359
1342,34.875,-2.6875,16.4375,-0.2426758,-0.1694336,0.3442383,0.2675781,0.1411133,0.04296875
1346,26.375,18.6875,5.25,-0.4711914,-0.1616211,0.2060547,0.2709961,0.1386719,0.04052734
1350,10.25,15.9375,-0.0625,-0.6342773,-0.1772461,0.09033203,0.2675781,0.1411133,0.04052734
1354,-11.0625,0.125,2.4375,-0.699707,-0.2861328,-0.001464844,0.269043,0.1386719,0.04296875
1358,-25.5,-10.875,11.125,-0.6494141,-0.4570313,-0.04736328,0.2675781,0.1376953,0.04052734
1362,-24.75,-9.75,16,-0.6186523,-0.6005859,-0.1015625,0.2700195,0.1376953,0.04296875
1366,-10.875,-1.8125,16.5625,-0.5795898,-0.6787109,-0.08984375,0.2700195,0.1347656,0.04443359
1370,3.25,12.8125,14.5,-0.5834961,-0.6396484,-0.07861328,0.2724609,0.1347656,0.04589844
1374,6.5625,21.3125,16.3125,-0.6962891,-0.6083984,-0.1474609,0.2709961,0.1337891,0.04443359
1378,7.6875,17.4375,21,-0.8237305,-0.6435547,-0.2016602,0.2724609,0.1323242,0.04589844
1382,14.0625,6.0625,25.8125,-0.8276367,-0.6474609,-0.1782227,0.2734375,0.1298828,0.04882813
1386,24.375,5.125,26.8125,-0.7387695,-0.6396484,-0.1054688,0.2734375,0.1289063,0.04589844
1390,35.875,11.125,25.0625,-0.6689453,-0.6201172,-0.06298828,0.2734375,0.1274414,0.04736328
1394,42.9375,18.6875,26.375,-0.6303711,-0.5776367,-0.009277344,0.2773438,0.1274414,0.04443359
1398,39.625,19.5,32.375,-0.6376953,-0.4140625,-0.001464844,0.2783203,0.125,0.04736328
1402,25.6875,15,38.0625,-0.6342773,-0.3442383,0.02099609,0.2783203,0.1210938,0.04296875
1406,14.5625,9.8125,45.375,-0.6303711,-0.3134766,0.03662109,0.2807617,0.1186523,0.04296875
1410,5,6.125,48.75,-0.6108398,-0.3364258,0.04785156,0.2807617,0.1152344,0.04296875
1415,3.0625,4.625,56.3125,-0.5991211,-0.3793945,0.04443359,0.2841797,0.1123047,0.04443359
1419,6.125,4.125,61.5625,-0.5527344,-0.3208008,0.02490234,0.2866211,0.1074219,0.04443359
1423,4.25,2.125,61.4375,-0.5024414,-0.1538086,0.02880859,0.2890625,0.1000977,0.04296875
1427,-9.25,-2.875,57.8125,-0.4555664,-0.02587891,0.02099609,0.2915039,0.09863281,0.04443359
1431,-25.875,-8.125,57.3125,-0.4326172,-0.06835938,0.07910156,0.2949219,0.09228516,0.04296875
1435,-37.25,-6.1875,61.9375,-0.4013672,-0.1381836,0.09814453,0.2973633,0.08496094,0.04443359
1439,-36.5,3.75,66.1875,-0.3745117,-0.1967773,0.125,0.2983398,0.08251953,0.04589844
1443,-26.875,16.3125,59.875,-0.4555664,-0.2045898,0.02099609,0.3007813,0.07275391,0.04589844
1447,-18.75,22.375,46.375,-0.5292969,-0.1694336,-0.02441406,0.3022461,0.06884766,0.05126953
1451,-17.4375,17.3125,44.9375,-0.5913086,-0.1655273,-0.05908203,0.3046875,0.06396484,0.05126953
1455,-16,5,52.5,-0.6342773,-0.1230469,-0.04736328,0.3032227,0.05859375,0.05273438
1459,-19.5625,-3.0625,56.375,-0.6962891,-0.02197266,-0.03222656,0.3071289,0.05273438,0.05419922
1463,-34.25,-10.125,47.125,-0.7851563,-0.04882813,-0.05126953,0.309082,0.04980469,0.05273438
1467,-45.625,-19.1875,40.25,-0.7734375,-0.1967773,-0.1206055,0.3081055,0.04492188,0.05419922
1471,-39.0625,-23.1875,42.75,-0.7348633,-0.3481445,-0.1435547,0.3105469,0.03857422,0.05419922
1475,-9.0625,-23.5,43.5625,-0.8857422,-0.3989258,-0.112793,0.3129883,0.03515625,0.05126953
1479,15,-27.125,27.4375,-1.033203,-0.2744141,-0.01660156,0.3154297,0.02880859,0.05126953
1483,12.875,-35.8125,23.125,-1.044922,-0.2006836,0.05566406,0.3154297,0.02880859,0.04589844
1487,-8.4375,-47.6875,35.3125,-0.9672852,-0.1191406,0.07910156,0.3173828,0.02734375,0.04296875
1491,-29,-56.875,44.1875,-0.9555664,-0.1733398,0.03271484,0.3188477,0.02246094,0.04052734
1495,-27.3125,-64.875,50.3125,-1.025391,-0.3208008,0.04785156,0.3198242,0.01611328,0.03369141
1499,-6.6875,-63.1875,39.625,-1.125977,-0.4140625,0.1674805,0.3212891,0.01123047,0.02978516
1503,12.5625,-50.8125,25.9375,-1.067871,-0.3754883,0.2788086,0.3222656,0.008789063,0.02392578
1507,17.5625,-31.4375,16.25,-1.11084,-0.2392578,0.2905273,0.324707,0.004882813,0.01708984
1511,10.75,-25.125,11.4375,-1.285156,-0.2084961,0.2944336,0.3237305,0.006347656,0.01855469
1515,5.125,-27,3.3125,-1.347168,-0.2509766,0.3481445,0.324707,0.004882813,0.01464844
1519,0.625,-25.5625,-1.5,-1.358887,-0.2822266,0.3442383,0.3237305,0.004882813,0.01074219
1523,-6.875,-22.75,-0.6875,-1.37793,-0.3095703,0.2905273,0.324707,0.004882813,0.01074219
1527,-4.1875,-22.75,1.375,-1.424316,-0.3833008,0.2250977,0.3237305,0.004882813,0.0078125
1531,9.6875,-17.5,-3.5,-1.374023,-0.4257813,0.2402344,0.3271484,0.004882813,0.006347656
1535,30.5625,-0.375,-21.4375,-1.273438,-0.4257813,0.2290039,0.324707,0.006347656,0.00390625
1539,44.6875,13.125,-33.4375,-1.315918,-0.3520508,0.1865234,0.324707,0.007324219,0.00390625
1544,33.4375,4,-27.4375,-1.428223,-0.1694336,0.1210938,0.3237305,0.01123047,0.004882813
1548,-1.1875,-25.4375,-9.625,-1.490234,-0.1347656,0.09423828,0.3237305,0.01269531,0.00390625
1552,-24.9375,-44.75,4.9375,-1.289063,-0.2861328,0.1826172,0.324707,0.01367188,0
1556,-24.9375,-37.25,3.3125,-1.165039,-0.4296875,0.1826172,0.324707,0.01367188,-0.002441406
1560,-3.75,-22.5,-2.75,-1.157227,-0.5541992,0.2290039,0.324707,0.01269531,-0.00390625
1564,19.3125,-2.9375,-2.75,-1.20752,-0.4960938,0.2172852,0.3237305,0.01367188,-0.005371094
1568,25.75,4,-1.625,-1.339355,-0.3017578,0.2290039,0.324707,0.01367188,-0.006835938
1572,6.125,-1.6875,2.5625,-1.432129,-0.04150391,0.2558594,0.3237305,0.01513672,-0.006835938
1576,-33.9375,-12.375,6.5,-1.471191,0.01269531,0.2788086,0.3237305,0.01367188,-0.005371094
1580,-61.875,-17,6.6875,-1.432129,-0.1577148,0.2597656,0.3237305,0.01269531,-0.008300781
1584,-59.875,-4.875,-5,-1.300781,-0.3833008,0.3017578,0.324707,0.01123047,-0.009277344
1588,-38.9375,23.25,-17.8125,-1.223145,-0.5229492,0.3330078,0.3237305,0.01269531,-0.00390625
1592,-15.25,55.125,-26.3125,-1.289063,-0.565918,0.3017578,0.324707,0.01367188,-0.002441406
1596,-1.5,72.0625,-30.0625,-1.405273,-0.4765625,0.2441406,0.3237305,0.01611328,0.00390625
1600,-9.125,73.875,-29.4375,-1.498047,-0.340332,0.1557617,0.3198242,0.02001953,0.009277344
1604,-30.6875,60.8125,-25.9375,-1.494141,-0.2939453,0.08642578,0.3198242,0.02246094,0.01611328
1608,-34.0625,61.75,-38.125,-1.273438,-0.4570313,0.1289063,0.3188477,0.02392578,0.02294922
1612,-27.25,75.25,-47.125,-1.211426,-0.5737305,0.09814453,0.3164063,0.03027344,0.02685547
1616,-12.1875,83.5,-50.1875,-1.118652,-0.6860352,0.1171875,0.3154297,0.03271484,0.03759766
1620,5.4375,99.875,-53,-1.044922,-0.7055664,0.1020508,0.3115234,0.03759766,0.04443359
1624,18.75,105.5,-50.3125,-1.099121,-0.7094727,0.03271484,0.3081055,0.04394531,0.05419922
1628,25.25,102.1875,-42.375,-1.11084,-0.6821289,-0.02441406,0.3056641,0.04638672,0.06347656
1632,26.8125,92.5625,-31.1875,-1.157227,-0.6357422,-0.06689453,0.3022461,0.05126953,0.06884766
1636,21.1875,76.4375,-21.4375,-1.149414,-0.484375,-0.1054688,0.2983398,0.05615234,0.07861328
1640,11,66.3125,-19.25,-1.106934,-0.4140625,-0.1435547,0.2939453,0.05761719,0.08251953
1644,8.375,68.1875,-30.9375,-1.025391,-0.453125,-0.1782227,0.2900391,0.06005859,0.08398438
1648,11.1875,72.5625,-38.375,-1.044922,-0.5268555,-0.2089844,0.2890625,0.06494141,0.09228516
1652,17.6875,72.6875,-39.9375,-1.025391,-0.5776367,-0.2631836,0.2841797,0.06738281,0.09765625
1656,27.75,72.1875,-35.4375,-1.067871,-0.6357422,-0.34375,0.2841797,0.07128906,0.1015625
1660,44.875,63.125,-26.3125,-1.060547,-0.6162109,-0.378418,0.2792969,0.07617188,0.1069336
1664,58.125,61.1875,-23.75,-0.9555664,-0.4335938,-0.3823242,0.2749023,0.08007813,0.1113281
1668,60.4375,63.4375,-33.25,-0.9013672,-0.2705078,-0.34375,0.2724609,0.08398438,0.1137695
1673,56.3125,61.5,-39.1875,-0.8857422,-0.2084961,-0.3398438,0.269043,0.08740234,0.1152344
1677,50.75,51,-39.5625,-0.8666992,-0.1269531,-0.3286133,0.2651367,0.09521484,0.1181641
1681,45.5625,34.125,-34.875,-0.8393555,-0.1308594,-0.2978516,0.2626953,0.09863281,0.1191406
1685,46.4375,16.4375,-27.3125,-0.7192383,-0.1191406,-0.2285156,0.2583008,0.1049805,0.1206055
1689,46.6875,5.4375,-18.3125,-0.5874023,-0.1074219,-0.1474609,0.2583008,0.1088867,0.1181641
1693,43.25,1.1875,-13.8125,-0.4365234,-0.006347656,-0.05517578,0.2583008,0.1098633,0.1181641
1697,37.25,2.75,-12.5,-0.3862305,-0.03759766,0.001953125,0.2558594,0.1137695,0.1166992
1701,32.5625,-4.0625,-9,-0.4555664,-0.09179688,0.01708984,0.2543945,0.1162109,0.1137695
1705,31.3125,-21.5625,-6.25,-0.5024414,-0.08398438,-0.03222656,0.2558594,0.1186523,0.1123047
1709,28,-41.125,-6.875,-0.4946289,-0.08007813,-0.005371094,0.2568359,0.1201172,0.1083984
1713,17.6875,-56.3125,-11.125,-0.4750977,-0.08398438,-0.001464844,0.2568359,0.1235352,0.1030273
1717,5.375,-67.875,-11.5,-0.3901367,-0.1420898,0.04443359,0.2583008,0.1225586,0.1000977
1721,-3.6875,-64.5,-8.125,-0.2661133,-0.2202148,0.07910156,0.2602539,0.1235352,0.09326172
1725,-8.75,-47.375,-4.5,-0.2270508,-0.2939453,0.07910156,0.2617188,0.125,0.08789063
1729,-7.0625,-26.6875,-5.3125,-0.2119141,-0.387207,0.04443359,0.2651367,0.125,0.08544922
1733,-1.4375,-2.3125,-6.9375,-0.296875,-0.4375,-0.02832031,0.2641602,0.1235352,0.08544922
1737,-2.0625,6.625,-6.3125,-0.4482422,-0.4375,-0.1166992,0.2651367,0.1225586,0.08544922
1741,-5.25,5.625,-1.8125,-0.5292969,-0.5151367,-0.1552734,0.2641602,0.1235352,0.08691406
1745,-7.125,4.0625,4.625,-0.5332031,-0.519043,-0.1977539,0.2641602,0.125,0.08691406
1749,-7.75,11.625,9.4375,-0.5214844,-0.5776367,-0.2670898,0.2626953,0.1225586,0.08691406
1753,0.875,20.75,12.9375,-0.6650391,-0.6821289,-0.3359375,0.2626953,0.1235352,0.08789063
1757,14.375,15.25,15.6875,-0.7617188,-0.6318359,-0.3398438,0.2641602,0.1225586,0.09228516
1761,17.8125,7,17.4375,-0.7387695,-0.519043,-0.2631836,0.2641602,0.1201172,0.09082031
1765,13.4375,1.8125,20.8125,-0.7231445,-0.4453125,-0.2055664,0.2626953,0.1201172,0.09082031
1769,7.9375,-2,22.875,-0.7036133,-0.4375,-0.1591797,0.2651367,0.1201172,0.08935547
1773,5.75,-0.3125,25.4375,-0.6376953,-0.4067383,-0.09765625,0.2666016,0.1162109,0.09082031
1777,3.8125,5.25,24.1875,-0.6342773,-0.3598633,-0.08203125,0.2666016,0.1162109,0.08935547
1781,0.6875,8.5,23.9375,-0.6533203,-0.324707,-0.08984375,0.2675781,0.1152344,0.08935547
1785,-5.25,4.75,23.375,-0.6806641,-0.2861328,-0.07861328,0.2700195,0.1113281,0.09326172
1789,-12.5,-0.1875,25.8125,-0.6728516,-0.3095703,-0.07470703,0.2700195,0.1098633,0.09082031
1793,-18,-2.3125,30.4375,-0.6264648,-0.2939453,-0.03222656,0.2709961,0.1064453,0.08935547
1797,-25.1875,4.8125,31.125,-0.6030273,-0.3056641,-0.05517578,0.2734375,0.1025391,0.09326172
1802,-24.5,10,31.625,-0.6650391,-0.2939453,-0.08984375,0.2734375,0.1010742,0.09228516
1806,-25.125,10.0625,23.625,-0.6806641,-0.2509766,-0.109375,0.2758789,0.09765625,0.09472656
1810,-26.125,6.625,19.0625,-0.6962891,-0.2626953,-0.128418,0.2749023,0.09375,0.09765625
1814,-26.375,-1.0625,18.3125,-0.6884766,-0.2626953,-0.128418,0.2773438,0.09228516,0.09765625
1818,-24.75,-9.4375,20.75,-0.6728516,-0.2314453,-0.1552734,0.2758789,0.08886719,0.09912109
1822,-25.75,-19.875,22.625,-0.6494141,-0.1733398,-0.1977539,0.2773438,0.08740234,0.09912109
1826,-29,-32.125,24.125,-0.5874023,-0.07617188,-0.1708984,0.2792969,0.08496094,0.09912109
1830,-45.3125,-39.5,13.9375,-0.4985352,0.07080078,-0.1206055,0.2832031,0.08251953,0.09619141
1834,-75.9375,-39.6875,5.625,-0.4790039,-0.06054688,-0.1206055,0.2832031,0.07763672,0.09619141
1838,-88.375,-45.875,16.375,-0.4868164,-0.3520508,-0.1513672,0.2841797,0.07617188,0.09326172
1842,-74.4375,-45.5625,37.25,-0.4248047,-0.5,-0.1860352,0.2866211,0.06982422,0.09472656
1846,-48.625,-30.8125,43.25,-0.4750977,-0.5112305,-0.1552734,0.2900391,0.06396484,0.09228516
1850,-27.875,-21.5,40.0625,-0.6225586,-0.550293,-0.1782227,0.2924805,0.05859375,0.09082031
1854,-13.8125,-19.3125,42.8125,-0.6650391,-0.5229492,-0.1435547,0.2939453,0.05273438,0.09082031
1858,-7.8125,-16.9375,54.3125,-0.6845703,-0.4726563,-0.1435547,0.2949219,0.04980469,0.08691406
1862,2.1875,-16.125,68.0625,-0.78125,-0.4453125,-0.1474609,0.2973633,0.04492188,0.08691406
1866,18,-16.8125,74.125,-0.8896484,-0.3598633,-0.1362305,0.2983398,0.03759766,0.08691406
1870,33.5625,-17.875,63.375,-0.9946289,-0.2587891,-0.1669922,0.3032227,0.03369141,0.08544922
1874,52.3125,-21.5,35.375,-1.087402,-0.1269531,-0.1938477,0.3046875,0.03125,0.08105469
1878,45.0625,-31.125,4.375,-1.118652,0.02832031,-0.08984375,0.3056641,0.03027344,0.07861328
1882,4,-48.625,7.375,-1.168945,-0.01806641,-0.03222656,0.3071289,0.02880859,0.07324219
1886,-41.25,-75.4375,38,-1.242188,-0.2470703,-0.02441406,0.3071289,0.02734375,0.0703125
1890,-50.8125,-91.5,70.75,-1.234863,-0.503418,-0.02832031,0.3115234,0.02148438,0.06201172
1894,-23.125,-93.9375,72.125,-1.285156,-0.519043,0.001953125,0.3164063,0.01269531,0.05419922
1898,8,-81.1875,40.3125,-1.191895,-0.3017578,0.1098633,0.3173828,0.008789063,0.04882813
1902,13.125,-57.25,18.3125,-1.149414,-0.06835938,0.1826172,0.3198242,0.004882813,0.04052734
1906,2.6875,-45,-0.25,-1.277344,-0.02978516,0.1518555,0.3222656,0.00390625,0.03613281
1910,-11.625,-51.5625,-1.75,-1.416992,-0.09960938,0.1210938,0.3222656,0.00390625,0.03222656
1914,-26.375,-67.9375,4.5625,-1.447754,-0.1850586,0.09033203,0.3237305,0.00390625,0.02539063
1918,-36.75,-85.5,9.5625,-1.35498,-0.2587891,0.1098633,0.3237305,0,0.02001953
1922,-39.3125,-94.6875,17.125,-1.211426,-0.3481445,0.125,0.324707,0.001464844,0.01318359
1926,-31.4375,-93.0625,23.0625,-1.099121,-0.4101563,0.1748047,0.3271484,-0.001953125,0.00390625
1931,-12.9375,-83.25,26.0625,-1.025391,-0.4257813,0.2329102,0.3271484,-0.005859375,-0.00390625
1935,11.375,-63,22.125,-1.009766,-0.3442383,0.3017578,0.3305664,-0.006835938,-0.009277344
1939,22.5,-45.8125,13.25,-1.103027,-0.2084961,0.3481445,0.328125,-0.008300781,-0.01367188
1943,13.125,-39.625,12.25,-1.195801,-0.1230469,0.3364258,0.3295898,-0.01074219,-0.01904297
1947,-0.3125,-39.25,19.3125,-1.285156,-0.1616211,0.3212891,0.328125,-0.01074219,-0.02148438
1951,-3.8125,-40.3125,23.5625,-1.335449,-0.2509766,0.3212891,0.3320313,-0.015625,-0.02587891
1955,3.125,-35.75,23.5625,-1.347168,-0.2666016,0.3598633,0.3305664,-0.015625,-0.02978516
1959,7.875,-24.3125,19.5,-1.35498,-0.1967773,0.4287109,0.3305664,-0.01806641,-0.03271484
1963,8.0625,-7.5,9.875,-1.362793,-0.1191406,0.4829102,0.3295898,-0.01953125,-0.03515625
1967,5.125,9.9375,-2.125,-1.362793,-0.06054688,0.5327148,0.3295898,-0.02050781,-0.03369141
1971,-2.875,25.3125,-14.0625,-1.381836,-0.02587891,0.5097656,0.3305664,-0.01953125,-0.03271484
1975,-14.75,35.1875,-20.5,-1.374023,-0.06445313,0.4829102,0.3295898,-0.01806641,-0.02978516
1979,-23.75,40.875,-23.625,-1.389648,-0.1308594,0.4174805,0.3295898,-0.01708984,-0.02587891
1983,-29.5625,41.5,-22.3125,-1.393555,-0.2084961,0.3598633,0.3271484,-0.01464844,-0.02441406
1987,-29.875,44.0625,-20.625,-1.339355,-0.2666016,0.3442383,0.3295898,-0.01074219,-0.01757813
1991,-31.0625,48.6875,-26.25,-1.269531,-0.2431641,0.340332,0.3271484,-0.008300781,-0.01367188
1995,-43.125,56.1875,-31.125,-1.157227,-0.2202148,0.3212891,0.3271484,-0.005859375,-0.008300781
1999,-61.75,70.5,-30.3125,-1.129883,-0.355957,0.2788086,0.3271484,-0.003417969,-0.002441406
2003,-61.125,87.375,-25.5,-1.191895,-0.5854492,0.1826172,0.3261719,-0.0004882813,0.004882813
2007,-42.5625,105.8125,-20.3125,-1.285156,-0.7133789,0.07128906,0.324707,0,0.01318359
2011,-13,117.375,-18.5625,-1.467285,-0.6899414,-0.03613281,0.3237305,0,0.02539063
2015,11.5625,113.0625,-26.75,-1.567871,-0.5151367,-0.0859375,0.3212891,0.004882813,0.03759766
2019,18.75,106,-35.375,-1.529297,-0.3134766,-0.06689453,0.3173828,0.007324219,0.04443359
2023,8,98.25,-45.1875,-1.509766,-0.1381836,-0.08203125,0.3164063,0.01123047,0.05419922
2027,-14.5,83.1875,-53.625,-1.486328,-0.1308594,-0.109375,0.3115234,0.01611328,0.06347656
2031,-29.8125,65.9375,-57.625,-1.447754,-0.2470703,-0.1513672,0.309082,0.02001953,0.06884766
2035,-26.8125,49.5,-62.1875,-1.292969,-0.421875,-0.1474609,0.3071289,0.02636719,0.07568359
2039,-3.25,50.8125,-68.25,-1.087402,-0.5307617,-0.1362305,0.3022461,0.03125,0.08007813
2043,21.6875,59.875,-76.6875,-1.005859,-0.4804688,-0.1630859,0.3022461,0.03515625,0.08398438
2047,36.0625,61.5625,-79.8125,-0.9750977,-0.4067383,-0.1401367,0.2963867,0.04638672,0.08935547
2051,38.875,57.625,-77.1875,-0.9438477,-0.2900391,-0.1630859,0.2915039,0.05273438,0.09472656
2055,34.6875,43.1875,-72.3125,-0.9750977,-0.2587891,-0.1821289,0.2880859,0.06005859,0.09765625
2060,26.625,18.375,-65.5625,-0.9594727,-0.2431641,-0.2285156,0.2880859,0.06738281,0.09765625
2064,19.8125,-1.9375,-55.3125,-0.8432617,-0.324707,-0.2167969,0.2841797,0.07519531,0.09765625
2068,31.8125,-7.8125,-49,-0.6767578,-0.3793945,-0.1899414,0.2832031,0.08007813,0.1000977
2072,49.875,-4.6875,-48.125,-0.5913086,-0.3325195,-0.1323242,0.2783203,0.08496094,0.09619141
2076,57.125,-5.3125,-44.4375,-0.5253906,-0.1655273,-0.09765625,0.2773438,0.08984375,0.09326172
2080,45.75,-11.1875,-33.5,-0.4868164,-0.06054688,-0.1054688,0.2773438,0.09375,0.09228516
2084,27.3125,-21.625,-20.0625,-0.4946289,-0.09179688,-0.1401367,0.2758789,0.1000977,0.08935547
2088,19.6875,-40.3125,-5.625,-0.5102539,-0.1616211,-0.1860352,0.2773438,0.1010742,0.08398438
2092,26.625,-58.0625,4.125,-0.4326172,-0.1772461,-0.109375,0.2783203,0.1025391,0.08007813
2096,33.0625,-65.5,-1.1875,-0.3706055,-0.02197266,-0.04736328,0.2792969,0.1000977,0.07324219
2100,26.8125,-71.625,-10.4375,-0.328125,0.04736328,0.03271484,0.2817383,0.1035156,0.06787109
2104,9.875,-74.125,-16.5625,-0.28125,0.0009765625,0.1098633,0.2832031,0.1049805,0.06201172
2108,-6.9375,-64.5625,-16.6875,-0.1884766,-0.1230469,0.09423828,0.2841797,0.1049805,0.05664063
2112,-7.3125,-44.5625,-22.6875,-0.1923828,-0.3754883,0.06738281,0.2832031,0.1074219,0.04980469
2116,9.125,-27.3125,-28.75,-0.2231445,-0.4882813,0.03271484,0.2841797,0.1074219,0.04980469
2120,17.125,-14.5,-25.9375,-0.296875,-0.519043,0.001953125,0.2841797,0.1113281,0.04589844
2124,16.625,-8.875,-15.5,-0.3706055,-0.534668,-0.05126953,0.2817383,0.1123047,0.04443359
2128,16.4375,-5.4375,-4.4375,-0.4555664,-0.550293,-0.05908203,0.2817383,0.1152344,0.04296875
2132,15,-5.875,1.3125,-0.5214844,-0.5229492,-0.05517578,0.2832031,0.1152344,0.04052734
2136,11.4375,-7.25,2.8125,-0.5605469,-0.4804688,-0.05126953,0.2841797,0.1162109,0.04052734
2140,5.0625,-8.5625,1.6875,-0.5756836,-0.4648438,-0.02441406,0.2832031,0.1152344,0.03759766
2144,-0.125,-3.125,4.0625,-0.5756836,-0.534668,-0.06298828,0.2841797,0.1162109,0.03759766
2148,6.1875,3.75,6.9375,-0.6728516,-0.6552734,-0.0859375,0.2841797,0.1176758,0.03759766
2152,14.8125,2.4375,7.625,-0.7270508,-0.5966797,-0.0859375,0.2841797,0.1162109,0.0390625
2156,12.25,-3.1875,10.75,-0.7504883,-0.5268555,-0.05126953,0.2832031,0.1123047,0.0390625
2160,3.125,-9.6875,17.5625,-0.7504883,-0.484375,-0.009277344,0.2841797,0.1137695,0.03613281
2164,1.125,-11.8125,18.9375,-0.7270508,-0.5151367,0.009765625,0.2856445,0.1123047,0.03613281
2168,4.9375,-9.25,16.25,-0.7114258,-0.519043,0.04052734,0.2856445,0.1113281,0.03369141
2172,9.1875,-5.4375,18.9375,-0.699707,-0.4882813,0.07910156,0.2866211,0.1088867,0.03515625
2176,8.8125,-2.9375,19.4375,-0.6962891,-0.3989258,0.09033203,0.2890625,0.1088867,0.03222656
2180,2.625,-5.625,21.1875,-0.6923828,-0.324707,0.1132813,0.2880859,0.1074219,0.03222656
2184,-2.8125,-11.5,21.75,-0.6376953,-0.2509766,0.1098633,0.2915039,0.1035156,0.03369141
2189,-11.8125,-22.5,21.75,-0.6108398,-0.1577148,0.09423828,0.2924805,0.1035156,0.02978516
2193,-29,-37.0625,21.1875,-0.5795898,-0.1230469,0.04785156,0.2949219,0.1000977,0.03076172
2197,-41.6875,-49.625,19.25,-0.5449219,-0.2548828,0.01367188,0.2949219,0.09863281,0.02685547
2201,-35.9375,-54.75,17.125,-0.4750977,-0.4375,0.01708984,0.2963867,0.09521484,0.02685547
2205,-16.4375,-48.6875,20.4375,-0.4287109,-0.5268555,0.03662109,0.2963867,0.09228516,0.02148438
2209,9.8125,-32.3125,16.1875,-0.3706055,-0.4492188,0.1020508,0.2973633,0.08984375,0.01611328
2213,22.125,-8,14.6875,-0.3935547,-0.2548828,0.1098633,0.2973633,0.08984375,0.01464844
2217,6.25,6.1875,19,-0.5332031,-0.09570313,0.05566406,0.3007813,0.08886719,0.01318359
2221,-16.5,0.125,29.125,-0.6767578,-0.1577148,-0.01318359,0.3007813,0.08886719,0.01464844
2225,-28.5,-13.6875,36.4375,-0.7348633,-0.2783203,-0.04003906,0.3022461,0.08642578,0.01464844
2229,-29.0625,-26.5625,38.6875,-0.6845703,-0.355957,0.02099609,0.3046875,0.08007813,0.01611328
2233,-27,-22.3125,45.1875,-0.5683594,-0.3911133,0.1020508,0.3056641,0.07617188,0.01318359
2237,-21.875,-2.8125,48.5625,-0.5566406,-0.4257813,0.1132813,0.3056641,0.07275391,0.01171875
2241,-11.4375,16.1875,52.375,-0.6416016,-0.4375,0.09814453,0.3071289,0.06738281,0.01464844
2245,-0.125,25.3125,48.1875,-0.7578125,-0.4375,0.05566406,0.309082,0.06396484,0.01611328
2249,14.125,24.9375,43.75,-0.8393555,-0.3793945,0.02880859,0.3115234,0.05859375,0.01611328
2253,22.0625,18.875,36.8125,-0.878418,-0.2939453,0.009765625,0.3129883,0.05615234,0.01855469
2257,16.875,6.9375,28.75,-0.9672852,-0.2006836,-0.005371094,0.3115234,0.05273438,0.02001953
2261,-0.1875,-13.375,27.1875,-0.9477539,-0.2509766,0.009765625,0.3154297,0.04980469,0.02148438
2265,-12.6875,-29.0625,36.1875,-0.8432617,-0.355957,0.06347656,0.3164063,0.04736328,0.01708984
2269,-9.9375,-32.6875,48.375,-0.78125,-0.4960938,0.06347656,0.3164063,0.04248047,0.01611328
2273,10.625,-33.625,59,-0.7734375,-0.4375,0.06738281,0.3173828,0.03857422,0.01318359
2277,38.375,-24.4375,46.4375,-0.8510742,-0.2900391,0.07910156,0.3188477,0.03271484,0.009277344
2281,50.375,-20.375,19.625,-0.9633789,-0.1269531,0.1098633,0.3212891,0.03027344,0.00390625
2285,34,-26.1875,9.0625,-1.013672,-0.07226563,0.1748047,0.3222656,0.02880859,0.00390625
2289,8.375,-36.3125,21.9375,-1.063965,-0.2163086,0.1904297,0.3222656,0.02636719,0.0009765625
2293,4.875,-42.875,39,-1.106934,-0.3754883,0.2133789,0.3222656,0.02490234,-0.002441406
2297,22.5,-45.1875,46,-1.20752,-0.387207,0.2172852,0.3222656,0.02001953,-0.006835938
2301,41.6875,-47.1875,33.875,-1.296875,-0.2509766,0.2250977,0.324707,0.01611328,-0.01220703
2305,44.625,-45.3125,13.5,-1.273438,-0.09960938,0.3291016,0.3237305,0.01513672,-0.01904297
2309,25.1875,-40.125,-0.375,-1.285156,-0.01806641,0.3637695,0.3261719,0.01513672,-0.02050781
2313,-4.75,-49.8125,-0.875,-1.420898,-0.08789063,0.3442383,0.3237305,0.01269531,-0.02587891
2318,-28.4375,-72.25,12.6875,-1.45166,-0.2548828,0.3330078,0.3261719,0.01367188,-0.03271484
2322,-36.75,-85.5,24.5625,-1.393555,-0.421875,0.3173828,0.3271484,0.01123047,-0.03808594
2326,-22.3125,-88.1875,28.8125,-1.308105,-0.5581055,0.3520508,0.3261719,0.007324219,-0.04492188
2330,1.0625,-74.0625,25.0625,-1.172852,-0.4921875,0.3979492,0.3271484,0.004882813,-0.05175781
2334,14.4375,-54.0625,14.3125,-1.15332,-0.3520508,0.4326172,0.3261719,0.00390625,-0.05859375
2338,17.125,-40.625,6.125,-1.180664,-0.2163086,0.4672852,0.3261719,0.002441406,-0.06103516
2342,3.5,-37.1875,-1.9375,-1.219238,-0.1347656,0.4404297,0.3261719,0.002441406,-0.06787109
2346,-13.75,-41.75,0.5625,-1.23877,-0.2587891,0.4599609,0.324707,0.001464844,-0.06787109
2350,-19.875,-43.875,10.8125,-1.184082,-0.4140625,0.4868164,0.3237305,0.002441406,-0.07324219
2354,-8,-38.75,19.9375,-1.157227,-0.5620117,0.5288086,0.3237305,-0.0004882813,-0.07861328
2358,17.375,-22.875,20.875,-1.025391,-0.4492188,0.6518555,0.3222656,-0.0004882813,-0.08007813
2362,28.4375,6.875,7.125,-0.9868164,-0.1928711,0.7446289,0.3222656,-0.001953125,-0.08007813
2366,18.6875,32.8125,-6.125,-1.071777,-0.09179688,0.7944336,0.3261719,-0.001953125,-0.08007813
2370,4.4375,46.3125,-8.125,-1.203613,-0.1035156,0.7714844,0.3237305,-0.001953125,-0.07861328
2374,-10.625,49.125,-7.5625,-1.292969,-0.1152344,0.7329102,0.3237305,-0.003417969,-0.07324219
2378,-23.0625,48.4375,-5.25,-1.315918,-0.1655273,0.6943359,0.324707,-0.0004882813,-0.06640625
2382,-28.8125,48.625,-5.3125,-1.223145,-0.2124023,0.659668,0.324707,0,-0.06396484
2386,-24.1875,63.5625,-10.625,-1.07959,-0.2666016,0.6635742,0.3261719,0.001464844,-0.05957031
2390,-14.8125,87.75,-17.3125,-1.048828,-0.2783203,0.6635742,0.3271484,0.00390625,-0.05029297
2394,-9.6875,116.5625,-28.375,-1.187988,-0.2045898,0.5830078,0.3271484,0.00390625,-0.04492188
2398,-11.6875,129.875,-39.375,-1.424316,-0.1655273,0.4750977,0.3271484,0.006347656,-0.03125
2402,-24.5625,126.5,-44.625,-1.606445,-0.1152344,0.3442383,0.3271484,0.01269531,-0.01757813
2406,-39.5625,111.625,-49.8125,-1.687988,-0.1035156,0.1748047,0.324707,0.01367188,-0.008300781
2410,-53.875,86.8125,-58.25,-1.727051,-0.1269531,0.04785156,0.324707,0.02246094,0.002441406
2414,-68.9375,55,-57.875,-1.606445,-0.1811523,0.009765625,0.3222656,0.02880859,0.01171875
2418,-76.8125,37.125,-58.375,-1.335449,-0.2822266,0.04785156,0.3188477,0.03125,0.01611328
2422,-71.75,40.625,-66.5,-1.087402,-0.3911133,0.04052734,0.3164063,0.03515625,0.02294922
2426,-54.4375,56,-80.875,-0.9516602,-0.4960938,0.05957031,0.3154297,0.04394531,0.02685547
2430,-37.8125,74.25,-95.875,-0.9091797,-0.550293,0.009765625,0.3115234,0.04736328,0.03222656
2434,-22.5625,82.25,-99.0625,-0.9169922,-0.6005859,-0.06298828,0.3081055,0.05615234,0.04199219
2438,-12.9375,80.25,-96.6875,-0.9438477,-0.6162109,-0.1245117,0.3007813,0.06640625,0.05126953
2442,-8.3125,67.3125,-89.0625,-0.9477539,-0.5893555,-0.1474609,0.2998047,0.07275391,0.05810547
2447,-6.8125,50.3125,-77.8125,-0.9091797,-0.5927734,-0.1669922,0.2939453,0.08105469,0.06347656
2451,1.75,36.375,-70.125,-0.7504883,-0.6083984,-0.1245117,0.2900391,0.08984375,0.07177734
2455,25.375,39.625,-71,-0.6342773,-0.6357422,-0.128418,0.2866211,0.09375,0.06884766
2459,52.125,40.625,-77.75,-0.5913086,-0.534668,-0.1245117,0.2817383,0.1010742,0.07177734
2463,60.3125,36.3125,-82.375,-0.5488281,-0.3481445,-0.09375,0.2758789,0.1098633,0.07324219
2467,43.8125,27.4375,-74.5,-0.4829102,-0.2587891,-0.08984375,0.2734375,0.1162109,0.07177734
2471,32.8125,7.0625,-60.625,-0.5024414,-0.3833008,-0.1054688,0.269043,0.1235352,0.07421875
2475,37.6875,-18.8125,-46.8125,-0.3823242,-0.421875,-0.1166992,0.2666016,0.1298828,0.07177734
2479,42.4375,-32.4375,-33.875,-0.2080078,-0.421875,-0.07080078,0.2651367,0.1337891,0.06787109
2483,48.8125,-28,-24.25,-0.05664063,-0.4179688,0.02490234,0.2626953,0.1376953,0.06201172
2487,55.4375,-19.4375,-12.5,-0.02197266,-0.3637695,0.07519531,0.2626953,0.1401367,0.05810547
2491,57.625,-9.625,0.9375,-0.02978516,-0.3173828,0.1367188,0.2626953,0.1401367,0.05517578
2495,59.125,2.625,9.875,-0.06445313,-0.2202148,0.1635742,0.2641602,0.1450195,0.05273438
2499,47.5625,15.5625,8.625,-0.1728516,-0.1269531,0.1171875,0.2641602,0.1435547,0.04882813
2503,32.4375,21.5625,6.3125,-0.2700195,-0.1616211,0.05957031,0.2666016,0.1435547,0.04443359
2507,19.8125,27.5,7.9375,-0.362793,-0.3056641,-0.01318359,0.2641602,0.1425781,0.04736328
2511,19.875,28,11.4375,-0.4790039,-0.387207,-0.06689453,0.2641602,0.1435547,0.04736328
2515,17.6875,27.25,10,-0.5332031,-0.355957,-0.0859375,0.2641602,0.1425781,0.04980469
2519,9,25.8125,7.625,-0.6186523,-0.3598633,-0.1435547,0.2641602,0.1425781,0.05126953
2523,0.9375,17.8125,5.4375,-0.7504883,-0.4375,-0.2285156,0.2641602,0.1425781,0.05273438
2527,-1.9375,1.6875,5.9375,-0.78125,-0.503418,-0.2128906,0.2641602,0.1411133,0.05273438
2531,-5.75,-8.3125,9.4375,-0.7270508,-0.4921875,-0.1708984,0.2651367,0.1411133,0.05273438
2535,-11.625,-15.25,9.4375,-0.7270508,-0.4882813,-0.1630859,0.2641602,0.1386719,0.05273438
2539,-15.5625,-19,11.125,-0.7075195,-0.5893555,-0.1474609,0.2666016,0.1386719,0.05273438
2543,-9.5,-20.5,17.4375,-0.6611328,-0.6552734,-0.1206055,0.2666016,0.1376953,0.04980469
2547,-0.625,-15.6875,21.75,-0.5683594,-0.6083984,-0.07080078,0.269043,0.1347656,0.05126953
2551,6.625,-6.375,25.1875,-0.5683594,-0.5620117,-0.05908203,0.2709961,0.1347656,0.04980469
2555,9.25,-1.125,27.375,-0.5952148,-0.4960938,-0.04736328,0.2709961,0.1323242,0.04882813
2559,5.1875,2.125,28.125,-0.6108398,-0.4492188,-0.04394531,0.2734375,0.1298828,0.04882813
2563,2.5,0.0625,31.8125,-0.6455078,-0.4570313,-0.07080078,0.2749023,0.1274414,0.04736328
2567,1.875,-8.8125,34.625,-0.6186523,-0.3793945,-0.09375,0.2758789,0.1274414,0.04980469
2571,-2.875,-20.8125,41.3125,-0.5527344,-0.3056641,-0.07470703,0.2773438,0.1201172,0.04589844
2576,-9.875,-32,47.9375,-0.4594727,-0.2431641,-0.06689453,0.2792969,0.1201172,0.04296875
2580,-19.125,-38.125,55.75,-0.378418,-0.1850586,-0.01318359,0.2817383,0.1137695,0.04199219
2584,-33.3125,-27.9375,55.0625,-0.2700195,-0.1538086,0.06347656,0.2866211,0.1074219,0.0390625
2588,-37.5625,-6.9375,51.6875,-0.328125,-0.3017578,0.02490234,0.2880859,0.1064453,0.04052734
2592,-20.75,1.4375,46.125,-0.4482422,-0.3598633,-0.04736328,0.2900391,0.09863281,0.04052734
2596,-8.1875,-0.5625,40.0625,-0.4907227,-0.2705078,-0.0859375,0.2939453,0.09228516,0.04199219
2600,-9.25,-2.3125,42.25,-0.4594727,-0.2900391,-0.05126953,0.2949219,0.09130859,0.04199219
2604,-11.25,-2.75,54.875,-0.4868164,-0.3364258,-0.02050781,0.2949219,0.08642578,0.04052734
2608,-7.625,0.875,64.125,-0.5332031,-0.3520508,-0.01660156,0.2998047,0.08105469,0.04052734
2612,-2.3125,6.1875,62.6875,-0.6264648,-0.3173828,-0.01660156,0.2998047,0.07617188,0.04052734
2616,-1,1.4375,57.9375,-0.7036133,-0.2978516,-0.05126953,0.3046875,0.06884766,0.04296875
2620,-4.4375,-8.9375,62.5,-0.6611328,-0.3095703,-0.06689453,0.3032227,0.06396484,0.04296875
2624,-7.875,-14.625,74.25,-0.6225586,-0.3095703,-0.05517578,0.3071289,0.06005859,0.04199219
2628,-8.625,-12.75,83.1875,-0.6962891,-0.3676758,0.04785156,0.309082,0.04980469,0.04199219
2632,10.5625,0.9375,78.9375,-0.796875,-0.421875,0.08642578,0.3115234,0.04394531,0.0390625
2636,42.5,14.9375,54.5625,-0.9672852,-0.3598633,0.08251953,0.3139648,0.03759766,0.03759766
2640,57.6875,18.5625,30.0625,-1.083496,-0.1694336,0.04785156,0.3154297,0.03369141,0.0390625
2644,46.5,10.375,21.25,-1.187988,-0.07617188,0.06738281,0.3164063,0.03369141,0.04052734
2648,24.375,-5.125,24.25,-1.277344,-0.1035156,0.07519531,0.3139648,0.03369141,0.0390625
2652,2.9375,-28.5625,31.4375,-1.370117,-0.1538086,0.09033203,0.3154297,0.03027344,0.03613281
2656,-14.8125,-45.4375,37.8125,-1.308105,-0.2626953,0.1289063,0.3198242,0.02734375,0.03515625
2660,-14.375,-49.875,37.1875,-1.28125,-0.3911133,0.1713867,0.3198242,0.02148438,0.03076172
2664,-0.5625,-44.5625,31.5,-1.257813,-0.4375,0.2250977,0.3188477,0.01757813,0.02832031
2668,9.125,-37.5625,29.8125,-1.292969,-0.340332,0.2250977,0.3222656,0.01611328,0.02148438
2672,13.9375,-34.8125,27.625,-1.351074,-0.2241211,0.2060547,0.3237305,0.01367188,0.02148438
2676,5.1875,-38.875,13.9375,-1.413086,-0.06054688,0.1904297,0.324707,0.01123047,0.01611328
2680,-21.3125,-54.6875,7.875,-1.351074,-0.07226563,0.1787109,0.3237305,0.01025391,0.01171875
2684,-45.875,-68.6875,13.8125,-1.242188,-0.2431641,0.1748047,0.324707,0.008789063,0.006347656
2688,-45.625,-70.125,23.875,-1.145508,-0.4765625,0.1787109,0.324707,0.006347656,0.002441406
2692,-19.6875,-58.8125,25.9375,-1.099121,-0.5424805,0.2060547,0.3261719,0.002441406,-0.005371094
2696,7.4375,-39.375,16.375,-1.07959,-0.3754883,0.2402344,0.3271484,0.001464844,-0.006835938
2700,18.9375,-24.25,2.6875,-1.133789,-0.2163086,0.2402344,0.328125,-0.001953125,-0.01074219
2705,12.3125,-24.375,-3.125,-1.211426,-0.09570313,0.2211914,0.328125,0,-0.01367188
2709,-6.8125,-32.9375,0.125,-1.246094,-0.09960938,0.2060547,0.328125,0,-0.01611328
2713,-21.125,-41.5,6.5,-1.265625,-0.2006836,0.1982422,0.3271484,0,-0.02050781
2717,-22.375,-46.25,9.875,-1.227051,-0.2978516,0.2211914,0.3271484,-0.0004882813,-0.02441406
2721,-13.3125,-41.1875,8.875,-1.118652,-0.3989258,0.2636719,0.3295898,0,-0.02734375
2725,1.625,-30.3125,12.5625,-1.095215,-0.421875,0.2827148,0.328125,-0.003417969,-0.02978516
2729,16.5,-18.6875,14,-1.060547,-0.3173828,0.3291016,0.3305664,-0.006835938,-0.03369141
2733,18.125,-5.6875,9.375,-1.037109,-0.1308594,0.3481445,0.328125,-0.005859375,-0.03515625
2737,5.9375,0.5625,6.125,-1.091309,-0.05273438,0.3481445,0.3295898,-0.006835938,-0.03515625
2741,-5.9375,-2.6875,6.25,-1.141602,-0.1381836,0.2983398,0.328125,-0.006835938,-0.03515625
2745,-5.6875,-7.1875,9.1875,-1.118652,-0.2314453,0.2983398,0.3295898,-0.008300781,-0.03515625
2749,1.25,-8.3125,12.125,-1.063965,-0.2392578,0.3291016,0.3295898,-0.006835938,-0.03515625
2753,10,-1.875,10.0625,-0.9711914,-0.1928711,0.4018555,0.328125,-0.009277344,-0.03808594
2757,13.375,11.9375,4.625,-0.9438477,-0.09570313,0.4443359,0.3305664,-0.008300781,-0.03662109
2761,7.625,19.875,-2.125,-0.9868164,-0.02197266,0.4443359,0.3305664,-0.01171875,-0.03369141
2765,-4.4375,20.5625,-1.1875,-1.041016,-0.04541016,0.4213867,0.328125,-0.01074219,-0.03369141
2769,-11.375,21.8125,0.0625,-1.037109,-0.1269531,0.4018555,0.3295898,-0.009277344,-0.03271484
2773,-8.4375,27.0625,-0.4375,-1.060547,-0.2275391,0.3945313,0.3305664,-0.01074219,-0.03125
2777,1.625,41.1875,1.625,-1.129883,-0.3056641,0.4287109,0.3295898,-0.01074219,-0.02587891
2781,12.25,61.375,-1.25,-1.315918,-0.2744141,0.4633789,0.3295898,-0.01171875,-0.02441406
2785,12.1875,79.4375,-8.0625,-1.517578,-0.1420898,0.4868164,0.3295898,-0.009277344,-0.01464844
2789,0.1875,85.875,-26.8125,-1.703613,0.0009765625,0.409668,0.328125,-0.008300781,-0.008300781
2793,-28.5,70.9375,-38.875,-1.831543,0.07470703,0.2866211,0.3295898,-0.006835938,-0.001464844
2797,-62,41.1875,-40.625,-1.804199,-0.02978516,0.1943359,0.328125,-0.001953125,0.006347656
2801,-79.5,23.1875,-37.375,-1.591309,-0.2470703,0.1635742,0.3261719,0.002441406,0.01074219
2805,-74.1875,23.375,-41.75,-1.443848,-0.4335938,0.1635742,0.324707,0.00390625,0.01171875
2809,-57.5625,33.1875,-47.125,-1.37793,-0.5463867,0.1518555,0.3237305,0.007324219,0.01611328
2813,-33.875,43.75,-47.9375,-1.312012,-0.6044922,0.1479492,0.3222656,0.01269531,0.02148438
2817,-8.6875,59.1875,-56,-1.219238,-0.4257813,0.1635742,0.3198242,0.01611328,0.02392578
2821,-4.6875,69.25,-67.3125,-1.25,-0.2548828,0.1367188,0.3173828,0.02148438,0.03076172
2825,-17.0625,61.375,-71.25,-1.273438,-0.2124023,0.125,0.3164063,0.02734375,0.03759766
2829,-29.4375,50.375,-69.75,-1.176758,-0.2783203,0.07910156,0.3154297,0.03369141,0.04199219
2834,-32.9375,47,-70.5,-1.056641,-0.4101563,0.001953125,0.3105469,0.04150391,0.04736328
2838,-23.4375,46.8125,-73.4375,-1.021484,-0.5581055,-0.07080078,0.3071289,0.04882813,0.05419922
2842,1.75,46.0625,-73.125,-0.9399414,-0.7524414,-0.0859375,0.3056641,0.05126953,0.05664063
2846,27.6875,44.5625,-66.6875,-0.8393555,-0.6240234,-0.1166992,0.3022461,0.05761719,0.06103516
2850,35.9375,39.375,-59.375,-0.7695313,-0.371582,-0.128418,0.2998047,0.06640625,0.06494141
2854,22.375,31.75,-61,-0.6416016,-0.1152344,-0.1166992,0.2963867,0.06982422,0.06640625
2858,-0.75,26.875,-66.4375,-0.5756836,-0.1191406,-0.1362305,0.2924805,0.07763672,0.06640625
2862,-10.375,12.625,-68.625,-0.5756836,-0.3598633,-0.2324219,0.2900391,0.08496094,0.06884766
2866,13.375,-7.3125,-61.3125,-0.5683594,-0.6318359,-0.2592773,0.2866211,0.08642578,0.07324219
2870,47.625,-29.9375,-46.875,-0.4555664,-0.5581055,-0.2246094,0.2841797,0.09521484,0.06884766
2874,63.25,-44.3125,-37.0625,-0.2929688,-0.2978516,-0.1166992,0.2841797,0.09863281,0.06201172
2878,57.5625,-50.5625,-28.125,-0.1962891,-0.1113281,-0.09765625,0.2856445,0.1025391,0.05957031
2882,44.0625,-59.125,-24.6875,-0.1533203,-0.02197266,-0.005371094,0.2832031,0.1064453,0.04980469
2886,34.5625,-58.875,-24.9375,-0.08789063,-0.08007813,0.04785156,0.2832031,0.1088867,0.04589844
2890,32.9375,-47.5,-22.875,-0.05273438,-0.2275391,0.06738281,0.2856445,0.1113281,0.03759766
2894,40.75,-29.3125,-19.8125,-0.09521484,-0.3520508,0.05957031,0.2841797,0.1152344,0.03369141
2898,44.875,-19.4375,-9.5625,-0.1962891,-0.3173828,0.02099609,0.2856445,0.1162109,0.03076172
2902,36.0625,-15.5,2.25,-0.2661133,-0.2587891,0.02880859,0.2856445,0.1176758,0.02685547
2906,25.125,-11.3125,9.0625,-0.3007813,-0.2470703,0.03271484,0.2856445,0.1162109,0.02539063
2910,15.25,-2.125,13.625,-0.3666992,-0.2822266,-0.001464844,0.2856445,0.1186523,0.02148438
2914,10.625,6.4375,14,-0.4985352,-0.3637695,-0.05908203,0.2866211,0.1176758,0.02148438
2918,13.625,9.25,11.25,-0.6108398,-0.4414063,-0.08984375,0.2866211,0.1162109,0.02392578
2922,15.875,7.125,13,-0.6416016,-0.402832,-0.05517578,0.2866211,0.1152344,0.02294922
2926,6.0625,9.4375,16.25,-0.6572266,-0.3364258,-0.0859375,0.2880859,0.1137695,0.02294922
2930,-3.25,8.3125,14.9375,-0.7890625,-0.4375,-0.1630859,0.2880859,0.1123047,0.02148438
2934,0.875,-0.9375,13.0625,-0.8745117,-0.5620117,-0.128418,0.2890625,0.1123047,0.02148438
2938,10.3125,-8.0625,14.4375,-0.8393555,-0.5268555,-0.06689453,0.2890625,0.1113281,0.02148438
2942,9.75,-12.6875,17.4375,-0.796875,-0.4140625,0.001953125,0.2890625,0.1088867,0.02148438
2946,2.8125,-16.1875,19.4375,-0.765625,-0.3637695,0.03271484,0.2900391,0.1074219,0.02001953
2950,-4.3125,-17.1875,19.625,-0.7543945,-0.4101563,0.04443359,0.2924805,0.1049805,0.01855469
2954,-2.75,-17.0625,22.5625,-0.7231445,-0.4882813,0.08251953,0.2949219,0.1049805,0.01708984
2958,3.3125,-14.625,26.3125,-0.6845703,-0.484375,0.105957,0.2939453,0.1025391,0.01611328
2963,9.0625,-14.5,31.375,-0.6533203,-0.4101563,0.1328125,0.2949219,0.1000977,0.01611328
2967,7.625,-18.5,37.5625,-0.5913086,-0.2626953,0.1713867,0.2983398,0.09619141,0.01171875
2971,-3.8125,-27.0625,44.5625,-0.5410156,-0.1152344,0.1748047,0.3007813,0.09521484,0.009277344
2975,-22.3125,-42.8125,50.3125,-0.4594727,-0.006347656,0.1479492,0.3032227,0.09130859,0.0078125
2979,-44.8125,-49.8125,52.75,-0.3007813,0.08642578,0.140625,0.3046875,0.08398438,0.004882813
2983,-57.25,-47.375,51.0625,-0.2426758,-0.01416016,0.1132813,0.3071289,0.07763672,0.0009765625
2987,-57.9375,-26.25,43.9375,-0.1884766,-0.1538086,0.1132813,0.3081055,0.07519531,0.002441406
2991,-47.8125,4.375,39.1875,-0.3354492,-0.2548828,-0.05126953,0.3105469,0.06982422,0.004882813
2995,-20.125,14.4375,24.9375,-0.5874023,-0.3793945,-0.1206055,0.3115234,0.06640625,0.004882813
2999,-5.125,5.625,22.875,-0.730957,-0.3676758,-0.1708984,0.3129883,0.06640625,0.004882813
3003,-1.8125,-15.875,43.25,-0.6845703,-0.371582,-0.08984375,0.3129883,0.06103516,0.004882813
3007,-0.4375,-26.0625,68.4375,-0.6108398,-0.3208008,-0.005371094,0.3139648,0.05615234,0.004882813
3011,3.5625,-20.0625,79.0625,-0.5644531,-0.1850586,0.09033203,0.3139648,0.05126953,0.00390625
3015,9.6875,-1.5625,59.8125,-0.5795898,-0.1113281,0.1518555,0.3188477,0.04394531,-0.001464844
3019,18.25,23.9375,32.0625,-0.6225586,-0.2084961,0.1713867,0.3198242,0.03759766,0.0009765625
3023,32.3125,43.875,18.875,-0.730957,-0.3208008,0.1635742,0.3212891,0.03369141,0.002441406
3027,43.25,46.0625,27.6875,-0.9287109,-0.2939453,0.125,0.3222656,0.03369141,0.00390625
3031,39.625,33.625,38.4375,-1.095215,-0.2124023,0.1098633,0.3198242,0.03125,0.009277344
3035,31.75,13.6875,40,-1.133789,-0.1152344,0.1171875,0.3212891,0.03027344,0.009277344
3039,22.1875,2.75,21.75,-1.11084,-0.06445313,0.140625,0.3222656,0.02636719,0.01074219
3043,1.0625,-8.6875,10.125,-1.125977,-0.1381836,0.2021484,0.3222656,0.02392578,0.01074219
3047,-13.1875,-18.1875,20.5625,-1.083496,-0.371582,0.2402344,0.3212891,0.02246094,0.0078125
3051,-2.5625,-17.4375,34.1875,-1.083496,-0.5073242,0.2709961,0.3237305,0.01855469,0.006347656
3055,17.75,-13.9375,39.0625,-1.165039,-0.4179688,0.3095703,0.324707,0.01611328,0.004882813
3059,25.25,-11.25,30.3125,-1.219238,-0.2509766,0.3212891,0.324707,0.01367188,0.006347656
3063,18.375,-13.6875,19.375,-1.265625,-0.1694336,0.3520508,0.3237305,0.01123047,0.0009765625
3067,-0.375,-19,16.25,-1.203613,-0.1616211,0.3598633,0.324707,0.008789063,0.002441406
3071,-12.8125,-21,25.125,-1.211426,-0.2861328,0.3520508,0.3261719,0.01025391,-0.001464844
3075,-7,-17.3125,27.625,-1.246094,-0.3676758,0.2905273,0.324707,0.004882813,-0.00390625
3079,7.9375,-11.8125,24,-1.331543,-0.3520508,0.3056641,0.3261719,0.001464844,-0.00390625
3083,9.3125,-9.3125,10.8125,-1.366211,-0.2314453,0.2866211,0.328125,0,-0.005371094
3087,-3.25,-14.125,8.0625,-1.366211,-0.2045898,0.2636719,0.3271484,0,-0.00390625
3092,-19.0625,-24.25,15.875,-1.315918,-0.2666016,0.2329102,0.3271484,-0.001953125,-0.006835938
3096,-22.625,-26.5625,24.1875,-1.273438,-0.3095703,0.2060547,0.3271484,-0.001953125,-0.009277344
3100,-19,-26.6875,22.9375,-1.269531,-0.3095703,0.1748047,0.3295898,-0.005859375,-0.01074219
3104,-10.1875,-25.5,12.8125,-1.242188,-0.2861328,0.1713867,0.3261719,-0.006835938,-0.01464844
3108,-5.0625,-21.0625,3.75,-1.20752,-0.2744141,0.1787109,0.3295898,-0.008300781,-0.01464844
3112,-9,-24.9375,1.3125,-1.211426,-0.2314453,0.1982422,0.3305664,-0.006835938,-0.01757813
3116,-18.875,-27.4375,7.9375,-1.125977,-0.2202148,0.2402344,0.3295898,-0.008300781,-0.02148438
3120,-23.125,-23.5,12.875,-1.141602,-0.2626953,0.2329102,0.3295898,-0.01074219,-0.02148438
3124,-19.625,-24.8125,14.9375,-1.165039,-0.2470703,0.2402344,0.3295898,-0.01074219,-0.02294922
3128,-15.25,-20.125,13.75,-1.099121,-0.2470703,0.2597656,0.3295898,-0.01318359,-0.02587891
3132,-3.5625,-6.6875,4.0625,-1.067871,-0.2241211,0.2749023,0.3305664,-0.01464844,-0.02441406
3136,3.0625,6.3125,-5.8125,-1.095215,-0.1538086,0.2944336,0.3305664,-0.015625,-0.02832031
3140,-1.5625,14.375,-10.3125,-1.145508,-0.1381836,0.3095703,0.3295898,-0.01318359,-0.02734375
3144,-9.0625,14.875,-8.4375,-1.219238,-0.1577148,0.2944336,0.3305664,-0.01171875,-0.02441406
3148,-14.6875,12.3125,-3.875,-1.246094,-0.1811523,0.2905273,0.3295898,-0.01171875,-0.02587891
3152,-18.3125,13.0625,-2.1875,-1.23877,-0.1811523,0.3095703,0.328125,-0.009277344,-0.02050781
3156,-16.75,20.0625,-2.6875,-1.25,-0.2202148,0.3134766,0.3295898,-0.01318359,-0.02050781
3160,-5.125,34.5625,-10.9375,-1.242188,-0.2124023,0.3637695,0.328125,-0.008300781,-0.01757813
3164,5.75,56.25,-28.0625,-1.23877,-0.1347656,0.3671875,0.3295898,-0.008300781,-0.01367188
3168,4,72.6875,-45.875,-1.339355,-0.06445313,0.3173828,0.3305664,-0.005859375,-0.008300781
3172,-14.3125,65.375,-47.75,-1.475098,-0.06054688,0.2094727,0.3271484,-0.003417969,-0.001464844
3176,-37.8125,46.4375,-41.6875,-1.505859,-0.1420898,0.1367188,0.3271484,0.002441406,0.00390625
3180,-49.75,31.75,-36.125,-1.521484,-0.2822266,0.09033203,0.3261719,0.006347656,0.006347656
3184,-51.0625,19.6875,-33.9375,-1.498047,-0.3793945,0.07128906,0.3237305,0.008789063,0.01074219
3188,-44.6875,18.375,-39.5625,-1.401367,-0.4179688,0.09814453,0.3237305,0.01367188,0.01464844
3192,-44.125,28.0625,-53.5625,-1.32373,-0.3793945,0.1171875,0.3212891,0.01513672,0.01611328
3196,-47.125,31.625,-58.9375,-1.319824,-0.4296875,0.1904297,0.3212891,0.01855469,0.02001953
3200,-48.5,35.1875,-59.1875,-1.253906,-0.4765625,0.1943359,0.3212891,0.02636719,0.02392578
3204,-44.0625,41.5625,-58.1875,-1.199707,-0.5541992,0.2290039,0.3173828,0.02880859,0.02978516
3208,-30.3125,53.75,-62,-1.103027,-0.6005859,0.1865234,0.3129883,0.03613281,0.03369141
3212,-13.8125,64.875,-69.125,-1.063965,-0.6083984,0.1557617,0.3115234,0.04150391,0.0390625
3216,3.75,74.5625,-70.75,-0.9946289,-0.5927734,0.09814453,0.3105469,0.04638672,0.04296875
3221,15.5625,79.9375,-76.5625,-0.9750977,-0.5268555,0.03662109,0.3056641,0.05371094,0.04980469
3225,20.6875,78.625,-74.75,-0.9477539,-0.5229492,-0.03613281,0.3007813,0.0625,0.06103516
3229,29,68.4375,-71.4375,-0.9477539,-0.5776367,-0.08984375,0.2983398,0.06884766,0.06201172
3233,41.125,48,-63.6875,-0.8745117,-0.5385742,-0.1015625,0.2924805,0.07519531,0.06787109
3237,48.6875,32.5625,-52.75,-0.6806641,-0.4067383,-0.03613281,0.2915039,0.08251953,0.0703125
3241,49.125,35.6875,-48.1875,-0.5214844,-0.2783203,-0.04394531,0.2880859,0.08740234,0.07324219
3245,48.25,38.375,-51.6875,-0.5527344,-0.2587891,-0.1054688,0.2841797,0.09375,0.07177734
3249,48.875,28.625,-49,-0.6147461,-0.2470703,-0.1474609,0.2807617,0.1000977,0.07324219
3253,45.25,9.25,-45.875,-0.6186523,-0.2744141,-0.2128906,0.2792969,0.1035156,0.07324219
3257,44.5,-5.3125,-40.9375,-0.5024414,-0.2978516,-0.2285156,0.2773438,0.1088867,0.0703125
3261,48.6875,-9.5,-42.6875,-0.5371094,-0.3481445,-0.3051758,0.2758789,0.1137695,0.06787109
3265,56.875,-31.875,-38.875,-0.5874023,-0.387207,-0.3129883,0.2734375,0.1162109,0.06494141
3269,56.5,-60,-26.625,-0.4633789,-0.2978516,-0.3051758,0.2724609,0.1201172,0.05810547
3273,54.875,-74.5,-16.625,-0.2851563,-0.340332,-0.2089844,0.2734375,0.1264648,0.05273438
3277,55.9375,-78.125,-7.625,-0.2734375,-0.2548828,-0.1513672,0.2749023,0.1274414,0.04443359
3281,32.1875,-90.125,2.6875,-0.3125,-0.1733398,-0.1401367,0.2758789,0.1298828,0.03369141
3285,7.375,-105.0625,25.4375,-0.296875,-0.3793945,-0.0859375,0.2792969,0.1274414,0.02392578
3289,15.25,-102.625,48.75,-0.1069336,-0.5424805,0.05957031,0.2817383,0.1264648,0.02001953
3293,40.0625,-66.1875,49.25,-0.02587891,-0.4804688,0.1748047,0.2866211,0.1201172,0.009277344
3297,65,-34.0625,27.4375,-0.2387695,-0.2939453,0.2211914,0.2866211,0.1186523,0.0009765625
3301,57.125,-18.4375,4.75,-0.3706055,-0.05273438,0.2749023,0.2890625,0.1176758,0
3305,17.4375,-17.6875,5.9375,-0.5024414,-0.04882813,0.2675781,0.2900391,0.1176758,-0.005371094
3309,-17.25,-26.0625,18.625,-0.5488281,-0.2666016,0.2368164,0.2900391,0.1152344,-0.005371094
3313,-22.25,-25.375,27.3125,-0.4907227,-0.4257813,0.2133789,0.2900391,0.1162109,-0.009277344
3317,-14.8125,-10.9375,26.4375,-0.4326172,-0.4609375,0.2021484,0.2900391,0.1123047,-0.008300781
3321,-8.625,11.25,26.6875,-0.4672852,-0.4804688,0.1479492,0.2939453,0.1098633,-0.009277344
3325,-0.875,27.0625,27.375,-0.6147461,-0.5307617,0.105957,0.2939453,0.1088867,-0.01074219
3329,7.1875,33.75,27.8125,-0.7036133,-0.4960938,0.08251953,0.2963867,0.1049805,-0.005371094
3333,11.125,31.1875,31.625,-0.7578125,-0.402832,0.06738281,0.2973633,0.1025391,-0.002441406
3337,2.875,30,35.9375,-0.7543945,-0.2744141,-0.005371094,0.2983398,0.1000977,-0.001464844
3341,-2.4375,24.5625,33.25,-0.847168,-0.3173828,-0.04394531,0.2998047,0.09521484,0.0009765625
3345,0.9375,9.4375,29.75,-0.8588867,-0.2900391,0.005859375,0.2998047,0.09228516,0.004882813
3350,-2.125,-4.5,31.625,-0.8164063,-0.2275391,0.07519531,0.3007813,0.08984375,0.002441406
3354,-7,-16.5,34.6875,-0.6845703,-0.1538086,0.1328125,0.3032227,0.08886719,0.0009765625
3358,-20.5625,-21.375,33.375,-0.6108398,-0.05664063,0.1210938,0.3046875,0.08398438,0.0009765625
3362,-38.5,-24.6875,30.6875,-0.5722656,-0.08398438,0.09814453,0.3056641,0.08398438,0
3366,-51.25,-24.3125,31.3125,-0.5527344,-0.1928711,0.07910156,0.3071289,0.08007813,0
3370,-50.375,-22.1875,33.75,-0.5488281,-0.3134766,0.02490234,0.309082,0.07617188,-0.001464844
3374,-39.875,-22.4375,40.625,-0.5722656,-0.355957,-0.02441406,0.3081055,0.07128906,-0.002441406
3378,-26.5,-25,46.6875,-0.5952148,-0.2900391,-0.1015625,0.3105469,0.06884766,-0.001464844
3382,-20.6875,-32.5,47.375,-0.6342773,-0.2626953,-0.09765625,0.3115234,0.06005859,-0.00390625
3386,-23.375,-42.875,45.6875,-0.6264648,-0.2275391,-0.02441406,0.3154297,0.06005859,-0.005371094
3390,-32.625,-37.6875,40.375,-0.4169922,-0.1928711,0.105957,0.3139648,0.05371094,-0.008300781
3394,-36.1875,-12,33.9375,-0.347168,-0.2431641,0.08642578,0.3164063,0.05126953,-0.01074219
3398,-33.25,7.1875,23.1875,-0.4868164,-0.3208008,0.05566406,0.3198242,0.04736328,-0.01220703
3402,-20.6875,12.25,14.6875,-0.5952148,-0.5307617,0.04052734,0.3188477,0.04638672,-0.006835938
3406,-0.8125,14.5,18.5,-0.6455078,-0.6318359,0.09033203,0.3188477,0.04492188,-0.005371094
3410,17,27.25,30.5625,-0.6611328,-0.6860352,0.2094727,0.3198242,0.04248047,-0.006835938
3414,31.625,48.375,45.4375,-0.8007813,-0.6474609,0.2211914,0.3198242,0.04003906,-0.002441406
3418,47.8125,61.1875,53.4375,-0.9399414,-0.4609375,0.1826172,0.3222656,0.03515625,0
3422,57.4375,60.6875,51.125,-1.106934,-0.2006836,0.1367188,0.3222656,0.03271484,0.004882813
3426,47.25,49.625,38.8125,-1.215332,-0.01416016,0.125,0.3237305,0.02636719,0.01074219
3430,24.625,29.4375,32.125,-1.257813,0.04003906,0.1713867,0.3222656,0.02246094,0.01074219
3434,-7.0625,5.5,33.75,-1.215332,-0.01416016,0.2060547,0.3222656,0.02001953,0.01318359
3438,-31.75,-16.3125,45.8125,-1.149414,-0.1230469,0.2172852,0.3212891,0.01757813,0.01318359
3442,-43.125,-32.5625,56.4375,-1.095215,-0.2822266,0.2480469,0.324707,0.008789063,0.01171875
3446,-29.375,-33.875,57.125,-0.9750977,-0.3676758,0.2788086,0.324707,0.006347656,0.009277344
3450,-5.125,-18.9375,40.1875,-0.8706055,-0.340332,0.3291016,0.3261719,0,0.004882813
3454,7.8125,-1.3125,24.8125,-0.847168,-0.1347656,0.340332,0.3271484,-0.003417969,0.0078125
3458,-5.5,5.0625,18.8125,-0.9790039,-0.06835938,0.2905273,0.3261719,-0.004394531,0.006347656
3462,-16.875,-3.75,25.5,-1.106934,-0.1811523,0.2597656,0.3271484,-0.005859375,0.0078125
3466,-15.1875,-13.125,28.9375,-1.141602,-0.2431641,0.2368164,0.328125,-0.009277344,0.004882813
3470,-4.75,-12.5625,29.5625,-1.118652,-0.2626953,0.2441406,0.3295898,-0.01318359,0.004882813
3474,9.8125,-4.625,21.875,-1.114746,-0.2084961,0.2172852,0.3271484,-0.015625,0.002441406
3479,13.3125,2.5625,12.6875,-1.12207,-0.07226563,0.2290039,0.3295898,-0.01806641,0.00390625
3483,8.5,7.3125,4.8125,-1.191895,-0.01806641,0.1518555,0.3295898,-0.01708984,0.00390625
3487,2.3125,2.3125,-3,-1.308105,-0.02978516,0.07910156,0.3295898,-0.01806641,0.00390625
3491,-3.25,-12,-2.625,-1.351074,-0.1191406,0.06738281,0.3295898,-0.01708984,0.002441406
3495,-5.3125,-25.0625,5.6875,-1.28125,-0.08398438,0.09814453,0.328125,-0.01708984,0.002441406
3499,-9.4375,-24.375,0,-1.203613,-0.04541016,0.1171875,0.3305664,-0.01806641,0
3503,-12.25,-26.5,-12.75,-1.312012,-0.05273438,0.06738281,0.3305664,-0.01806641,-0.002441406
3507,-20.125,-36.3125,-18.9375,-1.285156,-0.1420898,0.1020508,0.3295898,-0.01708984,-0.00390625
3511,-25.125,-42.9375,-14.375,-1.242188,-0.2509766,0.1020508,0.328125,-0.01464844,-0.008300781
3515,-24.1875,-47.375,-6.9375,-1.20752,-0.3364258,0.1171875,0.3305664,-0.01464844,-0.01220703
3519,-17.0625,-47.125,2.9375,-1.180664,-0.3676758,0.159668,0.3305664,-0.01464844,-0.01464844
3523,-8.8125,-40.0625,2.5625,-1.165039,-0.324707,0.2211914,0.3271484,-0.01464844,-0.01904297
3527,1.0625,-23.0625,-4.6875,-1.145508,-0.3173828,0.3017578,0.3295898,-0.01464844,-0.02050781
3531,5.1875,-6.25,-12,-1.230957,-0.3056641,0.3442383,0.3295898,-0.01464844,-0.02441406
3535,5.6875,4.375,-6.625,-1.351074,-0.3325195,0.375,0.3295898,-0.01171875,-0.02294922
3539,3,9.5,0.625,-1.479004,-0.2861328,0.4213867,0.3305664,-0.01318359,-0.02587891
3543,-1.1875,14.6875,3.125,-1.541016,-0.2241211,0.4521484,0.3295898,-0.01171875,-0.02148438
3547,-2.375,27.9375,-8.125,-1.560059,-0.2275391,0.4443359,0.3295898,-0.01318359,-0.02050781
3551,4.375,42.125,-26.9375,-1.509766,-0.1308594,0.4829102,0.328125,-0.01074219,-0.01757813
3555,-2.1875,58.875,-48.625,-1.48291,0.004882813,0.4560547,0.328125,-0.009277344,-0.01367188
3559,-26.25,58.0625,-57.25,-1.571777,-0.01806641,0.4213867,0.328125,-0.0004882813,-0.006835938
3563,-59.0625,42.4375,-49.75,-1.54834,-0.08007813,0.3330078,0.3261719,0.002441406,0
3567,-87.6875,26.9375,-39.125,-1.467285,-0.2392578,0.2441406,0.3261719,0.004882813,0.002441406
3571,-94.25,23,-36.75,-1.319824,-0.4414063,0.1787109,0.324707,0.008789063,0.004882813
3575,-80.1875,33.625,-42.375,-1.230957,-0.5893555,0.09814453,0.3222656,0.01269531,0.01171875
3579,-50.5625,48.25,-57.3125,-1.199707,-0.7094727,0.08251953,0.3212891,0.01513672,0.01318359
3583,-28.375,53.9375,-54.25,-1.195801,-0.7172852,0.02490234,0.3212891,0.02246094,0.02001953
3587,-14.5,53,-45.1875,-1.176758,-0.6821289,0.005859375,0.3188477,0.02734375,0.02685547
3591,-10.25,48.875,-36.5625,-1.246094,-0.5927734,-0.03613281,0.3173828,0.02880859,0.02978516
3595,-10.1875,38.8125,-29.0625,-1.203613,-0.5268555,-0.02441406,0.3154297,0.03369141,0.03515625
3599,-4.9375,37.625,-36.25,-1.12207,-0.5,-0.02050781,0.3139648,0.03515625,0.03759766
3603,3.8125,41.5625,-49.875,-1.017578,-0.5073242,-0.03222656,0.3139648,0.04150391,0.04199219
3608,15.6875,49.5,-55.6875,-0.9633789,-0.6005859,-0.05126953,0.3129883,0.04248047,0.04736328
3612,33.4375,49.1875,-52.875,-0.9790039,-0.7211914,-0.05908203,0.3081055,0.04882813,0.04736328
3616,53.1875,49.9375,-42.4375,-0.8432617,-0.6435547,0.01367188,0.3071289,0.05371094,0.05126953
3620,59.75,65.4375,-38.5625,-0.7426758,-0.4609375,0.05566406,0.3046875,0.06005859,0.05419922
3624,67.9375,81.6875,-45.3125,-0.7426758,-0.3173828,0.04052734,0.3007813,0.06494141,0.06103516
3628,74.75,89.9375,-69.1875,-0.7734375,-0.1928711,-0.001464844,0.2983398,0.06884766,0.06347656
3632,75.0625,81.875,-80.5625,-0.8125,-0.1459961,-0.07080078,0.2924805,0.08007813,0.0703125
3636,66.625,55.1875,-67.3125,-0.796875,-0.1733398,-0.1323242,0.2880859,0.08886719,0.07324219
3640,55.875,22.25,-49.5625,-0.7231445,-0.2163086,-0.1591797,0.2841797,0.09375,0.07324219
3644,52.3125,-7.8125,-33.6875,-0.6303711,-0.2626953,-0.1474609,0.2807617,0.1010742,0.07177734
3648,52.5625,-22.8125,-28.8125,-0.4208984,-0.1811523,-0.06689453,0.2817383,0.1049805,0.0703125
3652,48.625,-22.875,-32.25,-0.2661133,-0.2045898,-0.02832031,0.2792969,0.1064453,0.06640625
3656,52.0625,-23.25,-25.875,-0.2504883,-0.2783203,-0.005371094,0.2792969,0.1123047,0.06201172
3660,55.5,-27.3125,-17,-0.215332,-0.2275391,0.02490234,0.2792969,0.1152344,0.05517578
3664,48.8125,-30.25,-16.1875,-0.215332,-0.07617188,0.05566406,0.2792969,0.1162109,0.05419922
3668,28.4375,-32.9375,-17.75,-0.1845703,-0.08398438,0.05566406,0.2783203,0.1201172,0.04980469
3672,16.875,-28.6875,-15.25,-0.1342773,-0.2548828,0.08251953,0.2783203,0.1225586,0.04443359
3676,14.5,-20.6875,-8.875,-0.1420898,-0.3173828,0.06738281,0.2783203,0.1235352,0.04052734
3680,11.3125,-9.25,-1.1875,-0.1459961,-0.3950195,0.04443359,0.2783203,0.1235352,0.0390625
3684,11.6875,6.1875,9.375,-0.2504883,-0.5,-0.04394531,0.2792969,0.1235352,0.03759766
3688,23.5625,16.625,14.3125,-0.3745117,-0.5268555,-0.09375,0.2783203,0.125,0.03759766
3692,32.75,23.1875,14.625,-0.4711914,-0.4453125,-0.1362305,0.2792969,0.1235352,0.03759766
3696,32.0625,23.5,15.1875,-0.5834961,-0.340332,-0.1513672,0.2783203,0.1225586,0.04052734
3700,18.5625,21.625,10,-0.6572266,-0.2705078,-0.1591797,0.2807617,0.1225586,0.0390625
3704,4.3125,15.9375,7.375,-0.746582,-0.3481445,-0.1630859,0.2792969,0.1210938,0.04199219
3708,-7.5,11.8125,10.375,-0.7543945,-0.4414063,-0.1938477,0.2792969,0.1176758,0.04296875
3712,-6.9375,11.1875,12,-0.7617188,-0.6123047,-0.2324219,0.2792969,0.1186523,0.04296875
3716,7.875,13.1875,12.8125,-0.7543945,-0.7290039,-0.2397461,0.2807617,0.1186523,0.04443359
3720,28.5625,16.25,15.8125,-0.7734375,-0.7680664,-0.2016602,0.2792969,0.1176758,0.04443359
3724,43.3125,15.25,21.625,-0.7851563,-0.6044922,-0.1435547,0.2817383,0.1176758,0.04443359
3728,41.3125,13.75,23.25,-0.8046875,-0.4179688,-0.07861328,0.2807617,0.1152344,0.04443359
3732,32.4375,6.6875,22.5,-0.862793,-0.355957,-0.04736328,0.2817383,0.1123047,0.04296875
3737,20.5625,-3.5625,24.9375,-0.8588867,-0.3364258,0.009765625,0.2841797,0.1137695,0.04199219
3741,13.5625,-12.5625,28.8125,-0.8237305,-0.3442383,0.02880859,0.2856445,0.1098633,0.04052734
3745,13.125,-19.4375,30.4375,-0.746582,-0.2939453,0.05957031,0.2866211,0.1113281,0.0390625
3749,8.6875,-24.375,28.9375,-0.6767578,-0.1269531,0.08642578,0.2900391,0.1064453,0.03613281
3753,-9.0625,-31.3125,23,-0.5874023,0.02832031,0.1171875,0.2900391,0.1049805,0.03222656
3757,-39.875,-38.1875,20.9375,-0.5371094,0.04736328,0.125,0.2915039,0.1025391,0.03222656
3761,-65.875,-47.375,24.125,-0.5332031,-0.09960938,0.09423828,0.2924805,0.1000977,0.03076172
3765,-73.375,-50,24.75,-0.4365234,-0.2744141,0.08251953,0.2939453,0.09619141,0.02978516
3769,-62.125,-45.625,25.0625,-0.3862305,-0.3481445,0.04443359,0.2973633,0.09228516,0.02832031
3773,-52.625,-38,24.6875,-0.362793,-0.3520508,0.04052734,0.2983398,0.08984375,0.02832031
3777,-51.5625,-33.625,32.5,-0.4130859,-0.4257813,0.05566406,0.2983398,0.08642578,0.02539063
3781,-43.375,-31.0625,48.3125,-0.4287109,-0.4882813,0.07128906,0.2983398,0.08251953,0.02294922
3785,-32.8125,-19.3125,56.5625,-0.4594727,-0.4179688,0.1289063,0.3032227,0.07763672,0.02392578
3789,-21.375,-1.9375,56.3125,-0.5371094,-0.421875,0.1132813,0.3056641,0.07128906,0.02294922
3793,-0.0625,9.6875,56.5625,-0.6416016,-0.3676758,0.07128906,0.3081055,0.06640625,0.02392578
3797,21.125,15,53.25,-0.7348633,-0.2084961,0.04443359,0.3115234,0.06103516,0.02392578
3801,29.6875,15.875,44.9375,-0.8046875,0.02441406,0.04785156,0.309082,0.05761719,0.02539063
3805,14,16.5,26.5625,-0.8393555,0.2338867,0.105957,0.3139648,0.05273438,0.02539063
3809,-19.5,12.5625,7.3125,-0.8857422,0.1679688,0.08642578,0.3129883,0.05273438,0.02832031
3813,-41.8125,1.0625,2.625,-0.9438477,-0.09179688,0.03271484,0.3115234,0.05126953,0.02978516
3817,-39.4375,-12.6875,10.0625,-0.9790039,-0.4067383,-0.001464844,0.3115234,0.04980469,0.02978516
3821,-22.125,-24.75,16.625,-1.048828,-0.4726563,0.01708984,0.3115234,0.04882813,0.02978516
3825,-1.5625,-31.6875,9.4375,-1.071777,-0.453125,0.04785156,0.3139648,0.04736328,0.02685547
3829,3.6875,-35.625,-1.75,-1.009766,-0.3481445,0.1210938,0.3139648,0.04736328,0.02539063
3833,-7.625,-39.5625,-0.1875,-1.013672,-0.3095703,0.1557617,0.3139648,0.04638672,0.02148438
3837,-20.3125,-47.6875,6.5625,-1.029297,-0.4335938,0.1904297,0.3139648,0.04492188,0.01708984
3841,-13.25,-52.125,21.6875,-1.060547,-0.5893555,0.1635742,0.3154297,0.04248047,0.01171875
3845,2.9375,-53.3125,30.875,-1.048828,-0.5698242,0.2250977,0.3154297,0.04248047,0.01074219
3849,19.0625,-40,26,-1.075684,-0.4453125,0.2636719,0.3164063,0.03857422,0.004882813
3853,27.6875,-29.1875,7.25,-1.145508,-0.3095703,0.2597656,0.3173828,0.03857422,0.002441406
3857,18.5,-21.5,-11.9375,-1.168945,-0.1191406,0.3364258,0.3198242,0.03759766,-0.001464844
3861,-5.0625,-20.125,-14.6875,-1.219238,-0.1538086,0.2983398,0.3188477,0.03857422,-0.002441406
3866,-21.0625,-26.75,-7.5,-1.180664,-0.2744141,0.2983398,0.3198242,0.04003906,-0.006835938
3870,-19.6875,-24,-0.8125,-1.157227,-0.4492188,0.2172852,0.3173828,0.04248047,-0.006835938
3874,0.25,-20.875,-4.3125,-1.203613,-0.5,0.1674805,0.3173828,0.04150391,-0.008300781
3878,20.6875,-25.3125,-14.375,-1.227051,-0.4257813,0.140625,0.3188477,0.04003906,-0.01074219
3882,18.0625,-35.0625,-18.5625,-1.141602,-0.2431641,0.1748047,0.3188477,0.04150391,-0.01367188
3886,-5.625,-40.1875,-16.3125,-1.056641,-0.2241211,0.2021484,0.3173828,0.04394531,-0.01757813
3890,-21.375,-44.1875,-10.25,-1.025391,-0.4453125,0.2402344,0.3164063,0.04638672,-0.02050781
3894,-18.9375,-43.75,-0.875,-0.9516602,-0.6513672,0.2329102,0.3154297,0.04638672,-0.02294922
3898,3.75,-29.8125,11.1875,-0.9477539,-0.7910156,0.2329102,0.3164063,0.04492188,-0.02734375
3902,32.25,-17.4375,8.25,-1.071777,-0.7055664,0.2636719,0.3173828,0.04492188,-0.02978516
3906,38.8125,-8.6875,6.25,-1.12207,-0.5112305,0.3671875,0.3173828,0.04394531,-0.03271484
3910,26.6875,3.125,9.5,-1.20752,-0.3833008,0.4213867,0.3188477,0.04394531,-0.03271484
3914,11.25,10,6.1875,-1.347168,-0.3173828,0.425293,0.3173828,0.04248047,-0.03271484
3918,-7.375,8.0625,2.25,-1.459473,-0.2822266,0.409668,0.3164063,0.04150391,-0.03369141
3922,-27.375,4.125,0,-1.467285,-0.3598633,0.4365234,0.3188477,0.04150391,-0.03125
3926,-32.25,12.1875,-3,-1.370117,-0.4765625,0.4521484,0.3164063,0.04003906,-0.02978516
3930,-25.625,27.875,-10,-1.339355,-0.5307617,0.4560547,0.3188477,0.04150391,-0.02832031
3934,-19.3125,39,-17.3125,-1.347168,-0.4648438,0.4213867,0.3164063,0.04248047,-0.02587891
3938,-26.375,42.0625,-20.8125,-1.343262,-0.3442383,0.4018555,0.3164063,0.04492188,-0.02148438
3942,-43.3125,38.875,-24.6875,-1.319824,-0.324707,0.3481445,0.3173828,0.04638672,-0.01367188
3946,-57.0625,36.3125,-27.8125,-1.234863,-0.3833008,0.3330078,0.3164063,0.04980469,-0.01074219
3950,-64.375,39.875,-29.75,-1.145508,-0.4804688,0.2905273,0.3164063,0.05126953,-0.00390625
3954,-65.0625,48.25,-31.5625,-1.063965,-0.5620117,0.2675781,0.3115234,0.05371094,-0.002441406
3958,-59.1875,62.25,-32.3125,-0.9985352,-0.6474609,0.2211914,0.3115234,0.05761719,0.004882813
3962,-47.8125,78.625,-34,-1.021484,-0.6860352,0.1557617,0.3105469,0.05859375,0.01611328
3966,-41.125,84.5625,-31.1875,-1.118652,-0.6357422,0.08642578,0.3071289,0.06005859,0.02001953
3970,-43.75,80.375,-26.5625,-1.176758,-0.5385742,0.06738281,0.3056641,0.06396484,0.03076172
3974,-51.0625,79.4375,-28.125,-1.161133,-0.5307617,0.1367188,0.3007813,0.06494141,0.04052734
3978,-54.625,89.0625,-25.6875,-1.129883,-0.5854492,0.1518555,0.2998047,0.06738281,0.04736328
3982,-49.0625,105.1875,-26.9375,-1.125977,-0.5893555,0.08251953,0.2983398,0.06884766,0.05810547
3986,-33.9375,122.625,-37.1875,-1.20752,-0.5966797,-0.001464844,0.2939453,0.06884766,0.06884766
3990,-22.6875,125.3125,-41.125,-1.374023,-0.5463867,-0.1435547,0.2915039,0.07519531,0.08007813
3995,-23.6875,101.875,-41.9375,-1.575684,-0.5073242,-0.2207031,0.2856445,0.07861328,0.08789063
3999,-52.3125,55.5,-29.5,-1.571777,-0.340332,-0.2128906,0.2807617,0.07861328,0.09765625
4003,-94.0625,12.8125,-7.5,-1.459473,-0.371582,-0.309082,0.2783203,0.07861328,0.1030273
4007,-93.375,-4.125,-7.5,-1.103027,-0.7172852,-0.3286133,0.2783203,0.07519531,0.1069336
4011,-27.6875,22.6875,-30.6875,-0.7348633,-1.062988,-0.2475586,0.2783203,0.07373047,0.1123047
4015,42.6875,66.875,-47.25,-0.5527344,-0.7910156,-0.2363281,0.2749023,0.07763672,0.1123047
4019,68.875,95.9375,-58.625,-0.6342773,-0.4414063,-0.3012695,0.2709961,0.08398438,0.1166992
4023,62.125,84.625,-58.375,-0.9091797,-0.3017578,-0.4091797,0.2641602,0.09228516,0.125
4027,44.8125,41.3125,-46.0625,-0.9477539,-0.2744141,-0.4667969,0.2592773,0.09765625,0.1259766
4031,31.125,-5.3125,-34,-0.8393555,-0.2241211,-0.4169922,0.2558594,0.1025391,0.1259766
4035,19.75,-32.375,-32,-0.5410156,-0.2509766,-0.324707,0.2558594,0.1074219,0.1235352
4039,27.4375,-33.75,-39.4375,-0.3320313,-0.3637695,-0.2363281,0.2558594,0.1098633,0.1191406
4043,47.8125,-26.75,-48.3125,-0.215332,-0.3950195,-0.1552734,0.2568359,0.1137695,0.1152344
4047,58.25,-19.5,-49.6875,-0.2192383,-0.3208008,-0.1362305,0.253418,0.1201172,0.1123047
4051,50.625,-26.3125,-40.6875,-0.3125,-0.2978516,-0.1513672,0.253418,0.1264648,0.1083984
4055,36.8125,-49.6875,-23.3125,-0.3745117,-0.2939453,-0.1669922,0.2509766,0.1298828,0.1030273
4059,26.3125,-68.75,-15,-0.2583008,-0.371582,-0.1206055,0.2519531,0.1323242,0.09619141
4063,41.8125,-52.25,-21.25,0.004882813,-0.5893555,-0.03222656,0.2543945,0.1347656,0.09228516
4067,75.1875,-18,-21.0625,0.01660156,-0.5927734,0.009765625,0.2558594,0.1362305,0.08544922
4071,86.9375,-0.5,-16.4375,-0.1069336,-0.3481445,0.04785156,0.253418,0.1411133,0.08007813
4075,65.5625,-0.375,-9.6875,-0.2583008,-0.1733398,0.02880859,0.2519531,0.1450195,0.07861328
4079,34.125,-15.875,1.25,-0.3510742,-0.2314453,-0.02441406,0.2543945,0.1459961,0.07324219
4083,14.375,-25.8125,11.5625,-0.3935547,-0.402832,-0.0859375,0.2543945,0.1489258,0.07324219
4087,12.0625,-35.1875,15.625,-0.4130859,-0.46875,-0.1054688,0.2543945,0.1459961,0.06884766
4091,15,-26.0625,13.6875,-0.2583008,-0.4804688,-0.02832031,0.2592773,0.1459961,0.06494141
4095,18.75,-5.1875,14.5,-0.3164063,-0.5,-0.01318359,0.2583008,0.1450195,0.06201172
4099,15.875,6.5625,17.1875,-0.4130859,-0.4609375,-0.001464844,0.2602539,0.1435547,0.06201172
4103,7.5625,15.3125,21.1875,-0.5102539,-0.4648438,-0.06298828,0.2592773,0.1435547,0.05957031
4107,2.6875,20.75,23.4375,-0.6225586,-0.5268555,-0.2055664,0.2602539,0.1425781,0.06201172
4111,6.0625,16.5625,24.8125,-0.7773438,-0.6279297,-0.2475586,0.2602539,0.1411133,0.06347656
4115,12.75,5.9375,25.4375,-0.8198242,-0.6123047,-0.2363281,0.2617188,0.1386719,0.06201172
4119,13.75,-3.375,25.5625,-0.8085938,-0.519043,-0.1669922,0.2626953,0.1362305,0.06201172
4124,7.375,-10.5,25.1875,-0.765625,-0.4414063,-0.07470703,0.2651367,0.1347656,0.06103516
4128,-1.75,-8.9375,23.25,-0.7270508,-0.453125,-0.04003906,0.2675781,0.1323242,0.06201172
4132,-4.625,-6.625,20.625,-0.7348633,-0.5,-0.05908203,0.269043,0.1298828,0.06103516
4136,-3.6875,-7.125,19.1875,-0.7231445,-0.550293,-0.08984375,0.269043,0.1298828,0.06201172
4140,-0.0625,-9.125,21.5,-0.7075195,-0.581543,-0.08203125,0.2709961,0.1289063,0.05957031
4144,2.0625,-14.75,27.875,-0.6962891,-0.5620117,-0.07470703,0.2734375,0.125,0.05957031
4148,4.5,-23.4375,35.375,-0.6342773,-0.5112305,-0.03613281,0.2734375,0.125,0.05664063
4152,2,-28.125,40.6875,-0.5332031,-0.3286133,0.04443359,0.2758789,0.1201172,0.05517578
4156,-12.0625,-31.25,42.9375,-0.4790039,-0.1733398,0.06347656,0.2783203,0.1176758,0.05273438
4160,-31.5625,-30.3125,38.0625,-0.3666992,-0.08007813,0.06347656,0.2792969,0.1152344,0.04980469
4164,-47.8125,-22.8125,31.25,-0.3666992,-0.1538086,-0.009277344,0.2817383,0.1098633,0.04980469
4168,-51.1875,-24.9375,30.375,-0.4326172,-0.3017578,-0.04394531,0.2866211,0.1064453,0.05126953
4172,-47.875,-32.875,37.625,-0.4365234,-0.3676758,-0.07861328,0.2880859,0.1025391,0.04980469
4176,-42.125,-36.125,42.1875,-0.4248047,-0.3637695,-0.02832031,0.2890625,0.09863281,0.04980469
4180,-39.125,-31.0625,40.125,-0.3510742,-0.2587891,-0.009277344,0.2924805,0.09228516,0.04882813
4184,-37.0625,-16.5625,31,-0.3393555,-0.1616211,-0.001464844,0.2939453,0.08886719,0.04589844
4188,-33.5,-1.75,12.9375,-0.3935547,-0.1308594,-0.01318359,0.2963867,0.08496094,0.04882813
4192,-31,3,1.5,-0.5449219,-0.2353516,-0.06689453,0.2963867,0.08496094,0.04882813
4196,-32.3125,-5.6875,9.8125,-0.6376953,-0.387207,-0.07080078,0.2939453,0.08398438,0.05126953
4200,-27.75,-16.125,35.6875,-0.6962891,-0.4726563,-0.09765625,0.2983398,0.08105469,0.04882813
4204,-13.1875,-23.8125,49.0625,-0.7426758,-0.4140625,-0.128418,0.2983398,0.07519531,0.04980469
4208,-0.4375,-29,42,-0.7773438,-0.2353516,-0.112793,0.3007813,0.07275391,0.04980469
4212,-1.375,-30.625,20.5,-0.78125,-0.2744141,-0.02832031,0.3032227,0.06982422,0.04443359
4216,2.4375,-25,16.875,-0.7543945,-0.4101563,0.02880859,0.3032227,0.06738281,0.04443359
4220,13.75,-19.25,25.3125,-0.8085938,-0.5,0.02880859,0.3032227,0.06738281,0.04052734
4224,30.4375,-19.5,33.9375,-0.9477539,-0.4648438,0.04785156,0.3046875,0.06494141,0.0390625
4228,33.9375,-20.1875,32.0625,-0.9399414,-0.3364258,0.1479492,0.3081055,0.06005859,0.03613281
4232,30.5625,-10.6875,30.25,-0.9750977,-0.355957,0.1865234,0.3071289,0.05761719,0.03369141
4236,35.6875,-0.5,25.6875,-1.037109,-0.3989258,0.2172852,0.309082,0.05517578,0.03222656
4240,47.8125,10,16.875,-1.168945,-0.371582,0.1904297,0.3081055,0.05615234,0.03076172
4244,51.375,5.125,5.875,-1.319824,-0.2470703,0.2021484,0.309082,0.05371094,0.03222656
4248,37,-8.125,3.0625,-1.370117,-0.2314453,0.2558594,0.3081055,0.05371094,0.02978516
4253,21.0625,-19.3125,9.625,-1.339355,-0.3481445,0.2905273,0.3081055,0.05517578,0.02539063
4257,21.4375,-17.75,7.1875,-1.285156,-0.4067383,0.2636719,0.3115234,0.05615234,0.02539063
4261,23.0625,-14.1875,3.0625,-1.289063,-0.4609375,0.2250977,0.3105469,0.05517578,0.02294922
4265,26.3125,-7.6875,-0.25,-1.358887,-0.5620117,0.1367188,0.3115234,0.05761719,0.02001953
4269,33.4375,-12.4375,-1.25,-1.463379,-0.6005859,0.105957,0.3115234,0.05615234,0.02001953
4273,31.6875,-25.1875,2.5,-1.420898,-0.5268555,0.105957,0.3129883,0.05615234,0.01708984
4277,19.3125,-35.375,8.375,-1.327637,-0.4726563,0.1289063,0.3115234,0.05517578,0.01318359
4281,9.8125,-39.4375,11.1875,-1.234863,-0.4765625,0.140625,0.3115234,0.05371094,0.01171875
4285,10.5625,-33.1875,7.1875,-1.087402,-0.4960938,0.1748047,0.3129883,0.05517578,0.004882813
4289,19.125,-10.3125,-1.5,-1.106934,-0.5737305,0.1557617,0.3129883,0.05273438,0.004882813
4293,31,-1.875,-8.25,-1.242188,-0.6123047,0.1210938,0.3129883,0.05273438,0.002441406
4297,35,-10,-2.3125,-1.300781,-0.5151367,0.1098633,0.3115234,0.05615234,0.0009765625
4301,24,-27.0625,3.75,-1.265625,-0.3481445,0.140625,0.3129883,0.05517578,0
4305,9.3125,-35.875,3.125,-1.149414,-0.2939453,0.1982422,0.3115234,0.05371094,-0.002441406
4309,-1.1875,-33,-3.5,-1.075684,-0.3911133,0.2402344,0.3129883,0.05371094,-0.006835938
4313,-0.25,-22.8125,-8.25,-1.044922,-0.5112305,0.2709961,0.3129883,0.05371094,-0.009277344
4317,6.5625,-9.0625,-9.3125,-1.029297,-0.5581055,0.3095703,0.3129883,0.05371094,-0.01074219
4321,9.5,4.0625,-9.375,-1.103027,-0.5112305,0.3134766,0.3129883,0.05859375,-0.01220703
4325,5.125,10.125,-9.9375,-1.168945,-0.4804688,0.2983398,0.3129883,0.05859375,-0.01074219
4329,-0.75,15.9375,-10.0625,-1.242188,-0.5229492,0.2905273,0.3129883,0.05859375,-0.01074219
4333,-4.6875,17.5625,-8.0625,-1.366211,-0.565918,0.2636719,0.3115234,0.06005859,-0.01074219
4337,-5,18.1875,-9.9375,-1.424316,-0.550293,0.2675781,0.3115234,0.05859375,-0.008300781
4341,-10.9375,20.5,-12.4375,-1.45166,-0.5,0.3095703,0.3115234,0.05859375,-0.005371094
4345,-17,28.25,-18.8125,-1.40918,-0.484375,0.355957,0.309082,0.06103516,-0.002441406
4349,-21.625,42.6875,-28.5,-1.343262,-0.4492188,0.355957,0.3105469,0.06396484,0.002441406
4353,-28.75,56.3125,-40.75,-1.327637,-0.4492188,0.2866211,0.3071289,0.06640625,0.002441406
4357,-34.3125,61.8125,-47.6875,-1.319824,-0.5,0.2133789,0.3056641,0.07128906,0.01171875
4361,-42.6875,57.9375,-45.625,-1.335449,-0.5424805,0.144043,0.3022461,0.07519531,0.01855469
4365,-49.25,49.1875,-39.0625,-1.339355,-0.581543,0.1132813,0.2983398,0.07763672,0.02392578
4369,-52.5,37.1875,-36.6875,-1.289063,-0.5424805,0.09814453,0.2983398,0.07861328,0.03076172
4373,-53.0625,35.125,-45.3125,-1.083496,-0.550293,0.1518555,0.2963867,0.08496094,0.03515625
4377,-48.1875,45.25,-48.9375,-0.9248047,-0.6044922,0.1826172,0.2963867,0.08496094,0.04199219
4382,-35.4375,65.625,-60.25,-0.8198242,-0.6474609,0.159668,0.2924805,0.08886719,0.04443359
4386,-30.8125,75.875,-56.625,-0.9013672,-0.6357422,0.04785156,0.2880859,0.09521484,0.05273438
4390,-35.625,63.9375,-43.8125,-1.041016,-0.6123047,-0.04003906,0.2856445,0.09765625,0.05957031
4394,-42.3125,41.125,-31.0625,-1.07959,-0.6279297,-0.08203125,0.2817383,0.1010742,0.06640625
4398,-36.0625,25.5,-23.625,-0.9169922,-0.7329102,-0.08984375,0.2817383,0.1000977,0.0703125
4402,-5.75,37.9375,-32.6875,-0.7036133,-0.7792969,-0.04736328,0.2773438,0.1025391,0.07568359
4406,17.3125,59.875,-39.6875,-0.6416016,-0.6083984,-0.07470703,0.2749023,0.1064453,0.07861328
4410,12.75,71.875,-48.25,-0.6884766,-0.4375,-0.07861328,0.2724609,0.1113281,0.08251953
4414,-3.625,60.8125,-36.375,-0.8549805,-0.5151367,-0.1860352,0.2666016,0.1152344,0.08691406
4418,-16.6875,29.75,-21.25,-0.8745117,-0.6083984,-0.2285156,0.2641602,0.1162109,0.09228516
4422,-17.875,8.25,-8.5625,-0.7270508,-0.6435547,-0.2631836,0.2617188,0.1176758,0.09472656
4426,-4.4375,7.5625,-14.6875,-0.4672852,-0.6630859,-0.1938477,0.2626953,0.1176758,0.09472656
4430,29.625,43.3125,-36.75,-0.2231445,-0.7172852,-0.1401367,0.2592773,0.1210938,0.09472656
4434,52.9375,69.625,-38.25,-0.4443359,-0.6201172,-0.2285156,0.2558594,0.125,0.09912109
4438,53.6875,51.625,-18.0625,-0.6303711,-0.4101563,-0.2128906,0.253418,0.1289063,0.1000977
4442,32.9375,25.5625,-2.6875,-0.6342773,-0.1850586,-0.2167969,0.2519531,0.1313477,0.1015625
4446,10.5,-2.75,-4.625,-0.6728516,-0.1499023,-0.2089844,0.2509766,0.1347656,0.1015625
4450,1,-22.375,-16.4375,-0.5292969,-0.3173828,-0.1899414,0.2509766,0.1323242,0.09912109
4454,15.625,-18,-24.625,-0.4052734,-0.5776367,-0.2285156,0.2509766,0.1347656,0.09912109
4458,33.9375,-19.8125,-20.125,-0.4594727,-0.5112305,-0.1899414,0.2485352,0.1386719,0.09765625
4462,23.4375,-30.5625,-8.0625,-0.4555664,-0.1538086,-0.0859375,0.2509766,0.1401367,0.09326172
4466,-24.5,-50,-5,-0.5063477,0.1601563,0.005859375,0.25,0.1425781,0.08935547
4470,-46,-60.5,-18.8125,-0.362793,-0.1733398,0.07519531,0.2509766,0.1425781,0.08691406
4474,-30.375,-49.75,-24.125,-0.3901367,-0.5581055,-0.03222656,0.2519531,0.1411133,0.08691406
4478,3.0625,-29.1875,-26.4375,-0.4404297,-0.7680664,-0.1435547,0.253418,0.1435547,0.08105469
4482,31.1875,-17.375,-30.6875,-0.4907227,-0.6396484,-0.1938477,0.253418,0.1450195,0.08007813
4486,29.625,-23.1875,-23,-0.5644531,-0.421875,-0.1435547,0.2509766,0.1474609,0.07714844
4490,7.125,-45.4375,-10.25,-0.5952148,-0.2783203,-0.05517578,0.253418,0.1499023,0.07421875
4494,-13.25,-57.6875,-5.9375,-0.4091797,-0.3481445,0.05566406,0.2519531,0.1489258,0.07177734
4498,-6.625,-34.75,-12,-0.1533203,-0.5424805,0.144043,0.253418,0.1499023,0.06787109
4502,2.5,-1.375,-12.9375,-0.2734375,-0.6162109,0.04443359,0.253418,0.1513672,0.06787109
4506,4,3.0625,-0.8125,-0.4711914,-0.6123047,-0.04003906,0.2509766,0.1513672,0.06494141
4511,-2.1875,-2.5,11.625,-0.4868164,-0.5893555,-0.06298828,0.2519531,0.1513672,0.06640625
4515,-2.625,1.3125,21.1875,-0.4521484,-0.6396484,-0.07080078,0.2543945,0.1513672,0.06640625
4519,6.9375,14.8125,26.125,-0.4790039,-0.6240234,-0.06298828,0.2543945,0.1474609,0.06494141
4523,10.1875,23.25,24.4375,-0.5834961,-0.5385742,-0.06298828,0.2558594,0.1474609,0.07177734
4527,8.3125,23.9375,27.125,-0.6650391,-0.5,-0.05517578,0.2558594,0.1450195,0.0703125
4531,4.0625,18.5625,30.125,-0.6845703,-0.4765625,-0.03613281,0.2583008,0.1411133,0.0703125
4535,1.0625,15.5625,31.4375,-0.6572266,-0.46875,0.009765625,0.2568359,0.1411133,0.07177734
4539,-1.5625,14.625,32.9375,-0.5952148,-0.402832,0.06738281,0.2592773,0.1401367,0.07324219
4543,-7.9375,23,30.625,-0.5102539,-0.3325195,0.1020508,0.2617188,0.1362305,0.07324219
4547,-14.5,35.375,25.625,-0.5449219,-0.3173828,0.07128906,0.2617188,0.1347656,0.07568359
4551,-20.3125,38.0625,25.6875,-0.6376953,-0.3520508,-0.005371094,0.2602539,0.1313477,0.08007813
4555,-21.8125,31.3125,29.5625,-0.6342773,-0.3676758,-0.02050781,0.2617188,0.1264648,0.08251953
4559,-22.9375,26.5625,33.0625,-0.5834961,-0.3017578,-0.02050781,0.2617188,0.125,0.08691406
4563,-25.5,23.875,31.9375,-0.5410156,-0.1928711,-0.005371094,0.2626953,0.1210938,0.09082031
4567,-35.375,23.75,31.3125,-0.5102539,-0.1152344,-0.005371094,0.2641602,0.1201172,0.09228516
4571,-44.1875,25.375,32.875,-0.5063477,-0.2124023,-0.1015625,0.2651367,0.1162109,0.09765625
4575,-37.6875,30.875,31.5625,-0.5332031,-0.2822266,-0.2016602,0.2666016,0.1113281,0.1000977
4579,-23.375,31.8125,28.8125,-0.5141602,-0.2705078,-0.2592773,0.2641602,0.1088867,0.1044922
4583,-14.5625,26.8125,25.4375,-0.5292969,-0.1928711,-0.3129883,0.2651367,0.1049805,0.1083984
4587,-11.9375,12.9375,21.25,-0.5063477,-0.1616211,-0.3051758,0.2666016,0.1025391,0.1098633
4591,-11.875,4.4375,25.75,-0.4208984,-0.2006836,-0.2900391,0.2651367,0.1000977,0.1098633
4595,-9.625,8.9375,22,-0.3588867,-0.2470703,-0.2167969,0.2666016,0.09863281,0.1152344
4599,-4.75,28.125,11.8125,-0.4052734,-0.324707,-0.2167969,0.2666016,0.09521484,0.1123047
4603,-2.625,41.875,7,-0.5834961,-0.5385742,-0.2592773,0.2651367,0.09619141,0.1166992
4607,9.125,45.25,18.5,-0.7270508,-0.7055664,-0.3862305,0.2651367,0.09521484,0.1191406
4611,31.5625,44.75,26.0625,-0.8935547,-0.6938477,-0.5551758,0.2617188,0.09228516,0.1206055
4615,55.5,25.5625,13.3125,-1.091309,-0.5151367,-0.6323242,0.2641602,0.09375,0.1220703
4619,56.5625,-6.8125,-3.3125,-1.187988,-0.3325195,-0.574707,0.2617188,0.09521484,0.1235352
4623,29.4375,-39.1875,-16.5625,-1.161133,-0.371582,-0.4707031,0.2617188,0.09765625,0.1181641
4627,7.1875,-68.75,-6.125,-1.052734,-0.6201172,-0.3515625,0.2641602,0.09863281,0.1137695
4631,6.9375,-78.375,5.625,-0.8588867,-0.8183594,-0.2285156,0.2651367,0.1000977,0.1083984
4635,32.375,-59.3125,21.8125,-0.730957,-0.9541016,-0.1245117,0.269043,0.09765625,0.1015625
4640,65.625,-32.5,13.1875,-0.8276367,-0.7524414,-0.1054688,0.2709961,0.09765625,0.09619141
4644,75.6875,-27.5,-10.8125,-0.9946289,-0.550293,-0.1474609,0.2724609,0.09863281,0.09228516
4648,50.25,-47.625,-11.5,-1.11084,-0.4765625,-0.1591797,0.2734375,0.1049805,0.08544922
4652,16.375,-76.5625,14.1875,-1.11084,-0.6591797,-0.1054688,0.2758789,0.1064453,0.08105469
4656,10,-91.625,35.1875,-1.044922,-0.8535156,-0.1015625,0.2758789,0.1049805,0.07421875
4660,31.6875,-81.875,36.375,-0.8432617,-0.8066406,0.02099609,0.2807617,0.1010742,0.06347656
4664,53.375,-54,23.6875,-0.8896484,-0.6977539,0.07128906,0.2856445,0.09765625,0.05664063
4668,64.5625,-31.125,19.8125,-1.106934,-0.6123047,0.125,0.2856445,0.09765625,0.05126953
4672,58.5625,-30.0625,14.5,-1.424316,-0.519043,0.1210938,0.2880859,0.09765625,0.04589844
4676,31.625,-55.5,18.125,-1.556152,-0.5,0.1557617,0.2880859,0.09619141,0.0390625
4680,-3.125,-86.375,35.5,-1.436035,-0.5385742,0.2060547,0.2890625,0.09521484,0.03515625
4684,-19.0625,-89.4375,47.75,-1.191895,-0.6630859,0.2827148,0.2963867,0.09130859,0.02978516
4688,-3.5625,-58.0625,43.9375,-1.017578,-0.8222656,0.3637695,0.2998047,0.08740234,0.02148438
4692,26.25,-10.75,31.75,-1.033203,-0.7949219,0.3710938,0.2998047,0.08398438,0.01855469
4696,47.3125,27.4375,21.5,-1.12207,-0.6123047,0.3520508,0.3007813,0.08398438,0.01708984
4700,41,44.75,8.375,-1.261719,-0.3095703,0.2827148,0.2998047,0.08105469,0.02001953
4704,9.8125,31,3.4375,-1.397461,-0.2202148,0.1943359,0.3022461,0.08105469,0.02001953
4708,-20.1875,2.5,5.6875,-1.32373,-0.3134766,0.1367188,0.3007813,0.08105469,0.02294922
4712,-34.8125,-18.6875,7.4375,-1.141602,-0.421875,0.1289063,0.2998047,0.07861328,0.02294922
4716,-32,-23.25,8.75,-0.8857422,-0.550293,0.1826172,0.3032227,0.07861328,0.02294922
4720,-15.3125,-10.5625,9.25,-0.7387695,-0.5893555,0.2290039,0.3032227,0.07861328,0.02294922
4724,2.75,13,6,-0.6884766,-0.5385742,0.2788086,0.3007813,0.07617188,0.02148438
4728,8.8125,42.25,2.8125,-0.7734375,-0.4414063,0.2944336,0.3022461,0.07519531,0.02294922
4732,5.25,60.6875,0,-1.001953,-0.4140625,0.2290039,0.3022461,0.07617188,0.02832031
4736,-0.5,67.5625,-2.125,-1.211426,-0.4414063,0.1904297,0.3007813,0.07861328,0.03369141
4740,-6.9375,66.3125,-3,-1.436035,-0.4765625,0.1328125,0.2973633,0.07617188,0.03759766
4744,-13,62.25,-6.5625,-1.541016,-0.5385742,0.09423828,0.2973633,0.07617188,0.04296875
4748,-14.25,64.8125,-10.6875,-1.525391,-0.5776367,0.04785156,0.2949219,0.07861328,0.04980469
4752,-14.5,71.875,-19.1875,-1.525391,-0.5854492,-0.07470703,0.2939453,0.07763672,0.05517578
4756,-17.6875,78.5625,-33,-1.48291,-0.534668,-0.1552734,0.2900391,0.08105469,0.06347656
4760,-26.1875,80,-44.5625,-1.463379,-0.534668,-0.2207031,0.2890625,0.08496094,0.0703125
4764,-38.0625,71.625,-50.1875,-1.467285,-0.6044922,-0.3325195,0.2841797,0.08496094,0.07568359
4769,-46.25,57.4375,-49,-1.413086,-0.6787109,-0.394043,0.2807617,0.08886719,0.08251953
4773,-50.625,41.9375,-44.9375,-1.381836,-0.7641602,-0.4785156,0.2758789,0.09228516,0.09326172
4777,-46,23,-35.9375,-1.335449,-0.8496094,-0.4824219,0.2749023,0.09375,0.09472656
4781,-31.625,11.25,-31,-1.141602,-0.7949219,-0.4052734,0.2724609,0.09521484,0.09619141
4785,-14.75,25.6875,-39.9375,-0.8237305,-0.7329102,-0.2285156,0.2700195,0.09619141,0.1015625
4789,1.375,58.75,-55.6875,-0.7426758,-0.6591797,-0.1591797,0.2666016,0.09863281,0.1015625
4793,7.6875,74.125,-58.875,-0.8666992,-0.6938477,-0.1938477,0.2617188,0.1049805,0.1123047
4797,13.6875,64,-49.8125,-1.001953,-0.7368164,-0.2207031,0.2568359,0.1123047,0.1123047
4801,17,35.9375,-37.0625,-1.063965,-0.7641602,-0.2553711,0.2543945,0.1113281,0.1181641
4805,25.5625,6.9375,-24.875,-0.9208984,-0.6787109,-0.2128906,0.2509766,0.1176758,0.1181641
4809,25.75,-8.8125,-19.0625,-0.6767578,-0.4726563,-0.112793,0.2519531,0.1201172,0.1166992
4813,19.3125,2.5625,-23.8125,-0.4404297,-0.324707,-0.02441406,0.25,0.1210938,0.1166992
4817,17.125,20.25,-28.3125,-0.4907227,-0.4960938,-0.001464844,0.2460938,0.125,0.1166992
4821,34.9375,27.75,-26.5625,-0.5756836,-0.6162109,-0.06298828,0.2451172,0.1298828,0.1152344
4825,48.5625,26.6875,-19.125,-0.6069336,-0.581543,-0.08203125,0.2436523,0.1313477,0.1152344
4829,36.9375,23.1875,-3.3125,-0.4750977,-0.2202148,-0.01660156,0.2426758,0.1337891,0.1152344
4833,1.75,18.9375,10.5625,-0.5253906,-0.1113281,-0.1015625,0.2402344,0.1347656,0.1137695
4837,-13.5625,0.6875,12,-0.7192383,-0.2314453,-0.1708984,0.2426758,0.1347656,0.1152344
4841,-2.75,-33.25,-9.625,-0.847168,-0.3833008,-0.2324219,0.2412109,0.1347656,0.1181641
4845,25.875,-51.25,-31.75,-0.4594727,-0.5463867,-0.06689453,0.2436523,0.1347656,0.1113281
4849,47,-29.9375,-31,-0.1923828,-0.4335938,0.04443359,0.2460938,0.1376953,0.1098633
4853,35.875,-10.125,-15.875,-0.2348633,-0.3095703,0.02490234,0.2436523,0.1425781,0.1044922
4857,24.625,-3.1875,-5.625,-0.4248047,-0.4414063,-0.07470703,0.2426758,0.1435547,0.1000977
4861,26.5,-11.6875,-1.25,-0.5756836,-0.5268555,-0.1938477,0.2426758,0.1459961,0.1000977
4865,29.5,-26.875,0.9375,-0.5991211,-0.4375,-0.1591797,0.2436523,0.1489258,0.09765625
4869,29.375,-30.6875,-3.8125,-0.5024414,-0.3989258,-0.1206055,0.2451172,0.1489258,0.09326172
4873,31,-24.9375,-2.75,-0.4829102,-0.4414063,-0.06298828,0.2426758,0.1499023,0.09082031
4877,36.375,-11.6875,-6.9375,-0.4521484,-0.4067383,-0.009277344,0.2451172,0.1489258,0.08789063
4881,30.9375,-1.5625,-10.0625,-0.5683594,-0.3911133,-0.005371094,0.2436523,0.1523438,0.08398438
4885,19.3125,-5.3125,-6.3125,-0.6416016,-0.4492188,-0.06689453,0.2451172,0.1538086,0.08544922
4889,15.125,-10.25,2.25,-0.6806641,-0.5385742,-0.1323242,0.2451172,0.1538086,0.08398438
4893,21.375,-16.8125,2.625,-0.6303711,-0.4921875,-0.1245117,0.2451172,0.1547852,0.07861328
4898,17.3125,-17.625,-3.625,-0.4790039,-0.2509766,-0.02050781,0.2475586,0.1547852,0.07861328
4902,-5.6875,-12.4375,-9.5,-0.4443359,-0.1967773,-0.05126953,0.2475586,0.1547852,0.07421875
4906,-28.8125,-19,-6.8125,-0.5102539,-0.3793945,-0.1899414,0.2460938,0.1577148,0.07568359
4910,-35.25,-27.75,1.0625,-0.4790039,-0.6201172,-0.2939453,0.2460938,0.15625,0.07568359
4914,-26.25,-28.3125,10.5,-0.362793,-0.7485352,-0.3051758,0.2460938,0.1538086,0.07568359
4918,-7,-14.5,23.1875,-0.3125,-0.7753906,-0.2363281,0.25,0.1523438,0.07568359
4922,12.1875,3.9375,32.4375,-0.2890625,-0.6474609,-0.1821289,0.2509766,0.1499023,0.07568359
4926,19.1875,23.375,31.0625,-0.3901367,-0.4492188,-0.1669922,0.2509766,0.1489258,0.07421875
4930,14.0625,26.5,28.75,-0.5371094,-0.355957,-0.1708984,0.2543945,0.1450195,0.07714844
4934,3.1875,14.9375,30.5,-0.6303711,-0.3442383,-0.1743164,0.253418,0.1435547,0.07714844
4938,-3.875,-1.875,33.5625,-0.6225586,-0.3442383,-0.109375,0.2543945,0.1425781,0.07568359
4942,-9.6875,-16.375,40.5625,-0.5722656,-0.3481445,-0.03613281,0.2583008,0.1401367,0.07714844
4946,-14.4375,-24.375,51.625,-0.5175781,-0.3793945,-0.01318359,0.2592773,0.1362305,0.07568359
4950,-7.125,-18.625,52.875,-0.3164063,-0.3833008,0.07128906,0.2641602,0.1313477,0.07324219
4954,9,22.375,34.5625,-0.2543945,-0.3754883,0.07519531,0.2675781,0.1274414,0.07421875
4958,18.1875,53.3125,25.75,-0.5253906,-0.3520508,0.001953125,0.2666016,0.1274414,0.07568359
4962,17.4375,50.5,34.125,-0.7231445,-0.2509766,-0.09375,0.2651367,0.1235352,0.08105469
4966,10.8125,26,43.5,-0.862793,-0.1230469,-0.1899414,0.2675781,0.1201172,0.08105469
4970,-1,-9.4375,45.75,-0.9516602,-0.09960938,-0.2592773,0.269043,0.1176758,0.08251953
4974,-12.875,-45.1875,49.1875,-0.9052734,-0.1499023,-0.2939453,0.2700195,0.1137695,0.08105469
4978,-24.5,-60.6875,39.3125,-0.6494141,-0.08398438,-0.1245117,0.2758789,0.1098633,0.07568359
4982,-43.125,-50.1875,29.3125,-0.5141602,-0.1381836,-0.03613281,0.2773438,0.1074219,0.07421875
4986,-48.4375,-36.8125,33.625,-0.5253906,-0.2939453,0.001953125,0.2792969,0.1025391,0.07324219
4990,-41,-26.6875,38.5625,-0.5795898,-0.387207,-0.03222656,0.2841797,0.09765625,0.07177734
4994,-24.375,-18.875,35.6875,-0.6108398,-0.4067383,-0.0859375,0.2832031,0.09375,0.07177734
4998,-14.0625,-16.25,29.375,-0.7075195,-0.3911133,-0.1362305,0.2856445,0.08886719,0.0703125
5002,-11.4375,-26.125,38.875,-0.78125,-0.4609375,-0.1206055,0.2880859,0.08642578,0.06884766
5006,-9.375,-31.9375,48.875,-0.7348633,-0.4296875,-0.07080078,0.2900391,0.08496094,0.06787109
5010,-1.3125,-30,58.125,-0.7387695,-0.4414063,-0.04003906,0.2924805,0.07861328,0.06494141
5014,10.875,-27.875,62.25,-0.7617188,-0.387207,-0.02050781,0.2963867,0.07519531,0.06103516
5018,20.3125,-22.875,60.8125,-0.878418,-0.3676758,0.005859375,0.2983398,0.06738281,0.06103516
5022,25.5625,-20.9375,65.625,-0.9790039,-0.3911133,0.07128906,0.3032227,0.06396484,0.05664063
5027,28.75,-20.125,72.875,-1.052734,-0.3481445,0.03271484,0.3032227,0.05761719,0.05273438
5031,31.25,-25.375,72.3125,-1.099121,-0.2241211,0.001953125,0.3081055,0.05371094,0.05126953
5035,21.5,-38.5,60.5625,-1.161133,-0.01025391,-0.02832031,0.309082,0.04638672,0.04882813
5039,-6.375,-53.5625,43.875,-1.180664,-0.002441406,0.04443359,0.3129883,0.04003906,0.04296875
5043,-36.375,-62.125,38.375,-1.11084,-0.1538086,0.08251953,0.3139648,0.03857422,0.04052734
5047,-54.375,-71.875,40.125,-1.129883,-0.3911133,0.02490234,0.3154297,0.03369141,0.03369141
5051,-42.8125,-75.9375,46.125,-0.9985352,-0.6240234,0.08251953,0.3173828,0.02734375,0.02832031
5055,-9.75,-52.1875,41.6875,-0.8549805,-0.6162109,0.2211914,0.3173828,0.02392578,0.02539063
5059,29.8125,-15.875,15.0625,-0.9091797,-0.4296875,0.1943359,0.3198242,0.02001953,0.02001953
5063,50.25,5.0625,-15.0625,-1.071777,-0.1499023,0.2060547,0.3198242,0.02148438,0.02148438
5067,40.125,18.875,-36,-1.168945,0.05517578,0.1943359,0.3198242,0.02246094,0.01708984
5071,10.25,13.25,-37.75,-1.443848,-0.07226563,0.1171875,0.3198242,0.02636719,0.02001953
5075,-11.8125,-15.8125,-21.75,-1.571777,-0.2939453,0.105957,0.3188477,0.03125,0.02001953
5079,-23.9375,-50.625,-9.25,-1.541016,-0.4921875,0.04443359,0.3173828,0.03027344,0.01855469
5083,-11.875,-71.125,6.0625,-1.374023,-0.6162109,0.1098633,0.3188477,0.03027344,0.01464844
5087,7.3125,-65.25,12.125,-1.215332,-0.5385742,0.159668,0.3188477,0.02880859,0.004882813
5091,20.9375,-47.25,5.3125,-1.168945,-0.3637695,0.2211914,0.3198242,0.02734375,0.0009765625
5095,17.25,-35.1875,-3.8125,-1.223145,-0.2783203,0.2636719,0.3198242,0.02734375,-0.001464844
5099,4,-33.25,1.125,-1.292969,-0.2705078,0.2519531,0.3212891,0.02880859,-0.006835938
5103,-8.875,-37.4375,9.5,-1.315918,-0.2626953,0.2675781,0.3212891,0.02734375,-0.008300781
5107,-18.3125,-39.75,9.5625,-1.32373,-0.2666016,0.2709961,0.3222656,0.02636719,-0.01220703
5111,-21.6875,-36.875,4.3125,-1.246094,-0.2626953,0.3173828,0.3212891,0.02734375,-0.01367188
5115,-23.3125,-26.625,-4.6875,-1.157227,-0.3095703,0.3598633,0.3212891,0.02734375,-0.01904297
5119,-18.125,-12.3125,-8,-1.161133,-0.4257813,0.3789063,0.3222656,0.02636719,-0.01904297
5123,-6.1875,-1.75,-4.125,-1.165039,-0.4570313,0.390625,0.3222656,0.02734375,-0.01904297
5127,2.625,10.0625,-2.3125,-1.145508,-0.3950195,0.3867188,0.3222656,0.02734375,-0.01904297
5131,2.875,18.9375,-3,-1.176758,-0.3095703,0.3637695,0.3212891,0.02880859,-0.01757813
5135,-2.625,23.625,-3.6875,-1.20752,-0.3095703,0.3251953,0.3222656,0.02734375,-0.01757813
5139,-4.625,29.0625,-3.875,-1.211426,-0.3095703,0.3173828,0.3222656,0.02880859,-0.01220703
5143,-5,38.25,-9.375,-1.234863,-0.3095703,0.3056641,0.3198242,0.02880859,-0.009277344
5147,-2.75,46.5625,-14.4375,-1.347168,-0.3173828,0.2983398,0.3188477,0.03125,-0.006835938
5151,-2.6875,50.3125,-19.5,-1.439941,-0.2939453,0.2597656,0.3188477,0.03125,-0.002441406
5156,-9.5625,49.5,-25.4375,-1.455566,-0.2470703,0.2558594,0.3173828,0.03369141,0.0009765625
5160,-19.125,54.5,-35.4375,-1.397461,-0.2431641,0.2480469,0.3173828,0.03759766,0.0078125
5164,-28.0625,59.0625,-43.4375,-1.424316,-0.3134766,0.1748047,0.3173828,0.03857422,0.01171875
5168,-34.125,57.625,-47.9375,-1.420898,-0.4179688,0.1479492,0.3173828,0.04248047,0.02001953
5172,-40.1875,54.125,-44.875,-1.416992,-0.519043,0.1098633,0.3105469,0.04882813,0.02392578
5176,-37.8125,52,-40.125,-1.370117,-0.6279297,0.1098633,0.3115234,0.05126953,0.02832031
5180,-27.5,54.6875,-41.8125,-1.347168,-0.5698242,0.07128906,0.3081055,0.05517578,0.03759766
5184,-27.6875,50.875,-48.3125,-1.343262,-0.4570313,0.03271484,0.3056641,0.05859375,0.04052734
5188,-40.8125,35.5625,-48.875,-1.308105,-0.3911133,-0.01660156,0.3046875,0.0625,0.04443359
5192,-55.1875,19.625,-43.9375,-1.211426,-0.453125,-0.04736328,0.3007813,0.06738281,0.04980469
5196,-53.75,9.9375,-46.375,-1.172852,-0.5581055,-0.09765625,0.3007813,0.06884766,0.05517578
5200,-44.5625,-2.9375,-52.625,-1.103027,-0.6318359,-0.09375,0.2983398,0.06982422,0.05664063
5204,-36.875,-15.25,-47.5625,-0.9477539,-0.5966797,-0.07861328,0.2963867,0.07519531,0.05517578
5208,-31.625,-19.6875,-49.75,-0.7617188,-0.5268555,-0.05126953,0.2963867,0.07861328,0.05810547
5212,-29,-16.0625,-55.625,-0.6108398,-0.4960938,-0.03613281,0.2939453,0.08251953,0.05810547
5216,-24,-4.625,-57,-0.4790039,-0.5385742,-0.02832031,0.2915039,0.08642578,0.05517578
5220,-15.375,6.9375,-57.8125,-0.4985352,-0.5620117,-0.07470703,0.2890625,0.08984375,0.05664063
5224,-6.4375,4.875,-50.5,-0.5566406,-0.5966797,-0.1206055,0.2890625,0.09619141,0.05664063
5228,0.5625,-4.375,-48.0625,-0.5605469,-0.5424805,-0.1743164,0.2856445,0.1000977,0.05664063
5232,4.375,-9.625,-43.4375,-0.5102539,-0.5112305,-0.1591797,0.2832031,0.1025391,0.05664063
5236,10.4375,-3.5,-38.0625,-0.4404297,-0.581543,-0.1669922,0.2841797,0.1074219,0.05810547
5240,33.1875,9.625,-32.125,-0.4985352,-0.6630859,-0.1743164,0.2817383,0.1098633,0.05517578
5244,67.8125,17,-29.25,-0.5449219,-0.6162109,-0.128418,0.2792969,0.1137695,0.05517578
5248,95.8125,21.5625,-32.5,-0.4985352,-0.3286133,-0.02832031,0.2773438,0.1176758,0.05419922
5252,90.1875,23.25,-31.875,-0.4672852,-0.03369141,0.06738281,0.2758789,0.1235352,0.04980469
5256,66.625,17.375,-23.5,-0.4404297,-0.02587891,0.1367188,0.2749023,0.1274414,0.04980469
5260,60.625,8.4375,-4.625,-0.4555664,-0.2163086,0.1367188,0.2734375,0.1289063,0.04736328
5264,72.9375,3.3125,5.3125,-0.4555664,-0.2587891,0.1982422,0.2709961,0.1313477,0.04589844
5268,79.0625,0.1875,7.125,-0.4365234,-0.1381836,0.2329102,0.2734375,0.1313477,0.03759766
5272,69.3125,4,7.9375,-0.3393555,0.05126953,0.3134766,0.2749023,0.1323242,0.03613281
5276,41.125,18.25,3,-0.362793,0.06689453,0.2250977,0.2734375,0.1337891,0.03369141
5280,14.375,22.875,-7.5625,-0.5141602,-0.09179688,0.04443359,0.2734375,0.1347656,0.03515625
5285,-0.375,18.4375,-9.6875,-0.6533203,-0.3989258,-0.08203125,0.2734375,0.1347656,0.03369141
5289,2.3125,3.0625,-5.8125,-0.699707,-0.5737305,-0.1591797,0.2709961,0.1337891,0.03613281
