Packet number,Gyroscope X (deg/s),Gyroscope Y (deg/s),Gyroscope Z (deg/s),Accelerometer X (g),Accelerometer Y (g),Accelerometer Z (g),Magnetometer X (G),Magnetometer Y (G),Magnetometer Z (G)
0,-2.375,-2.25,3.6875,-0.28125,0.9643555,-0.1669922,0.08789063,-0.3618164,0.105957
4,-2.25,-2.5625,3.625,-0.2851563,0.9643555,-0.1552734,0.08789063,-0.3642578,0.1044922
8,-2.3125,-2.75,3.875,-0.28125,0.9492188,-0.1552734,0.08789063,-0.3632813,0.1044922
12,-0.5,-2.4375,3.3125,-0.2851563,0.9453125,-0.1362305,0.08789063,-0.3618164,0.105957
16,0.1875,-3.1875,3.75,-0.28125,0.956543,-0.1474609,0.08691406,-0.3657227,0.1030273
20,0.1875,-3.375,3.625,-0.262207,0.956543,-0.1401367,0.08544922,-0.3632813,0.105957
24,-0.125,-1.8125,3.0625,-0.2543945,0.972168,-0.1401367,0.08691406,-0.3642578,0.1044922
28,-0.375,-1.125,2.75,-0.2661133,0.9643555,-0.1401367,0.08691406,-0.3642578,0.1030273
32,1.5,-0.4375,0.6875,-0.2504883,0.9604492,-0.1401367,0.08691406,-0.3632813,0.1030273
36,1,0.0625,0.5625,-0.262207,0.9799805,-0.1513672,0.08789063,-0.3642578,0.1044922
40,-0.75,1.6875,1.375,-0.2661133,0.972168,-0.1362305,0.08691406,-0.3642578,0.1044922
44,-1.3125,2.0625,2.0625,-0.2773438,0.956543,-0.1474609,0.08544922,-0.3666992,0.1044922
48,-0.3125,1.1875,1.875,-0.28125,0.953125,-0.1669922,0.08789063,-0.3642578,0.1044922
52,1.6875,0.75,0.4375,-0.262207,0.9414063,-0.1435547,0.08691406,-0.3657227,0.1044922
56,1.9375,1.6875,0,-0.28125,0.953125,-0.1591797,0.08691406,-0.3632813,0.1030273
60,0.5625,0.875,1.1875,-0.2851563,0.9604492,-0.1743164,0.08691406,-0.3642578,0.1044922
64,0.375,0.5625,0.9375,-0.28125,0.9453125,-0.1743164,0.08691406,-0.3632813,0.1044922
68,-0.5,0.5,2.25,-0.2773438,0.9492188,-0.1821289,0.08544922,-0.3642578,0.105957
72,-1.0625,-0.25,2.9375,-0.28125,0.953125,-0.1743164,0.08447266,-0.3657227,0.1044922
76,0.8125,-1,0.9375,-0.2583008,0.9492188,-0.1552734,0.08691406,-0.3657227,0.1030273
81,2.8125,-0.3125,-0.4375,-0.2504883,0.972168,-0.1513672,0.08544922,-0.3657227,0.1069336
85,2,0.375,-0.6875,-0.2661133,0.9916992,-0.1435547,0.08544922,-0.3642578,0.105957
89,1.875,0,-0.5625,-0.2773438,1.007324,-0.1591797,0.08544922,-0.3632813,0.1044922
93,4.0625,-1.4375,-1.5625,-0.2773438,1.026855,-0.1669922,0.08447266,-0.3603516,0.1044922
97,6.4375,-3.0625,-3.4375,-0.2851563,1.073242,-0.1552734,0.08544922,-0.3657227,0.105957
101,9.1875,-5,-5.8125,-0.28125,1.112305,-0.1323242,0.08544922,-0.3657227,0.1069336
105,13.5625,-7.9375,-10.875,-0.2890625,1.17041,-0.1206055,0.08691406,-0.3632813,0.1069336
109,16,-8.375,-14.6875,-0.262207,1.248047,-0.1054688,0.08789063,-0.3632813,0.1083984
113,16.5625,-0.3125,-15.625,-0.230957,1.32959,-0.09765625,0.08886719,-0.3603516,0.1113281
117,14.25,6.75,-19.875,-0.2734375,1.446289,-0.128418,0.09033203,-0.359375,0.1098633
121,7.6875,12.8125,-25.625,-0.2851563,1.512207,-0.1821289,0.09130859,-0.359375,0.1123047
125,0.125,15.0625,-32.75,-0.3588867,1.52002,-0.2055664,0.09375,-0.3579102,0.1113281
129,-1.375,14.9375,-40.8125,-0.4248047,1.422852,-0.2246094,0.09521484,-0.3579102,0.1123047
133,1.5,11.1875,-47.625,-0.4946289,1.349121,-0.2514648,0.09765625,-0.3569336,0.1137695
137,5.3125,3.3125,-52.25,-0.5605469,1.271484,-0.3129883,0.1020508,-0.3569336,0.1123047
141,8.75,-10.375,-58,-0.5834961,1.236328,-0.3168945,0.1079102,-0.3530273,0.1152344
145,7.6875,-19.5625,-59.8125,-0.5527344,1.158691,-0.3129883,0.1103516,-0.3505859,0.1113281
149,2.9375,-25.625,-59.5,-0.4829102,1.077148,-0.2397461,0.1186523,-0.3481445,0.1137695
153,-0.4375,-25.25,-59.75,-0.4013672,0.9760742,-0.1708984,0.1235352,-0.3491211,0.1137695
157,-1.375,-19.625,-60.5625,-0.3823242,0.9414063,-0.1708984,0.1269531,-0.3466797,0.1137695
161,-10.375,-11.75,-65.9375,-0.3549805,0.9414063,-0.1708984,0.1333008,-0.3432617,0.1113281
165,-21.5625,-4.1875,-66.375,-0.4130859,0.8598633,-0.2016602,0.1401367,-0.3417969,0.1098633
169,-33.375,-0.375,-60.3125,-0.4443359,0.7739258,-0.2285156,0.144043,-0.3417969,0.1069336
173,-37.1875,-2.8125,-54.0625,-0.4868164,0.7001953,-0.2246094,0.1484375,-0.3408203,0.1044922
177,-37.8125,-5,-48.125,-0.4443359,0.6381836,-0.2089844,0.1523438,-0.3378906,0.1015625
181,-31.1875,-6.625,-46.3125,-0.4521484,0.6264648,-0.2167969,0.1567383,-0.3378906,0.09912109
185,-23.125,-12,-50.6875,-0.4633789,0.6577148,-0.2553711,0.1606445,-0.3369141,0.09765625
189,-22.9375,-13.875,-56.4375,-0.4404297,0.6811523,-0.2514648,0.1650391,-0.3354492,0.09326172
193,-31.5625,-16.8125,-54,-0.4829102,0.6733398,-0.1899414,0.1713867,-0.3320313,0.09082031
197,-43.9375,-11.625,-37.375,-0.4208984,0.5683594,-0.112793,0.1723633,-0.3320313,0.08935547
201,-52.4375,-5.625,-18.9375,-0.4555664,0.5019531,-0.07080078,0.1772461,-0.3330078,0.08398438
205,-49.6875,0.0625,0.3125,-0.5175781,0.4829102,-0.109375,0.1757813,-0.3330078,0.07714844
210,-42,-12.6875,11,-0.6264648,0.5644531,-0.1821289,0.1772461,-0.3344727,0.07568359
214,-23.625,-39.5,-0.4375,-0.6376953,0.5839844,-0.1899414,0.1772461,-0.3369141,0.0703125
218,6.3125,-66.9375,-18.5,-0.6186523,0.6577148,-0.2324219,0.1772461,-0.3354492,0.06787109
222,7.625,-80.3125,-24.1875,-0.4672852,0.7817383,-0.09375,0.1831055,-0.3369141,0.06347656
226,-10.875,-68.625,-11,-0.2504883,0.7275391,0.1171875,0.1865234,-0.3330078,0.05957031
230,-27.1875,-38.5625,1.8125,-0.1381836,0.5913086,0.3330078,0.1865234,-0.3369141,0.05664063
234,-32,-4.9375,5,-0.1264648,0.5371094,0.355957,0.1879883,-0.3354492,0.05273438
238,-21.5625,9.9375,1.1875,-0.3745117,0.4204102,0.1826172,0.1879883,-0.3378906,0.04980469
242,-2.75,0.5,-0.25,-0.5214844,0.4516602,0.06347656,0.1865234,-0.3393555,0.05126953
246,8.5625,-4.625,3.875,-0.4711914,0.4946289,-0.04003906,0.1865234,-0.3378906,0.05126953
250,9.625,-2.4375,9.3125,-0.4829102,0.6459961,-0.09375,0.1865234,-0.3378906,0.04980469
254,2.1875,-1.5,16.25,-0.4907227,0.6381836,-0.1474609,0.1855469,-0.3378906,0.04980469
258,2.5625,-1.0625,22.0625,-0.4365234,0.6069336,-0.07080078,0.1855469,-0.3393555,0.05126953
262,11.25,-0.1875,22.3125,-0.3974609,0.6264648,-0.009277344,0.1831055,-0.3393555,0.04980469
266,15.4375,5.125,23.25,-0.378418,0.7158203,-0.04736328,0.1806641,-0.3393555,0.05273438
270,16.6875,4.4375,21.3125,-0.4248047,0.809082,-0.1015625,0.1796875,-0.3408203,0.05517578
274,14.375,3.5625,18.9375,-0.3974609,0.8520508,-0.07080078,0.1772461,-0.3408203,0.05419922
278,7.4375,9.875,20,-0.3706055,0.8481445,-0.02832031,0.1757813,-0.3393555,0.05517578
282,0.75,17.375,25.0625,-0.3935547,0.824707,-0.001464844,0.1738281,-0.3442383,0.05957031
286,-1.4375,21.9375,25.125,-0.4248047,0.8208008,0.001953125,0.1699219,-0.3442383,0.05810547
290,-0.4375,22.0625,26.6875,-0.4711914,0.7973633,-0.04736328,0.1699219,-0.3466797,0.05957031
294,4.6875,13.6875,24.375,-0.4946289,0.8012695,-0.05517578,0.1665039,-0.3457031,0.05957031
298,12.5625,5.75,21.125,-0.4594727,0.7705078,0.005859375,0.1650391,-0.3481445,0.06201172
302,16.5625,6.125,24.5,-0.3823242,0.7314453,0.05566406,0.1640625,-0.3481445,0.06201172
306,19.375,12.8125,30.3125,-0.3935547,0.7626953,-0.01660156,0.1616211,-0.3481445,0.06494141
310,20.1875,9.6875,32.875,-0.4672852,0.8364258,-0.09375,0.1582031,-0.3505859,0.06787109
314,20.8125,0.875,29,-0.4208984,0.8520508,-0.09765625,0.1547852,-0.3491211,0.0703125
318,19.3125,-4.25,21.0625,-0.3510742,0.875,-0.04394531,0.1547852,-0.3530273,0.06884766
322,14.625,-2,12.4375,-0.262207,0.7817383,0.04052734,0.1523438,-0.3520508,0.07177734
326,12.4375,9,16.4375,-0.1611328,0.6499023,0.09423828,0.1508789,-0.3505859,0.07177734
330,6.625,35.375,28.875,-0.1342773,0.6264648,0.09033203,0.1508789,-0.3491211,0.07421875
334,3.125,51.125,37.8125,-0.262207,0.6499023,-0.05908203,0.1459961,-0.3544922,0.07568359
339,0,46.4375,32.375,-0.362793,0.7001953,-0.1513672,0.1401367,-0.3530273,0.07861328
343,1.9375,31.5,25.125,-0.4287109,0.6499023,-0.1362305,0.1367188,-0.3569336,0.08105469
347,15.3125,17.875,17.4375,-0.4594727,0.6733398,-0.128418,0.1357422,-0.3554688,0.08398438
351,26.0625,5.375,10.375,-0.4287109,0.7548828,-0.1166992,0.1342773,-0.3554688,0.08398438
355,24.125,3.375,14.75,-0.2851563,0.8012695,-0.03222656,0.1318359,-0.3569336,0.08691406
359,13,18.3125,24.5,-0.1420898,0.8442383,0.01708984,0.1293945,-0.3569336,0.08789063
363,-0.5,38.375,27.6875,-0.1767578,0.9023438,0.04785156,0.128418,-0.3554688,0.09082031
367,-9.1875,46.375,28.5,-0.3046875,0.809082,0.01367188,0.125,-0.3579102,0.09228516
371,6.125,41.125,31.1875,-0.4169922,0.6459961,-0.08984375,0.1186523,-0.359375,0.09228516
375,31,23.625,30.1875,-0.4985352,0.7509766,-0.1743164,0.1166992,-0.3579102,0.09472656
379,43.875,1.125,21.6875,-0.4555664,0.855957,-0.2167969,0.1152344,-0.3554688,0.09912109
383,43,-10.375,16.5,-0.3164063,0.9257813,-0.1743164,0.112793,-0.3554688,0.1030273
387,32.1875,-4,21.125,-0.2270508,0.956543,-0.112793,0.1103516,-0.3569336,0.1069336
391,21.5,12.8125,29.75,-0.2001953,0.972168,-0.1054688,0.109375,-0.3554688,0.1083984
395,17.3125,23.0625,35.0625,-0.262207,1.045898,-0.2016602,0.105957,-0.3554688,0.1113281
399,8.375,21.4375,32.3125,-0.3164063,1.112305,-0.2592773,0.1035156,-0.3544922,0.1113281
403,3.25,14.6875,22.375,-0.3549805,1.12793,-0.2670898,0.09960938,-0.3554688,0.1123047
407,5.0625,4.375,15.625,-0.4013672,1.073242,-0.2783203,0.09863281,-0.3554688,0.1123047
411,10.75,-6.3125,13.6875,-0.4013672,1.04248,-0.2167969,0.09521484,-0.3554688,0.1137695
415,15.5625,-13.0625,14.5,-0.3125,1.015137,-0.2055664,0.09619141,-0.3569336,0.1152344
419,21.8125,-12.125,9.625,-0.2734375,1.057617,-0.2207031,0.09521484,-0.3554688,0.1152344
423,22.6875,-10,1.4375,-0.3242188,1.12793,-0.2670898,0.09375,-0.3569336,0.1166992
427,19.6875,-12.0625,-1.125,-0.3745117,1.143066,-0.2939453,0.09375,-0.3554688,0.1181641
431,15.4375,-15.0625,-0.875,-0.3974609,1.154785,-0.309082,0.09521484,-0.3544922,0.1181641
435,9.3125,-21.125,-3.5625,-0.4130859,1.186035,-0.3129883,0.09619141,-0.3544922,0.1191406
439,3.0625,-22,-10.125,-0.3549805,1.112305,-0.2167969,0.09765625,-0.3530273,0.1191406
443,3.375,-13.9375,-8.75,-0.3549805,0.987793,-0.1552734,0.09863281,-0.3520508,0.1191406
447,6.875,-4.6875,-3.9375,-0.4013672,0.9956055,-0.1591797,0.09863281,-0.3505859,0.1206055
451,6.125,-3.1875,2.0625,-0.4868164,1.057617,-0.1977539,0.09960938,-0.3520508,0.1206055
455,4.1875,-6.5625,8.3125,-0.5063477,1.081055,-0.2016602,0.1010742,-0.3505859,0.1235352
459,1.125,-8.3125,13.75,-0.4633789,1.100586,-0.2128906,0.09960938,-0.3520508,0.1206055
463,0.3125,-7.1875,10.625,-0.4091797,1.088867,-0.2207031,0.09765625,-0.3520508,0.1220703
468,6.1875,-2.875,3.375,-0.3935547,1.088867,-0.2475586,0.09863281,-0.3530273,0.1235352
472,6.6875,0.8125,2.6875,-0.4091797,1.124023,-0.2744141,0.09960938,-0.3505859,0.1220703
476,1.9375,2.75,6.1875,-0.4013672,1.120117,-0.2861328,0.09863281,-0.3520508,0.1220703
480,-0.9375,4,10.1875,-0.3745117,1.108398,-0.2744141,0.09863281,-0.3520508,0.1235352
484,-4.5625,7.3125,10.6875,-0.3432617,1.120117,-0.2631836,0.09619141,-0.3544922,0.1235352
488,-8.5,9,7.75,-0.378418,1.146973,-0.3129883,0.09619141,-0.3530273,0.1235352
492,-10.8125,7.9375,3.4375,-0.378418,1.100586,-0.3286133,0.09375,-0.3530273,0.1191406
496,-12.125,5.9375,2.5,-0.347168,1.06543,-0.324707,0.09521484,-0.3530273,0.1220703
500,-15.5625,5.75,2.25,-0.3320313,1.057617,-0.3129883,0.09277344,-0.3544922,0.1191406
504,-19.8125,8.25,2.5,-0.3046875,1.019043,-0.2705078,0.09277344,-0.3554688,0.1181641
508,-23.6875,10.1875,5.8125,-0.328125,0.9916992,-0.2514648,0.09277344,-0.3554688,0.1166992
512,-22.75,10,6.3125,-0.3320313,0.9643555,-0.2128906,0.09130859,-0.3579102,0.1181641
516,-15.625,7.6875,3.5,-0.3085938,0.9414063,-0.1743164,0.09130859,-0.3579102,0.1137695
520,-7.875,6.4375,-0.25,-0.3085938,0.9643555,-0.1435547,0.09130859,-0.3579102,0.1137695
524,-2.1875,3,-3.875,-0.3588867,0.9799805,-0.1782227,0.09033203,-0.3579102,0.1137695
528,2.875,-4.0625,-5.75,-0.3862305,1.057617,-0.2016602,0.09130859,-0.3579102,0.1137695
532,5.75,-8.1875,-6.125,-0.3706055,1.104492,-0.1821289,0.09130859,-0.3569336,0.1152344
536,11.5,-8.5625,-5.4375,-0.3320313,1.154785,-0.1860352,0.09130859,-0.3579102,0.1137695
540,18.3125,-6.1875,-8.125,-0.3242188,1.314453,-0.1899414,0.09375,-0.3579102,0.1152344
544,20,-0.25,-15.75,-0.2890625,1.422852,-0.2207031,0.09277344,-0.3554688,0.1152344
548,17.5625,7.25,-24.5625,-0.3164063,1.527832,-0.2631836,0.09521484,-0.3544922,0.1181641
552,14.125,13.5625,-33.375,-0.3935547,1.547363,-0.2861328,0.09765625,-0.3520508,0.1191406
556,18.0625,15.3125,-40.9375,-0.4672852,1.508301,-0.3051758,0.09863281,-0.3544922,0.1220703
560,26.6875,18.5625,-49.8125,-0.4711914,1.477539,-0.3901367,0.1020508,-0.3505859,0.1235352
564,31,23.1875,-57.875,-0.5292969,1.566895,-0.4594727,0.105957,-0.3466797,0.1274414
568,23.6875,27.9375,-66.4375,-0.5874023,1.601563,-0.5400391,0.109375,-0.3442383,0.1289063
572,9.8125,29.875,-72.0625,-0.6806641,1.574707,-0.5629883,0.1142578,-0.3432617,0.1313477
576,-2.25,30.125,-75.5,-0.6728516,1.372559,-0.5629883,0.1176758,-0.3393555,0.1303711
580,-4.6875,32.125,-83.4375,-0.7231445,1.32959,-0.5400391,0.1210938,-0.3369141,0.1342773
584,-11,31.25,-89.1875,-0.7890625,1.225098,-0.5786133,0.1259766,-0.3330078,0.1342773
588,-18.4375,21.5,-90.9375,-0.9169922,1.092773,-0.5825195,0.1318359,-0.3320313,0.1342773
592,-18.8125,-0.4375,-86.0625,-0.9907227,0.90625,-0.5898438,0.1376953,-0.3291016,0.1313477
597,-24.1875,-29.5625,-75.9375,-0.9946289,0.8364258,-0.4707031,0.144043,-0.3256836,0.1313477
601,-30.6875,-54.6875,-59.8125,-0.746582,0.6264648,-0.3129883,0.1508789,-0.3242188,0.1235352
605,-26.6875,-54,-49.4375,-0.3862305,0.4594727,-0.0859375,0.1567383,-0.3242188,0.1220703
609,-16.875,-39.75,-46.9375,-0.3125,0.4750977,-0.04394531,0.1630859,-0.3232422,0.1166992
613,-20.5625,-36.8125,-43.5,-0.3510742,0.4907227,-0.07470703,0.1689453,-0.3232422,0.1123047
617,-26.5,-45,-36.3125,-0.3706055,0.4438477,-0.04003906,0.1723633,-0.3242188,0.1113281
621,-33.75,-54.25,-24.875,-0.2504883,0.3583984,0.04052734,0.1782227,-0.3232422,0.105957
625,-33.75,-54.5,-20.1875,-0.1650391,0.3232422,0.1020508,0.1782227,-0.3232422,0.1015625
629,-25.6875,-57.75,-28,-0.1728516,0.3120117,0.1289063,0.1831055,-0.3232422,0.09765625
633,-14.4375,-55.75,-30.875,-0.09130859,0.3081055,0.2094727,0.1879883,-0.3208008,0.09082031
637,-18.0625,-44.4375,-26.4375,-0.08007813,0.3857422,0.2866211,0.1904297,-0.3193359,0.08935547
641,-27.8125,-28.0625,-17.8125,-0.05273438,0.4086914,0.3017578,0.1938477,-0.3193359,0.08398438
645,-36.4375,-2.0625,-4.625,-0.06835938,0.3701172,0.2402344,0.1962891,-0.3193359,0.08105469
649,-38.5,17.9375,1.4375,-0.2387695,0.4438477,0.09423828,0.1948242,-0.3208008,0.07861328
653,-28.375,17.9375,0.75,-0.4521484,0.4125977,-0.1743164,0.1938477,-0.3217773,0.08007813
657,-9.375,-2.8125,-8.875,-0.5410156,0.5253906,-0.2631836,0.1948242,-0.3217773,0.07421875
661,-2.75,-16.75,-12.3125,-0.4946289,0.5605469,-0.2553711,0.1948242,-0.3208008,0.07568359
665,-4.5625,-12.4375,-4.1875,-0.3549805,0.6225586,-0.1630859,0.1972656,-0.3217773,0.07421875
669,-15.3125,2,4.6875,-0.3549805,0.6577148,-0.1206055,0.1962891,-0.3208008,0.07324219
673,-17.25,7,9.5625,-0.4052734,0.6264648,-0.09765625,0.1948242,-0.3232422,0.07177734
677,-13.3125,8.375,11.25,-0.4482422,0.5800781,-0.0859375,0.1962891,-0.3232422,0.07324219
681,-0.9375,4.5625,14.4375,-0.5253906,0.6069336,-0.1474609,0.1928711,-0.3242188,0.0703125
685,6.4375,-4.9375,14.0625,-0.5834961,0.7197266,-0.1821289,0.1928711,-0.3256836,0.07177734
689,5.8125,-10.625,16.75,-0.5141602,0.7587891,-0.1401367,0.1938477,-0.3256836,0.07177734
693,2.3125,-7.5625,21.375,-0.4443359,0.777832,-0.0859375,0.1914063,-0.3266602,0.0703125
697,2.25,-3.9375,21.75,-0.4482422,0.7705078,-0.0859375,0.1904297,-0.328125,0.0703125
701,7.8125,-4.25,20,-0.4750977,0.777832,-0.112793,0.1889648,-0.328125,0.07324219
705,11.875,-8.5,17.875,-0.4985352,0.8168945,-0.1362305,0.1865234,-0.3291016,0.07177734
709,11.5,-12.1875,16.75,-0.4711914,0.855957,-0.1015625,0.1865234,-0.3305664,0.07324219
713,7.875,-10.5625,17.625,-0.4287109,0.8442383,-0.07470703,0.1855469,-0.3291016,0.07177734
717,5.5,-6.75,18,-0.4208984,0.824707,-0.07470703,0.184082,-0.3305664,0.07177734
721,1.3125,-5,19.0625,-0.4052734,0.8168945,-0.04394531,0.184082,-0.3320313,0.07324219
726,-1.5,-0.625,20.25,-0.3706055,0.7509766,-0.02441406,0.1821289,-0.3330078,0.07177734
730,-4.1875,4.5,23.6875,-0.3706055,0.6962891,-0.009277344,0.1806641,-0.3344727,0.06884766
734,-3.1875,7.4375,25,-0.378418,0.6186523,-0.005371094,0.1772461,-0.3344727,0.07421875
738,3.9375,7.6875,28.4375,-0.3862305,0.5683594,-0.001464844,0.1748047,-0.3369141,0.07177734
742,10.1875,5.375,33.0625,-0.3432617,0.5683594,0.005859375,0.1738281,-0.3369141,0.07324219
746,13.375,6.9375,34.9375,-0.3203125,0.5952148,0.02099609,0.1723633,-0.3408203,0.07324219
750,11.375,6.75,36.4375,-0.3125,0.5761719,0.04052734,0.1689453,-0.3417969,0.07568359
754,11.125,7.3125,39.0625,-0.2890625,0.5175781,0.04443359,0.1650391,-0.3417969,0.07568359
758,18.1875,9.0625,44.8125,-0.2543945,0.4516602,0.05175781,0.1606445,-0.3432617,0.07861328
762,37.75,12.5625,45.9375,-0.3164063,0.5058594,-0.04736328,0.1567383,-0.3457031,0.08105469
766,46,4.3125,44.8125,-0.4521484,0.7158203,-0.1513672,0.1547852,-0.3442383,0.08398438
770,37.75,-5.9375,46.125,-0.4130859,0.8520508,-0.1591797,0.1508789,-0.3481445,0.08935547
774,15.8125,-6.5625,49.75,-0.2890625,0.8828125,-0.09375,0.1474609,-0.3457031,0.08935547
778,-6.125,5.5,55.125,-0.1303711,0.8598633,-0.04736328,0.144043,-0.3481445,0.09082031
782,-20.4375,32.75,49,-0.09130859,0.8984375,0.005859375,0.1376953,-0.3520508,0.09326172
786,-28.125,56.9375,44.375,-0.2661133,0.7895508,-0.05517578,0.1367188,-0.3530273,0.09082031
790,-15.625,63.5,45.875,-0.4946289,0.824707,-0.2207031,0.128418,-0.3544922,0.09082031
794,-9.1875,46.875,42.3125,-0.6806641,0.9604492,-0.3012695,0.1225586,-0.3569336,0.09228516
798,-14.375,22.125,40.4375,-0.6572266,0.9995117,-0.2631836,0.1201172,-0.3579102,0.09228516
802,-27.6875,8.5625,42.1875,-0.4750977,0.9916992,-0.1513672,0.1152344,-0.3603516,0.09082031
806,-37.375,9.0625,49.8125,-0.296875,0.840332,-0.05126953,0.1103516,-0.3632813,0.08935547
810,-30.375,17.0625,53.625,-0.2119141,0.824707,0.01367188,0.1079102,-0.3642578,0.08691406
814,-17.4375,21.25,49.6875,-0.230957,0.9023438,-0.001464844,0.1020508,-0.3666992,0.08544922
818,-0.9375,14.625,35,-0.2851563,1.015137,-0.05517578,0.09619141,-0.3691406,0.08398438
822,8.1875,7.875,18,-0.246582,1.150879,-0.1015625,0.09521484,-0.3706055,0.08544922
826,-4.1875,8.6875,12.6875,-0.2041016,1.248047,-0.1015625,0.09277344,-0.3691406,0.08935547
830,-20.8125,16.4375,12.3125,-0.2001953,1.244141,-0.07080078,0.09130859,-0.3691406,0.08544922
834,-25.25,26.9375,12.0625,-0.2661133,1.182129,-0.128418,0.08886719,-0.3706055,0.08398438
838,-25.5625,27,7.1875,-0.3862305,1.217285,-0.1899414,0.08789063,-0.3706055,0.08251953
842,-27.8125,19.25,-0.375,-0.4248047,1.221191,-0.2207031,0.08691406,-0.3745117,0.07861328
846,-35.1875,13.625,-5.625,-0.4052734,1.20166,-0.1708984,0.08691406,-0.371582,0.08007813
850,-38.875,15.375,-5.0625,-0.4482422,1.100586,-0.08203125,0.08691406,-0.3745117,0.07421875
855,-33.6875,14.5625,1.8125,-0.5024414,1.01123,-0.04003906,0.08691406,-0.3769531,0.07177734
859,-23.25,6.625,8.625,-0.5756836,0.972168,-0.06298828,0.08447266,-0.3754883,0.0703125
863,-11,-7.75,14.25,-0.5214844,0.972168,-0.04003906,0.08447266,-0.3769531,0.06884766
867,2.5625,-16,12.9375,-0.4287109,1.019043,-0.05126953,0.08447266,-0.3754883,0.06787109
871,9.875,-17.0625,7.125,-0.3666992,1.131836,-0.05908203,0.08300781,-0.3779297,0.06884766
875,4.75,-13.3125,5.8125,-0.3706055,1.197754,-0.0859375,0.08300781,-0.3754883,0.06884766
879,-4.5625,-12.5,10.5,-0.347168,1.186035,-0.08984375,0.08203125,-0.3779297,0.06884766
883,-9.6875,-8.625,10,-0.3007813,1.174316,-0.04736328,0.08300781,-0.3779297,0.06640625
887,-14.6875,-0.1875,8.375,-0.328125,1.166504,-0.03222656,0.08203125,-0.3793945,0.06787109
891,-19.875,4.1875,11.375,-0.4013672,1.112305,-0.04003906,0.07958984,-0.3793945,0.06347656
895,-17.625,0.3125,14.875,-0.4443359,1.04248,-0.05908203,0.08056641,-0.3793945,0.06201172
899,-6.75,-7.375,14.75,-0.4482422,1.038574,-0.07080078,0.07861328,-0.3803711,0.06494141
903,4.5,-16.3125,11.125,-0.4169922,1.077148,-0.06298828,0.07714844,-0.3818359,0.06347656
907,8.5,-19,8.1875,-0.296875,1.143066,-0.04003906,0.07714844,-0.3803711,0.06201172
911,6.25,-11.5,4.3125,-0.2041016,1.162598,-0.001464844,0.07714844,-0.3803711,0.06347656
915,0.9375,2.75,0.5,-0.2001953,1.189941,-0.001464844,0.07714844,-0.3803711,0.06347656
919,-8.4375,12.5625,1.8125,-0.28125,1.162598,-0.02441406,0.07470703,-0.3803711,0.06103516
923,-15.5625,14.6875,4.625,-0.3393555,1.116211,-0.04003906,0.07617188,-0.3803711,0.06103516
927,-17.1875,10.9375,6.0625,-0.362793,1.045898,-0.03613281,0.07470703,-0.3803711,0.06103516
931,-10.4375,5,1.5625,-0.3393555,0.9838867,0.001953125,0.07373047,-0.3818359,0.05957031
935,-1.375,3.0625,-2,-0.2851563,0.972168,0.03662109,0.07470703,-0.3818359,0.05810547
939,4.75,6.25,-2.75,-0.2661133,0.9604492,0.08251953,0.07617188,-0.3818359,0.05810547
943,10.25,10.1875,-3.5,-0.28125,1.01123,0.05566406,0.07470703,-0.3833008,0.05957031
947,10.9375,11.3125,-2,-0.3007813,1.053711,0.04443359,0.07470703,-0.3818359,0.06103516
951,14.0625,11.9375,-2.5,-0.3320313,1.069336,0.01708984,0.07470703,-0.3803711,0.06494141
955,22.375,5.3125,-2,-0.3901367,1.116211,-0.01660156,0.07470703,-0.3803711,0.06494141
959,34.5,-1.8125,-7.1875,-0.3393555,1.197754,-0.03222656,0.07470703,-0.3818359,0.06787109
963,42.25,-2.0625,-11.5625,-0.3164063,1.345215,-0.005371094,0.07617188,-0.3803711,0.06884766
967,41.4375,4.8125,-16.1875,-0.296875,1.46582,-0.01660156,0.07617188,-0.3779297,0.07324219
971,37.1875,14.0625,-22.875,-0.262207,1.49707,-0.01318359,0.07958984,-0.3730469,0.07714844
975,33.25,26.6875,-32,-0.262207,1.500488,-0.05908203,0.07958984,-0.3745117,0.08105469
979,26.9375,37.0625,-36.8125,-0.3320313,1.469727,-0.1166992,0.08203125,-0.371582,0.08251953
984,28.375,37.9375,-41.375,-0.4208984,1.407715,-0.2089844,0.08447266,-0.3730469,0.08691406
988,38.8125,28.5,-51.625,-0.5175781,1.426758,-0.2861328,0.08544922,-0.3681641,0.08935547
992,48.0625,16.4375,-66.0625,-0.5566406,1.458008,-0.2978516,0.09033203,-0.3666992,0.09326172
996,44.5,13.625,-73.5,-0.4711914,1.469727,-0.2436523,0.09619141,-0.3632813,0.1000977
1000,28.3125,25.875,-71.6875,-0.4326172,1.415039,-0.2167969,0.09960938,-0.3579102,0.1030273
1004,10.25,38.3125,-64.3125,-0.4868164,1.349121,-0.2631836,0.1044922,-0.3603516,0.1069336
1008,1.875,39.875,-64.875,-0.5913086,1.228516,-0.3208008,0.109375,-0.3544922,0.105957
1012,8.4375,29.875,-71.625,-0.6533203,1.092773,-0.3325195,0.112793,-0.3530273,0.1069336
1016,21.75,16.1875,-75.5625,-0.6923828,1.01123,-0.3862305,0.1176758,-0.3520508,0.1113281
1020,30.375,2.875,-78.5625,-0.6806641,1.057617,-0.4091797,0.125,-0.3481445,0.1113281
1024,31.3125,-8.5625,-75.9375,-0.6845703,1.06543,-0.4628906,0.1293945,-0.3442383,0.1152344
1028,21.4375,-16.6875,-71.8125,-0.6186523,1.045898,-0.4902344,0.1357422,-0.3417969,0.1166992
1032,9.375,-25.125,-72.125,-0.5834961,1.026855,-0.5014648,0.1416016,-0.3354492,0.1181641
1036,-1.9375,-38.75,-77.375,-0.4907227,0.8481445,-0.4936523,0.1484375,-0.3344727,0.1166992
1040,-18.25,-55.25,-78.375,-0.4208984,0.6577148,-0.3823242,0.1533203,-0.3330078,0.1137695
1044,-20.8125,-63.8125,-81,-0.2119141,0.3505859,-0.1669922,0.1630859,-0.3266602,0.1083984
1048,-10.875,-63.375,-74.4375,-0.230957,0.1176758,-0.02050781,0.1699219,-0.3256836,0.1030273
1052,-14.5,-74.3125,-53.6875,-0.3549805,0.2148438,-0.01660156,0.1772461,-0.3242188,0.1000977
1056,-37.375,-91.6875,-33.375,-0.230957,0.2729492,0.005859375,0.1831055,-0.3208008,0.09472656
1060,-57.75,-81.9375,-21,0.008789063,0.1020508,0.1132813,0.1904297,-0.3193359,0.08398438
1064,-65,-59.0625,-8.75,0.09375,-0.04541016,0.2788086,0.1938477,-0.3217773,0.07861328
1068,-53.9375,-36.1875,1.5,-0.04882813,-0.1035156,0.3056641,0.1948242,-0.3242188,0.0703125
1072,-28.25,-27.625,4.625,-0.1845703,-0.04150391,0.2133789,0.1948242,-0.3266602,0.06494141
1076,-10.1875,-21.0625,3.8125,-0.215332,0.121582,0.1171875,0.1972656,-0.3256836,0.06494141
1080,-1.625,-10.125,6.5,-0.28125,0.2651367,0.01708984,0.1948242,-0.328125,0.06103516
1084,0.5,-4.3125,11.0625,-0.4443359,0.4086914,-0.1015625,0.1962891,-0.328125,0.06201172
1088,0.625,-8.1875,19,-0.5063477,0.5175781,-0.1362305,0.1928711,-0.3291016,0.06347656
1092,-0.25,-10.0625,25.9375,-0.4555664,0.5566406,-0.128418,0.1928711,-0.328125,0.06201172
1096,4,-5.6875,28.375,-0.4287109,0.6303711,-0.1513672,0.1928711,-0.3305664,0.05810547
1100,3.1875,-7.1875,25.8125,-0.4711914,0.7548828,-0.1552734,0.1889648,-0.3305664,0.05957031
1104,0.875,-6.5,24.4375,-0.4365234,0.7817383,-0.112793,0.1889648,-0.3330078,0.05957031
1108,0.625,-3.875,22.9375,-0.4130859,0.793457,-0.07080078,0.1855469,-0.3344727,0.05957031
1113,0.625,-2.625,21,-0.4404297,0.8442383,-0.06689453,0.184082,-0.3354492,0.05810547
1117,-1.125,-3.1875,20.625,-0.4711914,0.8598633,-0.05908203,0.1821289,-0.3354492,0.06103516
1121,-4.9375,-4.125,22.25,-0.4672852,0.8364258,-0.01660156,0.1806641,-0.3369141,0.06201172
1125,-5.9375,-3.0625,25.8125,-0.4208984,0.7739258,0.03271484,0.1796875,-0.3393555,0.05957031
1129,-4,1.0625,25.9375,-0.3588867,0.7548828,0.05175781,0.1782227,-0.3417969,0.05664063
1133,-2.125,7.5625,22.9375,-0.3666992,0.7705078,0.06738281,0.1748047,-0.3432617,0.05810547
1137,-3.4375,13.5,24,-0.4130859,0.7739258,0.06347656,0.1748047,-0.3457031,0.05957031
1141,-5.375,15.9375,28.5,-0.4672852,0.7236328,0.009765625,0.1723633,-0.3466797,0.05664063
1145,-1.125,12.75,29.4375,-0.4672852,0.6811523,-0.001464844,0.1689453,-0.3457031,0.05957031
1149,2.375,6.0625,27.125,-0.4326172,0.6772461,-0.02050781,0.1674805,-0.3481445,0.06103516
1153,0.875,5.875,24.125,-0.3354492,0.6733398,0.05566406,0.1650391,-0.3481445,0.05957031
1157,-3.625,12.0625,26.9375,-0.3354492,0.6459961,0.105957,0.1630859,-0.3491211,0.05957031
1161,-4.8125,18,32.9375,-0.3549805,0.5913086,0.125,0.1591797,-0.3505859,0.05957031
1165,5,19.5625,35.6875,-0.3666992,0.5878906,0.08251953,0.1567383,-0.3520508,0.06201172
1169,11.75,15.4375,34.875,-0.4091797,0.6811523,0.02490234,0.1533203,-0.3530273,0.06103516
1173,10.0625,7.625,31.75,-0.362793,0.7392578,0.005859375,0.1508789,-0.3544922,0.06347656
1177,8,6.5,27.8125,-0.3085938,0.7817383,0.02880859,0.1474609,-0.3554688,0.06640625
1181,0.9375,18.6875,32.25,-0.262207,0.8208008,0.04443359,0.1450195,-0.3569336,0.06640625
1185,-5,32.3125,38.0625,-0.3007813,0.8051758,-0.01318359,0.1425781,-0.3569336,0.06884766
1189,-4.625,35.1875,38.5,-0.4443359,0.875,-0.08203125,0.1391602,-0.359375,0.06787109
1193,-1.0625,25,39.6875,-0.5332031,0.855957,-0.1323242,0.1333008,-0.3603516,0.06884766
1197,9.8125,16.8125,42.5,-0.4672852,0.9414063,-0.1474609,0.1342773,-0.3632813,0.0703125
1201,14.3125,16.125,36.6875,-0.4365234,1.053711,-0.1782227,0.1269531,-0.3632813,0.07177734
1205,4.1875,17.375,30.25,-0.3862305,1.162598,-0.1938477,0.1235352,-0.3632813,0.07421875
1209,-16.6875,21.1875,26.875,-0.3510742,1.13916,-0.1591797,0.1210938,-0.3657227,0.07421875
1213,-34.0625,27.4375,24.0625,-0.4013672,1.061523,-0.08203125,0.1166992,-0.3666992,0.07324219
1217,-39.125,29.4375,23.25,-0.4829102,0.9414063,-0.009277344,0.1166992,-0.3681641,0.0703125
1221,-29.1875,23.1875,29.1875,-0.5449219,0.7509766,-0.01660156,0.1118164,-0.3691406,0.06884766
1225,-7.375,10.1875,34.375,-0.5175781,0.7353516,-0.05517578,0.109375,-0.3706055,0.06640625
1229,7.0625,-6.1875,30.875,-0.4633789,0.8364258,-0.07861328,0.1069336,-0.3730469,0.06884766
1233,16.375,-21.0625,24.875,-0.3666992,0.9257813,0.001953125,0.105957,-0.371582,0.06787109
1237,19.9375,-20.4375,19,-0.2583008,0.9956055,0.06738281,0.1020508,-0.371582,0.06884766
1242,14.875,-11.75,16.4375,-0.1923828,1.057617,0.125,0.1020508,-0.3706055,0.0703125
1246,7.0625,2.375,16.625,-0.1767578,1.049805,0.09814453,0.1010742,-0.3730469,0.07177734
1250,4.1875,9.375,18.9375,-0.230957,0.9838867,0.07519531,0.09765625,-0.371582,0.07324219
1254,14.75,9.375,14.3125,-0.3125,1.019043,0.02490234,0.09765625,-0.3730469,0.07421875
1258,26.875,3.5,5.5,-0.4521484,1.081055,-0.03222656,0.09619141,-0.371582,0.07568359
1262,34.6875,-7.5625,3.5625,-0.5024414,1.100586,-0.05908203,0.09619141,-0.3691406,0.07861328
1266,36.625,-14,5.0625,-0.4248047,1.131836,-0.04736328,0.09521484,-0.3706055,0.08007813
1270,26.25,-1.5,11.9375,-0.2583008,1.182129,-0.009277344,0.09375,-0.3706055,0.08251953
1274,10.875,24.375,14.8125,-0.1533203,1.12793,0.01367188,0.09521484,-0.3691406,0.08544922
1278,1.25,47.5625,12.9375,-0.2543945,1.084961,-0.09375,0.09130859,-0.3691406,0.08544922
1282,1,42.9375,4.5625,-0.4711914,1.04248,-0.2246094,0.09033203,-0.3681641,0.08789063
1286,10.5,21.5,-6.875,-0.5605469,0.9916992,-0.2475586,0.08886719,-0.371582,0.08935547
1290,21.0625,3.375,-10.125,-0.5332031,0.956543,-0.2285156,0.08886719,-0.3691406,0.09228516
1294,24.3125,-7.625,-5.1875,-0.4555664,0.9643555,-0.2055664,0.08886719,-0.3681641,0.09326172
1298,22.6875,-9.125,-3.375,-0.3125,0.972168,-0.1782227,0.09033203,-0.3681641,0.09472656
1302,19.1875,-2.75,-5.375,-0.1884766,0.953125,-0.1669922,0.08886719,-0.3657227,0.09472656
1306,21.875,3.4375,-13.9375,-0.2119141,0.9257813,-0.1899414,0.09130859,-0.3657227,0.09619141
1310,25,3.125,-22.3125,-0.3393555,0.9643555,-0.2167969,0.09277344,-0.3642578,0.1000977
1314,23,-2.8125,-23.1875,-0.4672852,0.972168,-0.2744141,0.09521484,-0.3618164,0.1015625
1318,16.3125,-9.5,-13.1875,-0.4946289,1.019043,-0.2939453,0.09521484,-0.3618164,0.1030273
1322,6.125,-12.375,-5.75,-0.4443359,1.061523,-0.2744141,0.09619141,-0.359375,0.1030273
1326,-0.125,-8.1875,-2.5625,-0.3974609,1.09668,-0.2363281,0.09619141,-0.359375,0.1044922
1330,-4.6875,1.3125,-1.8125,-0.378418,1.092773,-0.2246094,0.09960938,-0.3618164,0.1030273
1334,-7.9375,8.625,-1.25,-0.4404297,1.112305,-0.2553711,0.09863281,-0.3603516,0.1044922
1338,-9.25,7.9375,0.625,-0.5214844,1.088867,-0.2822266,0.09765625,-0.3603516,0.1044922
1342,-6.4375,-0.375,1.125,-0.5332031,1.069336,-0.2514648,0.09863281,-0.3618164,0.1030273
1346,1.5625,-8.5625,-0.75,-0.5141602,1.034668,-0.2324219,0.09863281,-0.3603516,0.1015625
1350,4,-15.375,0.625,-0.4711914,1.045898,-0.1977539,0.09765625,-0.3603516,0.1015625
1354,6.0625,-17.625,-0.75,-0.3935547,1.022949,-0.1474609,0.09863281,-0.3603516,0.1000977
1358,6.8125,-12.5625,-3.4375,-0.3242188,1.053711,-0.1054688,0.09863281,-0.3603516,0.1030273
1362,2.5,-5.1875,-3,-0.3242188,1.04248,-0.09375,0.1010742,-0.359375,0.1030273
1366,-2.6875,1.0625,1,-0.3549805,1.061523,-0.112793,0.09960938,-0.359375,0.1015625
1371,-7.8125,2.625,3.75,-0.3901367,1.04248,-0.128418,0.1010742,-0.3603516,0.1030273
1375,-4.75,1.5625,-0.25,-0.3935547,1.007324,-0.1323242,0.09960938,-0.3603516,0.1000977
1379,2.6875,-0.0625,-3.3125,-0.3862305,0.9956055,-0.1054688,0.09960938,-0.3618164,0.09765625
1383,12.125,0.5625,-6.875,-0.4013672,1.049805,-0.1362305,0.1010742,-0.3603516,0.1015625
1387,18.375,-1.0625,-8.375,-0.4750977,1.178223,-0.1630859,0.1020508,-0.359375,0.1044922
1391,22.5,-1.3125,-11.25,-0.4672852,1.291016,-0.1669922,0.09960938,-0.359375,0.1030273
1395,26.4375,4.875,-15,-0.4521484,1.411133,-0.1591797,0.1010742,-0.3569336,0.1083984
1399,20.375,19.1875,-16.75,-0.4248047,1.49707,-0.1743164,0.1044922,-0.3569336,0.1098633
1403,9.5,34.5625,-18.875,-0.4672852,1.49707,-0.2397461,0.1035156,-0.3554688,0.1113281
1407,5.5625,42.6875,-22.4375,-0.5488281,1.39209,-0.2939453,0.1044922,-0.3544922,0.1123047
1411,13.375,40.875,-28.5,-0.6225586,1.275391,-0.3901367,0.1044922,-0.3530273,0.1137695
1415,23.0625,34.4375,-34.75,-0.6650391,1.279297,-0.4169922,0.105957,-0.3530273,0.1181641
1419,28.6875,31.375,-37.625,-0.6767578,1.317871,-0.4438477,0.1069336,-0.3505859,0.1181641
1423,23.9375,31.3125,-41.6875,-0.6845703,1.345215,-0.4746094,0.1079102,-0.3491211,0.1206055
1427,13,30.8125,-37.5,-0.730957,1.306641,-0.4667969,0.1103516,-0.3457031,0.1235352
1431,3.875,23.1875,-31.4375,-0.7734375,1.186035,-0.4516602,0.1118164,-0.3432617,0.1274414
1435,8.1875,11.75,-28.9375,-0.6689453,1.030762,-0.3862305,0.1142578,-0.3432617,0.1303711
1439,25.1875,5.0625,-35,-0.6147461,0.972168,-0.394043,0.1142578,-0.3408203,0.1274414
1443,36.8125,-3.5,-40.875,-0.6455078,1.061523,-0.3554688,0.1176758,-0.3369141,0.1313477
1447,33.75,-11.4375,-39.875,-0.6376953,1.120117,-0.2978516,0.1210938,-0.3354492,0.1342773
1451,22.9375,-15.625,-36.5625,-0.5952148,1.154785,-0.3168945,0.1235352,-0.3344727,0.1357422
1455,12.5625,-20.5625,-41.8125,-0.4946289,1.143066,-0.2744141,0.128418,-0.3305664,0.1342773
1459,2.0625,-19.1875,-47.3125,-0.4248047,1.019043,-0.2592773,0.1342773,-0.3305664,0.1357422
1463,0.5625,-19.5,-56.8125,-0.4248047,0.890625,-0.2246094,0.1376953,-0.3291016,0.1342773
1467,4.875,-31,-62.5625,-0.4907227,0.7973633,-0.2861328,0.1416016,-0.3256836,0.1313477
1471,-3.0625,-39.5,-63.5,-0.4287109,0.8051758,-0.2514648,0.1508789,-0.3217773,0.1342773
1475,-25.9375,-42.1875,-53.125,-0.4208984,0.7158203,-0.2089844,0.1547852,-0.3208008,0.1289063
1479,-41.625,-41.875,-41.75,-0.2929688,0.5410156,-0.1435547,0.1606445,-0.3208008,0.1259766
1483,-34.0625,-42.9375,-50.4375,-0.3046875,0.2768555,-0.1860352,0.1665039,-0.3208008,0.1191406
1487,-14.5625,-58.9375,-55.1875,-0.3432617,0.2495117,-0.1552734,0.1699219,-0.3193359,0.1181641
1491,-12.375,-68.625,-50.125,-0.3242188,0.3740234,-0.1860352,0.1757813,-0.3168945,0.1123047
1495,-43.375,-69.625,-37.0625,-0.1459961,0.4594727,-0.04736328,0.1831055,-0.3168945,0.1083984
1500,-80.4375,-42.875,-22.625,0.09765625,0.2416992,0.144043,0.184082,-0.3168945,0.1015625
1504,-89.625,-7.75,-11.125,0.07080078,-0.03759766,0.2558594,0.1879883,-0.3178711,0.09326172
1508,-70.8125,10.125,-11.6875,-0.2001953,-0.1230469,0.1479492,0.1879883,-0.3208008,0.08544922
1512,-41.3125,4.75,-8.875,-0.4091797,-0.08398438,-0.009277344,0.1914063,-0.3232422,0.08105469
1516,-11.3125,-8.4375,-1.5625,-0.5410156,0.04394531,-0.1899414,0.1889648,-0.3232422,0.08007813
1520,2.6875,-20.8125,9.8125,-0.4594727,0.2885742,-0.2514648,0.1904297,-0.3217773,0.08007813
1524,5.125,-20.875,19.6875,-0.3935547,0.4477539,-0.2822266,0.1914063,-0.3242188,0.07861328
1528,3.3125,-19.375,20.75,-0.362793,0.6264648,-0.2397461,0.1914063,-0.3242188,0.07861328
1532,-2.9375,-11.375,20,-0.2700195,0.6733398,-0.1782227,0.1879883,-0.3266602,0.07714844
1536,-4.6875,-1.6875,16.8125,-0.3510742,0.7431641,-0.2089844,0.1865234,-0.3266602,0.07568359
1540,-8.5,-2.125,15.5,-0.4521484,0.8129883,-0.1938477,0.1855469,-0.3305664,0.07568359
1544,-13.6875,-3.3125,16.3125,-0.4365234,0.7705078,-0.1474609,0.1855469,-0.3291016,0.07568359
1548,-15.6875,0.4375,19.0625,-0.4790039,0.7431641,-0.06689453,0.1855469,-0.3305664,0.07177734
1552,-12.5,-1.625,22.5,-0.5214844,0.6772461,-0.009277344,0.184082,-0.3330078,0.07177734
1556,-4.125,-4.0625,23.1875,-0.4946289,0.6694336,0.03271484,0.1806641,-0.3344727,0.07324219
1560,2.5,-4.4375,25,-0.4790039,0.6694336,0.05957031,0.1796875,-0.3330078,0.07177734
1564,7.25,-3.1875,25.875,-0.4555664,0.7001953,0.03271484,0.1772461,-0.3344727,0.07177734
1568,5.1875,-2.9375,28.1875,-0.4326172,0.7158203,0.02490234,0.1772461,-0.3369141,0.0703125
1572,2.625,2.75,32.25,-0.3549805,0.6616211,0.07519531,0.1738281,-0.3369141,0.07421875
1576,1.25,11.4375,36.0625,-0.328125,0.6225586,0.105957,0.1713867,-0.3393555,0.07324219
1580,2.3125,16.6875,40.125,-0.2773438,0.5605469,0.1132813,0.1665039,-0.3408203,0.07421875
1584,7.3125,22.75,38,-0.2851563,0.5839844,0.05175781,0.1640625,-0.3432617,0.07421875
1588,6.75,23.5625,35.9375,-0.3745117,0.6342773,-0.07861328,0.1606445,-0.3442383,0.07714844
1592,3.1875,20,34.25,-0.4287109,0.6811523,-0.1513672,0.1567383,-0.3457031,0.07568359
1596,-2.625,11.125,35.6875,-0.4248047,0.6538086,-0.1513672,0.1533203,-0.3466797,0.08007813
1600,-7.75,8.75,37.125,-0.3085938,0.6577148,-0.08984375,0.1508789,-0.3491211,0.08007813
1604,-12.6875,16.3125,39.1875,-0.2426758,0.6538086,-0.02050781,0.1474609,-0.3505859,0.07861328
1608,-9.375,25.5625,40.25,-0.2504883,0.6186523,-0.04394531,0.144043,-0.3520508,0.07861328
1612,4,17.25,34.1875,-0.4013672,0.6923828,-0.1708984,0.1391602,-0.3530273,0.07861328
1616,12.5,-1.4375,25,-0.4052734,0.8168945,-0.1708984,0.1376953,-0.3554688,0.08007813
1620,13.3125,-5.3125,16.625,-0.3706055,0.8867188,-0.08203125,0.1367188,-0.3544922,0.08105469
1624,11.75,-4.375,17.0625,-0.4091797,0.8828125,-0.07470703,0.1342773,-0.3554688,0.08105469
1629,2.875,-1.8125,21.375,-0.3354492,0.9799805,-0.08203125,0.1318359,-0.3554688,0.08398438
1633,-9.6875,6.625,15.5625,-0.1845703,0.9916992,-0.04394531,0.1308594,-0.3569336,0.08251953
1637,-21.875,23.125,2.75,-0.1962891,0.9604492,0.001953125,0.1308594,-0.3579102,0.08251953
1641,-31.5,35.8125,6.75,-0.3745117,0.8710938,-0.05126953,0.128418,-0.3569336,0.08105469
1645,-31.625,25.1875,18.0625,-0.5371094,0.8051758,-0.09765625,0.128418,-0.3579102,0.08007813
1649,-18.125,4,21.375,-0.4868164,0.8208008,-0.112793,0.1259766,-0.3603516,0.07861328
1653,-6.5,-4,10.375,-0.3393555,0.9604492,-0.04003906,0.125,-0.359375,0.07714844
1657,0.6875,8.4375,-2.625,-0.2890625,0.9916992,-0.05908203,0.1235352,-0.3618164,0.07861328
1661,0.75,19.625,-8.5,-0.4594727,1.108398,-0.1977539,0.125,-0.3632813,0.07714844
1665,-7.8125,16.3125,-8.6875,-0.6342773,1.221191,-0.309082,0.1235352,-0.3603516,0.08007813
1669,-23.5,3.3125,-5.6875,-0.6884766,1.251953,-0.2861328,0.1235352,-0.3618164,0.07861328
1673,-38.75,-6.5,-0.4375,-0.5834961,1.205566,-0.1669922,0.1235352,-0.3632813,0.07568359
1677,-42.125,-1.8125,-5.8125,-0.5410156,1.108398,-0.07470703,0.1235352,-0.3632813,0.0703125
1681,-41.9375,4.1875,-5,-0.5644531,0.9995117,-0.005371094,0.125,-0.3618164,0.06884766
1685,-34.625,0.0625,0.625,-0.6728516,0.921875,-0.001464844,0.125,-0.3642578,0.06640625
1689,-15.5,-21.3125,0.6875,-0.7426758,0.9453125,0.005859375,0.1259766,-0.3657227,0.06347656
1693,10.25,-42,-9.125,-0.6689453,0.987793,0.07910156,0.1259766,-0.3642578,0.05957031
1697,27.6875,-43.875,-16.8125,-0.5102539,1.003418,0.125,0.128418,-0.3632813,0.05957031
1701,32.3125,-26.625,-13.0625,-0.4711914,1.116211,0.08642578,0.1293945,-0.3632813,0.06201172
1705,20.875,-10.5,-4.25,-0.5253906,1.244141,-0.02050781,0.1308594,-0.3618164,0.06201172
1709,4.75,-1.125,1.6875,-0.6030273,1.291016,-0.1245117,0.1293945,-0.3618164,0.06640625
1713,-6.75,-1.4375,1.875,-0.6962891,1.255859,-0.1743164,0.1318359,-0.3618164,0.06494141
1717,-6.4375,-6.6875,0.9375,-0.6884766,1.143066,-0.1552734,0.1308594,-0.3632813,0.06347656
1721,-2.375,-8.8125,-0.3125,-0.6225586,1.081055,-0.09375,0.1308594,-0.3618164,0.06201172
1725,1.3125,-8.6875,0.3125,-0.6030273,1.045898,-0.08984375,0.1308594,-0.3618164,0.06347656
1729,-3.1875,-8.25,4.5,-0.5756836,1.084961,-0.07861328,0.1318359,-0.3632813,0.06494141
1733,-10.125,-4.5,8.75,-0.5175781,1.022949,-0.04394531,0.1308594,-0.3618164,0.06201172
1737,-14.4375,-1.0625,11,-0.5063477,0.9838867,-0.02441406,0.1293945,-0.3642578,0.05957031
1741,-16.625,-1.375,11.4375,-0.4985352,0.90625,0.001953125,0.1308594,-0.3618164,0.06103516
1745,-13.3125,-2.625,11.0625,-0.4790039,0.8442383,0.04785156,0.128418,-0.3642578,0.05810547
1749,-4.25,-2.125,8.1875,-0.4907227,0.8129883,0.07519531,0.1308594,-0.3657227,0.05664063
1753,4.625,-4.125,8.3125,-0.5332031,0.824707,0.07519531,0.128418,-0.3657227,0.05810547
1758,11.625,-8,11.9375,-0.5141602,0.8442383,0.06738281,0.1269531,-0.3666992,0.05664063
1762,18.5,-9.875,13,-0.4672852,0.8984375,0.04052734,0.1259766,-0.3657227,0.05957031
1766,18.5625,-6.625,11.6875,-0.3901367,0.9799805,0.03271484,0.125,-0.3666992,0.05957031
1770,13.1875,2.6875,10.75,-0.3549805,0.9956055,0.02490234,0.125,-0.3657227,0.06103516
1774,9.125,10.3125,7.875,-0.3706055,1.01123,-0.005371094,0.1225586,-0.3642578,0.06201172
1778,5.1875,12.8125,6.3125,-0.4555664,0.9956055,-0.02441406,0.1210938,-0.3642578,0.06201172
1782,4.1875,10.9375,6.5,-0.4985352,0.9643555,-0.02832031,0.1210938,-0.3657227,0.06494141
1786,6.9375,7.25,8.125,-0.5175781,0.9492188,-0.02441406,0.1201172,-0.3657227,0.06494141
1790,11.625,4.6875,10.0625,-0.4868164,0.9760742,-0.02832031,0.1186523,-0.3681641,0.06640625
1794,14.875,4.3125,11.1875,-0.4672852,1.049805,-0.04003906,0.1210938,-0.3681641,0.06640625
1798,20.4375,5,7.5,-0.4711914,1.112305,-0.02441406,0.1166992,-0.3666992,0.06787109
1802,27.75,3.125,2.625,-0.5024414,1.213379,-0.01318359,0.1176758,-0.3666992,0.0703125
1806,36.1875,3.5,-1,-0.4633789,1.263672,-0.01660156,0.1166992,-0.3642578,0.07324219
1810,50.3125,9.375,-7.8125,-0.4790039,1.415039,-0.1015625,0.1176758,-0.3642578,0.07568359
1814,48.5,14.125,-20.125,-0.5449219,1.632813,-0.1630859,0.1186523,-0.3618164,0.08105469
1818,31.0625,16.4375,-24.25,-0.5683594,1.625,-0.1630859,0.1210938,-0.3603516,0.08544922
1822,15.125,28.4375,-24.625,-0.5141602,1.562988,-0.1245117,0.1210938,-0.3579102,0.08789063
1826,0,43.625,-22.875,-0.5175781,1.415039,-0.112793,0.1210938,-0.3554688,0.08789063
1830,1.5,54.4375,-24.1875,-0.5644531,1.275391,-0.1743164,0.1225586,-0.3569336,0.08935547
1834,15.4375,51.875,-36.6875,-0.699707,1.248047,-0.2246094,0.1210938,-0.3544922,0.09472656
1838,25.9375,38.5625,-49.25,-0.7543945,1.221191,-0.2670898,0.1259766,-0.3544922,0.09472656
1842,32.5,27.875,-55.0625,-0.78125,1.178223,-0.2324219,0.128418,-0.3505859,0.1000977
1846,33.8125,23.25,-51.5625,-0.7504883,1.100586,-0.2397461,0.1293945,-0.3457031,0.1030273
1850,35.1875,20.0625,-46.25,-0.7734375,1.104492,-0.2783203,0.1342773,-0.3442383,0.1083984
1854,31.625,12.25,-46.25,-0.7192383,1.053711,-0.3129883,0.1367188,-0.3432617,0.1113281
1858,32.375,4.25,-50.25,-0.6689453,0.9760742,-0.2822266,0.1376953,-0.3378906,0.1137695
1862,29.375,1.4375,-52.6875,-0.5566406,0.8984375,-0.3208008,0.1425781,-0.3369141,0.1152344
1866,23.5625,3.5,-52.25,-0.5488281,0.8481445,-0.3476563,0.1459961,-0.3330078,0.1181641
1870,12.5625,2.9375,-49.625,-0.5644531,0.809082,-0.4208984,0.1508789,-0.3291016,0.1181641
1874,-10.0625,0.375,-39.9375,-0.5175781,0.777832,-0.4208984,0.1547852,-0.3266602,0.1181641
1878,-47.125,8.9375,-25.0625,-0.3974609,0.6499023,-0.4208984,0.1582031,-0.328125,0.1166992
1882,-68.3125,11.3125,-7.3125,-0.5756836,0.4516602,-0.4248047,0.1591797,-0.328125,0.1137695
1887,-53.125,-13.6875,-1.875,-0.7426758,0.21875,-0.5131836,0.1591797,-0.3291016,0.1098633
1891,-9.5625,-60.5,-6.25,-0.7851563,0.2963867,-0.5283203,0.1591797,-0.3330078,0.1069336
1895,12.6875,-108.25,-13.4375,-0.5683594,0.5644531,-0.4438477,0.1630859,-0.3305664,0.1000977
1899,2.8125,-123.3125,-19.1875,-0.215332,0.7973633,-0.324707,0.1665039,-0.3320313,0.1000977
1903,-38.125,-108.125,-25.75,0.05908203,0.921875,-0.109375,0.1738281,-0.3305664,0.09082031
1907,-87.75,-85.25,-40.625,0.159668,0.6420898,0.09814453,0.1796875,-0.3305664,0.08105469
1911,-102.125,-62,-45.5,0.1674805,0.1796875,0.3330078,0.1831055,-0.3305664,0.07324219
1915,-85.0625,-37.875,-41.6875,-0.02587891,-0.06835938,0.3979492,0.1879883,-0.3320313,0.06103516
1919,-63.25,-28.75,-29.8125,-0.2041016,-0.04150391,0.3979492,0.1928711,-0.3330078,0.05126953
1923,-50.1875,-17.5,-18.3125,-0.1884766,0.04003906,0.3945313,0.1948242,-0.3330078,0.04882813
1927,-38.625,3.3125,-8.625,-0.215332,0.09423828,0.2983398,0.1962891,-0.3330078,0.04199219
1931,-29.8125,17.5,3.625,-0.4091797,0.1835938,0.09423828,0.1972656,-0.3330078,0.04199219
1935,-16.3125,11.8125,17.125,-0.6108398,0.2612305,-0.09765625,0.1972656,-0.3320313,0.0390625
1939,-2.875,-5,28.875,-0.6342773,0.3779297,-0.1015625,0.1948242,-0.3344727,0.04052734
1943,11.0625,-14.6875,37.4375,-0.4672852,0.4516602,-0.06689453,0.1904297,-0.3369141,0.0390625
1947,22.125,-10,34.3125,-0.3393555,0.6772461,-0.04394531,0.1889648,-0.3393555,0.04052734
1951,16.4375,-1,25.6875,-0.3164063,0.8364258,-0.04394531,0.1855469,-0.3393555,0.04296875
1955,6.625,10.25,24.0625,-0.362793,0.8632813,-0.06689453,0.1831055,-0.3408203,0.04296875
1959,-1.6875,14.0625,24.9375,-0.4404297,0.8364258,-0.09375,0.184082,-0.3408203,0.04296875
1963,-2.4375,12.625,24.1875,-0.4946289,0.8364258,-0.109375,0.1806641,-0.3417969,0.04296875
1967,-5.625,8,23.875,-0.5141602,0.840332,-0.07861328,0.1772461,-0.3457031,0.04589844
1971,-8.1875,5.9375,26,-0.4946289,0.7817383,-0.02441406,0.1772461,-0.3442383,0.04736328
1975,-6.625,3.1875,25.875,-0.4790039,0.7353516,0.01367188,0.1748047,-0.3466797,0.04296875
1979,-2.1875,1.5,26.1875,-0.4521484,0.6655273,0.05957031,0.1723633,-0.3481445,0.04296875
1983,3.875,1.25,27.25,-0.4052734,0.6459961,0.09423828,0.1689453,-0.3505859,0.04296875
1987,4.9375,2.4375,29.5625,-0.362793,0.6577148,0.09033203,0.1699219,-0.3505859,0.04296875
1991,2.375,7.6875,32.875,-0.3125,0.6499023,0.09033203,0.1665039,-0.3530273,0.04296875
1995,-0.8125,13.5,36.8125,-0.3320313,0.6186523,0.09423828,0.1616211,-0.3530273,0.04443359
1999,-0.0625,14.375,41.625,-0.3549805,0.5722656,0.09423828,0.1591797,-0.3544922,0.04589844
2003,5.25,13.25,47.375,-0.3203125,0.5410156,0.08642578,0.1557617,-0.3569336,0.04736328
2007,14.9375,13.1875,47.875,-0.3085938,0.5878906,0.08642578,0.1508789,-0.3579102,0.04736328
2011,17.6875,9.5,44.875,-0.2543945,0.6733398,0.06738281,0.1499023,-0.3603516,0.04980469
2016,12.25,14.875,38.1875,-0.1728516,0.7353516,0.1210938,0.144043,-0.3618164,0.05273438
2020,7.625,25.3125,36.75,-0.2700195,0.7353516,0.1020508,0.1401367,-0.3603516,0.05273438
2024,11.0625,25.375,42.125,-0.3901367,0.7197266,-0.01660156,0.1367188,-0.3618164,0.05810547
2028,20.875,12.8125,41.125,-0.4248047,0.777832,-0.07470703,0.1318359,-0.3642578,0.05664063
2032,25.9375,1.9375,36.875,-0.3354492,0.8867188,-0.08203125,0.1293945,-0.3657227,0.05957031
2036,15.3125,3.75,32.625,-0.2700195,1.026855,-0.06689453,0.1259766,-0.3657227,0.06103516
2040,-2.6875,10.875,29.4375,-0.2426758,1.104492,-0.02441406,0.1225586,-0.3657227,0.06201172
2044,-22,18,24.8125,-0.2270508,1.030762,-0.01660156,0.1210938,-0.3691406,0.06201172
2048,-34.0625,23.75,20.25,-0.1767578,0.921875,-0.009277344,0.1186523,-0.3691406,0.06103516
2052,-36,30.0625,12.4375,-0.1767578,0.793457,0.05957031,0.1166992,-0.371582,0.05957031
2056,-26.75,33.125,6,-0.3242188,0.7626953,0.03662109,0.1166992,-0.3730469,0.05664063
2060,-10.9375,27.125,9.9375,-0.5063477,0.7353516,0.009765625,0.1142578,-0.3730469,0.05517578
2064,8.8125,13.125,8.875,-0.5644531,0.8828125,-0.09375,0.112793,-0.371582,0.05517578
2068,8.1875,-0.5,10,-0.4868164,1.104492,-0.112793,0.1118164,-0.3730469,0.05810547
2072,-12.9375,-2.4375,12.625,-0.3549805,1.225098,-0.09765625,0.1103516,-0.371582,0.05664063
2076,-38,4.0625,6.6875,-0.2583008,1.209473,-0.03222656,0.109375,-0.3754883,0.05273438
2080,-49.1875,18.9375,-3.125,-0.2504883,1.069336,0.07128906,0.109375,-0.3745117,0.05273438
2084,-44.4375,34.0625,-3.0625,-0.4208984,0.8984375,0.07519531,0.109375,-0.3754883,0.04980469
2088,-31.8125,30.5625,7.9375,-0.6806641,0.8828125,0.005859375,0.1069336,-0.3754883,0.04736328
2092,-8.625,4.0625,14.5625,-0.765625,0.8828125,-0.07080078,0.1069336,-0.3769531,0.04589844
2096,18.6875,-25.875,4.0625,-0.6650391,0.9956055,-0.08984375,0.105957,-0.3769531,0.04296875
2100,35.8125,-40.875,-11.75,-0.4790039,1.077148,-0.03613281,0.105957,-0.3754883,0.04736328
2104,38.8125,-34.9375,-23.5,-0.362793,1.182129,0.03271484,0.1079102,-0.3754883,0.04980469
2108,31.25,-19.875,-26.75,-0.3935547,1.189941,0.02099609,0.1118164,-0.3754883,0.04980469
2112,14.875,-5.125,-22.375,-0.4985352,1.178223,0.02880859,0.1142578,-0.371582,0.05419922
2116,3.3125,2.625,-8.25,-0.6533203,1.061523,-0.03613281,0.1152344,-0.3730469,0.05273438
2120,-3.125,-1.8125,3.25,-0.7348633,1.019043,-0.02832031,0.1166992,-0.3691406,0.05517578
2124,6.6875,-9.1875,7.4375,-0.6767578,0.8984375,0.001953125,0.1166992,-0.371582,0.05419922
2128,30.375,-14.6875,-1.8125,-0.5722656,0.8984375,0.005859375,0.1152344,-0.371582,0.05419922
2132,49.8125,-17.5625,-12.125,-0.5292969,0.9296875,-0.02441406,0.1166992,-0.3706055,0.05664063
2136,55.25,-19.625,-13.375,-0.5141602,1.015137,-0.07470703,0.1176758,-0.3666992,0.06103516
2140,50.25,-21.75,-8,-0.5605469,1.120117,-0.1206055,0.1186523,-0.3681641,0.06787109
2145,31.5,-23.3125,1,-0.5527344,1.217285,-0.1245117,0.1201172,-0.3642578,0.06787109
2149,5.5625,-19.1875,13.8125,-0.4946289,1.236328,-0.1054688,0.1176758,-0.3657227,0.06884766
2153,-17,-8.125,21.75,-0.3823242,1.150879,-0.05126953,0.1176758,-0.3666992,0.0703125
2157,-22.75,2.625,18.8125,-0.3549805,0.9995117,-0.02050781,0.1166992,-0.3666992,0.06494141
2161,-9.9375,7.1875,6.5,-0.3901367,0.8671875,0.009765625,0.1152344,-0.3681641,0.06494141
2165,10.75,4.1875,-4.5,-0.4868164,0.855957,-0.03222656,0.1142578,-0.3681641,0.06347656
2169,19.8125,-4.25,-5.5625,-0.5024414,0.9179688,-0.04003906,0.1166992,-0.3666992,0.06494141
2173,18.375,-6.0625,-3,-0.4482422,0.987793,-0.03613281,0.1166992,-0.3666992,0.06640625
2177,9.1875,-1.4375,2.5,-0.4365234,1.06543,-0.07861328,0.1166992,-0.3657227,0.06884766
2181,-7.1875,2.0625,10.1875,-0.4672852,1.116211,-0.09765625,0.1142578,-0.3657227,0.06884766
2185,-16.75,3.4375,13.4375,-0.4365234,1.06543,-0.09765625,0.1152344,-0.3666992,0.06884766
2189,-17,7.25,10.3125,-0.3666992,1.026855,-0.05908203,0.1152344,-0.3691406,0.06640625
2193,-10.75,14.5,3,-0.3745117,0.9956055,-0.05908203,0.112793,-0.3681641,0.06787109
2197,-2,15.0625,-3.375,-0.4907227,1.019043,-0.109375,0.1118164,-0.3706055,0.06787109
2201,5.9375,6.1875,-5.0625,-0.5795898,1.034668,-0.1245117,0.1118164,-0.3666992,0.06640625
2205,13.9375,-2.125,-5.5625,-0.5756836,1.077148,-0.112793,0.1118164,-0.3691406,0.06640625
2209,15.625,-5.9375,-0.6875,-0.5683594,1.17041,-0.1015625,0.1152344,-0.3681641,0.06884766
2213,9.8125,-4.0625,4.3125,-0.5024414,1.251953,-0.08203125,0.1142578,-0.3657227,0.06884766
2217,6.8125,1.6875,4.875,-0.4829102,1.259766,-0.05517578,0.112793,-0.3666992,0.07177734
2221,11,5.1875,-0.6875,-0.4633789,1.279297,-0.03613281,0.112793,-0.3657227,0.07177734
2225,21.4375,7.3125,-8.375,-0.5063477,1.298828,-0.02050781,0.1142578,-0.3681641,0.07324219
2229,30.125,7.3125,-14,-0.4829102,1.32959,-0.04003906,0.1142578,-0.3666992,0.07421875
2233,38.1875,13.75,-20.75,-0.4946289,1.395996,-0.1054688,0.1142578,-0.3632813,0.07714844
2237,35.5,22.375,-23.625,-0.5605469,1.477539,-0.1630859,0.1142578,-0.3657227,0.08007813
2241,33.75,24.5,-24.6875,-0.6689453,1.473633,-0.2324219,0.1166992,-0.3603516,0.08398438
2245,44.3125,21.75,-35.1875,-0.699707,1.489258,-0.3051758,0.1201172,-0.359375,0.08935547
2249,54.5625,20.125,-58.9375,-0.7114258,1.52002,-0.3129883,0.1210938,-0.3579102,0.09228516
2253,47.75,20.6875,-71.4375,-0.7270508,1.543457,-0.324707,0.1269531,-0.3520508,0.09472656
2257,26.9375,22.4375,-72.3125,-0.6845703,1.411133,-0.2670898,0.1308594,-0.3491211,0.1030273
2261,15.1875,29.8125,-71.5625,-0.715332,1.228516,-0.2285156,0.1342773,-0.3457031,0.1030273
2265,12.625,31.125,-66.8125,-0.78125,1.057617,-0.2631836,0.1401367,-0.3417969,0.105957
2269,16.5625,23.875,-70.4375,-0.8588867,0.9799805,-0.2939453,0.1450195,-0.3393555,0.1083984
2274,24.0625,12.1875,-73.5,-0.9169922,0.8867188,-0.3208008,0.1474609,-0.3369141,0.1113281
2278,32.5,-1.1875,-69.75,-0.878418,0.809082,-0.3632813,0.1533203,-0.3320313,0.1123047
2282,30.375,-13.5,-63.75,-0.8393555,0.8632813,-0.3974609,0.1591797,-0.3256836,0.1166992
2286,14.6875,-26.0625,-52.875,-0.6962891,0.8168945,-0.3632813,0.1630859,-0.3232422,0.1166992
2290,-0.375,-28.8125,-43.3125,-0.5566406,0.6538086,-0.3476563,0.1674805,-0.3193359,0.1137695
2294,-7.9375,-44.25,-37.0625,-0.6030273,0.6694336,-0.3632813,0.1723633,-0.3178711,0.1113281
2298,-33.5,-64.8125,-32.25,-0.4672852,0.6186523,-0.3051758,0.1757813,-0.3208008,0.1098633
2302,-63.0625,-72.3125,-27.9375,-0.28125,0.4516602,-0.1166992,0.1821289,-0.3208008,0.1044922
2306,-80.9375,-68.3125,-18,-0.2080078,0.2299805,-0.07470703,0.1879883,-0.3208008,0.09326172
2310,-79.1875,-73.4375,-14.375,-0.2231445,0.04736328,0.005859375,0.1904297,-0.3232422,0.08544922
2314,-51.375,-91.625,-24.25,-0.1381836,-0.09179688,0.1020508,0.1914063,-0.3232422,0.07568359
2318,-15.875,-95.4375,-32.5625,-0.1108398,-0.02197266,0.105957,0.1972656,-0.3232422,0.06494141
2322,-11.375,-92,-29.8125,-0.08007813,0.21875,0.1289063,0.199707,-0.3232422,0.06201172
2326,-30.625,-70.6875,-18.25,0.02441406,0.3349609,0.1826172,0.2045898,-0.3217773,0.05419922
2330,-55.75,-37.375,-3.6875,-0.02978516,0.2807617,0.2480469,0.2080078,-0.3217773,0.05126953
2334,-58.75,-19.3125,11.875,-0.1806641,0.1098633,0.2172852,0.2070313,-0.3217773,0.04296875
2338,-32.3125,-15.1875,12.6875,-0.230957,0.01660156,0.2329102,0.2080078,-0.3232422,0.0390625
2342,0.6875,-9.1875,10.75,-0.28125,0.1757813,0.125,0.2055664,-0.3242188,0.03759766
2346,14.3125,-5.125,15.9375,-0.3901367,0.3935547,-0.05908203,0.2055664,-0.3256836,0.03613281
2350,10,-2.625,22,-0.4365234,0.6342773,-0.1630859,0.2045898,-0.3266602,0.03759766
2354,3,-4.1875,23.875,-0.4208984,0.6772461,-0.1743164,0.203125,-0.328125,0.03759766
2358,3.0625,-1.125,25.8125,-0.3974609,0.7236328,-0.1591797,0.203125,-0.3291016,0.0390625
2362,1.875,-0.5625,23.9375,-0.4365234,0.8442383,-0.1782227,0.1987305,-0.3305664,0.03613281
2366,-4.5,-1.8125,17.4375,-0.4672852,0.9101563,-0.1630859,0.1987305,-0.3320313,0.04052734
2370,-8.625,-3.75,14.5625,-0.5175781,0.890625,-0.1323242,0.1972656,-0.3330078,0.0390625
2374,-11.625,-6.1875,15.375,-0.5410156,0.8671875,-0.06298828,0.1948242,-0.3330078,0.03515625
2378,-9.125,-10.25,16.0625,-0.5488281,0.8442383,-0.005371094,0.1938477,-0.3354492,0.03515625
2382,-7.4375,-12.75,17,-0.5449219,0.8364258,0.06347656,0.1928711,-0.3369141,0.03515625
2386,-4.875,-12.4375,19.4375,-0.5371094,0.8442383,0.07519531,0.1938477,-0.3369141,0.03222656
2390,-6.125,-11.75,20.125,-0.5449219,0.8632813,0.09033203,0.1914063,-0.3369141,0.03222656
2394,-1.9375,-13.4375,18.4375,-0.5253906,0.824707,0.105957,0.1904297,-0.3393555,0.03076172
2398,1.875,-15.125,15.9375,-0.5410156,0.8671875,0.07128906,0.1889648,-0.3432617,0.02978516
2403,-5.125,-15.375,17.125,-0.4985352,0.8671875,0.105957,0.1879883,-0.3417969,0.02832031
2407,-11.9375,-11,18.4375,-0.4594727,0.7895508,0.1635742,0.184082,-0.3408203,0.02832031
2411,-16.25,-4.5625,19.4375,-0.4013672,0.7080078,0.2329102,0.184082,-0.3417969,0.02539063
2415,-17.0625,5.0625,22.5,-0.3007813,0.5761719,0.2983398,0.1821289,-0.3457031,0.02392578
2419,-13.75,17.625,24.75,-0.2504883,0.4790039,0.3291016,0.1821289,-0.3457031,0.02539063
2423,-9.1875,29.5625,24.875,-0.2080078,0.4204102,0.3291016,0.1796875,-0.3481445,0.02294922
2427,-5.5,44.1875,25.6875,-0.1689453,0.4125977,0.3056641,0.1757813,-0.3466797,0.02539063
2431,-5.5,54.1875,27.375,-0.2504883,0.4013672,0.2060547,0.1757813,-0.3491211,0.02685547
2435,-4.625,56.375,33.1875,-0.2773438,0.3623047,0.1674805,0.1713867,-0.3520508,0.02978516
2439,0.625,55.5625,41.125,-0.3320313,0.300293,0.09033203,0.1689453,-0.3530273,0.03222656
2443,21.375,48.1875,49.5625,-0.4052734,0.2924805,-0.001464844,0.1650391,-0.3544922,0.03515625
2447,48.5625,42.125,47.625,-0.3974609,0.4672852,-0.08203125,0.1582031,-0.3554688,0.04052734
2451,49.5625,45.8125,48,-0.3666992,0.972168,-0.2016602,0.1547852,-0.3579102,0.04882813
2455,4.875,48.5,46.3125,-0.3432617,1.294922,-0.2436523,0.1508789,-0.359375,0.04882813
2459,-25.75,53.125,31.5625,-0.3125,1.209473,-0.2363281,0.1450195,-0.3603516,0.05273438
2463,-35.4375,51.0625,12.5,-0.5253906,1.015137,-0.1821289,0.1416016,-0.3632813,0.05273438
2467,-25.75,30.5,6.625,-0.5991211,0.809082,-0.09765625,0.1401367,-0.3603516,0.04882813
2471,-15.125,18.0625,4,-0.4829102,0.793457,0.08251953,0.1391602,-0.3632813,0.04980469
2475,-4.5625,20.375,5.9375,-0.4248047,0.7353516,0.1557617,0.1391602,-0.3657227,0.04980469
2479,4.0625,21.8125,15.75,-0.4907227,0.8364258,0.1020508,0.1391602,-0.3632813,0.05126953
2483,7.3125,15.6875,14.375,-0.5527344,0.90625,0.02099609,0.1357422,-0.3632813,0.05273438
2487,15.625,4.0625,9.0625,-0.5722656,0.9492188,-0.04003906,0.1357422,-0.3642578,0.05273438
2491,9.875,-5.3125,2,-0.4946289,0.9838867,0.001953125,0.1342773,-0.3632813,0.05419922
2495,-0.375,-3.375,-0.875,-0.3706055,0.9179688,0.09033203,0.1342773,-0.3632813,0.05517578
2499,-6,8.375,3.0625,-0.3901367,0.8051758,0.1171875,0.1333008,-0.3642578,0.05517578
2503,-4.625,12.5625,14.125,-0.4521484,0.8012695,0.07910156,0.1342773,-0.3642578,0.05419922
2507,0.625,7.9375,16.9375,-0.5024414,0.8481445,-0.005371094,0.1318359,-0.3642578,0.05419922
2511,2.75,-2.4375,11.5625,-0.4790039,0.9140625,-0.05517578,0.1293945,-0.3666992,0.05664063
2515,-0.1875,-11.1875,0.875,-0.4208984,0.921875,-0.0859375,0.1318359,-0.3657227,0.05517578
2519,-5.5,-11.75,-5.5625,-0.378418,0.8945313,-0.03613281,0.1293945,-0.3666992,0.05810547
2523,-13.375,-4.0625,-2.3125,-0.4091797,0.8984375,-0.009277344,0.1308594,-0.3657227,0.05419922
2527,-24,5.125,6.0625,-0.4672852,0.9682617,0.03271484,0.1293945,-0.3666992,0.05126953
2532,-28.4375,12.6875,8.5625,-0.5722656,0.9140625,0.005859375,0.1308594,-0.3642578,0.05126953
2536,-21.4375,12.5625,13.0625,-0.6767578,0.90625,-0.02832031,0.1269531,-0.3666992,0.04980469
2540,-8.125,-0.4375,15.875,-0.796875,0.90625,-0.0859375,0.1269531,-0.3691406,0.04882813
2544,14.125,-21.0625,11.4375,-0.7851563,1.06543,-0.09375,0.1259766,-0.3691406,0.04736328
2548,26.25,-30,2.0625,-0.6806641,1.259766,-0.04003906,0.1259766,-0.3681641,0.04882813
2552,18.6875,-21.875,1,-0.5488281,1.384277,0.02490234,0.1269531,-0.3691406,0.04736328
2556,2.0625,-4.875,4.5625,-0.5063477,1.384277,0.04443359,0.1259766,-0.3666992,0.04882813
2560,-10.0625,8.5,3.25,-0.5527344,1.275391,0.02490234,0.125,-0.3691406,0.04882813
2564,-12.1875,9.25,1.9375,-0.6376953,1.150879,-0.01660156,0.1269531,-0.3666992,0.04882813
2568,-6.75,-1.6875,-1.5,-0.6767578,1.06543,-0.05908203,0.125,-0.3681641,0.04736328
2572,-3.5625,-8.8125,-3.25,-0.5834961,1.026855,-0.04003906,0.1269531,-0.3691406,0.04882813
2576,-10.4375,-6,2.0625,-0.4750977,1.019043,-0.001464844,0.1269531,-0.3706055,0.04589844
2580,-19.375,7.125,6.3125,-0.3901367,1.007324,0.07128906,0.125,-0.3706055,0.04443359
2584,-23.1875,16.625,6.875,-0.4365234,0.9682617,0.03662109,0.1259766,-0.3691406,0.04443359
2588,-14.125,10.6875,1.9375,-0.5488281,0.9101563,-0.02441406,0.1235352,-0.3691406,0.04443359
2592,-3,-1.5,-3.0625,-0.5756836,0.8945313,-0.04394531,0.1235352,-0.3691406,0.04296875
2596,6.5625,-9.625,-3.9375,-0.5449219,0.9140625,-0.06689453,0.1235352,-0.3691406,0.04199219
2600,1.125,-7.6875,2.5625,-0.5253906,1.034668,-0.05517578,0.1259766,-0.3706055,0.04199219
2604,-13.5625,-0.6875,11.8125,-0.5102539,1.077148,-0.05126953,0.1225586,-0.3706055,0.04052734
2608,-17.625,3.0625,13.3125,-0.5102539,1.04248,-0.04394531,0.1225586,-0.3730469,0.04052734
2612,-9.9375,4.5,8.75,-0.5141602,1.022949,-0.01318359,0.1225586,-0.371582,0.0390625
2616,2.375,0,2.0625,-0.5795898,1.038574,-0.01660156,0.1225586,-0.371582,0.0390625
2620,10.8125,-6.25,0.8125,-0.5913086,1.09668,0.005859375,0.1210938,-0.371582,0.04052734
2624,17.6875,-8.6875,0.3125,-0.5952148,1.150879,0.009765625,0.1210938,-0.371582,0.0390625
2628,18.0625,-10,6.75,-0.6030273,1.240234,0.01367188,0.1225586,-0.3730469,0.04199219
2632,22.25,-10.375,7.8125,-0.5292969,1.298828,0.02880859,0.1225586,-0.3706055,0.04443359
2636,30.125,-8.6875,-0.75,-0.4750977,1.403809,0.05175781,0.1210938,-0.371582,0.04443359
2640,29.5625,-2.625,-12.375,-0.4091797,1.508301,0.105957,0.1210938,-0.3730469,0.04736328
2644,21.625,11.3125,-20.5,-0.3862305,1.469727,0.125,0.1225586,-0.3706055,0.04980469
2648,12.375,24.875,-22.6875,-0.4404297,1.418945,0.105957,0.1225586,-0.3706055,0.05126953
2652,6.0625,31.5,-24.9375,-0.5063477,1.310547,0.06347656,0.1269531,-0.3666992,0.05126953
2656,3.0625,36.8125,-26.3125,-0.5605469,1.20166,0.04052734,0.1259766,-0.3681641,0.05517578
2661,10.5,32.0625,-29.4375,-0.6225586,1.120117,0.02099609,0.1269531,-0.3657227,0.05419922
2665,16.5625,28.3125,-34.625,-0.6264648,1.061523,0.03662109,0.1318359,-0.3642578,0.05810547
2669,22.125,28.5625,-34,-0.6303711,1.030762,0.01367188,0.1333008,-0.3618164,0.06201172
2673,25.3125,31.9375,-31.75,-0.6342773,1.030762,-0.001464844,0.1342773,-0.3618164,0.06494141
2677,33,35.875,-32.375,-0.6962891,1.100586,-0.07861328,0.1357422,-0.3569336,0.06787109
2681,29.6875,40.75,-31.875,-0.7426758,1.193848,-0.1435547,0.1391602,-0.3544922,0.07177734
2685,26.5,35.3125,-31.9375,-0.8857422,1.174316,-0.2285156,0.1391602,-0.3544922,0.07421875
2689,24.6875,18.625,-33.4375,-0.9399414,1.17041,-0.2592773,0.1425781,-0.3520508,0.07714844
2693,27.6875,0.4375,-39,-0.7890625,1.030762,-0.2514648,0.1450195,-0.3505859,0.08105469
2697,37.6875,-4.25,-50.875,-0.6806641,0.9956055,-0.2055664,0.1459961,-0.3505859,0.08251953
2701,39.25,-3.0625,-57.875,-0.6767578,0.9375,-0.2324219,0.1508789,-0.3432617,0.08691406
2705,37.4375,-4,-56.3125,-0.7348633,0.8789063,-0.2822266,0.1557617,-0.3408203,0.08935547
2709,26.875,-9.9375,-42,-0.8276367,0.855957,-0.3515625,0.1591797,-0.3393555,0.09228516
2713,13.375,-24.1875,-34.625,-0.8276367,0.7817383,-0.4091797,0.1616211,-0.3369141,0.09472656
2717,7.9375,-47.0625,-27,-0.7387695,0.6342773,-0.3745117,0.1674805,-0.3344727,0.09082031
2721,17.4375,-68.5625,-36.375,-0.6030273,0.5332031,-0.2900391,0.1699219,-0.3320313,0.09082031
2725,19.6875,-82.875,-39.9375,-0.4633789,0.4438477,-0.2055664,0.1772461,-0.328125,0.08691406
2729,6,-88.5,-27.3125,-0.3203125,0.4125977,-0.07470703,0.1806641,-0.328125,0.08544922
2733,-15.0625,-85.3125,-8.9375,-0.1420898,0.3583984,0.04785156,0.1831055,-0.3266602,0.08105469
2737,-36.25,-75.5,0.875,-0.06445313,0.3041992,0.1210938,0.1879883,-0.3291016,0.07324219
2741,-42.1875,-69.25,-2.1875,0.03173828,0.1333008,0.2329102,0.1889648,-0.328125,0.06787109
2745,-17.8125,-55.3125,-13.6875,-0.08789063,0.04736328,0.2094727,0.1928711,-0.3305664,0.06103516
2749,3.875,-55.9375,-14.3125,-0.3164063,0.2070313,0.06738281,0.1928711,-0.328125,0.05664063
2753,2.75,-64.625,-5.4375,-0.3393555,0.3623047,0.05175781,0.1948242,-0.328125,0.05273438
2757,-9,-53,7.4375,-0.1499023,0.4165039,0.144043,0.1972656,-0.328125,0.04980469
2761,-20.6875,-28.9375,12.25,-0.03710938,0.4165039,0.2094727,0.1987305,-0.3291016,0.04589844
2765,-20.5,-1.4375,8.75,-0.07617188,0.4438477,0.1943359,0.1972656,-0.3320313,0.04443359
2769,-12.75,15.625,6.125,-0.3588867,0.5410156,0.01708984,0.1962891,-0.3330078,0.04199219
2773,-6.4375,5.125,5.4375,-0.5795898,0.5839844,-0.08984375,0.1962891,-0.3320313,0.04199219
2777,6.25,-9.9375,5,-0.5175781,0.5292969,-0.05126953,0.1962891,-0.3320313,0.04199219
2781,14.4375,-8.25,8.375,-0.3588867,0.5913086,0.07128906,0.1948242,-0.3305664,0.04296875
2785,11.625,6,15,-0.328125,0.6577148,0.09033203,0.1948242,-0.3330078,0.04589844
2790,10.75,16.125,17.0625,-0.4326172,0.7392578,-0.08203125,0.1938477,-0.3330078,0.04589844
2794,9.125,13.6875,13.5625,-0.5566406,0.855957,-0.2246094,0.1914063,-0.3344727,0.04882813
2798,1.625,5.3125,11.125,-0.6376953,0.8984375,-0.2939453,0.1904297,-0.3354492,0.04736328
2802,-4.8125,-5.625,10.8125,-0.6572266,0.8789063,-0.2592773,0.1904297,-0.3354492,0.04736328
2806,-8.5,-13.625,11.8125,-0.5874023,0.8325195,-0.1552734,0.1889648,-0.3354492,0.04980469
2810,-6.3125,-14.25,10.75,-0.5449219,0.7817383,-0.07861328,0.1879883,-0.3378906,0.04443359
2814,0.6875,-17.125,5.875,-0.5722656,0.7895508,-0.05126953,0.1889648,-0.3378906,0.04443359
2818,4.875,-21.8125,5.8125,-0.6069336,0.8051758,-0.07861328,0.1879883,-0.3354492,0.04296875
2822,5.125,-27.6875,7.375,-0.5952148,0.840332,-0.04003906,0.1889648,-0.3393555,0.04199219
2826,1.9375,-28.5625,8.0625,-0.5332031,0.8598633,0.02490234,0.1879883,-0.3378906,0.04199219
2830,-5.8125,-21.25,9.6875,-0.4443359,0.9023438,0.1020508,0.1889648,-0.3369141,0.04052734
2834,-15.1875,-9.8125,8,-0.3901367,0.8442383,0.1557617,0.1865234,-0.3408203,0.0390625
2838,-17.75,1.8125,4,-0.4248047,0.7626953,0.1518555,0.1879883,-0.3393555,0.0390625
2842,-18.25,6.5625,4.1875,-0.4985352,0.7080078,0.1171875,0.1879883,-0.3408203,0.03613281
2846,-18.1875,7.625,7.3125,-0.5332031,0.6264648,0.1171875,0.1865234,-0.3408203,0.03369141
2850,-15.125,9.0625,13.6875,-0.5527344,0.5371094,0.1289063,0.1855469,-0.3432617,0.03515625
2854,-9.9375,5.6875,21.8125,-0.5605469,0.4907227,0.1020508,0.184082,-0.3442383,0.03369141
2858,-8.875,2.1875,30.5,-0.4521484,0.4477539,0.1132813,0.1821289,-0.3432617,0.03076172
2862,-4.25,6.5,32.8125,-0.2773438,0.3662109,0.1826172,0.1782227,-0.3466797,0.03222656
2866,3.5625,16.9375,31.4375,-0.2348633,0.3662109,0.2060547,0.1757813,-0.3466797,0.03222656
2870,0.8125,27.8125,37.1875,-0.1650391,0.4086914,0.2329102,0.1738281,-0.3491211,0.03515625
2874,-6.75,47.5625,45.125,-0.1264648,0.4165039,0.2211914,0.1689453,-0.3505859,0.03613281
2878,-12.8125,61.875,52.375,-0.2387695,0.4243164,0.06738281,0.1674805,-0.3544922,0.03759766
2882,-12.9375,61.75,53.375,-0.378418,0.4399414,-0.06298828,0.1616211,-0.3554688,0.04052734
2886,-9.875,47.625,51.1875,-0.4672852,0.4477539,-0.09765625,0.1557617,-0.3579102,0.04199219
2890,-8.4375,33.3125,56.8125,-0.4248047,0.4829102,-0.03222656,0.1523438,-0.3618164,0.04296875
2894,-14,28.1875,63.625,-0.3085938,0.5410156,0.05175781,0.1450195,-0.3632813,0.04199219
2898,-12.1875,32.625,67.125,-0.246582,0.5527344,0.09423828,0.1391602,-0.3657227,0.04443359
2902,-3.375,40.625,70.25,-0.2734375,0.5722656,0.08251953,0.1342773,-0.3691406,0.04589844
2906,5.375,38.1875,72.9375,-0.378418,0.6962891,-0.009277344,0.1269531,-0.3706055,0.04589844
2910,12.5,24.625,69.75,-0.4091797,0.8325195,-0.09375,0.1186523,-0.3730469,0.04736328
2914,5.875,11.4375,63.9375,-0.3242188,1.049805,-0.07470703,0.112793,-0.3745117,0.04980469
2919,-18.375,16.9375,56.875,-0.1923828,1.158691,0.04052734,0.1069336,-0.3745117,0.04980469
2923,-43,40.625,60.625,-0.1572266,1.073242,0.1098633,0.1010742,-0.3779297,0.04882813
2927,-56.5625,58.6875,70.6875,-0.3007813,1.038574,0.05175781,0.09765625,-0.3793945,0.04736328
2931,-59.0625,54.75,70.3125,-0.4907227,1.026855,-0.02441406,0.09033203,-0.3833008,0.04443359
2935,-50.875,31.0625,65.9375,-0.5683594,0.953125,-0.02832031,0.08203125,-0.3842773,0.03759766
2939,-24.625,3.1875,64,-0.5102539,0.8710938,-0.005371094,0.07861328,-0.3881836,0.03515625
2943,10.375,-20.0625,55.75,-0.378418,1.061523,-0.001464844,0.07128906,-0.3891602,0.03515625
2947,19.5625,-24.875,38.875,-0.1767578,1.356934,0.05175781,0.06640625,-0.390625,0.03515625
2951,6.9375,-7.5625,25.1875,-0.04101563,1.458008,0.09814453,0.06396484,-0.3891602,0.03515625
2955,-16.4375,15.375,18.3125,-0.06054688,1.450195,0.09814453,0.06298828,-0.390625,0.03759766
2959,-35,27.4375,15.1875,-0.246582,1.345215,0.06347656,0.05957031,-0.3891602,0.03369141
2963,-38.625,20.8125,15.25,-0.3393555,1.17041,0.1210938,0.05957031,-0.3916016,0.03369141
2967,-16.625,8.3125,1.5,-0.3510742,1.09668,0.1635742,0.05712891,-0.3945313,0.02832031
2971,-1.9375,0.375,-3.125,-0.3432617,1.146973,0.1826172,0.05566406,-0.3930664,0.02832031
2975,-1.625,-2,-0.9375,-0.2734375,1.17041,0.2133789,0.05566406,-0.3916016,0.02832031
2979,-3.875,5.375,-0.75,-0.2001953,1.158691,0.2133789,0.05957031,-0.390625,0.02978516
2983,-8.25,12.4375,-2,-0.1923828,1.158691,0.1904297,0.05810547,-0.3930664,0.02832031
2987,-6.625,18.6875,-9.6875,-0.2426758,1.100586,0.1328125,0.05712891,-0.3930664,0.02832031
2991,-4.75,22.125,-14.125,-0.328125,1.09668,0.05957031,0.06054688,-0.3916016,0.02685547
2995,-2.9375,17.375,-13.6875,-0.4482422,1.06543,0.005859375,0.06054688,-0.3916016,0.02685547
2999,-4.8125,10.3125,-6.4375,-0.4404297,1.104492,-0.001464844,0.05957031,-0.390625,0.02685547
3003,-7.9375,5.4375,2.125,-0.3974609,1.084961,0.01367188,0.05957031,-0.390625,0.02685547
3007,-7.9375,5,7.375,-0.3588867,1.120117,0.02099609,0.06054688,-0.3930664,0.02685547
3011,-6.75,5.3125,3.875,-0.3007813,1.12793,0.005859375,0.05957031,-0.3916016,0.02539063
3015,-1.5,6.8125,-4.0625,-0.2929688,1.124023,0.02490234,0.05957031,-0.3916016,0.02685547
3019,4.375,8.875,-8.4375,-0.3393555,1.135742,-0.001464844,0.06054688,-0.3916016,0.02539063
3023,3.5,7.625,-0.75,-0.4208984,1.189941,-0.01318359,0.06152344,-0.3945313,0.02539063
3027,0.5625,2.5625,10.875,-0.4521484,1.209473,-0.02050781,0.06054688,-0.3930664,0.02539063
3031,-3.875,-4,20.6875,-0.4287109,1.251953,-0.03222656,0.05810547,-0.3916016,0.02539063
3035,-5,-8,21.125,-0.3164063,1.267578,0.001953125,0.05566406,-0.390625,0.02685547
3039,2.1875,-1.75,12,-0.1845703,1.244141,0.05957031,0.05712891,-0.3945313,0.02392578
3043,13.0625,6.4375,1,-0.2041016,1.259766,0.04052734,0.0546875,-0.3945313,0.02685547
3048,22.4375,4.8125,-7.25,-0.328125,1.283203,-0.03613281,0.0546875,-0.3930664,0.02685547
3052,27.375,-0.75,-9.1875,-0.3549805,1.345215,-0.06298828,0.05566406,-0.390625,0.03076172
3056,24.5,-7.875,-9.1875,-0.3862305,1.411133,-0.06298828,0.0546875,-0.3891602,0.03515625
3060,15.9375,-8.6875,-5.3125,-0.28125,1.43457,-0.05126953,0.05810547,-0.3916016,0.03515625
3064,8.5,-2.5625,-4.375,-0.2348633,1.454102,0.005859375,0.05566406,-0.390625,0.03515625
3068,10.25,3.8125,-12.1875,-0.1923828,1.399902,0.05175781,0.05712891,-0.3881836,0.03613281
3072,26.875,5.75,-27.4375,-0.2543945,1.403809,0.05566406,0.05810547,-0.390625,0.03515625
3076,44.375,2.5,-41.0625,-0.2773438,1.418945,0.03271484,0.06298828,-0.3891602,0.04052734
3080,48.625,6.5625,-50.375,-0.3085938,1.531738,0.04785156,0.06640625,-0.3867188,0.04443359
3084,39.5,15.4375,-51.9375,-0.347168,1.55127,0.001953125,0.06982422,-0.3881836,0.04736328
3088,23.5625,27.1875,-46.25,-0.3823242,1.516113,-0.04003906,0.07373047,-0.3857422,0.05273438
3092,21,28.875,-48,-0.5102539,1.430664,-0.1206055,0.07958984,-0.3833008,0.05419922
3096,31.9375,18.6875,-58.75,-0.5952148,1.321777,-0.1860352,0.08056641,-0.3818359,0.05810547
3100,51.4375,4.6875,-70,-0.6069336,1.325684,-0.1821289,0.08544922,-0.3793945,0.05957031
3104,51.4375,1.8125,-80.8125,-0.5292969,1.380371,-0.2089844,0.09375,-0.3745117,0.06640625
3108,45.5625,2,-88.875,-0.5527344,1.291016,-0.1977539,0.09765625,-0.371582,0.06884766
3112,37.875,4.1875,-87.625,-0.6030273,1.186035,-0.2397461,0.1069336,-0.3691406,0.07177734
3116,31.1875,-1.75,-87.1875,-0.6884766,1.13916,-0.2397461,0.1152344,-0.3657227,0.07421875
3120,20.25,-11.3125,-83.5625,-0.699707,1.022949,-0.2436523,0.1201172,-0.3632813,0.07861328
3124,11.875,-17.5,-74.375,-0.6416016,0.8867188,-0.1513672,0.1293945,-0.3603516,0.07714844
3128,17.75,-21.625,-71.125,-0.6030273,0.7470703,-0.109375,0.1367188,-0.3554688,0.07568359
3132,22.5625,-24.6875,-69.3125,-0.5488281,0.7119141,-0.0859375,0.1401367,-0.3520508,0.07861328
3136,19.375,-25.875,-64.4375,-0.5141602,0.6772461,-0.07080078,0.1484375,-0.3505859,0.07861328
3140,12.4375,-22.125,-54.125,-0.4130859,0.5527344,-0.08203125,0.1523438,-0.3466797,0.08007813
3144,7.25,-18.6875,-43.1875,-0.4365234,0.4985352,-0.1362305,0.1557617,-0.3442383,0.08007813
3148,1.875,-25.8125,-32.75,-0.4907227,0.4013672,-0.1552734,0.1606445,-0.3432617,0.07861328
3152,3.3125,-35.5625,-18.5625,-0.3935547,0.284668,-0.09765625,0.1640625,-0.3417969,0.07568359
3156,8.5,-43.8125,-11.125,-0.3510742,0.21875,-0.06689453,0.1665039,-0.3417969,0.07568359
3160,14.25,-55.6875,-8.5,-0.3432617,0.3120117,-0.08984375,0.1674805,-0.3417969,0.07324219
3164,9.3125,-68.6875,-17.5,-0.2773438,0.4282227,-0.08984375,0.1713867,-0.3393555,0.07324219
3168,-1.4375,-74.1875,-30.375,-0.2583008,0.5527344,-0.04394531,0.1723633,-0.3393555,0.07177734
3172,-34.9375,-74.1875,-30.8125,-0.1108398,0.5292969,0.1171875,0.1796875,-0.3378906,0.06347656
3177,-59.25,-53.75,-22.5,0.1015625,0.3349609,0.3481445,0.1831055,-0.3393555,0.05810547
3181,-62.25,-20.5625,-16.4375,0.05126953,0.171875,0.4365234,0.1831055,-0.3369141,0.05273438
3185,-45.1875,-4.375,-5.8125,-0.296875,0.05517578,0.3095703,0.1831055,-0.3378906,0.04736328
3189,-9.9375,-19.4375,0.8125,-0.4711914,0.05908203,0.1943359,0.1865234,-0.3378906,0.04296875
3193,24.25,-28.6875,0.5,-0.3974609,0.1796875,0.1479492,0.1865234,-0.3393555,0.04199219
3197,34.375,-22.4375,10.4375,-0.3935547,0.4633789,0.04052734,0.1855469,-0.3393555,0.04199219
3201,26.875,-15.4375,19.8125,-0.4013672,0.6303711,-0.0859375,0.184082,-0.3378906,0.04443359
3205,17.3125,-10.125,17.3125,-0.4052734,0.809082,-0.128418,0.1855469,-0.3393555,0.04589844
3209,4.5625,-6.875,13.1875,-0.4404297,0.824707,-0.1513672,0.1855469,-0.3417969,0.04589844
3213,-1.4375,-6.3125,13.6875,-0.5141602,0.8129883,-0.1708984,0.184082,-0.3408203,0.04589844
3217,-6.3125,-11.75,13.25,-0.5371094,0.793457,-0.1245117,0.1821289,-0.3408203,0.04443359
3221,-1.625,-12.6875,9.5,-0.4555664,0.7392578,-0.02441406,0.1806641,-0.3432617,0.04199219
3225,-1.125,-9.125,9.5625,-0.4750977,0.7817383,0.001953125,0.1806641,-0.3417969,0.04199219
3229,-8.25,-4.875,14.5,-0.4633789,0.777832,0.02099609,0.1806641,-0.3442383,0.04296875
3233,-13.125,0.75,17.25,-0.4633789,0.7314453,0.05957031,0.1796875,-0.3442383,0.04199219
3237,-9.9375,3.4375,17,-0.4985352,0.7080078,0.05957031,0.1782227,-0.3466797,0.04199219
3241,-6.9375,1,18.625,-0.5292969,0.6962891,0.06347656,0.1772461,-0.3466797,0.04199219
3245,-3.5625,-1.125,21.5625,-0.5371094,0.6845703,0.1098633,0.1738281,-0.3466797,0.0390625
3249,1.1875,-2.6875,24,-0.5063477,0.6694336,0.1289063,0.1738281,-0.3491211,0.04052734
3253,5.625,-1,23.25,-0.4365234,0.6962891,0.1674805,0.1713867,-0.3491211,0.04052734
3257,4,5.875,21.8125,-0.347168,0.7080078,0.1982422,0.1689453,-0.3491211,0.04052734
3261,1.3125,16.875,21.3125,-0.3320313,0.7158203,0.1787109,0.1665039,-0.3520508,0.04199219
3265,-3.0625,26.8125,21.6875,-0.3823242,0.7275391,0.1367188,0.1650391,-0.3520508,0.04296875
3269,-8.625,28.3125,23.8125,-0.4750977,0.7275391,0.08251953,0.1616211,-0.3530273,0.04296875
3273,-10.5,27.125,28.9375,-0.5024414,0.6772461,0.08251953,0.1616211,-0.3544922,0.04589844
3277,-13.625,22.875,35.75,-0.4750977,0.6694336,0.09814453,0.1591797,-0.3554688,0.04296875
3281,-12.6875,19.625,38.3125,-0.3862305,0.6069336,0.1289063,0.1557617,-0.3579102,0.04443359
3285,-10.5625,20.0625,39.1875,-0.3046875,0.6186523,0.1635742,0.1484375,-0.3618164,0.04199219
3289,-12.625,26.8125,42.25,-0.2348633,0.6069336,0.1674805,0.1484375,-0.3618164,0.04296875
3293,-11.75,32.0625,46.25,-0.2270508,0.5952148,0.1479492,0.1425781,-0.3618164,0.04296875
3297,-4.625,33.625,49.0625,-0.262207,0.5839844,0.09423828,0.1376953,-0.3657227,0.04736328
3301,4.5,30.0625,51.875,-0.3046875,0.6616211,0.01708984,0.1342773,-0.3657227,0.04736328
3306,7.375,27.125,48.1875,-0.2890625,0.7856445,-0.01318359,0.1293945,-0.3681641,0.04736328
3310,6.625,27.8125,42.5625,-0.2734375,0.8671875,-0.07861328,0.1235352,-0.371582,0.04980469
3314,-3.4375,28.125,37.25,-0.2851563,0.9604492,-0.08984375,0.1210938,-0.3691406,0.05126953
3318,-20.8125,35,34.875,-0.2041016,0.9643555,-0.04003906,0.1166992,-0.371582,0.05126953
3322,-27.8125,46.8125,33.1875,-0.2700195,0.8828125,-0.06298828,0.112793,-0.3730469,0.05126953
3326,-31.25,52.75,33,-0.3242188,0.9296875,-0.1054688,0.109375,-0.3745117,0.04980469
3330,-36.1875,52.125,27.5,-0.4013672,0.90625,-0.1245117,0.105957,-0.3769531,0.04736328
3334,-36.375,43,26.625,-0.4672852,0.8325195,-0.1401367,0.1044922,-0.3793945,0.04736328
3338,-30.25,28.5,20.875,-0.4555664,0.8208008,-0.1401367,0.09960938,-0.3803711,0.04589844
3342,-22.125,22.6875,11.9375,-0.378418,0.8671875,-0.1054688,0.09960938,-0.3818359,0.04199219
3346,-19.625,25.625,10.625,-0.4365234,0.9101563,-0.1435547,0.09521484,-0.3803711,0.04052734
3350,-18.3125,19.4375,15.5625,-0.5449219,0.972168,-0.1860352,0.09619141,-0.3833008,0.04199219
3354,-16.3125,2.125,10.75,-0.5488281,1.088867,-0.2128906,0.09277344,-0.3818359,0.0390625
3358,-18.6875,-12.875,-4.8125,-0.4907227,1.150879,-0.1166992,0.09521484,-0.3842773,0.0390625
3362,-24.75,-10.0625,-10.5625,-0.4287109,1.073242,-0.02441406,0.09375,-0.3818359,0.03613281
3366,-35.4375,0.25,3.25,-0.4287109,1.04248,0.02099609,0.09521484,-0.3842773,0.03369141
3370,-50.0625,4.0625,18.0625,-0.5063477,1.06543,0.01708984,0.09375,-0.3842773,0.03076172
3374,-51.125,-0.6875,24.9375,-0.4907227,1.030762,0.06738281,0.09277344,-0.3867188,0.02685547
3378,-46.25,-2.875,19.9375,-0.4404297,1.073242,0.1171875,0.09033203,-0.3857422,0.02294922
3382,-41.4375,-3.1875,13.8125,-0.3823242,1.007324,0.1518555,0.09033203,-0.3867188,0.01708984
3386,-35.0625,-0.75,7.1875,-0.347168,0.9682617,0.1748047,0.08789063,-0.3881836,0.01318359
3390,-24.6875,0.375,-0.1875,-0.3823242,0.9296875,0.1904297,0.08691406,-0.390625,0.01318359
3394,-14.625,-1.0625,-2.3125,-0.4130859,0.972168,0.1943359,0.08691406,-0.3881836,0.01074219
3398,-9.0625,-8.3125,-4.1875,-0.4594727,1.06543,0.1826172,0.08691406,-0.3881836,0.009277344
3402,-4.125,-13.25,-13.75,-0.4287109,1.092773,0.1557617,0.08544922,-0.3881836,0.0078125
3406,-7.625,-10.9375,-13,-0.4287109,1.104492,0.1674805,0.09033203,-0.3891602,0.006347656
3410,-13.625,-6.4375,-5.4375,-0.4287109,1.073242,0.1943359,0.09033203,-0.3881836,0.006347656
3414,-20.5625,2.125,4.875,-0.4091797,1.13916,0.1943359,0.09130859,-0.3881836,0.00390625
3418,-26.4375,4.3125,8,-0.4248047,1.158691,0.1674805,0.09130859,-0.3881836,0
3422,-24.8125,3.25,4.125,-0.4482422,1.135742,0.140625,0.09033203,-0.3881836,0.0009765625
3426,-21.4375,0.375,-2.1875,-0.4633789,1.124023,0.1132813,0.09033203,-0.3930664,-0.001464844
3430,-20.375,2.6875,-6.125,-0.4443359,1.073242,0.1289063,0.08886719,-0.3891602,-0.00390625
3435,-20.4375,6.0625,1,-0.4907227,1.049805,0.1171875,0.09033203,-0.3881836,-0.005371094
3439,-23.75,4.125,11.375,-0.4985352,1.09668,0.1098633,0.09033203,-0.3891602,-0.006835938
3443,-25.6875,-0.25,15.5625,-0.4868164,1.124023,0.1328125,0.08789063,-0.3891602,-0.01074219
3447,-21.0625,-5.625,12.75,-0.4130859,1.092773,0.1865234,0.08886719,-0.3891602,-0.01074219
3451,-8.75,-4.0625,3.1875,-0.3588867,1.053711,0.2597656,0.08691406,-0.3891602,-0.01220703
3455,6.3125,-2.75,-1.8125,-0.4443359,1.069336,0.2709961,0.08447266,-0.390625,-0.01464844
3459,23.25,-12,-1.75,-0.5292969,1.120117,0.2709961,0.08544922,-0.3916016,-0.01220703
3463,39.75,-24.9375,-0.0625,-0.4868164,1.279297,0.3056641,0.08691406,-0.390625,-0.008300781
3467,57.5,-24,-3.625,-0.3974609,1.388184,0.340332,0.08691406,-0.390625,-0.006835938
3471,64.9375,-9.9375,-8.9375,-0.3549805,1.636719,0.3056641,0.08789063,-0.3891602,0
3475,55.625,3.8125,-9.9375,-0.4404297,1.714355,0.2133789,0.08789063,-0.3891602,0.0009765625
3479,48.375,9.75,-9.5,-0.5214844,1.671875,0.144043,0.08886719,-0.3867188,0.006347656
3483,53.375,3.5625,-12.625,-0.5795898,1.539551,0.08642578,0.08886719,-0.3891602,0.01318359
3487,68.625,-4.25,-25,-0.5332031,1.531738,0.05957031,0.09130859,-0.3867188,0.01611328
3491,75.5,-2.875,-43.125,-0.4169922,1.52002,0.08251953,0.09375,-0.3867188,0.02539063
3495,72.375,9,-55,-0.3862305,1.454102,0.05175781,0.09619141,-0.3857422,0.02832031
3499,67,18.75,-64.75,-0.5102539,1.418945,-0.009277344,0.1020508,-0.3803711,0.03759766
3503,60.25,15.75,-69.3125,-0.6342773,1.298828,-0.08984375,0.109375,-0.3769531,0.04296875
3507,51.125,9.3125,-64.5,-0.6845703,1.221191,-0.09375,0.1118164,-0.3730469,0.04736328
3511,42.6875,2.75,-59.9375,-0.6689453,1.12793,-0.1630859,0.1186523,-0.3691406,0.05126953
3515,37.3125,-7.6875,-64.6875,-0.6147461,1.124023,-0.1054688,0.125,-0.3666992,0.05517578
3519,31.25,-7.625,-72.5,-0.5175781,0.9643555,-0.05126953,0.128418,-0.3657227,0.05810547
3523,27.875,-7.8125,-71.75,-0.5063477,0.8168945,-0.02441406,0.1342773,-0.3632813,0.05810547
3527,30.875,-3.75,-71.6875,-0.4829102,0.7626953,-0.05517578,0.1425781,-0.3569336,0.06347656
3531,28.1875,-5.6875,-69.8125,-0.5527344,0.7353516,-0.06298828,0.1474609,-0.3544922,0.06494141
3535,23.0625,-7.5,-58.1875,-0.5410156,0.6303711,-0.09765625,0.1533203,-0.3520508,0.06494141
3539,26.8125,-15.1875,-50.75,-0.5371094,0.5839844,-0.1669922,0.1582031,-0.3481445,0.06640625
3543,40.625,-27.4375,-57.25,-0.5952148,0.6186523,-0.2514648,0.1616211,-0.3466797,0.06787109
3547,49.1875,-46.875,-65.6875,-0.6069336,0.6694336,-0.2705078,0.1674805,-0.3442383,0.07177734
3551,44.8125,-61,-64.625,-0.5024414,0.6845703,-0.2670898,0.1748047,-0.3378906,0.07177734
3555,18.9375,-65.6875,-56.5625,-0.4052734,0.7587891,-0.2514648,0.1782227,-0.3344727,0.07177734
3559,-21.0625,-64.4375,-49.3125,-0.3046875,0.6459961,-0.128418,0.184082,-0.3320313,0.06787109
3564,-40.25,-60.6875,-43.4375,-0.347168,0.3544922,-0.06298828,0.1928711,-0.3320313,0.06103516
3568,-35,-72.5,-42.4375,-0.4052734,0.2265625,-0.03222656,0.1948242,-0.328125,0.05664063
3572,-32,-84.75,-42.1875,-0.3085938,0.1875,0.1020508,0.199707,-0.328125,0.04882813
3576,-31.125,-83.5625,-31.8125,-0.2387695,0.1640625,0.2133789,0.2055664,-0.3232422,0.04052734
3580,-38.125,-72.5625,-16.3125,-0.1381836,0.1601563,0.2905273,0.2055664,-0.3256836,0.03759766
3584,-38.3125,-52.3125,-6.875,-0.06445313,0.15625,0.3212891,0.2094727,-0.3232422,0.02832031
3588,-31.0625,-30.25,-8.8125,-0.1499023,0.1523438,0.2944336,0.2128906,-0.3232422,0.02392578
3592,-12.25,-20.625,-9.25,-0.3745117,0.1796875,0.1904297,0.2119141,-0.3242188,0.02001953
3596,7.3125,-25.75,-8.75,-0.5024414,0.2729492,0.1020508,0.2119141,-0.3232422,0.02001953
3600,17.3125,-25.75,-4.0625,-0.4868164,0.4516602,0.02880859,0.2119141,-0.3242188,0.01708984
3604,4.75,-20.75,3.1875,-0.4521484,0.5913086,0.009765625,0.215332,-0.3232422,0.01611328
3608,-8.625,-12.375,7.0625,-0.4130859,0.5878906,0.05566406,0.2128906,-0.3232422,0.01855469
3612,-14.875,-0.8125,11.5,-0.3935547,0.5566406,0.07128906,0.2119141,-0.3256836,0.01611328
3616,-10.25,9.125,9.5625,-0.4868164,0.5449219,0.04052734,0.2128906,-0.3256836,0.01318359
3620,-1.8125,6.5,8.4375,-0.6342773,0.6186523,-0.03613281,0.2119141,-0.3266602,0.01318359
3624,-2.6875,-2.875,11.1875,-0.6455078,0.6420898,-0.02441406,0.2104492,-0.3266602,0.01464844
3628,-3.25,-4.8125,13.9375,-0.5722656,0.6616211,0.02490234,0.2104492,-0.328125,0.01464844
3632,-11.25,-2.375,19.5625,-0.5214844,0.6962891,0.05957031,0.2080078,-0.328125,0.01318359
3636,-17.8125,3.8125,21.125,-0.4404297,0.6616211,0.144043,0.2080078,-0.3291016,0.01171875
3640,-18.75,13.0625,20.75,-0.4443359,0.6303711,0.1865234,0.203125,-0.3305664,0.01171875
3644,-18.5625,17.5625,23.0625,-0.4907227,0.5878906,0.2133789,0.203125,-0.3320313,0.009277344
3648,-15,19.875,26.5625,-0.4907227,0.5488281,0.2133789,0.203125,-0.3330078,0.01074219
3652,-8.1875,19.5625,29.0625,-0.4946289,0.5175781,0.1865234,0.2011719,-0.3354492,0.01074219
3656,-1.3125,18.75,29.4375,-0.5063477,0.5683594,0.1635742,0.1987305,-0.3369141,0.01074219
3660,-1.375,21.375,32.5,-0.4555664,0.6030273,0.1826172,0.1962891,-0.3393555,0.01171875
3664,-2.375,27.375,36.9375,-0.4326172,0.6030273,0.1635742,0.1938477,-0.3408203,0.01171875
3668,-7.4375,32,41.0625,-0.3745117,0.5878906,0.1904297,0.1889648,-0.3432617,0.01464844
3672,-11.625,35.375,41.9375,-0.3588867,0.5371094,0.1865234,0.1855469,-0.3442383,0.01318359
3676,-9.5625,36.0625,39,-0.4365234,0.5214844,0.159668,0.1821289,-0.3466797,0.01611328
3680,-6.9375,32.5625,45.6875,-0.4790039,0.4946289,0.1674805,0.1796875,-0.3491211,0.01855469
3684,-1,29,54.4375,-0.4365234,0.4711914,0.1982422,0.1748047,-0.3520508,0.01855469
3688,6.1875,28.1875,61.6875,-0.3666992,0.5175781,0.1748047,0.1713867,-0.3530273,0.02148438
3693,14.125,26.75,58.125,-0.3706055,0.6186523,0.1518555,0.1640625,-0.3569336,0.02392578
3697,21.4375,24.5,54,-0.4013672,0.6381836,0.06738281,0.1591797,-0.359375,0.02392578
3701,25.4375,18.1875,57.125,-0.4013672,0.7314453,0.02099609,0.1582031,-0.359375,0.02685547
3705,17.9375,16.5625,60.0625,-0.3242188,0.8710938,0.001953125,0.1499023,-0.3642578,0.02978516
3709,4.1875,14.375,55.75,-0.262207,0.956543,0.01367188,0.144043,-0.3657227,0.03222656
3713,-6.1875,20.6875,45.6875,-0.1611328,0.9453125,0.02880859,0.1401367,-0.3681641,0.03369141
3717,-14.0625,33,35.8125,-0.1728516,0.8789063,0.06347656,0.1367188,-0.3691406,0.03515625
3721,-18.125,45.875,33.8125,-0.3203125,0.8520508,-0.02832031,0.1318359,-0.3691406,0.03369141
3725,-27.9375,40.25,38.5,-0.5371094,0.9179688,-0.05517578,0.1308594,-0.371582,0.03222656
3729,-30.125,23.1875,43.0625,-0.5795898,0.8364258,-0.05908203,0.1269531,-0.3730469,0.03222656
3733,-25.1875,4.4375,44.4375,-0.5024414,0.8671875,-0.01660156,0.1225586,-0.3754883,0.03076172
3737,-16.5625,-2.9375,37.3125,-0.3393555,0.8520508,0.001953125,0.1186523,-0.3779297,0.02978516
3741,-7.75,2.875,24.5625,-0.28125,0.956543,0.05175781,0.1152344,-0.3793945,0.02685547
3745,-7.75,15.375,12.6875,-0.362793,0.987793,0.01367188,0.1142578,-0.3779297,0.02832031
3749,-6.3125,12.3125,14.125,-0.6303711,0.9956055,-0.04003906,0.1118164,-0.3793945,0.02832031
3753,-0.1875,-7,17.625,-0.7231445,1.045898,-0.07861328,0.1103516,-0.3803711,0.02539063
3757,-0.0625,-26.375,22.625,-0.6264648,1.17041,-0.01318359,0.109375,-0.3803711,0.02685547
3761,1.125,-38.8125,18.875,-0.4750977,1.143066,0.03271484,0.1079102,-0.3818359,0.02685547
3765,11.125,-37,4.25,-0.2890625,1.178223,0.1518555,0.1069336,-0.3803711,0.02832031
3769,20.625,-17.9375,-19.1875,-0.215332,1.197754,0.2172852,0.1069336,-0.3818359,0.02539063
3773,18.5625,1.5625,-27.375,-0.3242188,1.217285,0.1982422,0.109375,-0.3793945,0.02685547
3777,7.5,11.6875,-24.4375,-0.4326172,1.12793,0.1367188,0.1103516,-0.3779297,0.02832031
3781,2.375,15.4375,-16.125,-0.5449219,1.034668,0.1210938,0.1142578,-0.3779297,0.03076172
3785,9.4375,13.8125,-9.0625,-0.4555664,0.8867188,0.1518555,0.112793,-0.3769531,0.02978516
3789,33.3125,12.25,-16.1875,-0.4169922,0.90625,0.09423828,0.1142578,-0.3779297,0.03222656
3793,49.1875,4.625,-42.4375,-0.4868164,1.13916,0.01708984,0.1176758,-0.3779297,0.03515625
3797,40.5,2.125,-53.625,-0.6376953,1.205566,-0.02441406,0.1201172,-0.3745117,0.04052734
3801,6.0625,5.875,-23.5,-0.6767578,1.225098,-0.009277344,0.1235352,-0.3706055,0.04296875
3805,-33.3125,12.5625,9.5,-0.6303711,1.189941,0.009765625,0.1235352,-0.3706055,0.04199219
3809,-45.125,18.25,18.5,-0.5683594,1.088867,0.04052734,0.125,-0.3730469,0.04052734
3813,-31.375,17,9.625,-0.5683594,1.007324,0.07910156,0.1225586,-0.3730469,0.03613281
3817,-7.1875,10.125,-0.25,-0.6884766,0.9453125,0.04052734,0.1210938,-0.3745117,0.03759766
3822,11.6875,-0.75,1.875,-0.7270508,0.9453125,0.001953125,0.1201172,-0.371582,0.03369141
3826,25.75,-9.25,7.0625,-0.6728516,0.9956055,-0.04394531,0.1201172,-0.3730469,0.03613281
3830,32.0625,-14.25,10,-0.6186523,1.104492,-0.06298828,0.1201172,-0.3730469,0.0390625
3834,30.5625,-17,10.375,-0.5566406,1.166504,-0.09375,0.1201172,-0.3706055,0.04052734
3838,23.4375,-12.0625,8.3125,-0.4365234,1.193848,-0.05517578,0.1186523,-0.371582,0.04443359
3842,11.75,-0.5,8.125,-0.3974609,1.17041,-0.03613281,0.1176758,-0.3706055,0.04296875
3846,-2.25,8.6875,11.25,-0.4130859,1.158691,-0.05517578,0.1176758,-0.371582,0.04443359
3850,-13.25,10.6875,14,-0.4482422,1.120117,-0.07080078,0.1166992,-0.371582,0.04296875
3854,-17.6875,9.25,12.8125,-0.4287109,1.045898,-0.04394531,0.112793,-0.3730469,0.04443359
3858,-16.9375,9.1875,9.8125,-0.4169922,0.9995117,-0.02050781,0.1142578,-0.3754883,0.04296875
3862,-16.125,9.625,8.375,-0.4287109,0.987793,0.01367188,0.112793,-0.3745117,0.04052734
3866,-18.3125,12.3125,10.0625,-0.4404297,0.9956055,0.05175781,0.1103516,-0.3769531,0.0390625
3870,-15.0625,17,12.25,-0.4521484,1.038574,0.105957,0.1103516,-0.3779297,0.0390625
3874,5.1875,17.125,10.4375,-0.5644531,1.019043,0.1020508,0.1079102,-0.3769531,0.0390625
3878,42.5,3.375,1.1875,-0.6728516,1.182129,0.02880859,0.109375,-0.3769531,0.04199219
3882,75.4375,-12.625,-16.125,-0.6264648,1.446289,0.005859375,0.1079102,-0.3754883,0.04443359
3886,79.125,-3.0625,-26.125,-0.4985352,1.72998,0.001953125,0.1103516,-0.3745117,0.05126953
3890,61,15.375,-22.25,-0.5063477,1.811523,-0.04394531,0.1118164,-0.3706055,0.06201172
3894,45.75,27,-24.1875,-0.6108398,1.842773,-0.09375,0.112793,-0.3681641,0.06201172
3898,45.0625,22.875,-31.0625,-0.7192383,1.605469,-0.1206055,0.1152344,-0.3681641,0.06787109
3902,57.8125,21,-43.125,-0.6376953,1.535645,-0.04736328,0.1176758,-0.3632813,0.07324219
3906,69.0625,24.1875,-54,-0.6225586,1.407715,-0.05126953,0.1201172,-0.3618164,0.07861328
3910,79,27.875,-65.875,-0.6806641,1.388184,-0.0859375,0.1235352,-0.3569336,0.08544922
3914,78.125,25.6875,-63.1875,-0.7851563,1.279297,-0.1323242,0.128418,-0.3520508,0.09326172
3918,72.25,24.1875,-49.875,-0.7578125,1.248047,-0.1435547,0.1333008,-0.3491211,0.09765625
3922,63.625,23.125,-43.875,-0.7114258,1.131836,-0.2167969,0.1357422,-0.3442383,0.105957
3926,63.6875,14.4375,-50.125,-0.7036133,1.026855,-0.1938477,0.1401367,-0.3393555,0.1113281
3930,61.5625,4.125,-59.0625,-0.6689453,0.9257813,-0.2705078,0.1416016,-0.3369141,0.1181641
3934,57.125,-6.5625,-62.125,-0.5874023,0.8520508,-0.2670898,0.1474609,-0.3291016,0.1191406
3938,44.4375,-9.375,-60.9375,-0.5063477,0.8208008,-0.2705078,0.1523438,-0.3242188,0.1259766
3942,24.625,-8.4375,-55.5,-0.4672852,0.6303711,-0.2744141,0.1557617,-0.3217773,0.1274414
3946,16.625,-2.875,-47.625,-0.4287109,0.4868164,-0.378418,0.1591797,-0.3208008,0.1274414
3951,5.3125,-11.75,-45.6875,-0.5683594,0.4477539,-0.5131836,0.1630859,-0.3144531,0.1289063
3955,6.5625,-42.5625,-45.5625,-0.5952148,0.3896484,-0.5053711,0.1674805,-0.3129883,0.1289063
3959,-1.75,-58.1875,-46.6875,-0.3935547,0.4672852,-0.4248047,0.1738281,-0.3120117,0.125
3963,-23.5625,-61.3125,-46.4375,-0.3007813,0.5058594,-0.34375,0.1782227,-0.3095703,0.1206055
3967,-43.5,-64.4375,-47.4375,-0.2700195,0.3857422,-0.3666992,0.184082,-0.3081055,0.1166992
3971,-53.5,-71.375,-47.0625,-0.3125,0.2573242,-0.309082,0.1904297,-0.3081055,0.1113281
3975,-51.875,-86.4375,-46.875,-0.3320313,0.1757813,-0.1669922,0.1972656,-0.3095703,0.1015625
3979,-50.375,-89.375,-38,-0.2890625,0.02832031,-0.03222656,0.1987305,-0.3081055,0.09472656
3983,-39.0625,-89.9375,-30.1875,-0.378418,0.05517578,0.02490234,0.2055664,-0.3066406,0.08544922
3987,-28.9375,-96.3125,-16.3125,-0.3706055,0.07080078,0.04052734,0.2119141,-0.3081055,0.07714844
3991,-24.125,-93.0625,-11.6875,-0.1845703,0.171875,0.159668,0.2138672,-0.3066406,0.07177734
3995,-15.3125,-74,-15.6875,-0.09521484,0.2338867,0.2133789,0.2177734,-0.3066406,0.06201172
3999,-22.6875,-44.25,-14.875,-0.1069336,0.3349609,0.2402344,0.2211914,-0.3056641,0.05957031
4003,-32,-19.4375,-8.1875,-0.246582,0.3427734,0.1748047,0.2211914,-0.3066406,0.05517578
4007,-28.8125,-4.125,0,-0.4052734,0.3081055,0.05957031,0.222168,-0.3066406,0.05126953
4011,-15.875,-4.5,3.375,-0.6069336,0.3818359,-0.112793,0.2246094,-0.3081055,0.04882813
4015,-8.3125,-16.625,7.8125,-0.6264648,0.4125977,-0.1821289,0.2211914,-0.3066406,0.04882813
4019,-6.1875,-17.6875,13.5625,-0.5141602,0.4946289,-0.0859375,0.2236328,-0.3095703,0.04589844
4023,-1.5,-13.8125,14.1875,-0.4907227,0.5253906,-0.02441406,0.2211914,-0.3095703,0.04589844
4027,1.5,-10.4375,13.4375,-0.4868164,0.6303711,0.03271484,0.2202148,-0.3105469,0.04589844
4031,-3.5,-1,17.625,-0.4365234,0.6499023,0.07128906,0.2211914,-0.3129883,0.04296875
4035,-4.4375,6.625,19.1875,-0.5063477,0.7041016,-0.001464844,0.2177734,-0.3144531,0.04443359
4039,-10.875,6.75,19.5625,-0.5795898,0.7314453,-0.005371094,0.21875,-0.3144531,0.04443359
4043,-14.3125,5.0625,23.4375,-0.5913086,0.6884766,0.02099609,0.215332,-0.3154297,0.04199219
4047,-14.5625,5,22.875,-0.5566406,0.6616211,0.08642578,0.2119141,-0.3168945,0.04199219
4051,-11.1875,6.875,20.25,-0.4868164,0.6186523,0.1943359,0.2128906,-0.3193359,0.04443359
4055,-5.5,16.0625,19.5,-0.4790039,0.6108398,0.2094727,0.2119141,-0.3208008,0.04199219
4059,-8.25,21.5,26.5625,-0.5371094,0.6499023,0.2021484,0.2094727,-0.3208008,0.04443359
4063,-8.5625,20.8125,31.3125,-0.5488281,0.6069336,0.1826172,0.2070313,-0.3242188,0.04199219
4067,-9.125,18.3125,35.9375,-0.5214844,0.6108398,0.1865234,0.2045898,-0.3266602,0.04296875
4071,-9.25,18.75,36.6875,-0.4326172,0.6069336,0.2211914,0.2021484,-0.3266602,0.04443359
4075,-2.875,23.75,35.0625,-0.3974609,0.5913086,0.2558594,0.1962891,-0.3291016,0.04443359
4080,1.625,28.375,35.125,-0.4169922,0.6381836,0.2402344,0.1948242,-0.3330078,0.04882813
4084,-5.6875,30.3125,37.625,-0.4130859,0.6923828,0.1982422,0.1914063,-0.3344727,0.04736328
4088,-24.6875,34.5,44.875,-0.362793,0.7705078,0.1904297,0.1879883,-0.3354492,0.04980469
4092,-62.875,49.25,60.625,-0.328125,0.7817383,0.1518555,0.1855469,-0.3393555,0.04882813
4096,-93,54.125,81.75,-0.4555664,0.6303711,0.09033203,0.1757813,-0.3457031,0.04443359
4100,-71.5,44,68.0625,-0.4208984,0.2768555,0.1826172,0.1723633,-0.3481445,0.0390625
4104,-6.625,35.75,44.1875,-0.3862305,0.1835938,0.1826172,0.1650391,-0.3520508,0.03759766
4108,37,25.9375,39.375,-0.4790039,0.3896484,0.08251953,0.1616211,-0.3530273,0.04443359
4112,41.125,19.8125,47.5625,-0.4672852,0.6811523,-0.04394531,0.1582031,-0.3544922,0.04443359
4116,24.5625,22.625,56.625,-0.4091797,0.8442383,-0.05908203,0.1533203,-0.3554688,0.04980469
4120,4,29.75,63.4375,-0.378418,0.8789063,-0.1054688,0.1459961,-0.359375,0.05126953
4124,-8.3125,28.75,61.5625,-0.3862305,0.9140625,-0.1015625,0.1425781,-0.3642578,0.05419922
4128,-10.5,29.375,46,-0.328125,0.8520508,-0.06689453,0.1357422,-0.3632813,0.05517578
4132,-2.6875,33.125,34.6875,-0.4208984,0.7509766,-0.02050781,0.1333008,-0.3666992,0.05517578
4136,13.3125,27.1875,33.0625,-0.5683594,0.6342773,-0.06298828,0.1318359,-0.3666992,0.05419922
4140,43.9375,9.8125,29.375,-0.6533203,0.5878906,-0.1166992,0.1269531,-0.3657227,0.05957031
4144,60.875,-1.875,31.75,-0.5371094,0.9375,-0.1977539,0.1235352,-0.3642578,0.06494141
4148,46.6875,-1.6875,28.6875,-0.4130859,1.221191,-0.2016602,0.1225586,-0.3657227,0.06640625
4152,13,19.5,25.8125,-0.2929688,1.32959,-0.1669922,0.1176758,-0.3657227,0.07177734
4156,-24.5,43.875,34.4375,-0.3706055,1.189941,-0.1977539,0.1142578,-0.3657227,0.07177734
4160,-37.1875,50.875,38.375,-0.5063477,0.9643555,-0.2475586,0.112793,-0.3657227,0.07177734
4164,-17.375,32.625,32.125,-0.6962891,0.8710938,-0.2670898,0.1069336,-0.3681641,0.06884766
4168,11.625,2.5,20.125,-0.6728516,0.9257813,-0.2363281,0.1044922,-0.3706055,0.0703125
4172,28.8125,-13.625,5.625,-0.5488281,1.084961,-0.2016602,0.1020508,-0.371582,0.0703125
4176,19.0625,-9.375,5.6875,-0.4013672,1.178223,-0.1591797,0.1035156,-0.3706055,0.07324219
4180,-3.375,5.4375,11.625,-0.3666992,1.213379,-0.1513672,0.1020508,-0.3691406,0.07421875
4184,-15.3125,11.6875,15.3125,-0.4130859,1.120117,-0.1899414,0.1010742,-0.3706055,0.07421875
4188,-8.6875,2.9375,9.75,-0.5253906,1.100586,-0.1782227,0.09960938,-0.371582,0.07177734
4192,5.375,-15.1875,-2.75,-0.5214844,1.162598,-0.1401367,0.1010742,-0.3730469,0.0703125
4196,20.1875,-25,-21.625,-0.4907227,1.09668,-0.06689453,0.1020508,-0.371582,0.07421875
4200,27.1875,-24.1875,-19.5,-0.3862305,1.104492,-0.009277344,0.1020508,-0.3691406,0.07421875
4204,24.5625,-11.75,-13.5,-0.347168,1.174316,-0.02050781,0.1044922,-0.3691406,0.07568359
4209,14.25,1,-7.9375,-0.3974609,1.283203,-0.05517578,0.1069336,-0.3666992,0.07714844
4213,-1.1875,7.5625,-3.4375,-0.4594727,1.294922,-0.1362305,0.1069336,-0.3657227,0.07861328
4217,-20.125,12.9375,0.5,-0.4482422,1.302734,-0.1513672,0.1069336,-0.3657227,0.07714844
4221,-41.375,20.3125,3.6875,-0.3666992,1.228516,-0.1323242,0.1069336,-0.3666992,0.07714844
4225,-57.4375,33.8125,7.1875,-0.328125,1.150879,-0.112793,0.1069336,-0.3691406,0.07324219
4229,-68.9375,45.6875,11.3125,-0.3666992,1.120117,-0.1323242,0.1010742,-0.3706055,0.06787109
4233,-83.6875,49.375,11.875,-0.4365234,1.17041,-0.2089844,0.1020508,-0.371582,0.06494141
4237,-99.4375,46.125,7.875,-0.4633789,1.143066,-0.1899414,0.09863281,-0.3754883,0.05664063
4241,-104.625,47.6875,7.75,-0.4711914,0.9643555,-0.1513672,0.09765625,-0.3793945,0.04882813
4245,-101.125,44.75,11.875,-0.5332031,0.8481445,-0.1054688,0.09619141,-0.3803711,0.04443359
4249,-81.375,31.0625,11.125,-0.6572266,0.7509766,-0.1245117,0.09375,-0.3803711,0.03515625
4253,-54.8125,4.25,9,-0.7348633,0.793457,-0.1054688,0.09277344,-0.3857422,0.03076172
4257,-26.0625,-25.125,3,-0.699707,0.8481445,-0.06298828,0.09277344,-0.3867188,0.02685547
4261,0.125,-49.0625,-7.8125,-0.6108398,0.953125,-0.04736328,0.09375,-0.3857422,0.02148438
4265,8.8125,-53.9375,-7.5,-0.4013672,1.116211,0.05175781,0.09521484,-0.3857422,0.02148438
4269,-1.375,-34.9375,-2.4375,-0.2661133,1.259766,0.1289063,0.09521484,-0.3842773,0.02294922
4273,-15.875,-15.3125,3.875,-0.3203125,1.275391,0.1020508,0.09375,-0.3867188,0.02001953
4277,-17.6875,-10.375,4.25,-0.4365234,1.306641,0.03662109,0.09375,-0.3842773,0.01855469
4281,-22.5,-13.8125,0.5625,-0.4443359,1.36084,0.04443359,0.09375,-0.3857422,0.01708984
4285,-24.375,-14.5,-5.25,-0.4248047,1.279297,0.08251953,0.09619141,-0.3857422,0.01464844
4289,-22.625,-10.1875,-9.125,-0.3974609,1.251953,0.140625,0.09765625,-0.3842773,0.01074219
4293,-25.8125,-2.0625,-8.1875,-0.4091797,1.217285,0.2094727,0.09765625,-0.3857422,0.009277344
4297,-22.75,4.0625,-3.8125,-0.4750977,1.189941,0.2558594,0.09765625,-0.3842773,0.004882813
4301,-12.875,3,-2.75,-0.5566406,1.186035,0.2290039,0.09765625,-0.3842773,0.004882813
4305,11.3125,-9,-13.5625,-0.6108398,1.244141,0.2133789,0.09960938,-0.3857422,0.004882813
4309,33.5,-15.4375,-25.8125,-0.5527344,1.251953,0.2441406,0.1020508,-0.3857422,0.004882813
4313,54,-11.0625,-31.9375,-0.6108398,1.39209,0.1635742,0.1035156,-0.3833008,0.0078125
4317,50.5,-6.5,-28.5,-0.6611328,1.559082,0.07128906,0.105957,-0.3833008,0.01318359
4321,34,-4.125,-25.8125,-0.6689453,1.671875,0.07128906,0.1069336,-0.3818359,0.01464844
4325,27.125,2.5,-28.75,-0.6303711,1.535645,0.07519531,0.1103516,-0.3779297,0.01855469
4329,35.4375,0.875,-47.0625,-0.715332,1.523926,0.04443359,0.112793,-0.3779297,0.02148438
4333,61.125,-13.375,-74.0625,-0.8198242,1.306641,0.02490234,0.1186523,-0.3779297,0.02539063
4338,86.9375,-22.5,-93.4375,-0.8237305,1.283203,0.07519531,0.125,-0.3730469,0.03369141
4342,88.0625,-17.375,-91.125,-0.7426758,1.232422,0.1098633,0.1318359,-0.3691406,0.03759766
4346,68.875,-2.5625,-74.1875,-0.7114258,1.178223,0.140625,0.1416016,-0.3618164,0.04589844
4350,46.1875,11.125,-53.5625,-0.7231445,1.01123,0.1289063,0.1474609,-0.3603516,0.04882813
4354,47,2,-62.9375,-0.715332,0.8598633,0.09423828,0.1499023,-0.3554688,0.05273438
4358,79.1875,-13.3125,-98.5625,-0.5913086,0.6225586,0.04052734,0.1547852,-0.3505859,0.05517578
4362,98.75,-25.625,-117.4375,-0.5449219,0.6577148,0.03662109,0.1665039,-0.3457031,0.06347656
4366,80.4375,-20.375,-103.0625,-0.4482422,0.6030273,0.02880859,0.1738281,-0.3393555,0.06884766
4370,58.6875,-10.4375,-65.875,-0.3823242,0.4360352,-0.01660156,0.1821289,-0.3330078,0.07324219
4374,58.5625,-2.0625,-44.625,-0.2583008,0.2963867,-0.03222656,0.1855469,-0.3266602,0.07714844
4378,79,6.0625,-44.5625,-0.1728516,0.203125,-0.06298828,0.1889648,-0.3242188,0.08007813
4382,99.75,-18.5625,-64.3125,-0.3823242,0.3466797,-0.1782227,0.1938477,-0.3178711,0.08691406
4386,94.4375,-57.6875,-88.4375,-0.4248047,0.5878906,-0.2705078,0.199707,-0.3105469,0.09326172
4390,30.9375,-75.1875,-81.3125,-0.296875,0.9140625,-0.2514648,0.2045898,-0.3041992,0.09326172
4394,-64.4375,-68.5625,-63.3125,-0.1030273,0.6577148,-0.1206055,0.2138672,-0.2993164,0.08789063
4398,-112.25,-49.75,-48,-0.002441406,0.04736328,0.08251953,0.2202148,-0.2993164,0.08007813
4402,-90.625,-35.6875,-42.4375,-0.1806641,-0.4296875,0.1982422,0.222168,-0.2993164,0.0703125
4406,-32.1875,-45.25,-30.75,-0.3974609,-0.6005859,0.1943359,0.2260742,-0.2983398,0.06201172
4410,12.625,-52.125,-16.3125,-0.3745117,-0.2822266,0.1020508,0.2294922,-0.2983398,0.05810547
4414,18.5625,-41,-2.4375,-0.2661133,0.04736328,0.05957031,0.230957,-0.2954102,0.05810547
4418,6.6875,-18.5625,15.6875,-0.3974609,0.2226563,-0.07470703,0.2319336,-0.2954102,0.05517578
4422,3,-13.8125,28.25,-0.5756836,0.284668,-0.2016602,0.2319336,-0.2993164,0.05419922
4426,10.875,-21.8125,33.8125,-0.6225586,0.4013672,-0.2783203,0.2294922,-0.296875,0.05273438
4430,18.6875,-30.75,30.625,-0.5683594,0.5683594,-0.2167969,0.2270508,-0.3007813,0.05273438
4434,16.9375,-28.8125,29.6875,-0.4868164,0.6811523,-0.1474609,0.2260742,-0.3032227,0.05126953
4438,8.3125,-20.9375,27.75,-0.4443359,0.809082,-0.07080078,0.2270508,-0.3032227,0.05126953
4442,-2.625,-9.1875,20.875,-0.3935547,0.9296875,-0.02050781,0.2236328,-0.3066406,0.05273438
4446,-22.4375,7,12.375,-0.4169922,0.956543,0.01708984,0.2236328,-0.3066406,0.05126953
4450,-37.5,17.8125,10.125,-0.5410156,0.8828125,0.005859375,0.2236328,-0.3095703,0.04882813
4454,-43.6875,19.3125,12.1875,-0.6767578,0.7587891,-0.009277344,0.2236328,-0.3095703,0.04589844
4458,-31.0625,9.8125,14.8125,-0.8125,0.6381836,-0.02832031,0.2202148,-0.3120117,0.04443359
4462,-11.0625,-6.1875,15.75,-0.8085938,0.5991211,-0.04736328,0.2202148,-0.3120117,0.04296875
4467,7.9375,-18.125,13.0625,-0.7617188,0.6772461,-0.05908203,0.2163086,-0.3154297,0.04443359
4471,13.4375,-25.25,7.9375,-0.7036133,0.7973633,-0.01660156,0.2177734,-0.3154297,0.04296875
4475,-0.375,-21.5,11.875,-0.6147461,0.8632813,0.02099609,0.2163086,-0.3154297,0.04199219
4479,-17.125,-11.9375,14.25,-0.5644531,0.824707,0.08642578,0.2177734,-0.3168945,0.04052734
4483,-25.8125,-4.125,15.375,-0.5527344,0.7275391,0.1132813,0.2128906,-0.3168945,0.03759766
4487,-25.5,0.9375,15.625,-0.5644531,0.6538086,0.1210938,0.215332,-0.3178711,0.03613281
4491,-22.375,2.9375,13.875,-0.5332031,0.6108398,0.1210938,0.2119141,-0.3193359,0.03515625
4495,-20.125,8,10.875,-0.4985352,0.5644531,0.140625,0.2119141,-0.3208008,0.03515625
4499,-23.6875,12.8125,13.9375,-0.4868164,0.5332031,0.1557617,0.2128906,-0.3208008,0.03222656
4503,-29.125,22.6875,21.5,-0.4365234,0.4516602,0.2172852,0.2104492,-0.3232422,0.03369141
4507,-29.125,28.6875,29.0625,-0.4555664,0.3662109,0.1748047,0.2070313,-0.3266602,0.03222656
4511,-26.5625,28.6875,39.5,-0.4248047,0.315918,0.1518555,0.2055664,-0.3266602,0.03076172
4515,-21.75,32.4375,49.75,-0.347168,0.3081055,0.125,0.2011719,-0.3305664,0.03076172
4519,-12.5,36.75,54.8125,-0.3974609,0.3701172,0.04052734,0.1972656,-0.3344727,0.03076172
4523,-5.9375,28.75,54.25,-0.4790039,0.4750977,-0.04736328,0.1938477,-0.3354492,0.03369141
4527,-4,21.5625,55.4375,-0.4404297,0.5644531,-0.109375,0.1889648,-0.3378906,0.03369141
4531,-11.125,18,60.75,-0.3974609,0.6499023,-0.09765625,0.184082,-0.3432617,0.03515625
4535,-22.625,13.5,63.5625,-0.3745117,0.7236328,-0.1435547,0.1806641,-0.3442383,0.03759766
4539,-37.375,4.9375,54.125,-0.362793,0.8051758,-0.112793,0.1748047,-0.3481445,0.03369141
4543,-49.4375,7.3125,44.625,-0.1728516,0.7119141,0.02880859,0.1713867,-0.3505859,0.02978516
4547,-55.25,25.625,36.5625,-0.1650391,0.6030273,0.1518555,0.1665039,-0.3544922,0.02685547
4551,-51.5,33.6875,38.5625,-0.3393555,0.4829102,0.1171875,0.1630859,-0.3569336,0.02294922
4555,-38.9375,22.625,45.8125,-0.4711914,0.5175781,0.09814453,0.1591797,-0.359375,0.02001953
4559,-29.625,6.0625,48.25,-0.4248047,0.5761719,0.1289063,0.1582031,-0.3632813,0.02001953
4563,-20.875,-3.375,41.4375,-0.4091797,0.6186523,0.1713867,0.1523438,-0.3657227,0.01611328
4567,-12.0625,-8.5625,29.625,-0.4013672,0.6264648,0.2021484,0.1499023,-0.3657227,0.01464844
4571,-0.375,-9.125,27.5,-0.4711914,0.5761719,0.2441406,0.1459961,-0.3681641,0.01464844
4575,-0.25,-6.125,42.875,-0.4672852,0.7392578,0.2172852,0.1450195,-0.3691406,0.01318359
4579,-11.125,-5.3125,59.125,-0.5410156,0.8051758,0.1328125,0.1376953,-0.3706055,0.01318359
4583,-1.9375,-15.625,62.875,-0.5214844,0.875,0.06347656,0.1357422,-0.3730469,0.01318359
4587,7.1875,-28.9375,49.5625,-0.4326172,1.038574,0.02880859,0.1318359,-0.3745117,0.01318359
4591,8.1875,-35.375,26.1875,-0.3203125,1.178223,0.07519531,0.1269531,-0.3754883,0.01171875
4596,-5.4375,-23.0625,3.9375,-0.2387695,1.263672,0.1713867,0.125,-0.3754883,0.01318359
4600,-27.0625,-0.4375,-3.5,-0.3935547,1.150879,0.1826172,0.1269531,-0.3745117,0.009277344
4604,-43.375,10.8125,6.8125,-0.5292969,1.053711,0.1748047,0.125,-0.3769531,0.009277344
4608,-45.625,5.1875,14,-0.7036133,0.972168,0.1748047,0.125,-0.3779297,0.00390625
4612,-37.1875,-11.375,17.6875,-0.6923828,1.015137,0.2172852,0.1210938,-0.3769531,0
4616,-23.3125,-22.0625,10.6875,-0.5795898,0.9604492,0.3017578,0.1210938,-0.3779297,-0.00390625
4620,0.25,-19.4375,-1.875,-0.4365234,0.953125,0.3637695,0.1210938,-0.3779297,-0.00390625
4624,12.6875,-9.25,-13,-0.4482422,1.049805,0.3134766,0.1210938,-0.3779297,-0.005371094
4628,7.9375,0.75,-11.9375,-0.5063477,1.108398,0.2788086,0.1225586,-0.3779297,-0.00390625
4632,0.5,5.25,-7.75,-0.6650391,1.131836,0.1943359,0.1235352,-0.3769531,-0.00390625
4636,-4.5,-3.125,-0.75,-0.746582,1.116211,0.1557617,0.125,-0.3769531,-0.00390625
4640,-0.0625,-12.3125,3.0625,-0.6689453,1.06543,0.2021484,0.1235352,-0.3769531,-0.005371094
4644,3.375,-7.375,6.5,-0.5488281,1.108398,0.2172852,0.125,-0.3793945,-0.005371094
4648,-1.25,0.75,10.75,-0.4790039,1.143066,0.2290039,0.125,-0.3779297,-0.00390625
4652,-1.8125,10.75,11.25,-0.4594727,1.143066,0.2060547,0.1235352,-0.3769531,-0.00390625
4656,1.0625,8.75,2.3125,-0.5683594,1.20166,0.1518555,0.1210938,-0.3793945,-0.002441406
4660,7.0625,1.625,-5.875,-0.6108398,1.213379,0.1367188,0.1210938,-0.3793945,-0.00390625
4664,-3.5625,5.625,1.875,-0.5527344,1.263672,0.1479492,0.1210938,-0.3779297,-0.002441406
4668,-22.6875,15.875,15.75,-0.5566406,1.217285,0.1132813,0.1210938,-0.3779297,-0.001464844
4672,-30,18.5,23.25,-0.6108398,1.178223,0.07519531,0.1201172,-0.3779297,-0.00390625
4676,-27.4375,14.9375,23.875,-0.5644531,1.17041,0.08251953,0.1166992,-0.3793945,-0.008300781
4680,-18.875,10.6875,18.5625,-0.5024414,1.174316,0.1132813,0.1152344,-0.3793945,-0.008300781
4684,-4.3125,7.6875,8.8125,-0.4907227,1.143066,0.1210938,0.112793,-0.3803711,-0.01074219
4688,8.1875,2.9375,0.75,-0.5332031,1.174316,0.07519531,0.112793,-0.3818359,-0.009277344
4692,11.0625,-1.5,2.0625,-0.5214844,1.189941,0.08642578,0.1142578,-0.3803711,-0.008300781
4696,6,1.625,6.6875,-0.4404297,1.228516,0.1020508,0.112793,-0.3818359,-0.006835938
4700,-2.5,7.9375,9.375,-0.4052734,1.263672,0.140625,0.1142578,-0.3833008,-0.006835938
4704,-7.8125,11.1875,7.3125,-0.4555664,1.221191,0.144043,0.1118164,-0.3833008,-0.006835938
4708,2.375,2.0625,2.4375,-0.4907227,1.150879,0.2021484,0.1103516,-0.3833008,-0.005371094
4712,30.375,-9.875,-10.6875,-0.4907227,1.100586,0.2675781,0.1103516,-0.3818359,-0.006835938
4716,55.75,-14.75,-22.5625,-0.4326172,1.178223,0.3134766,0.1103516,-0.3818359,-0.00390625
4720,76.6875,-14.125,-28.125,-0.5063477,1.263672,0.2827148,0.112793,-0.3793945,0.00390625
4725,82.875,-13.3125,-31.875,-0.5253906,1.442383,0.2480469,0.1166992,-0.3793945,0.009277344
4729,72.5625,0.125,-28.3125,-0.4985352,1.485352,0.2021484,0.1201172,-0.3769531,0.01171875
4733,56,16.9375,-20.4375,-0.5834961,1.566895,0.140625,0.1225586,-0.3754883,0.02001953
4737,45.875,25.4375,-23.375,-0.6572266,1.477539,0.08642578,0.1235352,-0.3730469,0.02539063
4741,61.625,24.5625,-37.3125,-0.7504883,1.302734,0.07519531,0.125,-0.3745117,0.03076172
4745,84.9375,16,-51.125,-0.8237305,1.244141,0.06347656,0.1308594,-0.3691406,0.03759766
4749,99.875,9.375,-55.3125,-0.7504883,1.20166,0.04443359,0.1333008,-0.3657227,0.04443359
4753,114.4375,6.75,-64.0625,-0.746582,1.20166,-0.04736328,0.1376953,-0.3642578,0.05273438
4757,116.3125,7.1875,-69.375,-0.7231445,1.228516,-0.1015625,0.144043,-0.3569336,0.06103516
4761,104.1875,13.1875,-65.8125,-0.7348633,1.182129,-0.128418,0.1484375,-0.3481445,0.07324219
4765,87.6875,13,-56.6875,-0.765625,1.081055,-0.2089844,0.1523438,-0.3466797,0.08105469
4769,76.1875,3.125,-57.8125,-0.7426758,1.019043,-0.2167969,0.1582031,-0.3408203,0.08691406
4773,65.125,0.5,-60.8125,-0.6455078,0.9414063,-0.1899414,0.1616211,-0.3369141,0.09326172
4777,45.75,5.5,-59.125,-0.5991211,0.8520508,-0.1245117,0.1650391,-0.3320313,0.09765625
4781,35.125,6.0625,-56.25,-0.6225586,0.7119141,-0.1860352,0.1699219,-0.3266602,0.09765625
4785,29.0625,-2.25,-58.4375,-0.6416016,0.6303711,-0.1938477,0.1738281,-0.3242188,0.105957
4789,30.1875,-11.875,-52,-0.6650391,0.5097656,-0.3012695,0.1772461,-0.3208008,0.105957
4793,25,-29.5,-47.6875,-0.6264648,0.5566406,-0.4707031,0.1821289,-0.3168945,0.1044922
4797,16.375,-56.25,-55.9375,-0.6264648,0.6733398,-0.4975586,0.1865234,-0.3144531,0.1044922
4801,-0.5625,-70.25,-60.25,-0.6069336,0.7001953,-0.609375,0.1904297,-0.3095703,0.1044922
4805,-30.75,-92.875,-60.875,-0.4521484,0.6303711,-0.4321289,0.1972656,-0.3066406,0.09619141
4809,-58.25,-97.5625,-53.125,-0.01025391,0.3701172,-0.09765625,0.2070313,-0.3056641,0.08789063
4813,-71.875,-75.125,-53.4375,0.1870117,0.1484375,0.2060547,0.2104492,-0.3041992,0.08007813
4817,-60.5625,-61.125,-61.125,0.05126953,-0.1191406,0.2905273,0.2177734,-0.3056641,0.0703125
4821,-31.6875,-70.625,-59.5625,-0.2773438,-0.1459961,0.2788086,0.2246094,-0.3032227,0.06201172
4825,-22,-78.25,-40.9375,-0.2734375,-0.08398438,0.2944336,0.2285156,-0.2983398,0.05664063
4829,-23.6875,-63.5625,-13.9375,-0.2270508,-0.01416016,0.2788086,0.2329102,-0.296875,0.04882813
4833,-19.875,-53.0625,5.5625,-0.378418,0.09033203,0.1132813,0.234375,-0.2983398,0.04296875
4837,-11.875,-52.125,11.5625,-0.215332,0.1367188,0.1865234,0.234375,-0.2983398,0.04052734
4841,6.1875,-35.8125,9.0625,-0.1420898,0.2226563,0.2480469,0.2353516,-0.2993164,0.03613281
4845,16.3125,-18.5,4.3125,-0.1884766,0.4013672,0.1674805,0.234375,-0.2983398,0.03515625
4849,11.9375,-1.375,7.5,-0.3354492,0.5683594,0.001953125,0.234375,-0.2983398,0.03613281
4854,-0.75,4.1875,12.8125,-0.5253906,0.6577148,-0.1435547,0.234375,-0.3007813,0.03613281
4858,-6.5,0.375,15.625,-0.5874023,0.6655273,-0.1552734,0.2329102,-0.3017578,0.03515625
4862,-7.375,-1.1875,17,-0.5683594,0.7001953,-0.1054688,0.2319336,-0.3032227,0.03515625
4866,-8.3125,0,16.1875,-0.5527344,0.7392578,-0.1015625,0.230957,-0.3032227,0.03515625
4870,-8.0625,-1.4375,11.5625,-0.6030273,0.7626953,-0.05126953,0.2285156,-0.3041992,0.03369141
4874,-9.4375,-3.0625,12.1875,-0.6455078,0.7470703,-0.01318359,0.2285156,-0.3056641,0.03369141
4878,-9.1875,-6.5625,14.625,-0.7036133,0.7275391,-0.01660156,0.2285156,-0.3056641,0.03369141
4882,-4.625,-12.75,17.5,-0.7734375,0.7236328,-0.02832031,0.2270508,-0.3066406,0.03222656
4886,-3.4375,-22.375,21.125,-0.7504883,0.7353516,0.001953125,0.2270508,-0.3081055,0.03076172
4890,-1.5625,-23.3125,21.75,-0.6147461,0.6962891,0.09814453,0.2246094,-0.3120117,0.02832031
4894,-0.3125,-18.3125,19.8125,-0.5566406,0.7119141,0.1479492,0.2236328,-0.3129883,0.02685547
4898,-3.875,-12.5625,19.625,-0.5410156,0.7001953,0.1557617,0.2236328,-0.3129883,0.02832031
4902,-9.25,-8.3125,24.3125,-0.5449219,0.6577148,0.1635742,0.222168,-0.3144531,0.02685547
4906,-12.5,-3.375,27,-0.4482422,0.5913086,0.2133789,0.2211914,-0.3178711,0.02294922
4910,-7.8125,5.0625,28.75,-0.4946289,0.5488281,0.1557617,0.21875,-0.3178711,0.02392578
4914,-3.5625,3.5625,30.6875,-0.5102539,0.5527344,0.1132813,0.215332,-0.3217773,0.02294922
4918,0.9375,2.4375,31.1875,-0.4711914,0.5566406,0.1132813,0.2138672,-0.3232422,0.02294922
4922,-5.375,5.625,34.6875,-0.4091797,0.6108398,0.1020508,0.2128906,-0.3232422,0.02392578
4926,-22.8125,13.3125,37.6875,-0.2543945,0.6030273,0.1748047,0.2104492,-0.3256836,0.02392578
4930,-34.875,32.1875,36.75,-0.1342773,0.5136719,0.2480469,0.2055664,-0.3291016,0.02294922
4934,-36.875,47.6875,35.125,-0.2543945,0.4360352,0.2133789,0.2021484,-0.3305664,0.02392578
4938,-31.625,46.875,36.4375,-0.4326172,0.3935547,0.1171875,0.2011719,-0.3320313,0.02294922
4942,-23.5,33.9375,42.5,-0.4790039,0.3818359,0.09814453,0.1948242,-0.3344727,0.02148438
4946,-18.8125,27.875,52.625,-0.4482422,0.4282227,0.05957031,0.1938477,-0.3393555,0.02294922
4950,-20.625,26.5625,62.0625,-0.378418,0.5605469,0.05175781,0.1879883,-0.3417969,0.02392578
4954,-24.9375,22.75,59.3125,-0.3164063,0.6186523,0.03662109,0.1831055,-0.3457031,0.02392578
4958,-20.8125,13.1875,40.125,-0.347168,0.6381836,0.001953125,0.1772461,-0.3466797,0.02001953
4962,-11.125,3.6875,22.9375,-0.3510742,0.6420898,0.03662109,0.1748047,-0.3505859,0.02001953
4966,-9.9375,3.375,22.625,-0.4013672,0.6381836,0.1020508,0.1748047,-0.3520508,0.02001953
4970,-22.5625,8.4375,40.5,-0.4521484,0.7197266,0.09814453,0.1713867,-0.3530273,0.01855469
4974,-36.25,9.3125,57.6875,-0.4287109,0.7236328,0.1132813,0.1689453,-0.3554688,0.01855469
4978,-24.9375,10.0625,55.25,-0.3745117,0.7626953,0.07128906,0.1640625,-0.359375,0.01611328
4983,-15.6875,11.8125,34.8125,-0.4013672,0.9179688,0.04052734,0.1591797,-0.3603516,0.01318359
4987,-14.3125,11.25,20.25,-0.4711914,0.9643555,-0.01318359,0.1582031,-0.359375,0.01464844
4991,-28.3125,8,21.0625,-0.5141602,0.987793,0.03271484,0.1547852,-0.3618164,0.01318359
4995,-45.1875,7.4375,30.5625,-0.4633789,0.9140625,0.125,0.1533203,-0.3632813,0.01074219
4999,-52.1875,12,33.375,-0.4169922,0.9023438,0.2133789,0.1484375,-0.3657227,0.006347656
5003,-49.8125,18.6875,27.4375,-0.3823242,0.7817383,0.2983398,0.1459961,-0.3666992,0.00390625
5007,-27.25,21.6875,15.75,-0.5253906,0.7275391,0.2636719,0.1450195,-0.3681641,0
5011,-1,8.5625,11.8125,-0.6767578,0.8129883,0.2402344,0.1425781,-0.3706055,-0.001464844
5015,13.75,-7.375,9,-0.5527344,1.022949,0.2636719,0.1425781,-0.3666992,0.00390625
5019,17.625,1.875,-2.875,-0.3085938,1.150879,0.3710938,0.1416016,-0.3706055,0.0009765625
5023,10.6875,24.375,-8.6875,-0.3666992,1.209473,0.355957,0.144043,-0.3666992,0.00390625
5027,-1,29.3125,-11.625,-0.6069336,1.267578,0.2290039,0.1425781,-0.3681641,0.006347656
5031,-8.1875,22.3125,-12.9375,-0.699707,1.186035,0.2172852,0.144043,-0.3691406,0.006347656
5035,-9.5,17.8125,-5,-0.7578125,1.104492,0.2290039,0.144043,-0.3691406,0.004882813
5039,-1.875,12.9375,1.125,-0.6923828,0.9995117,0.2788086,0.1450195,-0.3681641,0.006347656
5043,16.1875,13.4375,-4.6875,-0.6030273,0.9760742,0.2558594,0.1450195,-0.3681641,0.006347656
5047,28.1875,16.0625,-9.1875,-0.5683594,1.022949,0.2133789,0.144043,-0.3666992,0.01074219
5051,31.6875,15.6875,-16.5,-0.5605469,1.04248,0.144043,0.1459961,-0.3642578,0.01318359
5055,33.9375,11.4375,-26.5625,-0.6342773,1.092773,0.05957031,0.1474609,-0.3657227,0.01611328
5059,23.5,8.375,-26.3125,-0.6689453,1.135742,0.02099609,0.1499023,-0.3632813,0.02001953
5063,6.625,13.25,-15.125,-0.7231445,1.030762,0.009765625,0.1523438,-0.3618164,0.02148438
5067,-4.9375,9.375,3,-0.7504883,0.9604492,-0.009277344,0.1533203,-0.3603516,0.02148438
5071,-0.6875,2.5,4.5625,-0.6572266,0.90625,0.005859375,0.1508789,-0.3579102,0.02148438
5075,10.625,0,-2.3125,-0.5527344,0.953125,0.03271484,0.1523438,-0.3618164,0.02294922
5079,16.8125,5.5,-7.5625,-0.5605469,1.007324,0.005859375,0.1523438,-0.3618164,0.02148438
5083,14.9375,11.75,-7.9375,-0.6030273,1.053711,-0.02050781,0.1523438,-0.3603516,0.02392578
5087,9,14.4375,-2.75,-0.7270508,1.077148,-0.07861328,0.1523438,-0.3603516,0.02539063
5091,0.5625,7.9375,9.3125,-0.7851563,1.12793,-0.1054688,0.1523438,-0.3618164,0.02685547
5095,-9.4375,2.6875,17.9375,-0.7114258,1.178223,-0.07080078,0.1499023,-0.3618164,0.02685547
5099,-15.3125,8.1875,19.3125,-0.5566406,1.174316,-0.005371094,0.1484375,-0.3618164,0.02539063
5103,-14.75,16.375,11.8125,-0.5683594,1.150879,0.009765625,0.1484375,-0.3632813,0.02539063
5107,-5.5,17,5.8125,-0.6455078,1.084961,-0.01318359,0.1484375,-0.3632813,0.02392578
5112,5.6875,10.375,3.625,-0.7231445,1.112305,-0.02832031,0.1459961,-0.3642578,0.02685547
5116,13.5,5.5625,1.5,-0.6845703,1.221191,-0.01660156,0.1450195,-0.3618164,0.02685547
5120,11.0625,8.125,5.0625,-0.6689453,1.317871,-0.01660156,0.1450195,-0.3642578,0.02978516
5124,6,12.3125,10.3125,-0.6689453,1.426758,-0.03613281,0.144043,-0.3642578,0.02978516
5128,11.8125,9.8125,5.4375,-0.7075195,1.422852,-0.04003906,0.144043,-0.3603516,0.02832031
5132,28.5,7.0625,-12.3125,-0.715332,1.422852,0.01708984,0.1425781,-0.3632813,0.03076172
5136,47.6875,6.5,-24,-0.7192383,1.422852,0.06738281,0.144043,-0.3618164,0.03613281
5140,49.75,16.3125,-29.4375,-0.6962891,1.49707,0.08642578,0.1484375,-0.3618164,0.0390625
5144,37.4375,29.875,-26,-0.7231445,1.458008,0.03271484,0.1484375,-0.3569336,0.04296875
5148,32,34.9375,-25.75,-0.8354492,1.32959,-0.04736328,0.1523438,-0.3554688,0.04882813
5152,37.4375,29.4375,-31,-0.8896484,1.275391,-0.1323242,0.1508789,-0.3554688,0.05419922
5156,43.4375,18,-42.0625,-0.9790039,1.20166,-0.1435547,0.1557617,-0.3544922,0.05517578
5160,43,10.8125,-44.375,-0.9907227,1.186035,-0.1669922,0.1567383,-0.3481445,0.06103516
5164,33.25,6.6875,-39.625,-0.9594727,1.120117,-0.1362305,0.1606445,-0.3481445,0.06347656
5168,22.8125,9.75,-35.3125,-0.8896484,1.073242,-0.09765625,0.1616211,-0.3457031,0.06640625
5172,22,9.4375,-37.5625,-0.8857422,0.9296875,-0.128418,0.1650391,-0.3408203,0.06884766
5176,37.5625,-2.125,-46.8125,-0.9091797,0.8710938,-0.1552734,0.1674805,-0.3408203,0.0703125
5180,52.5,-18.375,-59.6875,-0.8549805,0.809082,-0.1435547,0.1738281,-0.3369141,0.07324219
5184,58.4375,-21.5,-59.125,-0.7773438,0.7973633,-0.1401367,0.1772461,-0.3320313,0.07861328
5188,50.9375,-26.5625,-49.0625,-0.796875,0.7739258,-0.2363281,0.1806641,-0.328125,0.08007813
5192,40.625,-35.625,-39.8125,-0.6533203,0.7158203,-0.2822266,0.1865234,-0.3242188,0.08105469
5196,38.4375,-40.125,-36.375,-0.5913086,0.6616211,-0.324707,0.1928711,-0.3208008,0.08105469
5200,34.875,-60.125,-39.5625,-0.5488281,0.5839844,-0.394043,0.1928711,-0.3208008,0.08105469
5204,28.125,-82.9375,-39.4375,-0.4091797,0.5605469,-0.3012695,0.1987305,-0.3154297,0.08105469
5208,12.75,-93.75,-39.1875,-0.1381836,0.5488281,-0.1782227,0.2070313,-0.3120117,0.07568359
5212,-6.5,-92,-37.6875,-0.06835938,0.5136719,-0.1899414,0.2080078,-0.3129883,0.07324219
5216,-42.3125,-100.125,-33.25,-0.06445313,0.5332031,-0.09765625,0.2138672,-0.3081055,0.06494141
5220,-67.625,-111.0625,-30.625,0.04736328,0.2109375,0.09033203,0.21875,-0.3095703,0.05419922
5224,-73.125,-101.875,-27.25,0.2797852,0.09033203,0.3481445,0.2236328,-0.3081055,0.04443359
5228,-73.375,-77.625,-32.1875,0.2915039,0.03613281,0.5288086,0.2270508,-0.3066406,0.03222656
5232,-75.4375,-42.625,-27.6875,0.1831055,0.008789063,0.5830078,0.2294922,-0.3066406,0.02294922
5236,-70.3125,-20.9375,-20.6875,-0.09521484,-0.01025391,0.5097656,0.2319336,-0.3066406,0.01708984
5241,-55.625,-6,-12.1875,-0.2001953,-0.05664063,0.4057617,0.2329102,-0.3056641,0.01074219
5245,-36.375,2.9375,-1.5,-0.362793,0.008789063,0.2944336,0.234375,-0.3066406,0.006347656
5249,-20.375,6.4375,8.9375,-0.4326172,0.05517578,0.1826172,0.2329102,-0.3056641,0.004882813
5253,1.5625,6.25,15,-0.5214844,0.121582,0.1210938,0.2329102,-0.3056641,0.004882813
5257,16.875,5.4375,26,-0.5102539,0.2651367,0.07910156,0.2319336,-0.3081055,0.0078125
5261,30.875,6.5625,31.25,-0.4868164,0.3701172,-0.005371094,0.2294922,-0.3081055,0.0078125
5265,42.4375,2.5,30.625,-0.5952148,0.5800781,-0.1708984,0.2260742,-0.3120117,0.01171875
5269,37,-4.4375,33.625,-0.5566406,0.7739258,-0.2207031,0.2260742,-0.3120117,0.01464844
5273,17.25,-4.625,35.4375,-0.5141602,0.8984375,-0.1474609,0.2236328,-0.3144531,0.01708984
5277,-5.3125,0.75,35.3125,-0.362793,0.890625,0.02880859,0.2202148,-0.3168945,0.01611328
5281,-18.375,12.875,29.25,-0.2851563,0.8129883,0.1713867,0.21875,-0.3193359,0.01611328
5285,-25.25,27,22.1875,-0.3046875,0.7509766,0.2441406,0.2177734,-0.3208008,0.01611328
5289,-27.875,35.4375,17.0625,-0.3588867,0.6459961,0.2250977,0.215332,-0.3232422,0.01464844
5293,-25.3125,39.375,14.0625,-0.4130859,0.5371094,0.2021484,0.2128906,-0.3242188,0.01464844
5297,-23.0625,42,18.375,-0.4482422,0.5175781,0.1943359,0.2128906,-0.3256836,0.01611328
5301,-26.3125,39.6875,24.6875,-0.4594727,0.4946289,0.1518555,0.2094727,-0.3266602,0.01855469
5305,-25.75,42.625,32.125,-0.3203125,0.4477539,0.2060547,0.2080078,-0.3291016,0.01708984
5309,-25.3125,52.5,38.375,-0.3046875,0.4829102,0.1982422,0.203125,-0.3305664,0.02001953
5313,-24.4375,53.4375,41.75,-0.347168,0.4868164,0.1826172,0.2011719,-0.3354492,0.02001953
5317,-15.75,44.6875,36.75,-0.4169922,0.4868164,0.1020508,0.1987305,-0.3369141,0.02148438
5321,-2.1875,33.0625,31.875,-0.4404297,0.4868164,0.08642578,0.1962891,-0.3369141,0.02148438
5325,-0.8125,26.375,33.3125,-0.4169922,0.6381836,0.05957031,0.1914063,-0.3378906,0.02539063
5329,-8.75,26.5,32.875,-0.3823242,0.6499023,0.04443359,0.1865234,-0.3408203,0.02539063
5333,-16.5625,31.5625,34.75,-0.3588867,0.6811523,0.04443359,0.1855469,-0.3442383,0.02392578
5337,-26.25,33.5,37.25,-0.4365234,0.6962891,0.01367188,0.1831055,-0.3457031,0.02392578
5341,-26.4375,37.25,34.5625,-0.4208984,0.7431641,0.001953125,0.1772461,-0.3466797,0.02539063
5345,-20,39.1875,19.9375,-0.4946289,0.840332,-0.02050781,0.1772461,-0.3481445,0.02685547
5349,-15.375,34.4375,5.0625,-0.5991211,0.9453125,-0.07080078,0.1748047,-0.3491211,0.02685547
