Packet number,Gyroscope X (deg/s),Gyroscope Y (deg/s),Gyroscope Z (deg/s),Accelerometer X (g),Accelerometer Y (g),Accelerometer Z (g),Magnetometer X (G),Magnetometer Y (G),Magnetometer Z (G)
2,5.375,6.125,3.625,0.7797852,0.5722656,-0.1630859,-0.2519531,-0.234375,0.1123047
6,4.1875,2.9375,2.0625,0.8032227,0.5761719,-0.1669922,-0.253418,-0.234375,0.1113281
10,0.375,-0.125,0.5,0.7797852,0.6108398,-0.1821289,-0.253418,-0.2329102,0.1123047
14,-1.9375,-2.5,1.3125,0.8071289,0.5878906,-0.1669922,-0.253418,-0.2329102,0.1113281
18,-3.375,-0.25,4.5,0.8300781,0.5761719,-0.1630859,-0.253418,-0.2329102,0.1098633
22,-0.75,3.3125,5.4375,0.8574219,0.5410156,-0.1474609,-0.253418,-0.2319336,0.1098633
26,4.875,7.5625,4.875,0.8652344,0.5214844,-0.128418,-0.2543945,-0.234375,0.1113281
30,9.625,11.25,5.4375,0.8691406,0.5371094,-0.1474609,-0.2543945,-0.2329102,0.1113281
34,8.1875,10.5625,3.0625,0.8110352,0.6108398,-0.1860352,-0.2553711,-0.2319336,0.1113281
38,1.25,0.8125,0.5,0.7915039,0.6381836,-0.1899414,-0.2568359,-0.2319336,0.1098633
42,-5.125,-6.0625,0,0.8183594,0.6264648,-0.1630859,-0.2543945,-0.2304688,0.1113281
46,-6.875,-9.625,-0.5625,0.8881836,0.6108398,-0.1401367,-0.2543945,-0.2319336,0.1113281
50,-4.6875,-8.625,-1.375,0.9541016,0.6030273,-0.09765625,-0.2553711,-0.2304688,0.1113281
54,0.75,-6.75,-1.1875,1.035645,0.6303711,-0.07470703,-0.2543945,-0.2319336,0.1113281
58,4.5625,-5.75,0,1.105469,0.6884766,-0.06689453,-0.2543945,-0.2319336,0.1113281
62,6.6875,-10.0625,-4.125,1.198242,0.7548828,-0.08203125,-0.2543945,-0.2319336,0.1113281
66,7,-16,-11.625,1.291504,0.8168945,-0.109375,-0.253418,-0.2304688,0.1137695
70,12.5625,-22,-20,1.318359,0.809082,-0.09765625,-0.2509766,-0.2319336,0.1166992
74,24.0625,-16.0625,-25.5625,1.438477,0.875,-0.112793,-0.2495117,-0.234375,0.1166992
78,28.375,-6.1875,-25.0625,1.326172,0.875,-0.2246094,-0.2485352,-0.234375,0.1191406
82,28.9375,-5.25,-27.9375,1.233398,0.953125,-0.2783203,-0.2460938,-0.2329102,0.1220703
86,22.625,-12.1875,-33.4375,1.09375,0.9760742,-0.394043,-0.2446289,-0.2368164,0.125
90,12.375,-25.5,-39.5,1.05127,0.987793,-0.4516602,-0.2436523,-0.2382813,0.125
95,2.9375,-23.75,-39.8125,1.140137,0.9335938,-0.3745117,-0.2402344,-0.2392578,0.1274414
99,-2.375,-6.8125,-34.125,1.059082,0.7817383,-0.3398438,-0.237793,-0.2416992,0.1289063
103,1.3125,-1.8125,-34.875,0.9775391,0.7509766,-0.4052734,-0.2353516,-0.2456055,0.1289063
107,-4.25,-4.75,-44.6875,0.9350586,0.855957,-0.4477539,-0.2329102,-0.2470703,0.1303711
111,-18.125,-7.9375,-53.3125,0.9194336,0.8364258,-0.4248047,-0.2319336,-0.2504883,0.1274414
115,-26.8125,-2.4375,-54.6875,0.8613281,0.6381836,-0.3745117,-0.2255859,-0.2568359,0.1289063
119,-24,9.625,-54.8125,0.9389648,0.6655273,-0.2592773,-0.2246094,-0.2583008,0.1259766
123,-27.25,32.8125,-54.6875,0.7915039,0.5952148,-0.1977539,-0.222168,-0.265625,0.1235352
127,-26,39.0625,-54.875,0.5395508,0.5058594,-0.1821289,-0.2197266,-0.2695313,0.1191406
131,-24.375,21.25,-59.3125,0.4155273,0.6186523,-0.2514648,-0.21875,-0.2753906,0.1152344
135,-41.3125,12.375,-59.875,0.4580078,0.6884766,-0.1708984,-0.2138672,-0.2807617,0.1123047
139,-52.5,13,-50,0.3769531,0.5292969,-0.08203125,-0.2114258,-0.2856445,0.1083984
143,-47.0625,17.8125,-23.1875,0.3769531,0.4125977,-0.03613281,-0.2104492,-0.2895508,0.1030273
147,-45.625,31.3125,-3.75,0.4814453,0.4868164,0.001953125,-0.2089844,-0.2919922,0.1000977
151,-46.0625,48.1875,9.5625,0.4931641,0.4243164,0.005859375,-0.2104492,-0.2929688,0.09326172
155,-52.8125,43.375,0.4375,0.3417969,0.4711914,0.03271484,-0.2163086,-0.2929688,0.09082031
159,-55.3125,15.75,-15.3125,0.2758789,0.3583984,-0.01660156,-0.215332,-0.2954102,0.08251953
163,-52.0625,1.125,-24.875,0.4038086,0.3310547,0.03271484,-0.2114258,-0.3007813,0.07861328
167,-37.6875,14.25,-23.875,0.574707,0.3120117,0.03271484,-0.2114258,-0.3032227,0.07714844
171,-16.6875,44.0625,-17.75,0.5898438,0.3388672,-0.06689453,-0.2104492,-0.3041992,0.07177734
175,-15.5625,64.5,-14.6875,0.4619141,0.6069336,-0.1362305,-0.2104492,-0.3066406,0.06787109
179,-26.875,48.5,-14.875,0.02832031,0.5136719,-0.1435547,-0.2114258,-0.3041992,0.06640625
183,-26.25,2.3125,-14.375,-0.04101563,0.5175781,-0.001464844,-0.2104492,-0.3095703,0.05957031
187,-21.875,-18,-3.375,0.2104492,0.5371094,0.09033203,-0.2089844,-0.3120117,0.05810547
191,-10.125,-16,7.9375,0.4194336,0.5332031,0.04785156,-0.2080078,-0.3095703,0.05664063
195,-0.9375,-7.6875,16.375,0.5317383,0.5722656,-0.01318359,-0.2104492,-0.3095703,0.05810547
199,4.375,2.5625,20.3125,0.5898438,0.5371094,0.001953125,-0.2128906,-0.3095703,0.05957031
203,12.875,5.125,21.375,0.6171875,0.5371094,-0.02441406,-0.2114258,-0.3105469,0.05810547
207,21.0625,7.6875,13.1875,0.6518555,0.5722656,-0.07861328,-0.2138672,-0.3056641,0.05810547
211,25.75,8.375,7.6875,0.644043,0.5913086,-0.07080078,-0.2138672,-0.3056641,0.06103516
215,28.3125,15.3125,13.6875,0.5976563,0.6108398,-0.05517578,-0.2163086,-0.3032227,0.06347656
219,28.9375,13.625,20.875,0.5668945,0.6538086,-0.05908203,-0.2172852,-0.3032227,0.06347656
224,27.125,12.4375,27.8125,0.5668945,0.6459961,0.02099609,-0.21875,-0.2983398,0.06347656
228,25.875,8.3125,33.125,0.5395508,0.6186523,0.05175781,-0.2197266,-0.2983398,0.06640625
232,25.625,-0.6875,32.9375,0.5126953,0.5683594,0.09033203,-0.2236328,-0.2954102,0.06787109
236,28.3125,-9.875,27.375,0.5356445,0.5761719,0.09033203,-0.2255859,-0.2919922,0.06884766
240,28.625,-11.5,25.1875,0.4931641,0.5566406,0.1132813,-0.2270508,-0.2895508,0.07177734
244,33.1875,-7.5625,39.5625,0.4038086,0.4204102,0.159668,-0.2280273,-0.2866211,0.07177734
248,46.6875,-5.8125,63.75,0.3959961,0.3662109,0.08642578,-0.2294922,-0.2807617,0.07714844
252,46.9375,-6.5,84.4375,0.578125,0.5175781,-0.03222656,-0.234375,-0.2768555,0.08007813
256,34.3125,5.1875,94,0.7875977,0.5449219,-0.07861328,-0.2402344,-0.2695313,0.08544922
260,37.75,31.0625,98.5,0.6635742,0.3583984,-0.02832031,-0.2460938,-0.2617188,0.08544922
264,48.25,24.8125,98.25,0.3266602,0.2807617,0.02099609,-0.253418,-0.2558594,0.08691406
268,51.125,-11.125,91.9375,0.2875977,0.3505859,-0.005371094,-0.2568359,-0.2431641,0.08544922
272,38.625,-39.6875,85.875,0.3999023,0.3662109,-0.128418,-0.2626953,-0.2358398,0.09228516
276,26.625,-69.125,67.5,0.6791992,0.3740234,-0.2705078,-0.2636719,-0.2294922,0.09912109
280,26.6875,-67.9375,42.0625,0.9970703,0.3271484,-0.2939453,-0.2636719,-0.2216797,0.1030273
284,25.125,-35.625,36.75,1.144043,0.4516602,-0.2475586,-0.2651367,-0.2182617,0.1098633
288,19.3125,0.6875,33.75,1.085938,0.4555664,-0.1977539,-0.2651367,-0.2158203,0.1113281
292,9.25,17.375,32.3125,0.8339844,0.4165039,-0.2016602,-0.2685547,-0.2094727,0.1123047
296,10.5625,13.6875,32.4375,0.7333984,0.1914063,-0.1054688,-0.2700195,-0.2104492,0.1113281
300,24.75,-1.4375,19.3125,0.6831055,0.2495117,-0.07861328,-0.2709961,-0.2070313,0.1098633
304,33.875,-24.125,-0.4375,0.7529297,0.4360352,-0.1552734,-0.2709961,-0.2045898,0.1113281
308,27.375,-33.625,-4.625,0.8842773,0.6069336,-0.2939453,-0.2709961,-0.203125,0.1166992
312,9.3125,-31.3125,-7.6875,1.0625,0.7275391,-0.3823242,-0.2700195,-0.203125,0.1206055
316,-6.5,-15.1875,-10.5625,1.16748,0.6108398,-0.2670898,-0.2661133,-0.203125,0.1235352
320,-0.3125,4.0625,-3.625,1.023926,0.4125977,-0.1782227,-0.2651367,-0.2055664,0.1235352
324,10.6875,-3.875,-0.75,0.9077148,0.5019531,-0.3554688,-0.2675781,-0.2045898,0.1220703
328,7.9375,-15.8125,-17.9375,1.121094,0.6264648,-0.3706055,-0.2661133,-0.2045898,0.1235352
332,4.1875,-4.3125,-31.125,1.186523,0.5761719,-0.324707,-0.2636719,-0.2080078,0.125
336,11.5,18.5625,-37.3125,1.147949,0.5410156,-0.2167969,-0.2626953,-0.2070313,0.1235352
340,14.4375,33.625,-38.125,0.8999023,0.6108398,-0.1630859,-0.2626953,-0.2104492,0.1206055
344,12.6875,32.6875,-31.375,0.690918,0.6499023,-0.1513672,-0.2602539,-0.2119141,0.1220703
348,1.5625,14.5625,-24.5,0.5317383,0.7353516,-0.2783203,-0.2617188,-0.2128906,0.1206055
353,-19.4375,-20.1875,-26.375,0.6479492,0.8168945,-0.3823242,-0.2602539,-0.2167969,0.1181641
357,-39.875,-27.625,-31.6875,0.9462891,0.7431641,-0.2822266,-0.2578125,-0.2182617,0.1206055
361,-43.3125,-9.0625,-35.6875,1.082031,0.5952148,-0.2363281,-0.2553711,-0.2246094,0.1206055
365,-34.6875,16.1875,-39.625,1.066406,0.5566406,-0.1552734,-0.253418,-0.2294922,0.1166992
369,-18.9375,34.4375,-29.0625,0.9077148,0.4672852,-0.09375,-0.253418,-0.2304688,0.1123047
373,-0.4375,40.625,-17.875,0.7954102,0.5605469,-0.08984375,-0.253418,-0.234375,0.1123047
377,0.25,31.9375,-17.625,0.7060547,0.7587891,-0.1362305,-0.253418,-0.2368164,0.1083984
381,-9.3125,16.1875,-18.75,0.6635742,0.7973633,-0.1362305,-0.2543945,-0.2382813,0.105957
385,-17.875,4.5,-15,0.6171875,0.7895508,-0.1323242,-0.2519531,-0.2392578,0.105957
389,-21.5,-10.0625,-10.75,0.7177734,0.793457,-0.1362305,-0.253418,-0.2407227,0.1044922
393,-23.25,-12.8125,-11.25,0.8730469,0.7705078,-0.128418,-0.2509766,-0.2407227,0.1030273
397,-17.125,-4.8125,-10.25,1.004395,0.7587891,-0.112793,-0.2509766,-0.2416992,0.1030273
401,-6.5,15.5,-4,1.031738,0.7587891,-0.109375,-0.2485352,-0.2431641,0.1015625
405,0.0625,36.75,11.875,0.9541016,0.8129883,-0.1401367,-0.2509766,-0.2431641,0.09912109
409,-4.75,41.0625,24,0.8803711,0.8671875,-0.2016602,-0.2519531,-0.2431641,0.09912109
413,-15.375,27.9375,21.5,0.8496094,0.8598633,-0.2324219,-0.2553711,-0.2407227,0.09472656
417,-25.8125,3.8125,8.25,0.9038086,0.8671875,-0.1630859,-0.2553711,-0.2392578,0.09228516
421,-30.5625,-12.6875,0.5625,0.9736328,0.7817383,-0.1166992,-0.2578125,-0.2416992,0.08935547
425,-25.8125,-4.3125,7.875,1.132324,0.6811523,0.001953125,-0.2553711,-0.2416992,0.09082031
429,-14.9375,12.375,17.6875,1.163574,0.6459961,0.009765625,-0.2568359,-0.2407227,0.08935547
433,-4.125,23.125,22.0625,1.175293,0.6811523,0.01708984,-0.2568359,-0.2416992,0.08691406
437,0.375,21.9375,20.875,1.144043,0.7895508,-0.009277344,-0.2602539,-0.2392578,0.08544922
441,-9.375,-2.1875,8.25,1.089844,0.9335938,-0.03222656,-0.2602539,-0.2382813,0.08398438
445,-9.0625,-39.4375,-14.125,1.155762,0.8442383,-0.001464844,-0.2602539,-0.2368164,0.08251953
449,14.0625,-57.375,-25.5625,1.368652,0.7587891,0.09814453,-0.2592773,-0.2392578,0.08398438
453,47.3125,-38.375,-21.9375,1.535645,0.7895508,0.001953125,-0.2543945,-0.2392578,0.09326172
457,71.5625,-7.25,-11.4375,1.516113,0.9335938,-0.1669922,-0.253418,-0.2392578,0.09765625
461,74,12.5625,-1.625,1.372559,1.131836,-0.3862305,-0.253418,-0.2368164,0.1015625
465,54.6875,9.875,-3,1.128418,1.283203,-0.5092773,-0.253418,-0.2358398,0.105957
469,25.125,-12.6875,-5.9375,0.9892578,1.221191,-0.4936523,-0.253418,-0.234375,0.105957
473,12.4375,-33.8125,-17.4375,1.02002,0.9643555,-0.3823242,-0.253418,-0.234375,0.1069336
477,17.9375,-37.375,-28.3125,1.140137,0.8442383,-0.2631836,-0.253418,-0.2368164,0.1137695
482,26.625,-30.5625,-32.625,1.101563,0.777832,-0.3012695,-0.2495117,-0.2368164,0.1152344
486,29.25,-24.8125,-33.9375,1.101563,0.8828125,-0.3051758,-0.2446289,-0.2392578,0.1191406
490,21.75,-15.375,-29.875,1.023926,0.9023438,-0.2978516,-0.2436523,-0.2392578,0.1206055
494,10.9375,-11.125,-20,0.9697266,0.9140625,-0.2705078,-0.2412109,-0.2416992,0.125
498,-0.875,-9.3125,-19.25,0.8730469,0.7817383,-0.1860352,-0.2402344,-0.2416992,0.1220703
502,4.375,-27.375,-40.0625,0.7490234,0.6538086,-0.1362305,-0.2387695,-0.2456055,0.1274414
506,19.1875,-47.625,-58.625,0.7529297,0.5839844,-0.1054688,-0.2353516,-0.2456055,0.1289063
510,33,-45.4375,-64,0.8339844,0.6225586,-0.08984375,-0.2304688,-0.2504883,0.1313477
514,39.125,-27.9375,-58.6875,0.8691406,0.7895508,-0.2016602,-0.2236328,-0.2529297,0.1357422
518,22.125,-3.0625,-53.125,0.7836914,0.9492188,-0.34375,-0.2211914,-0.2543945,0.137207
522,1.4375,9.4375,-51.0625,0.6948242,0.9799805,-0.378418,-0.2172852,-0.2568359,0.1381836
526,-13.375,23.375,-50.25,0.5239258,0.793457,-0.2939453,-0.215332,-0.2617188,0.1396484
530,-20.3125,26.125,-47.5625,0.3305664,0.6342773,-0.2631836,-0.2138672,-0.2617188,0.137207
534,-29.4375,18.8125,-41.625,0.2333984,0.5605469,-0.2363281,-0.2138672,-0.2705078,0.1328125
538,-40.8125,19.9375,-30,0.2490234,0.5175781,-0.1323242,-0.2104492,-0.2719727,0.1303711
542,-50.5625,23.125,-15.6875,0.206543,0.3662109,-0.07080078,-0.2114258,-0.2768555,0.1259766
546,-48.75,20.25,-9.4375,0.1791992,0.2070313,0.04052734,-0.2104492,-0.2792969,0.1220703
550,-34.0625,11.125,-9.25,0.2177734,0.1914063,0.01708984,-0.2114258,-0.2807617,0.1166992
554,-39.4375,-1.625,-9.25,0.2758789,0.4086914,-0.08203125,-0.2104492,-0.2841797,0.1166992
558,-55,-14.125,-6.3125,0.3730469,0.3662109,-0.112793,-0.2104492,-0.2866211,0.1137695
562,-56.0625,-11.375,-0.5,0.4970703,0.1523438,-0.005371094,-0.2104492,-0.2880859,0.1098633
566,-30.5,2.5625,2.1875,0.6289063,0.05126953,0.05566406,-0.2080078,-0.2895508,0.1069336
570,-2.9375,28.6875,-0.8125,0.7373047,0.140625,-0.02441406,-0.2104492,-0.2905273,0.1044922
574,3.5625,43.9375,-10.6875,0.5395508,0.4086914,-0.1591797,-0.2104492,-0.2919922,0.1044922
578,-2.625,29.1875,-22.125,0.4506836,0.5605469,-0.2783203,-0.2089844,-0.2919922,0.1015625
582,-12.625,22.5625,-25.5,0.4541016,0.5878906,-0.2016602,-0.2089844,-0.2929688,0.09912109
586,-14.25,23.1875,-13.125,0.4194336,0.6225586,-0.1591797,-0.2089844,-0.296875,0.09765625
590,-13.6875,26.25,-1.0625,0.4389648,0.5839844,-0.08203125,-0.2080078,-0.2954102,0.09619141
594,-5.875,26,2.4375,0.4077148,0.5722656,-0.05126953,-0.2104492,-0.2983398,0.09082031
598,-0.625,20.4375,8.875,0.3999023,0.5991211,-0.03222656,-0.2104492,-0.296875,0.09082031
602,4.6875,12,15.6875,0.4428711,0.6069336,-0.06298828,-0.2114258,-0.2954102,0.08935547
606,2.875,1.3125,19.625,0.4580078,0.7197266,-0.128418,-0.2138672,-0.2954102,0.08935547
611,-5,-8.5625,26.75,0.4892578,0.7314453,-0.1474609,-0.2163086,-0.2929688,0.08935547
615,-7.875,-13.3125,29.3125,0.5512695,0.6147461,-0.1054688,-0.2172852,-0.2929688,0.08935547
619,-1.1875,-15.6875,27.4375,0.625,0.5488281,-0.0859375,-0.2197266,-0.2905273,0.09228516
623,4.5,-9.9375,26.6875,0.690918,0.5410156,-0.04736328,-0.2197266,-0.2895508,0.09082031
627,10.5625,-5.0625,27.125,0.659668,0.5058594,-0.07470703,-0.2211914,-0.2866211,0.09082031
631,13.625,-4.375,26.375,0.6674805,0.5566406,-0.09375,-0.2211914,-0.2841797,0.09228516
635,13.125,-0.3125,27.5,0.6870117,0.5449219,-0.06298828,-0.222168,-0.2817383,0.09472656
639,15.4375,6.1875,32.8125,0.6362305,0.5136719,-0.01318359,-0.2255859,-0.2783203,0.09472656
643,14.125,5.25,33.25,0.5820313,0.4672852,0.02880859,-0.2280273,-0.2768555,0.09619141
647,22.125,3.625,28.8125,0.5820313,0.315918,0.07910156,-0.2294922,-0.2744141,0.09765625
651,34.875,2.3125,27.3125,0.5239258,0.2963867,-0.04003906,-0.2294922,-0.2705078,0.09765625
655,38.3125,-2.375,29.25,0.5356445,0.4321289,-0.112793,-0.2319336,-0.2680664,0.1000977
659,28.6875,4.75,39.375,0.574707,0.4829102,-0.109375,-0.237793,-0.2631836,0.1015625
663,23.625,18.625,52.875,0.5976563,0.3935547,-0.08203125,-0.237793,-0.2607422,0.1030273
667,22.0625,43.375,71.375,0.6015625,0.3583984,-0.08203125,-0.2436523,-0.2558594,0.1015625
671,28.75,50.4375,74.3125,0.5009766,0.2963867,-0.109375,-0.2485352,-0.2495117,0.1015625
675,38.5,23.9375,57.625,0.4116211,0.3935547,-0.2592773,-0.2519531,-0.2456055,0.1000977
679,29.75,-11.5,34.8125,0.574707,0.5605469,-0.3129883,-0.2543945,-0.2407227,0.09912109
683,11.25,-17.0625,18,0.7641602,0.5913086,-0.3286133,-0.2568359,-0.2358398,0.1044922
687,4.9375,-4.6875,17.3125,0.8300781,0.4907227,-0.3129883,-0.2568359,-0.234375,0.105957
691,-1.1875,18.4375,23.6875,0.9077148,0.6381836,-0.3168945,-0.2578125,-0.2319336,0.1044922
695,-5.875,39.6875,24.3125,0.8691406,0.6381836,-0.3051758,-0.2617188,-0.2304688,0.1030273
699,-11,56.75,29.6875,0.7216797,0.5839844,-0.2397461,-0.2626953,-0.2280273,0.1000977
703,-8.75,55.375,24.6875,0.6171875,0.5253906,-0.2016602,-0.2661133,-0.2280273,0.09472656
707,-7.4375,43.8125,13.875,0.5859375,0.5913086,-0.109375,-0.2685547,-0.2255859,0.09082031
711,-9.875,33.4375,10.25,0.5161133,0.6069336,-0.08203125,-0.2700195,-0.2246094,0.08935547
715,-17.75,21.1875,18.125,0.4311523,0.6420898,-0.04736328,-0.2700195,-0.2255859,0.08398438
719,-30.8125,4.375,36.5,0.4467773,0.6538086,-0.02050781,-0.2724609,-0.2231445,0.08105469
723,-41.875,-12.75,52.125,0.5551758,0.6264648,0.02880859,-0.2744141,-0.2207031,0.08007813
727,-51.0625,-29,52.5625,0.7138672,0.6069336,-0.001464844,-0.2768555,-0.2182617,0.08007813
731,-47.9375,-38.25,37.25,0.9272461,0.4985352,0.005859375,-0.2768555,-0.2158203,0.08105469
735,-33.5625,-29.375,23.5,1.085938,0.5332031,0.009765625,-0.2792969,-0.2143555,0.08105469
740,-25.9375,-12.1875,23.1875,1.128418,0.6030273,-0.04003906,-0.2783203,-0.2119141,0.08398438
744,-27.625,4.625,29.5,1.097656,0.6655273,-0.05126953,-0.2807617,-0.2119141,0.08105469
748,-38.75,6.9375,31.5625,1.031738,0.7236328,-0.04394531,-0.2807617,-0.2104492,0.07861328
752,-47.4375,-2.25,24.625,0.9970703,0.6538086,-0.01318359,-0.2827148,-0.2080078,0.07714844
756,-48.5,-12.125,10.25,0.9931641,0.5644531,0.02880859,-0.2827148,-0.2070313,0.07714844
760,-41.3125,-23.25,-5.9375,0.9931641,0.5332031,0.07910156,-0.2817383,-0.2094727,0.07421875
764,-38.5625,-33.6875,-16.125,1.02002,0.5761719,0.07519531,-0.2807617,-0.2128906,0.07714844
768,-38,-35.1875,-14.375,1.05127,0.5761719,0.1020508,-0.2807617,-0.2143555,0.07714844
772,-36,-32,-7.125,1.047363,0.6069336,0.1367188,-0.2758789,-0.2143555,0.07714844
776,-28.3125,-27.0625,0.0625,1.02002,0.5253906,0.1557617,-0.2768555,-0.2167969,0.07714844
780,-8.25,-19,8.0625,1.047363,0.4790039,0.1865234,-0.2758789,-0.2182617,0.07861328
784,9.0625,-5.3125,20.375,1.05127,0.5488281,0.09033203,-0.2768555,-0.2167969,0.08105469
788,7.3125,4.125,26.25,1.039551,0.7001953,-0.01318359,-0.2768555,-0.2143555,0.08105469
792,-10.8125,-5.875,22.75,0.9619141,0.8129883,-0.1323242,-0.2792969,-0.2094727,0.08105469
796,-32.375,-24.75,17.75,0.9658203,0.7470703,-0.112793,-0.2783203,-0.2119141,0.08105469
800,-34.75,-30.6875,16.875,1.016113,0.5019531,-0.04003906,-0.2792969,-0.2080078,0.08105469
804,-10.625,-26.5625,15.8125,1.097656,0.300293,0.009765625,-0.2783203,-0.2080078,0.08251953
808,18.8125,-5.4375,18.375,1.186523,0.3544922,-0.04003906,-0.2792969,-0.2094727,0.08398438
812,26.8125,12.5,17.5625,1.159668,0.5722656,-0.2128906,-0.2792969,-0.2045898,0.08544922
816,13.4375,12.0625,13.125,1.055176,0.7314453,-0.3051758,-0.2807617,-0.203125,0.08544922
820,-8.1875,-5.0625,8,1.000488,0.7470703,-0.3398438,-0.2817383,-0.203125,0.08544922
824,-25.6875,-20.125,4.25,1.05127,0.6303711,-0.2978516,-0.2817383,-0.203125,0.08691406
828,-30.25,-25.3125,-1.9375,1.151855,0.4946289,-0.2128906,-0.2807617,-0.2045898,0.08691406
832,-20.75,-24.4375,-7.5625,1.206055,0.4013672,-0.1054688,-0.2792969,-0.203125,0.08789063
836,-1.3125,-14.5625,-8,1.318359,0.4399414,-0.04394531,-0.2792969,-0.2055664,0.08789063
840,4.5625,-5.1875,-11.3125,1.341797,0.6225586,-0.04394531,-0.2783203,-0.2055664,0.08935547
844,2.4375,-5.9375,-12.125,1.322266,0.6577148,-0.02441406,-0.2783203,-0.2055664,0.09082031
848,2.75,-17.5625,-11.375,1.299316,0.6616211,-0.02832031,-0.2768555,-0.2070313,0.09228516
852,4.375,-37.9375,-11.6875,1.345703,0.6845703,-0.08984375,-0.2758789,-0.2070313,0.09326172
856,3.3125,-59.0625,-19.375,1.504395,0.6923828,-0.1860352,-0.2734375,-0.2094727,0.09619141
860,12.125,-66.0625,-35.3125,1.748535,0.6381836,-0.2324219,-0.2709961,-0.2119141,0.1015625
864,32.875,-51.1875,-51.125,1.826172,0.6264648,-0.2705078,-0.2661133,-0.2143555,0.1098633
869,50.1875,-27.5625,-62.125,1.670898,0.7314453,-0.3325195,-0.2636719,-0.2167969,0.1113281
873,58.8125,-16.875,-61.4375,1.46582,0.840332,-0.3823242,-0.2617188,-0.2207031,0.1137695
877,56.4375,-15.4375,-60.75,1.361328,0.9492188,-0.3901367,-0.2568359,-0.2216797,0.1191406
881,48.125,-11.5,-58.375,1.248535,0.9643555,-0.3901367,-0.253418,-0.2231445,0.1206055
885,43.875,-15.1875,-55.0625,1.147949,0.9101563,-0.359375,-0.2509766,-0.2270508,0.1259766
889,42.75,-20.3125,-59.25,1.124512,0.8984375,-0.34375,-0.2460938,-0.2294922,0.1289063
893,41.5,-20.0625,-66.25,1.121094,0.8632813,-0.2900391,-0.2446289,-0.2304688,0.1313477
897,49.75,-2,-59.5,1.09375,0.7470703,-0.2553711,-0.2387695,-0.234375,0.1357422
901,60.875,20.875,-43.5625,1.012207,0.809082,-0.2514648,-0.2363281,-0.2358398,0.137207
905,60.8125,32.4375,-28.1875,0.7641602,0.9140625,-0.3398438,-0.2363281,-0.2358398,0.137207
909,36.9375,18.5,-29.5,0.6054688,1.084961,-0.4208984,-0.2363281,-0.2358398,0.1381836
913,-2.875,-16.375,-50.9375,0.4350586,0.9916992,-0.378418,-0.2329102,-0.2358398,0.1396484
917,-13.75,-54.25,-77.5,0.4116211,0.6108398,-0.1821289,-0.2319336,-0.2407227,0.1411133
921,-0.0625,-62.625,-80.875,0.527832,0.4633789,-0.0859375,-0.2246094,-0.2456055,0.144043
925,11.375,-34.4375,-64.875,0.625,0.4516602,-0.05908203,-0.2163086,-0.2519531,0.1479492
929,14.4375,4.125,-40.5625,0.574707,0.5683594,-0.1860352,-0.215332,-0.2558594,0.1494141
933,-0.625,18.4375,-31.5625,0.3691406,0.6381836,-0.2978516,-0.2114258,-0.2543945,0.1494141
937,-21.125,7.25,-39.875,0.1870117,0.5644531,-0.2783203,-0.2128906,-0.2592773,0.1464844
941,-31.25,-10.375,-46.625,0.2294922,0.3740234,-0.2246094,-0.2104492,-0.2617188,0.1450195
945,-31.125,-10.3125,-45.625,0.3110352,0.3271484,-0.1591797,-0.2055664,-0.2670898,0.1450195
949,-29.0625,4.1875,-34.6875,0.3769531,0.284668,-0.1435547,-0.203125,-0.2719727,0.1425781
953,-26.1875,13.375,-26.4375,0.2685547,0.4243164,-0.2514648,-0.2021484,-0.2744141,0.1411133
957,-43.625,-2.4375,-27.125,0.140625,0.5952148,-0.3359375,-0.2021484,-0.2768555,0.1396484
961,-67.5625,-28.375,-30.3125,0.1831055,0.5253906,-0.3051758,-0.199707,-0.2792969,0.1357422
965,-72,-31.6875,-27.25,0.4311523,0.3193359,-0.1245117,-0.1962891,-0.2841797,0.1328125
969,-55.875,-3.9375,-16.25,0.6479492,0.237793,-0.01318359,-0.1938477,-0.2905273,0.1289063
973,-39.8125,27.8125,-8.0625,0.5317383,0.2456055,0.02099609,-0.1923828,-0.2919922,0.1259766
977,-26.1875,36.375,-0.6875,0.4428711,0.3466797,-0.04003906,-0.1899414,-0.2954102,0.1206055
981,-21.3125,26.375,-1.125,0.4077148,0.5136719,-0.1977539,-0.1938477,-0.296875,0.1191406
985,-30.0625,16,-7.6875,0.4775391,0.6772461,-0.2167969,-0.1948242,-0.296875,0.1137695
989,-40.125,11.9375,-9.4375,0.4736328,0.5761719,-0.1552734,-0.1948242,-0.2993164,0.1137695
993,-32.125,14.4375,-4.1875,0.4697266,0.4243164,-0.07080078,-0.1938477,-0.2993164,0.1098633
998,-18.0625,13.625,-0.125,0.4931641,0.4985352,-0.1166992,-0.1948242,-0.3007813,0.1069336
1002,-14.0625,14.4375,-0.25,0.5473633,0.6030273,-0.1435547,-0.1948242,-0.3017578,0.105957
1006,-11.75,14.375,-2.75,0.59375,0.6655273,-0.1743164,-0.1972656,-0.3032227,0.1030273
1010,-14.625,14.75,-2.8125,0.5629883,0.6772461,-0.1899414,-0.1982422,-0.3017578,0.1015625
1014,-16,12.5,-1.4375,0.5395508,0.6577148,-0.1401367,-0.1972656,-0.3041992,0.1000977
1018,-13.25,11.75,1.125,0.5200195,0.6264648,-0.08203125,-0.1972656,-0.3056641,0.09765625
1022,-7.5,9.5625,3.25,0.5356445,0.6303711,-0.04394531,-0.1982422,-0.3066406,0.09619141
1026,-1.25,8.875,5.1875,0.5200195,0.6499023,-0.05517578,-0.1982422,-0.3056641,0.09472656
1030,1.9375,7.25,11.25,0.5395508,0.7080078,-0.1206055,-0.1982422,-0.3041992,0.09619141
1034,-1.625,7.9375,17.375,0.5859375,0.7626953,-0.1401367,-0.199707,-0.3032227,0.09472656
1038,-4.875,11.4375,23.4375,0.6054688,0.7119141,-0.128418,-0.203125,-0.3032227,0.09472656
1042,-3.25,12.5,24.5625,0.5820313,0.6499023,-0.05517578,-0.203125,-0.3007813,0.09326172
1046,1.9375,6.25,19.4375,0.5551758,0.6108398,-0.02441406,-0.206543,-0.3007813,0.09228516
1050,8.3125,3.1875,16.3125,0.5668945,0.6264648,-0.001464844,-0.2080078,-0.2993164,0.09472656
1054,9.4375,-0.9375,16.1875,0.4931641,0.6655273,-0.04394531,-0.2055664,-0.296875,0.09619141
1058,7.3125,-7.25,20.9375,0.5009766,0.6845703,-0.05908203,-0.2104492,-0.2954102,0.09228516
1062,5,-5.75,28.875,0.5395508,0.6420898,-0.04394531,-0.2089844,-0.2954102,0.09765625
1066,5.0625,1.8125,38.25,0.559082,0.5878906,-0.009277344,-0.2114258,-0.2919922,0.09619141
1070,5.625,4.125,41.3125,0.4814453,0.4868164,-0.04394531,-0.2138672,-0.2905273,0.09326172
1074,9.5,-6.3125,31.9375,0.4892578,0.4360352,-0.08203125,-0.215332,-0.2895508,0.09765625
1078,11.625,-6.625,22.4375,0.5200195,0.4125977,-0.07080078,-0.2197266,-0.2880859,0.09765625
1082,14.8125,-5.25,15.5,0.4116211,0.3857422,-0.128418,-0.2197266,-0.2832031,0.09765625
1086,7.5625,-21,18.8125,0.3227539,0.5683594,-0.2900391,-0.2197266,-0.2817383,0.1000977
1090,-6.0625,-29.625,27.5,0.5239258,0.6030273,-0.3745117,-0.21875,-0.2807617,0.1015625
1094,-19.8125,-21.125,28.625,0.7099609,0.5527344,-0.2822266,-0.2211914,-0.2792969,0.1030273
1098,-17,-5.5625,26.9375,0.7836914,0.3701172,-0.1552734,-0.2211914,-0.2768555,0.1044922
1102,1.875,16.4375,24.0625,0.7993164,0.3120117,-0.01318359,-0.2236328,-0.2768555,0.1030273
1106,20.625,25.25,27,0.6791992,0.4321289,-0.04736328,-0.2270508,-0.2753906,0.1015625
1110,20.4375,15.25,24.1875,0.6328125,0.6499023,-0.08203125,-0.2304688,-0.2705078,0.1015625
1114,4,-5.25,15.8125,0.59375,0.7314453,-0.08203125,-0.2304688,-0.2695313,0.1044922
1118,-10.1875,-29.0625,13.4375,0.6171875,0.7001953,-0.06689453,-0.2319336,-0.2670898,0.1030273
1122,-18.5625,-41.6875,12.8125,0.7758789,0.6381836,-0.005371094,-0.2319336,-0.2695313,0.1044922
1127,-13.5,-26.3125,14.6875,0.9580078,0.5058594,0.06738281,-0.2304688,-0.2680664,0.1044922
1131,4.1875,4.625,21.9375,0.9697266,0.3818359,0.07519531,-0.2304688,-0.2695313,0.105957
1135,25.0625,25.1875,26.9375,0.9311523,0.5058594,-0.08203125,-0.2304688,-0.2670898,0.1069336
1139,27.25,34.3125,21.25,0.8803711,0.7158203,-0.1782227,-0.234375,-0.2617188,0.105957
1143,17.25,34.9375,17.6875,0.7255859,0.8168945,-0.2436523,-0.2363281,-0.2617188,0.1069336
1147,-3.5625,25.125,26.3125,0.6635742,0.809082,-0.2089844,-0.2387695,-0.2592773,0.1044922
1151,-18.625,21.75,34.3125,0.7451172,0.6694336,-0.1206055,-0.2412109,-0.2558594,0.1015625
1155,-9.8125,24.25,36.3125,0.8574219,0.4438477,-0.1054688,-0.2436523,-0.2543945,0.09765625
1159,19,38.25,28.1875,0.9116211,0.4360352,-0.1938477,-0.2460938,-0.2529297,0.09619141
1163,29.0625,53,22.1875,0.9350586,0.7470703,-0.3515625,-0.2495117,-0.2504883,0.09765625
1167,6.9375,60.125,23.625,0.8071289,0.9335938,-0.4013672,-0.2519531,-0.2470703,0.09228516
1171,-22.75,54.875,36.625,0.8222656,0.8520508,-0.2861328,-0.2543945,-0.2456055,0.08789063
1175,-33.4375,59.125,38.25,0.9350586,0.5839844,-0.07080078,-0.2568359,-0.2441406,0.08398438
1179,-21.8125,72.4375,31.625,0.9077148,0.3818359,0.1328125,-0.2617188,-0.2407227,0.07421875
1183,-1.75,72.3125,24.1875,0.7490234,0.3466797,0.1904297,-0.2661133,-0.2392578,0.0703125
1187,0,43.1875,11.125,0.5859375,0.5488281,0.08251953,-0.2675781,-0.2392578,0.06787109
1191,-15.125,-5.125,-9,0.659668,0.6264648,0.005859375,-0.2700195,-0.2368164,0.06347656
1195,-26.625,-26.125,-29.375,0.8769531,0.6577148,0.02880859,-0.2675781,-0.2407227,0.06494141
1199,-33.75,-24.625,-31.5625,1.023926,0.6772461,-0.01318359,-0.2651367,-0.2416992,0.06494141
1203,-33,-4.9375,-34.875,1.105469,0.6655273,0.009765625,-0.2636719,-0.2470703,0.06347656
1207,-21.5625,23.0625,-24.125,1.05127,0.5952148,0.08251953,-0.2617188,-0.2495117,0.06494141
1211,-5.5625,40.875,-20.75,0.9116211,0.6499023,0.05957031,-0.2602539,-0.2519531,0.05810547
1215,-1.75,40.25,-24.125,0.7641602,0.7739258,0.03662109,-0.2592773,-0.2529297,0.05517578
1219,-14,14.5,-27.875,0.6401367,0.9023438,-0.07080078,-0.2592773,-0.2543945,0.05517578
1223,-26.4375,-12.25,-36.625,0.7797852,0.9414063,-0.01318359,-0.2578125,-0.2568359,0.05273438
1227,-29.6875,-11.1875,-32.5625,0.8730469,0.8828125,0.05175781,-0.2553711,-0.2592773,0.05273438
1231,-22.5,1.875,-17.5,0.8222656,0.8945313,0.09814453,-0.2543945,-0.2617188,0.04980469
1235,-17.5625,19.9375,4.4375,0.7529297,0.8710938,0.1289063,-0.253418,-0.2631836,0.04882813
1239,-11.75,24.8125,19.75,0.6791992,0.8325195,0.1020508,-0.2543945,-0.2641602,0.04589844
1243,-11.125,13.5625,28.5625,0.7021484,0.7973633,0.06738281,-0.2543945,-0.2617188,0.04443359
1247,-20.0625,-6.75,26.125,0.9038086,0.8286133,0.009765625,-0.2578125,-0.2607422,0.04199219
1251,-30.0625,-22.3125,5.0625,1.144043,0.7626953,0.05175781,-0.2578125,-0.2583008,0.04052734
1256,-25.125,-17.0625,-7.5625,1.155762,0.6342773,0.1289063,-0.2592773,-0.2592773,0.04199219
1260,-13.5625,-3.8125,1.125,1.128418,0.6538086,0.1132813,-0.2578125,-0.2607422,0.04199219
1264,-6,13.875,13.0625,1.151855,0.7158203,0.1098633,-0.2592773,-0.2592773,0.04052734
1268,-0.875,20.6875,18.375,1.070313,0.7314453,0.1020508,-0.2592773,-0.2583008,0.04052734
1272,2.9375,13.875,16.875,1.070313,0.8129883,0.08642578,-0.2602539,-0.2583008,0.0390625
1276,1.6875,6.625,14.5625,1.101563,0.8208008,0.1098633,-0.2602539,-0.2583008,0.0390625
1280,10.0625,2.625,11,1.16748,0.7197266,0.1557617,-0.2617188,-0.2558594,0.03759766
1284,27.5625,0.375,5.75,1.22168,0.7470703,0.1171875,-0.2636719,-0.2529297,0.03613281
1288,32.75,-3.1875,-0.625,1.225586,0.8984375,0.03662109,-0.2636719,-0.2543945,0.04199219
1292,26.875,-20.8125,-10.0625,1.13623,1.01123,-0.02050781,-0.2617188,-0.2529297,0.04296875
1296,17.8125,-36.125,-15.375,1.163574,1.01123,0.005859375,-0.2617188,-0.2529297,0.04736328
1300,17.3125,-38.3125,-12.8125,1.241211,0.9414063,0.05175781,-0.2602539,-0.2558594,0.04980469
1304,27.375,-31.3125,-9.0625,1.299316,0.8364258,0.07128906,-0.2592773,-0.2568359,0.05517578
1308,45.3125,-21.375,-12.375,1.330078,0.7705078,0.07519531,-0.2592773,-0.2558594,0.05664063
1312,58.4375,-12.375,-16.25,1.318359,0.8364258,-0.001464844,-0.2568359,-0.2558594,0.06347656
1316,57.1875,-11.8125,-28.9375,1.155762,0.9916992,-0.06298828,-0.2568359,-0.2558594,0.06640625
1320,45.0625,-32,-39.625,0.9541016,1.01123,-0.07470703,-0.253418,-0.2558594,0.06640625
1324,37.125,-52.125,-47.3125,0.9038086,0.9140625,-0.005371094,-0.2509766,-0.2583008,0.07421875
1328,45.5625,-59,-50.6875,0.9350586,0.7587891,0.009765625,-0.2460938,-0.2592773,0.07861328
1332,64.25,-45.5625,-44.625,1.012207,0.6923828,0.009765625,-0.2426758,-0.2641602,0.08691406
1336,75.5,-24.625,-37.4375,0.9736328,0.8867188,-0.1166992,-0.2387695,-0.2631836,0.09326172
1340,52.125,-16.875,-30.6875,0.8300781,1.12793,-0.2016602,-0.2363281,-0.2641602,0.09619141
1344,16.0625,-31.375,-37.0625,0.574707,1.045898,-0.2246094,-0.234375,-0.265625,0.1015625
1348,-1.125,-61.4375,-39.9375,0.5048828,0.7353516,-0.1552734,-0.2294922,-0.2695313,0.105957
1352,7.1875,-66.5,-35.6875,0.6831055,0.5175781,0.001953125,-0.2270508,-0.2695313,0.1069336
1356,26.3125,-48.25,-28.0625,0.7836914,0.4633789,0.005859375,-0.222168,-0.2705078,0.1137695
1360,32.625,-23.1875,-24.3125,0.6831055,0.6147461,-0.05908203,-0.21875,-0.2729492,0.1166992
1364,20.8125,-20.375,-12.875,0.5087891,0.7739258,-0.2055664,-0.2163086,-0.2744141,0.1191406
1368,-3.125,-29.3125,-4.125,0.5048828,0.8012695,-0.2363281,-0.2138672,-0.2719727,0.1235352
1372,-12.9375,-23.9375,2.5,0.5976563,0.6616211,-0.1552734,-0.2138672,-0.2719727,0.125
1376,-14.25,-5.375,17.5,0.5859375,0.4555664,-0.07470703,-0.2138672,-0.2744141,0.125
1380,-10.625,1.4375,14,0.5551758,0.4672852,-0.1591797,-0.2163086,-0.2744141,0.1235352
1385,-12.5,-0.8125,-3.625,0.4931641,0.4829102,-0.1977539,-0.2163086,-0.2719727,0.1235352
1389,-19.3125,-14.8125,-10.75,0.3613281,0.4829102,-0.2285156,-0.2172852,-0.2744141,0.1235352
1393,-24,-24.9375,-10.5625,0.3847656,0.5292969,-0.2900391,-0.215332,-0.2768555,0.1235352
1397,-33.625,-15.5625,1.5,0.5356445,0.5683594,-0.2670898,-0.2128906,-0.2768555,0.1206055
1401,-38.5,8.875,13.5,0.5898438,0.4711914,-0.3129883,-0.2114258,-0.2783203,0.1206055
1405,-28.875,25.1875,9.0625,0.5512695,0.3779297,-0.2978516,-0.2138672,-0.2783203,0.1191406
1409,-27.8125,24.625,-8.3125,0.4038086,0.5214844,-0.2592773,-0.2138672,-0.2807617,0.1123047
1413,-42.125,8.875,-19.5,0.2646484,0.4711914,-0.1474609,-0.215332,-0.2817383,0.1113281
1417,-37.625,-1.625,-17.4375,0.2993164,0.300293,-0.04003906,-0.2138672,-0.2832031,0.1083984
1421,-25.75,-0.0625,-12.1875,0.4931641,0.3662109,-0.009277344,-0.2128906,-0.2856445,0.105957
1425,-14.625,21.0625,-6.75,0.6054688,0.4516602,-0.001464844,-0.2128906,-0.2895508,0.105957
1429,-9.9375,31.375,-0.625,0.4736328,0.5800781,-0.109375,-0.2114258,-0.2880859,0.1015625
1433,-23.1875,18.1875,-3.5,0.3886719,0.6655273,-0.128418,-0.215332,-0.2905273,0.09912109
1437,-28.375,-3.3125,-7.5625,0.4389648,0.4672852,-0.04736328,-0.2138672,-0.2895508,0.09619141
1441,-11.5625,-3.0625,-8.4375,0.644043,0.4052734,0.05175781,-0.2128906,-0.2919922,0.09472656
1445,0.5,12.875,-5,0.6713867,0.4985352,-0.001464844,-0.2128906,-0.2919922,0.09326172
1449,4.625,16.625,-2.9375,0.59375,0.5761719,-0.0859375,-0.2138672,-0.2929688,0.09472656
1453,1.375,8.375,-4.375,0.578125,0.6459961,-0.1362305,-0.215332,-0.2929688,0.09228516
1457,-1.6875,2.9375,-2.25,0.6289063,0.6616211,-0.1362305,-0.2128906,-0.2944336,0.09326172
1461,-2.1875,6.125,-1.25,0.7060547,0.6147461,-0.1362305,-0.2138672,-0.2919922,0.09082031
1465,4.5,14.8125,-2.4375,0.7294922,0.5410156,-0.08984375,-0.2138672,-0.2944336,0.09082031
1469,11.3125,22.8125,-0.875,0.6831055,0.5566406,-0.06298828,-0.2128906,-0.2944336,0.09082031
1473,16.8125,24.5625,-0.0625,0.5820313,0.5722656,-0.05126953,-0.2138672,-0.2929688,0.08935547
1477,17.5625,18,2.4375,0.5200195,0.6655273,-0.0859375,-0.2138672,-0.2919922,0.09082031
1481,11.4375,2.8125,5.5625,0.4619141,0.6772461,-0.1401367,-0.2163086,-0.2919922,0.09082031
1485,7.3125,-9,6.375,0.559082,0.6577148,-0.1401367,-0.215332,-0.2929688,0.09228516
1489,5.6875,-6.125,8.625,0.6289063,0.6069336,-0.1362305,-0.215332,-0.2895508,0.09472656
1493,11.3125,3.5,10.9375,0.6362305,0.5527344,-0.1015625,-0.2172852,-0.2880859,0.09326172
1497,14.4375,11.4375,14.625,0.5668945,0.5683594,-0.1015625,-0.21875,-0.2880859,0.09472656
1501,14.1875,9.75,18.1875,0.4931641,0.5449219,-0.07861328,-0.2197266,-0.2866211,0.09228516
1505,12.625,4.625,18.5,0.4389648,0.5292969,-0.03222656,-0.222168,-0.2841797,0.09472656
1509,13.625,-0.6875,20.6875,0.3769531,0.4672852,-0.03222656,-0.222168,-0.2832031,0.09472656
1514,17.375,-2.5,29.625,0.3417969,0.4282227,-0.03613281,-0.2246094,-0.2817383,0.09619141
1518,21.375,-8.6875,36.3125,0.2954102,0.3740234,-0.2089844,-0.2255859,-0.2792969,0.09765625
1522,19.125,-10.5,40.8125,0.4272461,0.4790039,-0.2861328,-0.2270508,-0.2768555,0.09912109
1526,4.1875,-2.75,47.125,0.4853516,0.4907227,-0.2553711,-0.2294922,-0.2719727,0.1000977
1530,-5.0625,3.125,52.625,0.4619141,0.3505859,-0.1474609,-0.2329102,-0.2680664,0.1015625
1534,0.75,-0.8125,50.125,0.4467773,0.21875,-0.06298828,-0.2353516,-0.265625,0.09912109
1538,13.75,-12.4375,48.5,0.4853516,0.2807617,-0.112793,-0.2387695,-0.2607422,0.1030273
1542,17.3125,-19.9375,46.8125,0.6479492,0.4086914,-0.2514648,-0.2402344,-0.2583008,0.1030273
1546,15.0625,-19,42.0625,0.8574219,0.6069336,-0.394043,-0.2412109,-0.2529297,0.1044922
1550,-6.125,-0.1875,30.5,1.109375,0.8051758,-0.324707,-0.2460938,-0.2504883,0.1069336
1554,-14.8125,30,18.625,1.035645,0.6147461,-0.2128906,-0.2446289,-0.2480469,0.1044922
1558,-3.375,50.125,16.375,0.9194336,0.5097656,-0.06689453,-0.2470703,-0.2480469,0.1044922
1562,11.1875,67.9375,23.375,0.8032227,0.4868164,-0.005371094,-0.2509766,-0.2456055,0.09765625
1566,20.375,67.25,24.9375,0.6557617,0.6420898,-0.06689453,-0.2519531,-0.2431641,0.09472656
1570,7.25,44.3125,23,0.5317383,0.8208008,-0.0859375,-0.2553711,-0.2431641,0.09228516
1574,-9.0625,15.875,21.375,0.5708008,0.8442383,-0.05126953,-0.2602539,-0.2392578,0.09082031
1578,-19.8125,-0.4375,25.5,0.6870117,0.793457,-0.02441406,-0.2602539,-0.2407227,0.08935547
1582,-23.375,-7.0625,34.6875,0.8920898,0.7431641,0.02880859,-0.2602539,-0.2368164,0.08789063
1586,-19,2.6875,38.3125,1.043457,0.5878906,0.1098633,-0.2626953,-0.2358398,0.08789063
1590,-2.9375,12.3125,33.375,1.059082,0.4868164,0.1210938,-0.2661133,-0.234375,0.08544922
1594,12.0625,18.375,24.8125,1.004395,0.5605469,0.1098633,-0.2661133,-0.2319336,0.08691406
1598,13.0625,19.375,22.6875,0.8730469,0.6420898,0.03271484,-0.2685547,-0.2304688,0.08544922
1602,8.375,12.6875,25.25,0.8149414,0.6733398,0.03271484,-0.2700195,-0.2255859,0.08544922
1606,2.625,4.1875,27.8125,0.8149414,0.6616211,0.06738281,-0.2724609,-0.2246094,0.08105469
1610,-4.25,-7,29.1875,0.7875977,0.6069336,0.05566406,-0.2724609,-0.2216797,0.08251953
1614,-6.375,-23.5,26.25,0.8535156,0.4985352,0.02490234,-0.2734375,-0.2207031,0.08398438
1618,-7,-23.875,14.4375,1.031738,0.4516602,0.01708984,-0.2724609,-0.2182617,0.08398438
1622,0.6875,-12.3125,2.9375,1.0625,0.3779297,0.02490234,-0.2734375,-0.2158203,0.08691406
1626,14,1.5,7.5,0.9970703,0.4672852,-0.02050781,-0.2734375,-0.2167969,0.08691406
1630,12.8125,9.875,21.1875,0.9970703,0.6303711,-0.05908203,-0.2758789,-0.2167969,0.08789063
1634,3.625,11,23.9375,0.9462891,0.6616211,-0.109375,-0.2744141,-0.2143555,0.08691406
1638,-6.9375,2.0625,20.9375,0.9311523,0.6225586,-0.112793,-0.2768555,-0.2119141,0.08789063
1643,-16.1875,-13.75,10,0.9619141,0.5371094,-0.1245117,-0.2768555,-0.2094727,0.08691406
1647,-9.8125,-18.0625,-5.1875,1.09375,0.4399414,-0.01660156,-0.2768555,-0.2104492,0.08691406
1651,6.4375,-3.375,-4.125,1.144043,0.4907227,0.01367188,-0.2768555,-0.2119141,0.08789063
1655,13.25,13.4375,6.0625,1.082031,0.6694336,-0.05517578,-0.2758789,-0.2119141,0.08935547
1659,8,14.75,17.625,0.9658203,0.7470703,-0.1206055,-0.2768555,-0.2104492,0.08789063
1663,-1.9375,1.375,21.75,0.9736328,0.7509766,-0.1669922,-0.2758789,-0.2080078,0.08544922
1667,-8.625,-9.0625,17.3125,1.039551,0.6845703,-0.1669922,-0.2783203,-0.2055664,0.08935547
1671,-6.4375,-20.3125,4.6875,1.055176,0.6264648,-0.1630859,-0.2792969,-0.2055664,0.08789063
1675,1.125,-19.875,3.5625,1.121094,0.5878906,-0.1362305,-0.2792969,-0.2055664,0.09082031
1679,6.4375,-12.5625,4.9375,1.155762,0.6538086,-0.1821289,-0.2792969,-0.2055664,0.08935547
1683,7.375,-3.0625,8.5625,1.163574,0.6772461,-0.1977539,-0.2792969,-0.2055664,0.09228516
1687,7,3.875,17.4375,1.140137,0.6811523,-0.1743164,-0.2783203,-0.203125,0.09472656
1691,7.5625,4.1875,23.6875,1.113281,0.6186523,-0.1821289,-0.2792969,-0.2006836,0.09228516
1695,16.25,-8.125,18.1875,1.109375,0.4946289,-0.1591797,-0.2807617,-0.1982422,0.09228516
1699,33.5,-24.75,2.375,1.198242,0.4790039,-0.1630859,-0.2807617,-0.1967773,0.09326172
1703,42.4375,-37.875,-16.375,1.271973,0.6420898,-0.2324219,-0.2817383,-0.1967773,0.09765625
1707,38.5625,-43.9375,-31.625,1.341797,0.7236328,-0.2822266,-0.2758789,-0.1982422,0.1030273
1711,37.8125,-33.4375,-33.4375,1.461914,0.7314453,-0.2514648,-0.2734375,-0.1992188,0.1083984
1715,40.5625,-11.25,-27,1.438477,0.7236328,-0.2670898,-0.2724609,-0.1992188,0.1113281
1719,42.6875,7.5,-19.0625,1.419434,0.809082,-0.2900391,-0.2709961,-0.1992188,0.1123047
1723,40.1875,20.375,-16.1875,1.299316,0.8012695,-0.3208008,-0.2724609,-0.1992188,0.1152344
1727,37.625,11,-21.1875,1.144043,0.8051758,-0.34375,-0.2700195,-0.1992188,0.1137695
1731,33.5625,-12.6875,-36.0625,1.078125,0.8286133,-0.378418,-0.2709961,-0.2006836,0.1152344
1735,27.9375,-33.75,-47,1.128418,0.8286133,-0.34375,-0.2675781,-0.2016602,0.1191406
1739,28,-43.3125,-51.4375,1.182617,0.7895508,-0.34375,-0.2651367,-0.203125,0.1235352
1743,25.375,-43.125,-51.5625,1.260254,0.8789063,-0.3168945,-0.2602539,-0.2080078,0.1289063
1747,21.4375,-40,-51.625,1.287598,0.8364258,-0.3745117,-0.2553711,-0.2104492,0.1313477
1751,18.3125,-29.5,-57.5625,1.333984,0.824707,-0.3476563,-0.2553711,-0.2119141,0.1342773
1755,21.9375,-11.875,-60.5,1.256348,0.7080078,-0.2939453,-0.2495117,-0.2158203,0.1357422
1759,26.625,-3.3125,-66.125,1.043457,0.7041016,-0.2939453,-0.2460938,-0.2207031,0.1381836
1763,29.1875,-12.375,-73.8125,0.9038086,0.6845703,-0.3398438,-0.2436523,-0.2231445,0.1396484
1767,28.5625,-18,-78.625,0.8730469,0.7080078,-0.3666992,-0.2387695,-0.2270508,0.1396484
1772,19.75,-17.0625,-77.75,0.8339844,0.8012695,-0.3862305,-0.2353516,-0.2329102,0.144043
1776,1.125,-10.4375,-69.25,0.7568359,0.8364258,-0.4208984,-0.2329102,-0.2368164,0.1464844
1780,-16,-6.625,-62.4375,0.7060547,0.8129883,-0.4248047,-0.2294922,-0.2392578,0.1464844
1784,-30.9375,0,-61.5,0.625,0.6694336,-0.378418,-0.2236328,-0.2470703,0.144043
1788,-26.1875,7.375,-54.375,0.5009766,0.4360352,-0.2705078,-0.2211914,-0.2495117,0.1425781
1792,-16.0625,15.75,-43.875,0.3999023,0.4594727,-0.2670898,-0.2172852,-0.2558594,0.1411133
1796,-19.6875,19.875,-31.4375,0.3378906,0.5878906,-0.2822266,-0.21875,-0.2607422,0.137207
1800,-34.5,12.9375,-25.1875,0.2451172,0.6884766,-0.3862305,-0.2172852,-0.2631836,0.1357422
1804,-57.8125,4.4375,-23.1875,0.2758789,0.5800781,-0.2553711,-0.215332,-0.265625,0.1342773
1808,-64.8125,3.625,-24.1875,0.2758789,0.3232422,-0.07080078,-0.2138672,-0.2705078,0.1274414
1812,-55,-1.5,-26.5625,0.2993164,0.2807617,-0.05126953,-0.2138672,-0.2719727,0.1259766
1816,-59.0625,6.5,-24.5625,0.4389648,0.4243164,-0.02832031,-0.2114258,-0.2783203,0.1220703
1820,-70.0625,18.4375,-16.9375,0.4389648,0.3818359,-0.04003906,-0.2104492,-0.2832031,0.1166992
1824,-73.5625,28.25,-12.625,0.4272461,0.2768555,0.07128906,-0.2114258,-0.2856445,0.1113281
1828,-64.8125,35.8125,-7.9375,0.3457031,0.171875,0.1826172,-0.2104492,-0.2895508,0.105957
1832,-49.5,34.1875,-6.75,0.2568359,0.1293945,0.2597656,-0.2128906,-0.2919922,0.09765625
1836,-30.875,16.625,-7.875,0.2138672,0.1875,0.1787109,-0.2128906,-0.2944336,0.09326172
1840,-21.375,3.1875,-6.9375,0.3457031,0.3857422,0.08642578,-0.2114258,-0.2944336,0.09228516
1844,-19.125,-0.375,-2.625,0.4233398,0.4633789,-0.02441406,-0.2104492,-0.2954102,0.09082031
1848,-15.625,4.875,3,0.5009766,0.4985352,-0.05517578,-0.2104492,-0.296875,0.08789063
1852,-9.5,13.6875,11.125,0.4853516,0.4946289,-0.08984375,-0.2114258,-0.296875,0.08691406
1856,-3.3125,13.375,11.875,0.4697266,0.5488281,-0.1362305,-0.2138672,-0.296875,0.08691406
1860,-2.375,6.5,10.875,0.5087891,0.6499023,-0.1938477,-0.2128906,-0.2954102,0.08398438
1864,-6.5,1,5.5625,0.5473633,0.6811523,-0.1743164,-0.2138672,-0.2954102,0.08398438
1868,-8.4375,-3.75,7.1875,0.5473633,0.6923828,-0.1977539,-0.2163086,-0.2954102,0.08691406
1872,-13.125,-8.625,10.125,0.574707,0.7236328,-0.1782227,-0.215332,-0.2954102,0.08398438
1876,-13.75,-10,12.5,0.6210938,0.6884766,-0.1323242,-0.2163086,-0.2944336,0.08251953
1880,-11.8125,-7.1875,15.5,0.659668,0.6923828,-0.09375,-0.2163086,-0.2944336,0.08251953
1884,-11,-2.9375,18.75,0.659668,0.6772461,-0.1054688,-0.21875,-0.2929688,0.08251953
1888,-9.4375,-1.75,20.9375,0.6557617,0.6884766,-0.08984375,-0.21875,-0.2919922,0.08251953
1892,-11.125,-4.25,21.4375,0.6518555,0.6962891,-0.08984375,-0.2197266,-0.2919922,0.08251953
1896,-13.25,-7.25,19,0.6635742,0.6499023,-0.07470703,-0.2211914,-0.2895508,0.08251953
1901,-11.125,-6.4375,18.375,0.6635742,0.5952148,-0.03222656,-0.2211914,-0.2895508,0.08105469
1905,-6.75,-0.4375,21,0.6401367,0.5722656,-0.01318359,-0.222168,-0.2880859,0.08105469
1909,-2.75,4.25,25.75,0.578125,0.5683594,0.01367188,-0.2236328,-0.2880859,0.08007813
1913,0.125,4.6875,31.125,0.5087891,0.5410156,0.02099609,-0.2270508,-0.2856445,0.08007813
1917,1.625,-0.75,36.625,0.4428711,0.5097656,0.04052734,-0.2294922,-0.2817383,0.08007813
1921,3.8125,-10.6875,38.25,0.4155273,0.4321289,0.04443359,-0.2280273,-0.2807617,0.08105469
1925,11.0625,-21.125,38,0.4580078,0.3896484,0.02880859,-0.2319336,-0.2783203,0.08251953
1929,20.875,-25,34.0625,0.5898438,0.4399414,-0.04394531,-0.2353516,-0.2753906,0.08398438
1933,20.625,-18.4375,30.9375,0.675293,0.5683594,-0.112793,-0.2353516,-0.2705078,0.08691406
1937,14,-7.25,30.75,0.6870117,0.5800781,-0.1435547,-0.237793,-0.2680664,0.08935547
1941,8.5,6.8125,35.875,0.659668,0.4985352,-0.09375,-0.2402344,-0.2641602,0.08935547
1945,9.1875,18.3125,37.9375,0.5976563,0.3974609,-0.04736328,-0.2426758,-0.2631836,0.09082031
1949,16.625,28.1875,35,0.5395508,0.2924805,0.005859375,-0.2460938,-0.2607422,0.08789063
1953,27.25,39,35.25,0.5048828,0.300293,0.02099609,-0.2485352,-0.2558594,0.08935547
1957,26.5625,38.8125,33.25,0.4233398,0.4516602,-0.08984375,-0.2495117,-0.2543945,0.08691406
1961,9.3125,15.6875,22.5,0.4350586,0.6538086,-0.2128906,-0.2519531,-0.2495117,0.08691406
1965,-13.5625,0.8125,8.625,0.6015625,0.5761719,-0.1552734,-0.2543945,-0.2495117,0.08544922
1969,-3.4375,17.875,7.5625,0.7490234,0.3466797,-0.01318359,-0.2543945,-0.2504883,0.08544922
1973,20.8125,54.25,25.6875,0.7529297,0.3388672,0.06347656,-0.2543945,-0.2495117,0.08398438
1977,30.625,75.5625,45.375,0.6518555,0.5292969,-0.005371094,-0.2617188,-0.2431641,0.08007813
1981,10.125,68.6875,52.9375,0.5820313,0.6962891,-0.08984375,-0.2626953,-0.2407227,0.07714844
1985,-11.1875,40.3125,45.625,0.5161133,0.6147461,-0.1054688,-0.2675781,-0.2368164,0.07177734
1989,-17.75,8.375,39.375,0.6054688,0.5019531,-0.06689453,-0.2709961,-0.234375,0.06884766
1993,-19,-9.1875,36.1875,0.8691406,0.5332031,-0.001464844,-0.2709961,-0.2319336,0.0703125
1997,-21.25,-5.8125,40.75,1.105469,0.5058594,0.06347656,-0.2744141,-0.2294922,0.06884766
2001,-22.625,11.125,40.1875,1.268066,0.4052734,0.08642578,-0.2758789,-0.2255859,0.06787109
2005,-14.3125,33.0625,22.9375,1.302734,0.3544922,0.1289063,-0.2768555,-0.2231445,0.06640625
2009,7.4375,44.6875,0.875,1.144043,0.3466797,0.140625,-0.2792969,-0.2216797,0.06201172
2013,26.375,51.9375,-8.375,0.9580078,0.5292969,0.1020508,-0.2783203,-0.2216797,0.05810547
2017,22.25,54.25,5.0625,0.7797852,0.7739258,0.04052734,-0.2817383,-0.2216797,0.05664063
2021,-2.75,41.375,21.9375,0.6674805,0.8867188,-0.001464844,-0.2817383,-0.2216797,0.05273438
2025,-25.625,11.875,23.75,0.6982422,0.7587891,0.01367188,-0.2841797,-0.2182617,0.04980469
2030,-29.5,-11.1875,6.875,0.9658203,0.6186523,0.09033203,-0.2841797,-0.2182617,0.04736328
2034,-15.625,-11.6875,-15.5625,1.0625,0.5605469,0.1367188,-0.2841797,-0.2192383,0.04882813
2038,-1.375,3.375,-13.125,1.070313,0.6108398,0.1713867,-0.2827148,-0.2216797,0.04882813
2042,3.5,20.375,1.125,0.9619141,0.7236328,0.09033203,-0.2851563,-0.2246094,0.04882813
2046,-5.0625,19.9375,15.1875,0.9038086,0.824707,0.02880859,-0.2841797,-0.2216797,0.04736328
2050,-20.3125,8.125,14.375,0.8959961,0.8325195,-0.005371094,-0.2841797,-0.2167969,0.04443359
2054,-25.375,-11.375,5.6875,0.8920898,0.6811523,0.01708984,-0.2841797,-0.2182617,0.04296875
2058,-16.625,-24,-2.375,0.9658203,0.6459961,0.02490234,-0.2841797,-0.2192383,0.04443359
2062,-14.5,-25.875,-5,0.9970703,0.7080078,0.02490234,-0.2841797,-0.2207031,0.04443359
2066,-11.6875,-34.125,-4.4375,0.9970703,0.7119141,0.001953125,-0.2827148,-0.2207031,0.04736328
2070,-9,-42.625,-2.3125,1.09375,0.7392578,0.02099609,-0.2817383,-0.2216797,0.04980469
2074,-7.375,-40.375,1.375,1.233398,0.7817383,0.001953125,-0.2807617,-0.2192383,0.05126953
2078,-4.5625,-24.6875,7.8125,1.306641,0.7275391,0.02880859,-0.2827148,-0.2207031,0.05419922
2082,6.5,-8.125,15.9375,1.283691,0.7041016,0.02490234,-0.2807617,-0.2207031,0.05517578
2086,10.0625,-2.875,20.9375,1.256348,0.7817383,-0.02050781,-0.2817383,-0.2182617,0.05664063
2090,7.625,-6.4375,21.125,1.229492,0.8012695,-0.04394531,-0.2827148,-0.2158203,0.05664063
2094,3.0625,-12.5625,22.8125,1.233398,0.7666016,-0.02050781,-0.2817383,-0.2143555,0.05957031
2098,6.3125,-20.9375,17.0625,1.283691,0.6733398,-0.02050781,-0.2827148,-0.2128906,0.05957031
2102,13.125,-22.25,9.1875,1.326172,0.6108398,-0.01660156,-0.2851563,-0.2119141,0.06494141
2106,21.25,-18.9375,-1.0625,1.333984,0.6147461,-0.03613281,-0.2841797,-0.2119141,0.06347656
2110,28.75,-10.875,-6.375,1.275879,0.6108398,-0.05908203,-0.2841797,-0.2094727,0.06884766
2114,33.8125,-2.4375,-7.6875,1.182617,0.6225586,-0.07080078,-0.2827148,-0.2094727,0.06884766
2118,37.4375,2.6875,-7.1875,1.097656,0.6381836,-0.0859375,-0.2841797,-0.2094727,0.0703125
2122,36.875,6.9375,-4.6875,1.02002,0.6772461,-0.0859375,-0.2827148,-0.2080078,0.07421875
2126,34,3.625,-3.9375,0.9350586,0.6845703,-0.1206055,-0.2817383,-0.2070313,0.07177734
2130,29.125,-15,-5.75,0.8691406,0.7001953,-0.1474609,-0.2827148,-0.2080078,0.07324219
2134,20.3125,-39.375,-11.75,0.9814453,0.7470703,-0.128418,-0.2817383,-0.2080078,0.07714844
2138,12.125,-57.0625,-20.4375,1.082031,0.7158203,-0.112793,-0.2807617,-0.2080078,0.08105469
2142,10.4375,-68.5,-28.375,1.19043,0.6845703,-0.05517578,-0.2768555,-0.2080078,0.08544922
2146,17.625,-66.125,-31.9375,1.345703,0.6264648,-0.02441406,-0.2724609,-0.2104492,0.09228516
2150,26.125,-51.875,-36,1.364746,0.6733398,-0.05908203,-0.2724609,-0.2128906,0.09765625
2154,34.4375,-47.625,-43.0625,1.291504,0.6923828,-0.1552734,-0.2685547,-0.2167969,0.1030273
2159,36.125,-41.625,-52.4375,1.302734,0.7817383,-0.1708984,-0.2636719,-0.2192383,0.1098633
2163,34.6875,-37.5,-60.3125,1.182617,0.7895508,-0.2016602,-0.2602539,-0.2207031,0.1098633
2167,37,-37.4375,-65.4375,1.144043,0.7236328,-0.2285156,-0.2578125,-0.2246094,0.1191406
2171,48.3125,-31.3125,-70.875,1.085938,0.6811523,-0.2363281,-0.2509766,-0.2280273,0.1206055
2175,56.75,-26.5,-74,1.039551,0.8051758,-0.2939453,-0.2485352,-0.2304688,0.125
2179,49.8125,-21.0625,-74.625,0.9077148,0.8671875,-0.3745117,-0.2426758,-0.2329102,0.1303711
2183,39.375,-24.8125,-75.125,0.8110352,0.9023438,-0.4052734,-0.2363281,-0.2382813,0.1328125
2187,29,-26.75,-72.0625,0.7875977,0.8442383,-0.3974609,-0.234375,-0.2382813,0.1357422
2191,24.8125,-14.75,-65.1875,0.7875977,0.7739258,-0.324707,-0.2270508,-0.2441406,0.1381836
2195,24.1875,-4.375,-56.5625,0.7412109,0.777832,-0.3862305,-0.2246094,-0.2470703,0.1411133
2199,14.75,5.25,-60.125,0.7216797,0.8632813,-0.3632813,-0.222168,-0.2495117,0.1411133
2203,2.1875,7.6875,-67.1875,0.6054688,0.8168945,-0.3745117,-0.2197266,-0.2543945,0.1411133
2207,-8.0625,10.5625,-64.4375,0.527832,0.809082,-0.3666992,-0.2163086,-0.2583008,0.1411133
2211,-20.125,22.875,-55.8125,0.5629883,0.8520508,-0.3129883,-0.2163086,-0.2617188,0.1396484
2215,-22.4375,34.25,-48.5,0.4233398,0.7431641,-0.34375,-0.2114258,-0.2680664,0.137207
2219,-21.625,35.3125,-46.375,0.4038086,0.7666016,-0.359375,-0.2089844,-0.2705078,0.1328125
2223,-46.5625,33.625,-41.375,0.3266602,0.7856445,-0.3168945,-0.2089844,-0.2753906,0.1313477
2227,-81.125,30.3125,-35.0625,0.2954102,0.5605469,-0.1206055,-0.206543,-0.2807617,0.1235352
2231,-88.8125,34.375,-32.5,0.3417969,0.1484375,0.1289063,-0.206543,-0.2880859,0.1152344
2235,-65.5625,51.0625,-32.375,0.4077148,-0.06835938,0.2905273,-0.2089844,-0.2919922,0.1098633
2239,-38.5,82.4375,-29.4375,0.3886719,-0.01025391,0.3291016,-0.206543,-0.2929688,0.1000977
2243,-26.8125,94.0625,-26.9375,0.06298828,0.2338867,0.1982422,-0.2089844,-0.296875,0.09326172
2247,-30.4375,68.375,-13.125,-0.262207,0.3740234,0.07910156,-0.2080078,-0.2993164,0.08789063
2251,-41.25,24.5625,11.5,-0.3007813,0.315918,0.06738281,-0.2104492,-0.3007813,0.08007813
2255,-35.1875,-16,23.875,-0.1147461,0.1875,0.07910156,-0.2114258,-0.3017578,0.07861328
2259,-21.4375,-37.4375,25.0625,0.2451172,0.2265625,0.04785156,-0.2114258,-0.3007813,0.08007813
2263,-9.5625,-29.375,26.4375,0.5161133,0.2495117,0.009765625,-0.2128906,-0.2983398,0.07861328
2267,2.25,-11.875,23.4375,0.6635742,0.3388672,-0.07080078,-0.215332,-0.2983398,0.08007813
2271,11.0625,0.875,21.4375,0.625,0.3974609,-0.2285156,-0.2138672,-0.2929688,0.08105469
2275,12.625,-1.625,23.1875,0.6518555,0.6147461,-0.3706055,-0.2163086,-0.2944336,0.08105469
2279,-3.875,-0.6875,19.5,0.7216797,0.7314453,-0.3706055,-0.21875,-0.2929688,0.08251953
2283,-10.25,0.5625,12.125,0.7021484,0.6264648,-0.3208008,-0.21875,-0.2929688,0.08398438
2288,-5.4375,3.25,8.4375,0.7373047,0.6459961,-0.2363281,-0.2211914,-0.2929688,0.08105469
2292,-7.625,12,8.5,0.7216797,0.7314453,-0.1938477,-0.2211914,-0.2905273,0.07861328
2296,-13.3125,11,11.3125,0.644043,0.7431641,-0.1821289,-0.222168,-0.2929688,0.08007813
2300,-18.1875,2.625,15.625,0.6401367,0.7587891,-0.1362305,-0.2211914,-0.2919922,0.07714844
2304,-22.4375,-2.6875,18.5,0.6948242,0.7548828,-0.06689453,-0.2236328,-0.2895508,0.07714844
2308,-25.6875,-3.4375,22.3125,0.690918,0.7197266,-0.02832031,-0.2246094,-0.2905273,0.07568359
2312,-25.9375,-7.375,21.3125,0.6791992,0.6420898,0.01367188,-0.2255859,-0.2895508,0.07421875
2316,-21.8125,-14.9375,16.0625,0.6791992,0.5839844,0.06347656,-0.2280273,-0.2880859,0.07324219
2320,-16.3125,-20.75,11.1875,0.7294922,0.5952148,0.02880859,-0.2280273,-0.2866211,0.07324219
2324,-15.6875,-12.5,10.8125,0.7529297,0.5991211,0.02880859,-0.2270508,-0.2866211,0.07324219
2328,-12.5,-0.125,15.4375,0.6674805,0.5371094,0.04443359,-0.2270508,-0.2866211,0.07177734
2332,-8,10,21.1875,0.5859375,0.4907227,0.05957031,-0.2280273,-0.2866211,0.07177734
2336,-3.8125,14.3125,25.1875,0.4697266,0.4711914,0.07519531,-0.2304688,-0.2841797,0.07177734
2340,2.0625,10.5625,25.8125,0.3769531,0.4477539,0.09814453,-0.2329102,-0.2832031,0.06787109
2344,7.625,1.6875,26.9375,0.3071289,0.4204102,0.07910156,-0.2353516,-0.2832031,0.06884766
2348,15.6875,-0.8125,31,0.3378906,0.4282227,0.05175781,-0.2353516,-0.2783203,0.06884766
2352,20.75,-2.5,40,0.3339844,0.5410156,-0.07861328,-0.2387695,-0.2768555,0.07177734
2356,13,-6.75,51,0.3886719,0.7001953,-0.1743164,-0.2412109,-0.2705078,0.07324219
2360,-3.625,-18.6875,55.875,0.4428711,0.7587891,-0.2397461,-0.2436523,-0.2680664,0.07714844
2364,-17.25,-23.75,52.875,0.6401367,0.7197266,-0.1821289,-0.2470703,-0.265625,0.07421875
2368,-24.875,-12.0625,46.1875,0.7373047,0.5644531,-0.07861328,-0.2485352,-0.2617188,0.07568359
2372,-12,4.3125,42.125,0.7602539,0.4052734,0.005859375,-0.253418,-0.2607422,0.07568359
2376,4.625,24.4375,44.3125,0.7568359,0.4086914,0.07519531,-0.2553711,-0.2568359,0.07324219
2380,10.625,37.125,49.9375,0.6635742,0.5097656,0.03271484,-0.2568359,-0.2529297,0.07177734
2384,5.875,30.6875,51.5,0.5629883,0.5644531,-0.009277344,-0.2617188,-0.2480469,0.0703125
2388,-8.875,11.9375,47.875,0.5551758,0.5913086,-0.01318359,-0.2636719,-0.2441406,0.06884766
2392,-12.3125,-10.8125,38.25,0.609375,0.4516602,-0.001464844,-0.2661133,-0.2416992,0.06884766
2396,-8,-22.5625,33.4375,0.7602539,0.3857422,0.005859375,-0.2675781,-0.2382813,0.06884766
2400,0.875,-15.875,23.1875,0.8769531,0.3310547,-0.001464844,-0.2661133,-0.2358398,0.0703125
2404,16.25,6.5625,13.4375,0.9619141,0.3701172,0.009765625,-0.2709961,-0.2358398,0.0703125
2408,23.4375,35.9375,11.1875,0.8881836,0.5332031,-0.01318359,-0.2685547,-0.2319336,0.07177734
2412,11.375,43.0625,20.5625,0.6948242,0.6923828,-0.05908203,-0.2724609,-0.2304688,0.06884766
2417,-7.6875,27.3125,25.6875,0.609375,0.6772461,-0.03222656,-0.2724609,-0.2319336,0.06640625
2421,-26.0625,5.9375,28.125,0.625,0.6342773,0.06347656,-0.2744141,-0.2280273,0.06347656
2425,-36.625,-20.9375,25,0.659668,0.4985352,0.09033203,-0.2783203,-0.2255859,0.06201172
2429,-39.25,-40.125,14.0625,0.8417969,0.4321289,0.159668,-0.2768555,-0.2270508,0.06347656
2433,-30.375,-46,1.875,0.9423828,0.3779297,0.1904297,-0.2783203,-0.2255859,0.06494141
2437,-16.125,-29,-0.5625,1.070313,0.4125977,0.2133789,-0.2744141,-0.2255859,0.06884766
2441,-5.3125,-3.3125,9.0625,1.035645,0.4711914,0.1518555,-0.2758789,-0.2255859,0.06884766
2445,-1.5,13.5,18.5,0.9931641,0.6420898,0.09033203,-0.2758789,-0.2255859,0.06640625
2449,-10.625,7.875,24.625,0.9077148,0.7705078,-0.001464844,-0.2768555,-0.2231445,0.06640625
2453,-25.4375,-12.875,20.9375,0.9541016,0.7705078,-0.02441406,-0.2783203,-0.2216797,0.06640625
2457,-37.4375,-30.3125,14.9375,1.085938,0.6811523,-0.01318359,-0.2783203,-0.2192383,0.06494141
2461,-33.375,-28.1875,6,1.233398,0.5878906,0.07519531,-0.2783203,-0.2207031,0.06640625
2465,-16.5,-13.875,5.75,1.229492,0.4829102,0.1098633,-0.2768555,-0.2207031,0.06640625
2469,4.125,-1.75,2.625,1.19043,0.5605469,0.03271484,-0.2768555,-0.2192383,0.06494141
2473,9.3125,2.1875,1.8125,1.13623,0.7626953,-0.05126953,-0.2768555,-0.2216797,0.06787109
2477,3.0625,0.4375,1.75,1.059082,0.8364258,-0.1054688,-0.2783203,-0.2192383,0.06787109
2481,-5.875,-4.125,9.4375,1.016113,0.8364258,-0.1245117,-0.2783203,-0.2216797,0.06787109
2485,-15.875,-10.875,15.25,0.9736328,0.7856445,-0.1166992,-0.2783203,-0.2182617,0.0703125
2489,-13.625,-15.4375,17.75,1.02002,0.6577148,-0.07861328,-0.2792969,-0.2192383,0.06787109
2493,-7.4375,-16.5625,15.6875,1.089844,0.6420898,-0.08203125,-0.2792969,-0.2158203,0.06884766
2497,-4.4375,-16,12.3125,1.113281,0.6499023,-0.0859375,-0.2807617,-0.2167969,0.0703125
2501,-0.625,-16.375,9.6875,1.089844,0.6030273,-0.09375,-0.2783203,-0.2143555,0.07177734
2505,4.875,-15.875,3.8125,1.109375,0.5644531,-0.0859375,-0.2792969,-0.2158203,0.07177734
2509,10.5625,-12.6875,-1.375,1.117188,0.5527344,-0.07861328,-0.2783203,-0.2143555,0.07568359
2513,16.1875,-6.9375,-5.625,1.117188,0.5913086,-0.07080078,-0.2783203,-0.2143555,0.07568359
2517,21.1875,3.8125,-4.25,1.089844,0.5952148,-0.05517578,-0.2792969,-0.2143555,0.07714844
2521,24.875,15.5625,0.8125,1.035645,0.6225586,-0.07470703,-0.2792969,-0.2119141,0.07714844
2525,23.0625,16,3.625,0.9814453,0.6655273,-0.109375,-0.2807617,-0.2119141,0.07568359
2529,14.8125,7.625,3.875,0.9658203,0.6884766,-0.109375,-0.2807617,-0.2104492,0.07421875
2533,8.625,-7.625,-2.75,0.9077148,0.6147461,-0.08984375,-0.2792969,-0.2104492,0.07714844
2537,8.6875,-27.125,-13.3125,0.9541016,0.6108398,-0.09765625,-0.2807617,-0.2119141,0.07861328
2541,10.625,-31.25,-15.9375,1.0625,0.6303711,-0.07470703,-0.2768555,-0.2119141,0.08105469
2546,13.625,-29.125,-11.4375,1.105469,0.6694336,-0.109375,-0.2758789,-0.2128906,0.08251953
2550,12.125,-33.9375,-7,1.151855,0.7470703,-0.1552734,-0.2768555,-0.2128906,0.08789063
2554,11,-40.375,-11.9375,1.271973,0.7197266,-0.1513672,-0.2734375,-0.2143555,0.08691406
2558,17.4375,-41,-17.5625,1.341797,0.6577148,-0.1323242,-0.2724609,-0.2128906,0.09472656
2562,27.75,-32.5625,-22.625,1.399902,0.6577148,-0.1513672,-0.2709961,-0.2143555,0.09765625
2566,35.0625,-21.5,-30.5,1.368652,0.7080078,-0.1860352,-0.2675781,-0.2167969,0.1015625
2570,41.75,-12.5625,-33.0625,1.252441,0.7001953,-0.2016602,-0.2651367,-0.2167969,0.1044922
2574,46.1875,-10.875,-32.8125,1.151855,0.7470703,-0.2514648,-0.2636719,-0.2182617,0.1069336
2578,45.8125,-14.625,-35.9375,1.109375,0.777832,-0.2705078,-0.2636719,-0.2192383,0.1098633
2582,42.8125,-17.1875,-40.25,1.055176,0.793457,-0.2822266,-0.2592773,-0.2231445,0.1123047
2586,41.125,-20.5,-42.4375,1.016113,0.8051758,-0.2705078,-0.2578125,-0.2216797,0.1152344
2590,35.0625,-26.625,-37.75,1.004395,0.8671875,-0.2939453,-0.253418,-0.2216797,0.1191406
2594,24.5625,-32.9375,-35.5625,1.047363,0.9101563,-0.2861328,-0.2519531,-0.2255859,0.1235352
2598,15.1875,-42.3125,-43.375,1.066406,0.7973633,-0.2705078,-0.2495117,-0.2270508,0.125
2602,23.8125,-41.625,-52.3125,1.163574,0.6884766,-0.1860352,-0.2460938,-0.2294922,0.1289063
2606,36.125,-26.6875,-52.1875,1.13623,0.6616211,-0.2553711,-0.2402344,-0.2319336,0.1342773
2610,36.9375,-11.6875,-56,1.147949,0.8129883,-0.2861328,-0.2387695,-0.2358398,0.1342773
2614,21.8125,5.1875,-58.875,1.047363,0.875,-0.3398438,-0.234375,-0.2368164,0.1381836
2618,10,18.8125,-53.625,0.9155273,0.8208008,-0.3286133,-0.2319336,-0.2407227,0.137207
2622,-1.375,29.0625,-46.625,0.8457031,0.7470703,-0.3476563,-0.2319336,-0.2416992,0.1411133
2626,0.25,46.3125,-48.625,0.8417969,0.5761719,-0.3168945,-0.2304688,-0.2480469,0.1342773
2630,19.1875,70.375,-52.125,0.8222656,0.4321289,-0.2631836,-0.2294922,-0.2495117,0.1328125
2634,34.875,96.4375,-50.75,0.7021484,0.5839844,-0.3476563,-0.2304688,-0.2529297,0.1289063
2638,22.375,99.1875,-52,0.4697266,0.777832,-0.4282227,-0.2294922,-0.2558594,0.1235352
2642,-7.3125,71,-53.1875,0.1484375,0.855957,-0.4824219,-0.2319336,-0.2592773,0.1181641
2646,-41.0625,25.125,-47.4375,0.04736328,0.7314453,-0.4013672,-0.2294922,-0.2631836,0.1137695
2650,-54.1875,-7.875,-40.3125,0.140625,0.5097656,-0.2436523,-0.2294922,-0.2680664,0.1113281
2654,-46.4375,-20.875,-36.8125,0.2993164,0.3232422,-0.128418,-0.2255859,-0.2705078,0.1069336
2658,-34.0625,-12.875,-30.625,0.4580078,0.4013672,-0.109375,-0.2246094,-0.2744141,0.1044922
2662,-43.1875,2.75,-27.5625,0.4506836,0.5371094,-0.1630859,-0.222168,-0.2783203,0.1030273
2666,-66.125,4,-33.3125,0.4077148,0.5800781,-0.1362305,-0.2197266,-0.2832031,0.1015625
2670,-76.9375,-1.9375,-28.1875,0.3110352,0.4013672,-0.05517578,-0.2197266,-0.2866211,0.09472656
2675,-68.1875,-11.8125,-25.25,0.3378906,0.3388672,0.06347656,-0.2172852,-0.2905273,0.09082031
2679,-59.875,-15.9375,-22.8125,0.4038086,0.3818359,0.09033203,-0.215332,-0.2954102,0.08691406
2683,-54.875,-11.6875,-18.375,0.4467773,0.4282227,0.1020508,-0.2128906,-0.296875,0.08544922
2687,-54.4375,-10,-14.4375,0.3999023,0.5097656,0.1289063,-0.2114258,-0.3007813,0.08251953
2691,-61.5625,-18.5,-8.125,0.3110352,0.4790039,0.1713867,-0.2089844,-0.3032227,0.07861328
2695,-62.75,-37.5625,-4.3125,0.3730469,0.4360352,0.2675781,-0.2089844,-0.3032227,0.07421875
2699,-49.1875,-48.0625,-3.1875,0.4775391,0.3349609,0.3442383,-0.206543,-0.3056641,0.07324219
2703,-26.9375,-48.3125,1.875,0.6328125,0.3857422,0.3330078,-0.2055664,-0.3095703,0.07421875
2707,-11.0625,-31.75,6.0625,0.7099609,0.4555664,0.2290039,-0.2055664,-0.3066406,0.07568359
2711,-0.9375,-17.0625,6.75,0.6635742,0.4946289,0.07128906,-0.2055664,-0.3095703,0.07568359
2715,7.6875,-8.75,-0.75,0.6328125,0.5371094,-0.02050781,-0.2045898,-0.3081055,0.07861328
2719,15.875,1.4375,-2.75,0.5898438,0.5644531,-0.0859375,-0.2055664,-0.3066406,0.07861328
2723,22.875,14.25,-2.875,0.5551758,0.6030273,-0.1245117,-0.203125,-0.3066406,0.07861328
2727,27.6875,26.75,-0.4375,0.4619141,0.6499023,-0.1821289,-0.2055664,-0.3066406,0.07861328
2731,27.4375,28.8125,6,0.3149414,0.7275391,-0.2475586,-0.2055664,-0.3056641,0.08007813
2735,18.1875,16.6875,14.9375,0.2373047,0.8051758,-0.3051758,-0.206543,-0.3041992,0.08007813
2739,2.5,-0.0625,23.875,0.2333984,0.8012695,-0.3129883,-0.2080078,-0.3041992,0.08105469
2743,-8.5,-16.4375,29,0.3266602,0.7158203,-0.2670898,-0.2104492,-0.3007813,0.08105469
2747,-13.25,-21.3125,32.3125,0.4541016,0.6577148,-0.2363281,-0.2128906,-0.2993164,0.08105469
2751,-19.5,-25.125,32.9375,0.5239258,0.6342773,-0.2475586,-0.2128906,-0.2983398,0.08105469
2755,-23.0625,-26.0625,28.75,0.6328125,0.5644531,-0.1938477,-0.215332,-0.2954102,0.08105469
2759,-21.75,-15.0625,24.8125,0.7294922,0.4790039,-0.09375,-0.2172852,-0.2944336,0.08251953
2763,-13.875,7.0625,26.6875,0.7719727,0.3818359,0.01367188,-0.2172852,-0.2944336,0.08105469
2767,-2.1875,29.125,29,0.7099609,0.3427734,0.09423828,-0.21875,-0.2929688,0.07861328
2771,7.75,42,30.625,0.609375,0.3544922,0.1098633,-0.222168,-0.2919922,0.07714844
2775,16.1875,40.5,30.3125,0.5200195,0.3544922,0.09033203,-0.2255859,-0.2895508,0.07421875
2779,22.5625,24.25,26.3125,0.4619141,0.4633789,-0.001464844,-0.2270508,-0.2856445,0.07421875
2783,20.1875,0.125,19.8125,0.5161133,0.5800781,-0.08203125,-0.2294922,-0.2832031,0.07568359
2787,11.9375,-13.8125,13.4375,0.625,0.6108398,-0.07470703,-0.2294922,-0.2832031,0.07714844
2791,4.5625,-9.25,10.8125,0.7294922,0.6069336,-0.09765625,-0.2319336,-0.2807617,0.07714844
2795,2.625,5.75,11.3125,0.7602539,0.5214844,-0.05517578,-0.2319336,-0.2792969,0.07861328
2799,7.375,27.8125,10.5,0.7529297,0.5175781,-0.01660156,-0.2319336,-0.2783203,0.07568359
2804,17.0625,42.0625,10,0.6401367,0.4399414,0.009765625,-0.2329102,-0.2792969,0.07714844
2808,21.125,44.0625,6.0625,0.574707,0.4672852,0.005859375,-0.2329102,-0.2783203,0.07421875
2812,20.375,41.0625,-8.9375,0.578125,0.4946289,0.02880859,-0.237793,-0.2768555,0.07324219
2816,28.3125,33.1875,-26.125,0.4970703,0.4243164,0.09423828,-0.2353516,-0.2783203,0.07421875
2820,41.9375,22.625,-30,0.4233398,0.5136719,0.09423828,-0.2363281,-0.2783203,0.07421875
2824,45.25,7.4375,-22.125,0.3769531,0.6811523,-0.02441406,-0.234375,-0.2792969,0.07324219
2828,29.625,-14.75,-15.0625,0.3959961,0.8867188,-0.1435547,-0.2319336,-0.2792969,0.07568359
2832,8.125,-36.0625,-10.375,0.5126953,0.8984375,-0.1938477,-0.2319336,-0.2792969,0.08007813
2836,-10.125,-38.5625,-8.4375,0.7099609,0.777832,-0.1552734,-0.2304688,-0.2817383,0.08398438
2840,-7.125,-14.6875,-4.4375,0.8769531,0.5683594,-0.06298828,-0.2280273,-0.2807617,0.08251953
2844,11.5625,16.625,3.125,0.8652344,0.6459961,-0.06298828,-0.2280273,-0.2792969,0.08544922
2848,17,35.875,16.875,0.7954102,0.8051758,-0.109375,-0.2294922,-0.2807617,0.08251953
2852,9.125,39.875,23.3125,0.7294922,0.9335938,-0.1474609,-0.2319336,-0.2768555,0.08251953
2856,-5.125,34.4375,25.5625,0.6674805,0.90625,-0.1474609,-0.2329102,-0.2768555,0.08007813
2860,-13,31.375,28.5,0.6557617,0.809082,-0.09765625,-0.2363281,-0.2744141,0.07714844
2864,-11.4375,28.4375,27.9375,0.6289063,0.7353516,-0.07470703,-0.237793,-0.2729492,0.07324219
2868,-9.625,27.375,28.875,0.6401367,0.809082,-0.04736328,-0.2426758,-0.2705078,0.07324219
2872,-22.0625,15.875,32.9375,0.609375,0.987793,-0.08203125,-0.2436523,-0.2680664,0.06787109
2876,-40.3125,-4.9375,36.25,0.6328125,0.9414063,-0.02832031,-0.2446289,-0.2680664,0.06787109
2880,-46.25,-24.375,37.6875,0.7216797,0.8051758,0.02880859,-0.2485352,-0.265625,0.06640625
2884,-46,-37.125,33.3125,0.8842773,0.6811523,0.06738281,-0.2509766,-0.2641602,0.06494141
2888,-32.375,-41.25,22.5625,0.9462891,0.5644531,0.1210938,-0.2495117,-0.2631836,0.06494141
2892,-12.75,-38,14.625,1.047363,0.6303711,0.1020508,-0.2495117,-0.2607422,0.06640625
2896,-2.3125,-26.375,13.9375,1.023926,0.7666016,0.06738281,-0.2509766,-0.2607422,0.06884766
2900,0.375,-10.25,25.125,1.016113,0.840332,0.01367188,-0.2509766,-0.2592773,0.06884766
2904,1.5,9.1875,44.3125,0.9423828,0.8286133,-0.001464844,-0.2509766,-0.2558594,0.0703125
2908,-3.3125,14,59.0625,0.8574219,0.824707,-0.08203125,-0.2553711,-0.2529297,0.0703125
2912,-17.9375,-0.25,49.3125,0.8574219,0.8325195,-0.1206055,-0.2578125,-0.2504883,0.0703125
2916,-26.0625,-20.3125,30,0.9155273,0.6499023,-0.05517578,-0.2592773,-0.2470703,0.06787109
2920,-16.8125,-27.8125,18.1875,1.027832,0.5449219,-0.02832031,-0.2592773,-0.2470703,0.06884766
2924,-8.3125,-18.125,12.125,1.151855,0.5722656,-0.04394531,-0.2626953,-0.2441406,0.06884766
2928,1.5625,0.9375,9.6875,1.140137,0.5878906,-0.02441406,-0.2602539,-0.2441406,0.06884766
2933,14.5,17.375,7.125,1.121094,0.6616211,-0.05517578,-0.2617188,-0.2431641,0.0703125
2937,11.8125,24.25,0.875,1.097656,0.8286133,-0.07861328,-0.2617188,-0.2407227,0.06884766
2941,3.625,21.375,1.1875,1.0625,0.8632813,-0.05517578,-0.2636719,-0.2431641,0.06884766
2945,0.4375,13.125,6.125,1.105469,0.8364258,-0.005371094,-0.2636719,-0.2416992,0.06640625
2949,3.1875,5.125,6.4375,1.124512,0.8208008,0.01367188,-0.2636719,-0.2407227,0.06787109
2953,4.5625,-8.25,4.875,1.175293,0.890625,-0.01660156,-0.2651367,-0.2407227,0.06640625
2957,2.125,-25.5625,2.125,1.225586,0.9296875,-0.05517578,-0.2651367,-0.2416992,0.06787109
2961,6.25,-39.25,-5,1.353516,0.8984375,-0.01660156,-0.2651367,-0.2407227,0.07177734
2965,12.0625,-42.1875,-11.9375,1.353516,0.8632813,-0.09375,-0.2636719,-0.2407227,0.07421875
2969,18.75,-40.5625,-18.375,1.39209,0.875,-0.1054688,-0.2602539,-0.2416992,0.08105469
2973,23.5,-32.9375,-20.6875,1.314453,0.855957,-0.1362305,-0.2592773,-0.2416992,0.08007813
2977,29.9375,-25.9375,-24.375,1.271973,0.8208008,-0.1552734,-0.2568359,-0.2441406,0.08544922
2981,35.5625,-17.125,-28.125,1.186523,0.8286133,-0.1669922,-0.2543945,-0.2416992,0.08691406
2985,37,-13.4375,-28.9375,1.074219,0.8671875,-0.1860352,-0.253418,-0.2456055,0.09082031
2989,30.1875,-26.375,-32.3125,0.9462891,0.9140625,-0.2016602,-0.2509766,-0.2470703,0.09228516
2993,21.9375,-48.1875,-40.8125,0.9233398,0.875,-0.1669922,-0.2470703,-0.2470703,0.09619141
2997,22.9375,-61.9375,-46.75,0.9892578,0.777832,-0.09765625,-0.2460938,-0.2495117,0.1015625
3001,30.3125,-58.9375,-48.0625,1.0625,0.7626953,-0.06689453,-0.2402344,-0.2529297,0.105957
3005,35.875,-49.5625,-49.3125,1.105469,0.8012695,-0.1166992,-0.2353516,-0.2543945,0.1123047
3009,35.9375,-33.0625,-48.5,1.09375,0.8789063,-0.1513672,-0.2329102,-0.2568359,0.1181641
3013,30.9375,-25.3125,-49.75,0.9697266,0.8867188,-0.2363281,-0.2294922,-0.2583008,0.1206055
3017,24.5,-28.9375,-52.375,0.8535156,0.9296875,-0.2246094,-0.2246094,-0.2617188,0.1206055
3021,20.25,-35.625,-50.625,0.7954102,0.8286133,-0.2128906,-0.2197266,-0.2631836,0.1259766
3025,24.75,-41.375,-53.0625,0.7719727,0.7548828,-0.2016602,-0.215332,-0.2670898,0.1289063
3029,31,-45.3125,-58.5,0.7255859,0.7856445,-0.2514648,-0.2089844,-0.2670898,0.1342773
3033,28.5625,-45.1875,-57.6875,0.7294922,0.8828125,-0.2822266,-0.2055664,-0.2695313,0.1396484
3037,17.9375,-34.4375,-51.4375,0.7333984,0.9296875,-0.3476563,-0.199707,-0.2705078,0.1411133
3041,8.3125,-24.5625,-46.1875,0.6791992,0.8481445,-0.3398438,-0.1962891,-0.2744141,0.144043
3045,7.3125,-12.8125,-45.1875,0.675293,0.7666016,-0.2978516,-0.1923828,-0.2783203,0.144043
3049,5.625,3.625,-41.125,0.6054688,0.6655273,-0.2436523,-0.1889648,-0.2783203,0.1464844
3053,11.1875,15.9375,-38.875,0.5317383,0.5878906,-0.2363281,-0.1875,-0.2817383,0.1464844
3057,17,26,-33.4375,0.4697266,0.5952148,-0.2055664,-0.1875,-0.2832031,0.1479492
3062,15.125,25.5625,-28.875,0.3378906,0.6616211,-0.2436523,-0.1855469,-0.2856445,0.1464844
3066,0.125,12.75,-24.3125,0.2646484,0.8012695,-0.2939453,-0.1855469,-0.2866211,0.1464844
3070,-19.4375,-8,-25.6875,0.2451172,0.7353516,-0.3325195,-0.184082,-0.2856445,0.1494141
3074,-29.875,-15.5625,-22.1875,0.3417969,0.6030273,-0.2631836,-0.1816406,-0.2880859,0.1425781
3078,-29.25,-8.8125,-16.5625,0.4428711,0.5449219,-0.2246094,-0.1806641,-0.2929688,0.1425781
3082,-30.3125,7.875,-9.3125,0.5009766,0.5800781,-0.2055664,-0.1782227,-0.2944336,0.1396484
3086,-31.1875,27.0625,-4.5625,0.4580078,0.5019531,-0.2016602,-0.1782227,-0.2954102,0.1381836
3090,-32.3125,29.25,-6.4375,0.3149414,0.5488281,-0.2436523,-0.1791992,-0.2983398,0.1328125
3094,-40.9375,11.625,-9.5,0.206543,0.5991211,-0.2783203,-0.1816406,-0.2983398,0.1328125
3098,-52.5625,-12.4375,-11.5625,0.2255859,0.6694336,-0.2978516,-0.1791992,-0.3017578,0.1289063
3102,-64.625,-23.375,-7.0625,0.2954102,0.5410156,-0.1977539,-0.1782227,-0.3041992,0.125
3106,-57.25,-28.8125,-5.6875,0.4233398,0.3779297,-0.1015625,-0.1772461,-0.3056641,0.1206055
3110,-45.5625,-19.9375,-11.25,0.5356445,0.3779297,0.001953125,-0.1757813,-0.3105469,0.1191406
3114,-35.125,-14.375,-14.9375,0.4892578,0.4086914,-0.02832031,-0.1733398,-0.3120117,0.1166992
3118,-26.25,-14.625,-12.6875,0.5239258,0.5527344,-0.05517578,-0.1723633,-0.3154297,0.1181641
3122,-28.8125,-14.5625,-5.625,0.5356445,0.7158203,-0.1474609,-0.1708984,-0.3168945,0.1152344
3126,-34.8125,-9.875,2.625,0.527832,0.7001953,-0.1513672,-0.1708984,-0.3178711,0.1113281
3130,-34.6875,-11.5,7.875,0.5239258,0.6147461,-0.128418,-0.1708984,-0.3193359,0.1123047
3134,-28.3125,-8.625,-0.8125,0.559082,0.4907227,-0.08984375,-0.1699219,-0.3208008,0.1069336
3138,-18.1875,-0.5,-10.5625,0.5859375,0.4946289,-0.08203125,-0.1708984,-0.3208008,0.1083984
3142,-10.3125,12.9375,-15.125,0.559082,0.6186523,-0.1054688,-0.1699219,-0.3208008,0.1069336
3146,-7.5,25.75,-9.125,0.4272461,0.6303711,-0.1401367,-0.168457,-0.3217773,0.105957
3150,-4.875,30.8125,1.0625,0.3071289,0.6264648,-0.1323242,-0.1699219,-0.3232422,0.1015625
3154,-3.75,25.75,8.875,0.2026367,0.5991211,-0.1630859,-0.1699219,-0.3232422,0.1015625
3158,-4.125,6.25,11.625,0.1791992,0.6342773,-0.2207031,-0.1708984,-0.3242188,0.1015625
3162,-5.75,-4.375,11.5,0.3110352,0.6069336,-0.1743164,-0.1748047,-0.3232422,0.1000977
3166,-3.375,0.4375,18.25,0.3730469,0.5761719,-0.1513672,-0.1748047,-0.3217773,0.1000977
3170,-1.625,5.1875,27.75,0.4077148,0.6030273,-0.1401367,-0.1748047,-0.3217773,0.09912109
3174,-7.3125,8.375,33.3125,0.4506836,0.6030273,-0.07470703,-0.1772461,-0.3178711,0.09765625
3178,-4.6875,13.6875,33.8125,0.4541016,0.4477539,0.04052734,-0.1806641,-0.3178711,0.09619141
3182,8.875,17.125,31.4375,0.4580078,0.3896484,0.09033203,-0.1816406,-0.3154297,0.09619141
3186,20.5625,21.375,32.3125,0.3999023,0.3857422,0.105957,-0.1855469,-0.3129883,0.09912109
3191,30.375,10.375,30.5,0.3305664,0.4672852,0.001953125,-0.1889648,-0.3120117,0.09619141
3195,28.375,-8.125,35.25,0.3808594,0.6069336,-0.08203125,-0.1914063,-0.3081055,0.1000977
3199,18.4375,-13.4375,39.8125,0.5356445,0.6264648,-0.112793,-0.1938477,-0.3056641,0.1030273
3203,8.75,1,46.375,0.6479492,0.5913086,-0.1435547,-0.1962891,-0.3032227,0.1030273
3207,5.5,30,51.5,0.7060547,0.4477539,-0.07080078,-0.199707,-0.2993164,0.1044922
3211,14.9375,56.375,50.1875,0.6289063,0.3427734,0.009765625,-0.2045898,-0.2944336,0.105957
3215,28.625,62.375,47.4375,0.4736328,0.3583984,-0.009277344,-0.2080078,-0.2929688,0.09912109
3219,34.875,47.3125,44.4375,0.3266602,0.4907227,-0.04736328,-0.2138672,-0.2895508,0.09765625
3223,26.625,21.625,41.375,0.2875977,0.6459961,-0.1015625,-0.21875,-0.2856445,0.1000977
3227,13.75,2.3125,43.25,0.3652344,0.6923828,-0.08203125,-0.21875,-0.2807617,0.1000977
3231,1.6875,-8.4375,49.25,0.4506836,0.6733398,-0.04003906,-0.2236328,-0.2768555,0.1000977
3235,-0.1875,-18.375,52.625,0.5200195,0.5722656,-0.02050781,-0.2255859,-0.2729492,0.1015625
3239,3.4375,-26.375,46.125,0.5976563,0.5214844,-0.05126953,-0.2280273,-0.2705078,0.1030273
3243,9.3125,-26.4375,34.25,0.690918,0.4985352,-0.07861328,-0.2280273,-0.2695313,0.105957
3247,14.75,-15.25,26,0.7490234,0.5800781,-0.09375,-0.2304688,-0.2641602,0.105957
3251,16.5,-3.5625,28.9375,0.7915039,0.7001953,-0.09375,-0.2304688,-0.2631836,0.1083984
3255,10.25,8.1875,35.1875,0.8300781,0.8286133,-0.1015625,-0.234375,-0.2631836,0.1098633
3259,4,15.625,36.375,0.7568359,0.7895508,-0.1474609,-0.234375,-0.2558594,0.1083984
3263,-0.25,11.3125,41.375,0.6791992,0.7470703,-0.2167969,-0.237793,-0.2529297,0.1083984
3267,-15.0625,-3.375,42.0625,0.7836914,0.7895508,-0.2978516,-0.2426758,-0.2529297,0.1083984
3271,-27.25,-19.25,15.875,0.9272461,0.7236328,-0.309082,-0.2426758,-0.2495117,0.1083984
3275,-19.6875,-19.25,-17.4375,1.066406,0.6884766,-0.2324219,-0.2412109,-0.2504883,0.1083984
3279,-5.0625,11.3125,-19.625,1.13623,0.7509766,-0.1054688,-0.2412109,-0.2543945,0.1083984
3283,7.875,49.875,-0.6875,0.9462891,0.8286133,-0.1435547,-0.2426758,-0.2543945,0.1083984
3287,0.375,60.875,23.9375,0.7412109,1.007324,-0.2514648,-0.2402344,-0.2529297,0.1030273
3291,-24.5625,32.3125,21.1875,0.4541016,0.956543,-0.3286133,-0.2470703,-0.2504883,0.1000977
3295,-24.8125,-11.8125,7.375,0.5161133,0.5566406,-0.2363281,-0.2470703,-0.2519531,0.09619141
3299,13.5,-40,-8.75,0.6870117,0.2768555,-0.1669922,-0.2470703,-0.2504883,0.09765625
3303,52.8125,-46.9375,-20.5,0.9462891,0.6225586,-0.2705078,-0.2446289,-0.2504883,0.1015625
3307,35.5,-23.75,-35.0625,1.151855,1.225098,-0.4052734,-0.2412109,-0.2495117,0.1069336
3311,-10.75,13.1875,-19.4375,1.121094,1.302734,-0.4169922,-0.2402344,-0.2519531,0.1069336
3315,-49.75,42.5,21.875,1.047363,1.104492,-0.34375,-0.2387695,-0.2529297,0.105957
3320,-67.375,46.25,41.625,0.9423828,0.793457,-0.2822266,-0.2436523,-0.2529297,0.09912109
3324,-62.5,22.0625,33.375,0.9541016,0.5761719,-0.2128906,-0.2460938,-0.2519531,0.09472656
3328,-40.125,7.25,9.1875,1.101563,0.5019531,-0.08203125,-0.2470703,-0.2519531,0.08935547
3332,-23.1875,14.875,1.5,1.26416,0.7158203,-0.112793,-0.2495117,-0.2519531,0.08691406
3336,-32.0625,32.9375,9.125,1.306641,0.9101563,-0.1474609,-0.2485352,-0.2543945,0.08544922
3340,-39.375,45.875,25.0625,1.353516,0.8828125,-0.112793,-0.2495117,-0.2543945,0.08105469
3344,-36.0625,62.75,35,1.380371,0.8208008,-0.04394531,-0.2553711,-0.2504883,0.07324219
3348,-25.125,74.0625,35.125,1.275879,0.7158203,0.04052734,-0.2568359,-0.2519531,0.06884766
3352,-6,62.125,22,1.121094,0.7041016,0.07128906,-0.2592773,-0.2495117,0.05957031
3356,2.75,42.8125,9.1875,1.059082,0.8051758,0.08251953,-0.2617188,-0.2480469,0.05664063
3360,4.25,26.375,4.9375,0.9853516,0.8168945,0.06738281,-0.2636719,-0.2456055,0.05419922
3364,6.375,18.4375,7.8125,0.9775391,0.7856445,0.07519531,-0.2617188,-0.2470703,0.05126953
3368,8.5,24.375,13.8125,0.9658203,0.7548828,0.07128906,-0.2661133,-0.2456055,0.05419922
3372,11.8125,39.75,20.4375,0.9077148,0.7080078,0.06347656,-0.2661133,-0.2441406,0.05126953
3376,16.6875,59.25,27.125,0.8222656,0.6616211,0.07519531,-0.2685547,-0.2431641,0.04736328
3380,21.625,75.375,32.5625,0.6635742,0.6108398,0.05175781,-0.2709961,-0.2382813,0.04736328
3384,25.5,83,36,0.5239258,0.6108398,0.03662109,-0.2734375,-0.2368164,0.0390625
3388,27,90.0625,41.8125,0.4541016,0.6186523,0.04052734,-0.2783203,-0.2329102,0.03515625
3392,23.8125,99.5,51.75,0.3959961,0.6694336,-0.001464844,-0.2827148,-0.2280273,0.02685547
3396,15.125,111.5625,68.1875,0.3652344,0.7275391,-0.02832031,-0.2851563,-0.2255859,0.02294922
3400,2.8125,128.9375,89.875,0.3535156,0.7431641,-0.03222656,-0.2900391,-0.2192383,0.01464844
3404,-8.4375,148.5625,114.875,0.3378906,0.7041016,-0.02832031,-0.2958984,-0.2094727,0
3408,-15.375,164.125,133.6875,0.2724609,0.6459961,-0.001464844,-0.2998047,-0.2016602,-0.006835938
3412,-16.9375,169.125,147.875,0.2412109,0.5761719,0.02490234,-0.3056641,-0.1894531,-0.02441406
3416,-12.9375,170.3125,160.8125,0.2915039,0.5605469,0.07128906,-0.3115234,-0.1743164,-0.04052734
3420,-10.75,173.3125,173.25,0.3496094,0.6069336,0.09033203,-0.3139648,-0.1630859,-0.05175781
3424,-15.6875,175.25,184.8125,0.4038086,0.6772461,0.1367188,-0.3164063,-0.1445313,-0.06787109
