Packet number,Gyroscope X (deg/s),Gyroscope Y (deg/s),Gyroscope Z (deg/s),Accelerometer X (g),Accelerometer Y (g),Accelerometer Z (g),Magnetometer X (G),Magnetometer Y (G),Magnetometer Z (G)
0,3.25,-4.8125,2.4375,0.9501953,0.1679688,-0.005371094,-0.3256836,-0.07421875,0.06494141
4,1,-5.6875,1.0625,0.9775391,0.171875,-0.02832031,-0.324707,-0.07421875,0.06347656
8,0.3125,-3.6875,1.9375,0.9697266,0.1679688,-0.02832031,-0.3271484,-0.07324219,0.06494141
12,0.25,-2.8125,4.5,0.9697266,0.1914063,-0.04736328,-0.324707,-0.07568359,0.06640625
16,-3.75,-2.5,6,0.9658203,0.203125,-0.06298828,-0.3256836,-0.07421875,0.06347656
20,-8.75,-3.9375,5.875,0.9501953,0.171875,-0.05908203,-0.3232422,-0.07177734,0.06494141
25,-10.9375,-8.0625,4.5,0.9580078,0.140625,-0.05126953,-0.324707,-0.07421875,0.06494141
29,-11.4375,-8.625,3.1875,1.012207,0.1176758,-0.05126953,-0.3271484,-0.07177734,0.06494141
33,-11.8125,-4.375,3.125,1.031738,0.1098633,-0.07470703,-0.3271484,-0.07177734,0.06640625
37,-10.375,-1.4375,2.125,1.027832,0.09814453,-0.07080078,-0.3256836,-0.07324219,0.06640625
41,-8.5625,2.125,2.375,1.05127,0.09423828,-0.06298828,-0.3271484,-0.07324219,0.06640625
45,-4.625,5.125,1.1875,1.027832,0.07470703,-0.03222656,-0.324707,-0.07324219,0.06640625
49,-0.625,5.25,0.1875,1.023926,0.08251953,-0.01660156,-0.324707,-0.07177734,0.06347656
53,1.75,6.5,-0.4375,1.043457,0.1098633,0.001953125,-0.3256836,-0.07324219,0.06640625
57,3.0625,6,-0.1875,1.070313,0.1484375,0.02880859,-0.3271484,-0.07177734,0.06494141
61,0.6875,5.375,2.0625,1.089844,0.1914063,0.03271484,-0.3256836,-0.07324219,0.06640625
65,-5.3125,1.75,2.125,1.085938,0.2148438,0.05957031,-0.3256836,-0.07324219,0.06201172
69,-10.8125,-4.6875,1.0625,1.132324,0.21875,0.07519531,-0.328125,-0.07324219,0.06201172
73,-14.5,-10.75,2.375,1.209961,0.2226563,0.09423828,-0.3256836,-0.07324219,0.06640625
77,-19.875,-12.5625,3.6875,1.302734,0.2338867,0.105957,-0.3256836,-0.07324219,0.06347656
81,-23.25,-19.375,1.375,1.306641,0.2109375,0.1098633,-0.3256836,-0.07177734,0.06640625
85,-24.125,-21.25,4.5625,1.341797,0.171875,0.144043,-0.3256836,-0.07421875,0.06884766
89,-26.4375,-25,4.4375,1.326172,0.1914063,0.1020508,-0.3256836,-0.07324219,0.0703125
93,-34.8125,-33.1875,-0.3125,1.333984,0.1953125,0.05175781,-0.3232422,-0.07421875,0.07177734
97,-39.5,-40.3125,-8.1875,1.349609,0.1333008,0.07128906,-0.3232422,-0.07568359,0.07568359
101,-36.75,-43.9375,-12,1.357422,0.07861328,0.05566406,-0.3232422,-0.07714844,0.07861328
105,-30.3125,-42.375,-15.875,1.395996,0.07470703,0.03271484,-0.3208008,-0.08056641,0.08105469
109,-23.9375,-39.4375,-20.875,1.395996,0.09814453,-0.01318359,-0.3198242,-0.08203125,0.08398438
113,-18.8125,-36.75,-27.4375,1.349609,0.1137695,-0.05517578,-0.3198242,-0.08447266,0.08789063
117,-15.9375,-36,-33.3125,1.326172,0.1875,-0.109375,-0.3164063,-0.08935547,0.09326172
121,-16.8125,-33.25,-39.4375,1.279785,0.1835938,-0.1401367,-0.3173828,-0.09179688,0.09619141
125,-11.1875,-28.5625,-42.6875,1.283691,0.171875,-0.1591797,-0.3139648,-0.09570313,0.09765625
129,-0.375,-14.5,-42.4375,1.229492,0.1679688,-0.1474609,-0.3139648,-0.09960938,0.09912109
133,8.6875,-3.875,-40.25,1.159668,0.2416992,-0.1708984,-0.3115234,-0.1044922,0.1000977
137,10.0625,9.125,-37.5625,1.055176,0.315918,-0.2055664,-0.3125,-0.1054688,0.09912109
141,-3.1875,14.1875,-33.4375,0.9233398,0.4243164,-0.2207031,-0.3115234,-0.109375,0.09912109
145,-21.9375,11.5,-28.5,0.8691406,0.3857422,-0.2631836,-0.3105469,-0.1157227,0.09619141
149,-40.125,17.125,-28,0.8959961,0.3427734,-0.1474609,-0.3115234,-0.1157227,0.09472656
154,-48.5,30.8125,-25.875,0.8110352,0.171875,-0.01660156,-0.3115234,-0.1196289,0.09228516
158,-36.5625,35.9375,-21.625,0.675293,0.0009765625,0.07128906,-0.3115234,-0.1245117,0.09082031
162,-19.625,28.375,-21.8125,0.6401367,0.04736328,-0.02441406,-0.3125,-0.1254883,0.08544922
166,-21.375,26.375,-27,0.7451172,0.21875,-0.09375,-0.3139648,-0.1293945,0.08105469
170,-39.9375,32.3125,-27.0625,0.7836914,0.3271484,-0.1206055,-0.3125,-0.1333008,0.07714844
174,-62.4375,42.9375,-19.8125,0.6557617,0.2265625,-0.01660156,-0.3149414,-0.1357422,0.07714844
178,-56.9375,40.75,-14,0.5009766,-0.03759766,0.09423828,-0.3139648,-0.1396484,0.06884766
182,-26.75,30.875,-16.6875,0.4814453,-0.1269531,0.1904297,-0.3139648,-0.1420898,0.06347656
186,-4,22.125,-18,0.527832,-0.01416016,0.1289063,-0.3139648,-0.1445313,0.06347656
190,5.3125,17,-20.6875,0.5820313,0.05126953,0.05566406,-0.3139648,-0.1455078,0.05957031
194,11.25,9.6875,-24.3125,0.6362305,0.1601563,-0.07080078,-0.3149414,-0.1479492,0.05810547
198,13.25,7.0625,-23.75,0.7099609,0.2299805,-0.1821289,-0.3149414,-0.1479492,0.05957031
202,9.5,9.25,-19.6875,0.7568359,0.2963867,-0.2553711,-0.3139648,-0.1518555,0.05957031
206,2.9375,13,-13.375,0.8378906,0.2729492,-0.2592773,-0.3125,-0.1533203,0.05810547
210,1.125,19.6875,-13.875,0.8032227,0.2226563,-0.1743164,-0.3139648,-0.1542969,0.05664063
214,-1.5625,12.9375,-14.375,0.7373047,0.2456055,-0.2167969,-0.3139648,-0.1557617,0.05517578
218,-10.1875,7.75,-20.1875,0.8535156,0.2807617,-0.1860352,-0.3139648,-0.1567383,0.05517578
222,-8.75,13.6875,-22.6875,0.8803711,0.2070313,-0.109375,-0.3125,-0.1591797,0.05419922
226,-1.1875,14.9375,-13.9375,0.8535156,0.253418,-0.1435547,-0.3115234,-0.1591797,0.05126953
230,1.125,19.8125,-8.375,0.9038086,0.284668,-0.1206055,-0.3115234,-0.1630859,0.04980469
234,4.5,24.6875,-7.75,0.8183594,0.2963867,-0.04394531,-0.3139648,-0.1630859,0.04882813
238,12.3125,18.5625,-7.6875,0.7490234,0.2924805,-0.009277344,-0.3125,-0.1621094,0.04736328
242,18.3125,13.9375,-8.25,0.7758789,0.3974609,0.01367188,-0.3139648,-0.1630859,0.04443359
246,15.4375,10.1875,-1.8125,0.7412109,0.4555664,-0.03222656,-0.3125,-0.1645508,0.04443359
250,9.9375,6.125,8.5625,0.7451172,0.4985352,-0.07470703,-0.3115234,-0.1630859,0.04443359
254,1,4.75,18.4375,0.7568359,0.4633789,-0.04003906,-0.3139648,-0.1621094,0.04443359
258,-1.3125,2.125,21.9375,0.7138672,0.3740234,-0.01660156,-0.3139648,-0.1606445,0.04296875
262,8,-1,25.375,0.7099609,0.253418,0.08251953,-0.3139648,-0.1591797,0.04443359
266,21.4375,-2.125,32,0.690918,0.2265625,0.1171875,-0.3164063,-0.1567383,0.04443359
270,31.625,-6.3125,36.125,0.6948242,0.2265625,0.1367188,-0.3164063,-0.1533203,0.04589844
274,38.625,-7.6875,38,0.6831055,0.269043,0.1289063,-0.3149414,-0.1469727,0.04736328
278,35.1875,-9.5,37.9375,0.6401367,0.3120117,0.105957,-0.3188477,-0.1430664,0.04882813
283,33.4375,-6.25,39.375,0.6401367,0.2963867,0.09423828,-0.3198242,-0.140625,0.05126953
287,32.75,4.3125,44.875,0.5708008,0.300293,0.08642578,-0.3208008,-0.1381836,0.04980469
291,26.5,6.625,57.375,0.5009766,0.4125977,0.04785156,-0.3222656,-0.1293945,0.04980469
295,1.5,-4,71.75,0.3999023,0.4672852,0.03662109,-0.3222656,-0.1254883,0.05273438
299,-31.25,-29,76.875,0.3457031,0.2885742,-0.02441406,-0.324707,-0.1181641,0.05419922
303,-41.375,-61.8125,66.9375,0.4853516,0.008789063,-0.07080078,-0.324707,-0.109375,0.05810547
307,-26.6875,-65.625,57,0.8378906,-0.2431641,-0.06689453,-0.324707,-0.1069336,0.06201172
311,2.8125,-30.1875,55.8125,1.074219,-0.3754883,-0.05908203,-0.3232422,-0.1005859,0.06787109
315,32.3125,1.875,54.6875,1.109375,-0.3325195,-0.1782227,-0.3232422,-0.09570313,0.06884766
319,49,18.0625,39.625,1.109375,-0.1733398,-0.2246094,-0.324707,-0.09082031,0.06884766
323,44.875,19,24.0625,0.9931641,0.04736328,-0.2861328,-0.324707,-0.08691406,0.06787109
327,15.8125,-2.375,12.8125,0.9931641,0.269043,-0.359375,-0.324707,-0.08203125,0.06787109
331,-18.5625,-18.6875,-0.625,1.109375,0.2109375,-0.2553711,-0.3271484,-0.08056641,0.06884766
335,-25.375,-7.3125,2.1875,1.155762,-0.07226563,-0.06298828,-0.3232422,-0.08300781,0.06884766
339,0.1875,5.1875,6.25,1.117188,-0.1889648,0.03271484,-0.324707,-0.08300781,0.06884766
343,21.75,11.25,6.1875,1.101563,-0.02587891,0.06738281,-0.3256836,-0.08300781,0.06640625
347,17.1875,4.125,-1.8125,0.9853516,0.2109375,0.06347656,-0.3256836,-0.08056641,0.06640625
351,-10.375,-15.9375,-9.375,0.9350586,0.3310547,0.04443359,-0.324707,-0.08056641,0.06787109
355,-41.0625,-29.8125,-19.75,1.02002,0.3271484,0.04443359,-0.3232422,-0.08056641,0.0703125
359,-51.625,-34.1875,-23.6875,1.0625,0.1254883,0.08251953,-0.324707,-0.08447266,0.07324219
363,-36.0625,-26.8125,-17.125,1.105469,0.03222656,0.1210938,-0.3222656,-0.08935547,0.07568359
367,-7.625,-17.8125,-0.3125,1.09375,-0.006347656,0.1098633,-0.3232422,-0.09082031,0.07568359
371,16.75,-5.125,14.8125,1.074219,0.05126953,0.07910156,-0.3222656,-0.09082031,0.07568359
375,23.0625,3.4375,14,0.9658203,0.21875,0.001953125,-0.3232422,-0.08935547,0.07861328
379,3.9375,-6.1875,-2.1875,0.7875977,0.3388672,-0.05126953,-0.3208008,-0.08691406,0.07714844
383,-18.9375,-23.4375,-20.75,0.8300781,0.3466797,-0.06298828,-0.3208008,-0.08837891,0.07714844
387,-28.375,-29.1875,-23.75,0.9541016,0.2416992,-0.03222656,-0.3188477,-0.09082031,0.08105469
391,-22.8125,-20.5,-7.8125,1.047363,0.1640625,0.02099609,-0.3173828,-0.09326172,0.08544922
395,-3.25,-3.5,10.1875,1.05127,0.04003906,0.07128906,-0.3188477,-0.09179688,0.08544922
399,18.0625,11.9375,17.9375,1.031738,0.02050781,0.08251953,-0.3188477,-0.09326172,0.08398438
403,35.5,15.8125,9.875,0.9541016,0.1020508,0.06738281,-0.3208008,-0.09082031,0.08398438
407,37.0625,3.25,-3.125,0.8769531,0.300293,-0.01318359,-0.3173828,-0.08935547,0.08251953
412,20.875,-10.0625,-5.375,0.9423828,0.4399414,-0.03613281,-0.3198242,-0.08837891,0.08398438
416,0.25,-15,4.75,1.000488,0.4282227,-0.08984375,-0.3173828,-0.08837891,0.08398438
420,-12.5625,-8.75,14.125,1.09375,0.2924805,-0.08984375,-0.3198242,-0.08691406,0.08544922
424,-12.1875,1.0625,15.0625,1.082031,0.171875,-0.1708984,-0.3173828,-0.08691406,0.08544922
428,-11.875,6.6875,10.75,1.109375,0.1333008,-0.2246094,-0.3198242,-0.08544922,0.08544922
432,-13.75,14.875,1.8125,1.132324,0.09423828,-0.2285156,-0.3198242,-0.08544922,0.08398438
436,-17.1875,20.4375,-5.8125,1.186523,0.09814453,-0.1630859,-0.3208008,-0.08544922,0.08398438
440,-11.375,23.125,-10.0625,1.151855,0.04736328,-0.1054688,-0.3198242,-0.08935547,0.08251953
444,7.0625,23.6875,-7.4375,1.128418,0.03613281,-0.009277344,-0.3208008,-0.08691406,0.08007813
448,35.125,24.125,-6.5,1.229492,0.08251953,0.02490234,-0.3208008,-0.08837891,0.07568359
452,63.0625,31.9375,1.625,1.357422,0.1914063,0.06347656,-0.3208008,-0.08691406,0.07421875
456,66.9375,41.25,17.75,1.388184,0.4321289,0.01708984,-0.3222656,-0.08544922,0.07177734
460,42.8125,34.5,27.0625,1.337891,0.5371094,-0.05908203,-0.3232422,-0.08203125,0.06787109
464,1.125,14.75,15.375,1.415527,0.5991211,-0.04736328,-0.324707,-0.078125,0.06640625
468,-31.6875,-4.8125,1.4375,1.419434,0.3740234,0.01367188,-0.3222656,-0.07568359,0.06640625
472,-36,-20.375,3.4375,1.454102,0.1484375,0.07910156,-0.324707,-0.078125,0.06787109
476,-19.375,-30.6875,12.0625,1.484863,-0.06054688,0.105957,-0.324707,-0.07958984,0.06787109
480,6.3125,-35.5,19.6875,1.574219,-0.08789063,0.1210938,-0.324707,-0.07714844,0.07177734
484,12.0625,-35.1875,18.625,1.670898,0.04736328,0.04443359,-0.3208008,-0.07421875,0.07568359
488,-6.9375,-38.0625,7.4375,1.674805,0.1601563,0.009765625,-0.3222656,-0.07568359,0.07714844
492,-30.1875,-47.25,-6.6875,1.624512,0.09423828,0.02880859,-0.3208008,-0.07324219,0.08007813
496,-34.3125,-59.625,-18.0625,1.558594,-0.09179688,0.07519531,-0.3198242,-0.07568359,0.08544922
500,-6.8125,-66.8125,-23.5625,1.554688,-0.2314453,0.1210938,-0.3164063,-0.078125,0.09082031
504,29.0625,-65.625,-23.1875,1.558594,-0.1577148,0.06738281,-0.3173828,-0.08056641,0.09765625
508,52.25,-63.0625,-20.0625,1.484863,0.02441406,-0.04736328,-0.3139648,-0.08056641,0.105957
512,54.375,-69.0625,-20.6875,1.368652,0.2265625,-0.2055664,-0.3115234,-0.08056641,0.1069336
516,35.0625,-79.75,-30.8125,1.42334,0.4594727,-0.3823242,-0.3081055,-0.08056641,0.1152344
520,1.5,-81.75,-43.625,1.484863,0.5488281,-0.4169922,-0.3041992,-0.08300781,0.1235352
524,-17.25,-71.8125,-45.625,1.411621,0.3779297,-0.3901367,-0.3032227,-0.08691406,0.1289063
528,-7.4375,-62.875,-44.9375,1.252441,0.1796875,-0.3554688,-0.2973633,-0.09179688,0.1328125
532,22.0625,-59.25,-41.5,1.202148,0.1137695,-0.359375,-0.2949219,-0.09570313,0.1411133
536,48.625,-50.75,-36.5625,1.13623,0.1914063,-0.4438477,-0.2915039,-0.09814453,0.1450195
541,46.875,-41.25,-43.3125,1.151855,0.4594727,-0.5244141,-0.2890625,-0.1005859,0.1479492
545,15.4375,-33.5,-58.3125,1.078125,0.5952148,-0.628418,-0.2866211,-0.1005859,0.1518555
549,-13,-19.9375,-64.5,1.012207,0.4829102,-0.5092773,-0.2841797,-0.1030273,0.1533203
553,-17.0625,-1.1875,-53.75,0.8417969,0.2612305,-0.4130859,-0.2827148,-0.1108398,0.1547852
557,3.8125,11.8125,-42.4375,0.6518555,0.1098633,-0.2822266,-0.2827148,-0.1157227,0.1533203
561,27.8125,14.1875,-36.6875,0.5356445,0.1137695,-0.3286133,-0.2827148,-0.1181641,0.1547852
565,23.8125,22.0625,-35.125,0.6674805,0.3623047,-0.4169922,-0.2841797,-0.1196289,0.1533203
569,-12.8125,36.25,-32.875,0.6791992,0.5371094,-0.4555664,-0.2841797,-0.1230469,0.1508789
573,-45.125,47.5625,-20,0.6362305,0.3701172,-0.3706055,-0.2841797,-0.1245117,0.1464844
577,-44.125,63.75,8.875,0.5898438,0.07080078,-0.2128906,-0.2866211,-0.1308594,0.1425781
581,-27.6875,78.1875,30.3125,0.4389648,0.03222656,-0.1054688,-0.2915039,-0.1279297,0.1357422
585,-33.8125,59.375,18.9375,0.2451172,0.1445313,-0.1166992,-0.293457,-0.1279297,0.1303711
589,-57.25,30.3125,-9.0625,0.2875977,0.2651367,-0.03613281,-0.2958984,-0.1293945,0.1259766
593,-71.6875,13.875,-16.3125,0.3730469,0.1098633,0.02880859,-0.2973633,-0.1318359,0.1220703
597,-52.9375,15.1875,-8.875,0.5087891,-0.02978516,0.01367188,-0.2983398,-0.1357422,0.1191406
601,-21.0625,29.9375,5.9375,0.675293,0.01660156,-0.009277344,-0.2983398,-0.1381836,0.1166992
605,2.3125,56.5,16.125,0.6791992,0.1367188,-0.03613281,-0.2983398,-0.1367188,0.1123047
609,-2.75,61.3125,19.375,0.4658203,0.3662109,-0.1474609,-0.3017578,-0.1396484,0.1083984
613,-36.625,27.9375,9.5625,0.3417969,0.3857422,-0.2324219,-0.3041992,-0.1367188,0.1030273
617,-55.8125,2.3125,-1.625,0.6210938,0.140625,-0.07861328,-0.3056641,-0.1367188,0.1000977
621,-34.5625,5.5,-2.5625,0.8149414,-0.09960938,-0.02832031,-0.3041992,-0.1396484,0.1000977
625,3,19.625,-0.6875,0.9233398,-0.09179688,-0.04736328,-0.3056641,-0.1396484,0.09912109
629,21.1875,35.5,12.125,0.8457031,0.05517578,-0.1669922,-0.3066406,-0.1396484,0.09326172
633,14.5,34.3125,17.375,0.7875977,0.1445313,-0.2016602,-0.3066406,-0.1367188,0.09228516
637,2.25,21.75,2.4375,0.8300781,0.1293945,-0.1630859,-0.309082,-0.1357422,0.09228516
641,4.125,18.375,-11,0.9541016,0.05517578,-0.07470703,-0.3081055,-0.1381836,0.08935547
645,18.25,24.5,-16.25,0.8881836,0.09033203,-0.05908203,-0.309082,-0.1367188,0.08789063
649,23.5625,21.5625,-10.9375,0.8071289,0.2612305,-0.109375,-0.309082,-0.1381836,0.08789063
653,12.375,16.8125,0.125,0.7993164,0.3583984,-0.109375,-0.309082,-0.1396484,0.08691406
657,-1.75,10.5,8.8125,0.8071289,0.3388672,-0.109375,-0.3105469,-0.1381836,0.08398438
661,-3.875,8.125,11.4375,0.8535156,0.2109375,-0.02441406,-0.3105469,-0.1367188,0.08251953
665,-0.125,5.1875,11.375,0.8149414,0.1835938,0.03271484,-0.3115234,-0.1357422,0.08251953
670,5.375,-3,8.5,0.8149414,0.1757813,-0.001464844,-0.3139648,-0.1333008,0.08251953
674,6.5625,-6.0625,9.875,0.8149414,0.21875,-0.05126953,-0.3125,-0.1342773,0.08398438
678,3.0625,-8.3125,13.375,0.8261719,0.2416992,-0.08984375,-0.3115234,-0.1318359,0.08251953
682,-0.375,-4.875,16.875,0.8959961,0.2265625,-0.08203125,-0.3125,-0.1333008,0.08398438
686,0.8125,2.25,21.1875,0.8652344,0.1992188,-0.05908203,-0.3115234,-0.1279297,0.08544922
690,4,11.25,28.9375,0.8378906,0.1640625,-0.02050781,-0.3139648,-0.1254883,0.08251953
694,5.875,15.625,32.625,0.7294922,0.1640625,0.001953125,-0.3125,-0.1245117,0.08251953
698,0.8125,10.0625,28.25,0.6132813,0.1333008,0.04443359,-0.3149414,-0.1220703,0.08105469
702,0.8125,-3.5,18.25,0.4775391,0.07861328,0.08642578,-0.3164063,-0.1181641,0.08251953
706,1.5625,-16.1875,5.8125,0.3769531,0.1367188,0.09033203,-0.3164063,-0.1181641,0.08251953
710,5.5625,-31.375,13.5,0.2875977,0.04394531,-0.001464844,-0.3149414,-0.1181641,0.08398438
714,26.625,-42.8125,33.9375,0.3925781,-0.04150391,-0.1669922,-0.3164063,-0.1142578,0.08789063
718,42.625,-44.1875,52.0625,0.6831055,0.08642578,-0.3476563,-0.3125,-0.1118164,0.09228516
722,40.25,-21.25,51,0.9697266,0.2573242,-0.3398438,-0.3125,-0.1044922,0.09472656
726,24.9375,15.8125,41.625,1.02002,0.3349609,-0.324707,-0.3125,-0.09960938,0.1000977
730,10.0625,36.25,37.4375,0.7915039,0.2729492,-0.2167969,-0.3149414,-0.09570313,0.09472656
734,1.9375,23.3125,37.5625,0.5708008,0.1757813,-0.1323242,-0.3173828,-0.09082031,0.09228516
738,-3.1875,-6.625,41.75,0.5512695,0.09423828,-0.1015625,-0.3173828,-0.08691406,0.08935547
742,-2.1875,-35.625,33.125,0.7875977,0.03222656,-0.1513672,-0.3173828,-0.08300781,0.09228516
746,1.6875,-32.3125,18.5625,1.151855,0.07080078,-0.1591797,-0.3164063,-0.08056641,0.09619141
750,-7.6875,-5,6.375,1.275879,0.1679688,-0.1513672,-0.3173828,-0.078125,0.09912109
754,-18.125,15.875,7.1875,1.186523,0.1254883,-0.1435547,-0.3164063,-0.07958984,0.09765625
758,-27.3125,20.75,17.875,1.085938,0.1020508,-0.1474609,-0.3164063,-0.078125,0.09472656
762,-30,21.125,23.0625,1.070313,-0.02978516,-0.08203125,-0.3173828,-0.078125,0.09228516
766,-19.5625,14.6875,15.875,1.109375,-0.006347656,0.009765625,-0.3188477,-0.07714844,0.09472656
770,-13.6875,-0.3125,6.25,1.101563,0.05126953,0.005859375,-0.3198242,-0.078125,0.09082031
774,-20.25,-5.0625,0.5,1.229492,0.1523438,0.03662109,-0.3198242,-0.07568359,0.09326172
778,-30.375,-1.875,-5.5,1.186523,0.1484375,0.001953125,-0.3188477,-0.078125,0.09082031
782,-29.875,-1.625,-9.125,1.117188,0.09814453,-0.03222656,-0.3188477,-0.078125,0.09082031
786,-25.625,-2.3125,-7.4375,1.117188,0.1293945,-0.112793,-0.3188477,-0.08056641,0.09228516
790,-29.375,3.5,-8.6875,1.198242,0.1875,-0.1474609,-0.3173828,-0.08203125,0.09228516
794,-34.375,15.625,-7.25,1.19043,0.1679688,-0.128418,-0.3173828,-0.08447266,0.09082031
799,-25.125,27.75,-6.875,1.117188,0.05126953,-0.03613281,-0.3164063,-0.08544922,0.08691406
803,3.875,29.3125,-11.375,1.035645,0.03613281,0.05175781,-0.3198242,-0.08544922,0.08691406
807,38.8125,26.0625,-5.125,0.9814453,0.06298828,0.1020508,-0.3198242,-0.08691406,0.08398438
811,58.75,23.375,6.875,1.008301,0.284668,0.05957031,-0.3198242,-0.08544922,0.08105469
815,48,23.375,15.6875,0.9970703,0.4711914,-0.01318359,-0.3208008,-0.08447266,0.08007813
819,15,16.75,18,0.9892578,0.5605469,-0.06298828,-0.3208008,-0.08203125,0.07714844
823,-17.625,4.75,9.875,0.9658203,0.4555664,-0.02832031,-0.3208008,-0.08056641,0.07568359
827,-32.1875,-4,7.3125,1.012207,0.2768555,0.02099609,-0.3222656,-0.07958984,0.07861328
831,-25.9375,-4.6875,8.625,1.031738,0.07861328,0.05566406,-0.3222656,-0.078125,0.07568359
835,-9.875,-0.1875,16.5625,1.035645,0.01269531,0.07519531,-0.3222656,-0.078125,0.08007813
839,9,1.75,16.5625,1.031738,-0.01025391,0.03271484,-0.3222656,-0.078125,0.07714844
843,17.75,7.3125,17.75,1.085938,0.1176758,0.01367188,-0.3208008,-0.07568359,0.07714844
847,16.625,7.875,9.625,1.027832,0.06689453,0.005859375,-0.3232422,-0.07421875,0.07714844
851,27.875,4.9375,1.875,1.035645,-0.03369141,0.01708984,-0.3222656,-0.07324219,0.07421875
855,36.0625,2.0625,-0.8125,1.097656,-0.01806641,-0.001464844,-0.3232422,-0.07177734,0.07714844
859,37.4375,-2.1875,-11.0625,1.182617,0.01660156,-0.03613281,-0.3232422,-0.07080078,0.07714844
863,37.5625,-0.6875,-25.875,1.248535,0.09423828,-0.06689453,-0.3198242,-0.07080078,0.07568359
867,37.625,8.0625,-26.625,1.248535,0.1640625,-0.0859375,-0.3232422,-0.07177734,0.07568359
871,33.375,13.6875,-20.75,1.206055,0.2456055,-0.1245117,-0.3222656,-0.07421875,0.07568359
875,24.9375,18.0625,-5.25,1.22168,0.269043,-0.1362305,-0.324707,-0.07568359,0.07568359
879,15.3125,21.0625,1.625,1.256348,0.2299805,-0.1166992,-0.3232422,-0.07421875,0.07324219
883,9.25,18.8125,-7.5625,1.279785,0.2299805,-0.1015625,-0.324707,-0.07324219,0.07177734
887,5.625,13.75,-15.125,1.248535,0.1914063,-0.07470703,-0.3222656,-0.07568359,0.0703125
891,7.25,7.6875,-10.375,1.275879,0.1640625,-0.02050781,-0.3256836,-0.07714844,0.0703125
895,7.4375,2.6875,1.9375,1.372559,0.1953125,0.01367188,-0.324707,-0.07568359,0.0703125
899,5.4375,-1.4375,11.9375,1.477539,0.1914063,0.02490234,-0.3256836,-0.07568359,0.06787109
903,-1.4375,-7.6875,17.6875,1.585938,0.2299805,0.02490234,-0.324707,-0.07568359,0.06884766
907,-13,-18.75,13.6875,1.632324,0.21875,0.02490234,-0.3222656,-0.07324219,0.0703125
911,-17.4375,-33.375,7.125,1.597656,0.07861328,0.05957031,-0.3232422,-0.07177734,0.0703125
915,-15,-50.1875,2.5,1.597656,0.05517578,0.105957,-0.3222656,-0.07080078,0.07568359
919,-14.0625,-69.25,-8.8125,1.597656,0.06689453,0.06347656,-0.3198242,-0.07324219,0.08251953
923,-10.375,-82.1875,-14.4375,1.63623,0.05908203,0.02490234,-0.3188477,-0.07324219,0.08691406
928,-1,-84.5625,-18.5625,1.651855,0.09423828,-0.05517578,-0.3149414,-0.07421875,0.09472656
932,14.0625,-81,-16.1875,1.644043,0.1020508,-0.112793,-0.3125,-0.07714844,0.1015625
936,25.6875,-70.25,-10.9375,1.608887,0.2338867,-0.2324219,-0.3115234,-0.078125,0.1069336
940,24,-66.25,-12.125,1.582031,0.3896484,-0.3325195,-0.309082,-0.07958984,0.1123047
944,16.3125,-58,-8.1875,1.570313,0.4086914,-0.3012695,-0.3066406,-0.078125,0.1191406
948,11.1875,-50.375,-2,1.450195,0.3779297,-0.2670898,-0.3056641,-0.078125,0.1235352
952,0,-48.3125,-11.375,1.380371,0.4125977,-0.3012695,-0.3032227,-0.07714844,0.1274414
956,-17,-52.5625,-28.375,1.209961,0.3857422,-0.2900391,-0.3007813,-0.07958984,0.1342773
960,-21.3125,-60.5625,-31.125,1.055176,0.2299805,-0.3012695,-0.2998047,-0.08300781,0.1357422
964,-17.5625,-60.25,-27.5625,1.140137,0.2226563,-0.2592773,-0.2958984,-0.08544922,0.1411133
968,-12.4375,-35.875,-15.25,1.155762,0.2416992,-0.3286133,-0.293457,-0.08935547,0.1464844
972,-32.9375,-19.5,-20.375,0.8378906,0.4321289,-0.359375,-0.2915039,-0.09179688,0.1464844
976,-55,-42.0625,-35.125,0.5708008,0.2768555,-0.4321289,-0.2900391,-0.09570313,0.1479492
980,-49.6875,-53.4375,-35.125,0.6479492,0.004882813,-0.2744141,-0.2875977,-0.1030273,0.1518555
984,-16.625,-33.625,-13.25,0.7216797,-0.1499023,-0.2397461,-0.2841797,-0.1044922,0.15625
988,3.9375,0.9375,3.625,0.7641602,-0.01806641,-0.2822266,-0.2841797,-0.1054688,0.15625
992,-2.125,17.25,-11.4375,0.6054688,0.2299805,-0.3862305,-0.2841797,-0.1054688,0.1533203
996,-26.5,17.25,-21.9375,0.4697266,0.2495117,-0.3168945,-0.2851563,-0.109375,0.1533203
1000,-39.875,23.0625,-17.5625,0.4814453,0.09423828,-0.2167969,-0.2851563,-0.1108398,0.1518555
1004,-36.5,37.9375,-13,0.5009766,-0.05273438,-0.1630859,-0.2866211,-0.1142578,0.1494141
1008,-18.75,50.6875,-10.75,0.4814453,-0.09179688,-0.1435547,-0.2890625,-0.1157227,0.1464844
1012,-0.25,59.875,-11.5625,0.4970703,-0.002441406,-0.1821289,-0.2900391,-0.1181641,0.1396484
1016,-3.3125,68.875,-10.125,0.3691406,0.171875,-0.1245117,-0.2924805,-0.1181641,0.137207
1020,-14.9375,53.0625,-10.25,0.2026367,0.2148438,-0.1860352,-0.2958984,-0.1196289,0.1289063
1024,-28.4375,28.625,-13.9375,0.4272461,0.2612305,-0.2324219,-0.2973633,-0.1220703,0.1274414
1028,-35.3125,36.9375,-11.9375,0.6015625,0.1445313,-0.1474609,-0.2998047,-0.1245117,0.1235352
1032,-22.375,42.125,-3,0.4892578,0.0009765625,-0.1054688,-0.2983398,-0.1269531,0.1206055
1036,-6.5625,37,3.25,0.5048828,0.05908203,-0.109375,-0.2998047,-0.1293945,0.1181641
1040,-1.8125,29,3.125,0.5820313,0.09423828,-0.1323242,-0.3017578,-0.1279297,0.1123047
1044,2.5,22.25,-0.4375,0.7138672,0.1176758,-0.2016602,-0.3032227,-0.1269531,0.1098633
1048,-0.125,19.1875,-5.75,0.7993164,0.2226563,-0.2861328,-0.3041992,-0.1269531,0.1083984
1052,-7.3125,20.125,-7.25,0.8535156,0.21875,-0.2705078,-0.3041992,-0.1279297,0.1069336
1057,-4.3125,28.625,1.0625,0.8535156,0.1137695,-0.1977539,-0.3041992,-0.1279297,0.105957
1061,8.5,30.875,2.625,0.8032227,0.105957,-0.1782227,-0.3056641,-0.1293945,0.1030273
1065,13.4375,26.3125,2.25,0.8574219,0.2226563,-0.1899414,-0.3066406,-0.1279297,0.1000977
1069,8.6875,27,5.875,0.9389648,0.269043,-0.2363281,-0.309082,-0.1279297,0.09765625
1073,1.3125,31.25,8.8125,0.9272461,0.2651367,-0.1708984,-0.309082,-0.1269531,0.09619141
1077,-4.25,31,10.9375,0.8574219,0.2070313,-0.08203125,-0.3115234,-0.1254883,0.09326172
1081,-7.875,26.3125,9.75,0.7915039,0.1757813,0.02880859,-0.3115234,-0.1245117,0.09228516
1085,-5.1875,13.3125,4.9375,0.7451172,0.105957,0.08251953,-0.3125,-0.1254883,0.08691406
1089,5.625,3.8125,3.8125,0.8071289,0.1098633,0.05957031,-0.3125,-0.1245117,0.08789063
1093,8.9375,5.1875,8.25,0.8222656,0.1601563,0.03271484,-0.3139648,-0.1245117,0.08691406
1097,9.6875,2.4375,13.125,0.7875977,0.1796875,-0.03613281,-0.3139648,-0.1220703,0.08691406
1101,6.6875,4.1875,20.3125,0.8032227,0.203125,-0.02832031,-0.3125,-0.1196289,0.08789063
1105,3.5625,9.625,29.3125,0.7719727,0.1523438,-0.02050781,-0.3125,-0.1181641,0.08544922
1109,4.125,15.375,37.3125,0.690918,0.06689453,-0.005371094,-0.3149414,-0.1157227,0.08691406
1113,2.625,10.1875,30.5,0.6132813,0.05908203,-0.02441406,-0.3173828,-0.1108398,0.08398438
1117,0.9375,-1.875,17.0625,0.5820313,0.01269531,-0.02441406,-0.3164063,-0.1083984,0.08544922
1121,0.875,-8.375,7.8125,0.625,-0.02197266,-0.01660156,-0.3173828,-0.109375,0.08544922
1125,3.375,-4.0625,3.5625,0.6557617,-0.05273438,-0.005371094,-0.3149414,-0.109375,0.08691406
1129,8.4375,5.875,8.25,0.6289063,-0.06835938,0.001953125,-0.3173828,-0.1069336,0.08691406
1133,7.0625,17.3125,22.75,0.6132813,0.004882813,-0.04003906,-0.3173828,-0.1054688,0.08544922
1137,-6.375,15.625,32.375,0.5356445,0.03613281,-0.1401367,-0.3188477,-0.1030273,0.08105469
1141,-16.25,-10.5,6.75,0.5976563,0.004882813,-0.1669922,-0.3198242,-0.1005859,0.08251953
1145,-14.125,-35.3125,-24.4375,0.7529297,0.01269531,-0.1591797,-0.3173828,-0.1030273,0.08251953
1149,-9.6875,-36.125,-36.5,0.9311523,0.1137695,-0.128418,-0.3164063,-0.1054688,0.08789063
1153,-17.375,-20.0625,-26.6875,1.023926,0.2070313,-0.1669922,-0.3149414,-0.1069336,0.09228516
1157,-20.25,-4,-15.9375,1.05127,0.2070313,-0.1630859,-0.3149414,-0.1118164,0.09082031
1161,-16.75,5.9375,-4.25,1.035645,0.2456055,-0.1591797,-0.3125,-0.1142578,0.09228516
1165,-16,15.0625,8,1.027832,0.2807617,-0.1474609,-0.3125,-0.1132813,0.08789063
1169,-19.625,19.75,11.625,0.9658203,0.2768555,-0.1166992,-0.3139648,-0.1132813,0.08691406
1173,-28.125,19.3125,9.0625,0.9272461,0.2148438,-0.08203125,-0.3139648,-0.1132813,0.08544922
1177,-23.75,17.9375,2.4375,0.9272461,0.06298828,0.001953125,-0.3164063,-0.1118164,0.08105469
1181,-3.1875,18.875,-1.9375,0.9697266,0.08251953,0.05957031,-0.3139648,-0.1118164,0.08007813
1186,7.75,27.5,9.0625,1.000488,0.2338867,0.04052734,-0.3164063,-0.1132813,0.07861328
1190,-4.0625,32.375,16.5,0.9775391,0.3818359,-0.02832031,-0.3164063,-0.1118164,0.07714844
1194,-27.3125,30.3125,20.125,0.9541016,0.3740234,-0.06689453,-0.3198242,-0.109375,0.07324219
1198,-43.8125,26.0625,13,1.035645,0.2924805,-0.06689453,-0.3188477,-0.109375,0.0703125
1202,-34,24.6875,1.5,1.097656,0.140625,0.001953125,-0.3208008,-0.1118164,0.06787109
1206,-7.6875,29.4375,2.125,1.163574,0.1523438,0.08642578,-0.3208008,-0.1108398,0.06640625
1210,10.1875,39.5,12.3125,1.198242,0.3041992,0.05957031,-0.3222656,-0.1108398,0.06201172
1214,2.5,41.6875,20.875,1.159668,0.4360352,0.04785156,-0.3222656,-0.1108398,0.05810547
1218,-11.5,30.5625,13.6875,1.070313,0.3896484,0.04785156,-0.324707,-0.1054688,0.05517578
1222,-12.3125,10.6875,-0.0625,0.9389648,0.2495117,0.09814453,-0.324707,-0.1069336,0.05273438
1226,-0.625,-24.9375,-19.875,0.8691406,0.2148438,0.09033203,-0.324707,-0.1069336,0.05273438
1230,-2,-48.1875,-34.1875,1.283691,0.4321289,-0.005371094,-0.3222656,-0.1083984,0.05517578
1234,-29.6875,-28.125,-21.625,1.574219,0.5410156,-0.04736328,-0.3198242,-0.1142578,0.05957031
1238,-44.0625,3.4375,10.25,1.589844,0.3466797,-0.01318359,-0.3198242,-0.1142578,0.06347656
1242,-23.5625,24.75,29.125,1.419434,0.1176758,0.06738281,-0.3208008,-0.1118164,0.05664063
1246,8.8125,28.75,31.5625,1.237305,0.05908203,0.144043,-0.3208008,-0.1108398,0.05517578
1250,24.6875,21.625,24,1.16748,0.2416992,0.1210938,-0.3232422,-0.109375,0.05419922
1254,16.6875,12.4375,20.5,1.089844,0.3427734,0.09423828,-0.3222656,-0.1069336,0.05419922
1258,-3.4375,-1.0625,11.3125,1.070313,0.4399414,0.04785156,-0.3232422,-0.1020508,0.05126953
1262,-26.25,-12,15.375,1.151855,0.3974609,0.07128906,-0.324707,-0.1005859,0.05273438
1266,-34.875,-7.25,23.1875,1.241211,0.2573242,0.1557617,-0.3256836,-0.1005859,0.05273438
1270,-26.1875,1.8125,33.625,1.159668,0.06689453,0.2060547,-0.3256836,-0.1005859,0.05419922
1274,-8.375,0.4375,35.6875,1.070313,0.01660156,0.1904297,-0.3256836,-0.09716797,0.05273438
1278,1.375,-10.4375,26.625,1.016113,0.04736328,0.1674805,-0.3271484,-0.09326172,0.05273438
1282,6.5,-21,19.4375,1.070313,0.09814453,0.1210938,-0.3271484,-0.09082031,0.05517578
1286,3.3125,-21.5625,22.875,1.140137,0.1796875,0.07910156,-0.324707,-0.08935547,0.05664063
1290,-8.6875,-20.5625,20.8125,1.194336,0.1914063,0.01367188,-0.3256836,-0.08837891,0.05957031
1294,-14.25,-17,17.8125,1.279785,0.1254883,0.005859375,-0.3232422,-0.08691406,0.05957031
1298,-13,-7.625,21.9375,1.337891,0.07861328,-0.005371094,-0.324707,-0.08447266,0.06201172
1302,-5.9375,-3.3125,25.9375,1.330078,0.008789063,0.005859375,-0.3232422,-0.08203125,0.06201172
1306,6.5625,-8.25,23.4375,1.326172,-0.04541016,0.02880859,-0.324707,-0.07958984,0.06201172
1310,18.4375,-23,15,1.399902,-0.06054688,-0.02050781,-0.324707,-0.078125,0.06103516
1315,19.5625,-34,4.9375,1.59375,0.02832031,-0.02832031,-0.3256836,-0.07421875,0.06884766
1319,13.25,-39.3125,-6.8125,1.698242,0.05517578,-0.04736328,-0.3232422,-0.07568359,0.0703125
1323,10.9375,-44.3125,-19.9375,1.702148,0.07861328,-0.04736328,-0.3222656,-0.07714844,0.07324219
1327,14.125,-49.4375,-22,1.640137,0.05517578,-0.04003906,-0.3222656,-0.08056641,0.07714844
1331,28.125,-56.4375,-20.8125,1.640137,0.06298828,-0.04394531,-0.3188477,-0.08056641,0.08251953
1335,41.375,-59.0625,-19.5,1.632324,0.1176758,-0.04003906,-0.3188477,-0.08056641,0.09082031
1339,49.0625,-64.25,-16.625,1.550781,0.1914063,-0.1015625,-0.3173828,-0.08056641,0.09228516
1343,38.25,-75.625,-22.375,1.550781,0.3041992,-0.2167969,-0.3139648,-0.08056641,0.1000977
1347,24.0625,-82.3125,-38.75,1.59375,0.2924805,-0.2978516,-0.3115234,-0.08056641,0.1044922
1351,17.625,-81,-52.125,1.543457,0.2265625,-0.3476563,-0.3081055,-0.08447266,0.1137695
1355,20.375,-70.8125,-56.8125,1.531738,0.1914063,-0.3554688,-0.3041992,-0.08935547,0.1220703
1359,27.5625,-46.625,-52.0625,1.48877,0.1020508,-0.3632813,-0.3007813,-0.09326172,0.1235352
1363,41.5,-12.875,-47.0625,1.310547,0.1137695,-0.3168945,-0.2998047,-0.09423828,0.1303711
1367,41.9375,-0.875,-47.125,0.9892578,0.21875,-0.4013672,-0.2998047,-0.09960938,0.1313477
1371,30.875,-8.25,-60,0.8222656,0.284668,-0.4282227,-0.2983398,-0.1005859,0.1303711
1375,19.375,-6.8125,-69.4375,0.8339844,0.2651367,-0.3398438,-0.2958984,-0.1054688,0.1303711
1379,21.4375,9.3125,-62.25,0.8071289,0.1757813,-0.2744141,-0.2958984,-0.1118164,0.1313477
1383,32.5,37.1875,-41.375,0.7529297,0.1640625,-0.2514648,-0.2949219,-0.1132813,0.1313477
1387,29,60,-25.6875,0.574707,0.3466797,-0.2631836,-0.2973633,-0.1157227,0.1259766
1391,3.9375,58.6875,-21.375,0.3378906,0.5292969,-0.2822266,-0.2998047,-0.1196289,0.1220703
1395,-32.5,39,-14.875,0.206543,0.5722656,-0.2089844,-0.2998047,-0.1206055,0.1206055
1399,-47.0625,13.1875,-1.25,0.2412109,0.2612305,-0.1362305,-0.3017578,-0.1206055,0.1166992
1403,-26.375,11.25,19.0625,0.5126953,0.1176758,-0.112793,-0.3017578,-0.1230469,0.1137695
1407,-25.0625,37.125,28.875,0.6948242,0.1914063,-0.1323242,-0.3032227,-0.1230469,0.1137695
1411,-45.4375,65.0625,19.8125,0.578125,0.09814453,-0.07080078,-0.3056641,-0.1220703,0.1069336
1415,-52.3125,65.125,9.4375,0.3691406,-0.1113281,0.05957031,-0.3105469,-0.1220703,0.1015625
1419,-36.9375,56.25,12.9375,0.4038086,-0.2275391,0.1904297,-0.309082,-0.1220703,0.09326172
1423,-15.625,51.75,8.4375,0.4467773,-0.1772461,0.2250977,-0.3105469,-0.1220703,0.08935547
1427,-2,43.6875,4.5625,0.4428711,-0.05664063,0.159668,-0.3139648,-0.1220703,0.08398438
1431,-0.75,28.6875,0.5625,0.4467773,0.09814453,0.01367188,-0.3149414,-0.1206055,0.08007813
1435,-13.25,13.75,-4.8125,0.5898438,0.2265625,-0.0859375,-0.3149414,-0.1220703,0.08105469
1439,-17.875,14.5,-3.6875,0.6831055,0.1137695,-0.04736328,-0.3164063,-0.1220703,0.07861328
1444,-4,18.875,4,0.6791992,0.04394531,-0.06298828,-0.3149414,-0.1220703,0.07714844
1448,9.125,17.875,3.875,0.7333984,0.1445313,-0.109375,-0.3164063,-0.1220703,0.07568359
1452,8.9375,16.875,2.6875,0.7875977,0.2070313,-0.1435547,-0.3173828,-0.1220703,0.07324219
1456,4.8125,14.0625,2.3125,0.8032227,0.2148438,-0.1474609,-0.3188477,-0.1220703,0.07324219
1460,2.25,13.5625,0.5625,0.8110352,0.1835938,-0.1015625,-0.3173828,-0.1206055,0.0703125
1464,5.3125,10.75,3.3125,0.8110352,0.1992188,-0.1362305,-0.3188477,-0.1206055,0.06884766
1468,2.5,10.3125,5.6875,0.8842773,0.2651367,-0.128418,-0.3198242,-0.1220703,0.06884766
1472,-0.25,13.875,6.0625,0.8339844,0.2226563,-0.07080078,-0.3198242,-0.1196289,0.06640625
1476,2.9375,9.875,10.0625,0.7875977,0.1914063,-0.04003906,-0.3198242,-0.1196289,0.06640625
1480,3.125,5.3125,13.625,0.8261719,0.237793,-0.02832031,-0.3208008,-0.1181641,0.06347656
1484,-0.9375,2.5,16.25,0.8300781,0.2109375,0.001953125,-0.3208008,-0.1166992,0.06884766
1488,0,-2.125,18.8125,0.8417969,0.1601563,0.01708984,-0.3208008,-0.1157227,0.06494141
1492,2.8125,-4.6875,20.0625,0.9077148,0.1679688,-0.009277344,-0.3198242,-0.1142578,0.06787109
1496,0.625,-3.375,20,0.9194336,0.1875,-0.03222656,-0.3188477,-0.109375,0.06494141
1500,-0.875,-2.9375,20.875,0.9116211,0.140625,-0.009277344,-0.3222656,-0.1108398,0.06640625
1504,5.375,1.1875,21.875,0.8920898,0.06689453,0.02880859,-0.3208008,-0.1083984,0.06640625
1508,16.6875,3.5625,23.875,0.8339844,0.05908203,0.07910156,-0.3232422,-0.1044922,0.06640625
1512,26.5,2.5625,25.0625,0.7875977,0.07470703,0.06347656,-0.324707,-0.1020508,0.06787109
1516,28.4375,-0.25,28.25,0.7568359,0.140625,0.02490234,-0.3222656,-0.09960938,0.06640625
1520,19.8125,-2.8125,26.875,0.7529297,0.203125,-0.04736328,-0.3232422,-0.09423828,0.06640625
1524,7.5,-2.9375,26.5,0.7568359,0.15625,-0.04003906,-0.324707,-0.09326172,0.06884766
1528,9.25,7.8125,32.0625,0.8071289,0.008789063,-0.009277344,-0.3256836,-0.09082031,0.06787109
1532,24.5625,22.875,35.8125,0.7758789,-0.07226563,0.01708984,-0.324707,-0.08691406,0.06787109
1536,43.125,32.4375,34.625,0.6557617,-0.08398438,0.06738281,-0.324707,-0.08300781,0.06494141
1540,56.1875,24.75,26.125,0.5551758,-0.006347656,0.04785156,-0.3271484,-0.078125,0.06347656
1544,56.625,11.0625,23.25,0.5551758,0.09033203,0.02880859,-0.3271484,-0.07421875,0.06103516
1548,40.875,6.5625,23.1875,0.6210938,0.1953125,-0.02441406,-0.3295898,-0.07177734,0.06201172
1552,16.5,0.8125,25.8125,0.6210938,0.1953125,-0.07861328,-0.3271484,-0.07080078,0.06103516
1556,-2.5,-2.6875,27.375,0.7177734,0.1333008,-0.07080078,-0.328125,-0.06689453,0.06347656
1560,-3.5,0.0625,27.6875,0.8149414,-0.03759766,-0.03613281,-0.3295898,-0.06298828,0.06347656
1564,11.875,11.3125,29.75,0.9155273,-0.09179688,0.02490234,-0.328125,-0.05957031,0.06103516
1568,28.625,26.375,36.375,0.8959961,-0.06835938,0.04785156,-0.3271484,-0.05712891,0.06103516
1573,33.5625,30.625,41.125,0.8496094,0.06298828,0.01708984,-0.328125,-0.05175781,0.05664063
1577,19.8125,22.25,41.8125,0.7641602,0.1367188,-0.005371094,-0.331543,-0.04833984,0.05419922
1581,-2.625,4.5,31.25,0.8300781,0.1640625,-0.009277344,-0.3305664,-0.04589844,0.05419922
1585,-18.75,-7.8125,21.125,0.9423828,0.09423828,0.02099609,-0.3305664,-0.04199219,0.05273438
1589,-24.4375,-5.4375,24.375,1.031738,0.01660156,0.05566406,-0.3330078,-0.04052734,0.05273438
1593,-30.5,6.75,29.375,1.085938,-0.05664063,0.06738281,-0.3295898,-0.03808594,0.05273438
1597,-27,13.25,22.9375,1.097656,-0.1577148,0.1020508,-0.3295898,-0.03710938,0.05273438
1601,-10.1875,15.75,13.625,1.089844,-0.1889648,0.1518555,-0.331543,-0.03466797,0.05419922
1605,9.125,13,13.1875,1.039551,-0.1230469,0.1367188,-0.331543,-0.03564453,0.05126953
1609,12.125,8.3125,19.4375,1.070313,0.04003906,0.07519531,-0.331543,-0.03173828,0.05273438
1613,0.9375,13.4375,23.1875,1.16748,0.06689453,0.03662109,-0.3295898,-0.03173828,0.04882813
1617,-7.8125,22.6875,17.8125,1.171387,0.04394531,0.07128906,-0.3305664,-0.02832031,0.04980469
1621,-8.4375,21.4375,14.375,1.117188,0.01269531,0.1098633,-0.328125,-0.02685547,0.04589844
1625,-9.375,12.8125,13.8125,1.097656,-0.006347656,0.1367188,-0.3295898,-0.02685547,0.04443359
1629,-13.25,4.25,11.375,1.09375,-0.006347656,0.1479492,-0.331543,-0.02587891,0.04443359
1633,-22.6875,-9.5625,2.625,1.097656,-0.01806641,0.1479492,-0.3330078,-0.0234375,0.04296875
1637,-26,-20.3125,-7,1.155762,-0.07617188,0.1479492,-0.3305664,-0.02441406,0.04589844
1641,-18.3125,-19.5625,-9.9375,1.22168,-0.1269531,0.1518555,-0.3295898,-0.02587891,0.04589844
1645,-7.75,-11.1875,-9.5625,1.237305,-0.07226563,0.1210938,-0.3295898,-0.02929688,0.04736328
1649,-3.6875,-5.9375,-6.4375,1.217773,0.01660156,0.05957031,-0.3295898,-0.02832031,0.05126953
1653,-4.8125,-5.625,0.125,1.217773,0.09033203,0.05957031,-0.3305664,-0.02685547,0.04980469
1657,-7.75,-6.5625,5.625,1.217773,0.07861328,0.04785156,-0.3305664,-0.02685547,0.04980469
1661,-12.25,-10.5625,5.375,1.209961,0.09423828,0.02490234,-0.3305664,-0.02929688,0.05126953
1665,-20.375,-16.75,3.875,1.225586,0.03222656,0.005859375,-0.328125,-0.02929688,0.05419922
1669,-20.5625,-18.8125,4.3125,1.217773,-0.03759766,0.02880859,-0.3295898,-0.02929688,0.05273438
1673,-21.0625,-22.0625,4.9375,1.237305,-0.05664063,-0.01660156,-0.328125,-0.02929688,0.05419922
1677,-17.4375,-17.75,-1,1.333984,-0.06835938,-0.05126953,-0.3271484,-0.02929688,0.06103516
1681,-7.75,-4.125,-5.625,1.341797,-0.05664063,-0.04736328,-0.3271484,-0.02832031,0.05957031
1685,5.25,11.0625,3.5625,1.229492,-0.03369141,-0.04736328,-0.3271484,-0.02929688,0.06103516
1689,11.5625,12.4375,14.6875,1.147949,0.03222656,-0.05908203,-0.3271484,-0.02832031,0.05810547
1693,4.4375,8.6875,22,1.179199,0.03222656,-0.07470703,-0.328125,-0.02587891,0.05810547
1697,-7.5,6.125,20.875,1.252441,-0.01025391,-0.09765625,-0.3271484,-0.02441406,0.05810547
1702,-17.875,3.25,7.6875,1.287598,-0.08007813,-0.08203125,-0.3271484,-0.0234375,0.05664063
1706,-14.5,-0.1875,-10.875,1.299316,-0.1420898,-0.01660156,-0.328125,-0.02441406,0.05664063
1710,6,-1,-10.3125,1.252441,-0.2202148,0.04443359,-0.3271484,-0.02441406,0.05517578
1714,29.75,1,3.4375,1.330078,-0.1577148,0.04443359,-0.3295898,-0.02441406,0.05517578
1718,42.3125,6.5625,14.75,1.39209,-0.08007813,0.03271484,-0.3305664,-0.0234375,0.05517578
1722,44.875,8.875,21,1.407715,-0.002441406,0.001953125,-0.3295898,-0.0234375,0.05517578
1726,35.6875,2.5,21.4375,1.349609,0.04736328,-0.02441406,-0.3295898,-0.01806641,0.05517578
1730,10.4375,-16.3125,11.875,1.291504,0.1098633,-0.02441406,-0.328125,-0.01464844,0.05517578
1734,-17.375,-45.1875,-8.0625,1.314453,0.02441406,-0.05126953,-0.328125,-0.01708984,0.05810547
1738,-29.375,-63.1875,-27.125,1.411621,-0.1113281,-0.05908203,-0.3256836,-0.015625,0.06103516
1742,-19.75,-67.3125,-34.375,1.500488,-0.2275391,-0.07861328,-0.3222656,-0.02050781,0.06640625
1746,4.875,-56.0625,-27.9375,1.589844,-0.2431641,-0.07080078,-0.3232422,-0.0234375,0.07324219
1750,26.625,-36.3125,-13.8125,1.601563,-0.1616211,-0.112793,-0.3232422,-0.0234375,0.07861328
1754,34.125,-21.1875,-3.875,1.546875,-0.07226563,-0.1166992,-0.3222656,-0.02587891,0.07861328
1758,29.0625,-17.75,-9.5625,1.42334,-0.006347656,-0.112793,-0.3208008,-0.02587891,0.08105469
1762,16.375,-32.625,-33.875,1.241211,0.04003906,-0.08203125,-0.3198242,-0.02685547,0.08251953
1766,11.75,-56.9375,-55,1.225586,-0.02978516,-0.05517578,-0.3188477,-0.03076172,0.08691406
1770,18.625,-67.125,-60.25,1.314453,-0.002441406,-0.03222656,-0.3188477,-0.03466797,0.09228516
1774,22.3125,-69.25,-55.75,1.364746,0.08251953,-0.08203125,-0.3164063,-0.03955078,0.09912109
1778,20.875,-67,-49.625,1.415527,0.1484375,-0.1401367,-0.3149414,-0.04296875,0.105957
1782,16.1875,-58.125,-42.3125,1.446289,0.2109375,-0.2016602,-0.3125,-0.04589844,0.1083984
1786,1.625,-43.1875,-38.375,1.399902,0.2299805,-0.2822266,-0.3115234,-0.04931641,0.1123047
1790,-13.25,-36.8125,-46.5625,1.287598,0.2070313,-0.3012695,-0.309082,-0.05175781,0.1152344
1794,-23.875,-36.375,-59.5,1.16748,0.1601563,-0.2363281,-0.3081055,-0.05712891,0.1206055
1798,-22.5625,-33.1875,-60.4375,1.105469,0.03613281,-0.1743164,-0.3066406,-0.06445313,0.1235352
1802,-10.8125,-27.75,-60.875,1.035645,0.004882813,-0.1474609,-0.3041992,-0.07177734,0.125
1806,6.25,-21.875,-58.625,1.027832,0.01660156,-0.1206055,-0.3041992,-0.07421875,0.1274414
1810,19.6875,-10.3125,-43.1875,0.9389648,0.08642578,-0.1513672,-0.3032227,-0.08056641,0.1303711
1814,16.6875,0.75,-31.5625,0.8613281,0.2573242,-0.2475586,-0.3032227,-0.08300781,0.1303711
1818,-18.625,6.9375,-37.875,0.7216797,0.4516602,-0.2783203,-0.3017578,-0.08544922,0.1259766
1822,-59.8125,4.5,-48.875,0.6328125,0.284668,-0.2900391,-0.3032227,-0.09082031,0.1289063
1826,-64.1875,5.1875,-48.6875,0.578125,-0.04882813,-0.2055664,-0.3007813,-0.09814453,0.125
1831,-33.625,16.0625,-44.0625,0.609375,-0.2275391,-0.112793,-0.3007813,-0.1044922,0.1274414
1835,8.0625,37.9375,-40.625,0.6054688,-0.1928711,-0.112793,-0.3017578,-0.1083984,0.1220703
1839,29.3125,62.3125,-32.4375,0.5976563,0.06298828,-0.1323242,-0.3032227,-0.109375,0.1181641
1843,11.375,79.9375,-31.0625,0.4580078,0.3466797,-0.2016602,-0.3056641,-0.1132813,0.1137695
1847,-27.3125,68.8125,-35.625,0.2255859,0.3740234,-0.2670898,-0.3081055,-0.1166992,0.1069336
1851,-49.4375,40.625,-37,0.3032227,0.2495117,-0.2285156,-0.309082,-0.1206055,0.1000977
1855,-48.6875,50.5625,-22.0625,0.5395508,0.06689453,-0.02441406,-0.309082,-0.1245117,0.1000977
1859,-28.875,71.6875,-7.5625,0.4931641,-0.06445313,-0.01318359,-0.3125,-0.1279297,0.09228516
1863,-1.75,66.8125,-2.25,0.4736328,-0.01806641,-0.07470703,-0.3139648,-0.1279297,0.08398438
1867,2.625,55,-3.0625,0.578125,0.237793,-0.1591797,-0.3125,-0.1293945,0.07861328
1871,-29.375,39.125,-10.625,0.625,0.5019531,-0.2553711,-0.3149414,-0.1308594,0.07421875
1875,-70.125,19.4375,-12.125,0.7373047,0.4985352,-0.2744141,-0.3164063,-0.1318359,0.0703125
1879,-94.3125,20.6875,-0.875,0.8803711,0.3081055,-0.1323242,-0.3164063,-0.1333008,0.06884766
1883,-86.1875,36.875,8.9375,0.8959961,0.04736328,0.07910156,-0.3173828,-0.1357422,0.06201172
1887,-55.8125,49.6875,14.875,0.7138672,-0.1420898,0.2905273,-0.3173828,-0.1381836,0.05664063
1891,-18.625,41.125,11.1875,0.5708008,-0.1499023,0.390625,-0.3188477,-0.1381836,0.05419922
1895,12.625,23.125,-1.125,0.543457,-0.01416016,0.3520508,-0.3198242,-0.1357422,0.04882813
1899,33.3125,8.75,-7.0625,0.609375,0.1796875,0.1748047,-0.3208008,-0.1357422,0.04882813
1903,36.3125,5.125,-1.375,0.7255859,0.4052734,0.02099609,-0.3198242,-0.1367188,0.04736328
1907,21.75,7.5,15.25,0.7490234,0.5058594,-0.001464844,-0.3198242,-0.1342773,0.04736328
1911,9.1875,4.6875,29.3125,0.6557617,0.3779297,-0.001464844,-0.3208008,-0.1318359,0.04882813
1915,8.5,-4,38.875,0.644043,0.2768555,0.03271484,-0.3232422,-0.1308594,0.04736328
1919,5.6875,-15.6875,38.875,0.6713867,0.2573242,-0.009277344,-0.3208008,-0.1279297,0.05126953
1923,-3.4375,-27.5625,34.875,0.7797852,0.2265625,-0.04394531,-0.3232422,-0.1245117,0.04980469
1927,-8.5625,-26.75,30.1875,0.8691406,0.1367188,-0.009277344,-0.3232422,-0.1196289,0.05419922
1931,-0.875,-17.9375,29.5,0.8652344,0.008789063,0.05957031,-0.3208008,-0.1181641,0.05664063
1935,18,-3.3125,31.8125,0.8535156,-0.05273438,0.1020508,-0.324707,-0.1132813,0.05664063
1939,35.5,10.625,32.0625,0.7758789,-0.05664063,0.1289063,-0.3232422,-0.1142578,0.05810547
1943,52.5625,11.1875,29.8125,0.6171875,-0.07226563,0.144043,-0.324707,-0.1069336,0.05957031
1947,62.4375,-2,28.0625,0.5239258,-0.01806641,0.1098633,-0.3256836,-0.1020508,0.05664063
1951,62.75,-16.9375,22.875,0.5820313,0.06689453,0.04785156,-0.3256836,-0.09960938,0.05957031
1955,48.125,-18.625,16.3125,0.6791992,0.1484375,0.001953125,-0.3256836,-0.09716797,0.06201172
1960,33.6875,-17.25,12.875,0.7373047,0.1333008,-0.04394531,-0.324707,-0.09423828,0.06201172
1964,32.4375,-13.875,23.875,0.8110352,0.07861328,-0.03222656,-0.3256836,-0.09179688,0.06347656
1968,26.125,1.375,42.5,0.8691406,0.105957,-0.08203125,-0.324707,-0.08935547,0.06787109
1972,13.5,7.625,48,0.7993164,0.09423828,-0.1591797,-0.3256836,-0.08203125,0.06640625
1976,-1.5,0,35.125,0.7758789,0.1020508,-0.1899414,-0.3256836,-0.078125,0.06640625
1980,-9.125,-9.375,17.3125,0.7641602,0.07470703,-0.1669922,-0.3256836,-0.07421875,0.06787109
1984,-18.8125,-6.625,-0.8125,0.8417969,0.1484375,-0.1166992,-0.3256836,-0.07421875,0.06787109
1988,-18.4375,0.4375,-4.875,0.7758789,0.05908203,-0.04003906,-0.328125,-0.07568359,0.06787109
1992,-2.375,9.4375,14.1875,0.7529297,0.01269531,0.02099609,-0.3256836,-0.07714844,0.06787109
1996,15.375,13.1875,34.75,0.7641602,0.03613281,-0.02832031,-0.3271484,-0.07177734,0.06640625
2000,26.375,20.25,37.625,0.8417969,0.09814453,-0.07080078,-0.3271484,-0.07080078,0.06494141
2004,37.3125,19.5625,20.875,0.7875977,0.1293945,-0.07861328,-0.328125,-0.06689453,0.06201172
2008,51.8125,15.875,11.9375,0.7797852,0.1757813,-0.08203125,-0.3295898,-0.06298828,0.06347656
2012,51.625,19,17.375,0.8613281,0.3896484,-0.08984375,-0.328125,-0.06201172,0.06103516
2016,30.375,23.3125,37.4375,0.8535156,0.4360352,-0.109375,-0.3271484,-0.05957031,0.05957031
2020,3.1875,30,53.6875,0.9077148,0.3779297,-0.109375,-0.3305664,-0.05322266,0.05517578
2024,-15.875,34.75,50.75,0.9462891,0.2495117,-0.08984375,-0.3305664,-0.04931641,0.05273438
2028,-21.0625,34.9375,38.875,0.9736328,0.121582,-0.02441406,-0.3305664,-0.04296875,0.05126953
2032,-18.3125,34.125,40.6875,0.9970703,-0.02587891,0.09033203,-0.3305664,-0.04052734,0.04736328
2036,-11.3125,32.5625,44.125,1.066406,-0.1230469,0.1132813,-0.331543,-0.03710938,0.04443359
2040,-7.875,34.3125,31.75,1.202148,-0.1230469,0.1713867,-0.331543,-0.03466797,0.04296875
2044,0,34.3125,8,1.209961,-0.09179688,0.2060547,-0.331543,-0.03173828,0.03759766
2048,15.375,31.625,7.625,1.225586,-0.09960938,0.2558594,-0.3339844,-0.03173828,0.03613281
2052,20.8125,40.1875,26.0625,1.299316,0.02441406,0.2675781,-0.3330078,-0.03076172,0.03222656
2056,1.5,45.375,34.5625,1.26416,0.121582,0.2597656,-0.3330078,-0.02832031,0.02832031
2060,-22.9375,29.4375,23.0625,1.194336,0.01269531,0.2788086,-0.3330078,-0.02441406,0.02539063
2064,-21.875,13.375,2.5,1.237305,-0.1811523,0.3212891,-0.3330078,-0.0234375,0.02294922
2068,-2.8125,9.5625,-6.75,1.29541,-0.2470703,0.3330078,-0.331543,-0.02587891,0.02148438
2072,15.625,13.5,-5.6875,1.330078,-0.1113281,0.2905273,-0.3339844,-0.02587891,0.02148438
2076,16.6875,16.875,3.625,1.345703,0.004882813,0.2329102,-0.3330078,-0.0234375,0.02001953
2080,7.875,21.8125,15.9375,1.306641,0.05126953,0.2060547,-0.3339844,-0.02587891,0.01708984
2084,-2.4375,16.375,16,1.237305,0.02441406,0.1557617,-0.3339844,-0.01953125,0.01611328
2089,-3.4375,6.4375,4.75,1.194336,-0.002441406,0.1479492,-0.3339844,-0.02050781,0.01464844
2093,-1.5,0.9375,-2.125,1.217773,0.008789063,0.1210938,-0.3339844,-0.02050781,0.01464844
2097,-3.625,4.25,0.5,1.283691,0.06689453,0.08251953,-0.3339844,-0.01806641,0.01171875
2101,-11.625,9.625,10.3125,1.310547,0.09423828,0.04785156,-0.3339844,-0.02050781,0.01318359
2105,-14.25,19.9375,23.125,1.341797,0.04003906,0.07519531,-0.3330078,-0.01806641,0.01318359
2109,-9.375,29.5,36.625,1.299316,-0.01025391,0.09423828,-0.3364258,-0.01708984,0.01074219
2113,-11,25.0625,41.6875,1.22168,-0.02978516,0.1171875,-0.3339844,-0.01318359,0.009277344
2117,-17.8125,9.625,29.875,1.26416,-0.08398438,0.1518555,-0.3354492,-0.008300781,0.006347656
2121,-20.625,-4,16.25,1.306641,-0.1499023,0.2211914,-0.3339844,-0.009277344,0.009277344
2125,-20.3125,-16.125,9.1875,1.349609,-0.1967773,0.2290039,-0.3330078,-0.004394531,0.009277344
2129,-16.8125,-19.6875,6.6875,1.446289,-0.2275391,0.2368164,-0.3330078,-0.006835938,0.01074219
2133,-8.5,-16.4375,7.1875,1.492676,-0.2666016,0.2480469,-0.3330078,-0.004394531,0.01171875
2137,9,-8.6875,9.1875,1.512207,-0.2587891,0.2368164,-0.3330078,-0.004394531,0.01318359
2141,24.875,-4.5,7.1875,1.426758,-0.2822266,0.2368164,-0.3330078,-0.003417969,0.01611328
2145,37,-11.875,-5.8125,1.337891,-0.2124023,0.2480469,-0.3330078,-0.003417969,0.01318359
2149,33.875,-26.6875,-19,1.260254,-0.03759766,0.2329102,-0.3330078,-0.003417969,0.01611328
2153,18.5625,-45.625,-25.375,1.241211,0.09814453,0.1865234,-0.3330078,-0.005859375,0.01855469
2157,-0.8125,-63.5,-25.5,1.310547,0.140625,0.1635742,-0.3305664,-0.006835938,0.02001953
2161,-11.75,-72.1875,-14.9375,1.399902,-0.002441406,0.125,-0.3305664,-0.01074219,0.02685547
2165,-7.1875,-74.375,-13.1875,1.46582,-0.08789063,0.02490234,-0.3305664,-0.01171875,0.03369141
2169,-2.1875,-75.25,-22.3125,1.52002,-0.1269531,-0.03222656,-0.331543,-0.01171875,0.0390625
2173,5.25,-74.875,-36,1.585938,-0.1230469,-0.05908203,-0.3295898,-0.015625,0.04882813
2177,17.4375,-62.8125,-41.5,1.616699,-0.1459961,-0.03613281,-0.3295898,-0.01806641,0.05517578
2181,32.6875,-42.8125,-36.125,1.585938,-0.09960938,-0.01318359,-0.3256836,-0.02197266,0.05810547
2185,37.8125,-27,-32.625,1.442383,-0.002441406,0.009765625,-0.328125,-0.0234375,0.06201172
2189,28.0625,-29,-38.9375,1.271973,0.1176758,0.01708984,-0.328125,-0.02441406,0.06347656
2193,7.0625,-52.0625,-55,1.151855,0.1523438,0.03662109,-0.3256836,-0.02929688,0.06884766
2197,-7.5,-76.8125,-70.875,1.19043,0.1254883,0.03662109,-0.3271484,-0.03466797,0.07421875
2201,-16.8125,-88.25,-84.5625,1.256348,0.1484375,0.05566406,-0.3222656,-0.04296875,0.08105469
2205,-25.625,-90.9375,-89.3125,1.306641,0.2265625,0.02099609,-0.3208008,-0.04931641,0.08544922
2209,-29.125,-79.375,-78.8125,1.326172,0.1796875,-0.02832031,-0.3173828,-0.05810547,0.09472656
2213,-25.375,-55.1875,-62.1875,1.299316,0.1796875,-0.08203125,-0.3149414,-0.06591797,0.1030273
2218,-28.75,-32.3125,-52,1.144043,0.1523438,-0.0859375,-0.3139648,-0.07080078,0.105957
2222,-30.75,-26.9375,-60.8125,0.8769531,0.1445313,-0.09375,-0.3125,-0.078125,0.1069336
2226,-37.4375,-37.5,-71.75,0.7451172,0.1757813,-0.1362305,-0.3105469,-0.08544922,0.1113281
2230,-48.25,-40.375,-67.375,0.8032227,0.1640625,-0.128418,-0.3105469,-0.09179688,0.1113281
2234,-45.75,-27.875,-60.8125,0.8457031,0.05908203,-0.08984375,-0.3066406,-0.1005859,0.1166992
2238,-33.8125,-1.3125,-44.875,0.8149414,0.004882813,-0.03613281,-0.3066406,-0.1069336,0.1152344
2242,-21.9375,25.375,-32.1875,0.6791992,-0.02587891,-0.01318359,-0.3056641,-0.1118164,0.1137695
2246,-6.5625,33.9375,-35.5625,0.4853516,-0.09570313,0.009765625,-0.3056641,-0.1157227,0.1113281
2250,16.75,30.4375,-42.0625,0.4038086,-0.1459961,-0.04003906,-0.3066406,-0.1196289,0.1069336
2254,32.4375,28.0625,-41.125,0.527832,0.06298828,-0.1054688,-0.3066406,-0.1220703,0.1069336
2258,28,38,-29.9375,0.6210938,0.1914063,-0.1054688,-0.3066406,-0.1230469,0.105957
2262,16.875,57.75,-23.3125,0.6328125,0.2573242,-0.03613281,-0.3081055,-0.1254883,0.1015625
2266,-1.375,69.0625,-30.125,0.4272461,0.3041992,-0.04003906,-0.3081055,-0.1279297,0.09619141
2270,-16.375,64.5,-35.375,0.1831055,0.2573242,0.02099609,-0.309082,-0.1308594,0.08935547
2274,-28.375,44.6875,-27.125,0.1015625,0.2495117,0.04785156,-0.3115234,-0.1342773,0.08544922
2278,-28,31.875,-16,0.1635742,0.08642578,0.1748047,-0.3105469,-0.1357422,0.08105469
2282,5.75,28.4375,-9.25,0.2255859,-0.1074219,0.1328125,-0.3125,-0.1396484,0.07568359
2286,49.375,26.3125,-2.3125,0.3071289,0.02050781,-0.1054688,-0.3125,-0.1381836,0.07421875
2290,56.1875,20.25,1.5625,0.3886719,0.4013672,-0.3325195,-0.3125,-0.1381836,0.07421875
2294,30.8125,8.5,6.1875,0.4658203,0.6030273,-0.4667969,-0.3125,-0.1367188,0.07421875
2298,-0.125,0.625,18.4375,0.574707,0.5839844,-0.4516602,-0.3139648,-0.1357422,0.07421875
2302,-19.125,-1.5,27,0.625,0.3818359,-0.3862305,-0.3149414,-0.1333008,0.07421875
2306,-20.875,-5.3125,32,0.6982422,0.2338867,-0.3325195,-0.3139648,-0.1318359,0.07421875
2310,-15.875,-5.4375,30.3125,0.8071289,0.1875,-0.2631836,-0.3149414,-0.1279297,0.07568359
2314,-10.6875,-1.0625,29.9375,0.9116211,0.1875,-0.2553711,-0.3149414,-0.1269531,0.07568359
2318,-10.9375,4.875,31.6875,0.9423828,0.2299805,-0.2475586,-0.3173828,-0.1230469,0.07421875
2322,-16.8125,8.1875,29.5625,0.9541016,0.2338867,-0.2246094,-0.3188477,-0.1206055,0.07421875
2326,-19.6875,13.25,27.375,0.9892578,0.1914063,-0.1401367,-0.3188477,-0.1196289,0.07324219
2330,-13.3125,24,25.625,0.9501953,0.1098633,0.009765625,-0.3188477,-0.1166992,0.0703125
2334,0.0625,28.6875,21.3125,0.8339844,0.07861328,0.09423828,-0.3208008,-0.1142578,0.06884766
2338,19.4375,27.4375,20.8125,0.7797852,0.05908203,0.1635742,-0.3198242,-0.1142578,0.06787109
2342,34.875,26,25.625,0.7294922,0.1293945,0.144043,-0.3222656,-0.109375,0.06347656
2347,37,13.25,30.6875,0.7060547,0.2963867,0.01367188,-0.3232422,-0.1054688,0.06201172
2351,21.875,3.0625,34.1875,0.8071289,0.3857422,-0.01660156,-0.3232422,-0.1044922,0.06201172
2355,5.625,8.625,38.1875,0.8769531,0.3271484,0.02880859,-0.324707,-0.09960938,0.06103516
2359,-0.5,21.875,42.75,0.8691406,0.2070313,0.08251953,-0.324707,-0.09423828,0.06103516
2363,6.375,32,44.8125,0.7602539,0.08251953,0.125,-0.3271484,-0.09179688,0.05957031
2367,22.6875,21.6875,39.5,0.559082,-0.02197266,0.1518555,-0.328125,-0.08544922,0.05810547
2371,36.5625,-1.6875,35.8125,0.5976563,0.04003906,0.105957,-0.3295898,-0.08300781,0.05419922
2375,37.4375,-14.8125,39.375,0.7680664,0.1601563,0.08642578,-0.3295898,-0.07958984,0.05664063
2379,22.8125,-13.25,44.625,0.8881836,0.2416992,0.03271484,-0.3295898,-0.07421875,0.05957031
2383,-0.4375,-2.9375,46.125,0.9077148,0.1914063,0.009765625,-0.328125,-0.06933594,0.05957031
2387,-8.5,6.6875,46.875,0.8999023,0.01660156,-0.001464844,-0.3295898,-0.06591797,0.05810547
2391,4.125,10.3125,49.875,0.8417969,-0.1230469,0.04443359,-0.3295898,-0.06201172,0.06103516
2395,21.25,1.625,46.0625,0.8110352,-0.1230469,0.01367188,-0.3295898,-0.05566406,0.05957031
2399,24,-12.375,39.6875,0.8803711,0.0009765625,-0.01660156,-0.3295898,-0.05322266,0.05810547
2403,8.6875,-14.125,36.9375,0.9619141,0.008789063,-0.02832031,-0.3295898,-0.04833984,0.05810547
2407,0.5625,-8.8125,32,0.9697266,-0.1113281,-0.05517578,-0.3295898,-0.04296875,0.06201172
2411,8.1875,0,21.9375,0.9892578,-0.2124023,-0.05517578,-0.3295898,-0.04052734,0.06103516
2415,26.1875,14.625,12.0625,0.9697266,-0.2084961,-0.001464844,-0.3295898,-0.04052734,0.06103516
2419,40.3125,25.8125,12.0625,0.9038086,-0.1152344,0.02490234,-0.3295898,-0.03955078,0.05957031
2423,40.8125,28.625,14.125,0.8417969,0.008789063,0.06347656,-0.3305664,-0.03564453,0.05810547
2427,36.25,20.625,9.5,0.8261719,0.07080078,0.04052734,-0.3305664,-0.03320313,0.05273438
2431,32.625,11.5,1.9375,0.8574219,0.1333008,0.01367188,-0.331543,-0.03173828,0.05126953
2435,27.5625,13.375,3,0.9389648,0.2109375,0.02099609,-0.3305664,-0.03173828,0.05126953
2439,12.1875,23.5625,21.125,0.9233398,0.2573242,0.04443359,-0.3305664,-0.03173828,0.05126953
2443,-16.5625,22.8125,38.25,0.8730469,0.2573242,0.04785156,-0.331543,-0.02587891,0.04736328
2447,-46.75,11.3125,34.1875,0.9350586,0.1020508,0.1020508,-0.3305664,-0.02441406,0.04589844
2451,-56.625,-2.8125,10.5625,1.012207,-0.08007813,0.1787109,-0.3330078,-0.0234375,0.04589844
2455,-38.8125,-17.875,-21.6875,0.9853516,-0.2275391,0.2368164,-0.3305664,-0.02441406,0.04882813
2459,-7.6875,-29.8125,-30.5625,0.9970703,-0.1733398,0.2402344,-0.3295898,-0.02685547,0.04882813
2463,13,-23.6875,-20.0625,1.101563,-0.06054688,0.1904297,-0.331543,-0.02929688,0.05126953
2467,25.6875,-8.4375,-0.4375,1.182617,0.004882813,0.1943359,-0.3295898,-0.03076172,0.05273438
2471,35.8125,-6.875,10,1.004395,-0.03369141,0.1982422,-0.3295898,-0.02929688,0.05517578
2476,56.8125,-37.5,3.625,0.7451172,-0.2124023,0.2368164,-0.3305664,-0.02685547,0.05419922
2480,92,-82.4375,-12.0625,0.7758789,-0.2666016,0.1328125,-0.3256836,-0.02685547,0.05957031
2484,112.4375,-95.0625,-26.9375,1.209961,-0.01806641,-0.005371094,-0.3271484,-0.02685547,0.06640625
2488,96.375,-54.625,-48.4375,1.589844,0.3271484,-0.128418,-0.324707,-0.02685547,0.07177734
2492,59.75,-8.75,-52.0625,1.578125,0.4555664,-0.2207031,-0.3232422,-0.02929688,0.08007813
2496,30.875,19.875,-33.5625,1.395996,0.3544922,-0.2055664,-0.3232422,-0.03173828,0.07714844
2500,24.5,36.9375,-1.5,1.291504,0.1992188,-0.1474609,-0.324707,-0.03173828,0.07568359
2504,33.8125,49.75,13.375,1.271973,0.1254883,-0.1435547,-0.324707,-0.03173828,0.0703125
2508,43.4375,56.375,15.25,1.163574,0.1176758,-0.1323242,-0.3271484,-0.03076172,0.06347656
2512,36.9375,47.25,14.875,1.097656,0.2338867,-0.1630859,-0.3271484,-0.02685547,0.06201172
2516,4.25,29.5625,6.4375,1.074219,0.3623047,-0.2055664,-0.3295898,-0.0234375,0.05517578
2520,-38.4375,4.125,-8.75,1.043457,0.2885742,-0.2089844,-0.3271484,-0.02587891,0.05419922
2524,-58.3125,-18,-21.625,1.132324,0.09033203,-0.1899414,-0.3271484,-0.02832031,0.05517578
2528,-54.75,-22.8125,-24.75,1.271973,-0.03759766,-0.1708984,-0.3271484,-0.03173828,0.05664063
2532,-41.9375,-13.125,-21.9375,1.395996,-0.03759766,-0.1821289,-0.3271484,-0.03564453,0.06103516
2536,-26.5,9.875,-19.3125,1.484863,-0.04882813,-0.1708984,-0.3256836,-0.03710938,0.06103516
2540,-3.125,38.8125,-9.9375,1.415527,-0.06054688,-0.1054688,-0.3271484,-0.03955078,0.05810547
2544,24.375,53.4375,-0.4375,1.233398,-0.03369141,-0.08203125,-0.3271484,-0.03808594,0.05273438
2548,36.8125,46.9375,1.1875,1.105469,0.140625,-0.07470703,-0.3305664,-0.03955078,0.04882813
2552,23.625,31.3125,-2.1875,1.121094,0.3081055,-0.06689453,-0.3295898,-0.03955078,0.04443359
2556,-1,16.8125,-3.4375,1.198242,0.3583984,-0.03222656,-0.3295898,-0.03710938,0.04443359
2560,-18,6.5625,-1.625,1.260254,0.2651367,0.02099609,-0.331543,-0.03808594,0.04052734
2564,-24.5625,-1.5625,4.1875,1.349609,0.1992188,0.07128906,-0.331543,-0.04052734,0.04296875
2568,-23.875,-1.3125,13.5,1.48877,0.1254883,0.144043,-0.331543,-0.03955078,0.04052734
2572,-17.5625,-2.1875,20.0625,1.469727,0.04736328,0.1826172,-0.3305664,-0.03808594,0.04199219
2576,-11.4375,-14.5,15.6875,1.461914,0.03613281,0.1943359,-0.3305664,-0.03564453,0.04443359
2580,-6.6875,-33.125,6.9375,1.469727,0.04003906,0.1865234,-0.3295898,-0.03710938,0.04443359
2584,-8.1875,-59.5,-2.8125,1.484863,0.1254883,0.03662109,-0.3305664,-0.03564453,0.04980469
2588,-16.1875,-74.9375,-11.5,1.666992,0.1757813,0.001953125,-0.328125,-0.03466797,0.05419922
2592,-17,-74,-15.625,1.768066,0.1484375,-0.01660156,-0.328125,-0.03710938,0.06103516
2596,-2.6875,-66.5625,-7,1.740723,0.05126953,0.001953125,-0.324707,-0.03808594,0.0703125
2600,7,-65.8125,-2.5625,1.702148,0.1293945,-0.05517578,-0.324707,-0.03710938,0.07324219
2605,8.4375,-71.625,-15.25,1.651855,0.15625,-0.07861328,-0.3232422,-0.03955078,0.07861328
2609,8.9375,-77.4375,-28.75,1.5625,0.1992188,-0.1206055,-0.3208008,-0.04052734,0.08544922
2613,8.25,-81.6875,-41.75,1.516113,0.2573242,-0.112793,-0.3164063,-0.04296875,0.09326172
2617,9.4375,-81.625,-45.1875,1.42334,0.3427734,-0.1782227,-0.3173828,-0.04589844,0.09765625
2621,-5.25,-82.9375,-35.5,1.368652,0.4829102,-0.2436523,-0.3149414,-0.05078125,0.1069336
2625,-28.5625,-81.5,-29.5625,1.403809,0.4790039,-0.3632813,-0.3105469,-0.0546875,0.1137695
2629,-42.375,-71.6875,-31.75,1.504395,0.3466797,-0.2592773,-0.309082,-0.05712891,0.1191406
2633,-37.5,-50.6875,-25,1.438477,0.1992188,-0.2055664,-0.3056641,-0.06201172,0.1259766
2637,-35.5,-32.4375,-19.9375,1.256348,0.171875,-0.2324219,-0.3056641,-0.06445313,0.1313477
2641,-36.25,-27,-29.375,1.109375,0.06298828,-0.2939453,-0.3017578,-0.06933594,0.1313477
2645,-28.125,-15.5,-36.75,1.004395,-0.06054688,-0.2705078,-0.3017578,-0.07324219,0.1357422
2649,-6.5625,2.8125,-28.4375,0.8691406,-0.1308594,-0.2592773,-0.3017578,-0.07714844,0.1342773
2653,8.125,23.25,-19.9375,0.7099609,-0.01416016,-0.2514648,-0.3007813,-0.078125,0.1313477
2657,5.25,42.9375,-10.625,0.574707,0.008789063,-0.2475586,-0.3017578,-0.08203125,0.1313477
2661,-9.625,60.3125,-25.3125,0.4541016,0.171875,-0.3051758,-0.3032227,-0.08203125,0.1274414
2665,-39.25,72.125,-48.8125,0.2915039,0.1640625,-0.2475586,-0.3056641,-0.08447266,0.1220703
2669,-51.6875,82.4375,-53.625,0.1171875,-0.01806641,-0.1899414,-0.3081055,-0.09326172,0.1137695
2673,-39.625,87,-43,0.1132813,-0.1230469,-0.1362305,-0.3105469,-0.09814453,0.1044922
2677,-28.625,99.75,-30.625,0.2138672,-0.006347656,-0.04736328,-0.3115234,-0.1020508,0.09619141
2681,-27.25,110.375,-25.5625,0.1713867,0.05517578,-0.02050781,-0.3173828,-0.1054688,0.08789063
2685,-32.5625,104.625,-24.6875,0.06298828,0.1757813,0.04052734,-0.3188477,-0.1108398,0.07714844
2689,-44.25,81.6875,-23.125,-0.06445313,0.1953125,0.1171875,-0.3208008,-0.1118164,0.06884766
2693,-52.5,41.6875,-24.4375,-0.02978516,0.1796875,0.1865234,-0.3222656,-0.1166992,0.06201172
2697,-48.75,14.3125,-17.25,0.159668,0.1020508,0.2211914,-0.3222656,-0.1196289,0.05810547
2701,-29,2.8125,-7.0625,0.3574219,0.04003906,0.1787109,-0.3222656,-0.1230469,0.05664063
2705,1.3125,2.3125,4.8125,0.5161133,0.06689453,0.02880859,-0.3232422,-0.1220703,0.05810547
2709,18.0625,7.0625,14.9375,0.6479492,0.2416992,-0.1206055,-0.3232422,-0.1206055,0.05517578
2713,17.3125,12,17.6875,0.7060547,0.3081055,-0.1630859,-0.3232422,-0.1196289,0.05517578
2717,14.5625,11.9375,21.3125,0.6713867,0.2963867,-0.1743164,-0.3256836,-0.1181641,0.05419922
2721,10.9375,6.25,28.9375,0.7138672,0.315918,-0.2167969,-0.3232422,-0.1142578,0.05419922
2725,3.3125,3.75,33.3125,0.7993164,0.315918,-0.1821289,-0.3232422,-0.1108398,0.05273438
2729,-4.75,4,34.9375,0.8110352,0.2807617,-0.1669922,-0.324707,-0.1118164,0.05273438
2734,-10.75,0.5,38.25,0.8613281,0.2495117,-0.1630859,-0.324707,-0.1044922,0.05419922
2738,-15.75,3.5,37.5625,0.9272461,0.21875,-0.1206055,-0.3256836,-0.1044922,0.05273438
2742,-15.8125,9.4375,36.375,0.9350586,0.15625,-0.04003906,-0.3271484,-0.09814453,0.05126953
2746,-12.4375,13.6875,35.25,0.9155273,0.105957,0.04052734,-0.3271484,-0.09570313,0.04882813
2750,-2.1875,17.1875,31.0625,0.8457031,0.03613281,0.1367188,-0.328125,-0.09179688,0.04882813
2754,13.5,15.125,27.0625,0.7797852,0.04394531,0.1787109,-0.3305664,-0.09082031,0.04882813
2758,25.125,14.1875,31.4375,0.7680664,0.1293945,0.2211914,-0.3305664,-0.08691406,0.04736328
2762,21.6875,11.0625,42.5625,0.7060547,0.2807617,0.1865234,-0.331543,-0.08447266,0.04589844
2766,4.8125,-1.6875,57,0.675293,0.3120117,0.1826172,-0.3305664,-0.07958984,0.04443359
2770,-11.625,-13.25,66.75,0.7099609,0.2456055,0.159668,-0.331543,-0.07324219,0.04589844
2774,-21.75,-18.125,69.125,0.7719727,0.1098633,0.159668,-0.3305664,-0.06835938,0.04736328
2778,-15.8125,-20.8125,63.5625,0.7915039,-0.06835938,0.159668,-0.3295898,-0.06201172,0.04882813
2782,-0.9375,-21.5625,54.3125,0.8457031,-0.1035156,0.1479492,-0.331543,-0.0546875,0.05126953
2786,9.0625,-18.75,45.875,0.8920898,-0.06445313,0.1171875,-0.3305664,-0.05078125,0.05126953
2790,15.5,-16.375,39.75,0.8769531,-0.03369141,0.04052734,-0.331543,-0.04833984,0.05419922
2794,14.0625,-19.8125,38.1875,0.9233398,0.07080078,-0.04394531,-0.3305664,-0.04296875,0.05664063
2798,1.75,-21.8125,34,0.9814453,0.1333008,-0.08984375,-0.3295898,-0.03955078,0.05664063
2802,-11.1875,-17.75,33.3125,0.9970703,0.121582,-0.09375,-0.3305664,-0.03564453,0.05957031
2806,-17.6875,-10,37.0625,0.9116211,0.02832031,-0.05126953,-0.3305664,-0.03320313,0.06201172
2810,-10.375,-12.1875,31.5625,0.7294922,-0.08398438,0.01708984,-0.3305664,-0.03076172,0.06103516
2814,7.125,-25.5625,27.25,0.6171875,-0.1381836,0.08642578,-0.328125,-0.02685547,0.06201172
2818,29.8125,-40.875,27.6875,0.6289063,-0.1655273,0.1328125,-0.3256836,-0.02441406,0.06787109
2822,44.25,-46.8125,29.375,0.7875977,-0.02197266,0.05957031,-0.3256836,-0.02050781,0.07324219
2826,29.875,-41.8125,34.875,0.8769531,0.121582,-0.04003906,-0.3256836,-0.015625,0.07324219
2830,2.4375,-43.1875,34.0625,0.9077148,0.07470703,-0.1245117,-0.3222656,-0.01464844,0.07861328
2834,-14.3125,-40.125,28.0625,0.9580078,-0.1035156,-0.1166992,-0.3208008,-0.009277344,0.08398438
2838,-8.5,-26.6875,18.375,1.004395,-0.2744141,-0.0859375,-0.3198242,-0.009277344,0.08544922
2842,15.5,-6.75,16.1875,1.059082,-0.3520508,-0.05126953,-0.3198242,-0.005859375,0.08691406
2846,46.6875,15.25,27.3125,1.02002,-0.3442383,-0.009277344,-0.3198242,-0.003417969,0.08789063
2850,65.9375,25.5,33.1875,0.9658203,-0.1694336,-0.06689453,-0.3188477,0,0.08251953
2854,62.625,24,33.125,0.9462891,0.03613281,-0.1206055,-0.3208008,0.004882813,0.08398438
2858,36.25,17.375,31,0.9233398,0.2109375,-0.1513672,-0.3208008,0.01123047,0.08007813
2863,-5.5625,-5.625,28.5,0.8339844,0.237793,-0.1552734,-0.3188477,0.01269531,0.07714844
2867,-31.6875,-36.8125,18.0625,0.9272461,0.08251953,-0.0859375,-0.3188477,0.01611328,0.08105469
2871,-32.875,-55.125,17.5,1.031738,-0.08398438,-0.03613281,-0.3173828,0.01513672,0.08251953
2875,-29.0625,-55.5,25.625,1.182617,-0.06054688,-0.08984375,-0.3149414,0.01757813,0.08789063
2879,-39.625,-46.8125,18.5625,1.26416,0.01269531,-0.1552734,-0.3125,0.01757813,0.09326172
2883,-51.875,-43.125,5.8125,1.202148,-0.01416016,-0.1977539,-0.3115234,0.01855469,0.09765625
2887,-57.75,-38.5,-0.375,1.213867,-0.08007813,-0.1938477,-0.309082,0.01611328,0.1030273
2891,-53,-31.0625,-3.625,1.186523,-0.1459961,-0.2128906,-0.309082,0.01513672,0.1069336
2895,-42,-23.0625,1.25,1.186523,-0.2006836,-0.1899414,-0.3081055,0.01025391,0.1083984
2899,-26.4375,-14.6875,4.875,1.16748,-0.2744141,-0.1552734,-0.3066406,0.01025391,0.1123047
2903,-6.1875,-10.875,2.5625,1.151855,-0.3134766,-0.1591797,-0.3066406,0.01123047,0.1166992
2907,11.9375,-4.0625,-5.5,1.202148,-0.2783203,-0.1860352,-0.3056641,0.01025391,0.1152344
2911,22.0625,7,-19.75,1.198242,-0.2275391,-0.2016602,-0.3056641,0.01123047,0.1137695
2915,29.4375,13.625,-26.5625,1.124512,-0.1733398,-0.2397461,-0.3056641,0.008789063,0.1123047
2919,29.4375,18.375,-23.8125,1.179199,-0.06445313,-0.2822266,-0.3041992,0.008789063,0.1113281
2923,17.75,27.125,-18.25,1.209961,0.0009765625,-0.3051758,-0.3066406,0.007324219,0.1083984
2927,7.5625,33.1875,-18.25,1.198242,-0.05664063,-0.2436523,-0.309082,0.008789063,0.105957
2931,10.9375,39.3125,-15.1875,1.202148,-0.1381836,-0.1977539,-0.3105469,0.002441406,0.1030273
2935,15.75,45,-10.125,1.268066,-0.1152344,-0.1821289,-0.3115234,0.002441406,0.09912109
2939,16.875,47.9375,-6.8125,1.279785,-0.1152344,-0.1708984,-0.3125,0.00390625,0.09472656
2943,18.8125,45.125,-6.0625,1.318359,-0.1152344,-0.1401367,-0.3149414,0.002441406,0.09228516
2947,26.25,42.875,-1.5625,1.306641,-0.1538086,-0.08984375,-0.3173828,0.00390625,0.08544922
2951,32.0625,36.5625,0.9375,1.330078,-0.08398438,-0.1054688,-0.3188477,0.006347656,0.08398438
2955,26.875,28.5,1.5625,1.415527,-0.006347656,-0.1166992,-0.3188477,0.006347656,0.08007813
2959,15.625,22,2.9375,1.458008,0.01269531,-0.1054688,-0.3198242,0.006347656,0.07714844
2963,5.625,14.8125,3,1.438477,-0.04150391,-0.07470703,-0.3188477,0.007324219,0.07568359
2967,7.5,9.5,2.8125,1.403809,-0.1230469,-0.02441406,-0.3188477,0.007324219,0.07421875
2971,16.375,6.625,4.25,1.361328,-0.1616211,0.01367188,-0.3198242,0.007324219,0.07421875
2975,27.0625,2.875,3.125,1.326172,-0.1577148,0.03271484,-0.3208008,0.01025391,0.07421875
2979,34,0.9375,3.0625,1.268066,-0.1074219,0.02490234,-0.3198242,0.01123047,0.07324219
2983,35.1875,-1,3.6875,1.233398,-0.04541016,0.005859375,-0.3222656,0.01123047,0.0703125
2987,27.1875,-2.75,6,1.217773,0.02832031,0.001953125,-0.3188477,0.01269531,0.07177734
2992,17.9375,-5.0625,8.25,1.241211,-0.06445313,0.03662109,-0.3208008,0.01269531,0.07177734
2996,15.1875,-7.875,6.6875,1.233398,-0.1191406,0.04443359,-0.3188477,0.01513672,0.07177734
3000,2.5625,-22.8125,-1.375,1.121094,-0.06445313,0.001953125,-0.3188477,0.01611328,0.07324219
3004,-22.75,-56.125,-20.125,1.109375,0.02832031,-0.09765625,-0.3198242,0.01367188,0.07568359
3008,-47.1875,-86.6875,-35.5625,1.326172,0.004882813,-0.1323242,-0.3173828,0.01025391,0.08251953
3012,-53.3125,-95.3125,-34.4375,1.601563,-0.1308594,-0.1513672,-0.3164063,0.004882813,0.09228516
3016,-49.1875,-84.8125,-22.6875,1.791016,-0.2006836,-0.2055664,-0.3149414,0.002441406,0.09765625
3020,-43,-71.6875,-24.0625,1.918945,-0.2705078,-0.2553711,-0.3105469,0,0.1083984
3024,-24.625,-53.0625,-36,1.926758,-0.3598633,-0.2592773,-0.3105469,-0.005859375,0.1113281
3028,0.8125,-44.8125,-53.6875,1.713867,-0.2900391,-0.2089844,-0.309082,-0.008300781,0.1166992
3032,12.25,-60.3125,-71.8125,1.550781,-0.06445313,-0.2900391,-0.3066406,-0.01171875,0.1220703
3036,11.3125,-72.9375,-85.3125,1.601563,0.1293945,-0.2670898,-0.3066406,-0.01953125,0.1274414
3040,-0.5,-68.25,-83.125,1.546875,0.3081055,-0.2900391,-0.3032227,-0.02587891,0.1313477
3044,-24.875,-66.375,-72.875,1.442383,0.4438477,-0.3632813,-0.3007813,-0.03466797,0.137207
3048,-59.875,-68.625,-65.75,1.43457,0.5253906,-0.5244141,-0.2973633,-0.04052734,0.1425781
3052,-85.8125,-59.3125,-61.6875,1.415527,0.3544922,-0.4477539,-0.2949219,-0.04931641,0.1479492
3056,-72.375,-40.25,-54.1875,1.016113,-0.1733398,-0.2363281,-0.2924805,-0.05810547,0.1518555
3060,-7.125,-35.9375,-57.625,0.7875977,-0.4257813,-0.2089844,-0.2875977,-0.06591797,0.1533203
3064,37.5625,-22.3125,-85.25,0.7954102,-0.08398438,-0.2436523,-0.2890625,-0.07080078,0.1572266
3068,36.8125,1.625,-109,0.6518555,0.3081055,-0.3286133,-0.2866211,-0.07714844,0.1586914
3072,4.125,19.4375,-102.5,0.4775391,0.5371094,-0.3398438,-0.2875977,-0.08544922,0.1586914
3076,-34.875,40.3125,-70.8125,0.3071289,0.4750977,-0.2553711,-0.2875977,-0.09179688,0.15625
3080,-50.5,49.8125,-43.3125,0.140625,0.284668,-0.1708984,-0.2890625,-0.1020508,0.1518555
3084,-50.6875,39.5,-29.75,0.08642578,0.1992188,-0.1860352,-0.2900391,-0.1054688,0.1450195
3088,-48.875,36.1875,-24.0625,0.2451172,0.1484375,-0.1860352,-0.2924805,-0.109375,0.1450195
3092,-50.9375,53,-22.8125,0.4350586,0.2299805,-0.1821289,-0.2924805,-0.1142578,0.1381836
3096,-62.1875,74,-18.125,0.3808594,0.2265625,-0.1245117,-0.2958984,-0.1181641,0.1342773
3100,-65.6875,83.625,-4.1875,0.2026367,0.04394531,0.02099609,-0.2973633,-0.1220703,0.1259766
3104,-43.6875,71.375,5.4375,0.1015625,-0.1191406,0.08251953,-0.2998047,-0.1254883,0.1181641
3108,-27.25,53.9375,7.5625,0.2104492,0.06689453,0.105957,-0.3032227,-0.1269531,0.1098633
3112,-37.5,36.25,-0.125,0.3305664,0.2729492,-0.001464844,-0.3056641,-0.1254883,0.1069336
3116,-57.5,18.125,-13.125,0.3959961,0.2924805,-0.1015625,-0.3041992,-0.1279297,0.1044922
3121,-46.75,12.9375,-16.5625,0.5629883,0.004882813,-0.05126953,-0.3066406,-0.1318359,0.1000977
3125,-3.5625,27.4375,-6.5,0.6171875,-0.04150391,-0.09765625,-0.3081055,-0.1342773,0.09912109
3129,24.0625,35.125,8.0625,0.5708008,0.1523438,-0.2167969,-0.3066406,-0.1333008,0.09619141
3133,22.6875,30.875,18.1875,0.5820313,0.3271484,-0.324707,-0.3081055,-0.1308594,0.09326172
3137,2.0625,21.4375,19.375,0.6132813,0.4086914,-0.3398438,-0.3105469,-0.1318359,0.09082031
3141,-19.1875,11.75,20.25,0.6518555,0.3271484,-0.2089844,-0.3105469,-0.1279297,0.09082031
3145,-20.5,2.125,25.375,0.6289063,0.1601563,-0.128418,-0.3105469,-0.1245117,0.08789063
3149,-9.375,-5.625,30.8125,0.6948242,0.09033203,-0.08203125,-0.3115234,-0.1245117,0.08935547
3153,2.9375,-5.25,32,0.7641602,0.09814453,-0.05517578,-0.3125,-0.1245117,0.08935547
3157,12.4375,-3.1875,31.625,0.7719727,0.1098633,-0.05126953,-0.3139648,-0.1196289,0.08935547
3161,19.75,-0.875,31.1875,0.7680664,0.140625,-0.04736328,-0.3164063,-0.1181641,0.08935547
3165,24.6875,1.0625,30.5,0.7568359,0.171875,-0.05126953,-0.3125,-0.1132813,0.08935547
3169,27.6875,3.8125,33.8125,0.7568359,0.1796875,-0.05517578,-0.3149414,-0.109375,0.09082031
3173,24.0625,12.125,35.8125,0.7294922,0.2299805,-0.07861328,-0.3139648,-0.1054688,0.08935547
3177,21.625,14.9375,39.5,0.6713867,0.1445313,-0.04003906,-0.3173828,-0.1020508,0.09082031
3181,28.125,11.3125,39.6875,0.6015625,0.09033203,-0.005371094,-0.3188477,-0.09716797,0.08935547
3185,34.875,-3.5,36.5,0.5473633,0.05126953,-0.04736328,-0.3188477,-0.09326172,0.08935547
3189,34.4375,-16.25,25.6875,0.675293,0.15625,-0.1245117,-0.3188477,-0.08691406,0.09082031
3193,15.1875,-21.8125,15.4375,0.7138672,0.2299805,-0.1938477,-0.3173828,-0.08544922,0.09326172
3197,5.4375,-27.6875,14.1875,0.7568359,0.1679688,-0.1860352,-0.3173828,-0.08544922,0.09326172
3201,5.9375,-19.1875,23.0625,0.8496094,0.09033203,-0.1206055,-0.3164063,-0.08056641,0.09619141
3205,16.75,5.125,34.4375,0.8535156,-0.01025391,-0.07470703,-0.3173828,-0.07714844,0.09765625
3209,39.1875,22.5,41.0625,0.7060547,-0.07226563,-0.03613281,-0.3173828,-0.07421875,0.09765625
3213,58.9375,21.25,40,0.5898438,-0.02587891,-0.04394531,-0.3188477,-0.06933594,0.09326172
3217,61,11.125,39.6875,0.5356445,0.08642578,-0.03613281,-0.3198242,-0.06298828,0.09472656
3221,46.3125,-3.125,41.8125,0.5820313,0.2109375,-0.09765625,-0.3188477,-0.05957031,0.09765625
3225,16.875,-20.8125,34.375,0.6982422,0.3349609,-0.1938477,-0.3188477,-0.05322266,0.09619141
3229,-22.5,-30.9375,29.3125,0.8378906,0.3193359,-0.2744141,-0.3198242,-0.05078125,0.09619141
3233,-47.5625,-35.1875,23.9375,0.9389648,0.1367188,-0.2939453,-0.3173828,-0.04833984,0.1000977
3237,-45.5,-30.125,23.75,1.047363,-0.04150391,-0.2475586,-0.3164063,-0.05078125,0.1030273
3241,-26.75,-15.3125,34.1875,1.144043,-0.1655273,-0.1782227,-0.3125,-0.046875,0.1030273
3245,-2.4375,6.3125,43.5625,1.217773,-0.1694336,-0.1435547,-0.3139648,-0.046875,0.105957
3250,8.1875,20.5625,37,1.186523,-0.03759766,-0.1899414,-0.3139648,-0.03955078,0.1044922
3254,8.1875,17.9375,22.625,1.109375,0.03222656,-0.2089844,-0.3149414,-0.03710938,0.1030273
3258,5.375,13.875,18.4375,1.117188,0.06689453,-0.1977539,-0.3164063,-0.03564453,0.1015625
3262,-3.3125,17.75,31.9375,1.198242,0.09814453,-0.1435547,-0.3164063,-0.03564453,0.1015625
3266,-19.125,21.0625,41.3125,1.283691,0.08642578,-0.1435547,-0.3173828,-0.02929688,0.09912109
3270,-26.1875,22.6875,32.875,1.337891,0.008789063,-0.0859375,-0.3188477,-0.02929688,0.09765625
3274,-18.8125,23.8125,21.0625,1.306641,-0.09570313,-0.01660156,-0.3173828,-0.02685547,0.09472656
3278,3.75,25.8125,20.5,1.260254,-0.1420898,0.01367188,-0.3188477,-0.02685547,0.09326172
3282,18.25,27.625,27.75,1.248535,-0.04882813,-0.009277344,-0.3173828,-0.02441406,0.09082031
3286,7.375,25.1875,30.4375,1.252441,0.09033203,-0.001464844,-0.3198242,-0.01953125,0.08789063
3290,-13.8125,16.875,19.875,1.248535,0.08251953,-0.001464844,-0.3198242,-0.01708984,0.08691406
3294,-22,12.4375,5.875,1.217773,-0.07226563,0.06738281,-0.3208008,-0.01708984,0.08544922
3298,-4.4375,13.375,-0.5,1.147949,-0.2163086,0.105957,-0.3208008,-0.01708984,0.08398438
3302,17.5,18.125,3.75,1.105469,-0.1577148,0.1020508,-0.3208008,-0.01708984,0.08251953
3306,24.75,22.75,11.25,1.085938,-0.08398438,0.02099609,-0.3208008,-0.015625,0.08105469
3310,17,26.875,10.6875,1.09375,-0.01025391,-0.01318359,-0.3208008,-0.01171875,0.07861328
3314,6.25,25.75,-3.8125,1.039551,-0.002441406,-0.03613281,-0.3222656,-0.01171875,0.07568359
3318,5.75,21.4375,-15.5625,0.9970703,-0.04150391,-0.01318359,-0.3232422,-0.01171875,0.07421875
3322,11.625,21.375,-17.6875,0.9853516,-0.02587891,-0.01318359,-0.324707,-0.01464844,0.07177734
3326,18.375,23.125,-11.9375,1.000488,0.02050781,-0.03222656,-0.324707,-0.01464844,0.0703125
3330,13.125,26,-0.3125,1.02002,0.09814453,-0.07080078,-0.3271484,-0.01708984,0.06640625
3334,-1.75,25.1875,2.8125,1.043457,0.140625,-0.1054688,-0.3271484,-0.015625,0.06347656
3338,-22.625,19.3125,-4.5625,1.043457,0.140625,-0.1323242,-0.3271484,-0.015625,0.06201172
3342,-37.0625,13.75,-11.0625,1.117188,0.02050781,-0.128418,-0.3256836,-0.01708984,0.06347656
3346,-34,18.25,-12.5625,1.206055,-0.09179688,-0.0859375,-0.328125,-0.01806641,0.06103516
3350,-17.5625,30.25,-7.8125,1.241211,-0.1420898,-0.05517578,-0.3295898,-0.02050781,0.05957031
3354,7.625,43.125,1,1.279785,-0.1230469,-0.02050781,-0.3271484,-0.0234375,0.05517578
3358,19.9375,52.8125,11.25,1.244629,0.03613281,-0.03613281,-0.328125,-0.02197266,0.05273438
3362,7.5625,47.5,8.1875,1.233398,0.140625,-0.03613281,-0.328125,-0.01953125,0.04589844
3366,-9.25,37.25,-0.0625,1.256348,0.1098633,0.01708984,-0.328125,-0.01953125,0.04052734
3370,-17.4375,27.8125,-2.125,1.26416,0.03222656,0.1020508,-0.3305664,-0.01953125,0.0390625
3374,-16.5625,21.4375,1.1875,1.318359,-0.03759766,0.1479492,-0.3305664,-0.02050781,0.03759766
3379,-9.25,17.6875,2.5,1.376465,-0.08789063,0.1982422,-0.331543,-0.02050781,0.03613281
3383,4.6875,15.5625,3.6875,1.415527,-0.09960938,0.2290039,-0.3295898,-0.02050781,0.03222656
3387,14.9375,12.625,8.6875,1.415527,-0.06835938,0.2329102,-0.331543,-0.01953125,0.03369141
3391,14.6875,4.8125,5.5625,1.353516,0.008789063,0.2172852,-0.331543,-0.01806641,0.03369141
3395,7.125,-12.375,-3.0625,1.306641,0.01660156,0.2290039,-0.3330078,-0.015625,0.03222656
3399,0.6875,-30.3125,-11.625,1.341797,-0.01025391,0.2290039,-0.3330078,-0.01806641,0.03369141
3403,-4.125,-41.5,-18.4375,1.399902,-0.02978516,0.2402344,-0.3305664,-0.01806641,0.03613281
3407,-3.0625,-52.6875,-24.3125,1.407715,-0.04150391,0.2329102,-0.3305664,-0.02050781,0.04052734
3411,2.3125,-60.4375,-24.5,1.454102,-0.04541016,0.2133789,-0.3295898,-0.02197266,0.04589844
3415,15,-64.1875,-19.6875,1.473633,-0.04541016,0.1171875,-0.3295898,-0.02441406,0.04980469
3419,26.5,-64.25,-16.75,1.504395,0.05517578,0.07519531,-0.328125,-0.02685547,0.05664063
3423,25.6875,-68.5625,-15.75,1.461914,0.2070313,-0.001464844,-0.3271484,-0.02685547,0.06347656
3427,12.625,-83.625,-21.6875,1.426758,0.3271484,0.001953125,-0.3256836,-0.02929688,0.06787109
3431,-4.375,-100.5,-21.0625,1.403809,0.3081055,-0.04736328,-0.3222656,-0.02929688,0.07714844
3435,-22,-114.375,-19.5,1.484863,0.21875,-0.07470703,-0.3188477,-0.03320313,0.08691406
3439,-27,-117.5,-28.375,1.523926,0.04394531,-0.1669922,-0.3149414,-0.03564453,0.09472656
3443,-22.5625,-111.125,-40.25,1.582031,-0.002441406,-0.2246094,-0.3125,-0.03808594,0.1044922
3447,-17.125,-101,-54.625,1.523926,-0.02978516,-0.3168945,-0.309082,-0.04589844,0.1181641
3451,-0.9375,-86.3125,-63.4375,1.535645,-0.07617188,-0.2744141,-0.3066406,-0.04833984,0.1220703
3455,26.5,-59,-61.4375,1.48877,-0.09179688,-0.2553711,-0.3017578,-0.05322266,0.1313477
3459,45.3125,-32.0625,-52.75,1.322266,0.1137695,-0.2861328,-0.2998047,-0.05810547,0.1357422
3463,26.6875,-23.125,-50.375,1.124512,0.4243164,-0.3515625,-0.3007813,-0.05957031,0.137207
3467,-22.8125,-30.875,-55,0.9350586,0.5019531,-0.4091797,-0.2983398,-0.06445313,0.1396484
3471,-59.0625,-43.5,-59.5625,0.8769531,0.203125,-0.2861328,-0.2949219,-0.07324219,0.1425781
3475,-51.8125,-41.375,-55.9375,0.8920898,-0.1381836,-0.2016602,-0.2949219,-0.078125,0.144043
3479,-15,-24.125,-46.3125,0.8959961,-0.2587891,-0.1435547,-0.293457,-0.08447266,0.1464844
3483,27.25,-1.9375,-30.5625,0.8149414,-0.2275391,-0.1899414,-0.2900391,-0.08691406,0.1494141
3487,55.625,20.375,-27.4375,0.7993164,-0.006347656,-0.359375,-0.2924805,-0.08837891,0.1494141
3491,43.75,36.0625,-42.875,0.6948242,0.3701172,-0.4628906,-0.2924805,-0.08935547,0.1479492
3495,2.6875,35.9375,-63.5625,0.5668945,0.4946289,-0.574707,-0.293457,-0.09082031,0.144043
3499,-29.75,39,-68,0.5356445,0.3310547,-0.4169922,-0.293457,-0.09814453,0.1411133
3503,-29.4375,55.4375,-53.625,0.4814453,0.1020508,-0.2553711,-0.2949219,-0.1054688,0.137207
3508,-12.875,65.1875,-42.125,0.4038086,0.04736328,-0.2128906,-0.2958984,-0.1108398,0.1274414
3512,-4.875,76.75,-37.125,0.4350586,0.1601563,-0.1669922,-0.2983398,-0.1132813,0.1303711
3516,-21.8125,82.3125,-37.8125,0.2954102,0.2768555,-0.1206055,-0.3032227,-0.1166992,0.1191406
3520,-48.9375,69.9375,-45.125,0.1210938,0.237793,0.005859375,-0.3032227,-0.1220703,0.1098633
3524,-54.75,42.0625,-55.1875,0.09033203,0.04736328,0.1020508,-0.3056641,-0.1279297,0.1069336
3528,-40.375,25,-52.875,0.2993164,-0.01416016,0.1904297,-0.3041992,-0.1367188,0.1000977
3532,-17.8125,26.125,-35.3125,0.3925781,-0.01806641,0.07128906,-0.3032227,-0.1420898,0.09912109
3536,4.875,33.8125,-21.875,0.5087891,0.08642578,-0.02441406,-0.3056641,-0.1445313,0.09619141
3540,19.625,47.4375,-11.75,0.5473633,0.2070313,-0.1362305,-0.3066406,-0.1455078,0.09082031
3544,28.625,55.75,0.5625,0.4506836,0.3193359,-0.2089844,-0.3056641,-0.1455078,0.08789063
3548,23.375,42.0625,7,0.3339844,0.4672852,-0.2822266,-0.3066406,-0.1445313,0.08398438
3552,3.6875,16.0625,9.1875,0.4038086,0.5952148,-0.3325195,-0.3105469,-0.1420898,0.08251953
3556,-25.875,0.6875,18,0.5161133,0.5761719,-0.2900391,-0.3115234,-0.1420898,0.08398438
3560,-42.25,-9.1875,27.6875,0.5395508,0.4399414,-0.3398438,-0.3105469,-0.1420898,0.08105469
3564,-48.75,-18.5,34.5,0.6791992,0.3701172,-0.3129883,-0.309082,-0.140625,0.08105469
3568,-47.8125,-11.25,40.125,0.8071289,0.253418,-0.2246094,-0.3115234,-0.1367188,0.08251953
3572,-31.5625,0.25,44.625,0.8261719,0.1333008,-0.1552734,-0.3115234,-0.1357422,0.08007813
3576,-14.5,7.25,46.5625,0.8691406,0.1601563,-0.07080078,-0.3125,-0.1318359,0.08007813
3580,-6.125,13.875,45.1875,0.8769531,0.1953125,-0.02441406,-0.3149414,-0.1279297,0.08105469
3584,-1.3125,16.0625,43,0.7993164,0.1835938,0.03271484,-0.3164063,-0.1245117,0.07861328
3588,5.5,11.0625,41,0.7875977,0.2070313,0.02099609,-0.3188477,-0.1206055,0.07714844
3592,9.4375,13.25,40.875,0.8417969,0.2495117,0.02099609,-0.3188477,-0.1142578,0.07568359
3596,16.375,22.3125,44.1875,0.8261719,0.2226563,0.06738281,-0.3198242,-0.1118164,0.07421875
3600,27.6875,27,54.25,0.7954102,0.269043,0.1098633,-0.3208008,-0.1069336,0.07421875
3604,24.9375,23.8125,69.1875,0.7875977,0.3818359,0.1020508,-0.3222656,-0.1005859,0.0703125
3608,2.75,10.625,75.6875,0.7021484,0.3974609,0.1020508,-0.324707,-0.09179688,0.06884766
3612,-21.75,-16.1875,68.75,0.6557617,0.300293,0.04785156,-0.3256836,-0.08544922,0.0703125
3616,-38.5,-40.4375,60.8125,0.7255859,0.1523438,0.04785156,-0.3232422,-0.08056641,0.07177734
3620,-43.5,-47.0625,55.625,0.8339844,0.01660156,0.05175781,-0.324707,-0.078125,0.07324219
3624,-35,-38.1875,54.625,0.9775391,-0.08789063,0.05957031,-0.3232422,-0.07421875,0.07861328
3628,-20.875,-18.5625,55.6875,1.043457,-0.1191406,0.09814453,-0.3208008,-0.06689453,0.08251953
3632,-7,-11.5625,57.375,0.9116211,-0.1538086,0.04052734,-0.3232422,-0.06445313,0.08398438
3637,-2.9375,-16.75,56.8125,0.8496094,-0.1230469,-0.04736328,-0.3222656,-0.06201172,0.08544922
3641,-4.4375,-27.875,42.5,0.8574219,-0.1152344,-0.07861328,-0.3222656,-0.05322266,0.08789063
3645,-4.75,-30.6875,29.1875,0.9272461,-0.1113281,-0.07861328,-0.3222656,-0.05175781,0.08691406
3649,-7.125,-22.9375,22.125,0.9501953,-0.07617188,-0.07080078,-0.3208008,-0.046875,0.09228516
3653,-6.5,-13.625,20.875,0.9077148,-0.1347656,-0.04736328,-0.3198242,-0.046875,0.09228516
3657,6.75,-10.3125,21.6875,0.8417969,-0.1850586,-0.03222656,-0.3208008,-0.046875,0.09472656
3661,29.5625,-16.5625,21.375,0.8149414,-0.1538086,-0.1206055,-0.3173828,-0.04296875,0.09619141
3665,44.8125,-20.6875,21.6875,0.8803711,-0.02197266,-0.2089844,-0.3198242,-0.03808594,0.09765625
3669,49.6875,-18.3125,23.3125,0.9658203,0.1254883,-0.324707,-0.3188477,-0.03710938,0.09619141
3673,36.75,-1.4375,30,1.074219,0.2768555,-0.3515625,-0.3188477,-0.03076172,0.1000977
3677,10.4375,15.8125,41.625,1.012207,0.237793,-0.3359375,-0.3188477,-0.02929688,0.1000977
3681,-11.8125,20.6875,51.125,0.9233398,0.1098633,-0.2670898,-0.3173828,-0.02587891,0.1000977
3685,-21,18.1875,51.9375,0.8378906,-0.09960938,-0.1513672,-0.3173828,-0.02050781,0.09619141
3689,-8.9375,13.8125,48.875,0.8071289,-0.2783203,-0.07861328,-0.3164063,-0.01708984,0.09619141
3693,9.875,13.625,40.8125,0.8071289,-0.2939453,-0.04394531,-0.3164063,-0.01464844,0.09326172
3697,24.625,18.25,37.1875,0.8769531,-0.2084961,-0.04736328,-0.3188477,-0.008300781,0.09082031
3701,24.5,30.25,39.75,0.9077148,-0.09179688,-0.04003906,-0.3173828,-0.004394531,0.08935547
3705,12.0625,37.25,39.375,0.8261719,-0.04541016,-0.03613281,-0.3173828,-0.0004882813,0.08789063
3709,-2.1875,34.1875,32.0625,0.7138672,-0.05664063,-0.03222656,-0.3188477,0.00390625,0.08544922
3713,-9.5,24.8125,25.375,0.6791992,-0.1269531,0.01708984,-0.3188477,0.006347656,0.08007813
3717,-9.4375,16.6875,14.5,0.7099609,-0.08789063,0.03662109,-0.3198242,0.008789063,0.07861328
3721,-12.9375,9.375,11.4375,0.7641602,0.02050781,0.009765625,-0.3188477,0.008789063,0.07714844
3725,-33.125,4.8125,19.125,0.8881836,0.1367188,0.009765625,-0.3188477,0.008789063,0.07714844
3729,-63.75,-1,35,1.031738,0.08251953,-0.005371094,-0.3173828,0.008789063,0.08007813
3733,-89.1875,-9.8125,34.5,1.22168,-0.07226563,-0.009277344,-0.3173828,0.01269531,0.07861328
3737,-91.5,-12.1875,20.5,1.357422,-0.3134766,0.005859375,-0.3173828,0.01367188,0.08251953
3741,-69.625,-9.8125,4.125,1.458008,-0.4882813,0.001953125,-0.3188477,0.008789063,0.08398438
3745,-37,-1.1875,-6.375,1.632324,-0.4492188,-0.02050781,-0.3164063,0.007324219,0.08691406
3749,-12.8125,15.375,0,1.771973,-0.3676758,-0.04736328,-0.3173828,0.008789063,0.08398438
3753,5.375,37.3125,8.3125,1.806641,-0.3364258,-0.07080078,-0.3164063,0.006347656,0.08398438
3757,24.375,52.5625,11.4375,1.717773,-0.324707,-0.07080078,-0.3173828,0.01025391,0.08007813
3761,48.25,60.0625,9.4375,1.543457,-0.3173828,-0.05517578,-0.3188477,0.01269531,0.07421875
3766,68.75,53.5625,-2.125,1.345703,-0.2124023,-0.06298828,-0.3198242,0.01123047,0.0703125
3770,75.375,39.8125,-10.8125,1.279785,-0.03759766,-0.1054688,-0.3198242,0.01367188,0.06347656
3774,54.625,32.625,-10.5625,1.283691,0.1953125,-0.1552734,-0.3232422,0.01367188,0.05957031
3778,26.375,27.0625,-14.375,1.22168,0.1757813,-0.1435547,-0.3232422,0.01513672,0.05664063
3782,19.125,27.4375,-8,1.140137,0.07470703,-0.07861328,-0.3232422,0.01269531,0.05419922
3786,27.875,34.25,5.1875,1.082031,0.008789063,-0.05126953,-0.324707,0.01367188,0.04882813
3790,41.4375,43.9375,20.5,1.012207,-0.002441406,-0.03222656,-0.324707,0.01513672,0.04736328
3794,49.5625,49.4375,32.5625,0.9501953,0.03613281,-0.01660156,-0.3256836,0.01757813,0.04199219
3798,51.1875,50.6875,38.625,0.8920898,0.03222656,0.005859375,-0.3271484,0.02392578,0.03515625
3802,55.625,52.3125,38.875,0.8613281,0.004882813,0.04785156,-0.3256836,0.02490234,0.03076172
3806,64.0625,55.6875,41.8125,0.8535156,0.008789063,0.07519531,-0.3256836,0.03027344,0.02392578
3810,71,61.5625,51.5,0.8496094,0.07080078,0.09814453,-0.3271484,0.03613281,0.01855469
