Packet number,Gyroscope X (deg/s),Gyroscope Y (deg/s),Gyroscope Z (deg/s),Accelerometer X (g),Accelerometer Y (g),Accelerometer Z (g),Magnetometer X (G),Magnetometer Y (G),Magnetometer Z (G)
1,0.375,1.125,0.125,0.2333984,-0.9467773,-0.2055664,-0.07958984,0.2587891,0.105957
5,0.125,0.0625,0.3125,0.2294922,-0.9506836,-0.1860352,-0.078125,0.2587891,0.1069336
9,-0.1875,-1.75,-0.375,0.2294922,-0.9467773,-0.1708984,-0.07958984,0.2587891,0.1083984
13,1.5,-3.375,-1.1875,0.2333984,-0.9853516,-0.1552734,-0.078125,0.2563477,0.1069336
17,1.5,-3.9375,-0.125,0.2451172,-0.9736328,-0.1474609,-0.07714844,0.2612305,0.1069336
21,0.3125,-4.4375,0.4375,0.2412109,-0.9775391,-0.1362305,-0.078125,0.2587891,0.1069336
25,0.625,-5.1875,0.0625,0.2568359,-1.020508,-0.1245117,-0.07714844,0.2587891,0.1083984
29,0.9375,-4.8125,0.75,0.2724609,-1.043945,-0.1743164,-0.07714844,0.2587891,0.1069336
33,0.6875,-2.4375,2.625,0.3032227,-1.047363,-0.2363281,-0.078125,0.2573242,0.1083984
37,-2,3.25,5.1875,0.3535156,-0.9970703,-0.3286133,-0.07958984,0.2573242,0.1069336
41,-11.5625,13.9375,7.875,0.3959961,-0.9233398,-0.4248047,-0.07714844,0.2597656,0.1083984
45,-24.75,29.25,12.9375,0.4311523,-0.9038086,-0.559082,-0.07714844,0.2573242,0.1083984
49,-38.3125,44.6875,17.9375,0.4619141,-0.8300781,-0.7553711,-0.07958984,0.2573242,0.1098633
53,-58.25,58,16.75,0.4541016,-0.6938477,-0.9287109,-0.078125,0.2573242,0.1137695
57,-84.625,60.6875,4.1875,0.3925781,-0.5776367,-1.132324,-0.07958984,0.2563477,0.1191406
61,-109.6875,49.8125,-15.25,0.2836914,-0.6318359,-1.224609,-0.08203125,0.2509766,0.1220703
65,-130.125,30.1875,-29.125,0.2294922,-0.7368164,-1.236328,-0.08642578,0.2460938,0.1328125
69,-153.6875,14,-33.5,0.2294922,-0.7988281,-1.217285,-0.08886719,0.2397461,0.144043
73,-178.625,8.625,-28,0.2954102,-0.8764648,-1.209473,-0.09033203,0.2314453,0.1518555
77,-203.375,15.125,-22.0625,0.3613281,-0.8647461,-1.217285,-0.09472656,0.2211914,0.1669922
81,-222.1875,24.875,-25.3125,0.3925781,-0.9736328,-1.244141,-0.09619141,0.2060547,0.1831055
85,-223.875,32.1875,-37.0625,0.3925781,-0.9970703,-1.286133,-0.09716797,0.1972656,0.1943359
89,-238.6875,35.25,-47,0.3417969,-0.9931641,-1.328613,-0.1030273,0.1811523,0.2089844
93,-254.3125,36,-47.5,0.2797852,-1.102051,-1.394043,-0.109375,0.1611328,0.2241211
97,-264.6875,32.3125,-41.5625,0.1870117,-1.160156,-1.490234,-0.1137695,0.1459961,0.2333984
101,-272.125,21.25,-33.9375,0.1791992,-1.109863,-1.628906,-0.1176758,0.1235352,0.2470703
105,-285.625,13.375,-24,0.2412109,-0.9697266,-1.748047,-0.1220703,0.09863281,0.2607422
109,-319.875,-0.625,-25.25,0.206543,-0.9389648,-1.855957,-0.1201172,0.08105469,0.2661133
113,-340.9375,-33.25,-38.5625,0.09765625,-1.203125,-1.994141,-0.1210938,0.04980469,0.2783203
117,-332.6875,-96,-55.25,0.02050781,-1.459473,-2.113281,-0.1152344,0.01367188,0.2910156
122,-295.125,-152.25,-58.125,0.3574219,-1.424316,-2.171387,-0.1079102,-0.005859375,0.2949219
126,-304.3125,-154.125,-54.4375,0.7333984,-0.8881836,-2.140625,-0.09472656,-0.04199219,0.300293
130,-392.5,-140.25,-46.625,0.7915039,-0.8999023,-2.079102,-0.07958984,-0.07324219,0.3017578
134,-457.75,-135.1875,-33.9375,0.6791992,-1.583984,-1.855957,-0.07128906,-0.1054688,0.3017578
138,-454.5,-139.6875,-26.8125,0.4077148,-2.069336,-1.390137,-0.05664063,-0.1518555,0.293457
142,-385.6875,-161.5625,-23.4375,0.1445313,-2.403809,-0.8554688,-0.04150391,-0.1943359,0.2797852
146,-250.625,-165,-9.1875,0.2993164,-2.271484,-0.378418,-0.03076172,-0.2158203,0.269043
150,-156.0625,-120.8125,10.6875,0.4970703,-1.401367,-0.1245117,-0.01757813,-0.2368164,0.2583008
154,-157.3125,-72.5,51.75,0.5048828,-0.5854492,-0.0859375,-0.01025391,-0.2519531,0.2485352
158,-176.25,-34.5,68.9375,0.4428711,-0.2006836,-0.1938477,-0.009277344,-0.2592773,0.2416992
162,-178.375,-16.375,54.625,0.3496094,-0.1308594,-0.1054688,-0.009277344,-0.2729492,0.2324219
166,-142.375,-0.125,21.6875,0.2294922,-0.1889648,-0.02832031,-0.01025391,-0.2880859,0.2202148
170,-96.9375,-1.4375,-8.75,0.07861328,-0.2275391,0.001953125,-0.01171875,-0.296875,0.2172852
174,-60.9375,-2.5,-12.625,0.09765625,-0.2470703,0.01367188,-0.01171875,-0.3007813,0.2089844
178,-42.75,10.5625,6.4375,0.1713867,-0.1577148,0.04052734,-0.01025391,-0.3056641,0.2050781
182,-30.75,34.5625,30.3125,0.2138672,-0.08398438,-0.02050781,-0.01416016,-0.3056641,0.2036133
186,-21.9375,47.6875,42.125,0.1171875,0.07080078,-0.08984375,-0.01855469,-0.3066406,0.2011719
190,-8.6875,41.3125,36.1875,0.09375,0.07080078,-0.1782227,-0.0234375,-0.3105469,0.199707
194,12.8125,28.3125,20.5,0.09765625,0.1020508,-0.2285156,-0.02685547,-0.3081055,0.1982422
198,32.1875,24.5,10.5625,0.1948242,0.1640625,-0.2705078,-0.03173828,-0.3081055,0.199707
202,39.75,25.4375,9.9375,0.206543,0.1914063,-0.3168945,-0.03320313,-0.3041992,0.199707
206,46.6875,27,12,0.2294922,0.1914063,-0.3974609,-0.03320313,-0.3032227,0.2036133
210,50.375,24.75,13.8125,0.2490234,0.07080078,-0.3515625,-0.0390625,-0.3007813,0.2089844
214,67.875,27.375,14.4375,0.2646484,-0.04541016,-0.3129883,-0.04150391,-0.2954102,0.2119141
218,87.625,27.6875,11.125,0.2294922,-0.1538086,-0.2631836,-0.04248047,-0.2919922,0.2143555
222,120.75,30.9375,10,0.2993164,-0.3598633,-0.2978516,-0.04492188,-0.2817383,0.2211914
226,148.5625,44.75,16.0625,0.3652344,-0.340332,-0.4477539,-0.04833984,-0.2719727,0.2294922
230,169.625,66.0625,30.5,0.4077148,-0.3325195,-0.5014648,-0.05078125,-0.2641602,0.237793
234,175.375,77.4375,37.875,0.2915039,-0.2705078,-0.5976563,-0.05908203,-0.2480469,0.2460938
238,184.9375,70.125,31.75,0.2104492,-0.4179688,-0.6401367,-0.06738281,-0.2329102,0.2539063
242,210.75,54.0625,10,0.1289063,-0.6630859,-0.6630859,-0.07324219,-0.2216797,0.2607422
246,241.375,39.0625,-7.5,0.1132813,-0.8613281,-0.7055664,-0.07958984,-0.2006836,0.2714844
251,272.375,25.875,-13.9375,0.08251953,-1.004883,-0.8286133,-0.08056641,-0.1767578,0.2783203
255,296.0625,5.375,-26.5,0.04345703,-1.094238,-0.9287109,-0.08203125,-0.1591797,0.2866211
259,326.0625,-23.3125,-50.375,0.07861328,-1.249512,-0.9516602,-0.07958984,-0.1293945,0.2973633
263,364.5,-23.875,-64.3125,0.5161133,-1.564453,-0.7939453,-0.07714844,-0.09716797,0.3032227
267,374.1875,40.1875,-38.0625,0.7758789,-1.284668,-0.9707031,-0.07714844,-0.07177734,0.3041992
271,326.6875,93.375,2.5,0.5708008,-1.207031,-1.221191,-0.08056641,-0.03564453,0.3032227
275,303,105.625,34.5,0.3266602,-1.45166,-1.436523,-0.09130859,-0.004394531,0.2988281
279,316.8125,77.25,30.6875,0.1289063,-1.513672,-1.555664,-0.09960938,0.01855469,0.2919922
283,323.8125,36,8.875,0.1484375,-1.342773,-1.509277,-0.1054688,0.04980469,0.2841797
287,315.625,15.1875,-1.875,0.2875977,-1.572266,-1.313477,-0.1069336,0.08251953,0.2714844
291,308,24.625,11.3125,0.4350586,-1.766602,-1.147949,-0.109375,0.1000977,0.2636719
295,307.9375,40.75,25.8125,0.4155273,-1.863281,-1.182617,-0.1103516,0.1264648,0.2470703
299,304.375,49,41.625,0.3847656,-1.875,-1.186523,-0.112793,0.1523438,0.2294922
303,305.625,49.6875,50.5625,0.3266602,-1.828613,-1.251953,-0.1113281,0.1689453,0.2143555
307,295.875,38.625,54.625,0.2412109,-1.785645,-1.221191,-0.1113281,0.1923828,0.1928711
311,305.8125,14.5,42.6875,0.206543,-1.844238,-1.232422,-0.1113281,0.2124023,0.1699219
315,302.625,-4.375,37.9375,0.2490234,-1.711914,-1.125,-0.1103516,0.2236328,0.1533203
319,304.75,-12.125,29.625,0.3613281,-1.812988,-0.9824219,-0.1054688,0.2412109,0.1289063
323,319.625,-13.3125,4.9375,0.4116211,-1.9375,-0.7514648,-0.1030273,0.2539063,0.1030273
327,355.4375,-16.0625,-32.25,0.3496094,-2.069336,-0.6206055,-0.1044922,0.262207,0.08251953
331,380.25,-38.1875,-69.9375,0.1171875,-2.120117,-0.5708008,-0.1069336,0.2700195,0.04589844
335,400.5625,-60.3125,-69.3125,0.2294922,-2.116211,-0.4863281,-0.1113281,0.2749023,0.01464844
339,379.9375,-14,-6.1875,0.6791992,-1.781738,-0.3862305,-0.1152344,0.2763672,-0.009277344
343,316.625,64.3125,73.3125,0.8652344,-1.48291,-0.3359375,-0.1137695,0.2749023,-0.04492188
347,268.5,122.4375,113,0.7529297,-1.21875,-0.6669922,-0.1044922,0.2749023,-0.07617188
351,238.9375,130.9375,108.1875,0.543457,-0.9775391,-0.9516602,-0.09375,0.2763672,-0.09521484
355,212,113.6875,86.75,0.3652344,-0.7016602,-1.174805,-0.08056641,0.2709961,-0.1225586
359,179.25,81.875,65.9375,0.2915039,-0.4648438,-1.305664,-0.07226563,0.2675781,-0.1425781
363,131.0625,53.0625,58.125,0.3149414,-0.1850586,-1.413086,-0.06494141,0.2636719,-0.1538086
367,66.9375,31.75,55.25,0.3808594,0.121582,-1.482422,-0.05908203,0.2587891,-0.1645508
371,-15.375,9.875,44.5625,0.3691406,0.3974609,-1.447754,-0.05078125,0.2587891,-0.1699219
375,-98.625,-9.8125,26.5625,0.4233398,0.2612305,-1.290039,-0.04980469,0.2573242,-0.1645508
380,-151.625,-22.8125,3.75,0.4892578,-0.1538086,-1.097656,-0.04980469,0.2661133,-0.1547852
384,-173.3125,-32.6875,-24.25,0.527832,-0.453125,-0.9902344,-0.04980469,0.2709961,-0.1401367
388,-185.1875,-42.8125,-53.25,0.5126953,-0.5073242,-1.001465,-0.05322266,0.2749023,-0.1289063
392,-213.5625,-52.6875,-74.4375,0.527832,-0.534668,-1.055664,-0.06152344,0.2797852,-0.1044922
396,-256.375,-55.75,-82.625,0.5629883,-0.6787109,-1.132324,-0.06884766,0.2851563,-0.08544922
400,-304.3125,-52.6875,-85.0625,0.6328125,-0.9311523,-1.140137,-0.07568359,0.2861328,-0.06542969
404,-317.625,-42.6875,-102.5,0.7797852,-1.490723,-1.043945,-0.08398438,0.2861328,-0.03271484
408,-298.875,-23.375,-118.6875,0.8378906,-1.595215,-1.009277,-0.09375,0.2822266,0
412,-316.875,-7.8125,-117.625,0.7138672,-1.467285,-1.144043,-0.1030273,0.2788086,0.01708984
416,-360.875,-5.875,-111.4375,0.4931641,-1.533203,-1.290039,-0.1152344,0.2685547,0.04736328
420,-405.5,-15.75,-93.375,0.3808594,-1.71582,-1.444336,-0.1220703,0.2539063,0.08544922
424,-453.6875,-37.9375,-66.5625,0.2138672,-1.933594,-1.578613,-0.128418,0.2426758,0.1098633
428,-462,-92.5,-82.25,0.1674805,-2.531738,-1.51709,-0.1303711,0.21875,0.1494141
432,-387.625,-145.0625,-115.25,0.4970703,-3.067871,-1.248047,-0.1328125,0.1884766,0.1845703
436,-326.5,-145.25,-102,0.7490234,-2.741699,-0.9326172,-0.1318359,0.1674805,0.2050781
440,-345.375,-87.75,-32.4375,0.9736328,-2.384277,-0.8823242,-0.1259766,0.1411133,0.2324219
444,-390.4375,-24.875,24.75,0.7373047,-2.146973,-1.070801,-0.1210938,0.1113281,0.2524414
448,-418.875,-11.6875,54.75,0.4077148,-2.073242,-1.38623,-0.1201172,0.08740234,0.2636719
452,-430.875,-55.5,45.5625,0.04736328,-1.995605,-1.674805,-0.1137695,0.04980469,0.28125
456,-400.8125,-124.5625,22.375,0.125,-2.015137,-1.751953,-0.1044922,0.01269531,0.293457
460,-372.9375,-172.1875,5.9375,0.3496094,-1.97998,-1.617188,-0.09472656,-0.01171875,0.2973633
464,-344.5625,-177.75,11.5,0.625,-1.758789,-1.405762,-0.078125,-0.05078125,0.3041992
468,-328.875,-139.5625,29.125,0.8842773,-1.541016,-1.213379,-0.06152344,-0.08837891,0.3056641
472,-316.875,-79.25,47.75,0.9541016,-1.1875,-1.197754,-0.05419922,-0.1054688,0.3032227
476,-326.0625,-27.75,47.9375,0.7719727,-0.6474609,-1.336426,-0.04833984,-0.1381836,0.2973633
480,-342.1875,-22.625,16.3125,0.4467773,-0.5737305,-1.486328,-0.04736328,-0.171875,0.2895508
484,-325.125,-55.25,-33.1875,0.1713867,-0.7988281,-1.397949,-0.04492188,-0.1933594,0.2783203
488,-281.9375,-87.0625,-57.3125,0.159668,-0.9116211,-1.140137,-0.03759766,-0.2231445,0.2651367
492,-256.9375,-94.4375,-52.875,0.1518555,-0.8999023,-0.824707,-0.02832031,-0.2495117,0.2514648
496,-237.875,-85.125,-29.625,0.1484375,-0.9194336,-0.4863281,-0.01855469,-0.2641602,0.2416992
500,-212,-75.8125,-1.8125,0.09375,-1.062988,-0.1782227,-0.01416016,-0.2817383,0.2255859
504,-153.0625,-65.5625,11.1875,0.1518555,-1.086426,0.1713867,-0.0078125,-0.296875,0.2133789
509,-81.6875,-49,2.375,0.2026367,-0.7485352,0.2709961,-0.004394531,-0.3041992,0.2050781
513,-38.375,-34.5625,-3.9375,0.2255859,-0.4570313,0.1943359,-0.001953125,-0.3081055,0.2021484
517,-15.1875,-11.625,0.375,0.2915039,-0.1889648,0.1171875,0.0009765625,-0.3105469,0.1982422
521,-8.3125,15.9375,9.8125,0.2607422,0.02050781,0.03662109,0.0009765625,-0.3129883,0.1967773
525,-10.125,35.3125,21.0625,0.1557617,0.05908203,-0.001464844,-0.001953125,-0.3129883,0.1953125
529,-1.375,40.4375,26.625,0.03564453,0.0009765625,-0.04003906,-0.0078125,-0.3144531,0.1953125
533,16.75,33.75,26.125,-0.01806641,-0.03369141,-0.08984375,-0.01025391,-0.3129883,0.1967773
537,41.1875,22.4375,22.1875,0.04345703,-0.09570313,-0.1362305,-0.01269531,-0.3120117,0.2011719
541,64.4375,18.5,18.5625,0.1210938,-0.08007813,-0.1938477,-0.01611328,-0.3056641,0.2021484
545,84,18.375,14.8125,0.2138672,-0.08789063,-0.2436523,-0.01757813,-0.3041992,0.206543
549,98.5625,23.5,11.3125,0.2646484,-0.1035156,-0.2783203,-0.02001953,-0.296875,0.2119141
553,114.25,30.1875,11.6875,0.2758789,-0.2861328,-0.2939453,-0.0234375,-0.2880859,0.2211914
557,146.625,50.6875,19.875,0.4038086,-0.2392578,-0.4360352,-0.02587891,-0.2817383,0.2255859
561,148.125,61.5625,22.6875,0.3188477,-0.1772461,-0.4824219,-0.03076172,-0.2705078,0.2333984
565,164.8125,63.875,20.625,0.3378906,-0.4140625,-0.5322266,-0.03662109,-0.2583008,0.2446289
569,187.4375,59.75,9.125,0.3266602,-0.6162109,-0.5014648,-0.04150391,-0.2470703,0.25
573,225.375,69.75,6.9375,0.4541016,-0.7368164,-0.6132813,-0.04736328,-0.2280273,0.262207
577,240.5,81.4375,5.625,0.4541016,-0.7680664,-0.6938477,-0.05322266,-0.2080078,0.2729492
581,262.8125,91.75,1.5625,0.4697266,-0.9428711,-0.8056641,-0.05908203,-0.1904297,0.2773438
585,273.125,91.875,2.25,0.3808594,-1.086426,-0.9287109,-0.06738281,-0.1669922,0.2895508
589,289.875,84.875,3.5,0.3886719,-1.272949,-1.020996,-0.07714844,-0.1381836,0.293457
593,306.4375,75.125,4.9375,0.3691406,-1.300293,-1.144043,-0.08203125,-0.1181641,0.2949219
597,314.375,66.625,8.125,0.3959961,-1.443848,-1.19043,-0.09033203,-0.08837891,0.300293
601,329.1875,74.5,26.125,0.5200195,-1.37793,-1.38623,-0.09716797,-0.05322266,0.2988281
605,322.8125,83.625,39.25,0.5356445,-1.284668,-1.498047,-0.1020508,-0.03076172,0.2988281
609,311.3125,83.875,33.625,0.5126953,-1.136719,-1.528809,-0.109375,0.002441406,0.2919922
613,299.0625,71,23.4375,0.4077148,-1.338867,-1.494141,-0.1176758,0.03271484,0.2827148
617,305.5,53.125,14.75,0.3652344,-1.548828,-1.394043,-0.1201172,0.05126953,0.2773438
621,319.5,37.6875,2.8125,0.3999023,-1.669434,-1.328613,-0.1259766,0.08251953,0.2651367
625,330.8125,33,7.8125,0.4350586,-1.773926,-1.375,-0.1293945,0.1098633,0.2485352
629,328.375,39.4375,29.5625,0.543457,-1.630371,-1.38623,-0.1293945,0.1264648,0.237793
633,312.5,50.5625,45.4375,0.6015625,-1.533203,-1.38623,-0.1303711,0.1547852,0.2172852
638,296.3125,59.0625,53.6875,0.5976563,-1.494629,-1.33252,-0.1328125,0.1787109,0.1953125
642,290.8125,54.75,46.75,0.5473633,-1.560547,-1.251953,-0.1303711,0.1923828,0.1806641
646,301.375,40.8125,28.0625,0.4658203,-1.576172,-1.170898,-0.1303711,0.2114258,0.15625
650,306.625,26.1875,14.9375,0.4506836,-1.587891,-1.01709,-0.1318359,0.2285156,0.1313477
654,307.375,21.875,15.8125,0.4467773,-1.614746,-0.9130859,-0.1342773,0.2387695,0.1123047
658,289.5625,29.4375,43.5,0.4853516,-1.455566,-0.7592773,-0.1303711,0.2485352,0.08544922
662,263.4375,46.875,60.5,0.5668945,-1.401367,-0.5014648,-0.1269531,0.2597656,0.05957031
666,262.4375,59.8125,42.5,0.5317383,-1.645996,-0.4282227,-0.1245117,0.2651367,0.04296875
670,276.5,47.625,24.75,0.2490234,-1.840332,-0.4746094,-0.1220703,0.2709961,0.01855469
674,303.6875,19.25,26.125,0.125,-1.809082,-0.5478516,-0.1220703,0.2749023,-0.01074219
678,301.6875,3.125,52.5625,0.2646484,-1.544922,-0.4477539,-0.1176758,0.2749023,-0.02978516
682,282.0625,13.1875,81.1875,0.5200195,-1.42041,-0.2900391,-0.1113281,0.2749023,-0.05712891
686,271.5625,37.6875,96.25,0.6015625,-1.366211,-0.2978516,-0.1020508,0.2739258,-0.08691406
690,284.75,39.9375,80.3125,0.5009766,-1.253418,-0.4052734,-0.09619141,0.2724609,-0.1044922
694,288.375,24.625,58.875,0.3574219,-0.9350586,-0.6054688,-0.08642578,0.2661133,-0.1347656
698,258.5,14.375,54.6875,0.5161133,-0.5073242,-0.6860352,-0.08300781,0.2548828,-0.1591797
702,194,35.75,69.75,0.7758789,-0.2124023,-0.7441406,-0.078125,0.25,-0.1728516
706,119.625,63.875,70.625,0.7641602,0.1445313,-0.7822266,-0.06982422,0.2426758,-0.1918945
710,48.5,62.75,46.5625,0.5708008,0.3232422,-0.8862305,-0.06054688,0.2397461,-0.199707
714,-14.0625,34.1875,8.6875,0.3227539,0.2299805,-0.840332,-0.05810547,0.2387695,-0.2026367
718,-54.625,-6.0625,-21.8125,0.2451172,-0.1191406,-0.7207031,-0.05810547,0.2387695,-0.199707
722,-83.625,-43.25,-35.125,0.1484375,-0.2470703,-0.5864258,-0.05810547,0.2426758,-0.1918945
726,-115.625,-75.5,-39.0625,0.1831055,-0.3793945,-0.4936523,-0.06396484,0.2460938,-0.1889648
730,-138.9375,-91.625,-41.875,0.3496094,-0.550293,-0.5053711,-0.07128906,0.2509766,-0.175293
734,-154,-89.625,-41.625,0.5239258,-0.5620117,-0.628418,-0.07958984,0.2563477,-0.1606445
738,-187.875,-69.8125,-42.6875,0.6479492,-0.4296875,-0.8554688,-0.08300781,0.2636719,-0.1484375
742,-237.625,-56.5,-52.125,0.625,-0.453125,-1.094238,-0.09033203,0.2685547,-0.1279297
746,-290.375,-50.875,-68.8125,0.578125,-0.6821289,-1.255371,-0.09716797,0.2724609,-0.1020508
750,-338.25,-56.0625,-81.0625,0.5629883,-1.008789,-1.317383,-0.1020508,0.2749023,-0.08007813
754,-374.75,-61.1875,-85,0.5976563,-1.412598,-1.317383,-0.1113281,0.2773438,-0.04492188
758,-408.375,-60.5625,-74.125,0.6132813,-1.708008,-1.259277,-0.1186523,0.2749023,-0.00390625
762,-418.4375,-66.875,-67.3125,0.527832,-2.038574,-1.248047,-0.1235352,0.2700195,0.02148438
767,-421.9375,-84.3125,-51.625,0.4077148,-2.073242,-1.290039,-0.128418,0.2597656,0.06201172
771,-447.1875,-108.8125,-28.0625,0.3613281,-2.049805,-1.424805,-0.1293945,0.2451172,0.1030273
775,-484.1875,-126.3125,-3,0.4541016,-2.158691,-1.528809,-0.1259766,0.2299805,0.1313477
779,-498.375,-144.625,-2.6875,0.6831055,-2.586426,-1.475098,-0.1210938,0.2050781,0.175293
783,-450.4375,-141.875,-26.0625,0.7719727,-2.714355,-1.348145,-0.1113281,0.1699219,0.2133789
787,-416.625,-133.625,-15.75,0.6132813,-2.640625,-1.270996,-0.1044922,0.1499023,0.2348633
791,-411.375,-119.125,23.8125,0.4619141,-2.302734,-1.367188,-0.09472656,0.1137695,0.2592773
795,-416.25,-100,63.9375,0.5048828,-2.356934,-1.409668,-0.08300781,0.07617188,0.2797852
799,-400.875,-74.6875,83.5,0.4697266,-2.20166,-1.413086,-0.07470703,0.05126953,0.2910156
803,-383.625,-60.8125,83.625,0.3149414,-2.030762,-1.436523,-0.06396484,0.01123047,0.3032227
807,-356,-65.5,71.4375,0.190918,-1.910156,-1.38623,-0.06054688,-0.0234375,0.3056641
811,-324.75,-73.875,55.5625,0.1948242,-1.723633,-1.348145,-0.05322266,-0.046875,0.3100586
815,-305.25,-79.375,44.625,0.2797852,-1.525391,-1.263184,-0.04248047,-0.08203125,0.3085938
819,-288,-70,43.6875,0.3417969,-1.312012,-1.128418,-0.0390625,-0.109375,0.3041992
823,-275.375,-46.9375,46.9375,0.3188477,-1.11377,-1.005371,-0.03320313,-0.1279297,0.3017578
827,-258.875,-23.6875,56.0625,0.2294922,-0.8027344,-1.028809,-0.03173828,-0.1567383,0.2963867
831,-256.0625,-20.75,56.25,0.1289063,-0.6396484,-1.086426,-0.03076172,-0.1821289,0.2866211
835,-239.8125,-20.3125,43.6875,0.1791992,-0.4335938,-1.125,-0.03173828,-0.1982422,0.2797852
839,-239.25,-19.3125,21.9375,0.1831055,-0.006347656,-1.193848,-0.02929688,-0.2207031,0.269043
843,-244.3125,-20.875,-6.625,0.1328125,0.04003906,-1.282715,-0.02929688,-0.2407227,0.2539063
847,-250.6875,-41.875,-31.3125,-0.006347656,-0.1152344,-1.278809,-0.02685547,-0.2543945,0.2446289
851,-247.0625,-72.75,-38.5,0.008789063,-0.421875,-1.043945,-0.02001953,-0.2783203,0.2294922
855,-227,-87.9375,-30.3125,0.1054688,-0.6860352,-0.6362305,-0.01269531,-0.296875,0.2143555
859,-191.8125,-76.5,-18.875,0.2646484,-0.6977539,-0.2246094,-0.006835938,-0.3066406,0.2021484
863,-153.9375,-58.3125,-13.1875,0.3613281,-0.7329102,0.07519531,-0.0009765625,-0.3208008,0.1899414
867,-103.9375,-37.3125,-10.4375,0.4697266,-0.7329102,0.2905273,0.0009765625,-0.3291016,0.1762695
871,-56.375,-2.75,-4.0625,0.5512695,-0.5307617,0.4057617,0.003417969,-0.3330078,0.1738281
875,-26.4375,27.6875,2.625,0.4350586,-0.4335938,0.3828125,0.004394531,-0.3344727,0.1708984
879,8.1875,46,7.875,0.3110352,-0.4067383,0.2749023,0.0009765625,-0.3354492,0.1669922
883,40.625,58.0625,12.6875,0.2607422,-0.2587891,0.08251953,-0.0009765625,-0.3369141,0.1699219
887,58.3125,65.1875,19.8125,0.2177734,-0.05273438,-0.05517578,-0.005859375,-0.3330078,0.1738281
891,72.6875,69.75,22.75,0.1870117,0.04003906,-0.2324219,-0.009277344,-0.328125,0.1777344
896,84.125,67.875,18.875,0.125,0.1176758,-0.3476563,-0.01513672,-0.3256836,0.1806641
900,94.875,59.1875,8.4375,0.09033203,0.1098633,-0.4707031,-0.02246094,-0.3178711,0.1889648
904,104.625,45.125,-3,0.04736328,0.03222656,-0.5517578,-0.02246094,-0.3120117,0.1953125
908,121,34.875,-11.9375,0.04345703,-0.08007813,-0.5668945,-0.02587891,-0.3066406,0.2011719
912,140.25,31.4375,-9.8125,0.05126953,-0.1850586,-0.609375,-0.02685547,-0.2954102,0.2089844
916,154.125,36.0625,-0.5625,0.1054688,-0.1499023,-0.6899414,-0.02929688,-0.2866211,0.2211914
920,163.375,38.25,1.375,0.1171875,-0.2314453,-0.7285156,-0.03076172,-0.2783203,0.2280273
924,174.4375,29.4375,-8.1875,0.09765625,-0.4492188,-0.6977539,-0.03417969,-0.2631836,0.2363281
928,207.8125,25.3125,-21.125,0.2177734,-0.6977539,-0.6748047,-0.03515625,-0.2495117,0.2470703
932,239.625,34.3125,-32.6875,0.3032227,-0.8339844,-0.6630859,-0.03515625,-0.2368164,0.2583008
936,269.875,60.9375,-22.875,0.4389648,-0.8613281,-0.8745117,-0.03759766,-0.2158203,0.269043
940,267.3125,79.5,-12.5,0.3305664,-0.7602539,-1.147949,-0.04394531,-0.1870117,0.2827148
944,268.875,71.8125,-14.125,0.2177734,-0.8725586,-1.33252,-0.04833984,-0.171875,0.2880859
948,279,43.25,-35.125,0.09033203,-0.9853516,-1.382324,-0.05419922,-0.1430664,0.2963867
952,302.75,25.25,-45.1875,0.2412109,-1.05127,-1.424805,-0.05566406,-0.1166992,0.3017578
956,305.25,31.375,-40.9375,0.3847656,-0.9697266,-1.397949,-0.05664063,-0.09570313,0.3056641
960,298.5625,61.75,-20.875,0.5551758,-0.9233398,-1.447754,-0.06152344,-0.06591797,0.3085938
964,275.6875,86.75,-1.875,0.4619141,-0.9931641,-1.45166,-0.07128906,-0.03466797,0.3056641
968,268.625,87.25,0.9375,0.3339844,-1.237793,-1.432617,-0.07470703,-0.015625,0.3041992
972,279.75,70.3125,-4.0625,0.2529297,-1.408691,-1.382324,-0.08398438,0.01025391,0.2973633
976,294.5,55.3125,-7.375,0.2875977,-1.479004,-1.297852,-0.09228516,0.04003906,0.2880859
980,307.25,47.6875,-4.875,0.3378906,-1.509766,-1.251953,-0.09619141,0.06005859,0.2841797
984,322,49.5625,1.5625,0.4233398,-1.552734,-1.197754,-0.09960938,0.08642578,0.2714844
988,330.1875,57.875,15,0.4658203,-1.443848,-1.232422,-0.1044922,0.1162109,0.2524414
992,322.125,69.0625,27.5625,0.559082,-1.362305,-1.13623,-0.1069336,0.1347656,0.2416992
996,321.4375,79.3125,21.25,0.6054688,-1.439941,-1.166992,-0.1113281,0.1635742,0.2211914
1000,321.875,80.875,7.1875,0.578125,-1.501953,-1.070801,-0.1152344,0.1860352,0.1967773
1004,330.9375,80.125,-7.5,0.5512695,-1.71582,-0.9633789,-0.1176758,0.2001953,0.1791992
1008,342.6875,80.4375,-7.625,0.4970703,-1.789551,-0.84375,-0.1235352,0.2172852,0.1518555
1012,340.25,78.5625,3.75,0.4155273,-1.731445,-0.7900391,-0.1269531,0.2363281,0.1191406
1016,322.375,63.75,15.625,0.3886719,-1.812988,-0.6630859,-0.1293945,0.2451172,0.1000977
1020,314.0625,52.6875,21.5625,0.5048828,-1.991699,-0.4399414,-0.1303711,0.2563477,0.06884766
1025,334.75,65.8125,24.6875,0.7021484,-2.186035,-0.3012695,-0.1303711,0.2651367,0.03759766
1029,361.6875,102.75,45.5625,0.8613281,-2.236328,-0.2397461,-0.128418,0.2675781,0.01464844
1033,372.5,150.5,78.125,0.8613281,-2.154785,-0.4707031,-0.1220703,0.2709961,-0.02148438
1037,349.875,168.3125,112.125,0.6557617,-1.68457,-0.6591797,-0.1137695,0.2739258,-0.0625
1041,307.6875,153.0625,131.9375,0.4233398,-1.37793,-0.859375,-0.1044922,0.2724609,-0.08837891
1045,276.6875,108.875,125,0.2758789,-1.171875,-0.859375,-0.08886719,0.2675781,-0.1181641
1049,269.5,59.5,93.6875,0.2993164,-1.144531,-0.8286133,-0.07568359,0.2636719,-0.1484375
1053,279.0625,19.625,64.625,0.3574219,-0.9697266,-0.9091797,-0.06738281,0.2573242,-0.1660156
1057,250,6.625,62.625,0.5473633,-0.4882813,-0.9360352,-0.06298828,0.2451172,-0.1904297
1061,184.375,18.5625,71.4375,0.6791992,-0.01025391,-1.01709,-0.05664063,0.2338867,-0.2109375
1065,93.0625,33,71.1875,0.6401367,0.4243164,-1.05957,-0.05078125,0.2275391,-0.2163086
1069,3.9375,30.5,47.75,0.5161133,0.5292969,-1.08252,-0.04394531,0.2250977,-0.2270508
1073,-69.5625,12.0625,10.5625,0.3925781,0.3935547,-1.05957,-0.04003906,0.2260742,-0.2231445
1077,-118.3125,-14.5625,-21.25,0.2255859,0.06689453,-1.090332,-0.04003906,0.2299805,-0.2202148
1081,-156.625,-51.9375,-44.9375,0.1831055,-0.1381836,-1.094238,-0.04248047,0.2387695,-0.2080078
1085,-186,-84.625,-62,0.2138672,-0.3833008,-1.086426,-0.05224609,0.2460938,-0.1918945
1089,-220.1875,-109.75,-70.3125,0.2875977,-0.4882813,-1.166992,-0.05908203,0.2509766,-0.1782227
1093,-260.4375,-124.375,-73.0625,0.3925781,-0.6591797,-1.140137,-0.06884766,0.2612305,-0.15625
1097,-302.9375,-130.9375,-71.6875,0.4775391,-0.9389648,-1.147949,-0.08203125,0.2700195,-0.1225586
1101,-333.875,-132.8125,-74.3125,0.625,-1.226563,-1.090332,-0.08789063,0.2739258,-0.1035156
1105,-336.1875,-127.125,-86.75,0.7490234,-1.591309,-0.9672852,-0.09863281,0.2788086,-0.06640625
1109,-342.9375,-111,-82.625,0.7758789,-1.665527,-0.9018555,-0.1079102,0.2788086,-0.03271484
1113,-375,-88.0625,-55.625,0.7294922,-1.770508,-0.9326172,-0.112793,0.2763672,-0.008300781
1117,-412.5,-72.5,-19.4375,0.4853516,-1.902344,-1.063477,-0.1176758,0.2700195,0.03076172
1121,-444.375,-88.5625,1.4375,0.3071289,-2.112305,-1.197754,-0.1176758,0.2612305,0.07324219
1125,-428.1875,-127.0625,-13.1875,0.4389648,-2.590332,-1.066895,-0.1137695,0.25,0.1015625
1129,-343.125,-155.625,-45.8125,0.6831055,-3.025391,-0.7363281,-0.1079102,0.2324219,0.1411133
1133,-275.6875,-153.375,-44.3125,0.7836914,-2.652344,-0.5864258,-0.1054688,0.2124023,0.168457
1137,-282.6875,-123.25,-1.375,0.8339844,-2.221191,-0.5864258,-0.1020508,0.2011719,0.1860352
1141,-319.6875,-77.75,44.4375,0.8496094,-2.007324,-0.7094727,-0.09228516,0.1811523,0.2119141
1145,-365.4375,-36.125,79.125,0.7836914,-1.945313,-0.8554688,-0.08398438,0.1577148,0.2363281
1149,-398,2,101.6875,0.6557617,-1.945313,-1.020996,-0.08056641,0.1386719,0.2485352
1154,-399.125,14.125,95.0625,0.3925781,-2.077148,-1.174805,-0.07470703,0.1064453,0.269043
1158,-350.4375,-17.75,61.875,0.07861328,-2.045898,-1.328613,-0.06982422,0.07128906,0.2866211
1162,-302.8125,-66.5,35.25,0.1015625,-1.844238,-1.344238,-0.06738281,0.04882813,0.293457
1166,-280.875,-92.5,14.375,0.2875977,-1.455566,-1.26709,-0.05810547,0.02001953,0.3032227
1170,-281.5,-82.6875,15.9375,0.4736328,-1.284668,-1.197754,-0.05078125,-0.006835938,0.3071289
1174,-295.3125,-53.4375,31.875,0.4428711,-1.21875,-1.144043,-0.04248047,-0.02685547,0.3085938
1178,-288.25,-20.8125,53.5,0.4116211,-1.164063,-1.163086,-0.03759766,-0.05810547,0.3100586
1182,-279.375,-6.9375,59,0.2216797,-0.9233398,-1.286133,-0.03662109,-0.08691406,0.3085938
1186,-268.3125,-19.375,46.6875,0.1054688,-0.6162109,-1.482422,-0.03662109,-0.1069336,0.3056641
1190,-276.875,-52.4375,21.4375,0.04345703,-0.4101563,-1.540039,-0.03320313,-0.1308594,0.3017578
1194,-289.4375,-80.0625,-0.25,0.1289063,-0.4921875,-1.409668,-0.02929688,-0.1606445,0.293457
1198,-285.375,-91.75,-14.125,0.2104492,-0.8105469,-1.109375,-0.02490234,-0.1806641,0.2866211
1202,-249.9375,-89.9375,-25.8125,0.2836914,-1.055176,-0.7402344,-0.01416016,-0.2070313,0.2744141
1206,-203.75,-73.8125,-28.1875,0.3032227,-0.9892578,-0.4628906,-0.003417969,-0.2304688,0.2651367
1210,-173.5625,-53.5,-16.125,0.2797852,-0.8764648,-0.2631836,0,-0.2407227,0.2568359
1214,-150.9375,-37.625,-0.3125,0.175293,-0.8339844,-0.06689453,0.002441406,-0.2543945,0.2470703
1218,-117.5,-22.375,17.125,0.1445313,-0.8261719,0.09814453,0.005859375,-0.2695313,0.237793
1222,-75.375,-7.3125,25.3125,0.1367188,-0.7446289,0.2172852,0.005859375,-0.2729492,0.2324219
1226,-30.8125,3.4375,23.25,0.1367188,-0.5385742,0.1787109,0.003417969,-0.2783203,0.2294922
1230,0.375,8.9375,19.6875,0.1948242,-0.371582,0.09814453,0.0009765625,-0.2792969,0.2280273
1234,20.875,20.9375,19.6875,0.3071289,-0.1928711,0.02880859,0.0009765625,-0.2792969,0.2280273
1238,30.6875,42.125,23.0625,0.3574219,-0.03759766,-0.04394531,-0.0009765625,-0.2768555,0.2280273
1242,31.625,56.375,22.9375,0.2646484,-0.02978516,-0.1206055,-0.006835938,-0.2753906,0.2333984
1246,47.125,61.6875,18.9375,0.1948242,-0.1381836,-0.2016602,-0.01171875,-0.2719727,0.2333984
1250,68.8125,62,15.5625,0.1484375,-0.1113281,-0.3398438,-0.01513672,-0.2680664,0.237793
1254,82.8125,54.875,15.5,0.109375,-0.08789063,-0.4785156,-0.02246094,-0.2617188,0.2431641
1258,95.3125,46,11.875,0.1367188,-0.02197266,-0.6054688,-0.02587891,-0.2558594,0.2460938
1262,102.75,33.5,5.375,0.1518555,-0.1113281,-0.6245117,-0.03076172,-0.2480469,0.25
1266,120.875,30.8125,0.4375,0.2255859,-0.1499023,-0.6630859,-0.03320313,-0.2382813,0.2568359
1270,127.25,29.5625,-7.4375,0.2294922,-0.2314453,-0.6054688,-0.03417969,-0.2319336,0.2607422
1274,146.5625,27.1875,-19.375,0.2294922,-0.5151367,-0.5629883,-0.03515625,-0.2192383,0.2675781
1278,175.0625,27.75,-26.875,0.2797852,-0.8378906,-0.5170898,-0.03759766,-0.2055664,0.2773438
1283,234.4375,64.75,-4.6875,0.6479492,-0.7871094,-0.6977539,-0.04003906,-0.1918945,0.28125
1287,224.75,116.5,17.75,0.59375,-0.1967773,-0.9941406,-0.04589844,-0.1694336,0.2880859
1291,186.3125,130.25,25.75,0.3730469,-0.3442383,-1.170898,-0.06054688,-0.1479492,0.2949219
1295,189.0625,101.4375,6.625,0.03564453,-0.8144531,-1.121094,-0.06884766,-0.1342773,0.293457
1299,239.25,56,-16.875,0.0009765625,-1.272949,-1.063477,-0.07714844,-0.1166992,0.2973633
1303,284.125,37.5,-20.375,0.1635742,-1.164063,-1.063477,-0.08203125,-0.08935547,0.3032227
1307,290.4375,43.0625,-3.5,0.3188477,-1.121582,-1.090332,-0.08300781,-0.06933594,0.3032227
1311,289.6875,58.625,18.8125,0.3808594,-1.1875,-1.128418,-0.08886719,-0.04052734,0.300293
1315,285.5625,64.8125,30.375,0.3769531,-1.265137,-1.113281,-0.09619141,-0.01074219,0.2963867
1319,285.1875,61.875,29.0625,0.3847656,-1.331055,-1.086426,-0.09960938,0.008789063,0.293457
1323,292.1875,55.75,16.25,0.3730469,-1.436035,-1.028809,-0.1030273,0.03857422,0.2851563
1327,308.375,48.3125,3.5,0.3730469,-1.649902,-1.001465,-0.109375,0.06738281,0.2744141
1331,323.875,44,7.6875,0.3808594,-1.708008,-1.036133,-0.112793,0.08740234,0.2636719
1335,324.1875,47.4375,22.6875,0.4155273,-1.677246,-1.040039,-0.1162109,0.1176758,0.25
1339,316.25,53.4375,40,0.4541016,-1.669434,-1.01709,-0.1186523,0.1435547,0.230957
1343,311.875,59.125,49.375,0.5126953,-1.731445,-0.9516602,-0.1201172,0.1611328,0.2172852
1347,329.25,63.5,41.8125,0.5551758,-1.898438,-0.9130859,-0.1210938,0.1850586,0.1953125
1351,350.8125,68.625,30.4375,0.5820313,-1.9375,-0.8632813,-0.1220703,0.2084961,0.1699219
1355,356.9375,72.25,33.1875,0.5395508,-1.828613,-0.9248047,-0.1220703,0.2226563,0.1494141
1359,334.4375,70.375,48.75,0.4814453,-1.681152,-0.9248047,-0.1235352,0.2397461,0.1166992
1363,309.875,59.375,60.875,0.4506836,-1.743164,-0.8476563,-0.1220703,0.2539063,0.08691406
1367,305.3125,48.75,62.25,0.5048828,-1.820801,-0.7133789,-0.1186523,0.262207,0.06640625
1371,318.1875,43.125,51,0.5859375,-1.9375,-0.5400391,-0.1137695,0.2675781,0.03613281
1375,335.625,43,35.5,0.5708008,-1.852051,-0.4321289,-0.1103516,0.2763672,0.002441406
1379,327.3125,41.4375,33.5,0.4853516,-1.580078,-0.4707031,-0.109375,0.2763672,-0.01904297
1383,294.3125,39.5625,50.9375,0.4736328,-1.432129,-0.4785156,-0.1054688,0.2788086,-0.04736328
1387,268.9375,41.8125,65.9375,0.5087891,-1.34668,-0.4399414,-0.1010742,0.2739258,-0.07617188
1391,259.75,42.0625,61.4375,0.5009766,-1.257324,-0.4360352,-0.09375,0.2749023,-0.09375
1395,248.8125,36.9375,48.5,0.4658203,-1.066895,-0.4746094,-0.08789063,0.2700195,-0.1225586
1399,231.3125,31.875,38.125,0.4311523,-0.8300781,-0.5283203,-0.08300781,0.2636719,-0.1455078
1403,201,30,31.6875,0.4506836,-0.6279297,-0.5517578,-0.07958984,0.2573242,-0.1577148
1407,164.875,36.4375,33.6875,0.4311523,-0.421875,-0.559082,-0.07568359,0.25,-0.1767578
1412,119,41.8125,35.25,0.4428711,-0.3095703,-0.559082,-0.07128906,0.2426758,-0.1904297
1416,77.625,43.625,34.6875,0.3496094,-0.2006836,-0.6362305,-0.06738281,0.2397461,-0.1972656
1420,34.25,31.375,27.0625,0.2451172,-0.06835938,-0.628418,-0.06152344,0.2363281,-0.2041016
1424,-6.6875,7.0625,12.0625,0.1367188,-0.07226563,-0.5517578,-0.06054688,0.2373047,-0.2041016
1428,-40.8125,-22.3125,-0.6875,0.1289063,-0.2353516,-0.4248047,-0.05810547,0.2363281,-0.2041016
1432,-60.5625,-45.4375,-7.9375,0.1791992,-0.371582,-0.3398438,-0.06054688,0.2397461,-0.199707
1436,-75.1875,-60,-13.3125,0.2529297,-0.3911133,-0.2705078,-0.06396484,0.2436523,-0.1904297
1440,-97.3125,-66.1875,-16.1875,0.3110352,-0.3442383,-0.2744141,-0.06640625,0.2460938,-0.1875
1444,-127.5625,-65.0625,-16.125,0.3769531,-0.3598633,-0.3286133,-0.07226563,0.2509766,-0.1767578
1448,-155.4375,-57.125,-15.25,0.4194336,-0.4609375,-0.4282227,-0.07470703,0.2548828,-0.1616211
1452,-179.5,-49.6875,-12,0.4311523,-0.5581055,-0.5898438,-0.07958984,0.2612305,-0.1494141
1456,-205.6875,-46.125,-13.5,0.4619141,-0.5927734,-0.7133789,-0.08056641,0.2685547,-0.1318359
1460,-233.4375,-48.875,-25.75,0.4775391,-0.6630859,-0.8515625,-0.08300781,0.2724609,-0.1113281
1464,-267.125,-57.9375,-40.4375,0.4775391,-0.7988281,-0.9516602,-0.08789063,0.2763672,-0.09521484
1468,-296.9375,-68.625,-55.625,0.5512695,-1.074707,-0.9594727,-0.09228516,0.2788086,-0.06542969
1472,-310.9375,-73.6875,-69.625,0.6401367,-1.358398,-0.9360352,-0.09863281,0.2822266,-0.03515625
1476,-320.375,-70.5625,-73.25,0.6870117,-1.544922,-0.9326172,-0.1030273,0.2788086,-0.01220703
1480,-345,-61.3125,-61.0625,0.6635742,-1.634277,-0.9941406,-0.1103516,0.2739258,0.01855469
1484,-378.875,-52.3125,-41.6875,0.6015625,-1.727539,-1.105469,-0.112793,0.2675781,0.05419922
1488,-412.75,-51.75,-30.625,0.543457,-1.894531,-1.182617,-0.1137695,0.2573242,0.08007813
1492,-401.4375,-62.9375,-54.8125,0.6831055,-2.337402,-1.043945,-0.1162109,0.2412109,0.1166992
1496,-332,-65.4375,-101.875,0.7915039,-2.531738,-0.9018555,-0.1201172,0.2226563,0.1508789
1500,-308.8125,-57.5625,-106.375,0.7373047,-2.13916,-0.9980469,-0.1235352,0.2075195,0.168457
1504,-347,-51.125,-75.875,0.6479492,-1.917969,-1.166992,-0.1259766,0.1826172,0.1928711
1508,-388.1875,-46.3125,-41.125,0.5708008,-1.910156,-1.359375,-0.128418,0.1547852,0.2202148
1512,-426.25,-50.25,-17.0625,0.4931641,-1.875,-1.528809,-0.1269531,0.1347656,0.2348633
1516,-441.75,-67.5,1.9375,0.3652344,-2.112305,-1.682617,-0.1220703,0.09619141,0.2568359
1520,-424.0625,-92.8125,7,0.3847656,-2.267578,-1.647949,-0.1152344,0.05761719,0.2783203
1524,-362.875,-112.6875,4.625,0.4931641,-2.321777,-1.532715,-0.1079102,0.03027344,0.2866211
1528,-325.25,-113.9375,2.625,0.6210938,-1.777832,-1.459473,-0.09716797,-0.004394531,0.2973633
1532,-329.625,-93.875,9.625,0.6831055,-1.459473,-1.405762,-0.08544922,-0.03710938,0.3032227
1536,-338.4375,-83.9375,10.3125,0.5161133,-1.381836,-1.424805,-0.078125,-0.05957031,0.3032227
1541,-325.8125,-85.0625,3.6875,0.4116211,-1.342773,-1.420898,-0.07226563,-0.09179688,0.3032227
1545,-305.125,-96.3125,4.1875,0.3417969,-1.334961,-1.340332,-0.06152344,-0.1254883,0.300293
1549,-288.8125,-108.625,3.6875,0.2685547,-1.144531,-1.209473,-0.05419922,-0.1445313,0.2949219
1553,-276.1875,-119.9375,14.75,0.2993164,-1.059082,-1.051758,-0.04394531,-0.1743164,0.2880859
1557,-259.4375,-117.25,26.375,0.3305664,-0.9580078,-0.8745117,-0.03417969,-0.2016602,0.2773438
1561,-245.9375,-106.5625,41.125,0.3999023,-0.6938477,-0.809082,-0.02832031,-0.2167969,0.269043
1565,-238.8125,-94.625,35.9375,0.3959961,-0.5854492,-0.644043,-0.02246094,-0.2382813,0.2583008
1569,-213.5625,-91.25,15.125,0.4116211,-0.6005859,-0.5322266,-0.01513672,-0.2592773,0.2416992
1573,-174.9375,-96.875,-15.0625,0.4233398,-0.6279297,-0.3012695,-0.01025391,-0.2695313,0.237793
1577,-132.375,-89.8125,-35.0625,0.5161133,-0.5307617,-0.03613281,-0.001953125,-0.2817383,0.2241211
1581,-105.3125,-59.75,-34.25,0.5668945,-0.5112305,0.2060547,0.006835938,-0.2919922,0.2158203
1585,-82,-14,-18.5625,0.5161133,-0.534668,0.3251953,0.01171875,-0.296875,0.2158203
1589,-44.375,25.1875,-0.9375,0.4194336,-0.5854492,0.3017578,0.01074219,-0.3017578,0.2050781
1593,-4.6875,48.3125,8.8125,0.2954102,-0.5073242,0.2402344,0.009277344,-0.3066406,0.2036133
1597,26.5,59.5,16.375,0.2255859,-0.2978516,0.07519531,0.005859375,-0.3032227,0.2050781
1601,39.5,66.4375,18.8125,0.190918,-0.06835938,-0.05126953,0.0009765625,-0.3017578,0.2080078
1605,47.0625,68,13.8125,0.1210938,-0.01416016,-0.1513672,-0.005859375,-0.2993164,0.2119141
1609,63.25,60.75,7.1875,0.04736328,-0.04150391,-0.3051758,-0.009277344,-0.296875,0.2133789
1613,81.8125,53.75,3.625,0.07080078,-0.006347656,-0.4282227,-0.01416016,-0.2905273,0.2172852
1617,88.0625,50.6875,1.5625,0.06689453,0.07470703,-0.5092773,-0.01855469,-0.2841797,0.2226563
1621,92.375,47.875,3.3125,0.05517578,-0.01806641,-0.5825195,-0.02099609,-0.2783203,0.2270508
1625,102.75,44.125,5.9375,0.02050781,-0.01416016,-0.6899414,-0.02490234,-0.2705078,0.2324219
1629,106.875,29.5625,5.9375,-0.01416016,-0.1733398,-0.6899414,-0.02587891,-0.2607422,0.2416992
1633,127.6875,14.4375,-2.8125,0.02441406,-0.3911133,-0.6015625,-0.02929688,-0.2558594,0.2460938
1637,166.375,11.125,-10.3125,0.2177734,-0.5854492,-0.5517578,-0.02929688,-0.2441406,0.2524414
1641,197.875,35.1875,-17.625,0.3652344,-0.4296875,-0.6245117,-0.03076172,-0.2294922,0.2636719
1645,200.5,57.4375,-18.9375,0.3730469,-0.5463867,-0.7055664,-0.03320313,-0.2167969,0.2705078
1649,210.625,68.5,-22.5625,0.2915039,-0.7563477,-0.7514648,-0.03662109,-0.1958008,0.2797852
1653,229,67.625,-22.8125,0.2490234,-1.070801,-0.7709961,-0.04248047,-0.1782227,0.2851563
1657,262.375,73.0625,-14.6875,0.2758789,-1.133301,-0.8710938,-0.04736328,-0.1606445,0.2910156
1661,276.6875,83.8125,1.75,0.3769531,-1.078613,-0.9902344,-0.05419922,-0.1342773,0.2988281
1665,284.5,103.75,19.1875,0.4658203,-1.047363,-1.166992,-0.06396484,-0.1069336,0.3032227
1670,275.5625,112.0625,33.625,0.4077148,-1.062988,-1.270996,-0.06982422,-0.08691406,0.3017578
1674,269.5,101.125,36.8125,0.3378906,-1.125488,-1.324707,-0.08300781,-0.05957031,0.3032227
1678,280.5,80.6875,22.625,0.3110352,-1.296387,-1.317383,-0.09228516,-0.02832031,0.300293
1682,302.75,57.9375,11.6875,0.2954102,-1.416504,-1.313477,-0.09716797,-0.009277344,0.2973633
1686,321.3125,45.5,8.75,0.4541016,-1.443848,-1.355469,-0.1030273,0.02246094,0.2895508
1690,332.5625,46.3125,3.6875,0.5668945,-1.525391,-1.286133,-0.1069336,0.05371094,0.28125
1694,335.625,56.375,7.0625,0.59375,-1.568359,-1.255371,-0.1103516,0.07617188,0.2714844
1698,329,63.875,19.25,0.5898438,-1.595215,-1.232422,-0.1137695,0.1064453,0.2568359
1702,322.6875,69.25,25.75,0.6328125,-1.645996,-1.140137,-0.1201172,0.1323242,0.2348633
1706,330.8125,75.8125,17.8125,0.7177734,-1.781738,-1.078613,-0.1220703,0.1513672,0.2241211
1710,338.1875,87.125,15.125,0.7680664,-1.781738,-1.040039,-0.128418,0.1762695,0.199707
1714,325.8125,94.25,20.0625,0.7333984,-1.789551,-0.9594727,-0.1318359,0.2026367,0.1738281
1718,313.6875,98.5,34.5,0.7568359,-1.921875,-0.8515625,-0.1342773,0.2124023,0.15625
1722,323.25,107.3125,46.3125,0.7680664,-1.960449,-0.8208008,-0.1367188,0.2285156,0.125
1726,325.75,107.6875,52.5,0.7568359,-1.914063,-0.8129883,-0.1367188,0.2451172,0.09326172
1730,335.1875,110.0625,55.875,0.8032227,-1.960449,-0.7709961,-0.1367188,0.2524414,0.06884766
1734,334.75,112.8125,65.6875,0.7680664,-1.816895,-0.7553711,-0.1328125,0.262207,0.03759766
1738,322.5625,112.8125,71.25,0.7138672,-1.735352,-0.6860352,-0.1293945,0.2685547,0.002441406
1742,315.5625,108.4375,72.5625,0.7138672,-1.762695,-0.5478516,-0.1235352,0.2700195,-0.01904297
1746,320.9375,109.8125,71.1875,0.6557617,-1.661621,-0.5708008,-0.1162109,0.2724609,-0.05273438
1750,308.5625,99.4375,73.375,0.5395508,-1.45166,-0.5361328,-0.1079102,0.2709961,-0.08447266
1754,293.1875,87.125,75.9375,0.4467773,-1.237793,-0.5283203,-0.1020508,0.2661133,-0.1074219
1758,266.125,71.125,78.3125,0.4697266,-1.160156,-0.3901367,-0.09375,0.2612305,-0.137207
1762,261.875,66.625,76.125,0.4970703,-1.055176,-0.4399414,-0.08203125,0.2524414,-0.1616211
1766,235.875,60.9375,78.0625,0.4311523,-0.5893555,-0.5244141,-0.07568359,0.2475586,-0.1782227
1770,197.5,57.125,78.5,0.4814453,-0.3754883,-0.7363281,-0.06738281,0.2373047,-0.2011719
1774,153.0625,50.125,73.625,0.4580078,0.04003906,-0.9633789,-0.05810547,0.2299805,-0.2177734
1778,81.6875,34.125,56.25,0.4541016,0.4672852,-1.105469,-0.05224609,0.2236328,-0.2255859
1782,0.6875,17.0625,30.3125,0.4736328,0.4165039,-1.128418,-0.04736328,0.2197266,-0.230957
1786,-69.9375,-3.0625,-1.625,0.4389648,0.284668,-1.166992,-0.04394531,0.2226563,-0.2285156
1790,-119.9375,-20.875,-20.9375,0.3999023,0.03613281,-1.15918,-0.04589844,0.2260742,-0.2216797
1794,-159.8125,-45.375,-41.375,0.3574219,-0.1381836,-1.13623,-0.04980469,0.2338867,-0.2109375
1799,-187.1875,-72.5625,-64.5,0.3886719,-0.3208008,-1.101563,-0.05664063,0.2436523,-0.1958008
1803,-213.25,-97.6875,-85.9375,0.4541016,-0.4414063,-1.078613,-0.06494141,0.2475586,-0.1821289
1807,-246.25,-114.875,-102.1875,0.5708008,-0.6240234,-1.070801,-0.07470703,0.2548828,-0.15625
1811,-280.9375,-124.0625,-114.375,0.6518555,-0.8144531,-1.05957,-0.09130859,0.2651367,-0.1318359
1815,-320.5625,-128.75,-116.125,0.7412109,-1.08252,-1.063477,-0.09960938,0.2675781,-0.1113281
1819,-345.3125,-126.3125,-121.8125,0.8535156,-1.432129,-0.9902344,-0.112793,0.2709961,-0.07763672
1823,-366.9375,-118.0625,-112.375,0.8613281,-1.622559,-1.001465,-0.1259766,0.2700195,-0.03808594
1827,-397.9375,-109.125,-91.75,0.8959961,-1.898438,-0.9941406,-0.1318359,0.2685547,-0.01220703
1831,-399.5,-104.0625,-88.5,0.9077148,-2.20166,-0.9902344,-0.1411133,0.2587891,0.02685547
1835,-395.0625,-111.0625,-87.25,0.8803711,-2.225098,-0.9863281,-0.1435547,0.2485352,0.06884766
1839,-397.875,-117.25,-78,0.8769531,-2.306641,-1.05957,-0.1474609,0.2373047,0.09472656
1843,-401.4375,-122.0625,-63.5625,0.8378906,-2.321777,-1.094238,-0.1484375,0.21875,0.1303711
1847,-415.5,-126.5,-35.6875,0.7836914,-2.349121,-1.217285,-0.1450195,0.1962891,0.1669922
1851,-432.5,-128.4375,-5.1875,0.7758789,-2.353027,-1.33252,-0.1450195,0.1772461,0.1899414
1855,-451.9375,-128.4375,13.9375,0.7680664,-2.325684,-1.416992,-0.1342773,0.1459961,0.2211914
1859,-469.4375,-126.3125,23.9375,0.8300781,-2.337402,-1.436523,-0.1220703,0.1113281,0.2524414
1863,-439,-107.4375,14.875,0.8881836,-2.58252,-1.263184,-0.1137695,0.08251953,0.2661133
1867,-379.8125,-91.5625,7.75,0.6948242,-2.422852,-1.213379,-0.1044922,0.04248047,0.2851563
1871,-342.9375,-88.75,17.875,0.5239258,-2.053711,-1.297852,-0.09716797,0.01025391,0.2949219
1875,-332.3125,-86.8125,34.8125,0.5668945,-1.618652,-1.340332,-0.08886719,-0.01318359,0.300293
1879,-339.1875,-68.9375,52.875,0.6479492,-1.226563,-1.444336,-0.08056641,-0.04589844,0.3085938
1883,-359.75,-42,65.9375,0.6362305,-1.000977,-1.501953,-0.07470703,-0.07958984,0.3041992
1887,-367.875,-31.5,57.5,0.4389648,-1.125488,-1.505859,-0.07226563,-0.1030273,0.3017578
1891,-327.875,-48.125,32.375,0.2915039,-1.354492,-1.278809,-0.06884766,-0.140625,0.2919922
1895,-258.75,-69.1875,-5.4375,0.2993164,-1.171875,-1.097656,-0.06640625,-0.1694336,0.2841797
1899,-215.9375,-75.5625,-30,0.4428711,-0.6591797,-1.028809,-0.06054688,-0.1855469,0.2827148
1903,-217.0625,-59.4375,-36.5625,0.5473633,-0.3676758,-1.028809,-0.05224609,-0.2070313,0.2705078
1907,-231.0625,-33.6875,-33.25,0.5161133,-0.1850586,-1.090332,-0.04589844,-0.2270508,0.2636719
1911,-236.125,-19.8125,-29.3125,0.3847656,-0.2353516,-1.121094,-0.04248047,-0.2416992,0.2524414
1915,-234.1875,-22.875,-40.75,0.2255859,-0.2744141,-1.001465,-0.0390625,-0.2631836,0.2402344
1919,-216,-32.9375,-49.4375,0.2373047,-0.4804688,-0.7094727,-0.03173828,-0.2817383,0.2241211
1923,-181.3125,-30.625,-63.125,0.1870117,-0.6787109,-0.2978516,-0.02929688,-0.2929688,0.2133789
1928,-132.1875,-19.3125,-69.3125,0.1132813,-0.8457031,0.04443359,-0.0234375,-0.3056641,0.2011719
1932,-76.375,-3.4375,-58.875,-0.03710938,-1.070801,0.2329102,-0.01757813,-0.3144531,0.1943359
1936,-16.375,7.5,-21.3125,-0.1030273,-1.121582,0.1904297,-0.01416016,-0.3144531,0.1899414
1940,23.8125,27.5,30.75,0.08642578,-0.6977539,0.1674805,-0.01513672,-0.3168945,0.1889648
1944,29.75,60.8125,69.4375,0.1635742,-0.2353516,0.06738281,-0.02246094,-0.3129883,0.1928711
1948,18.1875,76.625,85.625,0.1445313,0.03222656,0.009765625,-0.02685547,-0.3120117,0.1928711
1952,25.5,74.4375,69.8125,0.09765625,-0.02587891,-0.01660156,-0.0390625,-0.3105469,0.1967773
1956,52.375,56.4375,41.1875,0.05126953,-0.1230469,-0.02441406,-0.04833984,-0.3056641,0.1953125
1960,88.125,36.5,13.8125,0.06689453,-0.3017578,-0.04394531,-0.05224609,-0.3056641,0.1982422
1964,122.4375,29.25,2,0.1289063,-0.3173828,-0.1245117,-0.05566406,-0.296875,0.2050781
1968,143.9375,26.125,7.9375,0.1328125,-0.4296875,-0.2207031,-0.05810547,-0.2880859,0.2172852
1972,164.4375,22.875,12.9375,0.1289063,-0.5424805,-0.2744141,-0.05810547,-0.2792969,0.2241211
1976,189.375,17.5,15.125,0.2104492,-0.6860352,-0.309082,-0.06054688,-0.2641602,0.2333984
1980,217.875,20.875,11.625,0.3266602,-0.7832031,-0.3476563,-0.06396484,-0.2480469,0.2470703
1984,253.9375,32.25,11.125,0.4775391,-0.8920898,-0.4628906,-0.06494141,-0.234375,0.2539063
1988,286.375,54.9375,7.75,0.6015625,-0.9467773,-0.5825195,-0.07128906,-0.2104492,0.2661133
1992,323.3125,92.625,29,0.7138672,-1.032227,-0.8515625,-0.07714844,-0.1831055,0.2783203
1996,327.4375,123.4375,52.375,0.5859375,-0.7563477,-1.197754,-0.08544922,-0.1621094,0.2827148
2000,282.375,116.1875,54.875,0.5512695,-0.5307617,-1.193848,-0.09716797,-0.1254883,0.2919922
2004,273.875,102.375,29.5625,0.527832,-1.121582,-1.086426,-0.1103516,-0.1005859,0.2919922
2008,323.0625,95.8125,21.75,0.574707,-1.412598,-1.224609,-0.1162109,-0.07958984,0.2919922
2012,334.5,96.0625,30.9375,0.5820313,-1.191406,-1.348145,-0.1245117,-0.04589844,0.2910156
2016,320,91.3125,45,0.6328125,-1.334961,-1.328613,-0.1342773,-0.01074219,0.2851563
2020,313.6875,88.25,50.5625,0.6401367,-1.459473,-1.282715,-0.1376953,0.01123047,0.2797852
2024,308.1875,81.25,50.3125,0.6401367,-1.521484,-1.205566,-0.1459961,0.04150391,0.2661133
2028,315.5,78.6875,44.4375,0.6713867,-1.677246,-1.132324,-0.1533203,0.07128906,0.2553711
2032,317.5,77.1875,51.75,0.690918,-1.793457,-1.101563,-0.1557617,0.08984375,0.2446289
2036,320.3125,76.125,65.125,0.6713867,-1.882813,-1.121094,-0.1591797,0.1201172,0.2255859
2040,333.375,65,69.375,0.6557617,-1.968262,-1.066895,-0.1601563,0.1435547,0.2050781
2044,356,59.375,67,0.7333984,-1.956543,-1.040039,-0.1640625,0.1625977,0.1889648
2048,355.375,66.75,78.6875,0.7875977,-1.80127,-0.9980469,-0.1616211,0.1875,0.1616211
2052,343.5,76.75,90.5625,0.8183594,-1.773926,-0.9941406,-0.1582031,0.2099609,0.1357422
2057,325.625,78.375,97.5625,0.7641602,-1.68457,-0.9287109,-0.1557617,0.2250977,0.1137695
2061,311.6875,66.75,78.6875,0.7021484,-1.809082,-0.7094727,-0.1518555,0.2387695,0.08398438
2065,325.25,53.0625,58.6875,0.6171875,-1.968262,-0.5976563,-0.1459961,0.2524414,0.05419922
2069,327.9375,39.875,60.4375,0.6132813,-1.933594,-0.5478516,-0.1435547,0.2573242,0.03369141
2073,339.0625,40.8125,58.625,0.7797852,-2.081055,-0.5014648,-0.1391602,0.262207,0.002441406
2077,344.75,49.5,68.5625,0.7954102,-1.789551,-0.5283203,-0.1328125,0.2685547,-0.03125
2081,318.9375,58,78.875,0.8183594,-1.61084,-0.4282227,-0.128418,0.2685547,-0.05273438
2085,310.625,68.5,69.5,0.8071289,-1.525391,-0.3286133,-0.1186523,0.2651367,-0.08691406
2089,293.9375,69.75,62.25,0.7099609,-1.331055,-0.309082,-0.112793,0.2597656,-0.1157227
2093,279.75,61.75,53.1875,0.574707,-1.269043,-0.2397461,-0.1054688,0.2573242,-0.1347656
2097,270.875,51.5,53.875,0.5820313,-1.109863,-0.2475586,-0.09960938,0.25,-0.1616211
2101,252.875,48.5,54.625,0.6401367,-0.9155273,-0.2128906,-0.09375,0.2387695,-0.1835938
2105,232.4375,59.375,54.6875,0.6982422,-0.6977539,-0.3051758,-0.08642578,0.2299805,-0.2011719
2109,200.125,70.9375,55.0625,0.6791992,-0.3793945,-0.4785156,-0.07958984,0.2197266,-0.2216797
2113,156.5,75.9375,48.5625,0.5898438,-0.1035156,-0.6821289,-0.07128906,0.2075195,-0.2368164
2117,102.4375,67.9375,35.1875,0.4428711,0.2456055,-0.9091797,-0.06640625,0.2026367,-0.2436523
2121,32.9375,45.8125,17,0.2915039,0.4360352,-1.028809,-0.06054688,0.1962891,-0.2543945
2125,-35.375,11.9375,1.9375,0.1791992,0.3427734,-1.051758,-0.05664063,0.1948242,-0.2558594
2129,-92,-18.875,-4.5,0.1557617,0.105957,-1.08252,-0.05908203,0.1972656,-0.2529297
2133,-130.9375,-53.125,-14.1875,0.1987305,-0.1035156,-1.051758,-0.05908203,0.2060547,-0.2421875
2137,-150.25,-85.125,-35.9375,0.3071289,-0.2202148,-1.032227,-0.06494141,0.2163086,-0.230957
2141,-176.5625,-112.625,-57.875,0.3999023,-0.2548828,-1.070801,-0.07128906,0.2211914,-0.2216797
2145,-215.5,-136.1875,-72.3125,0.4697266,-0.324707,-1.15918,-0.08398438,0.2299805,-0.2011719
2149,-271.875,-153.5625,-74.0625,0.5551758,-0.46875,-1.217285,-0.09619141,0.2426758,-0.1738281
2153,-336.25,-165.6875,-73.4375,0.7294922,-0.8496094,-1.221191,-0.1044922,0.2485352,-0.15625
2157,-372.25,-168.1875,-79.0625,0.9194336,-1.257324,-1.132324,-0.1176758,0.2597656,-0.1196289
2161,-379.6875,-158.5,-94,1.0625,-1.700195,-0.9941406,-0.1293945,0.2651367,-0.07861328
2165,-374.875,-141.8125,-97.5625,1.105469,-1.941406,-0.8862305,-0.1367188,0.2651367,-0.05029297
2169,-379.125,-122.0625,-86.625,1.059082,-2.073242,-0.8745117,-0.1474609,0.262207,-0.01220703
2173,-391.375,-111.5625,-66.8125,0.9697266,-2.225098,-0.9208984,-0.1518555,0.2539063,0.02832031
2177,-397.0625,-110.875,-52.5,0.9853516,-2.380371,-0.9707031,-0.1542969,0.2485352,0.05273438
2181,-404.25,-111.9375,-39.9375,0.9970703,-2.450195,-1.105469,-0.1567383,0.2348633,0.09228516
2186,-425.375,-113.875,-23.875,1.085938,-2.516113,-1.240234,-0.1533203,0.2163086,0.1289063
2190,-427.1875,-113.1875,-33.375,1.179199,-2.679688,-1.236328,-0.1518555,0.2011719,0.1547852
2194,-428.4375,-108.75,-31.375,1.089844,-2.562988,-1.263184,-0.1484375,0.1738281,0.1899414
2198,-444.0625,-102.5625,-12.75,0.9892578,-2.508301,-1.336426,-0.1411133,0.1411133,0.2202148
2202,-454.9375,-96.125,11.875,0.8920898,-2.426758,-1.348145,-0.1352539,0.1201172,0.2402344
2206,-465.5,-90.75,26.1875,0.8110352,-2.32959,-1.459473,-0.1259766,0.07861328,0.2636719
2210,-466.375,-91.25,32.75,0.7451172,-2.388184,-1.482422,-0.1176758,0.03857422,0.28125
2214,-433.3125,-91.4375,31.9375,0.6557617,-2.43457,-1.367188,-0.1103516,0.007324219,0.2910156
2218,-374.25,-94.125,24.4375,0.5239258,-2.158691,-1.19043,-0.1020508,-0.03076172,0.2973633
2222,-320.625,-96.75,25.125,0.4541016,-1.731445,-1.063477,-0.09130859,-0.06591797,0.2988281
2226,-294.625,-85.4375,15.875,0.4658203,-1.199219,-1.074707,-0.08544922,-0.08691406,0.300293
2230,-307.9375,-83.875,11.0625,0.4506836,-0.9619141,-1.174805,-0.07714844,-0.1157227,0.2988281
2234,-309.75,-76.125,10.75,0.4155273,-0.9853516,-1.109375,-0.06884766,-0.1494141,0.2910156
2238,-294.125,-61.125,18.875,0.3925781,-0.8300781,-0.9863281,-0.06494141,-0.1694336,0.2880859
2242,-274.1875,-38.6875,33.6875,0.3574219,-0.5776367,-0.9091797,-0.06054688,-0.1943359,0.2758789
2246,-269.6875,-17.5625,32.75,0.2797852,-0.3754883,-0.8862305,-0.06054688,-0.2192383,0.262207
2250,-264.625,-18.875,14.0625,0.175293,-0.4726563,-0.9130859,-0.05908203,-0.2358398,0.2524414
2254,-228.9375,-42.5,-7.8125,0.09033203,-0.6630859,-0.7749023,-0.05810547,-0.2558594,0.2392578
2258,-181.25,-49.5625,-18.9375,0.2255859,-0.4414063,-0.5170898,-0.05322266,-0.2744141,0.2255859
2262,-163.3125,-28.4375,-17.625,0.2875977,-0.1928711,-0.4130859,-0.05078125,-0.2841797,0.21875
2266,-155.4375,-8.5625,-15.9375,0.159668,-0.3754883,-0.3359375,-0.04833984,-0.296875,0.2104492
2270,-122.5625,-15.6875,-18.125,0.08251953,-0.519043,-0.394043,-0.04492188,-0.3056641,0.1982422
2274,-99.4375,-22.625,-20.75,0.125,-0.4067383,-0.1245117,-0.04248047,-0.3105469,0.1914063
2278,-75.375,-12.5,-21.625,0.1484375,-0.421875,0.05566406,-0.04150391,-0.3168945,0.1845703
2282,-46.5625,-6.4375,-21.3125,0.09033203,-0.4960938,0.1289063,-0.0390625,-0.3232422,0.1791992
2286,-7.6875,-8.875,-21.25,0.08642578,-0.6630859,0.1826172,-0.03759766,-0.3242188,0.1777344
2290,35.875,-2.875,-4.6875,0.206543,-0.6005859,0.1943359,-0.03662109,-0.3242188,0.1777344
2294,60.75,18.125,18.6875,0.2875977,-0.4492188,0.1748047,-0.03662109,-0.3232422,0.1831055
2298,78.125,41.3125,41.1875,0.3071289,-0.3598633,0.04443359,-0.0390625,-0.3178711,0.1860352
2302,90.5625,48.8125,44.75,0.2836914,-0.3286133,-0.07080078,-0.04492188,-0.3129883,0.1914063
2306,113.1875,42.8125,27.3125,0.2836914,-0.4492188,-0.07470703,-0.05078125,-0.3041992,0.199707
2310,156.1875,45.8125,17.6875,0.4116211,-0.5620117,-0.1552734,-0.05566406,-0.2993164,0.2050781
2315,182.375,61.25,11.875,0.4389648,-0.4492188,-0.2397461,-0.05810547,-0.2841797,0.2158203
2319,197.4375,71.6875,5.625,0.4272461,-0.6591797,-0.3476563,-0.06298828,-0.2705078,0.2294922
2323,235.375,78.75,2.4375,0.3808594,-0.9428711,-0.4975586,-0.06884766,-0.2568359,0.2333984
2327,267,82.4375,8.125,0.3652344,-0.9736328,-0.7016602,-0.07226563,-0.2392578,0.2485352
2331,293.625,88.125,24.6875,0.4350586,-1.000977,-0.8476563,-0.08300781,-0.2143555,0.2607422
2335,316.1875,100.8125,30.0625,0.4775391,-0.9467773,-1.013184,-0.08789063,-0.1943359,0.269043
2339,333,98.875,41.1875,0.4736328,-1.109863,-1.182617,-0.09863281,-0.1630859,0.2758789
2343,350.625,98.25,46,0.5668945,-1.125488,-1.30957,-0.1103516,-0.1293945,0.2841797
2347,351.4375,95.25,56.875,0.5820313,-0.9194336,-1.513184,-0.1152344,-0.1044922,0.2866211
2351,330.9375,93.875,62.5,0.5898438,-0.8066406,-1.524902,-0.1245117,-0.06933594,0.2895508
2355,306.375,82.25,61.1875,0.527832,-0.7485352,-1.686523,-0.1342773,-0.03710938,0.2851563
2359,277.5625,48.4375,32.3125,0.4658203,-0.7172852,-1.632813,-0.1391602,-0.015625,0.2827148
2363,284.3125,18.375,-3.5625,0.527832,-1.094238,-1.528809,-0.1435547,0.01269531,0.2773438
2367,300.4375,10.1875,-15.6875,0.6674805,-1.210938,-1.409668,-0.1450195,0.03759766,0.269043
2371,294.9375,25,-10.8125,0.8339844,-1.26123,-1.26709,-0.1474609,0.05615234,0.2636719
2375,275.6875,51.9375,5.6875,0.9501953,-1.509766,-1.155762,-0.1494141,0.08007813,0.25
2379,274.3125,79.1875,26.25,0.9423828,-1.766602,-1.047852,-0.1542969,0.1049805,0.237793
2383,288.25,93.75,33.75,0.8769531,-1.875,-0.9746094,-0.1582031,0.1186523,0.2241211
2387,309.125,92.625,26.375,0.8222656,-1.968262,-0.9516602,-0.1640625,0.1450195,0.206543
2391,323.3125,81.625,15.5,0.8149414,-2.049805,-0.7861328,-0.168457,0.1660156,0.1806641
2395,350.3125,73.0625,4.4375,0.7680664,-2.255859,-0.7207031,-0.1708984,0.1801758,0.1669922
2399,373.125,68,15.6875,0.7451172,-2.12793,-0.6669922,-0.1723633,0.1972656,0.1342773
2403,372.3125,75.0625,39,0.8730469,-2.069336,-0.5629883,-0.1757813,0.2172852,0.105957
2407,378.4375,99.1875,55.625,1.039551,-2.073242,-0.4052734,-0.1748047,0.2250977,0.08105469
2411,377.625,120.4375,66.5625,0.8959961,-1.925781,-0.4707031,-0.1723633,0.2387695,0.04443359
2415,370.3125,117.6875,71.125,0.6870117,-1.789551,-0.4824219,-0.1674805,0.2485352,0.0078125
2419,365.5,94.375,73.8125,0.574707,-1.867188,-0.5014648,-0.1640625,0.2509766,-0.01757813
2423,377,74.4375,77.1875,0.625,-1.914063,-0.4360352,-0.1582031,0.2548828,-0.05419922
2427,387.375,75.0625,88.25,0.7680664,-1.727539,-0.4091797,-0.1508789,0.2524414,-0.09228516
2431,370.875,87.6875,94.1875,0.7412109,-1.42041,-0.4438477,-0.1411133,0.25,-0.1157227
2435,349.8125,87.75,89.25,0.6791992,-1.338867,-0.5517578,-0.1328125,0.2412109,-0.1508789
2439,334.6875,77.75,82.6875,0.5317383,-1.11377,-0.7709961,-0.1210938,0.2299805,-0.1835938
2444,304.6875,60.875,78.75,0.5161133,-0.8183594,-0.878418,-0.1152344,0.2211914,-0.2026367
2448,270.4375,53.9375,75,0.574707,-0.5541992,-1.024902,-0.1044922,0.2050781,-0.2285156
2452,221.875,51.5,71.0625,0.574707,-0.1889648,-1.155762,-0.09472656,0.1899414,-0.2490234
2456,151.625,48.875,65.5625,0.5898438,0.1835938,-1.305664,-0.09033203,0.1811523,-0.2597656
2460,64.125,41.875,53.25,0.5161133,0.5566406,-1.397949,-0.08203125,0.1713867,-0.2705078
2464,-27.8125,24.4375,33.75,0.3925781,0.5644531,-1.436523,-0.07714844,0.1713867,-0.2705078
2468,-110.375,-9.625,12.9375,0.2875977,0.3193359,-1.459473,-0.07470703,0.1723633,-0.269043
2472,-161.25,-55.75,-12.75,0.2758789,-0.006347656,-1.371094,-0.07714844,0.1826172,-0.2612305
2476,-195.0625,-99.8125,-43.3125,0.3769531,-0.2124023,-1.301758,-0.08203125,0.1948242,-0.2446289
2480,-227.3125,-135.375,-70.1875,0.5356445,-0.4335938,-1.240234,-0.09033203,0.2050781,-0.2324219
2484,-274.25,-155.875,-90.125,0.6362305,-0.7172852,-1.263184,-0.1069336,0.2172852,-0.2094727
2488,-318.25,-165.125,-87.6875,0.8149414,-0.9038086,-1.166992,-0.1201172,0.2299805,-0.1796875
2492,-353,-167.8125,-96.4375,1.012207,-1.338867,-1.047852,-0.1303711,0.2387695,-0.1577148
2496,-348,-164.25,-122.4375,1.202148,-1.809082,-0.8325195,-0.1474609,0.2475586,-0.1196289
2500,-329.5,-153.5625,-136.5,1.171387,-1.987793,-0.7553711,-0.1601563,0.2460938,-0.08154297
2504,-343.1875,-150.25,-115.125,0.9931641,-2.01123,-0.7939453,-0.1674805,0.2460938,-0.05712891
2508,-370.9375,-157,-75.875,0.8652344,-2.120117,-0.878418,-0.1806641,0.2436523,-0.02050781
2512,-406.4375,-172.875,-28.3125,0.7875977,-2.228516,-1.01709,-0.184082,0.2373047,0.01855469
2516,-405.875,-193.875,-25.125,1.225586,-2.834961,-0.809082,-0.1806641,0.2324219,0.04980469
2520,-344.125,-194.75,-56.4375,1.500488,-2.970703,-0.59375,-0.1806641,0.21875,0.09082031
2524,-328.625,-180.1875,-57.6875,1.496582,-2.46582,-0.5708008,-0.1782227,0.2036133,0.1259766
2528,-364.375,-170.0625,-39.0625,1.380371,-2.248047,-0.6977539,-0.1733398,0.1899414,0.1479492
2532,-401.375,-161.4375,-18.5625,1.337891,-2.162598,-0.809082,-0.1674805,0.1689453,0.1821289
2536,-439.125,-149.75,5.625,1.244629,-2.189941,-0.9248047,-0.1591797,0.1376953,0.2133789
2540,-473.9375,-138,45.125,1.023926,-2.217285,-1.125,-0.1484375,0.1152344,0.2333984
2544,-489.75,-138.125,74.125,0.8920898,-2.189941,-1.278809,-0.1376953,0.07617188,0.262207
2548,-496,-133,99.75,0.8574219,-1.999512,-1.467285,-0.1201172,0.03515625,0.2783203
2552,-510.125,-130.3125,100.625,0.7954102,-1.67334,-1.63623,-0.1079102,0.007324219,0.2919922
2556,-506.8125,-123.625,94.25,0.7641602,-1.968262,-1.524902,-0.09716797,-0.04052734,0.300293
2560,-449.9375,-114.75,94.125,0.574707,-2.069336,-1.340332,-0.08398438,-0.08837891,0.2988281
2564,-371.875,-120.8125,82.8125,0.4814453,-1.731445,-1.182617,-0.07714844,-0.1157227,0.2963867
2568,-304.4375,-114.75,55.9375,0.6328125,-1.358398,-1.001465,-0.06738281,-0.1508789,0.2919922
2573,-247.25,-92.375,24.625,0.7255859,-0.9194336,-0.8862305,-0.05908203,-0.1757813,0.2827148
2577,-228.3125,-78.4375,-0.75,0.59375,-0.7094727,-0.8979492,-0.05419922,-0.1933594,0.2783203
2581,-208.6875,-76.25,-6.75,0.4892578,-0.6357422,-0.84375,-0.04394531,-0.2128906,0.2705078
2585,-189.625,-66.3125,1.6875,0.4970703,-0.4375,-0.7978516,-0.0390625,-0.2329102,0.2607422
2589,-191.375,-49.9375,16.1875,0.4931641,-0.3364258,-0.6630859,-0.03662109,-0.2416992,0.2524414
2593,-192,-30.5625,20.75,0.4428711,-0.2978516,-0.5478516,-0.03417969,-0.2583008,0.2416992
2597,-160.625,-15.375,10.1875,0.4194336,-0.3833008,-0.4477539,-0.03320313,-0.2744141,0.230957
2601,-127.3125,-4.625,-7.75,0.3266602,-0.3017578,-0.3901367,-0.02929688,-0.2817383,0.2211914
2605,-109.6875,5.6875,-7.1875,0.3227539,-0.1230469,-0.4516602,-0.03173828,-0.2919922,0.2158203
2609,-120.25,11.875,0.0625,0.2333984,0.1367188,-0.5170898,-0.03076172,-0.2993164,0.2080078
2613,-132.9375,9.75,-1.0625,0.1635742,0.04394531,-0.4746094,-0.03173828,-0.3066406,0.2011719
2617,-116.5625,-1.375,-6.625,0.06689453,-0.2353516,-0.394043,-0.03173828,-0.3144531,0.1889648
2621,-82,-15,-15.3125,0.07470703,-0.2705078,-0.2089844,-0.03076172,-0.3217773,0.1831055
2625,-48,-21.125,-22.75,0.1289063,-0.2509766,-0.08984375,-0.02832031,-0.3266602,0.1777344
2629,-18.5625,-17.375,-20.8125,0.190918,-0.2275391,-0.109375,-0.02587891,-0.3266602,0.1762695
2633,-1.625,-13.25,-12.6875,0.2607422,-0.1616211,-0.1669922,-0.0234375,-0.328125,0.175293
2637,7.125,1.875,-2,0.3227539,-0.07226563,-0.128418,-0.0234375,-0.328125,0.175293
2641,16.75,23.3125,9,0.2724609,-0.05273438,-0.1435547,-0.0234375,-0.3291016,0.1777344
2645,30.1875,30,14.75,0.125,-0.06445313,-0.2055664,-0.02587891,-0.3256836,0.1777344
2649,54.25,18.9375,12.1875,0.1054688,-0.1420898,-0.2670898,-0.02832031,-0.3242188,0.1806641
2653,85,9.125,4.3125,0.1557617,-0.1850586,-0.2475586,-0.03076172,-0.3208008,0.1831055
2657,112.9375,9.3125,-2.0625,0.2373047,-0.2314453,-0.2397461,-0.03173828,-0.3168945,0.1914063
2661,138.1875,17.0625,-9.4375,0.2836914,-0.3833008,-0.2246094,-0.03320313,-0.3095703,0.199707
2665,172.5625,31.75,-3.75,0.3535156,-0.5463867,-0.309082,-0.03320313,-0.2983398,0.2089844
2669,198.4375,57.25,12.125,0.4350586,-0.4414063,-0.4902344,-0.03417969,-0.2832031,0.2211914
2673,206.1875,81.5625,24.4375,0.4272461,-0.5463867,-0.5170898,-0.03759766,-0.2729492,0.230957
2677,222,95.0625,29.875,0.3417969,-0.7563477,-0.559082,-0.04589844,-0.2543945,0.2431641
2681,241.0625,92.875,33.375,0.2993164,-0.9311523,-0.6401367,-0.05810547,-0.2358398,0.2553711
2685,281.1875,97.8125,41.375,0.4428711,-1.043945,-0.8364258,-0.06298828,-0.2207031,0.2636719
2689,306,107.6875,47.375,0.4814453,-0.8999023,-1.043945,-0.07226563,-0.1918945,0.2744141
2693,313.3125,111,54.9375,0.4892578,-1.000977,-1.20166,-0.08544922,-0.1621094,0.2841797
2697,316.3125,106.8125,54.8125,0.4506836,-0.9658203,-1.301758,-0.09472656,-0.1396484,0.2880859
2702,302.1875,89.5,52.5,0.4775391,-0.9194336,-1.30957,-0.1054688,-0.1054688,0.293457
2706,304.625,81.5,42.6875,0.5395508,-1.125488,-1.278809,-0.1162109,-0.07324219,0.293457
2710,315.125,75.5,32.375,0.5898438,-1.374023,-1.278809,-0.1201172,-0.05322266,0.2919922
2714,328,73.25,29.9375,0.6289063,-1.649902,-1.244141,-0.1269531,-0.01953125,0.2880859
2718,347.1875,73.4375,37.625,0.675293,-1.844238,-1.240234,-0.1342773,0.01269531,0.28125
2722,359.6875,76.125,42.3125,0.7641602,-1.743164,-1.255371,-0.1376953,0.03369141,0.2714844
2726,357.75,77.375,40.0625,0.7680664,-1.74707,-1.286133,-0.1425781,0.06982422,0.2583008
2730,359.25,74,44.8125,0.7836914,-1.890625,-1.282715,-0.1484375,0.1025391,0.2402344
2734,374.0625,73.125,33.3125,0.9853516,-2.124023,-1.217285,-0.1518555,0.1235352,0.2280273
2738,395.125,86.3125,16.5,1.09375,-2.182129,-1.117188,-0.1542969,0.1538086,0.199707
2742,385.125,107.5,22.625,1.085938,-2.275391,-0.9746094,-0.1601563,0.1801758,0.1738281
2746,375.6875,129.9375,59.4375,1.047363,-2.469727,-0.9633789,-0.1640625,0.1923828,0.1547852
2750,381.5,143.5,99.625,1.027832,-2.438477,-1.005371,-0.1650391,0.2163086,0.1166992
2754,392,144.4375,120.6875,1.055176,-2.306641,-1.040039,-0.1625977,0.2363281,0.07861328
2758,403.3125,133.875,116.125,1.008301,-2.12793,-1.078613,-0.1567383,0.2460938,0.05273438
2762,404.5,113.5,95.75,0.9658203,-1.976074,-1.001465,-0.1474609,0.2587891,0.009277344
2766,411.75,97.3125,69.3125,0.9389648,-1.983887,-0.9516602,-0.1411133,0.262207,-0.02832031
2770,407.375,85.8125,67.1875,0.8071289,-1.770508,-0.9326172,-0.1376953,0.2651367,-0.05712891
2774,374.875,79.625,82.3125,0.7294922,-1.389648,-0.894043,-0.1293945,0.2587891,-0.09765625
2778,324.375,67.6875,82.625,0.6831055,-1.191406,-0.6630859,-0.1210938,0.2539063,-0.1303711
2782,303.6875,59.5625,61.75,0.6870117,-1.272949,-0.4785156,-0.1137695,0.2475586,-0.1523438
2786,298.75,52.625,37.9375,0.5976563,-1.179688,-0.378418,-0.1069336,0.2363281,-0.1796875
2790,280.1875,43.9375,25.5,0.4272461,-0.8725586,-0.3666992,-0.1030273,0.2211914,-0.2055664
2794,243.1875,32.875,25.6875,0.3959961,-0.7407227,-0.3325195,-0.09716797,0.2124023,-0.2202148
2798,207.875,26.75,31.1875,0.3457031,-0.6044922,-0.2744141,-0.09375,0.1972656,-0.2407227
2802,177.3125,27.9375,34.8125,0.3925781,-0.484375,-0.3129883,-0.09130859,0.1850586,-0.2543945
2806,147.6875,32.75,33.0625,0.3959961,-0.1928711,-0.4824219,-0.08642578,0.1762695,-0.2651367
2810,95.5,27.875,26.75,0.2797852,0.2495117,-0.7514648,-0.08398438,0.1674805,-0.2734375
2814,30,12.25,14.9375,0.2451172,0.4360352,-0.9052734,-0.08056641,0.1635742,-0.2802734
2818,-30.0625,-8.6875,6.375,0.2255859,0.2651367,-1.005371,-0.07958984,0.1625977,-0.2817383
2822,-80.9375,-27.4375,-5.625,0.3110352,0.2768555,-1.070801,-0.07958984,0.1660156,-0.2773438
2826,-127,-47.8125,-17.0625,0.2993164,0.2924805,-1.117188,-0.08300781,0.1738281,-0.269043
2831,-181.25,-70.0625,-26.3125,0.3227539,0.1875,-1.19043,-0.08642578,0.1801758,-0.2597656
2835,-235.25,-91.5625,-35.3125,0.4116211,0.02050781,-1.270996,-0.09472656,0.1938477,-0.2446289
2839,-292.4375,-112.4375,-46.125,0.5048828,-0.1850586,-1.378906,-0.1020508,0.2099609,-0.2202148
2843,-344.4375,-131.125,-58.6875,0.7333984,-0.6279297,-1.367188,-0.1103516,0.2211914,-0.2011719
2847,-377.1875,-139.9375,-73.5,0.8920898,-1.059082,-1.394043,-0.1220703,0.2373047,-0.1660156
2851,-403.875,-147.6875,-81,0.9272461,-1.237793,-1.409668,-0.1342773,0.2475586,-0.1279297
2855,-447.8125,-155.0625,-66.0625,0.9541016,-1.463379,-1.490234,-0.1411133,0.2524414,-0.09912109
2859,-492.4375,-154.8125,-41.5625,1.047363,-1.777832,-1.536621,-0.1494141,0.2573242,-0.05029297
2863,-522.6875,-146.875,-28.3125,1.252441,-2.146973,-1.467285,-0.1533203,0.2548828,0
2867,-513.875,-117.0625,-38.625,1.46582,-2.49707,-1.336426,-0.1533203,0.2539063,0.03515625
2871,-501.5,-105.75,-47.5625,1.16748,-2.605469,-1.432617,-0.1542969,0.2387695,0.08544922
2875,-500.5625,-121.5,-33.8125,0.9389648,-2.726074,-1.625,-0.1557617,0.2138672,0.1289063
2879,-507.25,-142.4375,-6.75,0.8149414,-2.780273,-1.782715,-0.1518555,0.1972656,0.1572266
2883,-513.9375,-151.0625,25.3125,0.8149414,-2.88916,-1.844238,-0.1425781,0.1674805,0.1967773
2887,-472.8125,-139.5,5.4375,1.198242,-3.130371,-1.524902,-0.1303711,0.1313477,0.2324219
2891,-405.375,-107.75,-26.875,1.121094,-2.749512,-1.44043,-0.1220703,0.1064453,0.25
2895,-401.25,-86.75,-22.625,0.9423828,-2.438477,-1.55957,-0.1152344,0.06982422,0.2714844
2899,-403.375,-64.875,1.5,0.8417969,-2.39209,-1.571289,-0.1069336,0.03027344,0.2851563
2903,-385.9375,-44.4375,22.625,0.644043,-2.174316,-1.625,-0.1044922,0.00390625,0.2919922
2907,-375.6875,-48.9375,30.125,0.4233398,-1.828613,-1.655762,-0.09863281,-0.03466797,0.2973633
2911,-361.3125,-66.9375,21.1875,0.3110352,-1.766602,-1.594238,-0.09228516,-0.06933594,0.2988281
2915,-321.0625,-93.1875,1.125,0.3457031,-1.622559,-1.394043,-0.08886719,-0.09082031,0.2973633
2919,-279.3125,-107.25,-27.5,0.4233398,-1.350586,-1.290039,-0.07958984,-0.1254883,0.2963867
2923,-250.5625,-100,-40.8125,0.5820313,-0.9697266,-1.174805,-0.06640625,-0.1533203,0.2910156
2927,-251.375,-82.4375,-39.1875,0.527832,-0.6708984,-1.182617,-0.05908203,-0.1694336,0.2880859
2931,-254.125,-64.625,-28.5,0.4775391,-0.6474609,-1.125,-0.05224609,-0.1943359,0.2773438
2935,-244.125,-48.6875,-16.9375,0.4155273,-0.519043,-1.144043,-0.04492188,-0.2182617,0.2661133
2939,-244.875,-41.25,-6.875,0.3808594,-0.3286133,-1.090332,-0.04150391,-0.2329102,0.2592773
2943,-241.4375,-34,-9.5625,0.3613281,-0.3134766,-0.9707031,-0.03662109,-0.2583008,0.2446289
2947,-226.5625,-29.6875,-19.875,0.3613281,-0.3481445,-0.8017578,-0.03515625,-0.2753906,0.2294922
2951,-206,-16.875,-28.375,0.3925781,-0.3056641,-0.6821289,-0.03417969,-0.2866211,0.2202148
2955,-198.75,0.3125,-34,0.3071289,-0.2705078,-0.5361328,-0.02929688,-0.3017578,0.2089844
2960,-185.0625,3.375,-39.6875,0.09375,-0.5463867,-0.4824219,-0.02685547,-0.3154297,0.1899414
2964,-155.0625,-17.9375,-35.1875,-0.03710938,-0.8300781,-0.2475586,-0.02490234,-0.3232422,0.1806641
2968,-111.25,-18.5,-17.4375,0.05517578,-0.8027344,0.03662109,-0.02099609,-0.3330078,0.1699219
2972,-76.6875,1.25,12.6875,0.08251953,-0.5854492,0.08251953,-0.02246094,-0.3408203,0.1630859
2976,-64.625,11.625,33.75,0.02441406,-0.3442383,-0.04394531,-0.02099609,-0.3442383,0.1572266
2980,-44.8125,6.875,40.875,0.02441406,-0.3833008,-0.07470703,-0.02490234,-0.3442383,0.1494141
2984,-12.625,6.25,39.9375,0.1171875,-0.1616211,-0.08984375,-0.02929688,-0.3466797,0.1508789
2988,-1.0625,10.25,38.25,0.1132813,-0.01025391,-0.1015625,-0.03076172,-0.3481445,0.1494141
2992,15.125,7.875,31.375,0.07470703,-0.1191406,-0.128418,-0.03515625,-0.3466797,0.1494141
2996,45.75,0.8125,17.6875,0.109375,-0.2084961,-0.09765625,-0.03662109,-0.3442383,0.1518555
3000,79.5625,-2.75,7.625,0.1445313,-0.2900391,-0.112793,-0.03759766,-0.3417969,0.1518555
3004,108.25,-1.25,4.875,0.1987305,-0.387207,-0.1362305,-0.0390625,-0.3354492,0.1586914
3008,147.6875,3.4375,0.25,0.2836914,-0.534668,-0.1401367,-0.0390625,-0.3291016,0.1723633
3012,184.0625,17.25,-4.5,0.3847656,-0.519043,-0.1938477,-0.03759766,-0.3242188,0.1806641
3016,205.375,36.75,-4.6875,0.5048828,-0.503418,-0.34375,-0.04003906,-0.3095703,0.1953125
3020,221.0625,56.3125,-9.3125,0.559082,-0.6860352,-0.378418,-0.04394531,-0.2929688,0.2133789
3024,252.5,74.4375,-19.4375,0.609375,-0.9970703,-0.4477539,-0.04589844,-0.2817383,0.2226563
3028,293.75,100.3125,-24.75,0.6791992,-1.226563,-0.5864258,-0.05078125,-0.2617188,0.2392578
3032,332.9375,131.125,-5.75,0.6870117,-1.370117,-0.7670898,-0.05810547,-0.2358398,0.2553711
3036,370.75,159.8125,26.375,0.6328125,-1.463379,-1.094238,-0.06494141,-0.2128906,0.2651367
3040,371.1875,166.0625,56.6875,0.6132813,-1.08252,-1.459473,-0.08203125,-0.1782227,0.2773438
3044,330.1875,147.8125,58.625,0.6518555,-0.8222656,-1.578613,-0.1010742,-0.1420898,0.2841797
3048,323.1875,127.0625,40.375,0.675293,-1.245605,-1.482422,-0.1079102,-0.1196289,0.2880859
3052,358.3125,117.1875,15.0625,0.7836914,-1.463379,-1.424805,-0.1220703,-0.08691406,0.2880859
3056,380.8125,112.4375,11.3125,0.7412109,-1.645996,-1.482422,-0.1328125,-0.05175781,0.2866211
3060,397.1875,107.0625,34.4375,0.7602539,-1.917969,-1.505859,-0.1425781,-0.02441406,0.2827148
3064,393.0625,97.5,60.375,0.7954102,-1.634277,-1.659668,-0.1494141,0.01367188,0.2729492
3068,362.125,82.875,55.8125,0.8803711,-1.552734,-1.532715,-0.1557617,0.05273438,0.2568359
3072,367.625,64.3125,32.5625,0.8613281,-1.855957,-1.494141,-0.1591797,0.07519531,0.25
3076,402.3125,42.75,5.375,0.9501953,-2.13916,-1.394043,-0.1640625,0.1064453,0.230957
3080,449.9375,39.5625,-10.5625,1.02002,-2.248047,-1.363281,-0.1674805,0.1376953,0.2050781
3084,458.6875,57.8125,21.0625,1.097656,-2.124023,-1.324707,-0.1699219,0.1586914,0.1860352
3089,431.5625,82.875,65.125,1.16748,-1.886719,-1.344238,-0.1708984,0.1875,0.1547852
3093,376.1875,97.375,80.5625,1.26416,-1.560547,-1.209473,-0.1699219,0.2114258,0.1191406
3097,346.9375,112.4375,66.125,1.302734,-1.848145,-1.001465,-0.1674805,0.2236328,0.09765625
3101,354.4375,130.8125,49.3125,1.279785,-2.112305,-0.8286133,-0.1650391,0.2363281,0.06201172
3105,361.1875,149,54.375,1.155762,-2.120117,-0.7749023,-0.1650391,0.2475586,0.02832031
3109,328.375,173.9375,98.4375,1.159668,-1.972168,-0.6899414,-0.1616211,0.25,0.0009765625
3113,300.125,201.6875,139.1875,1.097656,-1.90625,-0.7441406,-0.1533203,0.2573242,-0.03369141
3117,279.25,189.25,138.25,0.6948242,-1.576172,-0.9785156,-0.1376953,0.2597656,-0.06787109
3121,279.5625,132.9375,94.0625,0.4311523,-1.576172,-0.9477539,-0.1293945,0.2612305,-0.08984375
3125,310.4375,65.0625,40.75,0.2490234,-1.537109,-0.9477539,-0.1186523,0.2573242,-0.1196289
3129,322.625,12.4375,20.625,0.2607422,-1.199219,-0.8671875,-0.1152344,0.2485352,-0.1508789
3133,299.1875,-6.5,25.75,0.4541016,-0.8959961,-0.6708984,-0.1137695,0.2412109,-0.1713867
3137,267,7.0625,36.6875,0.6289063,-0.6396484,-0.5864258,-0.112793,0.2275391,-0.1958008
3141,220.3125,24.375,33.3125,0.675293,-0.2509766,-0.4360352,-0.1069336,0.2163086,-0.2163086
3145,182.375,41.625,12.4375,0.6289063,-0.1074219,-0.5478516,-0.1044922,0.2075195,-0.2246094
3149,138.625,44.25,-2.9375,0.4077148,0.21875,-0.6821289,-0.1020508,0.1938477,-0.2436523
3153,67.125,31.25,-4.25,0.2451172,0.4829102,-0.7553711,-0.09960938,0.1875,-0.2490234
3157,-2.375,16.125,-2.125,0.2104492,0.5175781,-0.6899414,-0.09863281,0.1850586,-0.2543945
3161,-59.25,-0.0625,1.8125,0.2255859,0.1679688,-0.574707,-0.09716797,0.1860352,-0.2529297
3165,-85,-13.9375,-4.0625,0.2138672,-0.02978516,-0.5053711,-0.09863281,0.1923828,-0.2460938
3169,-101.6875,-37.1875,-16.625,0.2026367,-0.08007813,-0.4746094,-0.09863281,0.1948242,-0.2421875
3173,-113.9375,-64.875,-38.0625,0.2451172,-0.09960938,-0.4824219,-0.1020508,0.2026367,-0.230957
3177,-130.625,-92.5,-56.375,0.2915039,-0.1191406,-0.5478516,-0.1103516,0.2084961,-0.2202148
3181,-157.375,-112.625,-64.75,0.3417969,-0.1420898,-0.6977539,-0.1186523,0.2124023,-0.2094727
3185,-194.625,-127.4375,-60.5,0.4697266,-0.2392578,-0.8208008,-0.1303711,0.2226563,-0.1918945
3189,-241.6875,-129.75,-51.375,0.6015625,-0.3833008,-0.8515625,-0.1401367,0.2285156,-0.168457
3193,-287.25,-121,-52.75,0.8110352,-1.144531,-0.7861328,-0.1474609,0.2348633,-0.1508789
3197,-286.5,-96.875,-63.6875,1.000488,-1.203125,-0.6015625,-0.1542969,0.2397461,-0.1225586
3201,-279.375,-80.3125,-71.5625,0.9658203,-1.319336,-0.6206055,-0.1625977,0.2451172,-0.08984375
3205,-278.25,-78.5,-74.6875,0.8378906,-1.308105,-0.7900391,-0.1674805,0.2451172,-0.07324219
3209,-299.5,-92.5,-69.0625,0.7451172,-1.288574,-0.9326172,-0.1757813,0.2426758,-0.04638672
3213,-332.9375,-116.125,-52.5,0.6831055,-1.416504,-1.047852,-0.1816406,0.2412109,-0.01367188
3218,-352.125,-132.0625,-41.25,1.047363,-1.863281,-0.8515625,-0.1831055,0.2387695,0.0078125
3222,-317.75,-108,-61,1.430664,-2.205566,-0.5629883,-0.1855469,0.2314453,0.04296875
3226,-291.75,-73.4375,-70.125,1.318359,-2.053711,-0.559082,-0.1875,0.2197266,0.07177734
3230,-304.5,-54.0625,-61.9375,1.151855,-1.90625,-0.7016602,-0.1899414,0.2114258,0.09082031
3234,-331.25,-52.25,-53.875,1.027832,-1.875,-0.824707,-0.1914063,0.1948242,0.1166992
3238,-355.4375,-58.75,-41.625,0.9501953,-2.04248,-0.894043,-0.1938477,0.1762695,0.144043
3242,-365.25,-66.75,-21.75,0.8691406,-2.162598,-0.9941406,-0.1923828,0.1635742,0.1601563
3246,-362.5,-77.375,-13,1.027832,-2.376465,-0.9169922,-0.1889648,0.1411133,0.1860352
3250,-311.3125,-76.6875,-25.5625,1.105469,-2.368652,-0.9360352,-0.1855469,0.1176758,0.2080078
3254,-289.6875,-95.5,-35.4375,0.8881836,-1.960449,-1.174805,-0.184082,0.1010742,0.2202148
3258,-289.75,-134.3125,-44.625,0.8613281,-1.544922,-1.359375,-0.1757813,0.07763672,0.2392578
3262,-308.625,-163.625,-52.3125,0.8652344,-1.1875,-1.571289,-0.1650391,0.04882813,0.2553711
3266,-344.125,-172.375,-30.6875,0.9233398,-1.21875,-1.686523,-0.1542969,0.02880859,0.2651367
3270,-387.5625,-171,5,0.8613281,-1.195313,-1.867188,-0.1425781,-0.005859375,0.28125
3274,-431.9375,-174.25,33.625,0.8032227,-1.436035,-1.894043,-0.1245117,-0.04443359,0.2919922
3278,-441,-186.3125,51.1875,0.7758789,-1.576172,-1.805664,-0.1137695,-0.07324219,0.2919922
3282,-420.8125,-198.375,36.25,0.7719727,-1.385742,-1.678711,-0.09375,-0.1157227,0.2949219
3286,-398.0625,-207.5625,-1.9375,0.7875977,-1.183594,-1.475098,-0.07714844,-0.1567383,0.2866211
3290,-378.8125,-213.5,-25.5,0.7719727,-1.315918,-1.340332,-0.06396484,-0.1821289,0.2797852
3294,-337.9375,-198.5625,-22.75,0.7797852,-1.509766,-0.9360352,-0.04394531,-0.2167969,0.2661133
3298,-273.9375,-157.4375,-2.1875,0.7490234,-1.366211,-0.5478516,-0.02685547,-0.2431641,0.2524414
3302,-220.4375,-103.75,17.1875,0.7529297,-1.055176,-0.2900391,-0.01855469,-0.2592773,0.2416992
3306,-180.5625,-53.4375,13,0.659668,-0.5737305,-0.2397461,-0.01269531,-0.2744141,0.2294922
3310,-154.875,-29.3125,-16.5625,0.5009766,-0.4570313,-0.2055664,-0.01025391,-0.2905273,0.2172852
3314,-109.875,-19.375,-46.1875,0.3730469,-0.5073242,-0.2016602,-0.0078125,-0.296875,0.2119141
3318,-76.1875,-1.9375,-45.75,0.3188477,-0.2939453,-0.2089844,-0.003417969,-0.3056641,0.2036133
3322,-77.6875,21.625,-29.4375,0.1328125,-0.1459961,-0.2207031,0,-0.3105469,0.1982422
3326,-76.125,28.4375,-6.75,-0.01416016,-0.2509766,-0.2631836,-0.0009765625,-0.3144531,0.1928711
3330,-60.5625,19.4375,7.3125,-0.1225586,-0.3833008,-0.2207031,-0.0009765625,-0.3208008,0.1889648
3334,-35.3125,13.625,20.8125,-0.07226563,-0.3325195,-0.1362305,-0.001953125,-0.3242188,0.1821289
3338,-15.0625,16,31.875,-0.01025391,-0.2509766,-0.08203125,-0.005859375,-0.3242188,0.1821289
3342,2.875,19.875,35.8125,0.04736328,-0.1733398,-0.0859375,-0.009277344,-0.3256836,0.1831055
3347,25.375,19.875,34.25,0.08642578,-0.2705078,-0.0859375,-0.01269531,-0.3242188,0.1845703
3351,47.0625,20.8125,38.1875,0.1635742,-0.09570313,-0.1630859,-0.01757813,-0.3232422,0.1845703
3355,46.0625,25.3125,36.9375,0.2026367,0.004882813,-0.1435547,-0.02099609,-0.3193359,0.1875
3359,61.9375,25.9375,26,0.175293,-0.2045898,-0.1474609,-0.02587891,-0.3154297,0.1914063
3363,90.875,19.625,7.3125,0.159668,-0.4067383,-0.112793,-0.02587891,-0.3105469,0.1953125
3367,128.3125,14.5625,-6.75,0.1987305,-0.6357422,-0.1015625,-0.02685547,-0.3032227,0.2021484
3371,172.4375,22.9375,-1.4375,0.3417969,-0.6938477,-0.2016602,-0.02929688,-0.2905273,0.2119141
3375,194.0625,51.375,16.0625,0.4775391,-0.453125,-0.378418,-0.03076172,-0.2832031,0.2226563
3379,192.1875,73,28.125,0.5239258,-0.5,-0.5209961,-0.03662109,-0.2695313,0.2348633
3383,204.5,83.25,20.375,0.5317383,-0.7753906,-0.5053711,-0.04248047,-0.2504883,0.2470703
3387,249.0625,98.375,13.875,0.625,-1.008789,-0.6054688,-0.04980469,-0.2382813,0.2583008
3391,276.1875,129.4375,20.125,0.6831055,-0.6708984,-0.9208984,-0.06054688,-0.2143555,0.2661133
3395,271.25,143.6875,29.875,0.5898438,-0.8066406,-1.109375,-0.07470703,-0.1894531,0.2773438
3399,296.1875,142.3125,36.0625,0.5395508,-1.152344,-1.224609,-0.08300781,-0.1704102,0.28125
3403,328.5625,123.625,33.3125,0.5356445,-1.066895,-1.390137,-0.09716797,-0.1367188,0.2880859
3407,327.125,116.0625,24.4375,0.6870117,-0.8105469,-1.409668,-0.1079102,-0.1069336,0.2919922
3411,309.25,112.5,20.625,0.7099609,-0.9697266,-1.463379,-0.1162109,-0.08447266,0.2895508
3415,296.4375,103.5625,20.1875,0.6518555,-1.34668,-1.38623,-0.1269531,-0.0546875,0.2895508
3419,299,91.0625,29.4375,0.6713867,-1.711914,-1.282715,-0.1376953,-0.02197266,0.2841797
3423,329.4375,86.875,39.8125,0.7719727,-1.97998,-1.163086,-0.1425781,-0.0004882813,0.2783203
3427,365.9375,89.25,47.625,0.7954102,-1.890625,-1.328613,-0.1484375,0.03125,0.269043
3431,367.4375,78.8125,47.75,0.8032227,-1.529297,-1.424805,-0.1567383,0.06640625,0.2539063
3435,361.0625,68.9375,37.1875,0.8457031,-1.572266,-1.447754,-0.1591797,0.08886719,0.2416992
3439,346.3125,58.625,31.1875,0.8183594,-1.544922,-1.382324,-0.1625977,0.1201172,0.2226563
3443,337.25,55.5,29.8125,0.9194336,-1.820801,-1.244141,-0.1650391,0.1474609,0.2011719
3447,352.6875,61.5625,27.6875,0.9970703,-1.960449,-1.125,-0.1674805,0.1625977,0.1875
3451,373.0625,79.5,25.625,1.085938,-2.073242,-0.9941406,-0.1674805,0.1826172,0.1601563
3455,388.625,104.375,37.5,1.031738,-2.069336,-1.01709,-0.1708984,0.2050781,0.1274414
3459,375.125,112.0625,65.3125,0.8222656,-1.773926,-1.128418,-0.1723633,0.2163086,0.1044922
3463,339.1875,98.8125,88.5625,0.7451172,-1.622559,-1.040039,-0.1708984,0.2324219,0.06884766
3467,323.625,83.6875,84.5625,0.8842773,-1.758789,-0.7900391,-0.1650391,0.2451172,0.03759766
3471,332.1875,79.8125,66.375,1.012207,-1.840332,-0.6171875,-0.1601563,0.25,0.01708984
3476,339.875,93.625,56.75,1.113281,-1.828613,-0.378418,-0.1557617,0.2539063,-0.01611328
3480,342.1875,124.0625,66.4375,1.023926,-1.669434,-0.3823242,-0.1508789,0.2563477,-0.05029297
3484,309.25,140.625,96.125,0.7993164,-1.331055,-0.4130859,-0.1435547,0.2573242,-0.07324219
3488,271.875,137.625,118.625,0.6518555,-1.21875,-0.4863281,-0.1318359,0.2539063,-0.105957
3492,259.3125,117.375,108.5,0.6132813,-1.284668,-0.4975586,-0.1176758,0.2509766,-0.1357422
3496,283.625,83.875,61,0.4697266,-1.1875,-0.5170898,-0.109375,0.2475586,-0.1538086
3500,284.8125,52.6875,24.5625,0.4272461,-0.9116211,-0.4052734,-0.1020508,0.2363281,-0.1796875
3504,262.8125,44.75,12.8125,0.4697266,-0.7250977,-0.2670898,-0.09960938,0.2226563,-0.2041016
3508,221.625,53.4375,26,0.4658203,-0.5463867,-0.2207031,-0.09619141,0.2138672,-0.21875
3512,171.5,62.5,43.25,0.3925781,-0.4179688,-0.2089844,-0.09033203,0.2011719,-0.237793
3516,141.5,57.6875,44.4375,0.2836914,-0.4101563,-0.2631836,-0.08203125,0.1914063,-0.2529297
3520,122.9375,34.875,31.75,0.1831055,-0.2783203,-0.2744141,-0.078125,0.1860352,-0.2583008
3524,109.0625,9.5625,10.3125,0.206543,-0.1538086,-0.2631836,-0.07324219,0.1787109,-0.269043
3528,85.1875,-12.5625,-8.3125,0.1948242,0.09423828,-0.2900391,-0.07324219,0.1699219,-0.2749023
3532,42,-29.75,-17.875,0.2294922,0.1640625,-0.2861328,-0.07568359,0.1650391,-0.2788086
3536,-3.9375,-41.5625,-18.125,0.2412109,0.1254883,-0.3129883,-0.07958984,0.1625977,-0.2788086
3540,-47.6875,-45.6875,-10.4375,0.3149414,0.03613281,-0.3862305,-0.08398438,0.1650391,-0.2758789
3544,-85.8125,-41.8125,-5.75,0.3691406,0.03613281,-0.4707031,-0.08642578,0.1689453,-0.2734375
3548,-123.1875,-38.875,-9.625,0.3925781,-0.02197266,-0.5898438,-0.08886719,0.1738281,-0.2651367
3552,-157.6875,-45.6875,-20.875,0.3378906,-0.06445313,-0.7822266,-0.09472656,0.1835938,-0.2543945
3556,-196.0625,-69.75,-38.9375,0.2836914,-0.1616211,-1.01709,-0.09716797,0.1923828,-0.2446289
3560,-237.625,-108.25,-51.875,0.2758789,-0.3520508,-1.182617,-0.1054688,0.2036133,-0.2255859
3564,-283.5,-146.4375,-53.0625,0.3925781,-0.6240234,-1.248047,-0.1176758,0.2172852,-0.199707
3568,-317.875,-171.8125,-55.25,0.6557617,-1.024414,-1.178711,-0.1245117,0.2275391,-0.1821289
3572,-337.3125,-180.9375,-56.375,0.8071289,-1.300293,-1.174805,-0.1367188,0.2387695,-0.1469727
3576,-368.875,-184.25,-50.5625,0.9462891,-1.45166,-1.163086,-0.1474609,0.2485352,-0.1088867
3580,-391.8125,-178.0625,-52.4375,1.117188,-1.739258,-1.15918,-0.1533203,0.2485352,-0.08007813
3584,-434.625,-165.6875,-32.5,1.059082,-1.828613,-1.282715,-0.1601563,0.2524414,-0.03955078
3588,-480.8125,-165.375,-7.125,1.043457,-2.341309,-1.336426,-0.1616211,0.2509766,0.01074219
3592,-471.375,-180,1.8125,0.9462891,-2.769043,-1.371094,-0.1601563,0.2475586,0.04199219
3596,-451.0625,-199.625,2.625,1.198242,-2.990234,-1.13623,-0.1557617,0.2338867,0.09082031
3600,-387.4375,-189.3125,-22.9375,1.361328,-2.982422,-0.9672852,-0.1484375,0.21875,0.1328125
3605,-375.25,-161.0625,-20.5625,1.198242,-2.58252,-0.9980469,-0.1435547,0.2036133,0.15625
3609,-408.4375,-133.875,23.1875,1.016113,-2.640625,-1.155762,-0.1352539,0.1787109,0.1899414
3613,-432.0625,-113.125,71,0.7797852,-2.78418,-1.263184,-0.1235352,0.1523438,0.2211914
3617,-416.5625,-119,75.1875,0.6362305,-2.958984,-1.197754,-0.1152344,0.1298828,0.2402344
3621,-343.1875,-146.5,33.125,0.6479492,-2.924316,-1.121094,-0.09960938,0.1000977,0.2636719
3625,-297.25,-177.25,-4.875,0.6831055,-2.32959,-1.070801,-0.08544922,0.07128906,0.28125
3629,-295.5625,-178.4375,-5.125,0.9077148,-1.945313,-0.9824219,-0.07324219,0.05126953,0.2895508
3633,-305.8125,-137.75,19.9375,0.9775391,-1.964355,-0.8325195,-0.05664063,0.02001953,0.300293
3637,-307.875,-85,53.375,0.8613281,-1.828613,-0.7402344,-0.04492188,-0.008300781,0.3056641
3641,-281.4375,-42.8125,60.5625,0.7641602,-1.785645,-0.5708008,-0.03759766,-0.03076172,0.3110352
3645,-239.875,-20.875,44.1875,0.5048828,-1.432129,-0.5825195,-0.03417969,-0.05810547,0.3100586
3649,-206.125,-26,25.375,0.3457031,-1.032227,-0.8208008,-0.03173828,-0.08056641,0.3100586
3653,-200.625,-37.4375,6.6875,0.2607422,-0.7055664,-0.859375,-0.03173828,-0.09423828,0.3100586
3657,-197.9375,-42.5,4.1875,0.2758789,-0.6357422,-0.9287109,-0.02685547,-0.1157227,0.3056641
3661,-202.625,-40.75,14.4375,0.2294922,-0.484375,-0.9555664,-0.0234375,-0.1367188,0.3032227
3665,-210.125,-39.25,26.5,0.2724609,-0.4414063,-0.9399414,-0.02001953,-0.1494141,0.2973633
3669,-209.8125,-27.25,31.9375,0.3227539,-0.3950195,-0.8632813,-0.01757813,-0.171875,0.2895508
3673,-212.4375,-23.9375,29.25,0.175293,-0.3950195,-0.8515625,-0.01757813,-0.1933594,0.2841797
3677,-185.375,-46.125,11,0.1674805,-0.6591797,-0.6821289,-0.01513672,-0.2045898,0.2773438
3681,-132.625,-66.5625,-26.25,0.1674805,-0.6005859,-0.4785156,-0.01171875,-0.2231445,0.269043
3685,-101.8125,-82.875,-29.625,0.2412109,-0.581543,-0.3286133,-0.001953125,-0.234375,0.262207
3689,-89.875,-73.125,-10.875,0.4775391,-0.4609375,-0.04003906,0.0009765625,-0.2382813,0.2568359
3693,-82.25,-30.4375,9.8125,0.5629883,-0.4140625,0.1826172,0.005859375,-0.2470703,0.2524414
3697,-70.875,2,22.4375,0.3886719,-0.4492188,0.2827148,0.008300781,-0.2504883,0.2470703
3701,-40,11.5625,18.25,0.2138672,-0.5,0.2905273,0.005859375,-0.2568359,0.2460938
3705,4.625,8.0625,11,0.1831055,-0.4882813,0.2329102,0.005859375,-0.2592773,0.2446289
3709,36.625,10.125,9.9375,0.2333984,-0.324707,0.1826172,0.004394531,-0.2592773,0.2460938
3713,54.0625,21.5,16.1875,0.2685547,-0.2392578,0.09814453,0.002441406,-0.2558594,0.2470703
3717,66.0625,33.875,22.6875,0.2954102,-0.1577148,-0.03222656,-0.0009765625,-0.2495117,0.2514648
3721,77.875,43.9375,22.4375,0.3227539,-0.2045898,-0.109375,-0.003417969,-0.2431641,0.2553711
3725,90.75,51.5625,19.125,0.3227539,-0.2861328,-0.1513672,-0.0078125,-0.2382813,0.2583008
3729,115,58.9375,15.75,0.3925781,-0.519043,-0.1821289,-0.01416016,-0.2294922,0.2636719
3734,140,78.625,19.9375,0.4311523,-0.550293,-0.2783203,-0.01855469,-0.2192383,0.2714844
3738,156.8125,96.5625,29.3125,0.4580078,-0.6435547,-0.4052734,-0.02685547,-0.2080078,0.2744141
3742,174.4375,112.0625,34,0.4506836,-0.6708984,-0.5361328,-0.03515625,-0.1933594,0.28125
3746,193.5625,116.625,39.875,0.4658203,-0.8261719,-0.644043,-0.04980469,-0.1757813,0.2851563
3750,215,124.6875,46.875,0.4853516,-0.581543,-0.8862305,-0.05664063,-0.1591797,0.2880859
3754,220.8125,116.25,43.3125,0.609375,-0.5620117,-1.036133,-0.06982422,-0.1381836,0.293457
3758,221.5,117.625,22.6875,0.59375,-0.3056641,-1.213379,-0.08203125,-0.1142578,0.2973633
3762,202.4375,97.4375,0,0.4619141,-0.6083984,-1.144043,-0.09033203,-0.09960938,0.2963867
3766,214.125,80.375,-17,0.4077148,-1.070801,-0.9672852,-0.09716797,-0.07958984,0.2988281
3770,239.25,65.625,-23.1875,0.4194336,-1.381836,-0.8325195,-0.1054688,-0.05712891,0.2963867
3774,266.5,68.6875,-15.6875,0.543457,-1.556641,-0.8476563,-0.1103516,-0.04199219,0.293457
3778,278.125,84.625,5.625,0.6015625,-1.525391,-0.9052734,-0.1176758,-0.01318359,0.2910156
3782,272.9375,104,29.6875,0.6791992,-1.591309,-0.9980469,-0.1269531,0.01269531,0.2841797
3786,267,119.375,53.75,0.6713867,-1.568359,-1.05957,-0.1328125,0.03125,0.2758789
3790,272.25,117.1875,52.625,0.5976563,-1.634277,-1.063477,-0.1411133,0.05859375,0.2651367
3794,297.875,92.5625,34.3125,0.4853516,-1.758789,-1.070801,-0.1494141,0.08642578,0.25
3798,321.1875,65.75,26.5625,0.527832,-1.83252,-1.032227,-0.1542969,0.1025391,0.2363281
3802,332.875,58.5625,38.3125,0.690918,-1.840332,-0.9707031,-0.1591797,0.1289063,0.2172852
3806,330.25,69.125,52.8125,0.8574219,-1.777832,-0.8862305,-0.1601563,0.1547852,0.1967773
3810,327.4375,74.1875,49.125,0.8574219,-1.882813,-0.9785156,-0.1601563,0.1713867,0.1806641
3814,325.625,67.0625,43.5,0.8535156,-1.956543,-0.8901367,-0.1601563,0.1923828,0.1547852
3818,325.9375,67.125,41.25,0.8457031,-1.902344,-0.8515625,-0.1625977,0.2114258,0.1289063
3822,314.75,69.625,51.5,0.8378906,-1.797363,-0.7514648,-0.1625977,0.2197266,0.1083984
3826,307.3125,78.6875,60,0.8920898,-1.812988,-0.6977539,-0.1601563,0.2348633,0.07861328
3830,306.4375,85.6875,62.375,0.8959961,-1.875,-0.6860352,-0.1557617,0.2451172,0.05126953
3834,310.5,87.375,61.9375,0.7993164,-1.750977,-0.7246094,-0.1542969,0.25,0.02978516
3838,304.25,80.875,58.5,0.7373047,-1.704102,-0.644043,-0.1484375,0.2563477,-0.001464844
3842,306.875,72.5,49.75,0.7099609,-1.688477,-0.5551758,-0.1435547,0.2587891,-0.03125
3846,293.25,68.6875,54.4375,0.6635742,-1.513672,-0.4667969,-0.1411133,0.2597656,-0.04882813
3850,267.9375,62.0625,64.875,0.6362305,-1.471191,-0.3745117,-0.1328125,0.2573242,-0.07861328
3854,263.875,55.375,63.3125,0.6210938,-1.471191,-0.3012695,-0.1293945,0.2563477,-0.1044922
3858,266,46.0625,50.0625,0.625,-1.37793,-0.1860352,-0.1235352,0.2548828,-0.1196289
3863,271.9375,44.6875,35.625,0.6401367,-1.253418,-0.08203125,-0.1162109,0.2460938,-0.1469727
3867,260.0625,46.875,28.5625,0.5820313,-1.05127,-0.02441406,-0.112793,0.2363281,-0.1699219
3871,236.75,52.5,33.6875,0.5048828,-0.9155273,-0.02832031,-0.109375,0.2285156,-0.1850586
3875,210,60.375,48.9375,0.5087891,-0.8183594,-0.1435547,-0.1030273,0.2211914,-0.2055664
3879,181.875,62.375,56.625,0.3652344,-0.5463867,-0.34375,-0.09716797,0.2084961,-0.2231445
3883,152.25,33.9375,38.6875,0.1015625,-0.2275391,-0.5708008,-0.09033203,0.2050781,-0.2324219
3887,125.9375,-15.75,5.0625,0.08642578,-0.1733398,-0.6401367,-0.08642578,0.1938477,-0.2475586
3891,106.5,-48.125,-16.0625,0.2333984,-0.06445313,-0.6206055,-0.09033203,0.1835938,-0.2529297
3895,65.1875,-48.125,-12.8125,0.4233398,0.1293945,-0.559082,-0.09130859,0.1801758,-0.2583008
3899,-0.3125,-28,4.5625,0.4580078,0.3388672,-0.59375,-0.09619141,0.1772461,-0.2612305
3903,-79.9375,-16.25,21.125,0.3339844,0.3623047,-0.7285156,-0.09716797,0.1801758,-0.2583008
3907,-134.9375,-19.5,15.875,0.3305664,0.2226563,-0.8325195,-0.09863281,0.1835938,-0.2514648
3911,-165.625,-37.875,-16.5,0.3457031,0.03222656,-0.9130859,-0.09960938,0.1962891,-0.2421875
3915,-183.6875,-66.625,-57.6875,0.3496094,-0.1191406,-1.01709,-0.1044922,0.2060547,-0.2255859
3919,-215.75,-93.3125,-73.5,0.3959961,-0.3134766,-1.066895,-0.1103516,0.2124023,-0.2133789
3923,-262,-109.6875,-62.1875,0.4892578,-0.5268555,-1.097656,-0.1210938,0.2226563,-0.1889648
3927,-308.875,-117.625,-53.9375,0.7177734,-0.8417969,-1.024902,-0.1303711,0.2338867,-0.1645508
3931,-321.375,-116.1875,-75.0625,0.8300781,-1.020508,-1.036133,-0.1376953,0.2412109,-0.1425781
3935,-340.1875,-129,-94.125,0.6982422,-1.22998,-1.178711,-0.1484375,0.2451172,-0.1088867
3939,-371.625,-156.0625,-80.25,0.5668945,-1.521484,-1.320801,-0.1601563,0.2475586,-0.07324219
3943,-420.3125,-187.1875,-28.25,0.4736328,-1.711914,-1.498047,-0.1640625,0.2485352,-0.04492188
3947,-488,-220.0625,25.3125,0.659668,-2.04248,-1.586426,-0.1650391,0.2475586,0.0009765625
3951,-487.5,-235.8125,17,1.186523,-2.749512,-1.270996,-0.1601563,0.2412109,0.05273438
3955,-390.3125,-221.625,-45.3125,1.430664,-2.862305,-0.9980469,-0.1557617,0.2338867,0.08789063
3959,-361.25,-191.1875,-53.625,1.237305,-2.310547,-1.094238,-0.1533203,0.2163086,0.125
3963,-409.125,-163.5625,-1.75,1.039551,-2.302734,-1.317383,-0.1459961,0.1972656,0.1616211
3967,-443.8125,-151.75,59.3125,0.7333984,-2.605469,-1.540039,-0.1391602,0.1801758,0.1875
3971,-438.5,-164.3125,82.3125,0.8769531,-2.924316,-1.471191,-0.1235352,0.1523438,0.2202148
3975,-331.625,-144.625,18.625,1.430664,-3.157227,-0.8979492,-0.1079102,0.1225586,0.2470703
3979,-272.5,-96.625,-5.75,1.260254,-2.251953,-0.9326172,-0.1010742,0.1035156,0.2607422
3983,-286.4375,-56.0625,11.375,1.105469,-1.910156,-1.113281,-0.09375,0.08007813,0.2744141
3987,-286.875,-33.9375,22.5,0.6713867,-1.735352,-1.447754,-0.08886719,0.05273438,0.2866211
3992,-296.25,-54.375,31.625,0.4194336,-1.533203,-1.621094,-0.08398438,0.03271484,0.2919922
3996,-302.6875,-71.8125,40.25,0.4775391,-1.544922,-1.598145,-0.07714844,0.004882813,0.2988281
4000,-290.1875,-85.75,26.0625,0.5087891,-1.471191,-1.482422,-0.06884766,-0.02441406,0.3056641
4004,-263.0625,-98.25,4.3125,0.5473633,-1.300293,-1.401855,-0.06396484,-0.04443359,0.3056641
4008,-253,-98.6875,-12,0.625,-1.05127,-1.340332,-0.05322266,-0.07080078,0.3071289
4012,-258.375,-84.375,-9,0.609375,-0.9233398,-1.263184,-0.04248047,-0.09814453,0.3071289
4016,-273.4375,-71.4375,3.375,0.4658203,-0.9467773,-1.209473,-0.0390625,-0.1132813,0.3041992
4020,-274.9375,-64.8125,26.25,0.3227539,-0.9428711,-1.20166,-0.02929688,-0.1455078,0.2973633
4024,-268.625,-76,30.5625,0.3149414,-0.9853516,-0.9980469,-0.02490234,-0.171875,0.2895508
4028,-229.125,-87,4.9375,0.4233398,-0.9194336,-0.7324219,-0.02001953,-0.1879883,0.28125
4032,-201.5,-79.875,-8.3125,0.4736328,-0.6396484,-0.559082,-0.01269531,-0.2094727,0.2744141
4036,-202,-69.4375,-9.8125,0.3959961,-0.5385742,-0.4248047,-0.006835938,-0.2270508,0.2661133
4040,-200.9375,-63.375,-3.75,0.3457031,-0.6748047,-0.378418,-0.003417969,-0.2407227,0.2583008
4044,-184.4375,-60.5,14.1875,0.4155273,-0.7753906,-0.2207031,0.004394531,-0.2583008,0.2446289
4048,-161,-44.0625,32.0625,0.5473633,-0.6552734,0.05175781,0.006835938,-0.2753906,0.2348633
4052,-126.875,-10.125,26.625,0.6401367,-0.4570313,0.1865234,0.006835938,-0.2792969,0.2270508
4056,-102.875,11.75,14.5,0.4580078,-0.3637695,0.1557617,0.005859375,-0.2905273,0.21875
4060,-73.4375,12.125,-1.8125,0.3496094,-0.4335938,0.1098633,0.005859375,-0.2993164,0.2133789
4064,-46.3125,11.3125,-9.625,0.2875977,-0.4296875,0.1865234,0.003417969,-0.2993164,0.2089844
4068,-19.6875,19.4375,-2.75,0.2104492,-0.4179688,0.2060547,0.003417969,-0.3041992,0.206543
4072,4.4375,24.4375,13.0625,0.109375,-0.3364258,0.1020508,0.003417969,-0.3041992,0.206543
4076,23.6875,27.75,25.125,0.1367188,-0.2314453,0.01367188,-0.0009765625,-0.3017578,0.206543
4080,42.25,28.5,30.125,0.190918,-0.2822266,-0.05908203,-0.003417969,-0.3017578,0.2080078
4084,63.125,32.625,34.25,0.2758789,-0.2470703,-0.05908203,-0.006835938,-0.296875,0.2089844
4088,84.8125,44.1875,30,0.3188477,-0.2666016,-0.112793,-0.01025391,-0.2944336,0.2158203
4092,107.875,52.3125,23.75,0.2915039,-0.2861328,-0.2285156,-0.01611328,-0.2841797,0.2226563
4096,128.1875,52.625,17.0625,0.2758789,-0.402832,-0.3359375,-0.02246094,-0.2768555,0.230957
4100,149.4375,52.4375,15.625,0.3110352,-0.6474609,-0.2822266,-0.02587891,-0.2695313,0.2392578
4104,182.875,61.8125,23,0.4467773,-0.8686523,-0.2592773,-0.03173828,-0.2558594,0.2446289
4108,214.625,81.75,27.9375,0.5668945,-0.8105469,-0.3554688,-0.0390625,-0.2392578,0.2568359
4112,235.25,105,32.375,0.6982422,-0.7485352,-0.6245117,-0.04394531,-0.2255859,0.2636719
4116,238.4375,123.6875,29.375,0.6635742,-0.8066406,-0.7749023,-0.05664063,-0.203125,0.2714844
4121,242.5,124.375,25.4375,0.6132813,-1.121582,-0.8710938,-0.06738281,-0.1791992,0.28125
4125,267.75,122.6875,24.25,0.5976563,-1.436035,-0.878418,-0.07714844,-0.1630859,0.2851563
4129,307,127.25,34.5625,0.6328125,-1.45166,-1.032227,-0.09033203,-0.1333008,0.2910156
4133,325.6875,133.5625,45.5,0.5976563,-1.094238,-1.367188,-0.1010742,-0.1005859,0.293457
4137,313.625,121.75,50.0625,0.574707,-1.086426,-1.463379,-0.1113281,-0.078125,0.293457
4141,304.125,97.6875,45,0.578125,-1.214844,-1.486328,-0.1220703,-0.04443359,0.2910156
4145,308.25,80.125,32.6875,0.7099609,-1.501953,-1.26709,-0.1303711,-0.01464844,0.2841797
4149,334.5,85.4375,19.9375,0.9077148,-1.750977,-1.13623,-0.1367188,0.004882813,0.2827148
4153,354.9375,100,29.3125,0.9233398,-1.766602,-1.174805,-0.1435547,0.04003906,0.2714844
4157,357.3125,119.8125,52.5,1.008301,-1.785645,-1.297852,-0.1518555,0.07519531,0.2524414
4161,354.4375,136.875,84,0.9853516,-1.828613,-1.324707,-0.1582031,0.09375,0.2402344
4165,348.6875,134.8125,90.9375,0.9658203,-1.630371,-1.444336,-0.1640625,0.1274414,0.2172852
4169,332.25,113.9375,67.625,0.9541016,-1.591309,-1.367188,-0.168457,0.1538086,0.1899414
4173,343.75,96.9375,36.3125,1.031738,-1.886719,-1.121094,-0.1708984,0.1689453,0.1723633
4177,371.4375,96.4375,18.1875,1.047363,-1.972168,-1.051758,-0.1748047,0.1923828,0.144043
4181,378.0625,100.0625,28.375,1.059082,-1.917969,-0.9746094,-0.1772461,0.2099609,0.1113281
4185,370.3125,122.125,45.5,1.241211,-1.882813,-0.8364258,-0.1772461,0.2197266,0.08789063
4189,353.3125,146.6875,57.4375,1.19043,-1.74707,-0.7978516,-0.1757813,0.2314453,0.05126953
4193,329.0625,145.1875,63.375,0.9619141,-1.626465,-0.7402344,-0.1748047,0.2412109,0.01611328
4197,315.5,125.125,56.5,0.8261719,-1.591309,-0.628418,-0.1708984,0.2436523,-0.00390625
4201,317.75,101.9375,41.25,0.7836914,-1.556641,-0.4516602,-0.1650391,0.2451172,-0.04052734
4205,311,91.375,35.25,0.8496094,-1.471191,-0.1977539,-0.1616211,0.2460938,-0.06933594
4209,296.6875,96.0625,33.125,0.9697266,-1.568359,0.05175781,-0.1591797,0.2436523,-0.08984375
4213,286.875,114.5625,38.5,0.9736328,-1.591309,0.07128906,-0.1533203,0.2363281,-0.1181641
4217,270.25,127.75,49.5,0.8032227,-1.424316,0.05175781,-0.1459961,0.2299805,-0.1469727
4221,256.6875,120.625,47.8125,0.5820313,-1.319336,0.009765625,-0.1401367,0.2260742,-0.1674805
4225,245.4375,101.9375,45.75,0.5048828,-1.226563,0.005859375,-0.1318359,0.2148438,-0.1904297
4229,233.125,89.875,47.5,0.5161133,-1.078613,0.01708984,-0.1235352,0.2036133,-0.2133789
4233,217.25,87.6875,49.625,0.59375,-0.9697266,-0.01660156,-0.1176758,0.1962891,-0.2270508
4237,198.0625,90.5625,53.25,0.5356445,-0.7792969,-0.1938477,-0.1103516,0.1850586,-0.2460938
4241,175.6875,85.6875,56.5,0.3808594,-0.5463867,-0.4208984,-0.09863281,0.1723633,-0.2626953
4245,144.5,64.3125,57,0.2255859,-0.2314453,-0.6015625,-0.09130859,0.1635742,-0.2734375
4250,103.875,31,47.625,0.1557617,0.09033203,-0.7709961,-0.08398438,0.1547852,-0.2841797
4254,49.75,-8.625,31.1875,0.1445313,0.4086914,-0.9091797,-0.08203125,0.1489258,-0.2885742
4258,-20.5,-41.8125,22.125,0.1948242,0.4750977,-0.9438477,-0.08056641,0.1474609,-0.2885742
4262,-89.875,-59.6875,22.625,0.3457031,0.3779297,-0.9326172,-0.08203125,0.1499023,-0.2856445
4266,-142.5,-62.875,19.9375,0.4467773,0.21875,-0.9746094,-0.08544922,0.1601563,-0.2773438
4270,-187.125,-72.0625,2.8125,0.5126953,0.1176758,-1.024902,-0.08886719,0.1699219,-0.2680664
4274,-218.6875,-89.3125,-29.6875,0.5087891,-0.04541016,-1.090332,-0.09472656,0.1850586,-0.2529297
4278,-254.6875,-119.875,-55.875,0.4775391,-0.2006836,-1.209473,-0.1030273,0.1987305,-0.230957
4282,-299.625,-152,-63.4375,0.5473633,-0.46875,-1.286133,-0.112793,0.2084961,-0.2133789
4286,-350.1875,-172.375,-51.75,0.7138672,-0.8959961,-1.217285,-0.1259766,0.2236328,-0.1850586
4290,-396.25,-180.8125,-44.5625,0.9077148,-1.121582,-1.255371,-0.1367188,0.2373047,-0.1455078
4294,-425.3125,-172.4375,-40.375,1.078125,-1.587891,-1.26709,-0.1450195,0.2451172,-0.1181641
4298,-439.625,-171.75,-33.125,0.9970703,-1.976074,-1.38623,-0.1508789,0.2524414,-0.06933594
4302,-444.75,-190.6875,-24.25,0.9736328,-2.291016,-1.459473,-0.1557617,0.2539063,-0.02734375
4306,-427.3125,-209.4375,-24.3125,1.198242,-2.55127,-1.340332,-0.1557617,0.2509766,0.004882813
4310,-390.125,-216.125,-45.3125,1.368652,-2.493164,-1.290039,-0.1557617,0.2451172,0.05126953
4314,-387.125,-208.125,-60.875,1.484863,-2.189941,-1.33252,-0.1542969,0.2314453,0.09228516
4318,-424.8125,-179.8125,-43.375,1.458008,-2.314453,-1.424805,-0.1508789,0.2197266,0.1191406
4322,-467.5625,-150.0625,-3.125,1.225586,-2.442383,-1.578613,-0.1474609,0.1987305,0.1640625
4326,-508.3125,-131.5,34.75,0.9853516,-2.644531,-1.717285,-0.1367188,0.1674805,0.199707
4330,-512.6875,-130.6875,50.5,0.8842773,-3.021484,-1.729004,-0.1318359,0.1450195,0.2211914
4334,-436.25,-134.8125,6.4375,1.155762,-3.456543,-1.26709,-0.1162109,0.1064453,0.2539063
4338,-325.75,-133.125,-52.5,1.008301,-2.854492,-1.140137,-0.1054688,0.06884766,0.2729492
4342,-299.3125,-138.9375,-65.9375,0.8071289,-2.317871,-1.19043,-0.09960938,0.04980469,0.2866211
4346,-302.8125,-149.1875,-53.5,0.7177734,-2.154785,-1.205566,-0.08642578,0.01855469,0.293457
4350,-295.8125,-152,-29.1875,0.6982422,-2.154785,-1.117188,-0.07324219,-0.01171875,0.3056641
4354,-278.625,-142.3125,5.625,0.6401367,-1.80127,-1.105469,-0.06152344,-0.03173828,0.3085938
4358,-288.6875,-127,36.5,0.6328125,-1.428223,-1.063477,-0.04736328,-0.06201172,0.3100586
4362,-280.4375,-108.1875,51.6875,0.6362305,-1.412598,-1.01709,-0.03515625,-0.09423828,0.3056641
4366,-256.25,-91.375,50.375,0.5551758,-1.047363,-1.051758,-0.02929688,-0.1108398,0.3056641
4370,-252.4375,-87.75,41.0625,0.4931641,-0.7641602,-1.063477,-0.02099609,-0.1381836,0.300293
4374,-242.625,-77.625,34.5625,0.4970703,-0.7055664,-0.9672852,-0.01416016,-0.1630859,0.2949219
4379,-222.6875,-60.625,29.3125,0.4116211,-0.5893555,-0.9746094,-0.009277344,-0.1782227,0.2880859
4383,-213.75,-50.625,26.375,0.2836914,-0.46875,-1.063477,-0.005859375,-0.2006836,0.2773438
4387,-203.8125,-63.3125,32.125,0.1831055,-0.4609375,-1.274902,-0.001953125,-0.2182617,0.269043
4391,-195.9375,-96.5625,29.5,0.2451172,-0.2163086,-1.209473,0.0009765625,-0.2329102,0.262207
4395,-208.5625,-108.0625,8.875,0.4541016,0.04736328,-0.9672852,0.006835938,-0.2495117,0.2524414
4399,-216.875,-96,-17,0.5551758,-0.1420898,-0.5864258,0.01513672,-0.2680664,0.2348633
4403,-200.8125,-80.1875,-46.375,0.4389648,-0.4492188,-0.2783203,0.02148438,-0.2807617,0.2270508
4407,-163.75,-78.25,-62.1875,0.3110352,-0.8613281,0.005859375,0.03173828,-0.2929688,0.2119141
4411,-111.9375,-65.5,-48.4375,0.3339844,-1.05127,0.3828125,0.04150391,-0.3056641,0.2011719
4415,-67.8125,-24.5,-17.8125,0.3457031,-0.8647461,0.5175781,0.04638672,-0.3105469,0.199707
4419,-51.0625,15.625,17.875,0.2451172,-0.6977539,0.4868164,0.04882813,-0.3144531,0.1899414
4423,-25.625,35.0625,40.1875,0.1132813,-0.6591797,0.3789063,0.04394531,-0.3154297,0.1889648
4427,5.8125,38,45.1875,0.1132813,-0.4960938,0.2519531,0.04150391,-0.3168945,0.1875
4431,29.6875,40.1875,41.25,0.1367188,-0.3364258,0.1904297,0.03662109,-0.3193359,0.1889648
4435,55.8125,45.75,35.75,0.1484375,-0.2822266,0.1020508,0.02832031,-0.3144531,0.1943359
4439,83.1875,49.875,32.4375,0.206543,-0.2666016,0.01367188,0.02490234,-0.3144531,0.1953125
4443,105.375,53.125,29.9375,0.2724609,-0.2705078,-0.1166992,0.02001953,-0.3041992,0.2021484
4447,122.9375,62.25,31,0.3925781,-0.3173828,-0.1860352,0.01269531,-0.2954102,0.2133789
4451,136.8125,80.3125,28.25,0.4116211,-0.3481445,-0.2705078,0.008300781,-0.2895508,0.2202148
4455,156.1875,95.0625,29.1875,0.3457031,-0.5620117,-0.359375,0,-0.2768555,0.2294922
4459,185.625,101.625,30.1875,0.2954102,-0.6474609,-0.5629883,-0.01025391,-0.265625,0.2402344
4463,210.1875,95.75,31.0625,0.2875977,-0.7290039,-0.6708984,-0.01611328,-0.2519531,0.2460938
4467,237.9375,96.8125,34.375,0.3769531,-0.7407227,-0.7978516,-0.02587891,-0.2329102,0.2583008
4471,247.3125,100.1875,36.8125,0.4233398,-0.7172852,-0.8979492,-0.03759766,-0.2104492,0.2714844
4475,257.9375,115.5625,35.8125,0.543457,-0.8339844,-0.9941406,-0.04492188,-0.1943359,0.2783203
4479,268.375,125.125,36.625,0.4233398,-1.024414,-1.13623,-0.05566406,-0.1679688,0.2880859
4483,284.25,123.4375,42.25,0.3457031,-1.043945,-1.274902,-0.07128906,-0.1420898,0.2919922
4487,296,107.25,50.4375,0.2954102,-1.05127,-1.413086,-0.078125,-0.1206055,0.2949219
4491,303.6875,84.8125,46.75,0.3999023,-1.043945,-1.444336,-0.08886719,-0.08935547,0.300293
4495,307.1875,67.375,34.8125,0.5161133,-1.195313,-1.478516,-0.09716797,-0.05566406,0.2988281
4499,309.0625,63.9375,28.375,0.6518555,-1.195313,-1.405762,-0.1020508,-0.03564453,0.2973633
4503,304.6875,75.5625,28.6875,0.7177734,-1.253418,-1.324707,-0.1079102,-0.004394531,0.2949219
4508,305.125,90.1875,30.5625,0.7529297,-1.358398,-1.255371,-0.1152344,0.02734375,0.2841797
4512,309.875,96.5,27.4375,0.7836914,-1.665527,-1.336426,-0.1201172,0.04638672,0.2773438
4516,322.625,95.9375,32.1875,0.8417969,-1.840332,-1.255371,-0.128418,0.07617188,0.2607422
4520,328.5625,104.875,46.375,0.8769531,-1.863281,-1.286133,-0.1367188,0.1064453,0.2446289
4524,324.25,116.75,69.1875,0.8496094,-1.762695,-1.26709,-0.1411133,0.1264648,0.230957
4528,315.3125,120.0625,87.5625,0.8222656,-1.669434,-1.20166,-0.1435547,0.1523438,0.206543
4532,317.6875,118.6875,89.3125,0.8457031,-1.681152,-1.066895,-0.1474609,0.1787109,0.1821289
4536,339.875,110.8125,70.6875,0.9038086,-1.894531,-0.9941406,-0.1474609,0.1938477,0.1655273
4540,371.875,96.875,49.5,0.8999023,-1.995605,-0.9287109,-0.1484375,0.2172852,0.1303711
4544,386.875,86,39.3125,0.8803711,-1.9375,-0.9018555,-0.1484375,0.2338867,0.09619141
4548,361.125,86.0625,58.5,0.8691406,-1.669434,-0.7822266,-0.1494141,0.2436523,0.07421875
4552,329.875,93.5625,78.625,0.8652344,-1.661621,-0.6479492,-0.1450195,0.2539063,0.0390625
4556,323.625,95.25,80.25,0.8496094,-1.836426,-0.4169922,-0.1391602,0.2612305,0.0078125
4560,345.25,95.3125,73.125,0.8999023,-2.038574,-0.1708984,-0.1342773,0.2636719,-0.01464844
4564,390.625,94.8125,54.9375,0.8071289,-1.999512,-0.2167969,-0.1259766,0.2661133,-0.05029297
4568,393.6875,83.1875,41.875,0.6362305,-1.26123,-0.3168945,-0.1220703,0.2612305,-0.08984375
4572,333.6875,77.375,41.1875,0.6479492,-0.7871094,-0.1782227,-0.1176758,0.2563477,-0.1157227
4576,265.625,88.1875,52.25,0.7529297,-1.066895,0.03662109,-0.112793,0.2475586,-0.144043
4580,250.8125,111.1875,54.625,0.8222656,-1.362305,0.2060547,-0.1030273,0.2412109,-0.1699219
4584,244.5,118.875,48.3125,0.6054688,-1.195313,-0.02832031,-0.09619141,0.2324219,-0.1865234
4588,225.3125,108.9375,39.625,0.4389648,-1.078613,-0.05908203,-0.08642578,0.2211914,-0.2080078
4592,203.8125,90.75,40.8125,0.2685547,-0.9077148,-0.1552734,-0.07714844,0.2099609,-0.2270508
4596,177.75,71.3125,43.4375,0.2836914,-0.8535156,-0.1899414,-0.07324219,0.2026367,-0.2407227
4600,157.0625,54.75,48.875,0.2607422,-0.6435547,-0.4013672,-0.06298828,0.1923828,-0.2558594
4604,126.8125,29,40.5,0.190918,-0.3325195,-0.6015625,-0.05664063,0.1826172,-0.269043
4608,95.25,1.9375,24.25,0.2177734,-0.1850586,-0.6552734,-0.05419922,0.1762695,-0.2734375
4612,56.4375,-19,5.9375,0.2255859,0.05126953,-0.7324219,-0.05322266,0.1689453,-0.2773438
4616,6.6875,-32.4375,-4.5625,0.1831055,0.2612305,-0.7900391,-0.05566406,0.1660156,-0.2827148
4620,-57.125,-47.3125,-3.375,0.175293,0.2456055,-0.824707,-0.05664063,0.1674805,-0.2788086
4624,-102.6875,-63.125,-4.5625,0.1791992,0.08251953,-0.8325195,-0.06054688,0.1748047,-0.2719727
4628,-124.8125,-83.625,-26.9375,0.3188477,-0.1772461,-0.6938477,-0.06738281,0.1811523,-0.2651367
4632,-135.4375,-97,-55.75,0.3959961,-0.2666016,-0.5668945,-0.07470703,0.1884766,-0.2583008
4637,-166,-103.5,-67.5625,0.4506836,-0.387207,-0.5244141,-0.08642578,0.1962891,-0.2436523
4641,-207.875,-100.8125,-54.1875,0.4541016,-0.5698242,-0.5668945,-0.09472656,0.2084961,-0.2255859
4645,-255.1875,-110.375,-34.8125,0.3613281,-0.6821289,-0.7246094,-0.1020508,0.2148438,-0.2109375
4649,-297.375,-132.3125,-27.125,0.4853516,-1.040039,-0.7822266,-0.1113281,0.2285156,-0.1865234
4653,-283.875,-139.5625,-42.5625,0.9311523,-1.773926,-0.4667969,-0.1186523,0.2426758,-0.15625
4657,-233.4375,-134.6875,-76.4375,1.004395,-1.754883,-0.4785156,-0.1245117,0.2460938,-0.1386719
4661,-262.0625,-151.25,-82.5,0.9194336,-1.342773,-0.7670898,-0.1352539,0.2475586,-0.1098633
4665,-341.625,-164.5,-66.125,1.043457,-1.397461,-0.8862305,-0.1484375,0.2509766,-0.08007813
4669,-416.9375,-159.9375,-33.125,1.105469,-1.688477,-1.043945,-0.1533203,0.2563477,-0.05419922
4673,-488.5625,-160.75,-6.5,1.209961,-1.953125,-1.236328,-0.1582031,0.2524414,-0.008300781
4677,-485.875,-146.0625,-47.9375,1.666992,-2.613281,-1.013184,-0.1567383,0.2485352,0.04052734
4681,-444.875,-124.625,-86.6875,1.574219,-2.535645,-1.013184,-0.1567383,0.2387695,0.07177734
4685,-460.3125,-115.375,-80.25,1.291504,-2.380371,-1.228516,-0.1601563,0.2211914,0.1137695
4689,-489.25,-109.9375,-44.25,1.105469,-2.473633,-1.324707,-0.1616211,0.1938477,0.1547852
4693,-513.9375,-101.6875,6.8125,0.8222656,-2.574707,-1.475098,-0.1591797,0.1723633,0.1806641
4697,-527.9375,-102.875,49.75,0.7373047,-2.613281,-1.543945,-0.1508789,0.1386719,0.2158203
4701,-509.875,-114.25,40.875,0.7875977,-2.675781,-1.598145,-0.1411133,0.09863281,0.2485352
4705,-459.5,-139.75,-6.6875,0.7451172,-2.555176,-1.567383,-0.1318359,0.07128906,0.2636719
4709,-400.875,-159.9375,-39,0.7373047,-2.49707,-1.444336,-0.1176758,0.02880859,0.28125
4713,-352.375,-163.4375,-47.1875,0.6982422,-2.213379,-1.336426,-0.1010742,-0.009277344,0.2973633
4717,-324.875,-165.25,-43.4375,0.5976563,-1.972168,-1.324707,-0.09228516,-0.03320313,0.3017578
4721,-304.1875,-171,-40.125,0.5976563,-1.972168,-1.20166,-0.07324219,-0.06835938,0.3041992
4725,-271.0625,-179.375,-36.1875,0.5629883,-1.925781,-1.001465,-0.05810547,-0.09716797,0.3032227
4729,-229.25,-187.1875,-30.5625,0.5708008,-1.657715,-0.8476563,-0.04394531,-0.1181641,0.3017578
4733,-199.6875,-184.5625,-21.25,0.675293,-1.257324,-0.6977539,-0.02685547,-0.140625,0.300293
4737,-200.125,-144.6875,-8.875,0.9038086,-0.8417969,-0.4360352,-0.009277344,-0.1621094,0.2949219
4741,-205.0625,-92.125,2.875,0.8613281,-0.6821289,-0.309082,-0.001953125,-0.1757813,0.2895508
4745,-201.125,-50.4375,3.8125,0.6791992,-0.7602539,-0.1899414,0.005859375,-0.1958008,0.28125
4749,-167.875,-20.9375,-0.0625,0.5668945,-0.8920898,-0.09375,0.01074219,-0.2143555,0.2744141
4753,-133.3125,11,5.5,0.5126953,-0.534668,-0.04394531,0.01074219,-0.2231445,0.2675781
4757,-125.5625,37.9375,9.4375,0.2373047,-0.421875,-0.0859375,0.006835938,-0.2358398,0.2607422
4761,-113.1875,25.4375,7,-0.03710938,-0.4375,-0.1401367,0.004394531,-0.2480469,0.2539063
4766,-84.75,-8.5625,-6.5,-0.08789063,-0.5776367,-0.07080078,0.004394531,-0.2519531,0.25
4770,-42.875,-31.6875,-15.125,0.1210938,-0.5112305,0.08251953,0.008300781,-0.2583008,0.2460938
4774,-14.75,-22.75,-20.5625,0.3032227,-0.4726563,0.2519531,0.01074219,-0.2607422,0.2446289
4778,12.5625,1.4375,-15.1875,0.3457031,-0.4921875,0.3056641,0.01171875,-0.2592773,0.2431641
4782,36.3125,25.5,-5.125,0.3730469,-0.5463867,0.3212891,0.01171875,-0.2592773,0.2446289
4786,62.6875,52.3125,8.5,0.3999023,-0.6435547,0.3251953,0.009277344,-0.2558594,0.2460938
4790,93.6875,79.875,20.4375,0.3769531,-0.7602539,0.2827148,0.005859375,-0.2504883,0.25
4794,125.125,99,26.625,0.2724609,-0.8686523,0.1557617,-0.003417969,-0.2407227,0.2568359
4798,160.5,98.625,26.8125,0.1171875,-1.047363,-0.03222656,-0.01269531,-0.2294922,0.2636719
4802,199.875,79.375,27.625,0.1015625,-1.191406,-0.1977539,-0.02001953,-0.2182617,0.2705078
4806,241.25,68.625,25.75,0.2529297,-1.210938,-0.3168945,-0.02832031,-0.1982422,0.2783203
4810,269.4375,69.6875,26.625,0.2993164,-1.121582,-0.5131836,-0.03515625,-0.1733398,0.2910156
4814,291.375,72.6875,25.625,0.4116211,-1.195313,-0.6708984,-0.04150391,-0.1533203,0.2949219
4818,306.8125,81.0625,24,0.5551758,-1.265137,-0.8823242,-0.04833984,-0.1245117,0.3041992
4822,317.5625,95.0625,17.375,0.644043,-1.401367,-0.9633789,-0.05810547,-0.09179688,0.3041992
4826,332.1875,104,10.75,0.59375,-1.568359,-1.078613,-0.06494141,-0.06689453,0.3056641
4830,352.4375,112.5,9.0625,0.6479492,-1.972168,-1.086426,-0.07714844,-0.03320313,0.3032227
4834,382.1875,116.25,20.5,0.6015625,-2.077148,-1.324707,-0.08642578,0.00390625,0.2973633
4838,383.3125,105.625,40.375,0.5976563,-1.999512,-1.532715,-0.09472656,0.02880859,0.2910156
4842,367.3125,94.5625,48.6875,0.7680664,-1.83252,-1.605469,-0.1020508,0.06738281,0.2783203
4846,351.375,97.3125,50.4375,0.8535156,-1.956543,-1.571289,-0.109375,0.1025391,0.2583008
4850,357.375,96.6875,37.625,0.8261719,-2.104492,-1.613281,-0.112793,0.1235352,0.2446289
4854,361.0625,89.3125,33,0.7490234,-2.13916,-1.651855,-0.1186523,0.1538086,0.2226563
4858,356.875,86,42.375,0.8300781,-2.174316,-1.625,-0.1245117,0.1801758,0.1953125
4862,352.625,84,49.6875,0.7719727,-2.019043,-1.666992,-0.1259766,0.1972656,0.1777344
4866,327.1875,67.625,52.25,0.6635742,-1.67334,-1.70166,-0.1259766,0.2197266,0.1464844
4870,306.625,48.3125,46.625,0.7255859,-1.64209,-1.563477,-0.1235352,0.2373047,0.1206055
4874,294.4375,44.5,34.25,0.7719727,-1.529297,-1.432617,-0.1235352,0.2460938,0.1030273
4878,276.9375,44.4375,25.3125,0.7021484,-1.428223,-1.355469,-0.1220703,0.2573242,0.07568359
4882,260.875,44.0625,22.4375,0.6479492,-1.354492,-1.232422,-0.1210938,0.262207,0.04882813
4886,245.875,47.6875,24.875,0.5708008,-1.199219,-1.113281,-0.1210938,0.2685547,0.03613281
4890,217.3125,40,33.8125,0.4038086,-0.8920898,-1.121094,-0.1176758,0.2709961,0.01171875
4895,184.625,23.6875,35.1875,0.3847656,-0.7133789,-1.005371,-0.1152344,0.2749023,-0.005371094
4899,159.8125,10.5,23.125,0.3652344,-0.5229492,-0.8979492,-0.112793,0.2763672,-0.02050781
4903,136.1875,-0.8125,10.3125,0.3613281,-0.4609375,-0.8129883,-0.1103516,0.2773438,-0.03369141
4907,112.6875,-0.6875,0.8125,0.4194336,-0.4257813,-0.6054688,-0.109375,0.2773438,-0.04492188
4911,93.5,11.5,-1.375,0.4580078,-0.5307617,-0.378418,-0.1103516,0.2749023,-0.05419922
4915,76.8125,27.3125,3,0.3691406,-0.5424805,-0.2861328,-0.1079102,0.2749023,-0.06396484
4919,57.375,31.75,15.375,0.2216797,-0.5268555,-0.2783203,-0.1079102,0.2749023,-0.07080078
4923,37.5,25.625,30.375,0.109375,-0.4257813,-0.2978516,-0.1079102,0.2763672,-0.07324219
4927,8.6875,9.9375,34,0.09375,-0.3095703,-0.309082,-0.1044922,0.2763672,-0.07763672
4931,-11.9375,-1.625,31.8125,0.1518555,-0.3950195,-0.2900391,-0.09960938,0.2788086,-0.07861328
4935,-15.125,-4.75,22.4375,0.2216797,-0.4296875,-0.3012695,-0.09863281,0.2797852,-0.07763672
4939,-21.0625,-10.25,8,0.1870117,-0.3095703,-0.4091797,-0.09716797,0.2788086,-0.07324219
4943,-36.5625,-18.75,0.0625,0.1791992,-0.3173828,-0.4824219,-0.09619141,0.2797852,-0.07177734
4947,-59.0625,-28.5625,-0.1875,0.1674805,-0.3173828,-0.5131836,-0.09716797,0.2797852,-0.06787109
4951,-85.0625,-36.5625,-0.875,0.2216797,-0.3950195,-0.5244141,-0.09619141,0.28125,-0.0625
4955,-107,-38.375,-1.375,0.2758789,-0.4960938,-0.5551758,-0.09716797,0.2836914,-0.05029297
4959,-125.125,-36.0625,-3.1875,0.3227539,-0.5424805,-0.628418,-0.09619141,0.2797852,-0.04199219
4963,-143.375,-35.3125,-11.4375,0.3417969,-0.5541992,-0.7475586,-0.09863281,0.28125,-0.02978516
4967,-163.6875,-38.4375,-23.0625,0.3266602,-0.6044922,-0.8823242,-0.1010742,0.28125,-0.01367188
4971,-188.5,-49.75,-32.8125,0.2993164,-0.6821289,-1.01709,-0.1010742,0.2797852,-0.001464844
4975,-216.75,-66.375,-34.1875,0.2875977,-0.8417969,-1.090332,-0.1030273,0.2763672,0.01611328
4979,-242.625,-81.625,-23.4375,0.3496094,-1.074707,-1.105469,-0.1069336,0.2700195,0.04052734
4983,-261.75,-86.625,-13.125,0.4892578,-1.265137,-1.036133,-0.1054688,0.2661133,0.05664063
4987,-265.9375,-81.9375,-17.5625,0.6362305,-1.397461,-0.9902344,-0.1054688,0.2597656,0.08251953
4991,-267.8125,-79.3125,-34.5,0.659668,-1.475098,-1.013184,-0.1030273,0.2475586,0.1113281
4995,-275.0625,-79.875,-42.25,0.6328125,-1.517578,-1.086426,-0.1054688,0.2412109,0.1259766
4999,-291.3125,-84.3125,-33.6875,0.5512695,-1.638184,-1.193848,-0.1054688,0.2250977,0.1508789
5003,-308.0625,-91,-9.6875,0.5087891,-1.754883,-1.255371,-0.1030273,0.2075195,0.1777344
5007,-317.625,-90.5625,7.375,0.609375,-1.828613,-1.240234,-0.09716797,0.1938477,0.1943359
5011,-314.1875,-78.6875,8.75,0.7758789,-1.921875,-1.174805,-0.09375,0.1723633,0.21875
5015,-292.625,-60.0625,-11.9375,0.8378906,-1.886719,-1.182617,-0.08642578,0.1489258,0.237793
5019,-275.5,-55.375,-35.6875,0.7060547,-1.735352,-1.351563,-0.08300781,0.1313477,0.2514648
5024,-272.8125,-61.3125,-37.75,0.5859375,-1.681152,-1.467285,-0.07958984,0.1074219,0.2651367
5028,-282.4375,-70.1875,-21.9375,0.5087891,-1.618652,-1.528809,-0.07568359,0.08007813,0.28125
5032,-292.5625,-72.6875,0.3125,0.5126953,-1.634277,-1.536621,-0.07128906,0.0625,0.2866211
5036,-291.5625,-71.8125,19.3125,0.4194336,-1.606934,-1.602051,-0.06396484,0.03125,0.2963867
5040,-288.4375,-87.0625,22.4375,0.2993164,-1.432129,-1.782715,-0.05810547,0.00390625,0.3041992
5044,-287.75,-108.6875,24.3125,0.3925781,-1.276855,-1.871094,-0.04833984,-0.01708984,0.3071289
5048,-299.25,-119.875,12,0.4892578,-0.9736328,-1.91748,-0.0390625,-0.046875,0.3085938
5052,-327.6875,-125.5,-5.625,0.4892578,-1.078613,-1.786621,-0.02587891,-0.07714844,0.3110352
5056,-332.9375,-127.1875,-13.875,0.3305664,-1.226563,-1.513184,-0.01611328,-0.1030273,0.3085938
5060,-303.3125,-123.6875,-0.25,0.2216797,-1.269043,-1.301758,-0.001953125,-0.1357422,0.3017578
5064,-292.6875,-137.625,7.5625,0.01269531,-0.9155273,-1.320801,0.009277344,-0.1679688,0.2919922
5068,-298.9375,-180.6875,17.5,0.03564453,-0.8959961,-1.436523,0.01904297,-0.1870117,0.2841797
5072,-293.8125,-214.375,22.0625,0.3691406,-1.070801,-1.151855,0.03564453,-0.2167969,0.2705078
5076,-258.375,-201.125,19.75,0.8183594,-0.9428711,-0.6362305,0.05224609,-0.2407227,0.2514648
5080,-227.1875,-141.5625,18.4375,1.132324,-0.7055664,-0.109375,0.06054688,-0.2568359,0.2392578
5084,-212.75,-64.4375,11.4375,1.113281,-0.6899414,0.2021484,0.06884766,-0.2753906,0.2226563
5088,-172.8125,-3.3125,-1.1875,0.9116211,-0.9155273,0.4326172,0.07373047,-0.2905273,0.2089844
5092,-108.375,43.5625,-9.5625,0.5356445,-0.8457031,0.4443359,0.07226563,-0.296875,0.2011719
5096,-65.625,60.5625,-6.5625,0.1054688,-0.6240234,0.3134766,0.07128906,-0.3032227,0.1943359
5100,-31.875,55.0625,10.1875,-0.1147461,-0.581543,0.2021484,0.06640625,-0.3081055,0.1943359
5104,-7.1875,41.8125,23.3125,-0.1572266,-0.4257813,0.1518555,0.06396484,-0.3095703,0.1899414
5108,11.125,32.625,27,-0.08007813,-0.2939453,0.1518555,0.05957031,-0.3095703,0.1899414
5112,34.1875,29.875,24.3125,0.008789063,-0.3286133,0.1674805,0.0546875,-0.3066406,0.1943359
5116,62.375,37.6875,23.8125,0.125,-0.3017578,0.1635742,0.05322266,-0.3056641,0.1967773
5120,86.3125,55.0625,26.0625,0.206543,-0.324707,0.1098633,0.04980469,-0.3007813,0.2036133
5124,111.6875,76.9375,31.875,0.2216797,-0.2978516,-0.07470703,0.04248047,-0.2944336,0.2133789
5128,128.9375,90.5625,33.0625,0.125,-0.2202148,-0.2900391,0.03662109,-0.2895508,0.2172852
5132,144.8125,86.5,28.4375,0.01660156,-0.324707,-0.4555664,0.02832031,-0.2768555,0.2280273
5136,166.3125,75.6875,23.4375,0.03564453,-0.5112305,-0.5244141,0.01904297,-0.265625,0.2392578
5140,204.625,77.3125,21,0.09765625,-0.5229492,-0.6787109,0.01171875,-0.2529297,0.2485352
5144,223.8125,82.8125,25.625,0.1210938,-0.4765625,-0.894043,0.006835938,-0.2358398,0.2607422
5148,231.125,82.25,34.1875,0.1635742,-0.5307617,-1.009277,-0.0009765625,-0.2167969,0.2729492
5153,230.75,74.375,28.375,0.1831055,-0.565918,-1.040039,-0.0078125,-0.1992188,0.2783203
5157,245.3125,73.125,22.0625,0.3417969,-0.8959961,-1.001465,-0.01757813,-0.1782227,0.2866211
5161,281.3125,90.1875,17.3125,0.4350586,-0.6899414,-1.221191,-0.02587891,-0.1518555,0.2963867
5165,275.3125,100.625,19.0625,0.4892578,-0.7446289,-1.301758,-0.03076172,-0.1333008,0.300293
5169,274.625,112.5,31.5,0.4580078,-0.8647461,-1.324707,-0.04248047,-0.1054688,0.3056641
5173,259.0625,112.3125,42.0625,0.4116211,-0.8959961,-1.378906,-0.05419922,-0.07324219,0.3085938
5177,262.875,107.5,41.0625,0.4233398,-0.9155273,-1.505859,-0.06152344,-0.05566406,0.3085938
5181,260.3125,90.9375,28.75,0.3613281,-0.9658203,-1.471191,-0.07226563,-0.02929688,0.3041992
5185,266.5,73,19.5,0.3886719,-1.121582,-1.428711,-0.08203125,-0.001953125,0.300293
5189,269.1875,61.875,16.4375,0.4892578,-1.276855,-1.251953,-0.08398438,0.01757813,0.2949219
5193,280.125,63.375,23.625,0.6132813,-1.37793,-1.221191,-0.09130859,0.04394531,0.2866211
5197,281.5,76.375,31.9375,0.7138672,-1.304199,-1.186523,-0.09716797,0.07275391,0.2773438
5201,268.4375,87.25,42.25,0.7060547,-1.21875,-1.221191,-0.1020508,0.09130859,0.2705078
5205,256.125,89.875,41.0625,0.6948242,-1.171875,-1.217285,-0.1079102,0.1152344,0.2539063
5209,245.25,77.3125,31.8125,0.5668945,-1.175781,-1.20166,-0.112793,0.1376953,0.237793
5213,240.3125,54.1875,21.0625,0.4853516,-1.312012,-1.109375,-0.1162109,0.1499023,0.2270508
5217,250.75,29.375,9.25,0.4970703,-1.475098,-1.028809,-0.1186523,0.1699219,0.2089844
5221,268.125,19.5625,4.125,0.625,-1.463379,-0.9208984,-0.1186523,0.1875,0.1889648
5225,266.6875,38,8.5625,0.7836914,-1.269043,-0.8554688,-0.1186523,0.1972656,0.1777344
5229,245.375,66.8125,20.0625,0.8110352,-1.241699,-0.7939453,-0.1220703,0.2138672,0.1586914
5233,231.6875,89.6875,28.5,0.7451172,-1.269043,-0.7133789,-0.1220703,0.2275391,0.1328125
5237,226.8125,98.5,25.625,0.609375,-1.397461,-0.6899414,-0.1235352,0.2363281,0.1191406
5241,228.25,86.125,18.4375,0.4311523,-1.389648,-0.5976563,-0.1259766,0.2460938,0.09912109
5245,242,67.9375,4.5625,0.4506836,-1.696289,-0.3974609,-0.1269531,0.2524414,0.07421875
5249,267.75,60.5,4.3125,0.4853516,-1.828613,-0.2514648,-0.128418,0.2573242,0.05664063
5253,274.125,63.3125,28,0.4077148,-1.560547,-0.3745117,-0.1293945,0.2651367,0.03222656
