Packet number,Gyroscope X (deg/s),Gyroscope Y (deg/s),Gyroscope Z (deg/s),Accelerometer X (g),Accelerometer Y (g),Accelerometer Z (g),Magnetometer X (G),Magnetometer Y (G),Magnetometer Z (G)
2,-2.625,2.5625,-2.375,-0.8432617,-0.4140625,-0.3554688,0.2260742,0.09863281,0.1640625
6,-2.5625,1.3125,-3.125,-0.8393555,-0.4296875,-0.3359375,0.2260742,0.1010742,0.1640625
10,-1.6875,0.1875,-3.1875,-0.862793,-0.4375,-0.3325195,0.2260742,0.1000977,0.1655273
14,0.1875,0.125,-1.75,-0.8706055,-0.4335938,-0.3208008,0.2246094,0.09863281,0.1655273
19,1.4375,-1.375,-0.75,-0.8666992,-0.4335938,-0.3476563,0.2246094,0.09863281,0.1655273
23,1.875,-1.5,-0.5,-0.8354492,-0.4067383,-0.3706055,0.2260742,0.1000977,0.1640625
27,0.0625,-2.625,-1.5,-0.847168,-0.3911133,-0.3823242,0.2246094,0.09863281,0.1640625
31,-1.6875,-3.125,-0.75,-0.8393555,-0.3911133,-0.3901367,0.2246094,0.1010742,0.1669922
35,-3.25,-3.3125,-0.625,-0.8393555,-0.402832,-0.4052734,0.2236328,0.1010742,0.1640625
39,-3.75,-3.1875,-0.875,-0.8046875,-0.4296875,-0.4013672,0.2260742,0.09863281,0.1669922
43,-1.8125,-0.9375,-1.3125,-0.796875,-0.4375,-0.4091797,0.2260742,0.09863281,0.1640625
47,0.9375,0.4375,-1.625,-0.8085938,-0.4453125,-0.4169922,0.2246094,0.1000977,0.1655273
51,3.1875,2.375,-1.375,-0.7890625,-0.4335938,-0.4516602,0.2260742,0.1000977,0.1655273
55,3.125,4.625,-2.1875,-0.7617188,-0.4375,-0.5361328,0.2270508,0.09863281,0.1655273
59,4.9375,7.1875,-3,-0.7036133,-0.4882813,-0.6708984,0.2246094,0.1000977,0.1640625
63,3.3125,16,-6.875,-0.5913086,-0.421875,-0.8671875,0.2236328,0.1010742,0.1655273
67,-6.0625,30.5,-12.0625,-0.5952148,-0.4067383,-0.9941406,0.222168,0.1025391,0.168457
71,-20.75,37.5,-15.5625,-0.6225586,-0.4570313,-1.209473,0.2211914,0.1010742,0.1699219
75,-34.5625,54.4375,-18.0625,-0.3706055,-0.4067383,-1.375,0.2177734,0.1035156,0.1723633
79,-56,91.3125,-23.875,-0.262207,-0.4067383,-1.482422,0.2119141,0.1010742,0.1791992
83,-79.3125,131.125,-29.75,-0.4443359,-0.402832,-1.459473,0.2094727,0.1010742,0.1875
87,-98.0625,156.0625,-31.875,-0.765625,-0.46875,-1.382324,0.1972656,0.09619141,0.1982422
91,-111.5,141.375,-55,-1.145508,-0.5268555,-1.259277,0.184082,0.09130859,0.2133789
95,-109.5,132.1875,-62,-0.9555664,-0.6318359,-1.08252,0.1772461,0.08740234,0.2211914
99,-101.375,154.8125,-51.375,-0.9091797,-0.6899414,-1.05957,0.1630859,0.08251953,0.2324219
103,-78.5,172.875,-35.375,-0.7543945,-0.6899414,-1.163086,0.1484375,0.07861328,0.2460938
107,-63.6875,206.625,-23.125,-0.6303711,-0.7055664,-1.367188,0.1376953,0.07519531,0.2539063
111,-58.625,242.1875,-24.75,-0.5410156,-0.5,-1.482422,0.1166992,0.07128906,0.2651367
115,-84.8125,270,-31.25,-0.6689453,-0.2314453,-1.686523,0.09521484,0.06396484,0.2758789
119,-125.875,279.25,-35.6875,-0.8818359,-0.2470703,-1.763184,0.07617188,0.06005859,0.2851563
123,-152.9375,282.25,-37.5625,-0.8393555,-0.355957,-1.717285,0.04882813,0.04980469,0.293457
127,-154.9375,286.3125,-24.5,-0.7734375,-0.6201172,-1.793945,0.02001953,0.03369141,0.3032227
131,-136.5,311.6875,-12.5625,-0.5605469,-0.7871094,-1.80957,0.002441406,0.02490234,0.3041992
135,-147.5,348.1875,-25.625,-0.3320313,-0.2275391,-2.051758,-0.02929688,0.01025391,0.3071289
139,-211.375,380,-59.625,-0.7036133,-0.2084961,-2.075195,-0.06738281,-0.006835938,0.3056641
143,-234.75,379.1875,-49.3125,-1.23877,-0.6860352,-1.797852,-0.09375,-0.0234375,0.300293
148,-211.75,360.0625,7.125,-1.385742,-0.7949219,-1.413086,-0.128418,-0.046875,0.2880859
152,-174.0625,329.8125,58.875,-1.277344,-0.6938477,-1.19043,-0.1616211,-0.06445313,0.2729492
156,-146.875,298.125,72.25,-0.9091797,-0.519043,-0.9594727,-0.1806641,-0.07080078,0.2636719
160,-127.0625,272.6875,59.875,-0.5488281,-0.371582,-0.7939453,-0.2055664,-0.07958984,0.2416992
164,-119.9375,242.875,31.8125,-0.4365234,-0.3364258,-0.5976563,-0.2255859,-0.08447266,0.2255859
168,-105.25,200.6875,-1,-0.3901367,-0.3364258,-0.3862305,-0.2363281,-0.08935547,0.2133789
172,-80.8125,156.1875,-19.1875,-0.4711914,-0.3520508,-0.1245117,-0.2509766,-0.09960938,0.199707
176,-39.9375,109.8125,-10.5,-0.4672852,-0.387207,0.06347656,-0.2592773,-0.1030273,0.1860352
180,-1.5,82.375,8.5625,-0.230957,-0.2470703,0.1557617,-0.2602539,-0.1044922,0.1821289
184,22.9375,69.8125,24.1875,-0.08398438,-0.09570313,0.1098633,-0.2685547,-0.1020508,0.1762695
188,27.9375,54.9375,24.875,0.008789063,0.105957,0.02490234,-0.2724609,-0.09814453,0.1723633
192,19.875,28.5,12.875,0.01660156,0.1523438,-0.02832031,-0.2734375,-0.09716797,0.168457
196,13.25,5.1875,1.4375,0.09375,0.1098633,-0.01660156,-0.2758789,-0.09716797,0.168457
200,14.625,-13.75,3.25,0.09375,-0.06054688,-0.01318359,-0.2744141,-0.09423828,0.168457
204,33.4375,-26.625,12.8125,0.1674805,-0.1811523,-0.02050781,-0.2744141,-0.09326172,0.1655273
208,58.0625,-34.3125,22.75,0.2529297,-0.1538086,-0.1362305,-0.2734375,-0.08837891,0.1723633
212,66.375,-44.1875,21.8125,0.2138672,-0.05273438,-0.2861328,-0.2724609,-0.08203125,0.1762695
216,65.0625,-66.6875,9.125,0.2216797,0.02832031,-0.4555664,-0.2685547,-0.07958984,0.1777344
220,59.5,-84.125,1.4375,0.2294922,-0.06835938,-0.5708008,-0.2651367,-0.07421875,0.1831055
224,62.875,-91.125,3.1875,0.3339844,-0.1152344,-0.6171875,-0.2578125,-0.07080078,0.1928711
228,63.875,-89,11.375,0.2797852,-0.08789063,-0.6787109,-0.2543945,-0.06933594,0.1967773
232,56.875,-97.5625,18.5,0.08642578,-0.09179688,-0.7324219,-0.2495117,-0.06201172,0.2050781
236,45.125,-126.1875,10.3125,-0.01025391,-0.06445313,-0.7783203,-0.2426758,-0.05712891,0.2143555
240,42.3125,-163,-5.3125,-0.04101563,-0.2939453,-0.8325195,-0.2353516,-0.0546875,0.21875
244,58.25,-184.4375,-19.0625,0.1791992,-0.371582,-0.7514648,-0.2236328,-0.05078125,0.2333984
248,70.5625,-170.9375,-23.0625,0.1289063,-0.3637695,-0.6362305,-0.2104492,-0.04931641,0.2431641
252,77.25,-168.875,-30.625,-0.3046875,-0.2744141,-0.5629883,-0.2006836,-0.04589844,0.2524414
256,79.625,-196.3125,-31.5,-0.7504883,-0.355957,-0.6401367,-0.1855469,-0.03955078,0.2592773
260,90.75,-236.8125,-23.0625,-0.8706055,-0.46875,-0.7246094,-0.1674805,-0.03564453,0.2714844
264,112.625,-264.0625,-14.25,-0.8276367,-0.5776367,-0.7783203,-0.1508789,-0.03076172,0.2783203
268,131.5,-274.9375,-8.0625,-0.9438477,-0.6044922,-0.7709961,-0.1269531,-0.01953125,0.2880859
272,148.375,-287.5625,-2.9375,-1.118652,-0.6318359,-0.8979492,-0.1010742,-0.005859375,0.2949219
277,158.4375,-302.625,2.75,-1.191895,-0.5737305,-1.028809,-0.08203125,0.002441406,0.3017578
281,169.6875,-324.3125,30.75,-1.253906,-0.7290039,-1.390137,-0.05224609,0.01855469,0.3017578
285,183.25,-321.5,48.75,-0.7851563,-0.6240234,-1.416992,-0.01855469,0.03759766,0.3017578
289,169.125,-294.8125,65.75,-0.6767578,-0.355957,-1.659668,0.002441406,0.04980469,0.300293
293,119.875,-273.125,35.0625,-0.6186523,-0.04150391,-1.478516,0.03320313,0.06396484,0.2919922
297,68.25,-256.25,6.375,-1.087402,-0.2392578,-1.278809,0.05810547,0.07275391,0.2841797
301,53.125,-276.5625,-2.5,-1.641602,-0.6513672,-1.170898,0.07373047,0.07617188,0.2797852
305,79.3125,-316.875,20.875,-1.672363,-1.004883,-1.251953,0.1010742,0.08105469,0.2661133
309,121.4375,-322.8125,44.1875,-1.137695,-0.9619141,-1.263184,0.1293945,0.08642578,0.2524414
313,141.4375,-278.625,57.6875,-0.8974609,-0.8535156,-1.274902,0.1474609,0.09375,0.2363281
317,139.375,-231.625,55.125,-1.033203,-0.6630859,-1.248047,0.1699219,0.1010742,0.2143555
321,105.875,-227.125,38.625,-1.494141,-0.4492188,-1.251953,0.1889648,0.1088867,0.1967773
325,66.5625,-259.875,18.9375,-1.738281,-0.5385742,-1.121094,0.2011719,0.1113281,0.1845703
329,52.6875,-285.875,12.625,-1.641602,-0.7602539,-0.9785156,0.2163086,0.1137695,0.1669922
333,62.1875,-295.5625,9.9375,-1.587402,-0.9155273,-0.8554688,0.2329102,0.1137695,0.1411133
337,80.9375,-291.4375,8.625,-1.467285,-0.9155273,-0.8017578,0.2436523,0.1137695,0.1235352
341,79,-283.5,15.125,-1.471191,-0.581543,-0.8017578,0.2568359,0.1162109,0.09619141
345,61.5,-261.8125,26.4375,-1.165039,-0.421875,-0.6977539,0.2675781,0.1162109,0.0703125
349,43.6875,-230.1875,42,-1.091309,-0.421875,-0.6401367,0.2724609,0.1162109,0.05273438
353,36.9375,-207.3125,50.4375,-1.044922,-0.5151367,-0.628418,0.2792969,0.1137695,0.03222656
357,38.0625,-185.5,54,-0.9399414,-0.5776367,-0.7016602,0.2856445,0.1074219,0.01318359
361,36.125,-165,54.1875,-0.7929688,-0.5229492,-0.8901367,0.2900391,0.1035156,0
365,32.3125,-139.5,50.25,-0.5644531,-0.534668,-1.066895,0.2915039,0.1010742,-0.01464844
369,22.9375,-106,42.0625,-0.328125,-0.4570313,-1.244141,0.2973633,0.09375,-0.02734375
373,5.375,-65.0625,26.125,-0.1108398,-0.453125,-1.30957,0.2973633,0.09130859,-0.03369141
377,-10.25,-13.1875,13.25,-0.002441406,-0.4335938,-1.30957,0.2983398,0.09130859,-0.04052734
381,-28,42,5.0625,-0.05664063,-0.4609375,-1.313477,0.2983398,0.08886719,-0.03662109
385,-43.5,84.75,-3.25,-0.2041016,-0.4765625,-1.297852,0.2998047,0.08886719,-0.03125
389,-60.3125,109.375,-22.0625,-0.3823242,-0.4648438,-1.26709,0.2973633,0.08886719,-0.02148438
393,-74.25,125.3125,-45,-0.4326172,-0.5307617,-1.209473,0.2973633,0.09228516,-0.008300781
397,-81.0625,154.3125,-55.75,-0.4711914,-0.6162109,-1.125,0.2924805,0.09521484,0.002441406
401,-77.125,189.4375,-57.8125,-0.5410156,-0.7016602,-1.086426,0.2880859,0.1010742,0.02001953
406,-65.4375,226,-51.75,-0.7075195,-0.7753906,-1.097656,0.2807617,0.1064453,0.04296875
410,-49.6875,260.125,-45.8125,-0.847168,-0.7792969,-1.094238,0.2783203,0.1074219,0.05810547
414,-32.4375,284,-45.6875,-1.103027,-0.8144531,-1.163086,0.2666016,0.1098633,0.08251953
418,-34.625,298.0625,-47.3125,-1.20752,-0.5424805,-1.328613,0.2519531,0.1137695,0.1083984
422,-71.75,317.75,-47.8125,-1.265625,-0.3286133,-1.478516,0.2436523,0.1137695,0.1274414
426,-114.875,337.5625,-46.4375,-1.517578,-0.4296875,-1.555664,0.2236328,0.1162109,0.1547852
430,-139.875,333.75,-46.3125,-1.835449,-0.6630859,-1.563477,0.2021484,0.1113281,0.1860352
434,-157,316.1875,-52.25,-2.040527,-0.6899414,-1.586426,0.1865234,0.1074219,0.2021484
438,-175.4375,302.375,-57.1875,-1.870117,-0.7133789,-1.543945,0.1591797,0.09765625,0.2270508
442,-193.5625,323.6875,-37.4375,-1.870117,-0.7211914,-1.55957,0.1342773,0.08642578,0.2514648
446,-213.8125,348.125,-6.8125,-1.924316,-0.7641602,-1.528809,0.112793,0.07763672,0.2651367
450,-224.375,373.875,36.9375,-1.998047,-0.8144531,-1.528809,0.08300781,0.05761719,0.2827148
454,-226.6875,372.3125,62.625,-2.137695,-0.8457031,-1.463379,0.04882813,0.03369141,0.300293
458,-216.6875,332.375,69.3125,-2.242188,-0.9736328,-1.328613,0.02490234,0.01757813,0.3041992
462,-193.4375,276.625,66.3125,-1.939941,-1.059082,-1.113281,-0.004394531,-0.004394531,0.3100586
466,-149.625,241.8125,74.6875,-1.385742,-1.171875,-1.020996,-0.03173828,-0.02050781,0.3110352
470,-100.25,243.4375,72.8125,-0.7504883,-1.004883,-0.9863281,-0.04492188,-0.02929688,0.3110352
474,-69.6875,277.5,58.6875,-0.4208984,-0.7910156,-1.013184,-0.07128906,-0.03564453,0.3071289
478,-52.375,301.125,45.75,-0.5449219,-0.6435547,-1.05957,-0.09863281,-0.04052734,0.2988281
482,-36.4375,300.8125,44.5625,-0.6650391,-0.5698242,-1.001465,-0.1201172,-0.04296875,0.293457
486,-21.1875,283.4375,48.4375,-0.6767578,-0.3676758,-0.9208984,-0.1459961,-0.04296875,0.28125
490,-27.8125,242.3125,33.25,-0.746582,-0.1230469,-0.8325195,-0.1708984,-0.04443359,0.269043
494,-52.4375,198.8125,4.1875,-0.6147461,-0.04150391,-0.574707,-0.184082,-0.04443359,0.2607422
498,-76.75,168.0625,-9.5625,-0.4829102,-0.1191406,-0.3208008,-0.2021484,-0.04931641,0.2514648
502,-70.1875,139.875,-7.0625,-0.5332031,-0.3911133,-0.109375,-0.2114258,-0.05566406,0.2392578
506,-44.75,117.5,2.6875,-0.3510742,-0.3325195,0.1713867,-0.2197266,-0.05810547,0.2324219
510,-20.4375,95.75,16,-0.3203125,-0.3364258,0.2329102,-0.2270508,-0.06298828,0.2270508
514,5.9375,69.625,20.1875,-0.1689453,-0.3173828,0.3364258,-0.2353516,-0.06298828,0.2202148
518,26.4375,48.6875,17.125,-0.1108398,-0.2275391,0.3710938,-0.2363281,-0.05810547,0.21875
522,36.4375,16.125,6.25,-0.1533203,-0.1035156,0.2749023,-0.2412109,-0.05810547,0.2143555
526,45,-19.5625,-0.3125,-0.1225586,-0.1772461,0.140625,-0.2412109,-0.0546875,0.2158203
530,57.4375,-40.4375,3,0.05517578,-0.09960938,0.02880859,-0.2402344,-0.05078125,0.2158203
535,57.6875,-48.875,9.25,0.07080078,-0.07617188,-0.1015625,-0.2363281,-0.04443359,0.21875
539,62.8125,-67.875,9.9375,0.05517578,-0.09570313,-0.2744141,-0.2319336,-0.04199219,0.2226563
543,69.25,-79.625,13,0.09375,-0.1655273,-0.3745117,-0.2280273,-0.03955078,0.2270508
547,74.75,-88.1875,14.875,0.06689453,-0.1191406,-0.559082,-0.2246094,-0.02929688,0.2324219
551,64.1875,-103.5625,6.0625,0.04736328,0.0009765625,-0.6245117,-0.215332,-0.02197266,0.237793
555,49.8125,-118.5,0.75,-0.1381836,-0.06835938,-0.6708984,-0.2104492,-0.02050781,0.2416992
559,46.8125,-145.5625,-1.5625,-0.2231445,-0.1308594,-0.7207031,-0.2006836,-0.01708984,0.25
563,45.8125,-160.9375,3.4375,-0.2583008,-0.2353516,-0.7363281,-0.1865234,-0.01318359,0.2583008
567,51.875,-174.1875,3.375,-0.2504883,-0.2822266,-0.7016602,-0.1782227,-0.01074219,0.2651367
571,56.4375,-180.5,0.0625,-0.4711914,-0.4067383,-0.6132813,-0.1625977,-0.004394531,0.2705078
575,77.125,-210.3125,-6.9375,-0.7114258,-0.503418,-0.6748047,-0.1459961,-0.0004882813,0.2783203
579,103.9375,-241.125,-6.0625,-0.8510742,-0.7172852,-0.7749023,-0.1318359,0.004882813,0.2851563
583,139.6875,-258.25,-0.8125,-0.6884766,-0.6821289,-0.840332,-0.109375,0.01513672,0.2910156
587,164.625,-248.5625,15.3125,-0.730957,-0.7524414,-0.9248047,-0.08398438,0.03027344,0.2963867
591,172.3125,-238.375,34.3125,-0.9169922,-0.4414063,-1.020996,-0.06738281,0.04248047,0.2949219
595,136.625,-259.0625,39.1875,-1.234863,-0.2900391,-1.178711,-0.04394531,0.05761719,0.2919922
599,105,-288.5625,37.25,-1.199707,-0.3754883,-1.151855,-0.01611328,0.06982422,0.2949219
603,90.5,-301.5625,37.5,-1.12207,-0.581543,-1.132324,0.004394531,0.07617188,0.2910156
607,95.75,-294.75,46.0625,-1.033203,-0.7680664,-1.094238,0.03320313,0.08496094,0.2827148
611,114.75,-276.5,55.0625,-1.033203,-0.8261719,-1.032227,0.06152344,0.09130859,0.2744141
615,121.0625,-263.1875,60.4375,-1.215332,-0.6748047,-1.047852,0.07958984,0.09863281,0.2661133
619,99.4375,-274.625,52.25,-1.436035,-0.4804688,-1.121094,0.1035156,0.1074219,0.2524414
623,62.75,-296.25,38.6875,-1.54834,-0.4765625,-1.094238,0.128418,0.1113281,0.2348633
627,37.625,-315.125,27.3125,-1.567871,-0.6899414,-1.001465,0.1484375,0.1137695,0.2270508
631,39.75,-314.3125,30.5625,-1.513672,-0.9116211,-0.8325195,0.1738281,0.1137695,0.2080078
635,59.8125,-302.875,40.625,-1.563965,-1.016602,-0.7631836,0.1962891,0.1137695,0.1845703
639,81.4375,-299.9375,43.75,-1.649414,-1.000977,-0.7363281,0.2080078,0.1152344,0.1708984
643,95.5,-296.6875,46.3125,-1.610352,-0.9233398,-0.7514648,0.2285156,0.1176758,0.1464844
647,99.6875,-284.875,51.25,-1.603027,-0.8339844,-0.7094727,0.2436523,0.1176758,0.1191406
651,92.8125,-274.8125,50.5,-1.695801,-0.7172852,-0.5708008,0.2543945,0.1162109,0.09912109
655,79.6875,-271.3125,46.8125,-1.819824,-0.6938477,-0.4863281,0.2651367,0.1137695,0.07421875
659,68.375,-273.625,54.9375,-1.901367,-0.6591797,-0.4936523,0.2773438,0.1137695,0.04589844
664,60.9375,-285.0625,67.9375,-1.804199,-0.7368164,-0.6323242,0.2817383,0.1074219,0.02978516
668,62.125,-277.75,77.5625,-1.416992,-0.7055664,-0.6708984,0.2890625,0.1010742,0.0009765625
672,60.9375,-250.125,85.5,-1.195801,-0.6938477,-0.7475586,0.2939453,0.09619141,-0.02832031
676,61.0625,-223.4375,86.75,-1.095215,-0.6787109,-0.7939453,0.2963867,0.08740234,-0.04199219
680,60.625,-203.3125,83.3125,-0.9790039,-0.5927734,-0.8632813,0.2998047,0.07763672,-0.06640625
684,56.8125,-182.25,77.625,-0.7426758,-0.5463867,-0.8823242,0.2998047,0.06982422,-0.08691406
688,53.375,-150.8125,70.5625,-0.4672852,-0.4960938,-0.878418,0.2998047,0.06494141,-0.09912109
692,46.75,-110.25,61.625,-0.296875,-0.4335938,-0.9208984,0.3022461,0.05859375,-0.1142578
696,28.25,-73.4375,46.0625,-0.1728516,-0.2978516,-1.01709,0.3007813,0.05273438,-0.125
700,2.375,-30.375,24.125,-0.006347656,-0.2275391,-0.9941406,0.2983398,0.04736328,-0.1289063
704,-27.25,21.4375,6.75,-0.01416016,-0.2124023,-0.9287109,0.2983398,0.04638672,-0.1318359
708,-51.8125,64.5,-2.4375,-0.215332,-0.2744141,-0.9130859,0.3007813,0.04492188,-0.1264648
712,-72.0625,91.125,-17.0625,-0.3549805,-0.3286133,-0.8745117,0.3022461,0.04882813,-0.1157227
716,-86.75,109.375,-36,-0.4013672,-0.3833008,-0.859375,0.3007813,0.05126953,-0.1074219
720,-98.0625,132.0625,-51.5625,-0.4287109,-0.4765625,-0.8286133,0.3032227,0.05859375,-0.09228516
724,-100.25,166.4375,-58.375,-0.4868164,-0.5776367,-0.8017578,0.3056641,0.0625,-0.08154297
728,-99.25,202.125,-58.375,-0.6689453,-0.6357422,-0.8364258,0.3046875,0.07128906,-0.05957031
732,-95.0625,229.0625,-59.375,-0.8896484,-0.7172852,-0.8554688,0.3022461,0.07763672,-0.03662109
736,-90.3125,246.125,-65.625,-1.060547,-0.7680664,-0.8476563,0.3007813,0.08251953,-0.02050781
740,-85.8125,259.75,-72.875,-1.199707,-0.7871094,-0.859375,0.2963867,0.08642578,0.0078125
744,-80.75,268.3125,-87.375,-1.335449,-0.8417969,-0.8671875,0.2890625,0.09375,0.03515625
748,-74.5,273.125,-104.4375,-1.459473,-0.8764648,-0.8168945,0.2807617,0.1000977,0.05273438
752,-65.75,282.375,-109.125,-1.567871,-0.9506836,-0.7475586,0.269043,0.1088867,0.08007813
756,-51.4375,294.9375,-96.875,-1.761719,-1.012695,-0.7402344,0.2509766,0.1162109,0.105957
760,-40.875,303.9375,-72.8125,-1.773438,-0.8842773,-0.7709961,0.2402344,0.1186523,0.1220703
764,-49.375,317,-53.75,-1.812012,-0.6787109,-0.9516602,0.222168,0.1235352,0.1508789
768,-81,303.75,-58.5625,-1.95166,-0.5966797,-1.063477,0.199707,0.1264648,0.1738281
772,-103.75,288.3125,-62.8125,-1.788574,-0.7563477,-1.113281,0.1865234,0.125,0.1875
776,-114.4375,299.3125,-54.375,-1.560059,-0.8803711,-1.240234,0.1640625,0.1210938,0.2104492
780,-119.5,325.8125,-40.375,-1.32373,-0.8613281,-1.375,0.1367188,0.1152344,0.2324219
784,-131.875,366.8125,-20.9375,-1.335449,-0.8647461,-1.51709,0.1186523,0.1098633,0.2446289
788,-147.5,398.5625,-3.25,-1.358887,-0.8027344,-1.621094,0.08691406,0.09765625,0.2636719
793,-174.875,414.6875,-5.9375,-1.560059,-0.7407227,-1.740234,0.04980469,0.08398438,0.2827148
797,-215.625,392,-28.875,-1.699707,-0.7368164,-1.694336,0.0234375,0.07275391,0.2910156
801,-241,368.25,-24.75,-1.610352,-0.9775391,-1.594238,-0.01416016,0.04980469,0.2973633
805,-227.1875,357.9375,-3.9375,-1.362793,-1.203125,-1.455566,-0.04833984,0.02636719,0.3017578
809,-179.6875,365.25,21.875,-1.033203,-1.148438,-1.301758,-0.07324219,0.01269531,0.3032227
813,-142.375,386.0625,35.0625,-0.8896484,-0.8378906,-1.193848,-0.1079102,-0.0004882813,0.293457
817,-138.9375,374,24.4375,-1.203613,-0.5307617,-1.197754,-0.1450195,-0.01464844,0.28125
821,-152.5,292.0625,-17.25,-1.405273,-0.4257813,-0.9941406,-0.1665039,-0.02197266,0.2705078
825,-158.125,206.5625,-44.8125,-1.129883,-0.5151367,-0.6054688,-0.1899414,-0.03710938,0.2583008
829,-125.5625,159.1875,-37.4375,-0.746582,-0.7680664,-0.2744141,-0.2045898,-0.0546875,0.2470703
833,-68.625,154.75,-10.125,-0.3354492,-0.6435547,0.02099609,-0.2138672,-0.06054688,0.2392578
837,-31.375,160.8125,17,-0.3974609,-0.46875,0.01367188,-0.2255859,-0.06445313,0.2294922
841,-12.1875,134.75,28.1875,-0.4130859,-0.2626953,0.02099609,-0.237793,-0.06591797,0.21875
845,-2.75,99.6875,13.0625,-0.2929688,-0.07617188,0.140625,-0.2412109,-0.06591797,0.2104492
849,0.875,53.5625,-10.5,-0.3085938,-0.06835938,0.1748047,-0.2485352,-0.06298828,0.2050781
853,10.5625,20.3125,-13.8125,-0.1884766,-0.1811523,0.2172852,-0.2509766,-0.06445313,0.2021484
857,30.5,3.8125,1.5625,-0.04882813,-0.2275391,0.1635742,-0.2519531,-0.06298828,0.2050781
861,51.1875,-4.1875,17.875,0.05517578,-0.1655273,0.08642578,-0.2519531,-0.06201172,0.2021484
865,58.0625,-11.75,22.25,0.05908203,-0.01806641,-0.01318359,-0.2519531,-0.0546875,0.2050781
869,55.125,-34.1875,19.8125,-0.03710938,0.0009765625,-0.1743164,-0.2509766,-0.05078125,0.2036133
873,48.9375,-64.625,13.375,0.05908203,-0.002441406,-0.2822266,-0.2485352,-0.04589844,0.206543
877,45.625,-79.6875,12.1875,0.1831055,-0.1035156,-0.3901367,-0.2426758,-0.04052734,0.2143555
881,49,-86.125,10.875,0.206543,-0.1811523,-0.4902344,-0.2412109,-0.03710938,0.2172852
885,55.3125,-86.875,12,0.1987305,-0.2006836,-0.559082,-0.2319336,-0.03466797,0.2211914
889,56.625,-91.8125,15.5,0.07861328,-0.1928711,-0.6206055,-0.2270508,-0.02832031,0.230957
893,54.875,-101.8125,17.625,-0.06054688,-0.2202148,-0.609375,-0.222168,-0.02441406,0.230957
897,62.875,-129.9375,21,-0.1572266,-0.3481445,-0.7285156,-0.2128906,-0.01953125,0.2392578
901,68.75,-140.625,22.6875,-0.1225586,-0.3911133,-0.6787109,-0.203125,-0.01318359,0.2470703
905,82.375,-157.375,25.75,-0.2231445,-0.5620117,-0.7749023,-0.1923828,-0.008300781,0.2524414
909,104.0625,-175.5625,29.6875,-0.1923828,-0.5776367,-0.9169922,-0.1791992,0.002441406,0.2636719
913,121.0625,-181.25,28.3125,-0.04492188,-0.484375,-1.009277,-0.1640625,0.01269531,0.2675781
917,113.5625,-177.9375,21.6875,-0.07617188,-0.2666016,-1.08252,-0.1533203,0.02246094,0.2714844
922,82.8125,-174.5625,5.6875,-0.262207,-0.1230469,-0.9672852,-0.1352539,0.03271484,0.2773438
926,51.375,-183.375,-8.875,-0.7075195,-0.2124023,-0.8056641,-0.1186523,0.03759766,0.2841797
930,45,-218.25,0.0625,-1.12207,-0.5854492,-0.8168945,-0.109375,0.03857422,0.2866211
934,78.8125,-267.375,33.5625,-0.9399414,-0.8803711,-1.055664,-0.08544922,0.04492188,0.2910156
938,113.375,-269.875,50.25,-0.3823242,-0.7719727,-1.121094,-0.05908203,0.05517578,0.2919922
942,120.625,-227.875,47,-0.2583008,-0.5776367,-1.08252,-0.04150391,0.06396484,0.293457
946,98.4375,-188.75,29.875,-0.6147461,-0.371582,-0.9438477,-0.02099609,0.07519531,0.2910156
950,72.4375,-195.5625,13.875,-1.149414,-0.4414063,-0.9091797,-0.0009765625,0.08251953,0.2880859
954,60.1875,-235.5625,13.1875,-1.48291,-0.6005859,-0.8823242,0.01074219,0.08886719,0.2841797
958,68.8125,-276.4375,31.1875,-1.443848,-0.8378906,-0.9360352,0.03564453,0.09375,0.2797852
962,96.5,-285.9375,48,-1.087402,-0.8725586,-0.9516602,0.06298828,0.09863281,0.2714844
966,107.8125,-260.0625,58.875,-1.029297,-0.8027344,-0.9360352,0.08056641,0.1025391,0.2651367
970,106.4375,-248.8125,53.0625,-1.308105,-0.7368164,-0.9208984,0.1044922,0.1113281,0.2485352
974,103.625,-273.75,34.5625,-1.606445,-0.7602539,-0.8979492,0.128418,0.1162109,0.2324219
978,100.375,-300.9375,26.0625,-1.618164,-0.8183594,-0.8862305,0.144043,0.1225586,0.2241211
982,95.625,-307.75,33.375,-1.633789,-0.8686523,-0.8554688,0.1665039,0.1264648,0.2011719
986,94.625,-316.1875,42.8125,-1.641602,-0.9233398,-0.8745117,0.1904297,0.1298828,0.1791992
990,94.75,-318,51,-1.649414,-0.9853516,-0.809082,0.2055664,0.1323242,0.1601563
994,98.875,-325,46.4375,-1.614258,-1.000977,-0.7900391,0.2236328,0.1323242,0.1328125
998,103.5,-321.6875,43,-1.521484,-0.9892578,-0.7055664,0.2412109,0.1323242,0.105957
1002,103.875,-309.6875,38.75,-1.575684,-0.9580078,-0.6591797,0.2509766,0.1337891,0.08105469
1006,103.9375,-304.75,41,-1.65332,-0.9697266,-0.6479492,0.2617188,0.1323242,0.05517578
1010,101.9375,-300,46.875,-1.544922,-0.8574219,-0.5517578,0.2700195,0.1313477,0.02001953
1014,94.25,-285.6875,49.3125,-1.501953,-0.7910156,-0.4248047,0.2749023,0.1274414,0.002441406
1018,91.75,-279.25,49.5625,-1.413086,-0.8066406,-0.4594727,0.2807617,0.1225586,-0.02587891
1022,87.1875,-255.875,51.75,-1.215332,-0.7407227,-0.4477539,0.2832031,0.1162109,-0.05566406
1026,82.625,-235.4375,51.125,-1.114746,-0.6938477,-0.5976563,0.2817383,0.1137695,-0.07324219
1030,79.6875,-214.625,50.5,-0.9516602,-0.6860352,-0.6513672,0.2807617,0.1074219,-0.09912109
1034,80.3125,-188.5,56.5,-0.7543945,-0.7016602,-0.7900391,0.2792969,0.1000977,-0.1181641
1038,83.75,-158.0625,62.3125,-0.4594727,-0.6748047,-0.9633789,0.2773438,0.09619141,-0.1303711
1042,82.25,-113.8125,64.0625,-0.1147461,-0.5893555,-1.094238,0.2749023,0.08740234,-0.1494141
1046,69.25,-54.375,53.6875,0.2373047,-0.3637695,-1.213379,0.2749023,0.07763672,-0.1606445
1051,32.875,15.875,32.875,0.3999023,-0.1733398,-1.240234,0.2773438,0.07275391,-0.1616211
1055,-12.4375,83.25,11.5625,0.2797852,-0.1459961,-1.224609,0.2773438,0.06982422,-0.1606445
1059,-54.4375,132.875,-3.6875,-0.01416016,-0.2392578,-1.174805,0.2817383,0.07128906,-0.1484375
1063,-86.5625,164.25,-20.3125,-0.2583008,-0.355957,-1.105469,0.2841797,0.07373047,-0.1401367
1067,-109.75,180.9375,-38.8125,-0.4672852,-0.5,-1.028809,0.2900391,0.07763672,-0.1225586
1071,-121.125,196.8125,-54.75,-0.5449219,-0.6083984,-0.9360352,0.2915039,0.08642578,-0.1005859
1075,-126.8125,222.625,-63.3125,-0.6342773,-0.7055664,-0.8979492,0.2915039,0.09130859,-0.08447266
1079,-126.0625,250.0625,-69.125,-0.7734375,-0.7832031,-0.8862305,0.2924805,0.1000977,-0.05566406
1083,-122,270.75,-82.8125,-0.9868164,-0.8647461,-0.8671875,0.2890625,0.1074219,-0.02734375
1087,-114.5,287.25,-90.8125,-1.11084,-0.9194336,-0.8286133,0.2841797,0.1137695,-0.005371094
1091,-106.0625,307.875,-92.75,-1.331543,-0.9697266,-0.8325195,0.2758789,0.1210938,0.02392578
1095,-97.375,318.625,-77.4375,-1.587402,-1.008789,-0.8671875,0.2651367,0.1274414,0.05810547
1099,-89.6875,329.5625,-48.5625,-1.637695,-0.9506836,-0.9130859,0.2558594,0.1289063,0.07714844
1103,-94.6875,344.4375,-25.0625,-1.695801,-0.8574219,-0.9672852,0.2402344,0.1289063,0.1083984
1107,-104.4375,348.875,-22.8125,-1.777344,-0.8300781,-1.01709,0.2260742,0.1289063,0.1381836
1111,-117.0625,336.4375,-44.375,-2.040527,-0.8920898,-1.001465,0.2104492,0.125,0.1601563
1115,-118,284.125,-72.75,-2.184082,-1.000977,-1.005371,0.1904297,0.1225586,0.1860352
1119,-115.5,263.8125,-66.9375,-1.843262,-1.032227,-0.8862305,0.1665039,0.1201172,0.2080078
1123,-109.875,282.25,-24.6875,-1.67627,-1.074707,-1.024902,0.1508789,0.1152344,0.2226563
1127,-99.5,307.375,10,-1.424316,-0.9658203,-1.144043,0.1293945,0.1088867,0.2402344
1131,-91.6875,339.5,35.4375,-1.292969,-0.9077148,-1.301758,0.1035156,0.1010742,0.2553711
1135,-101.0625,331.25,-0.0625,-1.657227,-0.7753906,-1.416992,0.08447266,0.09521484,0.2661133
1139,-123.5,257.8125,-61.625,-1.54834,-0.7329102,-1.432617,0.05566406,0.08496094,0.2783203
1143,-145.125,242.1875,-79.75,-1.125977,-0.9116211,-1.359375,0.02978516,0.07373047,0.2895508
1147,-146.875,265.75,-57.75,-0.8237305,-1.008789,-1.420898,0.01171875,0.06640625,0.2949219
1151,-136.4375,298.75,-35.875,-0.5292969,-0.8999023,-1.717285,-0.01513672,0.05126953,0.2973633
1155,-148.375,351.9375,-43,-0.2041016,-0.421875,-1.967285,-0.04736328,0.03759766,0.3017578
1159,-227.3125,393.3125,-93.6875,-0.7773438,-0.1420898,-2.028809,-0.07226563,0.02636719,0.2973633
1163,-294.75,339.75,-120.0625,-1.912598,-0.6977539,-1.70166,-0.112793,-0.001953125,0.2919922
1167,-274.0625,240.25,-88.6875,-2.025391,-1.300293,-0.8632813,-0.1401367,-0.03320313,0.2827148
1171,-189,197.9375,-20.875,-1.315918,-1.455566,-0.1552734,-0.1533203,-0.05322266,0.2773438
1175,-106.1875,203.9375,33.25,-0.6884766,-1.11377,-0.009277344,-0.1723633,-0.06835938,0.269043
1180,-54.875,200.625,50.625,-0.5175781,-0.8457031,-0.1245117,-0.1889648,-0.07177734,0.2553711
1184,-28.875,180.75,27,-0.4091797,-0.3793945,-0.05126953,-0.199707,-0.07324219,0.2485352
1188,-15.125,140.6875,0.625,-0.5332031,-0.2626953,0.05957031,-0.2128906,-0.07324219,0.2363281
1192,2.6875,90.1875,-13.8125,-0.4790039,-0.1889648,0.1367188,-0.2236328,-0.07421875,0.2280273
1196,16.6875,61.375,-7.5625,-0.2851563,-0.06835938,0.1479492,-0.2280273,-0.07714844,0.2255859
1200,20.125,44.125,7.1875,-0.3046875,-0.06445313,0.125,-0.2319336,-0.07421875,0.2211914
1204,35.875,15.375,18.5,-0.1650391,-0.1381836,-0.009277344,-0.234375,-0.06933594,0.2202148
1208,47.6875,6.875,21.5625,0.1557617,0.008789063,-0.07861328,-0.2329102,-0.06835938,0.2202148
1212,42,-1.125,11.0625,0.05517578,0.07861328,-0.1591797,-0.2353516,-0.06298828,0.2211914
1216,35.0625,-25.375,1.1875,-0.03320313,0.03613281,-0.1938477,-0.234375,-0.05957031,0.2211914
1220,32.5,-43.9375,3.5625,-0.03320313,-0.07617188,-0.1821289,-0.2329102,-0.05712891,0.2226563
1224,41,-59.8125,12.5,0.04736328,-0.1381836,-0.2939453,-0.2294922,-0.05322266,0.2255859
1228,47.125,-67.125,18,0.08642578,-0.1772461,-0.3666992,-0.2255859,-0.04931641,0.2294922
1232,52.5625,-76.875,21.1875,0.008789063,-0.2314453,-0.4399414,-0.222168,-0.046875,0.2324219
1236,55.5,-93.3125,17.75,-0.05664063,-0.2163086,-0.4594727,-0.215332,-0.04052734,0.2392578
1240,52.3125,-113.3125,10.375,-0.2270508,-0.2666016,-0.4360352,-0.206543,-0.03564453,0.2460938
1244,66.1875,-150.75,9.5625,-0.2583008,-0.2045898,-0.6630859,-0.199707,-0.03076172,0.2485352
1248,89.625,-157.4375,15.25,0.004882813,-0.4453125,-0.6708984,-0.1875,-0.02441406,0.2583008
1252,94.9375,-149.3125,23.6875,-0.2119141,-0.4726563,-0.7246094,-0.1723633,-0.015625,0.2675781
1256,96.6875,-161.75,21.125,-0.4907227,-0.4648438,-0.6630859,-0.1650391,-0.009277344,0.2705078
1260,94.75,-189.875,15.3125,-0.7036133,-0.4921875,-0.7016602,-0.1494141,0,0.2797852
1264,102.5,-236.625,2.125,-0.878418,-0.6474609,-0.9018555,-0.1303711,0.008789063,0.2841797
1268,114.375,-273.5,-16.9375,-0.6376953,-0.6708984,-1.051758,-0.1152344,0.01611328,0.2880859
1272,129.75,-281.4375,-21.0625,-0.4169922,-0.7719727,-1.297852,-0.08886719,0.02734375,0.293457
1276,135.1875,-253.1875,-17.25,-0.04101563,-0.5776367,-1.371094,-0.06298828,0.03759766,0.2973633
1280,121.6875,-207.6875,-7.8125,-0.2001953,-0.565918,-1.359375,-0.04833984,0.04882813,0.2973633
1284,110.75,-189,2.4375,-0.4555664,-0.581543,-1.26709,-0.02685547,0.05859375,0.2949219
1288,102.8125,-188.375,8.5,-0.7734375,-0.7133789,-1.147949,-0.01171875,0.06982422,0.2919922
1292,109.5625,-203.5,2.75,-0.8510742,-0.8261719,-1.001465,0.002441406,0.07617188,0.2895508
1296,115.25,-206.5625,0.3125,-1.013672,-0.9233398,-0.894043,0.02148438,0.08886719,0.2851563
1300,131.0625,-225,-2.5625,-1.191895,-1.016602,-0.8979492,0.04052734,0.09863281,0.2744141
1304,145.0625,-229.125,8.875,-1.176758,-1.020508,-0.8286133,0.05322266,0.1064453,0.2661133
1309,150.4375,-227.1875,27.1875,-1.277344,-1.000977,-0.8286133,0.07470703,0.1186523,0.2553711
1313,154.1875,-233.625,37.875,-1.327637,-0.9814453,-0.809082,0.09521484,0.1313477,0.2416992
1317,152.375,-242.5625,42.9375,-1.366211,-0.9736328,-0.7783203,0.109375,0.1376953,0.230957
1321,150.375,-256.0625,40.6875,-1.447754,-1.020508,-0.7514648,0.1293945,0.1474609,0.2119141
1325,153.25,-271.3125,41.0625,-1.494141,-1.08252,-0.7514648,0.1508789,0.1547852,0.1914063
1329,158.9375,-286.125,44.0625,-1.521484,-1.11377,-0.7514648,0.1640625,0.1586914,0.175293
1333,159.5625,-292.125,53.6875,-1.432129,-1.05127,-0.7592773,0.184082,0.1660156,0.1494141
1337,152.5625,-287,67.25,-1.347168,-1.008789,-0.7441406,0.2021484,0.1713867,0.1191406
1341,142.9375,-278.0625,73.375,-1.37793,-1.016602,-0.7285156,0.2119141,0.1713867,0.1000977
1345,132.6875,-277.8125,71,-1.397461,-0.9931641,-0.6860352,0.2260742,0.1699219,0.07177734
1349,120.4375,-280.625,55,-1.443848,-0.9697266,-0.5439453,0.2392578,0.1660156,0.04199219
1353,109.8125,-288.3125,41.5,-1.57959,-1.032227,-0.3862305,0.2451172,0.1650391,0.02392578
1357,114.875,-292.6875,51.5625,-1.521484,-1.094238,-0.309082,0.2509766,0.1635742,-0.005371094
1361,118.9375,-276.0625,76.875,-1.304199,-1.032227,-0.2939453,0.2568359,0.1577148,-0.03369141
1365,121.5625,-253,90.5625,-1.184082,-0.9931641,-0.3515625,0.2602539,0.1538086,-0.05419922
1369,118,-241.1875,80.1875,-1.052734,-0.8417969,-0.4399414,0.2602539,0.1411133,-0.08447266
1373,99.25,-235.25,51.5625,-0.8588867,-0.6162109,-0.628418,0.2602539,0.1337891,-0.1074219
1377,68.4375,-216.75,29.25,-0.5683594,-0.5307617,-0.6938477,0.2583008,0.1313477,-0.125
1381,49.0625,-179.125,25.0625,-0.3974609,-0.6396484,-0.7133789,0.253418,0.1264648,-0.144043
1385,46.3125,-134.4375,30.8125,-0.2348633,-0.7133789,-0.7822266,0.25,0.1210938,-0.1606445
1389,48.75,-84.1875,31.375,-0.002441406,-0.6474609,-0.878418,0.25,0.1186523,-0.1674805
1393,42.375,-28.8125,18.5625,0.1791992,-0.453125,-0.9746094,0.2475586,0.1162109,-0.1767578
1397,22,27.25,3.1875,0.2216797,-0.3286133,-1.028809,0.2451172,0.1123047,-0.1782227
1401,-10.375,78.3125,-4.375,0.05126953,-0.2124023,-1.047852,0.2460938,0.1123047,-0.1738281
1405,-46.4375,113.5,-9.75,-0.1342773,-0.2124023,-1.009277,0.253418,0.1137695,-0.168457
1409,-79,133.0625,-21,-0.3588867,-0.2939453,-0.9399414,0.2543945,0.1162109,-0.15625
1413,-103.0625,139.75,-36.375,-0.4482422,-0.4179688,-0.8476563,0.2568359,0.1210938,-0.144043
1417,-118.25,159.1875,-41.625,-0.4365234,-0.5,-0.7709961,0.2602539,0.1274414,-0.1264648
1421,-130.3125,189,-38.1875,-0.5332031,-0.6044922,-0.7475586,0.2626953,0.1347656,-0.1035156
1425,-140.25,210.0625,-46.1875,-0.7114258,-0.7016602,-0.7285156,0.2641602,0.1386719,-0.08984375
1429,-145.75,226.25,-56.5625,-0.8085938,-0.8105469,-0.7094727,0.2626953,0.1450195,-0.06542969
1433,-148.125,251.375,-59.375,-0.9326172,-0.9155273,-0.644043,0.2617188,0.1513672,-0.03662109
1438,-141.4375,273.1875,-53.3125,-1.15332,-1.036133,-0.644043,0.2583008,0.1547852,-0.01611328
1442,-121.1875,279.4375,-36.3125,-1.35498,-1.164063,-0.7133789,0.2519531,0.1601563,0.01318359
1446,-101,290.9375,-20.3125,-1.32373,-1.043945,-0.824707,0.2451172,0.1601563,0.04199219
1450,-110.6875,292.8125,-26.6875,-1.614258,-0.9506836,-1.032227,0.2412109,0.1611328,0.06201172
1454,-140,250.75,-72,-1.963379,-0.9389648,-1.036133,0.2285156,0.1586914,0.09082031
1458,-178.375,204.125,-108.6875,-1.835449,-1.008789,-0.9594727,0.2128906,0.1601563,0.1166992
1462,-212.8125,222.1875,-93.3125,-1.560059,-1.207031,-0.8129883,0.2021484,0.1601563,0.1328125
1466,-222.0625,273.1875,-43.8125,-1.501953,-1.42041,-0.8168945,0.1855469,0.1547852,0.1630859
1470,-209.0625,329.125,8.75,-1.486328,-1.498535,-0.878418,0.1674805,0.1411133,0.1914063
1474,-180.5,381.5625,40.5,-1.641602,-1.67334,-0.8823242,0.1499023,0.1337891,0.2104492
1478,-133.9375,385.0625,37.375,-1.95166,-1.743164,-0.9746094,0.125,0.1186523,0.237793
1482,-109.1875,345.5625,15.5625,-1.92041,-1.22998,-1.13623,0.09619141,0.1074219,0.2583008
1486,-139.8125,318.6875,2.8125,-1.552246,-0.8261719,-1.240234,0.07617188,0.1000977,0.2661133
1490,-191.75,321,-5.125,-1.165039,-0.6977539,-1.371094,0.04638672,0.08642578,0.2797852
1494,-222.8125,345.3125,-3.9375,-0.9516602,-0.8378906,-1.416992,0.01660156,0.06738281,0.2895508
1498,-218.5,373.0625,16.625,-1.005859,-1.036133,-1.45166,-0.006835938,0.05273438,0.2988281
1502,-191.75,387,48.1875,-0.9477539,-1.008789,-1.505859,-0.04248047,0.03027344,0.3017578
1506,-163.5,398.4375,63.3125,-0.8237305,-0.8105469,-1.501953,-0.08056641,0.01367188,0.2973633
1510,-158.125,396.25,54.75,-0.8393555,-0.5463867,-1.55957,-0.1054688,0.006347656,0.293457
1514,-169.625,361.9375,28.125,-0.9052734,-0.3598633,-1.520996,-0.1401367,-0.008300781,0.2827148
1518,-185,304.25,0.1875,-0.9594727,-0.3989258,-1.378906,-0.1708984,-0.02197266,0.269043
1522,-177.9375,238.5625,-24.5,-0.831543,-0.6474609,-1.086426,-0.1865234,-0.03320313,0.2568359
1526,-144.4375,208.75,-31.1875,-0.4829102,-0.8144531,-0.7016602,-0.206543,-0.04931641,0.2460938
1530,-95.5625,210.5,-17.25,-0.4365234,-0.8686523,-0.4438477,-0.2236328,-0.06201172,0.2324219
1534,-37.25,193.5625,-4.125,-0.5175781,-0.7485352,-0.2167969,-0.234375,-0.06689453,0.2211914
1538,6.375,169.125,8.875,-0.5102539,-0.4726563,-0.06298828,-0.2470703,-0.06835938,0.2080078
1542,21.125,138.75,18.0625,-0.4711914,-0.1230469,-0.01318359,-0.2568359,-0.06591797,0.1943359
1546,2.9375,97.9375,10.1875,-0.5024414,0.1523438,0.02099609,-0.2626953,-0.06445313,0.1860352
1550,-18.6875,44.0625,-2.1875,-0.5102539,0.03222656,0.09423828,-0.2685547,-0.06298828,0.1821289
1554,-11.625,4.9375,-8.8125,-0.1767578,-0.1035156,0.1713867,-0.2724609,-0.06445313,0.1806641
1558,-1.1875,2.1875,0.25,-0.05273438,-0.1420898,0.2480469,-0.2700195,-0.06591797,0.1806641
1562,14,-4.5625,17.4375,-0.1806641,-0.2275391,0.2402344,-0.2685547,-0.06689453,0.1791992
1567,34.5,-28.4375,25.4375,-0.1611328,-0.2275391,0.2094727,-0.2685547,-0.06445313,0.1806641
1571,50.9375,-48.5625,34.5,-0.1030273,-0.2353516,0.1367188,-0.2700195,-0.05957031,0.1831055
1575,61.5,-66.375,41.625,-0.08398438,-0.2314453,0.06738281,-0.2636719,-0.05322266,0.1875
1579,64.875,-90.125,34.625,-0.1030273,-0.1733398,-0.03222656,-0.2578125,-0.04296875,0.1943359
1583,58.375,-116.8125,17.4375,-0.2119141,-0.1191406,-0.09765625,-0.2553711,-0.04199219,0.1982422
1587,50.125,-147.5,3.4375,-0.4248047,-0.2084961,-0.1630859,-0.2470703,-0.03710938,0.2089844
1591,55.625,-187.5,-5.8125,-0.5874023,-0.3325195,-0.2363281,-0.2353516,-0.03320313,0.2202148
1595,71.875,-225.125,-0.0625,-0.5834961,-0.4921875,-0.4628906,-0.2255859,-0.02929688,0.2294922
1599,93,-246.3125,11.625,-0.4013672,-0.5112305,-0.6479492,-0.2089844,-0.02050781,0.2431641
1603,105.375,-240.5,18.625,-0.3588867,-0.4804688,-0.7363281,-0.1889648,-0.01464844,0.2583008
1607,111.8125,-243.125,25.625,-0.5527344,-0.5737305,-0.8979492,-0.1748047,-0.005859375,0.2636719
1611,133.75,-269.6875,27.5,-0.6689453,-0.7368164,-1.066895,-0.1508789,0.004882813,0.2744141
1615,161.25,-295.5625,28.0625,-0.5991211,-0.7407227,-1.20166,-0.1235352,0.01855469,0.2841797
1619,176.0625,-303.8125,40.75,-0.6416016,-0.7871094,-1.378906,-0.1069336,0.03125,0.2880859
1623,179.5,-303.125,55.1875,-0.6342773,-0.7792969,-1.490234,-0.07568359,0.04980469,0.293457
1627,169.625,-291.4375,66.125,-0.4829102,-0.6977539,-1.513184,-0.04492188,0.06738281,0.2910156
1631,150.0625,-260.9375,56.8125,-0.4169922,-0.6162109,-1.409668,-0.02490234,0.08007813,0.2895508
1635,118.8125,-230.875,33.125,-0.6264648,-0.5307617,-1.259277,0.0009765625,0.09130859,0.2827148
1639,89.9375,-231.4375,7.5,-1.165039,-0.7446289,-1.182617,0.02148438,0.1025391,0.2783203
1643,92.5,-263.3125,-0.875,-1.343262,-0.9619141,-1.19043,0.03808594,0.1064453,0.2714844
1647,103.6875,-272.875,15,-1.289063,-1.066895,-1.090332,0.05957031,0.1137695,0.2636719
1651,121.625,-267.1875,38.9375,-1.157227,-1.066895,-1.066895,0.08544922,0.1235352,0.2470703
1655,126.8125,-245.6875,50.625,-1.12207,-0.9697266,-0.9707031,0.09960938,0.1298828,0.2402344
1659,122.125,-237.8125,46.5,-1.343262,-0.9658203,-0.9018555,0.1210938,0.1376953,0.2241211
1663,119,-251.4375,32.375,-1.544922,-1.055176,-0.8325195,0.1416016,0.1459961,0.2050781
1667,122.3125,-270.375,23.875,-1.618164,-1.125488,-0.7861328,0.1547852,0.1489258,0.1943359
1671,128.4375,-280,29.75,-1.567871,-1.152344,-0.6821289,0.1757813,0.1538086,0.1699219
1675,134.75,-276.9375,42.4375,-1.443848,-1.102051,-0.6479492,0.1914063,0.1586914,0.1464844
1679,130.75,-256.1875,52.1875,-1.347168,-1.008789,-0.5668945,0.2045898,0.1625977,0.1274414
1683,120.5625,-236.3125,52.6875,-1.463379,-1.016602,-0.4477539,0.2177734,0.1635742,0.1044922
1687,119.3125,-236.0625,52,-1.599121,-1.086426,-0.4785156,0.2285156,0.1625977,0.08007813
1691,121.3125,-246.4375,58.75,-1.583496,-1.032227,-0.4975586,0.2368164,0.1635742,0.06494141
1696,121.6875,-258.3125,67.0625,-1.505859,-1.004883,-0.5629883,0.2460938,0.1611328,0.03613281
1700,118.25,-261.5625,71.75,-1.343262,-0.8881836,-0.5898438,0.253418,0.1547852,0.0078125
1704,104.5625,-254,72.9375,-1.211426,-0.8574219,-0.6132813,0.2617188,0.1513672,-0.01074219
1708,89.3125,-243.5625,71.125,-1.161133,-0.8574219,-0.6552734,0.2641602,0.1459961,-0.03662109
1712,76.9375,-239.9375,59.25,-1.021484,-0.8027344,-0.6669922,0.2666016,0.1401367,-0.0625
1716,64.5,-228.4375,46.5625,-0.8276367,-0.7407227,-0.6513672,0.2675781,0.1362305,-0.07763672
1720,51.75,-208.1875,33.1875,-0.6416016,-0.6474609,-0.5864258,0.2675781,0.1298828,-0.1020508
1724,39.875,-184.4375,22.8125,-0.5756836,-0.6396484,-0.5825195,0.2651367,0.1274414,-0.1166992
1728,29.3125,-157.25,14,-0.3549805,-0.5307617,-0.4785156,0.2626953,0.125,-0.1279297
1732,16.1875,-118.375,2.375,-0.3046875,-0.5307617,-0.3398438,0.2583008,0.1235352,-0.1455078
1736,8.5625,-90.25,-10.3125,-0.3242188,-0.4335938,-0.3286133,0.253418,0.1235352,-0.1547852
1740,-6.8125,-72.8125,-21.5,-0.3588867,-0.3325195,-0.3706055,0.2509766,0.1225586,-0.1547852
1744,-26.25,-51.25,-15.875,-0.246582,-0.2431641,-0.4013672,0.2460938,0.125,-0.1616211
1748,-44.25,-7.75,6.8125,-0.05273438,-0.2861328,-0.3554688,0.2460938,0.1274414,-0.1616211
1752,-52.8125,46.9375,26.1875,-0.09130859,-0.3598633,-0.3515625,0.2460938,0.1274414,-0.1577148
1756,-49.625,73.1875,24.125,-0.3862305,-0.5463867,-0.4863281,0.25,0.1274414,-0.1523438
1760,-34.4375,68.5,10.4375,-0.4404297,-0.6083984,-0.6708984,0.2543945,0.1274414,-0.144043
1764,-35.1875,85,-0.875,-0.2192383,-0.4726563,-0.7783203,0.2543945,0.1298828,-0.1401367
1768,-56.1875,122.0625,-12.5625,-0.1225586,-0.3442383,-0.9707031,0.2583008,0.1298828,-0.1303711
1772,-91.75,169.9375,-29.6875,-0.1303711,-0.3095703,-1.047852,0.2602539,0.1347656,-0.1142578
1776,-125.125,214.8125,-38.5625,-0.4013672,-0.4960938,-1.090332,0.2626953,0.1362305,-0.09912109
1780,-151.125,246.5625,-44.1875,-0.6806641,-0.6474609,-1.066895,0.2626953,0.1435547,-0.07470703
1784,-167.3125,257.0625,-57.6875,-1.001953,-0.8803711,-0.9863281,0.2617188,0.1513672,-0.04492188
1788,-167.5625,245.9375,-79.375,-1.187988,-1.08252,-0.840332,0.2583008,0.1538086,-0.02294922
1792,-160.3125,240.5,-92.625,-1.191895,-1.171875,-0.7055664,0.2519531,0.1611328,0.004882813
1796,-159.9375,250.4375,-84,-1.246094,-1.08252,-0.6669922,0.2426758,0.1660156,0.03515625
1800,-174.75,264.875,-64.5,-1.304199,-0.9736328,-0.6630859,0.2353516,0.1674805,0.05664063
1804,-196.0625,291,-25.625,-1.300781,-0.9233398,-0.7055664,0.222168,0.1674805,0.08691406
1808,-220.75,328.125,18.3125,-1.331543,-0.8881836,-0.8017578,0.2104492,0.1611328,0.1220703
1812,-238.6875,338.6875,19.0625,-1.812012,-1.222656,-0.84375,0.199707,0.1513672,0.144043
1816,-219.125,276.625,-11.875,-2.114258,-1.560547,-0.8364258,0.184082,0.1386719,0.1806641
1820,-178.25,236.625,-27.8125,-1.645508,-1.552734,-0.6401367,0.1640625,0.125,0.2050781
1825,-151,263.9375,-8.4375,-1.292969,-1.385742,-0.6748047,0.1533203,0.1201172,0.21875
1829,-138.4375,313.125,22.3125,-1.20752,-1.195313,-0.8632813,0.1318359,0.1088867,0.2392578
1833,-129,349.5625,57.3125,-1.269531,-1.086426,-1.086426,0.1044922,0.09619141,0.2583008
1837,-130.8125,369.5625,85.9375,-1.331543,-0.8647461,-1.274902,0.08691406,0.08740234,0.2705078
1841,-145.6875,354.0625,86.75,-1.498047,-0.7563477,-1.44043,0.05810547,0.07373047,0.2841797
1845,-158.3125,307.625,68.6875,-1.416992,-0.6748047,-1.432617,0.02832031,0.05761719,0.2949219
1849,-168.25,277.0625,50.3125,-1.215332,-0.6708984,-1.286133,0.009277344,0.04638672,0.2988281
1853,-174,258.5625,30.125,-1.145508,-0.6123047,-1.19043,-0.01269531,0.02880859,0.3032227
1857,-168.1875,219.25,15.625,-1.20752,-0.7016602,-1.15918,-0.03759766,0.01269531,0.3056641
1861,-131.75,166.875,15.5,-0.9907227,-0.8105469,-1.036133,-0.05078125,0.00390625,0.3071289
1865,-80.6875,144.5,16.75,-0.6108398,-0.8183594,-0.9555664,-0.06640625,-0.009277344,0.3041992
1869,-29.125,147.75,28.75,-0.4130859,-0.7524414,-0.9477539,-0.08056641,-0.01464844,0.3041992
1873,-4.25,168.625,41.875,-0.3432617,-0.6396484,-0.9594727,-0.09130859,-0.01464844,0.300293
1877,-8.5,189.5,33.5625,-0.1069336,-0.2314453,-0.9863281,-0.109375,-0.01464844,0.2963867
1881,-28.75,202,9.5,-0.2041016,-0.1381836,-0.9941406,-0.1259766,-0.015625,0.2866211
1885,-49.0625,192.3125,-19.9375,-0.3007813,0.0009765625,-0.9438477,-0.1376953,-0.01464844,0.2841797
1889,-77,170.8125,-34.125,-0.4594727,-0.02197266,-0.8632813,-0.1557617,-0.02441406,0.2758789
1893,-93.8125,149.9375,-31.625,-0.4750977,-0.1499023,-0.6630859,-0.168457,-0.03320313,0.2675781
1897,-91.25,136.8125,-6.0625,-0.4365234,-0.2978516,-0.4785156,-0.1782227,-0.03808594,0.2636719
1901,-78.8125,130.5625,17,-0.3588867,-0.2978516,-0.3168945,-0.1914063,-0.04589844,0.2553711
1905,-70.75,112.5,28.5625,-0.3320313,-0.2006836,-0.2705078,-0.2006836,-0.05078125,0.25
1909,-77.3125,77.25,16.0625,-0.4169922,-0.1191406,-0.2363281,-0.206543,-0.05322266,0.2460938
1913,-84.625,25.25,-1,-0.2426758,-0.2202148,-0.1821289,-0.2114258,-0.05957031,0.2402344
1917,-67.4375,3.5,-4.4375,-0.02587891,-0.581543,0.009765625,-0.2138672,-0.06835938,0.2416992
1921,-15.625,5.6875,3.75,0.1367188,-0.7250977,0.140625,-0.2128906,-0.07080078,0.2392578
1925,40.75,10.375,14.6875,0.09033203,-0.6435547,0.07910156,-0.2138672,-0.06933594,0.237793
1929,72.75,-2,13.0625,-0.02587891,-0.3442383,-0.07080078,-0.2138672,-0.06591797,0.2402344
1933,75.5625,-29.25,1.4375,-0.1225586,-0.1230469,-0.2055664,-0.215332,-0.05957031,0.2392578
1937,65.3125,-64.5625,-11.875,-0.1767578,-0.07226563,-0.309082,-0.2104492,-0.0546875,0.2431641
1941,56.875,-90.6875,-15.875,-0.1650391,-0.1381836,-0.34375,-0.206543,-0.04931641,0.2460938
1945,63.375,-109.75,-7.8125,-0.1381836,-0.2822266,-0.4321289,-0.199707,-0.046875,0.2514648
1949,77.875,-114.125,6.25,-0.09521484,-0.340332,-0.4594727,-0.1889648,-0.04052734,0.2583008
1954,93.875,-116.3125,19.5625,-0.09912109,-0.3364258,-0.5170898,-0.1791992,-0.03320313,0.2636719
1958,94.4375,-118.25,14.375,-0.2851563,-0.2509766,-0.4516602,-0.1723633,-0.02587891,0.2705078
1962,88.875,-141.9375,1.625,-0.5683594,-0.2861328,-0.5170898,-0.1640625,-0.015625,0.2729492
1966,86.625,-182.5,-13.4375,-0.8354492,-0.4296875,-0.5708008,-0.1484375,-0.01074219,0.2773438
1970,113.5,-243.0625,-5.625,-0.8164063,-0.7368164,-0.8823242,-0.1352539,-0.004394531,0.2851563
1974,147.875,-259,-2.125,-0.4091797,-0.6240234,-0.9169922,-0.112793,0.006347656,0.2919922
1978,154.9375,-232.75,15.9375,-0.3901367,-0.5776367,-0.9824219,-0.08789063,0.02148438,0.2963867
1982,148.0625,-202.3125,20.8125,-0.4868164,-0.4726563,-0.9360352,-0.07470703,0.03271484,0.2988281
1986,135.75,-197.75,19.6875,-0.8706055,-0.6044922,-0.9287109,-0.05419922,0.04638672,0.2973633
1990,138.625,-217.625,11.9375,-1.11084,-0.7250977,-0.8979492,-0.03417969,0.06005859,0.2963867
1994,147,-252.5,19,-1.304199,-0.9194336,-1.055664,-0.01855469,0.07128906,0.2919922
1998,159.6875,-275.875,18.3125,-1.172852,-0.9155273,-1.101563,0.006835938,0.08398438,0.2866211
2002,157.1875,-271.75,27.75,-1.071777,-0.8417969,-1.109375,0.03173828,0.09765625,0.2773438
2006,138.875,-254.6875,32.0625,-1.133789,-0.7485352,-1.043945,0.04882813,0.1064453,0.269043
2010,111.0625,-252.75,21.75,-1.385742,-0.7753906,-0.9672852,0.07128906,0.1176758,0.2583008
2014,88.125,-278.3125,0.875,-1.633789,-0.8261719,-0.9824219,0.09521484,0.1264648,0.2446289
2018,71.625,-315.125,-13.375,-1.734375,-1.020508,-0.9208984,0.1118164,0.1298828,0.2348633
2022,84.25,-342.4375,-14.875,-1.742188,-1.354492,-0.8823242,0.1342773,0.1362305,0.2172852
2026,117.875,-343.5,7.25,-1.567871,-1.498535,-0.8745117,0.1591797,0.1435547,0.1943359
2030,151.6875,-315.625,32.3125,-1.319824,-1.405273,-0.8554688,0.1723633,0.1474609,0.1777344
2034,167.0625,-284.0625,43.875,-1.289063,-1.167969,-0.894043,0.1938477,0.1513672,0.1518555
2038,162.875,-273,41.9375,-1.370117,-1.004883,-0.9516602,0.2104492,0.1577148,0.1235352
2042,150.6875,-281.25,28.75,-1.479004,-0.9580078,-0.9633789,0.2202148,0.1625977,0.1044922
2046,141.4375,-304,12.6875,-1.637695,-1.043945,-0.8901367,0.2319336,0.1650391,0.07421875
2050,143.0625,-334.375,-2.5625,-1.703613,-1.121582,-0.8325195,0.2402344,0.1674805,0.04199219
2054,155.0625,-350.25,-3.4375,-1.625977,-1.152344,-0.6708984,0.2426758,0.1674805,0.01855469
2058,150.9375,-329.6875,16.625,-1.292969,-0.8999023,-0.5439453,0.2451172,0.1699219,-0.01904297
2062,121.0625,-277.625,46.875,-0.9750977,-0.6787109,-0.3745117,0.2485352,0.1660156,-0.05273438
2066,85.5,-229.5625,58.875,-1.056641,-0.6435547,-0.3129883,0.2509766,0.1611328,-0.06787109
2070,63.0625,-228,52.5,-1.315918,-0.7133789,-0.3286133,0.25,0.15625,-0.09228516
2074,48.25,-250.9375,37.625,-1.15332,-0.6938477,-0.5092773,0.25,0.1499023,-0.1142578
2078,35.0625,-239.5,34.0625,-0.699707,-0.6748047,-0.5551758,0.2451172,0.1459961,-0.1289063
2083,34.25,-196.5,39.75,-0.3510742,-0.6899414,-0.5976563,0.2412109,0.1425781,-0.1494141
2087,46.375,-142.1875,44.3125,-0.2080078,-0.6977539,-0.6362305,0.2353516,0.1362305,-0.1630859
2091,57.0625,-90.75,48.875,-0.1108398,-0.6005859,-0.7553711,0.234375,0.1347656,-0.175293
2095,52.3125,-45.5,47.5,-0.002441406,-0.4335938,-0.8364258,0.2353516,0.1274414,-0.1806641
2099,34.3125,3.5625,37.9375,0.1328125,-0.2822266,-0.894043,0.2353516,0.1225586,-0.1875
2103,5.1875,54.8125,25,0.1132813,-0.1850586,-0.9052734,0.2353516,0.1201172,-0.1865234
2107,-27,97,16.625,-0.02978516,-0.2314453,-0.9130859,0.2426758,0.1176758,-0.1796875
2111,-56.5,128.6875,11,-0.1650391,-0.2939453,-0.9091797,0.2475586,0.1186523,-0.1713867
2115,-84.625,155.5625,4.4375,-0.2700195,-0.371582,-0.8745117,0.2509766,0.1201172,-0.1606445
2119,-105.25,179.1875,-7.125,-0.3549805,-0.4726563,-0.8632813,0.2568359,0.125,-0.1425781
2123,-118.25,201.6875,-22.6875,-0.4555664,-0.5698242,-0.8325195,0.2602539,0.1289063,-0.1225586
2127,-128.3125,226.0625,-36.875,-0.5683594,-0.6005859,-0.8364258,0.2617188,0.1323242,-0.105957
2131,-142.5625,254.0625,-46.4375,-0.6845703,-0.6123047,-0.84375,0.2651367,0.1376953,-0.07861328
2135,-155.9375,285.5,-47.75,-0.8354492,-0.6899414,-0.878418,0.2651367,0.1435547,-0.04882813
2139,-167.9375,319.5625,-43.125,-1.063965,-0.7753906,-0.8823242,0.2626953,0.1474609,-0.02441406
2143,-174.875,331.125,-45.125,-1.381836,-0.9077148,-0.8823242,0.2568359,0.1499023,0.01074219
2147,-168.625,326.375,-41.0625,-1.517578,-1.004883,-0.8671875,0.2509766,0.1523438,0.04736328
2151,-166.875,341.9375,-15.0625,-1.498047,-0.9658203,-0.8710938,0.2412109,0.1513672,0.07324219
2155,-177.5,376.75,27.5,-1.529297,-0.8686523,-0.9746094,0.2294922,0.1474609,0.105957
2159,-201.25,417.8125,76.5625,-1.62207,-0.7719727,-1.166992,0.2138672,0.1347656,0.1479492
2163,-225.25,443.4375,116,-1.827637,-0.6708984,-1.416992,0.2011719,0.1225586,0.1723633
2167,-239.0625,421.4375,120.4375,-2.125977,-0.6821289,-1.574707,0.1772461,0.1010742,0.2089844
2171,-235.125,335,70.625,-2.428223,-0.8613281,-1.45166,0.1533203,0.08007813,0.2402344
2175,-208,240.75,25.75,-2.036621,-1.004883,-1.236328,0.1376953,0.06494141,0.2553711
2179,-170.6875,230.375,21.125,-1.529297,-1.109863,-1.063477,0.1186523,0.04638672,0.2744141
2183,-121,253,45.375,-1.335449,-1.08252,-1.063477,0.09765625,0.03125,0.2841797
2187,-77.8125,275.8125,74.3125,-1.362793,-0.9814453,-1.15918,0.08203125,0.02246094,0.2910156
2191,-46.875,274.6875,95.875,-1.358887,-0.7719727,-1.30957,0.05566406,0.01513672,0.2988281
2195,-48.875,258.9375,95.625,-1.273438,-0.4765625,-1.478516,0.03173828,0.01025391,0.3032227
2199,-82.5625,237.1875,71.125,-1.125977,-0.3793945,-1.486328,0.01757813,0.004882813,0.3041992
2203,-108,214.1875,38.875,-0.9248047,-0.5112305,-1.348145,-0.005859375,-0.004394531,0.3085938
2207,-101.1875,203.5625,17.125,-0.7114258,-0.7680664,-1.121094,-0.02685547,-0.01464844,0.3125
2212,-62.8125,211.875,11.75,-0.5913086,-0.9155273,-0.9438477,-0.03759766,-0.02050781,0.3100586
2216,-15.5625,223.6875,12.1875,-0.6069336,-0.8535156,-0.8710938,-0.06152344,-0.02587891,0.3071289
2220,15.4375,214.6875,17.1875,-0.7426758,-0.7133789,-0.9785156,-0.08398438,-0.02587891,0.3032227
2224,35.125,182.9375,13.6875,-0.6264648,-0.5268555,-1.01709,-0.09619141,-0.0234375,0.3017578
2228,46.0625,162.6875,15.0625,-0.3046875,-0.4765625,-1.078613,-0.1152344,-0.015625,0.2949219
2232,52.1875,183.4375,-3,0.109375,-0.2275391,-0.9707031,-0.1293945,-0.01318359,0.2851563
2236,34.25,217.4375,-27.4375,0.04345703,0.1020508,-1.032227,-0.1411133,-0.009277344,0.28125
2240,-6.8125,224.25,-45.625,-0.3901367,0.2265625,-0.9941406,-0.1616211,-0.009277344,0.2729492
2244,-47.625,195.75,-42.375,-0.6845703,0.1953125,-0.9326172,-0.1816406,-0.01318359,0.262207
2248,-79.125,160.125,-19,-0.7734375,0.04394531,-0.6787109,-0.1923828,-0.015625,0.2553711
2252,-87.8125,126.375,4.1875,-0.5371094,-0.1113281,-0.4208984,-0.2045898,-0.02587891,0.2460938
2256,-82.4375,111.625,24.1875,-0.362793,-0.2509766,-0.2324219,-0.2138672,-0.03320313,0.2416992
2260,-67.25,97.75,29.5625,-0.2426758,-0.3095703,-0.09375,-0.21875,-0.03564453,0.2333984
2264,-55.0625,74.9375,19.6875,-0.2504883,-0.3208008,0.001953125,-0.2270508,-0.03808594,0.2294922
2268,-38.4375,47.9375,6.125,-0.3007813,-0.4140625,0.1479492,-0.2304688,-0.04052734,0.2226563
2272,0,7.375,0.8125,-0.3549805,-0.5268555,0.144043,-0.2329102,-0.04296875,0.2226563
2276,41.8125,-23.0625,5.8125,-0.1962891,-0.4335938,0.08251953,-0.2319336,-0.04052734,0.2211914
2280,63.5625,-36.6875,20.6875,-0.1030273,-0.2861328,-0.08203125,-0.2319336,-0.03564453,0.2241211
2284,67.25,-48.875,26.75,-0.07226563,-0.1347656,-0.2167969,-0.2294922,-0.03173828,0.2255859
2288,54.75,-61.25,20.625,-0.09130859,0.0009765625,-0.2631836,-0.2255859,-0.02441406,0.2294922
2292,34.75,-81.0625,11.875,-0.296875,-0.04882813,-0.2631836,-0.21875,-0.02050781,0.2348633
2296,26.0625,-113.1875,3.75,-0.4633789,-0.1889648,-0.2631836,-0.2163086,-0.015625,0.2392578
2300,37.0625,-152.375,4.8125,-0.4790039,-0.3637695,-0.34375,-0.203125,-0.01464844,0.2470703
2304,51.125,-169.5625,2.4375,-0.4052734,-0.3989258,-0.309082,-0.1914063,-0.01318359,0.2539063
2308,60.5625,-179.9375,-3.3125,-0.5913086,-0.46875,-0.3208008,-0.1831055,-0.006835938,0.2607422
2312,79.5625,-207.5,-5.375,-0.8354492,-0.6630859,-0.4667969,-0.1665039,-0.003417969,0.269043
2316,119.625,-242.3125,7.1875,-0.78125,-0.7949219,-0.6171875,-0.1459961,0.006347656,0.2783203
2320,149.5,-246,24.9375,-0.6186523,-0.6435547,-0.7553711,-0.1303711,0.01513672,0.2841797
2324,151.5,-241.4375,34.6875,-0.7773438,-0.565918,-0.8979492,-0.1069336,0.03125,0.2866211
2328,140.125,-253.625,28.1875,-0.9985352,-0.5229492,-1.028809,-0.08398438,0.04492188,0.2895508
2332,129.625,-283.1875,34.5625,-1.187988,-0.7563477,-1.20166,-0.06640625,0.05371094,0.2919922
2336,149.0625,-315.4375,48.25,-0.9326172,-0.8496094,-1.313477,-0.0390625,0.06738281,0.2919922
2341,151.8125,-302.625,65.125,-0.7270508,-0.7602539,-1.344238,-0.005859375,0.08251953,0.2851563
2345,129.6875,-270.5625,63.5625,-0.746582,-0.6474609,-1.375,0.01416016,0.08984375,0.2841797
2349,85.4375,-248.8125,38.875,-1.009766,-0.5698242,-1.30957,0.04052734,0.1000977,0.2744141
2353,51.1875,-265.3125,7.1875,-1.312012,-0.6899414,-1.270996,0.06542969,0.1064453,0.2675781
2357,40.4375,-296.25,-12.3125,-1.48291,-0.9272461,-1.20166,0.08056641,0.1098633,0.262207
2361,59.25,-325.125,-16.875,-1.459473,-1.152344,-1.117188,0.105957,0.1137695,0.2470703
2365,96,-319.8125,-2.1875,-1.157227,-1.175781,-1.028809,0.1318359,0.1176758,0.230957
2369,121.5625,-280.5625,25,-1.087402,-1.102051,-1.01709,0.1474609,0.1235352,0.2172852
2373,131.6875,-248.5,42.8125,-1.195801,-0.9389648,-1.028809,0.1674805,0.1313477,0.1967773
2377,128.75,-240,43.6875,-1.397461,-0.8417969,-1.001465,0.1865234,0.1362305,0.1762695
2381,122.375,-255.25,31.5625,-1.591309,-0.8417969,-0.9824219,0.1962891,0.1376953,0.1630859
2385,118,-287.4375,17.75,-1.680176,-0.8417969,-0.9208984,0.2119141,0.1435547,0.1381836
2389,113.4375,-299.8125,12.375,-1.459473,-0.8535156,-0.8515625,0.2270508,0.1459961,0.1069336
2393,101.625,-274.9375,27.375,-1.296875,-0.7910156,-0.7514648,0.234375,0.1489258,0.09082031
2397,85.0625,-245.75,44.8125,-1.304199,-0.7641602,-0.6479492,0.2460938,0.1474609,0.06494141
2401,68.375,-237.9375,46.125,-1.475098,-0.7719727,-0.5283203,0.253418,0.1450195,0.04052734
2405,61.3125,-265.8125,26.125,-1.618164,-0.8183594,-0.4169922,0.2583008,0.1425781,0.02685547
2409,60.375,-289.3125,8.6875,-1.455566,-0.8842773,-0.4052734,0.2666016,0.1411133,0
2413,63.8125,-281.125,12.0625,-1.20752,-0.9077148,-0.3129883,0.2651367,0.1435547,-0.02587891
2417,74.3125,-250.75,26.6875,-0.9477539,-0.8920898,-0.2592773,0.2675781,0.1386719,-0.04638672
2421,89,-206.875,43.75,-0.8393555,-0.8725586,-0.2167969,0.2651367,0.1386719,-0.07080078
2425,102.9375,-181.3125,46.9375,-0.9907227,-0.7988281,-0.1708984,0.2666016,0.1313477,-0.09082031
2429,109,-183.3125,39.8125,-1.063965,-0.7094727,-0.2285156,0.2675781,0.1274414,-0.1035156
2433,107.25,-183.875,34.3125,-0.8164063,-0.519043,-0.2475586,0.2641602,0.1225586,-0.125
2437,92.1875,-167.25,30.75,-0.6494141,-0.421875,-0.2670898,0.2602539,0.1152344,-0.1455078
2441,78.625,-145.875,36.625,-0.4868164,-0.4335938,-0.4013672,0.2583008,0.1113281,-0.15625
2445,64.125,-113.4375,45.25,-0.2583008,-0.3598633,-0.4516602,0.2543945,0.1025391,-0.1728516
2449,49.875,-77.6875,47.375,-0.1650391,-0.324707,-0.5400391,0.253418,0.09521484,-0.1821289
2453,34.1875,-46.0625,40.375,-0.1030273,-0.3208008,-0.5864258,0.253418,0.09375,-0.1875
2457,13.25,-14.6875,28.625,0.008789063,-0.2626953,-0.6362305,0.2519531,0.08886719,-0.1928711
2461,-15.625,27.8125,15.8125,0.1367188,-0.2314453,-0.6669922,0.2509766,0.08642578,-0.1918945
2465,-43.4375,72.8125,4.375,0.08642578,-0.2978516,-0.7670898,0.2543945,0.08740234,-0.1889648
2470,-69.0625,111.25,-8.3125,0.008789063,-0.324707,-0.7861328,0.2583008,0.08886719,-0.1806641
2474,-94.0625,148.875,-19.25,-0.09521484,-0.387207,-0.8208008,0.2626953,0.09228516,-0.1660156
2478,-115.6875,182.9375,-30.9375,-0.2348633,-0.484375,-0.8364258,0.2675781,0.09863281,-0.1538086
2482,-133.125,210.6875,-45.6875,-0.3935547,-0.565918,-0.859375,0.2724609,0.1074219,-0.1318359
2486,-145,234,-60.9375,-0.5605469,-0.7016602,-0.8710938,0.2734375,0.1123047,-0.105957
2490,-147.875,263.8125,-68.5625,-0.6455078,-0.7949219,-0.8671875,0.2734375,0.1210938,-0.08837891
2494,-144.5625,306.375,-64.25,-0.7348633,-0.8300781,-0.8745117,0.2724609,0.1289063,-0.05566406
2498,-139.875,358.25,-45.9375,-0.8935547,-0.8066406,-0.9633789,0.2709961,0.1347656,-0.02050781
2502,-143.125,406.75,-20.8125,-1.133789,-0.7290039,-1.097656,0.2666016,0.1376953,0.006347656
2506,-151.3125,437.875,0.25,-1.424316,-0.6899414,-1.274902,0.2592773,0.1362305,0.04736328
2510,-167.1875,447.8125,18.3125,-1.734375,-0.6552734,-1.467285,0.2475586,0.1337891,0.09228516
2514,-197.0625,446.3125,35.0625,-1.908691,-0.6005859,-1.625,0.2353516,0.1264648,0.1206055
2518,-227.375,446.875,61.625,-1.897461,-0.6474609,-1.678711,0.2163086,0.1137695,0.1630859
2522,-218.8125,432.4375,66.6875,-1.893555,-0.7368164,-1.736328,0.1904297,0.09619141,0.2011719
2526,-192.4375,416.9375,57.9375,-1.939941,-0.8144531,-1.709473,0.1713867,0.08251953,0.2241211
2530,-167.6875,398.3125,48.4375,-2.060059,-0.8378906,-1.663574,0.1401367,0.06640625,0.2514648
2534,-145.1875,365.5,39.625,-2.160645,-0.8066406,-1.598145,0.1069336,0.04980469,0.2714844
2538,-126.3125,321.75,37.3125,-2.184082,-0.7988281,-1.51709,0.08886719,0.04003906,0.2841797
2542,-101.125,269.1875,45.75,-2.063965,-0.8725586,-1.416992,0.06054688,0.03027344,0.2963867
2546,-55.6875,224.3125,58.75,-1.684082,-0.8999023,-1.290039,0.03564453,0.01855469,0.2988281
2550,-16.375,211.9375,63.875,-1.308105,-0.7680664,-1.221191,0.02246094,0.01757813,0.3056641
2554,-2.0625,216.4375,50.375,-1.025391,-0.5112305,-1.255371,0.003417969,0.01611328,0.3041992
2558,-16.375,208.6875,11.25,-1.005859,-0.2939453,-1.305664,-0.01611328,0.01611328,0.3056641
2562,-37.8125,177.0625,-30.25,-0.9946289,-0.355957,-1.305664,-0.03076172,0.01513672,0.3041992
2566,-42.5,148.6875,-41.3125,-0.8666992,-0.550293,-1.213379,-0.04833984,0.008789063,0.3056641
2570,-27.3125,145.3125,-33.4375,-0.5527344,-0.5307617,-1.128418,-0.06396484,0.006347656,0.3041992
2574,-19.6875,170.5,-19.3125,-0.4326172,-0.4804688,-1.043945,-0.07324219,0.00390625,0.3032227
2578,-20.3125,191.6875,-6.8125,-0.4052734,-0.3520508,-1.013184,-0.09033203,0.002441406,0.2988281
2582,-29.8125,200.5625,-2.1875,-0.4868164,-0.3442383,-0.9208984,-0.1113281,0,0.2919922
2586,-31.625,195.1875,1.5625,-0.3935547,-0.3056641,-0.8168945,-0.1220703,-0.0004882813,0.2880859
2590,-39.6875,192.8125,6.625,-0.4365234,-0.2744141,-0.7749023,-0.1401367,-0.006835938,0.28125
2594,-51.5,178.75,9.3125,-0.3935547,-0.2314453,-0.7055664,-0.1582031,-0.008300781,0.2744141
2599,-55,172.9375,16.4375,-0.3901367,-0.371582,-0.609375,-0.168457,-0.01171875,0.2661133
2603,-43.6875,173,31.125,-0.4521484,-0.4453125,-0.4594727,-0.184082,-0.01464844,0.2607422
2607,-16.3125,161.0625,47.5625,-0.4443359,-0.4414063,-0.3666992,-0.1962891,-0.01464844,0.2514648
2611,4.5625,135.25,46.0625,-0.4013672,-0.2241211,-0.3168945,-0.2045898,-0.01318359,0.2446289
2615,-2.125,106.125,31.8125,-0.3549805,-0.002441406,-0.2861328,-0.2128906,-0.008300781,0.2363281
2619,-24.9375,72.75,20,-0.362793,-0.03369141,-0.2475586,-0.222168,-0.009277344,0.230957
2623,-38.5625,44.3125,8.75,-0.2851563,-0.1191406,-0.1206055,-0.2255859,-0.009277344,0.2280273
2627,-36.9375,18.625,3.1875,-0.328125,-0.2744141,-0.04394531,-0.2280273,-0.01464844,0.2270508
2631,-16.375,-12.125,6.3125,-0.3588867,-0.4140625,-0.01660156,-0.2294922,-0.01464844,0.2255859
2635,14.0625,-44.4375,7.6875,-0.2851563,-0.46875,-0.01660156,-0.2270508,-0.01464844,0.2270508
2639,42.375,-65.4375,6.625,-0.1884766,-0.4414063,-0.03613281,-0.222168,-0.01318359,0.230957
2643,61.6875,-76.5625,3.125,-0.2041016,-0.3793945,-0.08203125,-0.2172852,-0.008300781,0.2333984
2647,71.8125,-93.75,-2.75,-0.378418,-0.3481445,-0.1630859,-0.2138672,-0.003417969,0.237793
2651,89.1875,-127.6875,-3.25,-0.4521484,-0.387207,-0.309082,-0.2055664,0.001464844,0.2416992
2655,100.25,-143.5625,1.625,-0.4052734,-0.3442383,-0.324707,-0.1948242,0.008789063,0.25
2659,107.25,-160.1875,12.875,-0.5332031,-0.3598633,-0.4785156,-0.1855469,0.01513672,0.2539063
2663,113.9375,-180.625,14.75,-0.6303711,-0.3754883,-0.574707,-0.1723633,0.02490234,0.2592773
2667,120.3125,-205.875,21.1875,-0.6689453,-0.3950195,-0.7055664,-0.1567383,0.03759766,0.2675781
2671,120.75,-227.0625,21.125,-0.715332,-0.355957,-0.8476563,-0.1425781,0.04394531,0.2705078
2675,113.75,-250.6875,17.9375,-0.7270508,-0.340332,-0.9672852,-0.1201172,0.05517578,0.2773438
2679,105.6875,-271.8125,13.9375,-0.8125,-0.453125,-1.101563,-0.09619141,0.06738281,0.2797852
2683,103.3125,-283.375,17.4375,-0.715332,-0.519043,-1.163086,-0.078125,0.07373047,0.2827148
2687,99.625,-277.8125,28.25,-0.7036133,-0.5893555,-1.205566,-0.05224609,0.08398438,0.2851563
2691,97.3125,-265.0625,37.4375,-0.5644531,-0.550293,-1.228516,-0.02490234,0.09228516,0.2827148
2695,81.3125,-238.0625,33.25,-0.6108398,-0.4296875,-1.13623,-0.0078125,0.09765625,0.2783203
2699,54.625,-228.875,16.375,-0.8857422,-0.421875,-1.132324,0.01416016,0.1049805,0.2758789
2703,30.3125,-241.8125,-5.875,-1.133789,-0.46875,-1.094238,0.03662109,0.1074219,0.2705078
2707,19.125,-267,-11.125,-1.347168,-0.7485352,-1.128418,0.04980469,0.1098633,0.2661133
2711,39.6875,-296.6875,4.875,-1.219238,-0.9853516,-1.186523,0.07373047,0.1113281,0.2607422
2715,65.875,-284.375,23.875,-0.9130859,-0.9428711,-1.055664,0.1010742,0.1152344,0.25
2719,79.625,-245.625,37.4375,-0.8588867,-0.8613281,-1.01709,0.1152344,0.1186523,0.2402344
2723,76.25,-216.9375,39.375,-1.075684,-0.7368164,-0.9746094,0.1357422,0.1210938,0.2255859
2728,67.4375,-220.0625,26.1875,-1.312012,-0.7290039,-0.9516602,0.1547852,0.125,0.2119141
2732,61.375,-243.0625,10.8125,-1.40918,-0.7602539,-0.9091797,0.1665039,0.1264648,0.2011719
2736,63,-264.0625,3.625,-1.366211,-0.8066406,-0.8823242,0.1806641,0.1313477,0.1821289
2740,71.875,-269.875,7.4375,-1.285156,-0.8725586,-0.809082,0.1987305,0.1347656,0.1640625
2744,83.125,-260.625,16.5,-1.25,-0.8803711,-0.7783203,0.2094727,0.1376953,0.1508789
2748,93.9375,-246.5,28.875,-1.203613,-0.8378906,-0.7441406,0.2236328,0.1386719,0.1259766
2752,94.4375,-226.1875,35.6875,-1.230957,-0.7871094,-0.7207031,0.2353516,0.1386719,0.105957
2756,86,-220.6875,37.125,-1.381836,-0.7211914,-0.6245117,0.2426758,0.1386719,0.09082031
2760,74.4375,-241.5625,23.875,-1.544922,-0.7133789,-0.5708008,0.2519531,0.1401367,0.06787109
2764,63.375,-269.0625,12.125,-1.436035,-0.6899414,-0.4707031,0.2583008,0.1386719,0.04296875
2768,54.6875,-269.3125,14.9375,-1.141602,-0.6708984,-0.394043,0.2602539,0.1386719,0.02539063
2772,45,-247.125,26.6875,-1.048828,-0.7446289,-0.359375,0.2666016,0.1386719,0.0009765625
2776,47.25,-231.6875,32.25,-1.087402,-0.7719727,-0.2397461,0.2724609,0.1337891,-0.02148438
2780,51.3125,-229.5,26.9375,-1.133789,-0.7753906,-0.1899414,0.2709961,0.1337891,-0.03369141
2784,62.5,-231,23.0625,-1.033203,-0.7719727,-0.1669922,0.2734375,0.1289063,-0.05859375
2788,72.3125,-220.625,28.1875,-0.8666992,-0.7172852,-0.1821289,0.2709961,0.1264648,-0.08154297
2792,76.625,-193.5625,37.5,-0.6264648,-0.6357422,-0.2246094,0.2700195,0.1235352,-0.09667969
2796,76.0625,-153.875,47.1875,-0.5063477,-0.5776367,-0.2167969,0.269043,0.1176758,-0.112793
2800,70.125,-117.875,45.625,-0.4868164,-0.4492188,-0.2089844,0.2675781,0.1113281,-0.1303711
2804,53.6875,-95.5625,34.75,-0.6225586,-0.4257813,-0.2055664,0.2675781,0.1074219,-0.137207
2808,46,-96.9375,18.6875,-0.6533203,-0.4067383,-0.1708984,0.2666016,0.1010742,-0.1494141
2812,37.625,-97.9375,7.875,-0.5566406,-0.402832,-0.128418,0.2617188,0.09863281,-0.1591797
2816,28.375,-81.875,5.4375,-0.362793,-0.3637695,-0.06689453,0.2617188,0.09863281,-0.1660156
2820,14.4375,-52.5625,9.0625,-0.2929688,-0.3173828,0.005859375,0.2583008,0.09765625,-0.1713867
2824,-2.8125,-24,13.0625,-0.3354492,-0.2939453,0.09423828,0.2568359,0.09619141,-0.1767578
2828,-17.875,-12.125,8.3125,-0.4790039,-0.3017578,0.1865234,0.2558594,0.09619141,-0.175293
2832,-27.75,-20,-6,-0.5952148,-0.3364258,0.2983398,0.2558594,0.09521484,-0.1782227
2836,-31,-30.125,-19.6875,-0.5488281,-0.3950195,0.4287109,0.2543945,0.1000977,-0.1767578
2840,-26.1875,-26,-21.875,-0.4326172,-0.4335938,0.5556641,0.2519531,0.1000977,-0.1738281
2844,-18.125,-9,-14.0625,-0.4052734,-0.4453125,0.6289063,0.2509766,0.1025391,-0.1782227
2848,-7.5,9,-1.3125,-0.4482422,-0.4726563,0.640625,0.2509766,0.1035156,-0.1767578
2852,1.125,22.6875,8.5625,-0.4829102,-0.3989258,0.6176758,0.2509766,0.1035156,-0.1767578
2857,3.625,22.25,6.75,-0.6186523,-0.3793945,0.5942383,0.2509766,0.1035156,-0.1738281
2861,6,6.75,-4.0625,-0.6767578,-0.3754883,0.5981445,0.253418,0.1035156,-0.1738281
2865,6.9375,-0.8125,-10.9375,-0.5756836,-0.371582,0.6210938,0.2543945,0.1049805,-0.1738281
2869,5.9375,4.4375,-8.875,-0.5449219,-0.3481445,0.6445313,0.2519531,0.1049805,-0.1738281
2873,3.5,11.4375,-1.125,-0.5683594,-0.3442383,0.6445313,0.253418,0.1035156,-0.1767578
2877,0.6875,14.4375,4.0625,-0.6186523,-0.3520508,0.6484375,0.253418,0.1049805,-0.1738281
2881,-1.875,11.4375,5.25,-0.6689453,-0.355957,0.6328125,0.2543945,0.1035156,-0.1738281
