Packet number,Gyroscope X (deg/s),Gyroscope Y (deg/s),Gyroscope Z (deg/s),Accelerometer X (g),Accelerometer Y (g),Accelerometer Z (g),Magnetometer X (G),Magnetometer Y (G),Magnetometer Z (G)
2,0.875,0,0.4375,-0.8510742,-0.4726563,-0.1821289,0.2519531,0.1152344,0.1083984
6,-0.0625,-0.5,0.8125,-0.8588867,-0.4570313,-0.1821289,0.2519531,0.1152344,0.1083984
10,-1.8125,-1.5625,0.8125,-0.8588867,-0.4648438,-0.1899414,0.25,0.1152344,0.1069336
14,-2.25,-1.75,0.5625,-0.8549805,-0.484375,-0.1743164,0.2519531,0.1152344,0.1083984
18,-0.625,-1.125,0.1875,-0.831543,-0.503418,-0.1821289,0.253418,0.1152344,0.1083984
22,0.75,0,1.1875,-0.847168,-0.4921875,-0.1860352,0.2519531,0.1137695,0.1044922
26,0.5625,-0.1875,0.5625,-0.8432617,-0.4804688,-0.1743164,0.253418,0.1137695,0.1083984
30,0,-0.3125,-0.3125,-0.847168,-0.4882813,-0.1938477,0.2509766,0.1137695,0.1083984
34,1.1875,1,-0.0625,-0.8354492,-0.4960938,-0.1938477,0.2519531,0.1152344,0.1098633
38,1.125,1.5625,0.125,-0.8510742,-0.4726563,-0.2016602,0.253418,0.1152344,0.1083984
42,-0.625,0.4375,-1.6875,-0.8510742,-0.4726563,-0.2055664,0.253418,0.1152344,0.1098633
46,-0.8125,0.875,-1.9375,-0.8393555,-0.4882813,-0.1977539,0.2509766,0.1137695,0.1083984
50,0.0625,2.375,-0.6875,-0.8393555,-0.4882813,-0.1860352,0.2509766,0.1162109,0.1083984
54,0.1875,2.875,-0.8125,-0.8510742,-0.484375,-0.1899414,0.2509766,0.1162109,0.1123047
58,-0.3125,0.9375,-2.3125,-0.8706055,-0.4921875,-0.1821289,0.2519531,0.1152344,0.1113281
62,0.1875,-0.0625,-2.5,-0.8549805,-0.503418,-0.1743164,0.2519531,0.1162109,0.1098633
66,0.8125,1.25,-1.125,-0.8432617,-0.4960938,-0.1743164,0.2509766,0.1152344,0.1113281
70,0.75,0.875,-1.25,-0.847168,-0.4765625,-0.1899414,0.2519531,0.1162109,0.1113281
74,-0.875,0.3125,-1.8125,-0.8237305,-0.46875,-0.2016602,0.2519531,0.1152344,0.1098633
78,-2.375,0,-3.375,-0.8164063,-0.4804688,-0.2016602,0.2509766,0.1162109,0.1113281
82,-0.6875,0.75,-4,-0.8198242,-0.503418,-0.1938477,0.2519531,0.1162109,0.1123047
86,1.375,2.75,-2.5,-0.8125,-0.4921875,-0.2167969,0.2519531,0.1152344,0.1113281
90,1.25,4.5,-1.125,-0.8085938,-0.4726563,-0.2631836,0.253418,0.1152344,0.1098633
94,-0.3125,5.5,-0.4375,-0.7734375,-0.4804688,-0.3325195,0.253418,0.1162109,0.1098633
98,0.25,11.625,-0.25,-0.7114258,-0.5151367,-0.378418,0.2509766,0.1162109,0.1123047
103,6.5,24.6875,3.875,-0.7192383,-0.5854492,-0.4360352,0.2519531,0.1152344,0.1137695
107,14.75,36.8125,5.6875,-0.699707,-0.581543,-0.5400391,0.25,0.1176758,0.1166992
111,11.6875,45.875,6,-0.6494141,-0.5620117,-0.7514648,0.25,0.1162109,0.1181641
115,1.875,52.125,-1.8125,-0.5253906,-0.5,-0.9399414,0.2460938,0.1176758,0.1206055
119,-16.1875,71.5,-14,-0.4326172,-0.4960938,-1.047852,0.2451172,0.1152344,0.1220703
123,-32,96.25,-29.8125,-0.5175781,-0.5927734,-1.055664,0.2402344,0.1176758,0.1303711
127,-32.25,114.375,-36.3125,-0.6225586,-0.6938477,-1.047852,0.234375,0.1186523,0.1396484
131,-30.5625,140.5,-32.875,-0.6923828,-0.6708984,-1.097656,0.2246094,0.1210938,0.1479492
135,-36.625,163.9375,-33,-0.6845703,-0.5581055,-1.182617,0.21875,0.1186523,0.1572266
139,-48.25,187.6875,-23.6875,-0.6264648,-0.519043,-1.371094,0.2055664,0.1210938,0.1699219
143,-75.625,225.625,-23.3125,-0.4985352,-0.4101563,-1.459473,0.1938477,0.1201172,0.1875
147,-113.3125,274.875,-22.625,-0.5332031,-0.3989258,-1.513184,0.184082,0.1162109,0.2011719
151,-143.0625,314.875,-17.25,-0.8706055,-0.519043,-1.563477,0.1616211,0.1088867,0.2226563
155,-163.125,331,-10.8125,-1.184082,-0.6044922,-1.501953,0.1342773,0.09765625,0.2446289
159,-171.1875,301.4375,-16,-1.447754,-0.7172852,-1.486328,0.1176758,0.08886719,0.2568359
163,-173.5,289.625,-11.75,-1.037109,-0.7832031,-1.359375,0.09130859,0.07519531,0.2744141
167,-170.125,323.8125,-6.9375,-0.6225586,-0.8066406,-1.455566,0.06152344,0.06005859,0.2895508
171,-160.625,369.5,-4.75,-0.4672852,-0.7910156,-1.69043,0.04052734,0.04882813,0.2949219
175,-147.875,408.5,-1.625,-0.5683594,-0.8105469,-1.871094,0.003417969,0.03369141,0.3032227
179,-129.875,420.0625,2.125,-0.7578125,-0.7211914,-1.979004,-0.03759766,0.01855469,0.3032227
183,-113.1875,412.125,4.1875,-0.8125,-0.5385742,-1.971191,-0.06396484,0.01269531,0.3017578
187,-110,392.9375,9.6875,-0.8706055,-0.550293,-1.979004,-0.1054688,0,0.2949219
191,-111.875,374.625,14.5625,-0.6494141,-0.4335938,-1.924805,-0.1425781,-0.008300781,0.2827148
195,-104.625,360.4375,15.125,-0.4482422,-0.5073242,-1.855957,-0.1625977,-0.01464844,0.2705078
199,-88,359.1875,19,-0.3007813,-0.5424805,-1.759766,-0.1948242,-0.0234375,0.2539063
203,-75.4375,366.875,6.625,-0.2583008,-0.3481445,-1.617188,-0.2236328,-0.02832031,0.2324219
207,-78.875,342.5,-25.4375,-0.5756836,-0.08789063,-1.455566,-0.2387695,-0.03173828,0.2143555
211,-95.6875,275.625,-45.9375,-0.7734375,-0.1191406,-1.270996,-0.2626953,-0.04199219,0.1889648
215,-100.6875,221.3125,-60.4375,-0.5527344,-0.1191406,-0.8476563,-0.2783203,-0.04833984,0.168457
219,-98.625,189.1875,-57.5625,-0.5527344,-0.2978516,-0.5551758,-0.2851563,-0.05810547,0.15625
223,-74.0625,161.125,-41.5,-0.5063477,-0.3989258,-0.1938477,-0.293457,-0.06689453,0.1396484
227,-37.9375,132.875,-8.1875,-0.3935547,-0.4414063,-0.04394531,-0.3007813,-0.07324219,0.125
232,-9,117.0625,4.3125,-0.2734375,-0.2392578,0.105957,-0.3041992,-0.07421875,0.1166992
236,3.3125,89.3125,4.1875,-0.2231445,-0.08398438,0.1210938,-0.309082,-0.07421875,0.1069336
240,1.5,57.6875,-14.375,-0.2231445,0.07080078,0.159668,-0.3125,-0.07324219,0.1000977
244,-7.125,25.1875,-22,-0.2119141,0.05908203,0.1904297,-0.3139648,-0.07714844,0.09619141
248,-4.9375,-3.625,-16.75,-0.1420898,-0.02197266,0.2060547,-0.3149414,-0.078125,0.09472656
252,5.25,-23.625,1.5625,-0.07617188,-0.1347656,0.1826172,-0.3149414,-0.07958984,0.09472656
256,22.375,-36.1875,21.25,0.08251953,-0.1928711,0.1132813,-0.3115234,-0.078125,0.09619141
260,34,-37.375,24.4375,0.3032227,-0.1152344,0.03662109,-0.3115234,-0.07568359,0.1015625
264,38.0625,-47.625,10.75,0.2685547,-0.05273438,-0.09765625,-0.3105469,-0.07080078,0.105957
268,38.25,-72.3125,-7.8125,0.2529297,-0.04541016,-0.2553711,-0.309082,-0.06933594,0.1098633
272,40.4375,-91.4375,-11.75,0.3266602,-0.09570313,-0.3862305,-0.3056641,-0.06933594,0.1166992
276,48.625,-98.5,1.6875,0.3808594,-0.1420898,-0.5170898,-0.3007813,-0.07080078,0.1259766
280,59,-98.625,19.8125,0.4775391,-0.1616211,-0.6132813,-0.2973633,-0.06689453,0.1342773
284,64.125,-91.75,28.8125,0.5668945,-0.1152344,-0.7553711,-0.2949219,-0.06298828,0.144043
288,60.3125,-98.5,20.1875,0.4892578,-0.09179688,-0.8515625,-0.2875977,-0.05566406,0.1508789
292,51.9375,-112.6875,7.75,0.4541016,-0.1308594,-0.9169922,-0.2851563,-0.05322266,0.15625
296,48.4375,-123.4375,-3.3125,0.3730469,-0.2314453,-0.8745117,-0.2792969,-0.05078125,0.168457
300,58.625,-136.625,-8.8125,0.4077148,-0.2666016,-0.9130859,-0.2709961,-0.04833984,0.1777344
304,68,-137.6875,-13.4375,0.2138672,-0.2353516,-0.8632813,-0.2675781,-0.04443359,0.1845703
308,76.625,-155.875,-10.75,-0.1650391,-0.2939453,-0.8901367,-0.2578125,-0.04199219,0.1967773
312,93.0625,-184.125,-1.875,-0.2426758,-0.2939453,-0.8823242,-0.2470703,-0.03466797,0.2104492
316,116.625,-216.8125,29.5,-0.4443359,-0.4296875,-0.9863281,-0.2363281,-0.03076172,0.21875
320,145.5625,-250.6875,48.9375,-0.4443359,-0.402832,-1.036133,-0.21875,-0.01953125,0.230957
324,151.3125,-252.4375,60.1875,-0.4711914,-0.3520508,-0.9672852,-0.1982422,-0.003417969,0.2470703
328,134.25,-253.625,51.875,-0.4248047,-0.2666016,-1.070801,-0.184082,0.008789063,0.2553711
332,126.4375,-271.375,25.6875,-0.6533203,-0.5112305,-1.13623,-0.1616211,0.02148438,0.2661133
336,137.1875,-305.5625,22.875,-0.4711914,-0.6201172,-1.286133,-0.1376953,0.03369141,0.2758789
340,149.25,-291.0625,41,-0.4130859,-0.6318359,-1.278809,-0.1176758,0.04248047,0.2841797
344,147.25,-278.1875,60.8125,-0.3745117,-0.5151367,-1.409668,-0.08886719,0.06103516,0.2851563
348,124.6875,-251.1875,46.6875,-0.246582,-0.4570313,-1.328613,-0.06298828,0.07275391,0.2880859
352,97.375,-262.4375,27.1875,-0.28125,-0.4257813,-1.555664,-0.04589844,0.08105469,0.2851563
356,78.3125,-258.4375,-10.5,-0.2119141,-0.503418,-1.401855,-0.02099609,0.09130859,0.2851563
361,76.3125,-247.0625,-17.375,-0.4907227,-0.6977539,-1.251953,0.0009765625,0.09765625,0.2827148
365,92.875,-233.25,15.8125,-0.6069336,-0.8613281,-1.19043,0.01660156,0.1010742,0.2758789
369,104,-207.8125,50,-0.6108398,-0.8417969,-1.117188,0.03808594,0.1098633,0.2705078
373,101.9375,-192.1875,53.1875,-0.6650391,-0.6787109,-1.155762,0.06054688,0.1186523,0.2607422
377,92.0625,-203.9375,32.5625,-0.9365234,-0.7133789,-1.170898,0.07226563,0.1225586,0.2553711
381,71.25,-224.375,22,-0.8706055,-0.7094727,-1.097656,0.08886719,0.1289063,0.2460938
385,60.875,-224.875,17.125,-0.8432617,-0.8261719,-1.009277,0.109375,0.1347656,0.2333984
389,73,-216.4375,24.1875,-0.8354492,-1.024414,-0.8515625,0.1210938,0.1362305,0.2255859
393,106,-192.9375,34.875,-0.9477539,-1.125488,-0.7402344,0.1376953,0.1411133,0.2119141
397,125.25,-187.4375,38.9375,-1.025391,-0.8999023,-0.8168945,0.1533203,0.1474609,0.1953125
401,115.8125,-187.9375,26.625,-0.9594727,-0.6708984,-0.878418,0.1640625,0.1499023,0.1831055
405,76.1875,-187.5,20.0625,-0.9672852,-0.5229492,-0.8554688,0.1757813,0.15625,0.1669922
409,44.5,-196,20.5,-0.9711914,-0.6669922,-0.8476563,0.1879883,0.1601563,0.1533203
413,37.3125,-193.6875,22.3125,-0.9130859,-0.8457031,-0.6977539,0.1987305,0.1586914,0.1425781
417,49.375,-187.875,23.625,-0.9130859,-0.9077148,-0.6513672,0.2080078,0.1601563,0.1289063
421,65.5,-181.875,25.75,-0.8549805,-0.8686523,-0.6552734,0.21875,0.1586914,0.1137695
425,58.125,-156.125,29.25,-0.5756836,-0.6201172,-0.6552734,0.2246094,0.1586914,0.1030273
429,42.25,-129.6875,23.3125,-0.7578125,-0.6396484,-0.6362305,0.230957,0.1601563,0.08691406
433,37.75,-135.4375,11.25,-0.9477539,-0.6748047,-0.5209961,0.237793,0.1586914,0.07421875
437,35.5625,-143.9375,7.9375,-0.9790039,-0.6669922,-0.4477539,0.2412109,0.1586914,0.06494141
441,32.75,-143.5,17.6875,-0.8510742,-0.6357422,-0.4282227,0.2436523,0.1601563,0.05273438
445,32.6875,-137.125,26.75,-0.7543945,-0.6318359,-0.4052734,0.25,0.1577148,0.04052734
449,19.9375,-121.9375,26.0625,-0.5024414,-0.4414063,-0.3823242,0.253418,0.1577148,0.03076172
453,-11.3125,-99.625,10.6875,-0.5371094,-0.3056641,-0.3398438,0.2568359,0.1538086,0.02001953
457,-46.4375,-109.625,-19.25,-0.8666992,-0.2783203,-0.2978516,0.2568359,0.15625,0.01464844
461,-74.625,-134.25,-27.6875,-0.8896484,-0.4101563,-0.2592773,0.2568359,0.15625,0.01171875
465,-75.5625,-138.5,-13.4375,-0.6845703,-0.7016602,-0.1630859,0.2558594,0.1577148,0.004882813
469,-51.625,-115.8125,0.9375,-0.347168,-0.8144531,-0.112793,0.2583008,0.1538086,0
473,-14.625,-68.3125,2.625,-0.1533203,-0.9038086,-0.128418,0.2583008,0.1547852,-0.00390625
477,10.8125,-19,9.4375,-0.1884766,-0.7290039,-0.2592773,0.2592773,0.1547852,-0.008300781
481,10.5,14.875,10.8125,-0.296875,-0.4960938,-0.4052734,0.2626953,0.1523438,-0.01074219
485,-10.875,32.625,13,-0.4750977,-0.4257813,-0.4746094,0.2617188,0.1547852,-0.006835938
490,-26.5,33.625,12.5625,-0.6030273,-0.5385742,-0.4975586,0.2617188,0.1523438,-0.00390625
494,-28.625,31.8125,7.125,-0.5175781,-0.6318359,-0.5170898,0.2617188,0.1499023,-0.002441406
498,-21.75,48.5625,3.5,-0.3510742,-0.6977539,-0.5322266,0.2626953,0.1523438,0.0009765625
502,-9.9375,81.1875,8.9375,-0.2583008,-0.7680664,-0.6206055,0.2617188,0.1499023,0.0078125
506,1.0625,117.625,10.1875,-0.2041016,-0.7290039,-0.7324219,0.2617188,0.1489258,0.01611328
510,0,154.375,5.125,-0.2851563,-0.6474609,-0.8515625,0.2592773,0.1474609,0.02294922
514,-13.3125,178.4375,-6.5625,-0.5214844,-0.5541992,-0.9287109,0.2583008,0.1474609,0.03613281
518,-37.0625,180.9375,-22.5625,-0.7773438,-0.4765625,-0.9672852,0.2509766,0.1499023,0.05517578
522,-70.1875,170.6875,-38.5,-0.8935547,-0.4726563,-0.9863281,0.2475586,0.1513672,0.06201172
526,-93.9375,175.25,-42.125,-0.8164063,-0.5854492,-0.9169922,0.2392578,0.1523438,0.08007813
530,-104.75,203.3125,-25.4375,-0.7270508,-0.6899414,-0.9399414,0.2319336,0.1513672,0.1015625
534,-127.75,240.9375,-15.625,-0.9130859,-0.5463867,-1.005371,0.2246094,0.1499023,0.1152344
538,-154.9375,245.8125,-17.1875,-1.300781,-0.6396484,-1.001465,0.2119141,0.1450195,0.1411133
542,-172.3125,208.75,-39.625,-1.537109,-0.8066406,-1.051758,0.1972656,0.1386719,0.1655273
546,-172.5625,182.5,-56.5,-1.253906,-0.9506836,-0.9018555,0.1889648,0.1313477,0.1821289
550,-174.6875,200.3125,-36.9375,-1.009766,-0.8764648,-0.9360352,0.1723633,0.125,0.199707
554,-180.25,252.5625,2.8125,-0.862793,-0.7949219,-1.090332,0.1557617,0.1137695,0.2226563
558,-186.5,308.8125,49.5,-1.013672,-0.7792969,-1.278809,0.144043,0.1049805,0.237793
562,-187.0625,343.25,92.75,-1.001953,-0.7250977,-1.447754,0.1201172,0.08642578,0.2583008
566,-181.625,348.6875,85,-1.381836,-0.8686523,-1.463379,0.09130859,0.06640625,0.2773438
570,-158.5625,272.9375,17.25,-1.459473,-0.8378906,-1.424805,0.07226563,0.05273438,0.2851563
574,-147,241,-18.6875,-0.9052734,-0.8027344,-1.367188,0.04882813,0.03857422,0.2963867
578,-138.9375,270.125,-6.0625,-0.6225586,-0.7329102,-1.486328,0.02587891,0.02490234,0.3041992
582,-129.3125,310.8125,40.625,-0.7114258,-0.6044922,-1.663574,0.004394531,0.01367188,0.3056641
586,-135,348.9375,107,-0.7075195,-0.4296875,-1.778809,-0.02685547,0.00390625,0.3071289
590,-124.0625,344.3125,104.625,-0.9130859,-0.5424805,-1.666992,-0.05908203,-0.006835938,0.3071289
594,-109.4375,277.375,29.375,-0.7387695,-0.387207,-1.69043,-0.08056641,-0.01318359,0.3032227
598,-129.9375,243.0625,-55.4375,-0.4052734,-0.4609375,-1.678711,-0.1054688,-0.02587891,0.2963867
602,-129.9375,248.1875,-74.9375,-0.1225586,-0.6123047,-1.63623,-0.128418,-0.04052734,0.2880859
606,-118.1875,276.8125,-37,-0.2348633,-0.6474609,-1.69043,-0.1450195,-0.05078125,0.2827148
610,-119.8125,309.4375,7.1875,-0.3901367,-0.3598633,-1.590332,-0.1708984,-0.06298828,0.2661133
614,-127.3125,310.875,44.8125,-0.4013672,-0.2744141,-1.55957,-0.1972656,-0.07177734,0.2485352
619,-127.0625,285.375,18.1875,-0.4750977,-0.3286133,-1.344238,-0.215332,-0.07714844,0.2363281
623,-134.4375,256.0625,-33.75,-0.4248047,-0.2783203,-1.028809,-0.234375,-0.08544922,0.2143555
627,-127.0625,210,-53.5,-0.78125,-0.6513672,-0.628418,-0.2509766,-0.09960938,0.1967773
631,-71.0625,165.9375,-33.125,-0.6108398,-0.9116211,-0.1743164,-0.2592773,-0.1083984,0.1860352
635,-2.0625,159.375,18.9375,-0.3354492,-0.7094727,-0.06689453,-0.2675781,-0.1118164,0.175293
639,33.75,156.625,55.75,-0.2426758,-0.1074219,-0.1743164,-0.2783203,-0.1083984,0.1601563
643,10.875,118.8125,36.625,-0.262207,0.4243164,-0.3325195,-0.2827148,-0.1030273,0.1508789
647,-37.25,72,-3.625,-0.1186523,0.3935547,-0.1860352,-0.2875977,-0.1020508,0.144043
651,-53.3125,41.625,-22.8125,-0.09521484,-0.04882813,-0.005371094,-0.2924805,-0.1044922,0.137207
655,-25,25.75,-13.9375,0.0009765625,-0.3017578,0.1982422,-0.2924805,-0.1083984,0.1328125
659,12.8125,14.3125,5.8125,0.008789063,-0.2900391,0.1982422,-0.293457,-0.1069336,0.1313477
663,41.125,-8.1875,10.6875,0.06689453,-0.1230469,0.05957031,-0.2949219,-0.1083984,0.1289063
667,47.375,-26.6875,7.0625,0.1557617,0.1640625,-0.1166992,-0.2924805,-0.1044922,0.1328125
671,24.375,-42.4375,0,0.1948242,0.3081055,-0.2939453,-0.2924805,-0.1020508,0.1342773
675,-0.75,-56.6875,-5.5,0.2333984,0.1914063,-0.3208008,-0.2900391,-0.1020508,0.1411133
679,0,-69.5,-3.875,0.3227539,-0.06054688,-0.3325195,-0.2875977,-0.1030273,0.144043
683,16.75,-70.5,1.625,0.3959961,-0.1850586,-0.3745117,-0.2851563,-0.1030273,0.1518555
687,36.375,-71.4375,6.125,0.3457031,-0.1694336,-0.4555664,-0.2807617,-0.1020508,0.1572266
691,47.5625,-83.0625,10.5,0.2373047,-0.09570313,-0.5439453,-0.2768555,-0.09814453,0.1630859
695,50.4375,-96.6875,14.0625,0.1484375,-0.1074219,-0.59375,-0.2724609,-0.09570313,0.1699219
699,55.375,-113.1875,19.125,0.1015625,-0.1347656,-0.6245117,-0.2675781,-0.08935547,0.1791992
703,66.5625,-136.25,23.75,-0.06835938,-0.3134766,-0.6479492,-0.2617188,-0.08544922,0.1831055
707,90.375,-161.6875,25.9375,-0.006347656,-0.324707,-0.7167969,-0.253418,-0.078125,0.1967773
711,92.0625,-172.6875,19.3125,-0.1147461,-0.2045898,-0.7783203,-0.2436523,-0.07080078,0.2104492
715,83.6875,-197.6875,-2.5,-0.4443359,-0.2705078,-0.7939453,-0.2329102,-0.06835938,0.2202148
719,90.1875,-239.4375,-6.625,-0.5527344,-0.4648438,-0.8476563,-0.2211914,-0.06054688,0.2348633
723,114.5625,-256.6875,2.5,-0.4829102,-0.6513672,-0.8862305,-0.199707,-0.05175781,0.2485352
727,151.0625,-265.25,26.625,-0.4443359,-0.6821289,-1.047852,-0.1855469,-0.04589844,0.2583008
731,164.8125,-259,38.125,-0.3745117,-0.5112305,-1.197754,-0.1616211,-0.02929688,0.2744141
735,154.1875,-247.5,28.6875,-0.3901367,-0.3911133,-1.217285,-0.1367188,-0.01318359,0.2851563
739,148.125,-259.75,24.125,-0.6303711,-0.4882813,-1.305664,-0.1220703,-0.001953125,0.2895508
743,151.6875,-273.3125,18,-0.6376953,-0.5151367,-1.248047,-0.09619141,0.01123047,0.2949219
748,159.6875,-289.375,33.4375,-0.78125,-0.6435547,-1.367188,-0.06884766,0.02880859,0.2988281
752,172.4375,-291.5625,45.125,-0.5644531,-0.6318359,-1.409668,-0.04980469,0.03857422,0.2988281
756,158.5,-253.5625,39.4375,-0.1845703,-0.4453125,-1.45166,-0.02246094,0.05517578,0.2963867
760,140.5,-226,25.3125,-0.6186523,-0.5307617,-1.471191,0.0009765625,0.07275391,0.2895508
764,120.75,-243,21.875,-0.78125,-0.5073242,-1.505859,0.01904297,0.07861328,0.2866211
768,101.875,-244.1875,22.375,-0.9169922,-0.7055664,-1.305664,0.0390625,0.09130859,0.2797852
772,104.5625,-251,30.5625,-1.083496,-0.9233398,-1.186523,0.06396484,0.09765625,0.2705078
776,109.5,-246.4375,45.1875,-0.9829102,-0.9155273,-1.121094,0.07861328,0.1035156,0.2636719
780,102.9375,-230,41.3125,-0.862793,-0.8417969,-1.140137,0.1010742,0.1123047,0.25
784,99.4375,-227.625,29.6875,-1.037109,-0.9077148,-1.147949,0.1225586,0.1176758,0.2363281
788,93.8125,-230.125,31.0625,-1.060547,-0.8457031,-1.132324,0.1367188,0.1225586,0.2255859
792,85.6875,-225.8125,39,-1.048828,-0.9116211,-1.125,0.1547852,0.1289063,0.2104492
796,94.25,-217.6875,41.4375,-1.025391,-1.05127,-1.009277,0.1723633,0.1313477,0.1943359
800,107,-202.8125,40.5625,-0.9790039,-1.004883,-0.9902344,0.1831055,0.1337891,0.1831055
804,105.9375,-185.25,38.75,-0.9477539,-0.8535156,-0.9707031,0.1972656,0.1376953,0.1630859
808,88.5625,-178.5625,30.8125,-1.052734,-0.6860352,-0.9633789,0.2094727,0.1386719,0.1479492
812,71.375,-191.3125,23.4375,-1.165039,-0.7753906,-0.894043,0.2177734,0.1401367,0.1342773
816,66.4375,-200.875,16.625,-1.052734,-0.8417969,-0.7670898,0.2294922,0.1411133,0.1181641
820,68.5625,-195.25,16.4375,-0.8857422,-0.8378906,-0.7133789,0.2392578,0.1435547,0.1015625
824,63.6875,-174.4375,8.75,-0.715332,-0.6787109,-0.6513672,0.2412109,0.1435547,0.08691406
828,57.1875,-155.6875,7.5625,-0.8125,-0.7016602,-0.5708008,0.2475586,0.1450195,0.0703125
832,54.625,-147.5625,5.8125,-0.8510742,-0.6591797,-0.4628906,0.2519531,0.1474609,0.05517578
836,47.375,-153.3125,-2.5625,-0.9790039,-0.6240234,-0.3823242,0.2543945,0.1474609,0.04589844
840,41.25,-168.375,-4.75,-0.9399414,-0.6240234,-0.3168945,0.2592773,0.1489258,0.02978516
844,36.6875,-168.5,-6.3125,-0.7695313,-0.5463867,-0.2861328,0.2617188,0.1489258,0.01318359
848,21.6875,-160,-15.625,-0.6416016,-0.4492188,-0.2436523,0.2617188,0.1513672,0.002441406
852,19.4375,-152.625,-14.625,-0.7270508,-0.5854492,-0.1708984,0.2617188,0.1499023,-0.01074219
856,28.25,-145.375,-9.375,-0.6689453,-0.5698242,-0.06298828,0.2626953,0.1513672,-0.02587891
860,43.1875,-126.9375,12.4375,-0.6455078,-0.6357422,-0.04003906,0.2626953,0.1513672,-0.03271484
864,54.25,-103.4375,30,-0.3974609,-0.4570313,-0.1474609,0.2651367,0.1499023,-0.04492188
868,40.0625,-68.0625,14.5625,-0.296875,-0.3950195,-0.2207031,0.2641602,0.1459961,-0.05566406
872,37.625,-52.8125,5.375,-0.3862305,-0.5,-0.3286133,0.2641602,0.1459961,-0.06103516
877,26.375,-25.625,8.9375,-0.230957,-0.3676758,-0.4169922,0.2651367,0.1450195,-0.06787109
881,6.1875,4.25,11.8125,-0.2270508,-0.3481445,-0.4594727,0.2666016,0.1425781,-0.06933594
885,-6.875,30.9375,19.9375,-0.3393555,-0.4765625,-0.4555664,0.2651367,0.1425781,-0.06933594
889,-4.4375,40.6875,18.3125,-0.4482422,-0.6005859,-0.5244141,0.2675781,0.1411133,-0.06542969
893,-3,48.0625,1.125,-0.3046875,-0.534668,-0.5976563,0.2700195,0.1411133,-0.05859375
897,-14.4375,70.1875,-13.625,-0.230957,-0.453125,-0.6669922,0.2666016,0.1401367,-0.05712891
901,-33.9375,95.75,-18.75,-0.2929688,-0.4296875,-0.7167969,0.2700195,0.1411133,-0.05029297
905,-56.5625,120.5625,-18.25,-0.3666992,-0.4492188,-0.7133789,0.2675781,0.1459961,-0.03955078
909,-71.5,147.125,-14.75,-0.4907227,-0.5854492,-0.6669922,0.2675781,0.1450195,-0.03271484
913,-72.625,164.625,-21.125,-0.6689453,-0.7329102,-0.6245117,0.2675781,0.1474609,-0.01220703
917,-68.1875,169.8125,-37.25,-0.7387695,-0.7524414,-0.6206055,0.2626953,0.1489258,0.004882813
921,-75.6875,181.25,-47.5625,-0.796875,-0.6591797,-0.6821289,0.2583008,0.1513672,0.01855469
925,-97.0625,193.1875,-46.6875,-0.878418,-0.5966797,-0.7016602,0.2509766,0.1538086,0.03613281
929,-119.6875,220.6875,-20.4375,-0.8706055,-0.581543,-0.7363281,0.2451172,0.1547852,0.05957031
933,-134.375,249.875,-4,-1.227051,-0.8803711,-0.6552734,0.2412109,0.1523438,0.07714844
937,-106.125,230.6875,-12.1875,-1.467285,-1.183594,-0.6591797,0.230957,0.1499023,0.1030273
941,-65.8125,225.75,-27.4375,-1.168945,-1.195313,-0.5400391,0.21875,0.1459961,0.1235352
945,-51.0625,246.3125,-36.5,-1.137695,-0.8881836,-0.7324219,0.2128906,0.1474609,0.137207
949,-81.5,251.5625,-38.5,-1.308105,-0.6162109,-0.894043,0.1948242,0.1459961,0.1572266
953,-123.25,253,-14.625,-1.312012,-0.5620117,-1.047852,0.1806641,0.1435547,0.1762695
957,-155.4375,273.375,22,-1.203613,-0.6860352,-1.132324,0.1689453,0.1386719,0.1943359
961,-154.6875,269.125,17.3125,-1.521484,-1.078613,-1.13623,0.1499023,0.125,0.2172852
965,-141,233.1875,-23.25,-1.447754,-0.9580078,-1.113281,0.1333008,0.1162109,0.2348633
969,-157.125,211.8125,-55.1875,-1.401367,-0.8261719,-1.151855,0.1166992,0.1088867,0.2460938
973,-181.75,198.5625,-62.3125,-1.32373,-0.8144531,-1.132324,0.09619141,0.09619141,0.2607422
977,-189.125,200.625,-32.4375,-1.20752,-0.9814453,-1.19043,0.07714844,0.08105469,0.2729492
981,-166.5,232.6875,20.5,-0.7426758,-1.090332,-1.228516,0.06542969,0.06982422,0.2797852
985,-129.3125,314.1875,68.4375,-0.2661133,-0.9931641,-1.363281,0.04248047,0.05517578,0.293457
989,-111.5,388.0625,82.9375,-0.2583008,-0.5737305,-1.797852,0.01171875,0.04248047,0.300293
993,-137.9375,423.6875,46.4375,-0.4555664,-0.2392578,-1.928711,-0.01269531,0.03515625,0.3017578
997,-178.6875,403.875,16.375,-1.083496,-0.2900391,-1.998047,-0.05419922,0.02001953,0.3041992
1001,-201.625,334.8125,10.125,-1.265625,-0.5268555,-1.871094,-0.08886719,0.002441406,0.2973633
1006,-192.1875,295.8125,10.25,-0.6884766,-0.6630859,-1.55957,-0.1103516,-0.01074219,0.293457
1010,-158.3125,315.4375,32.6875,-0.1420898,-0.8764648,-1.520996,-0.1391602,-0.02832031,0.2841797
1014,-116.9375,365,43.5625,0.1171875,-0.7329102,-1.644043,-0.1699219,-0.03710938,0.2675781
1018,-103.75,396,35.9375,-0.1962891,-0.4648438,-1.729004,-0.1899414,-0.04199219,0.2553711
1022,-112.0625,372,19.9375,-0.7075195,-0.2939453,-1.51709,-0.2236328,-0.04833984,0.230957
1026,-124.5,301.0625,-3.0625,-1.021484,-0.2470703,-1.125,-0.2485352,-0.05810547,0.2050781
1030,-111.25,218.125,-11.3125,-0.831543,-0.4453125,-0.7016602,-0.2578125,-0.06201172,0.1928711
1034,-75.3125,182.125,-7.625,-0.7387695,-0.6821289,-0.2631836,-0.2724609,-0.07080078,0.1723633
1038,-14.5,136.5625,14.5625,-0.8276367,-0.6240234,0.009765625,-0.2807617,-0.07324219,0.1616211
1042,30.5,99.8125,32.8125,-0.5024414,-0.3598633,0.1132813,-0.2841797,-0.07324219,0.1518555
1046,49.0625,88.375,33.625,-0.230957,-0.09570313,0.04443359,-0.2915039,-0.06933594,0.1450195
1050,35.5,69.3125,16.4375,-0.1459961,0.2299805,-0.08984375,-0.2958984,-0.06201172,0.1396484
1054,0.6875,32.9375,-15.5625,-0.09912109,0.3120117,-0.1206055,-0.2973633,-0.06054688,0.1357422
1058,-21.5,0.3125,-28.75,0.02050781,0.1523438,-0.0859375,-0.2973633,-0.06298828,0.1328125
1062,-15.5,-8.4375,-15,0.1557617,-0.05664063,-0.001464844,-0.2973633,-0.06591797,0.1342773
1066,5.375,-9,9.5625,0.206543,-0.1811523,-0.07080078,-0.2983398,-0.06835938,0.1342773
1070,23.4375,-12.9375,19.4375,0.3149414,-0.08007813,-0.1977539,-0.2958984,-0.06591797,0.1357422
1074,21.625,-23.375,11.875,0.3378906,0.01660156,-0.3632813,-0.2983398,-0.06298828,0.137207
1078,15.875,-42.875,-5.75,0.4038086,-0.002441406,-0.4667969,-0.2949219,-0.06201172,0.1396484
1082,16.375,-56.3125,-19,0.4506836,-0.09179688,-0.5209961,-0.293457,-0.06298828,0.144043
1086,25.5,-62.0625,-15.75,0.4931641,-0.1577148,-0.5898438,-0.2900391,-0.06201172,0.1494141
1090,38.1875,-62.5,-4.25,0.609375,-0.08789063,-0.6787109,-0.2875977,-0.06201172,0.1518555
1094,27.9375,-49.6875,3.25,0.543457,-0.006347656,-0.7167969,-0.2841797,-0.06054688,0.1572266
1098,13.875,-58,-0.4375,0.3227539,-0.02587891,-0.6708984,-0.2827148,-0.05712891,0.1616211
1102,8.375,-79.8125,-8.75,0.1367188,-0.1230469,-0.5439453,-0.2807617,-0.05957031,0.168457
1106,17.4375,-107.375,-14,-0.006347656,-0.3325195,-0.4667969,-0.2744141,-0.05957031,0.1723633
1110,61.6875,-142.5625,-2.0625,0.3535156,-0.534668,-0.6401367,-0.2675781,-0.05810547,0.1845703
1114,94.6875,-119.375,4.5625,0.4736328,-0.421875,-0.59375,-0.2617188,-0.0546875,0.1899414
1118,100.5625,-102.75,10.375,0.01269531,-0.2124023,-0.6054688,-0.253418,-0.04833984,0.199707
1122,102.875,-145.1875,15.4375,-0.4482422,-0.2822266,-0.6977539,-0.2460938,-0.03955078,0.2089844
1126,124.6875,-204.6875,31.1875,-0.1533203,-0.4067383,-0.9477539,-0.237793,-0.03466797,0.2172852
1130,145.625,-223.25,51.4375,-0.01025391,-0.3637695,-1.043945,-0.2236328,-0.02050781,0.230957
1135,139.9375,-238.6875,50.4375,-0.06445313,-0.1772461,-1.178711,-0.2045898,-0.004394531,0.2431641
1139,83.6875,-219.875,22.6875,0.3959961,0.09033203,-1.197754,-0.1914063,0.004882813,0.2539063
1143,29.1875,-182.4375,-32.375,0.1210938,-0.08007813,-1.028809,-0.1723633,0.01025391,0.262207
1147,34.9375,-225.75,-23.625,-0.1572266,-0.534668,-1.348145,-0.1557617,0.008789063,0.2714844
1151,66,-207.5,-12,0.4311523,-0.4453125,-1.043945,-0.1435547,0.01123047,0.2773438
1155,70.0625,-143.875,16.4375,-0.04882813,-0.3989258,-0.9785156,-0.1269531,0.01757813,0.2851563
1159,65.875,-136.125,25.75,-0.8007813,-0.4067383,-0.840332,-0.112793,0.02636719,0.2880859
1163,87.5625,-208.0625,55.4375,-0.9868164,-0.6630859,-1.174805,-0.1020508,0.03027344,0.2910156
1167,117.9375,-241,62.875,-0.2583008,-0.4648438,-1.109375,-0.078125,0.04150391,0.2919922
1171,113.1875,-217.6875,65.875,-0.2851563,-0.340332,-1.197754,-0.05664063,0.05273438,0.2919922
1175,70.8125,-182.4375,38.875,-0.2192383,-0.05273438,-1.078613,-0.04150391,0.06103516,0.2910156
1179,13.9375,-158,-2.3125,-0.7617188,-0.1381836,-0.9052734,-0.0234375,0.06884766,0.2963867
1183,-10.25,-196.9375,-15.375,-1.343262,-0.46875,-0.840332,-0.009277344,0.06640625,0.2919922
1187,4.5,-255.75,-1.875,-1.393555,-0.8920898,-0.8129883,0.004394531,0.06494141,0.2949219
1191,57.125,-274.3125,26.375,-0.9438477,-1.102051,-0.7749023,0.02978516,0.06738281,0.2895508
1195,111.875,-241.875,45.8125,-0.8164063,-1.102051,-0.7670898,0.05566406,0.07373047,0.2841797
1199,139.1875,-210.6875,54.75,-0.9946289,-0.8959961,-0.84375,0.07226563,0.08007813,0.2783203
1203,134.6875,-206.625,39.4375,-1.358887,-0.7368164,-0.9169922,0.09130859,0.09130859,0.2661133
1207,116.4375,-234.5625,24.1875,-1.645508,-0.7016602,-1.005371,0.1118164,0.1010742,0.2524414
1211,105.1875,-270.75,25.5,-1.699707,-0.8457031,-0.9980469,0.1259766,0.1074219,0.2416992
1215,108.875,-292.6875,38.375,-1.556152,-0.9814453,-0.9941406,0.1508789,0.1123047,0.2226563
1219,119.3125,-285.75,59.6875,-1.343262,-1.040039,-0.9902344,0.1738281,0.1176758,0.2021484
1223,126.625,-267.3125,70.1875,-1.28125,-0.9892578,-1.043945,0.1879883,0.1210938,0.1889648
1227,117.4375,-252.625,64.5625,-1.20752,-0.8183594,-1.090332,0.2094727,0.1235352,0.1640625
1231,100.75,-250.4375,46.875,-1.296875,-0.7949219,-1.105469,0.2246094,0.125,0.1425781
1235,92.9375,-264.625,32.0625,-1.28125,-0.8417969,-1.070801,0.234375,0.1274414,0.1235352
1239,87.625,-263.9375,24.1875,-1.114746,-0.8066406,-1.063477,0.2460938,0.1274414,0.1000977
1243,82.6875,-250.5625,25.25,-1.063965,-0.7910156,-1.020996,0.2568359,0.1274414,0.07568359
1247,81.625,-234.5,32.5,-0.9287109,-0.7211914,-1.005371,0.2617188,0.1289063,0.05810547
1251,69.8125,-210.6875,31.5625,-0.8510742,-0.5620117,-0.9477539,0.2700195,0.125,0.03613281
1255,51.3125,-201.5625,9.6875,-0.878418,-0.4726563,-0.8710938,0.2773438,0.125,0.01464844
1259,36.75,-196.3125,-4.5625,-0.7543945,-0.4648438,-0.7670898,0.2773438,0.125,0.0009765625
1264,29.875,-167.5625,12.4375,-0.6494141,-0.5854492,-0.6171875,0.2783203,0.1235352,-0.01611328
1268,35.625,-135.5,35.8125,-0.6186523,-0.6591797,-0.4667969,0.2792969,0.1225586,-0.03125
1272,42.375,-118.0625,42.8125,-0.5874023,-0.6044922,-0.3862305,0.2807617,0.1186523,-0.04052734
1276,38.1875,-105.4375,27.0625,-0.5141602,-0.4804688,-0.2822266,0.2841797,0.1152344,-0.05419922
1280,27.875,-106.1875,-4,-0.5488281,-0.4101563,-0.2592773,0.2841797,0.1123047,-0.06542969
1284,17.5,-102.125,-26.5625,-0.4013672,-0.3637695,-0.1166992,0.2817383,0.1137695,-0.07080078
1288,12,-73.25,-20.3125,-0.3549805,-0.4375,-0.05126953,0.2807617,0.1162109,-0.08154297
1292,12.3125,-39.625,-0.5,-0.3862305,-0.4375,-0.04003906,0.2773438,0.1186523,-0.08691406
1296,11.9375,-13.5,8.4375,-0.3823242,-0.4140625,-0.05517578,0.2773438,0.1162109,-0.08837891
1300,11.0625,8.25,10.375,-0.4130859,-0.4101563,-0.1015625,0.2792969,0.1162109,-0.08837891
1304,9.0625,17,5.25,-0.4946289,-0.402832,-0.2167969,0.2783203,0.1152344,-0.08691406
1308,0.25,18.25,-8.25,-0.4633789,-0.3520508,-0.3286133,0.2783203,0.1152344,-0.08691406
1312,-13.625,30.0625,-15.25,-0.3862305,-0.3793945,-0.4248047,0.2792969,0.1137695,-0.08691406
1316,-25.8125,51.8125,-14.375,-0.3393555,-0.4179688,-0.5131836,0.2807617,0.1176758,-0.08300781
1320,-35.125,75.625,-11.3125,-0.3320313,-0.453125,-0.6362305,0.2792969,0.1176758,-0.07763672
1324,-47.75,103.5,-15.3125,-0.3203125,-0.46875,-0.6787109,0.2783203,0.1210938,-0.06787109
1328,-55.1875,126.0625,-28.875,-0.4750977,-0.5966797,-0.7167969,0.2783203,0.1235352,-0.05712891
1332,-54.9375,140.0625,-45.875,-0.5756836,-0.6748047,-0.7514648,0.2783203,0.1264648,-0.04345703
1336,-58.875,156.25,-57.8125,-0.6342773,-0.6899414,-0.8129883,0.2773438,0.1289063,-0.02978516
1340,-64.75,183.125,-58.375,-0.6572266,-0.7680664,-0.8710938,0.2709961,0.1347656,-0.01220703
1344,-67.5625,218.0625,-49,-0.6611328,-0.8496094,-0.9555664,0.269043,0.1401367,0.0009765625
1348,-72.8125,275.9375,-34.625,-0.6455078,-0.8725586,-0.9824219,0.2641602,0.1425781,0.02392578
1352,-79.75,318.5,-42.75,-1.133789,-0.9155273,-1.047852,0.2543945,0.1450195,0.05126953
1356,-88.4375,311.25,-71.25,-1.67627,-1.074707,-1.032227,0.2451172,0.1459961,0.07324219
1360,-94.4375,285.75,-85.5,-1.881836,-1.098145,-0.9672852,0.230957,0.1489258,0.1000977
1364,-105.0625,259.125,-89.75,-1.850586,-1.043945,-0.9707031,0.2138672,0.1513672,0.1259766
1368,-126.375,264.375,-77.6875,-1.730469,-1.040039,-0.9360352,0.2011719,0.1523438,0.1411133
1372,-144.9375,280.875,-63,-1.48291,-0.9970703,-1.001465,0.1831055,0.1513672,0.1655273
1376,-163.0625,319.5,-43.9375,-1.308105,-0.9736328,-1.255371,0.1630859,0.1459961,0.1928711
1380,-184.0625,370.125,-25.4375,-1.292969,-0.9077148,-1.416992,0.1459961,0.1386719,0.2089844
1384,-192.625,384.5625,-11.6875,-1.812012,-1.214844,-1.543945,0.1152344,0.125,0.237793
1388,-184.9375,359.875,-22.875,-1.734375,-1.203125,-1.463379,0.08447266,0.1098633,0.2583008
1393,-192.0625,357.875,-35.1875,-1.521484,-1.02832,-1.351563,0.06298828,0.1010742,0.2705078
1397,-199.0625,351.1875,-32.25,-1.479004,-1.098145,-1.471191,0.02734375,0.08251953,0.2827148
1401,-196.5,355.0625,-21.125,-1.165039,-1.055176,-1.463379,-0.006835938,0.06494141,0.2919922
1405,-192.8125,370.5625,4.125,-0.7695313,-0.8647461,-1.686523,-0.03076172,0.05126953,0.2963867
1409,-194.0625,410,15.625,-0.5874023,-0.7211914,-1.840332,-0.06494141,0.03271484,0.2973633
1413,-206.4375,426.6875,11.4375,-0.78125,-0.5581055,-1.905762,-0.1069336,0.01367188,0.2895508
1417,-218.9375,392.6875,-9.25,-1.308105,-0.6669922,-1.70166,-0.1303711,0.002441406,0.2851563
1421,-210.1875,298.5625,-43.125,-1.289063,-0.7949219,-1.293945,-0.1650391,-0.02197266,0.2705078
1425,-166.25,238.9375,-47.875,-0.9013672,-1.129395,-0.8901367,-0.1914063,-0.04052734,0.2539063
1429,-98.8125,239.4375,-32.5,-0.3007813,-1.043945,-0.6479492,-0.2021484,-0.04931641,0.2470703
1433,-54.625,261,-13.625,-0.3432617,-0.7329102,-0.6821289,-0.2211914,-0.05957031,0.2294922
1437,-28.625,236.875,-14.3125,-0.5141602,-0.3911133,-0.6479492,-0.2402344,-0.06298828,0.2133789
1441,-27.5,211.75,-17.9375,-0.5722656,-0.07226563,-0.3476563,-0.2495117,-0.06445313,0.199707
1445,-30.875,154.375,-19,-0.8354492,-0.05273438,-0.2207031,-0.2626953,-0.06835938,0.1875
1449,-24.75,95.25,-18.6875,-0.5488281,-0.09960938,-0.02441406,-0.2709961,-0.07324219,0.175293
1453,-16.5,70.6875,-10.125,-0.2583008,-0.1772461,0.05175781,-0.2758789,-0.07177734,0.1708984
1457,0.0625,55.5625,-2.375,-0.1303711,-0.1967773,0.04785156,-0.2792969,-0.07568359,0.1669922
1461,17.0625,41.8125,0.625,0.04736328,-0.1616211,-0.001464844,-0.2807617,-0.07421875,0.1616211
1465,28.6875,33.0625,-4.125,0.175293,-0.06835938,-0.05517578,-0.2841797,-0.07324219,0.1616211
1469,31.5625,20.3125,-8.8125,0.1445313,0.02441406,-0.1513672,-0.2841797,-0.07421875,0.1572266
1473,21.5,1.125,-7.125,0.07470703,0.105957,-0.2553711,-0.2851563,-0.07080078,0.1547852
1477,10.875,-18.8125,0.875,0.1367188,0.07861328,-0.3359375,-0.2841797,-0.07177734,0.1547852
1481,9.875,-31.5625,13.5,0.2490234,-0.1191406,-0.3823242,-0.2841797,-0.07080078,0.1572266
1485,22.6875,-33.75,18.5625,0.4697266,-0.2202148,-0.4091797,-0.2827148,-0.06933594,0.1616211
1489,35.5625,-29.6875,16.375,0.5239258,-0.1928711,-0.4902344,-0.2817383,-0.06591797,0.1630859
1493,37.375,-36.625,4.25,0.4580078,-0.08007813,-0.6054688,-0.2783203,-0.06298828,0.1669922
1497,32.75,-47.75,-5.4375,0.4155273,-0.06835938,-0.6591797,-0.2758789,-0.06201172,0.1708984
1501,25.9375,-57.5625,-5.5,0.3574219,-0.04541016,-0.7055664,-0.2734375,-0.06054688,0.1723633
1505,23.1875,-68.875,0.875,0.2875977,-0.1074219,-0.6938477,-0.2709961,-0.05810547,0.1777344
1509,23.5,-79.75,3.875,0.190918,-0.1499023,-0.6054688,-0.2675781,-0.05810547,0.1831055
1513,33.0625,-99.625,5.75,0.07861328,-0.2783203,-0.5898438,-0.2626953,-0.05566406,0.1889648
1517,51.4375,-112.375,6.9375,0.02050781,-0.387207,-0.4936523,-0.2568359,-0.0546875,0.1982422
1522,82.9375,-133.625,13.625,0.06689453,-0.3833008,-0.6362305,-0.2495117,-0.046875,0.2050781
1526,102.9375,-130.875,17.625,-0.01025391,-0.3056641,-0.5825195,-0.2412109,-0.04199219,0.2133789
1530,108.125,-146.125,23.625,-0.4130859,-0.2783203,-0.644043,-0.2329102,-0.03320313,0.2226563
1534,106.5,-177.375,26.75,-0.5834961,-0.2124023,-0.7094727,-0.2197266,-0.0234375,0.2333984
1538,103.125,-218.75,33.0625,-0.5566406,-0.3520508,-0.9169922,-0.2104492,-0.01464844,0.2392578
1542,110.6875,-249.75,32.8125,-0.246582,-0.4609375,-1.05957,-0.1938477,-0.005859375,0.2539063
1546,106.125,-244.0625,17.5625,0.206543,-0.4570313,-1.155762,-0.1708984,0.004882813,0.2636719
1550,100.25,-213.125,-6.5625,0.07861328,-0.4609375,-1.063477,-0.1567383,0.01269531,0.2705078
1554,94.4375,-203,-8.25,-0.4482422,-0.4921875,-1.001465,-0.1391602,0.02246094,0.2783203
1558,88.875,-212.375,3.1875,-0.8432617,-0.5151367,-0.9287109,-0.1176758,0.02880859,0.2841797
1562,93.4375,-243.5,18.0625,-1.025391,-0.6552734,-0.9707031,-0.1069336,0.03515625,0.2880859
1566,111.125,-262.25,29.0625,-0.8164063,-0.7446289,-1.036133,-0.08203125,0.04394531,0.2919922
1570,129.375,-258.4375,45.5,-0.746582,-0.7753906,-1.128418,-0.05419922,0.05859375,0.293457
1574,133.5,-249.625,57.375,-0.5371094,-0.6435547,-1.290039,-0.03759766,0.06640625,0.2919922
1578,118.3125,-229.875,51.25,-0.6416016,-0.5541992,-1.293945,-0.01269531,0.07861328,0.2895508
1582,93.8125,-231.625,38.75,-0.8896484,-0.6044922,-1.270996,0.009277344,0.08886719,0.2827148
1586,86.8125,-250.75,28.125,-1.083496,-0.7910156,-1.174805,0.02587891,0.09375,0.28125
1590,94.375,-265.875,25.125,-1.048828,-0.9038086,-1.217285,0.04882813,0.1000977,0.2744141
1594,111.125,-262.9375,38.6875,-0.9985352,-1.000977,-1.244141,0.07617188,0.1088867,0.262207
1598,124,-256.9375,66.125,-0.7231445,-0.8999023,-1.455566,0.09033203,0.1137695,0.2524414
1602,110,-218.375,63.5,-0.4404297,-0.7446289,-1.459473,0.1152344,0.1210938,0.237793
1606,81.75,-188.6875,46.25,-0.7543945,-0.7407227,-1.401855,0.1318359,0.1274414,0.2241211
1610,65.3125,-195.3125,29.625,-1.125977,-0.8457031,-1.244141,0.1425781,0.1298828,0.2143555
1614,60.8125,-212.6875,18.5,-1.176758,-0.8574219,-1.090332,0.1606445,0.1323242,0.2011719
1618,66,-218.0625,28.9375,-1.103027,-0.9428711,-1.024902,0.1772461,0.1376953,0.1845703
1622,66.0625,-201.8125,48.6875,-1.005859,-0.8920898,-1.032227,0.1855469,0.1362305,0.175293
1626,54.6875,-178.5,56.1875,-0.8588867,-0.7792969,-1.013184,0.199707,0.1362305,0.1616211
1630,37.8125,-167.8125,45.1875,-0.8706055,-0.7094727,-1.024902,0.2138672,0.1347656,0.1479492
1634,20.3125,-170.8125,20.0625,-0.878418,-0.7016602,-0.9516602,0.2202148,0.1323242,0.1381836
1638,17.25,-176.4375,-4.0625,-0.8666992,-0.7832031,-0.809082,0.2285156,0.1337891,0.1235352
1642,25.1875,-161.9375,-9.1875,-0.8198242,-0.7910156,-0.5361328,0.2368164,0.1337891,0.1098633
1646,38.0625,-140.625,5.625,-0.9208984,-0.7641602,-0.4516602,0.2412109,0.1347656,0.1015625
1651,42.25,-127.6875,19.375,-0.8974609,-0.6005859,-0.4863281,0.2451172,0.1347656,0.08935547
1655,31.875,-128.875,15.3125,-0.8432617,-0.4335938,-0.5629883,0.253418,0.1347656,0.07568359
1659,14.875,-135.9375,2.3125,-0.7036133,-0.4067383,-0.5668945,0.2558594,0.1362305,0.07177734
1663,9.375,-131.6875,-8.4375,-0.7114258,-0.6005859,-0.4667969,0.2592773,0.1362305,0.05664063
1667,23.6875,-124.0625,-12.5,-0.6225586,-0.6860352,-0.3129883,0.2626953,0.1376953,0.04589844
1671,41.625,-96.3125,1.9375,-0.4985352,-0.7055664,-0.2978516,0.2641602,0.1376953,0.0390625
1675,57.4375,-59.4375,23.5625,-0.4208984,-0.5966797,-0.2553711,0.2651367,0.1386719,0.02832031
1679,56.6875,-30.1875,36.4375,-0.6533203,-0.4375,-0.2167969,0.269043,0.1362305,0.02001953
1683,46.3125,-48.5,14.5,-1.075684,-0.4140625,-0.07470703,0.2700195,0.1347656,0.01855469
1687,33.75,-88.25,-12.3125,-0.9672852,-0.3911133,-0.08203125,0.2700195,0.1347656,0.009277344
1691,23.625,-93.6875,-18.625,-0.6342773,-0.4414063,-0.1245117,0.2709961,0.1376953,0.002441406
1695,21.4375,-76.25,-2.4375,-0.4091797,-0.503418,-0.2363281,0.2700195,0.1362305,-0.00390625
1699,21.5,-45.5625,11.375,-0.2231445,-0.5151367,-0.3554688,0.2724609,0.1376953,-0.01367188
1703,22.625,-12.5625,23.0625,-0.1147461,-0.4804688,-0.4555664,0.2749023,0.1337891,-0.01464844
1707,14,21.6875,30.6875,-0.1533203,-0.4101563,-0.5053711,0.2749023,0.1337891,-0.01611328
1711,7.125,32.5,20.5,-0.3242188,-0.4570313,-0.574707,0.2749023,0.1323242,-0.01464844
1715,4.625,27.0625,-5.8125,-0.2270508,-0.4296875,-0.6938477,0.2758789,0.1313477,-0.01220703
1719,-8,42.25,-23.25,-0.1342773,-0.3598633,-0.7670898,0.2749023,0.1313477,-0.01220703
1723,-26.125,67.5,-27.5,-0.1767578,-0.3676758,-0.840332,0.2749023,0.1323242,-0.005371094
1727,-44.4375,95.9375,-23.375,-0.2387695,-0.3989258,-0.8632813,0.2709961,0.1362305,0.0009765625
1731,-59.875,126.375,-16.625,-0.296875,-0.4492188,-0.8862305,0.2709961,0.1347656,0.01074219
1735,-68.5625,154.5,-12.75,-0.3974609,-0.534668,-0.9091797,0.2675781,0.1362305,0.02685547
1739,-68.5,179.6875,-13.0625,-0.5175781,-0.6552734,-0.9248047,0.2641602,0.1376953,0.04199219
1743,-60.0625,194.6875,-28.4375,-0.699707,-0.7719727,-0.9130859,0.2583008,0.1376953,0.05664063
1747,-59.125,195.5625,-54.6875,-0.8432617,-0.6474609,-1.013184,0.2519531,0.1401367,0.07568359
1751,-85.5,201.25,-69.9375,-0.9169922,-0.5620117,-1.090332,0.2402344,0.1425781,0.09326172
1755,-118.75,212.0625,-65,-1.106934,-0.6396484,-1.101563,0.2329102,0.1435547,0.1069336
1759,-140.4375,222.75,-41.125,-1.191895,-0.7871094,-1.117188,0.2202148,0.1435547,0.1303711
1763,-152.375,247.4375,-15.8125,-1.223145,-0.9272461,-1.117188,0.2070313,0.1362305,0.1547852
1767,-146.6875,261.9375,-5,-1.374023,-1.191406,-1.15918,0.1972656,0.1313477,0.1699219
1771,-111.3125,253.6875,-24,-1.393555,-1.381836,-1.125,0.1782227,0.1264648,0.1914063
1775,-93.375,259.6875,-40.5625,-1.292969,-1.074707,-1.209473,0.1606445,0.1186523,0.2133789
1780,-108.5,265.125,-41.9375,-1.436035,-0.9155273,-1.320801,0.1459961,0.1162109,0.2241211
1784,-130,256.9375,-25.875,-1.447754,-0.8222656,-1.38623,0.125,0.1098633,0.2431641
1788,-145.0625,265.5,7,-1.327637,-0.8496094,-1.478516,0.1020508,0.1000977,0.2568359
1792,-156.1875,287.3125,21.6875,-1.161133,-0.7368164,-1.528809,0.08691406,0.08984375,0.2661133
1796,-172.0625,291.1875,19.125,-1.23877,-0.6860352,-1.678711,0.05810547,0.07519531,0.28125
1800,-187.625,289.4375,8.125,-1.137695,-0.7407227,-1.694336,0.03417969,0.05761719,0.2919922
1804,-198.3125,294.875,1.4375,-0.9985352,-0.7446289,-1.729004,0.01269531,0.04492188,0.2988281
1808,-207.9375,312.3125,11.6875,-0.8007813,-0.7753906,-1.840332,-0.01269531,0.02490234,0.3032227
1812,-216.375,353.75,11.5625,-0.246582,-0.581543,-1.990234,-0.04736328,0.00390625,0.3071289
1816,-225.75,427.625,23,-0.3935547,-0.6513672,-2.147949,-0.07128906,-0.01074219,0.3056641
1820,-232.125,450.375,32.375,-0.9091797,-0.6083984,-2.178711,-0.1137695,-0.03076172,0.293457
1824,-222.625,432.0625,43.625,-1.246094,-0.7250977,-1.886719,-0.1542969,-0.05175781,0.2758789
1828,-198.3125,387.6875,34.0625,-1.475098,-0.7094727,-1.313477,-0.1782227,-0.06298828,0.2607422
1832,-160.1875,290.125,18.875,-1.544922,-0.8066406,-0.9516602,-0.2080078,-0.078125,0.2402344
1836,-114.875,220.9375,18.5625,-0.9946289,-0.8999023,-0.559082,-0.2280273,-0.08691406,0.2211914
1840,-67.3125,202.8125,43.5625,-0.5756836,-0.9233398,-0.378418,-0.2402344,-0.09082031,0.2104492
1844,-22.375,182,50.4375,-0.4482422,-0.6821289,-0.2475586,-0.253418,-0.09082031,0.1967773
1848,4.375,152.75,30.0625,-0.347168,-0.2666016,-0.0859375,-0.2626953,-0.08837891,0.1821289
1852,13.1875,119,8.5,-0.3974609,-0.1347656,-0.04736328,-0.2700195,-0.08544922,0.1723633
1856,18.0625,82.4375,-5.5625,-0.4091797,-0.006347656,0.01367188,-0.2758789,-0.08447266,0.1640625
1860,15.5,50.375,0.5625,-0.3354492,0.03222656,0.005859375,-0.2807617,-0.08544922,0.1601563
1864,14.875,31.625,14.0625,-0.1533203,-0.01416016,0.05566406,-0.2841797,-0.08544922,0.1601563
1868,24.5,19.9375,22.75,-0.01025391,-0.1152344,0.03271484,-0.2851563,-0.08203125,0.15625
1872,37.875,10.8125,24.1875,0.09375,-0.05664063,-0.02441406,-0.2851563,-0.07714844,0.1547852
1876,32.1875,-6.9375,10.125,0.08251953,0.1293945,-0.1782227,-0.2841797,-0.07421875,0.1547852
1880,14.625,-35.8125,-6.5625,0.09375,0.07080078,-0.2861328,-0.2866211,-0.07324219,0.15625
1884,13.125,-54.3125,-11.4375,0.2138672,-0.1269531,-0.2822266,-0.2827148,-0.07080078,0.1586914
1888,26.75,-62,-5.375,0.2568359,-0.2705078,-0.3398438,-0.2792969,-0.07324219,0.1630859
1892,43.9375,-64.5625,1.25,0.2724609,-0.2314453,-0.4013672,-0.2758789,-0.07177734,0.1699219
1896,51.625,-74.625,2.375,0.2607422,-0.1113281,-0.5283203,-0.2709961,-0.06689453,0.175293
1900,44.0625,-86.6875,-4.0625,0.1635742,-0.06445313,-0.5786133,-0.2685547,-0.06591797,0.1791992
1904,38.0625,-104.75,-8.8125,0.008789063,-0.1308594,-0.5551758,-0.2651367,-0.06298828,0.1860352
1909,44.625,-127,-7.0625,-0.1650391,-0.2705078,-0.4902344,-0.2568359,-0.06298828,0.1943359
1913,65.5,-150.1875,-4.9375,-0.3164063,-0.3520508,-0.4594727,-0.2509766,-0.05957031,0.2036133
1917,103.1875,-186.25,14,-0.230957,-0.6899414,-0.7207031,-0.2387695,-0.05566406,0.2158203
1921,139.5625,-183.8125,29,0.1367188,-0.4067383,-0.84375,-0.2255859,-0.04443359,0.2280273
1925,135.375,-173.75,32.6875,-0.1030273,-0.2626953,-1.005371,-0.2163086,-0.03466797,0.2348633
1929,113.625,-195.625,0.625,-0.3432617,-0.1308594,-1.009277,-0.203125,-0.02197266,0.2470703
1933,103.375,-246.5,-18.9375,-0.3974609,-0.3598633,-1.147949,-0.1865234,-0.01318359,0.2583008
1937,122.375,-270.5,-29.3125,-0.2041016,-0.503418,-1.125,-0.1699219,-0.008300781,0.2661133
1941,139.125,-272.0625,-0.5625,-0.4365234,-0.6279297,-1.232422,-0.1459961,0.002441406,0.2783203
1945,136.8125,-253.0625,19,-0.1611328,-0.503418,-1.282715,-0.1220703,0.01513672,0.2880859
1949,122.5625,-216.875,23.1875,-0.4130859,-0.5385742,-1.259277,-0.1079102,0.02246094,0.2895508
1953,125.75,-241.5625,28.6875,-0.4052734,-0.5268555,-1.455566,-0.08398438,0.03759766,0.2919922
1957,116.8125,-229.75,26.25,-0.2583008,-0.4335938,-1.351563,-0.06152344,0.04882813,0.293457
1961,105.75,-223.5,29.3125,-0.5722656,-0.5268555,-1.293945,-0.04589844,0.05761719,0.293457
1965,97.75,-229.3125,20.375,-0.765625,-0.5581055,-1.147949,-0.02490234,0.06396484,0.2919922
1969,83.125,-225.125,11.9375,-0.796875,-0.5737305,-1.020996,-0.0009765625,0.07373047,0.2895508
1973,79.8125,-232.875,6.875,-1.056641,-0.7563477,-0.9785156,0.01269531,0.08251953,0.2851563
1977,92.75,-244.5,25.5,-0.8974609,-0.9038086,-1.032227,0.03662109,0.08740234,0.2783203
1981,115.5625,-227.125,40.25,-0.7231445,-0.9116211,-1.013184,0.05712891,0.09619141,0.2714844
1985,122.125,-204.9375,48.375,-0.8588867,-0.8574219,-1.01709,0.07128906,0.1035156,0.2636719
1989,117.9375,-203.4375,43.5625,-1.12207,-0.8378906,-0.9824219,0.09277344,0.1123047,0.2539063
1993,107.625,-217.375,38.8125,-1.15332,-0.8027344,-1.028809,0.1118164,0.1210938,0.2416992
1997,100.3125,-229,27.1875,-1.172852,-0.8496094,-0.9594727,0.1235352,0.125,0.230957
2001,101.875,-235.6875,32.8125,-1.219238,-0.9506836,-0.9633789,0.1425781,0.1313477,0.2158203
2005,109.3125,-228.5625,54.6875,-1.029297,-0.9697266,-0.9980469,0.1630859,0.1347656,0.1967773
2009,104.0625,-206.1875,68.75,-0.8276367,-0.8647461,-1.117188,0.1748047,0.1376953,0.1889648
2013,90.875,-191.4375,58.1875,-0.8276367,-0.8105469,-1.101563,0.1904297,0.1386719,0.1699219
2017,75.625,-192.875,32.625,-0.862793,-0.7753906,-1.043945,0.2045898,0.1401367,0.1518555
2021,63.625,-190,16.75,-0.878418,-0.7563477,-0.9052734,0.2128906,0.1425781,0.1396484
2025,54.9375,-186.3125,12,-0.9711914,-0.7602539,-0.8745117,0.222168,0.1435547,0.1235352
2029,48,-178.75,22.3125,-0.9091797,-0.7055664,-0.8208008,0.2319336,0.1435547,0.1069336
2033,40.1875,-166.6875,28.3125,-0.9013672,-0.6860352,-0.7709961,0.2353516,0.1435547,0.09765625
2038,38.3125,-169.0625,13.375,-0.8818359,-0.7016602,-0.6669922,0.2436523,0.1435547,0.08251953
2042,35.1875,-170.1875,-6.875,-0.8085938,-0.6513672,-0.6245117,0.2485352,0.1425781,0.06640625
2046,21.4375,-165.8125,-17.4375,-0.8007813,-0.534668,-0.5361328,0.2519531,0.1450195,0.05419922
2050,12.1875,-156.875,-11.375,-0.7504883,-0.581543,-0.4555664,0.2558594,0.1450195,0.04443359
2054,14.5,-137.75,8.3125,-0.7617188,-0.6318359,-0.3706055,0.2558594,0.1474609,0.02978516
2058,20.3125,-122.0625,17,-0.6923828,-0.6240234,-0.2783203,0.2592773,0.1450195,0.02294922
2062,23.25,-114.1875,9.0625,-0.7270508,-0.5307617,-0.2822266,0.2641602,0.1450195,0.01171875
2066,16.625,-106,-9.375,-0.7929688,-0.5073242,-0.07861328,0.2651367,0.1450195,0.002441406
2070,15.9375,-109.375,-7.6875,-0.878418,-0.5385742,-0.06298828,0.2641602,0.1435547,-0.005371094
2074,12.8125,-98.625,7,-0.7348633,-0.4804688,-0.02832031,0.2651367,0.1450195,-0.01367188
2078,10.0625,-88.875,18.875,-0.7773438,-0.5463867,-0.001464844,0.2666016,0.1435547,-0.02441406
2082,13.9375,-86.875,18.6875,-0.765625,-0.5620117,0.04052734,0.2666016,0.1425781,-0.02832031
2086,17.6875,-84,1.375,-0.6728516,-0.565918,0.1020508,0.2675781,0.1411133,-0.03662109
2090,22.9375,-84.3125,-11.75,-0.7578125,-0.5854492,0.08251953,0.2666016,0.1425781,-0.04199219
2094,22.25,-79.5,-8.75,-0.6533203,-0.4804688,0.05957031,0.2666016,0.1425781,-0.05175781
2098,19.3125,-63.125,5.875,-0.5488281,-0.484375,0.001953125,0.2651367,0.1411133,-0.05859375
2102,19.0625,-45.625,14.375,-0.4750977,-0.5112305,-0.04003906,0.2666016,0.1411133,-0.06396484
2106,16.875,-22.1875,15.9375,-0.347168,-0.4453125,-0.1513672,0.2666016,0.1411133,-0.06542969
2110,2.125,2.4375,19.125,-0.3354492,-0.3442383,-0.3168945,0.269043,0.1362305,-0.06787109
2114,-18.75,16.75,13.3125,-0.296875,-0.3598633,-0.4707031,0.2675781,0.1362305,-0.06787109
2118,-24.75,27.75,3,-0.230957,-0.5927734,-0.6630859,0.2700195,0.1376953,-0.06542969
2122,-15.375,57.6875,-5.125,0.07080078,-0.6357422,-0.7978516,0.2700195,0.1347656,-0.06103516
2126,-13.5,114.375,-4.0625,0.08251953,-0.5737305,-0.9208984,0.2700195,0.1376953,-0.05419922
2130,-26.125,157.4375,-6.875,-0.1572266,-0.4609375,-1.028809,0.2700195,0.1386719,-0.04492188
2134,-57.3125,183.375,-11.625,-0.4521484,-0.3364258,-1.08252,0.2700195,0.1401367,-0.03125
2138,-100.875,184.625,-22.625,-0.7734375,-0.4453125,-1.047852,0.2675781,0.1411133,-0.01220703
2142,-120.5,169.9375,-44.1875,-0.8276367,-0.6708984,-0.9360352,0.2651367,0.1435547,0.004882813
2146,-127.25,187.75,-47.25,-0.7270508,-0.8686523,-0.840332,0.2602539,0.1425781,0.02392578
2150,-113.8125,216.125,-45.375,-0.78125,-1.043945,-0.7900391,0.253418,0.1474609,0.04736328
2154,-95.0625,262.125,-26.625,-0.878418,-1.040039,-0.7553711,0.2485352,0.1474609,0.06347656
2158,-87.5,303.1875,-2.4375,-1.009766,-0.8457031,-0.878418,0.2392578,0.1450195,0.09228516
2162,-105.1875,337.25,12.375,-1.331543,-0.7250977,-0.9672852,0.2246094,0.1425781,0.1206055
2167,-107,308.0625,-9,-1.936035,-1.129395,-0.878418,0.215332,0.1401367,0.1396484
2171,-75.3125,263.5,-22.6875,-1.599121,-1.160156,-0.7363281,0.199707,0.1362305,0.1640625
2175,-67.5,282.75,-3.5625,-1.300781,-0.8959961,-0.8745117,0.1806641,0.1337891,0.1821289
2179,-82.9375,291.875,19.9375,-1.374023,-0.5927734,-1.228516,0.1689453,0.1298828,0.1982422
2183,-133.875,295.875,35.1875,-1.351074,-0.3173828,-1.45166,0.1508789,0.1210938,0.2172852
2187,-188.1875,265.25,3.25,-1.796387,-0.5112305,-1.486328,0.128418,0.1098633,0.2392578
2191,-200.125,206.25,-38.625,-1.537109,-0.8496094,-1.305664,0.1166992,0.09863281,0.2514648
2195,-194.4375,243.1875,-10.9375,-1.029297,-1.070801,-1.174805,0.09521484,0.08398438,0.2675781
2199,-170,293.8125,19.25,-0.9326172,-1.020508,-1.38623,0.07226563,0.06640625,0.2827148
2203,-171.9375,336,48.4375,-0.9326172,-0.7792969,-1.578613,0.05224609,0.05517578,0.293457
2207,-189.9375,350.5,32.375,-1.331543,-0.7485352,-1.463379,0.02001953,0.03759766,0.2988281
2211,-178.125,273.1875,-12.125,-1.575684,-0.9467773,-1.378906,-0.01171875,0.01855469,0.3071289
2215,-158.8125,251.125,-12.1875,-0.9672852,-0.9428711,-1.140137,-0.02587891,0.004882813,0.3071289
2219,-125.0625,268.1875,12,-0.6264648,-0.8959961,-1.228516,-0.05322266,-0.008300781,0.3056641
2223,-101.4375,289.4375,36.375,-0.4555664,-0.5737305,-1.420898,-0.07958984,-0.01806641,0.3032227
2227,-108.9375,302.5625,50.5625,-0.4672852,-0.2939453,-1.540039,-0.09863281,-0.02587891,0.2973633
2231,-132.25,263.6875,-5.875,-0.4829102,-0.1035156,-1.532715,-0.1269531,-0.03466797,0.2895508
2235,-157.6875,229.375,-54.0625,-0.4868164,-0.3286133,-1.313477,-0.1484375,-0.04833984,0.2797852
2239,-141.5,212.625,-56.9375,-0.3510742,-0.550293,-1.125,-0.1616211,-0.05957031,0.2714844
2243,-131.125,222.5625,-42.5,-0.2661133,-0.324707,-1.101563,-0.1806641,-0.07568359,0.2592773
2247,-140.5,224.0625,-29.125,-0.5063477,-0.05664063,-0.9326172,-0.2006836,-0.08935547,0.2460938
2251,-146.1875,192.625,-12.9375,-0.8432617,-0.2861328,-0.5668945,-0.2114258,-0.09814453,0.2348633
2255,-121.75,147.625,-8.8125,-0.7504883,-0.5893555,0.009765625,-0.2236328,-0.1108398,0.2226563
2259,-53.75,99.6875,-7.25,-0.6416016,-0.9814453,0.3481445,-0.2319336,-0.1196289,0.2080078
2263,27.5625,68.5,-8,-0.2270508,-0.8300781,0.3945313,-0.237793,-0.1196289,0.206543
2267,76.0625,56.6875,-10,-0.1459961,-0.4648438,0.1479492,-0.2426758,-0.1166992,0.2036133
2271,89.8125,35.3125,-20.375,-0.1767578,0.02441406,-0.0859375,-0.2446289,-0.1132813,0.1982422
2275,72.9375,17.375,1.4375,-0.2001953,0.2963867,-0.2285156,-0.2446289,-0.1083984,0.2021484
2279,44.9375,1.9375,27.375,-0.1303711,0.3466797,-0.2553711,-0.2470703,-0.1054688,0.2011719
2283,21.5,-20.0625,35.1875,-0.1069336,0.1601563,-0.2363281,-0.2460938,-0.09814453,0.2021484
2287,20.3125,-41.1875,29.625,0.01269531,-0.1381836,-0.1708984,-0.2460938,-0.09716797,0.2036133
2291,41.5625,-55,21.875,0.2412109,-0.2548828,-0.3208008,-0.2426758,-0.09179688,0.2050781
2296,52.4375,-52.5625,18.125,0.3457031,-0.1035156,-0.5170898,-0.237793,-0.08544922,0.2104492
2300,40.6875,-54.75,9.875,0.2294922,0.07470703,-0.6323242,-0.2363281,-0.08447266,0.2143555
2304,23.8125,-71.625,3,0.0009765625,0.008789063,-0.6206055,-0.2319336,-0.07958984,0.21875
2308,18.8125,-91.75,1.5625,-0.07226563,-0.08789063,-0.5668945,-0.2270508,-0.078125,0.2241211
2312,29.6875,-117.75,5.5,-0.09130859,-0.2822266,-0.628418,-0.222168,-0.07714844,0.230957
2316,47.0625,-130.875,10.0625,-0.01806641,-0.3325195,-0.644043,-0.2128906,-0.07421875,0.237793
2320,60.0625,-135.3125,10.9375,-0.1186523,-0.3364258,-0.5976563,-0.203125,-0.07080078,0.2460938
2324,73,-151.125,5.1875,-0.3745117,-0.2470703,-0.5976563,-0.1962891,-0.06591797,0.2524414
2328,103.875,-176.375,10.75,-0.3125,-0.4609375,-0.7285156,-0.1831055,-0.05712891,0.2607422
2332,120,-187.4375,12.125,-0.3588867,-0.4882813,-0.894043,-0.1674805,-0.04833984,0.2705078
2336,148.25,-219.625,12.625,-0.1650391,-0.5776367,-1.132324,-0.1518555,-0.03955078,0.2783203
2340,163.5,-223.75,-3.625,0.04345703,-0.503418,-1.244141,-0.1352539,-0.02441406,0.2866211
2344,156,-191.375,-30.25,0.1831055,-0.371582,-1.178711,-0.1152344,-0.01171875,0.2919922
2348,146.0625,-186.8125,-57,-0.5214844,-0.3911133,-1.105469,-0.1030273,0,0.2949219
2352,138.5625,-205.5625,-35,-0.9091797,-0.5,-1.009277,-0.08642578,0.01123047,0.2973633
2356,144,-213.625,10.625,-0.9868164,-0.6938477,-0.9091797,-0.06494141,0.02392578,0.2988281
2360,158.125,-227.375,51.25,-0.699707,-0.6591797,-1.20166,-0.04980469,0.03369141,0.2988281
2364,143.5625,-213.0625,46.4375,-0.3320313,-0.4765625,-1.228516,-0.02490234,0.04882813,0.2973633
2368,119.25,-204.125,28.9375,-0.5102539,-0.6162109,-1.236328,-0.005859375,0.06103516,0.2919922
2372,109,-198.8125,13.3125,-0.7426758,-0.8066406,-1.01709,0.005859375,0.07275391,0.2910156
2376,116.875,-201.6875,14.8125,-1.005859,-0.9931641,-0.8632813,0.02587891,0.08251953,0.2851563
2380,136.0625,-206.6875,29.8125,-1.12207,-1.024414,-0.7822266,0.04736328,0.09375,0.2744141
2384,147.0625,-221.375,45.125,-1.118652,-0.8920898,-0.9672852,0.05712891,0.1010742,0.2675781
2388,134.1875,-226.6875,41.9375,-0.9130859,-0.7602539,-1.078613,0.08056641,0.1137695,0.2583008
2392,110.625,-224.625,35.5625,-0.9052734,-0.7871094,-1.117188,0.1020508,0.1210938,0.2431641
2396,100.25,-223.375,24.5,-0.9907227,-0.9272461,-1.001465,0.1142578,0.125,0.2348633
2400,107.8125,-227.4375,20.9375,-1.137695,-1.055176,-0.8823242,0.1342773,0.1313477,0.2202148
2404,122.25,-230.375,25.375,-1.172852,-1.102051,-0.809082,0.1508789,0.1411133,0.2021484
2408,130.6875,-227.25,39.6875,-1.199707,-1.05127,-0.859375,0.1606445,0.1435547,0.1889648
2412,115.5,-219.3125,45.8125,-1.118652,-0.8842773,-0.9287109,0.1782227,0.1489258,0.1699219
2416,94.1875,-219.375,32,-1.168945,-0.8535156,-0.9091797,0.1938477,0.1523438,0.1508789
2420,89.3125,-229.375,19.6875,-1.172852,-0.9233398,-0.8168945,0.203125,0.1547852,0.1396484
2425,91.625,-234.4375,16.4375,-1.12207,-0.9619141,-0.7475586,0.2138672,0.1577148,0.1166992
2429,97.0625,-227.625,23.9375,-0.9946289,-0.9350586,-0.6669922,0.2236328,0.1601563,0.09326172
2433,93,-214.5625,31.75,-1.009766,-0.8144531,-0.7324219,0.2319336,0.1586914,0.08007813
2437,67.375,-205.25,24.6875,-0.8935547,-0.7016602,-0.7631836,0.2392578,0.1601563,0.05664063
2441,40.75,-198.125,4.625,-0.9052734,-0.6669922,-0.7246094,0.2451172,0.1577148,0.04052734
2445,27.9375,-204.125,-11.8125,-0.9248047,-0.7524414,-0.6591797,0.2485352,0.1586914,0.03076172
2449,33.625,-207.625,-30.375,-0.8125,-0.8339844,-0.4785156,0.25,0.1625977,0.01171875
2453,48,-194.9375,-38.0625,-0.7192383,-0.8066406,-0.3901367,0.25,0.1635742,-0.00390625
2457,57.875,-167.3125,-20.3125,-0.6494141,-0.6860352,-0.324707,0.25,0.1660156,-0.01611328
2461,48.0625,-141.8125,-3.8125,-0.7578125,-0.4609375,-0.2089844,0.2485352,0.1674805,-0.03515625
2465,21.125,-139.125,-7.375,-0.7734375,-0.3793945,-0.2475586,0.25,0.1674805,-0.04736328
2469,0.25,-149.5,-25,-0.8085938,-0.453125,-0.109375,0.2475586,0.1674805,-0.05712891
2473,-7,-151.125,-31.8125,-0.6416016,-0.5112305,-0.02050781,0.2436523,0.1699219,-0.06933594
2477,1,-136.8125,-26.75,-0.5834961,-0.6977539,0.1020508,0.2402344,0.1713867,-0.07861328
2481,25.4375,-108.75,-8.9375,-0.4829102,-0.7949219,0.2402344,0.237793,0.1748047,-0.08544922
2485,50.75,-76.8125,10.125,-0.4829102,-0.7446289,0.2329102,0.2368164,0.1723633,-0.09375
2489,56.0625,-60,8.5625,-0.5991211,-0.5893555,0.2480469,0.234375,0.1699219,-0.1035156
2493,48.25,-63.625,4,-0.6767578,-0.4726563,0.1904297,0.2353516,0.1689453,-0.1098633
2497,29.9375,-70.875,4,-0.6342773,-0.3754883,0.1210938,0.2353516,0.1674805,-0.1166992
2501,12.625,-68.25,9.5,-0.4985352,-0.4492188,0.06738281,0.230957,0.1660156,-0.1225586
2505,8.4375,-52.4375,22.625,-0.328125,-0.5620117,-0.08984375,0.2329102,0.1660156,-0.125
2509,4.8125,-28.25,26.8125,-0.07617188,-0.5229492,-0.2783203,0.2319336,0.1635742,-0.1289063
2513,-2.625,5.9375,19.6875,-0.002441406,-0.4375,-0.4863281,0.2329102,0.1611328,-0.1333008
2517,-11.4375,41.375,20.625,0.08642578,-0.4335938,-0.7094727,0.2329102,0.1601563,-0.1318359
2521,-24.625,90.25,23.0625,0.1171875,-0.4179688,-0.8056641,0.2368164,0.1611328,-0.125
2525,-39.8125,132.375,20.375,-0.07617188,-0.4726563,-0.8286133,0.2426758,0.1586914,-0.1157227
2529,-53.5625,158.25,12.9375,-0.3164063,-0.5073242,-0.8364258,0.2436523,0.1577148,-0.1074219
2533,-74.375,170.75,-0.8125,-0.4985352,-0.503418,-0.8286133,0.2475586,0.1601563,-0.08984375
2537,-95,177.75,-16,-0.6572266,-0.6201172,-0.7709961,0.2485352,0.1611328,-0.07177734
2541,-110.5625,185.5625,-28.1875,-0.7695313,-0.7211914,-0.6821289,0.25,0.1625977,-0.05859375
2545,-116.6875,200,-28.625,-0.8198242,-0.8613281,-0.6362305,0.2485352,0.1650391,-0.03369141
2549,-120.75,230.5625,-15.25,-0.7773438,-0.8535156,-0.6245117,0.2451172,0.1699219,-0.01367188
2554,-126.125,267.8125,0.875,-0.9672852,-0.9428711,-0.6669922,0.2436523,0.1699219,0.006347656
2558,-121.75,279.6875,-3.3125,-1.351074,-1.15625,-0.6362305,0.2402344,0.1674805,0.03369141
2562,-107.3125,259.375,-26.75,-1.490234,-1.175781,-0.628418,0.2329102,0.1674805,0.06201172
2566,-115.9375,247.375,-46.4375,-1.459473,-0.9853516,-0.628418,0.2270508,0.1674805,0.07861328
2570,-138,243.375,-39,-1.556152,-1.032227,-0.6977539,0.215332,0.1660156,0.1030273
2574,-148.6875,249.1875,-19.8125,-1.370117,-1.102051,-0.7094727,0.2021484,0.1625977,0.1289063
2578,-147,282.5,13.875,-1.20752,-1.160156,-0.7861328,0.1928711,0.1577148,0.1479492
2582,-132.375,319.9375,38.375,-1.312012,-1.319336,-0.8364258,0.1772461,0.1489258,0.1723633
2586,-112.875,315.6875,18.125,-1.587402,-1.222656,-0.9169922,0.1591797,0.1401367,0.1953125
2590,-129.625,279.5625,-15.875,-1.734375,-0.9970703,-0.9824219,0.1450195,0.1347656,0.2119141
2594,-159.6875,232.9375,-37.625,-1.661133,-0.9311523,-0.9941406,0.1235352,0.1264648,0.2294922
2598,-183.75,208.375,-39.6875,-1.300781,-0.9853516,-0.9516602,0.1044922,0.1152344,0.2485352
2602,-194.3125,227.3125,-19.4375,-0.9790039,-1.02832,-0.9208984,0.09130859,0.1025391,0.2583008
2606,-193.4375,265.8125,8.4375,-0.746582,-0.9931641,-1.055664,0.06884766,0.08740234,0.2729492
2610,-193.625,308.75,29.6875,-0.7617188,-0.9931641,-1.186523,0.04492188,0.06738281,0.2851563
2614,-176.25,313.75,46,-0.9091797,-0.9853516,-1.33252,0.02587891,0.05517578,0.2949219
2618,-178.375,298.5625,39.5625,-0.8085938,-0.6669922,-1.44043,-0.003417969,0.03857422,0.300293
2622,-197.6875,281.6875,16.6875,-0.6611328,-0.4882813,-1.532715,-0.02929688,0.02001953,0.3032227
2626,-218.3125,272.8125,2.25,-0.5292969,-0.5463867,-1.640137,-0.04833984,0.006347656,0.3041992
2630,-222.8125,289.375,-1.0625,-0.3007813,-0.6435547,-1.628906,-0.07470703,-0.01464844,0.3032227
2634,-217.25,322.4375,-2.5625,-0.1572266,-0.6787109,-1.621094,-0.1054688,-0.03808594,0.2973633
2638,-201,346.75,-1.4375,-0.5175781,-0.8222656,-1.509277,-0.1269531,-0.05322266,0.2910156
2642,-172.5625,328.9375,-7.125,-0.847168,-0.8959961,-1.125,-0.1582031,-0.07177734,0.2729492
2646,-118.4375,281.875,-1.5,-0.9829102,-0.9467773,-0.7861328,-0.1855469,-0.08447266,0.2568359
2650,-54.125,241.375,15.125,-0.847168,-0.7832031,-0.394043,-0.1982422,-0.08935547,0.2446289
2654,-8.6875,204.0625,31.625,-0.6416016,-0.387207,-0.3901367,-0.215332,-0.09082031,0.230957
2658,-17.625,162.375,23.625,-0.5175781,0.140625,-0.4863281,-0.2329102,-0.08935547,0.21875
2662,-51,116.6875,6.6875,-0.3901367,0.1640625,-0.4052734,-0.2387695,-0.08935547,0.2104492
2666,-59.625,93,11.25,-0.3974609,-0.2163086,-0.1435547,-0.2460938,-0.09179688,0.2011719
2670,-22.625,70.6875,26.9375,-0.1459961,-0.402832,0.04443359,-0.2543945,-0.09570313,0.1967773
2674,8.25,61.1875,22.625,-0.03710938,-0.2470703,0.01367188,-0.2543945,-0.09423828,0.1914063
2678,16.5625,32.9375,5.9375,-0.06835938,-0.2124023,-0.05126953,-0.2592773,-0.09326172,0.1860352
2683,30.9375,5.1875,-9.75,0.05908203,-0.3017578,-0.1206055,-0.2592773,-0.09082031,0.1860352
2687,50.5,4,-5.3125,0.2797852,-0.2163086,-0.2207031,-0.2617188,-0.09082031,0.1860352
2691,52.75,6.5625,-0.4375,0.2607422,0.105957,-0.4360352,-0.2617188,-0.08691406,0.1860352
2695,23.375,-9.5,0.125,0.05517578,0.1601563,-0.5708008,-0.2617188,-0.08300781,0.1860352
2699,5.75,-27.8125,6.5625,0.2138672,-0.06445313,-0.5244141,-0.2602539,-0.08300781,0.1899414
2703,14.4375,-33.125,15.375,0.2177734,-0.2353516,-0.4477539,-0.2602539,-0.08203125,0.1914063
2707,31.1875,-49.75,13.5,0.2607422,-0.2705078,-0.4628906,-0.2553711,-0.07714844,0.1928711
2711,37.6875,-57.625,9.8125,0.1831055,-0.3481445,-0.5170898,-0.2553711,-0.078125,0.1953125
2715,55.75,-74.3125,11.625,0.2104492,-0.4570313,-0.5668945,-0.2509766,-0.07177734,0.2021484
2719,72.625,-75.4375,14.125,0.175293,-0.3520508,-0.5708008,-0.2446289,-0.06689453,0.206543
2723,79.8125,-93.1875,13.625,0.05126953,-0.2275391,-0.6977539,-0.2412109,-0.06298828,0.2119141
2727,81.3125,-116.375,7.0625,0.1171875,-0.1420898,-0.8364258,-0.2353516,-0.05712891,0.2202148
2731,72.9375,-126.8125,5.9375,0.03173828,-0.2314453,-0.8554688,-0.2270508,-0.04931641,0.2270508
2735,72,-130.1875,9.375,-0.2080078,-0.3286133,-0.6787109,-0.2197266,-0.046875,0.230957
2739,83,-150.0625,12.625,-0.6494141,-0.4257813,-0.5131836,-0.2080078,-0.04052734,0.2431641
2743,114.4375,-207.625,27.4375,-0.5527344,-0.6044922,-0.8286133,-0.1962891,-0.02929688,0.2524414
2747,140.5,-214.375,21.1875,0.3032227,-0.3793945,-1.094238,-0.1855469,-0.02197266,0.2607422
2751,119.6875,-167.125,23.1875,0.3457031,-0.2783203,-1.251953,-0.1665039,-0.009277344,0.2705078
2755,95.3125,-154,9,-0.1689453,-0.3017578,-1.140137,-0.1508789,0.002441406,0.2758789
2759,87.9375,-178.1875,10.5625,-0.4482422,-0.46875,-1.040039,-0.1401367,0.007324219,0.2783203
2763,96.5625,-196.4375,12.6875,-0.3164063,-0.6279297,-1.005371,-0.1235352,0.01611328,0.2851563
2767,124.25,-197.75,21.1875,0.1054688,-0.6860352,-1.217285,-0.1054688,0.02734375,0.2910156
2771,126.0625,-163.25,16.6875,0.1674805,-0.5966797,-1.286133,-0.09375,0.03759766,0.2910156
2775,111.625,-143.0625,18.875,-0.2700195,-0.6318359,-1.205566,-0.07568359,0.04980469,0.2919922
2779,99.125,-148.5,22.0625,-0.6494141,-0.7368164,-1.055664,-0.06298828,0.06005859,0.2910156
2783,99.8125,-173.4375,23.375,-0.6962891,-0.7753906,-1.024902,-0.05419922,0.06640625,0.2895508
2787,112.8125,-187.375,19.3125,-0.5102539,-0.8339844,-1.01709,-0.03662109,0.07617188,0.2880859
2791,125.125,-184.1875,20.3125,-0.4169922,-0.8417969,-1.163086,-0.01855469,0.08642578,0.2841797
2795,124.1875,-168.3125,19.9375,-0.3935547,-0.7680664,-1.20166,-0.006835938,0.09375,0.28125
2799,113.125,-163.875,17.75,-0.6962891,-0.7446289,-1.193848,0.01074219,0.1064453,0.2744141
2803,99.9375,-176,19.625,-0.9287109,-0.7910156,-1.063477,0.02490234,0.1152344,0.2661133
2807,98.5,-193.375,24.5625,-1.087402,-0.9155273,-0.9208984,0.03662109,0.1210938,0.2607422
2812,103.9375,-212.9375,28.75,-1.099121,-0.9619141,-0.9208984,0.05566406,0.1289063,0.2539063
2816,103.625,-216.75,25.8125,-0.9248047,-0.9272461,-0.9360352,0.07470703,0.1376953,0.2446289
2820,99.1875,-218.3125,25.1875,-0.8974609,-0.9272461,-0.9902344,0.08886719,0.1425781,0.2363281
2824,94.5625,-214.125,23.4375,-0.6689453,-0.9038086,-1.047852,0.1069336,0.1474609,0.2226563
2828,95.25,-205.5,18.9375,-0.7387695,-1.008789,-0.9902344,0.1225586,0.1538086,0.2104492
2832,106.875,-208.625,16.3125,-0.878418,-1.047363,-0.9169922,0.1333008,0.1601563,0.2011719
2836,121.4375,-214.125,19,-0.9013672,-1.121582,-0.8671875,0.1499023,0.1650391,0.1831055
2840,132.0625,-201.625,22.625,-0.6845703,-1.043945,-0.8364258,0.1640625,0.1699219,0.1640625
2844,138.75,-178.375,22.75,-0.6923828,-1.098145,-0.8056641,0.1699219,0.1762695,0.1518555
2848,132.4375,-167.5625,32.3125,-0.7270508,-0.7910156,-0.8286133,0.1806641,0.1787109,0.1328125
2852,97.5,-166.1875,30.25,-0.8007813,-0.6240234,-0.8515625,0.1904297,0.1835938,0.1123047
2856,71.9375,-172.0625,27.9375,-0.7504883,-0.7485352,-0.6977539,0.1972656,0.1835938,0.1044922
2860,73.875,-167.8125,28,-0.7504883,-0.9970703,-0.5322266,0.2055664,0.1850586,0.08691406
2864,92.625,-160.3125,25.125,-0.6689453,-0.9775391,-0.5014648,0.2128906,0.1860352,0.07421875
2868,99.625,-142.5,22.6875,-0.6962891,-0.8183594,-0.4707031,0.2163086,0.1850586,0.05810547
2872,93.6875,-149.375,13.875,-0.78125,-0.6083984,-0.5283203,0.2211914,0.1875,0.04296875
2876,70.4375,-144.75,14.5625,-0.6962891,-0.4765625,-0.4477539,0.2270508,0.1860352,0.02539063
2880,44.5625,-141,13.9375,-0.7851563,-0.5307617,-0.324707,0.2285156,0.1860352,0.01611328
2884,33.5625,-145.9375,6.6875,-0.7348633,-0.581543,-0.2631836,0.230957,0.1860352,0.006347656
2888,30.3125,-141.1875,-0.3125,-0.715332,-0.6474609,-0.1435547,0.2329102,0.1850586,-0.008300781
2892,30.125,-135.5625,1.1875,-0.730957,-0.6513672,-0.07861328,0.2319336,0.1860352,-0.01464844
2896,29.25,-128.1875,6.5,-0.6342773,-0.6240234,-0.06298828,0.2353516,0.1860352,-0.02734375
2900,20.625,-114.8125,16.1875,-0.7543945,-0.5966797,0.04443359,0.234375,0.1835938,-0.03955078
2904,16.5,-110.375,21.875,-0.7890625,-0.7250977,0.2597656,0.2353516,0.1850586,-0.04492188
2908,28,-108.1875,21.3125,-0.7387695,-0.8261719,0.3364258,0.2353516,0.1826172,-0.05566406
2912,44.625,-110.1875,13.5625,-0.6376953,-0.7988281,0.1943359,0.2353516,0.1811523,-0.06640625
2916,50.3125,-101.5625,9.8125,-0.378418,-0.6240234,-0.005371094,0.237793,0.1801758,-0.07177734
2920,42.125,-85.0625,11.4375,-0.28125,-0.5307617,-0.2089844,0.2368164,0.1772461,-0.08300781
2924,31.4375,-61,18.8125,-0.08398438,-0.484375,-0.34375,0.2353516,0.1738281,-0.08984375
2928,17.6875,-22.25,28.875,0.02441406,-0.421875,-0.4321289,0.2329102,0.1723633,-0.09667969
2932,-1.4375,19.1875,47.875,-0.09130859,-0.4101563,-0.4667969,0.2368164,0.1713867,-0.09765625
2936,-10.625,28.1875,39.875,-0.3432617,-0.5463867,-0.4902344,0.2426758,0.1674805,-0.09375
2941,-5.625,29.3125,10.6875,-0.1147461,-0.5854492,-0.5478516,0.2436523,0.1635742,-0.09375
2945,-9.3125,57.25,-3.6875,-0.02197266,-0.5229492,-0.6552734,0.2436523,0.1635742,-0.08837891
2949,-28.4375,93.25,-4.25,-0.01806641,-0.4335938,-0.7939453,0.2451172,0.1660156,-0.08300781
2953,-55.5625,127.4375,-6.6875,-0.02197266,-0.4492188,-0.8979492,0.2460938,0.1660156,-0.07617188
2957,-78.25,167,-7,-0.1650391,-0.6083984,-0.8901367,0.2460938,0.1699219,-0.06103516
2961,-93.375,198.8125,-6.4375,-0.3901367,-0.6474609,-0.8862305,0.2460938,0.1689453,-0.04345703
2965,-106.875,215.25,-19.3125,-0.730957,-0.8261719,-0.8364258,0.2475586,0.1699219,-0.02832031
2969,-104.4375,205.4375,-48.8125,-0.9208984,-0.9853516,-0.7670898,0.2460938,0.1723633,-0.005371094
2973,-107.375,207.25,-62,-0.9399414,-0.9580078,-0.7207031,0.237793,0.1762695,0.01708984
2977,-117.875,219.875,-58.125,-1.021484,-0.9311523,-0.7441406,0.2319336,0.1787109,0.03222656
2981,-134.3125,238.625,-33.25,-1.106934,-0.8881836,-0.7631836,0.222168,0.1801758,0.05810547
2985,-154.5625,268.9375,9.375,-1.215332,-0.8764648,-0.7939453,0.2128906,0.1787109,0.08251953
2989,-157.4375,268,20.375,-1.75,-1.226563,-0.7133789,0.2094727,0.1713867,0.1044922
2993,-121.6875,215.8125,-21.6875,-1.753906,-1.408691,-0.5517578,0.1972656,0.1674805,0.1303711
2997,-104.6875,207.875,-39.9375,-1.385742,-1.140625,-0.4863281,0.1865234,0.1625977,0.1494141
3001,-112.875,219.9375,-28.625,-1.424316,-0.9697266,-0.6206055,0.1757813,0.1601563,0.1630859
3005,-129.1875,228.125,0.625,-1.40918,-0.8999023,-0.7133789,0.1616211,0.1538086,0.1806641
3009,-140.9375,249.75,41.9375,-1.191895,-0.8647461,-0.7939453,0.1459961,0.1459961,0.2021484
3013,-137.6875,291.625,87.875,-1.118652,-0.9467773,-0.8862305,0.1367188,0.1376953,0.2143555
3017,-113.8125,299.5625,89.5625,-1.509766,-1.105957,-0.9438477,0.1186523,0.1235352,0.2348633
3021,-102.25,243.6875,22.125,-1.343262,-0.7016602,-1.063477,0.09960938,0.1137695,0.25
3025,-143.75,215.25,-20.875,-1.176758,-0.5151367,-1.113281,0.08691406,0.1064453,0.2568359
3029,-173,186.0625,-30.25,-1.041016,-0.6357422,-1.209473,0.06884766,0.09521484,0.2705078
3033,-181.625,192.625,-12.125,-0.7578125,-0.7988281,-1.209473,0.04980469,0.07763672,0.2827148
3037,-166.8125,224,22.0625,-0.6225586,-0.8842773,-1.20166,0.03808594,0.06640625,0.2910156
3041,-149,244.625,40.1875,-0.7734375,-0.7524414,-1.244141,0.01513672,0.05371094,0.2963867
3045,-153.875,218.0625,6.0625,-1.07959,-0.5620117,-1.263184,-0.005859375,0.03613281,0.3017578
3049,-174,142.3125,-53.1875,-0.847168,-0.4960938,-1.313477,-0.01855469,0.02490234,0.3041992
3053,-179.375,136.25,-58.5625,-0.28125,-0.7290039,-1.30957,-0.03320313,0.006347656,0.3071289
3057,-153.4375,189,-23.75,-0.05273438,-0.8574219,-1.297852,-0.04980469,-0.01171875,0.3071289
3061,-124.125,252,29.125,-0.2426758,-0.8613281,-1.301758,-0.06152344,-0.02197266,0.3056641
3065,-100,273.5,48,-0.5874023,-0.7172852,-1.186523,-0.08886719,-0.03320313,0.3017578
3070,-96.6875,246.125,18,-0.8237305,-0.453125,-0.9863281,-0.1137695,-0.04199219,0.293457
3074,-121.625,193.375,-14.4375,-0.9750977,-0.3637695,-0.7783203,-0.1293945,-0.04589844,0.2895508
3078,-125.6875,147.4375,-14.75,-0.7773438,-0.6708984,-0.3823242,-0.1450195,-0.05810547,0.2797852
3082,-84.375,129.4375,1,-0.4248047,-0.9775391,-0.05126953,-0.1582031,-0.06933594,0.2773438
3086,-12.8125,132.6875,21.6875,-0.2270508,-0.9853516,0.02099609,-0.1640625,-0.07324219,0.2705078
3090,44.125,124.0625,24.25,-0.1884766,-0.6279297,-0.0859375,-0.1772461,-0.07324219,0.2607422
3094,46.3125,95.3125,-3.5,-0.28125,0.02832031,-0.2670898,-0.1865234,-0.06689453,0.2553711
3098,0.75,46.875,-30.3125,-0.4711914,0.3505859,-0.2783203,-0.1914063,-0.06445313,0.2539063
3102,-33.4375,3.1875,-26.5625,-0.3393555,0.203125,-0.2514648,-0.1948242,-0.06591797,0.2524414
3106,-39.25,-9.75,-3.9375,-0.06445313,-0.2084961,-0.2055664,-0.1938477,-0.07177734,0.2553711
3110,-5.4375,-9.8125,9.8125,0.1171875,-0.5424805,-0.1323242,-0.1923828,-0.07177734,0.2514648
3114,37.0625,-4.0625,15.875,0.1557617,-0.5,-0.1401367,-0.1938477,-0.07324219,0.2514648
3118,64.625,-6.75,13.875,0.01269531,-0.3134766,-0.2089844,-0.1923828,-0.06689453,0.2524414
3122,68.8125,-27.625,14.625,-0.1689453,-0.1230469,-0.3168945,-0.1914063,-0.06054688,0.2524414
3126,57.5625,-57.625,6.1875,-0.1884766,0.0009765625,-0.4628906,-0.1889648,-0.05712891,0.2568359
3130,45,-80.4375,7.375,-0.1303711,-0.1269531,-0.5361328,-0.184082,-0.05078125,0.2592773
3134,48.1875,-90.8125,9.5,0.04345703,-0.2509766,-0.5976563,-0.1772461,-0.046875,0.2636719
3138,49.9375,-85.125,17.625,-0.1225586,-0.3056641,-0.5478516,-0.1699219,-0.04296875,0.2705078
3142,66.625,-109.375,20.125,-0.2851563,-0.4960938,-0.6552734,-0.1625977,-0.03710938,0.2729492
3146,84,-115.5625,15.125,-0.1689453,-0.4101563,-0.5825195,-0.1567383,-0.03320313,0.2744141
3150,93.0625,-140.1875,9.1875,-0.4750977,-0.4609375,-0.7783203,-0.1450195,-0.02441406,0.2827148
3154,96.25,-157.0625,-1.8125,-0.2504883,-0.2978516,-0.8168945,-0.1293945,-0.01464844,0.2866211
3158,83.5,-162.6875,1.9375,-0.5644531,-0.3911133,-0.840332,-0.1210938,-0.008300781,0.2919922
3162,87.875,-187.625,2.375,-0.5449219,-0.519043,-0.9052734,-0.1044922,0,0.293457
3166,95.625,-196,-7.75,-0.4521484,-0.6513672,-0.8901367,-0.08642578,0.006347656,0.2988281
3170,116,-203.875,-18.6875,-0.3666992,-0.7016602,-0.9746094,-0.07324219,0.01513672,0.2988281
3174,125.3125,-188.5625,-16.4375,-0.4750977,-0.7446289,-0.9208984,-0.05664063,0.02636719,0.300293
3178,130.8125,-184.0625,4.5,-0.7504883,-0.7133789,-0.9248047,-0.03515625,0.04003906,0.300293
3182,126.6875,-186.875,32.9375,-0.847168,-0.5854492,-0.9360352,-0.02490234,0.04638672,0.2988281
3186,114.875,-199.5,40,-0.6806641,-0.5073242,-1.178711,-0.005859375,0.06005859,0.2949219
3190,93.125,-200.6875,24.4375,-0.5683594,-0.5620117,-1.170898,0.01660156,0.06982422,0.2895508
3194,84.9375,-203.125,14.4375,-0.6376953,-0.7563477,-1.19043,0.02734375,0.07617188,0.2880859
3199,89.9375,-193.6875,13.5625,-0.6689453,-0.8999023,-1.121094,0.04736328,0.08398438,0.2797852
3203,103.625,-190.375,10.6875,-0.6108398,-0.8300781,-1.197754,0.06542969,0.09130859,0.2714844
3207,102.75,-177.875,12.875,-0.6884766,-0.7832031,-1.205566,0.07861328,0.09619141,0.2675781
3211,95.125,-173.6875,13.9375,-0.8857422,-0.7641602,-1.121094,0.09375,0.1064453,0.2568359
3215,86.6875,-174.625,14.9375,-1.025391,-0.7753906,-0.9863281,0.1079102,0.1137695,0.2470703
3219,78.9375,-183.1875,15.1875,-1.15332,-0.8300781,-0.8710938,0.1176758,0.1176758,0.237793
3223,79,-197.375,15.9375,-1.095215,-0.8725586,-0.8823242,0.1333008,0.1225586,0.2280273
3227,81.125,-196,11.4375,-0.878418,-0.8725586,-0.8671875,0.1484375,0.1274414,0.2119141
3231,86.25,-185.25,10.8125,-0.8974609,-0.9038086,-0.8823242,0.1582031,0.1298828,0.2036133
3235,85.1875,-176.25,9,-0.9672852,-0.8183594,-0.8671875,0.1699219,0.1337891,0.1899414
3239,78.3125,-175.875,7,-1.137695,-0.7949219,-0.7749023,0.1821289,0.1411133,0.175293
3243,74,-184.375,5,-1.165039,-0.8183594,-0.6938477,0.1904297,0.1411133,0.1640625
3247,75.5,-188.75,6.3125,-1.087402,-0.8144531,-0.6362305,0.199707,0.1459961,0.1508789
3251,74.4375,-184.625,7.125,-1.060547,-0.7832031,-0.59375,0.2094727,0.1489258,0.1328125
3255,67.6875,-180,7.75,-1.005859,-0.7602539,-0.6015625,0.2163086,0.1489258,0.1191406
3259,62.625,-171.625,10.9375,-0.9907227,-0.7680664,-0.5668945,0.2246094,0.1523438,0.105957
3263,62.8125,-165.9375,10.5,-0.9946289,-0.7719727,-0.5014648,0.230957,0.1523438,0.08935547
3267,64.375,-163.25,9.4375,-1.099121,-0.7524414,-0.3862305,0.2368164,0.15625,0.07861328
3271,67.4375,-166.125,12.375,-1.067871,-0.6977539,-0.378418,0.2426758,0.1547852,0.06347656
3275,59.3125,-159.3125,16,-0.9287109,-0.6005859,-0.4282227,0.2475586,0.1547852,0.04589844
3279,46.0625,-150.9375,18.9375,-0.9013672,-0.5229492,-0.378418,0.2509766,0.1538086,0.03759766
3283,36.125,-149.5625,13.875,-0.8935547,-0.5893555,-0.324707,0.2543945,0.1538086,0.02001953
3287,41.3125,-139.9375,16.1875,-0.8549805,-0.6977539,-0.1708984,0.2558594,0.1523438,0.0078125
3291,53.4375,-138,11.9375,-0.9790039,-0.6821289,-0.04736328,0.2568359,0.1513672,0
3295,51.125,-147.4375,1,-1.149414,-0.5385742,0.07519531,0.2617188,0.1523438,-0.01611328
3299,31.625,-166.4375,0,-1.048828,-0.3793945,0.02490234,0.2617188,0.1523438,-0.03271484
3303,13.125,-165.5625,12.8125,-0.78125,-0.4414063,-0.005371094,0.2602539,0.1499023,-0.04052734
3307,18.0625,-144.6875,31.1875,-0.6689453,-0.7094727,0.09423828,0.2617188,0.1489258,-0.05419922
3311,47,-125.1875,42.8125,-0.6225586,-0.8378906,0.1826172,0.2641602,0.1459961,-0.06542969
3315,72.25,-114.75,39.125,-0.5991211,-0.7719727,0.04443359,0.2641602,0.1435547,-0.07763672
3319,79.125,-99.25,34.0625,-0.3974609,-0.534668,-0.1708984,0.2641602,0.1386719,-0.09082031
3323,66.625,-86,31.875,-0.2929688,-0.3911133,-0.3823242,0.2641602,0.1323242,-0.1020508
3328,46.75,-66.6875,30.8125,-0.1420898,-0.3520508,-0.4863281,0.2651367,0.1313477,-0.1088867
3332,27.5625,-40.5625,32.25,-0.03320313,-0.324707,-0.6401367,0.2626953,0.1264648,-0.1181641
3336,8.8125,-7.3125,32.625,0.04736328,-0.387207,-0.628418,0.2651367,0.1225586,-0.1181641
3340,0,25.6875,31.0625,0.03564453,-0.5,-0.6323242,0.2651367,0.1210938,-0.1225586
3344,0.375,58.625,24.8125,0.05126953,-0.5268555,-0.6748047,0.2700195,0.1186523,-0.1181641
3348,-2.75,90.75,13,-0.02197266,-0.46875,-0.7207031,0.2724609,0.1162109,-0.112793
3352,-23.3125,112.3125,-5.125,-0.2001953,-0.2939453,-0.8017578,0.2749023,0.1162109,-0.105957
3356,-61.4375,126.9375,-20.5625,-0.3510742,-0.2045898,-0.8364258,0.2773438,0.1186523,-0.09228516
3360,-99.25,136.6875,-28.8125,-0.5410156,-0.3017578,-0.7861328,0.2773438,0.1210938,-0.07861328
3364,-122.6875,152.125,-31,-0.6225586,-0.5268555,-0.6513672,0.2773438,0.125,-0.06640625
3368,-122.9375,174.875,-28.25,-0.7504883,-0.8183594,-0.5322266,0.2758789,0.1289063,-0.04492188
3372,-100,196.8125,-29.625,-0.8393555,-0.9814453,-0.4282227,0.2724609,0.1313477,-0.02294922
3376,-80.4375,218.4375,-31.3125,-0.9672852,-0.8959961,-0.4707031,0.2700195,0.1337891,-0.006835938
3380,-89.5,225.8125,-35.9375,-1.23877,-0.5966797,-0.628418,0.2651367,0.1376953,0.01318359
3384,-128.1875,221.25,-35.9375,-1.401367,-0.5229492,-0.6977539,0.2602539,0.1376953,0.0390625
3388,-159.8125,213.4375,-33.4375,-1.533203,-0.8066406,-0.6362305,0.2568359,0.1376953,0.05664063
3392,-150.625,196.5,-41.0625,-1.513672,-1.214844,-0.4516602,0.2475586,0.1376953,0.08007813
3396,-126.125,206.3125,-32.625,-1.351074,-1.203125,-0.394043,0.2392578,0.1376953,0.1015625
3400,-111.1875,230.5625,-8.1875,-1.405273,-1.129395,-0.4516602,0.2319336,0.1347656,0.1181641
3404,-106.9375,247,19.5625,-1.405273,-0.9233398,-0.559082,0.2211914,0.1298828,0.1425781
3408,-120.5625,237.625,19.8125,-1.625977,-0.8417969,-0.7055664,0.2094727,0.1225586,0.1655273
3412,-126.625,196.8125,-6.375,-1.614258,-0.9272461,-0.7475586,0.2011719,0.1162109,0.1777344
3416,-127.875,185.875,-13.75,-1.312012,-1.000977,-0.6860352,0.1865234,0.1088867,0.1953125
3420,-112.5625,196.0625,3.125,-1.315918,-1.109863,-0.7094727,0.1748047,0.1010742,0.2133789
3424,-90.125,203.75,19.0625,-1.203613,-1.047363,-0.8515625,0.1640625,0.09619141,0.2226563
3428,-79.875,223.4375,30.125,-0.9985352,-0.8457031,-1.05957,0.1484375,0.08886719,0.237793
3432,-94.1875,232.8125,37.5625,-1.063965,-0.6201172,-1.378906,0.1308594,0.08105469,0.2524414
3436,-128.0625,232.5,26.8125,-0.8706055,-0.5,-1.482422,0.1186523,0.07373047,0.262207
3440,-147.3125,244.25,22.8125,-0.8125,-0.6977539,-1.467285,0.09863281,0.06103516,0.2744141
3444,-131.1875,250.125,20.9375,-0.8588867,-0.9658203,-1.405762,0.07617188,0.04638672,0.2841797
3448,-101.1875,258.375,11.3125,-0.7348633,-0.8300781,-1.420898,0.06152344,0.04150391,0.2895508
3452,-104.6875,275.5625,9.875,-0.7929688,-0.6005859,-1.543945,0.03662109,0.03027344,0.300293
3457,-145.25,271.875,-13.9375,-0.9169922,-0.3950195,-1.602051,0.009277344,0.01611328,0.3056641
3461,-186,262.5625,-22,-0.9091797,-0.453125,-1.459473,-0.0078125,0.006347656,0.3085938
3465,-200.5625,262.0625,-18.5625,-1.145508,-0.8183594,-1.205566,-0.03417969,-0.01171875,0.3110352
3469,-180.875,260.375,-9.1875,-0.9829102,-0.8920898,-0.9555664,-0.06152344,-0.03173828,0.3085938
3473,-152.25,246.5625,-0.4375,-0.9248047,-0.9311523,-0.7822266,-0.07714844,-0.04443359,0.3041992
3477,-129.3125,235.625,1.5,-0.9013672,-0.8496094,-0.4594727,-0.1010742,-0.05566406,0.300293
3481,-105.1875,201.5625,-4.6875,-0.7426758,-0.5385742,-0.2631836,-0.1235352,-0.07177734,0.2910156
3485,-99.1875,170.1875,-3.5,-0.8745117,-0.4453125,-0.09375,-0.1342773,-0.078125,0.2851563
3489,-71.375,123.75,8.5625,-0.8935547,-0.7133789,0.1748047,-0.1494141,-0.08447266,0.2773438
3493,-11.4375,91.3125,26.625,-0.3549805,-0.6513672,0.2133789,-0.1591797,-0.08935547,0.2729492
3497,19.625,81.0625,24.5,-0.1572266,-0.1459961,-0.009277344,-0.1650391,-0.08837891,0.2675781
3501,1.1875,57.3125,9.9375,-0.3164063,0.08251953,-0.1245117,-0.1723633,-0.08300781,0.2661133
3505,-3,20.6875,-3.5,-0.1923828,-0.09960938,-0.06298828,-0.1757813,-0.08447266,0.262207
3509,18.125,14.75,4.0625,-0.01025391,-0.1577148,-0.08203125,-0.1757813,-0.08447266,0.2636719
3513,23.4375,9.8125,10.25,-0.1147461,0.02832031,-0.1245117,-0.1772461,-0.08203125,0.2636719
3517,23.5,-19.4375,11.8125,-0.2773438,-0.09570313,-0.1821289,-0.1757813,-0.08056641,0.262207
3521,39.125,-31.625,21.875,-0.02197266,-0.3056641,-0.1015625,-0.1757813,-0.07714844,0.2661133
3525,63.5625,-39.1875,26.0625,0.04345703,-0.2705078,-0.2783203,-0.1723633,-0.07177734,0.2651367
3529,70.5625,-47.5625,23.625,0.05908203,-0.1035156,-0.4555664,-0.1699219,-0.06445313,0.2675781
3533,57.3125,-58.5,21.9375,-0.07226563,-0.06054688,-0.5014648,-0.1650391,-0.06054688,0.2705078
3537,51.0625,-74.4375,24.0625,-0.3164063,-0.2241211,-0.3862305,-0.1625977,-0.05322266,0.2758789
3541,55,-97.5625,28.125,-0.6186523,-0.3017578,-0.2978516,-0.1542969,-0.04833984,0.2783203
3545,69.375,-145.375,28.3125,-0.6533203,-0.355957,-0.4936523,-0.1459961,-0.04443359,0.2841797
3549,72,-164.5625,23.1875,-0.4633789,-0.3598633,-0.5209961,-0.1342773,-0.03710938,0.2880859
3553,80.0625,-186.125,23.9375,-0.5024414,-0.5151367,-0.7709961,-0.1162109,-0.02685547,0.2919922
3557,86.75,-184.25,21.75,-0.4169922,-0.5385742,-0.7094727,-0.1030273,-0.02050781,0.2949219
3561,97.0625,-193.125,24.9375,-0.6108398,-0.5854492,-0.8325195,-0.08642578,-0.01074219,0.300293
3565,105.3125,-198.75,27.75,-0.715332,-0.6513672,-0.7749023,-0.06738281,-0.001953125,0.3041992
3569,124,-224.625,18.8125,-0.746582,-0.6821289,-0.9980469,-0.05419922,0.006347656,0.3041992
3573,126.125,-235.0625,6.625,-0.7036133,-0.6240234,-1.128418,-0.03173828,0.02001953,0.3032227
3577,119.8125,-241.3125,-2.5,-0.4985352,-0.519043,-1.301758,-0.006835938,0.03125,0.3056641
3581,99.0625,-218.5625,4.0625,-0.5874023,-0.5620117,-1.182617,0.008300781,0.03857422,0.300293
3586,90.875,-203.5,30.4375,-0.9633789,-0.6938477,-1.040039,0.02832031,0.04882813,0.2963867
3590,88.625,-214.6875,43.25,-1.187988,-0.7641602,-0.9672852,0.04980469,0.05615234,0.2919922
3594,92.0625,-235,39,-1.044922,-0.7910156,-1.063477,0.06396484,0.06103516,0.2851563
3598,95.5625,-240.875,21.9375,-0.8706055,-0.9272461,-1.113281,0.08886719,0.06884766,0.2729492
3602,106.0625,-224.6875,10.3125,-0.8046875,-0.9467773,-1.113281,0.1103516,0.07617188,0.2651367
3606,114.3125,-207.125,14.25,-1.056641,-0.9116211,-1.024902,0.1225586,0.08398438,0.2553711
3610,114,-206.875,24.25,-1.289063,-0.7910156,-0.9326172,0.1391602,0.09228516,0.2416992
3614,106.5625,-214.8125,32.0625,-1.413086,-0.7871094,-0.894043,0.1591797,0.09765625,0.2255859
3618,98.875,-234.375,29.25,-1.439941,-0.7792969,-0.9091797,0.1689453,0.1035156,0.2158203
3622,94.25,-241.5,22.625,-1.312012,-0.8339844,-0.8671875,0.1879883,0.1074219,0.1967773
3626,95.375,-240.5,16.8125,-1.227051,-0.8574219,-0.84375,0.203125,0.1123047,0.1777344
3630,94.4375,-230,17.125,-1.149414,-0.8496094,-0.8168945,0.2138672,0.1137695,0.1640625
3634,95,-225.375,16.375,-1.219238,-0.8686523,-0.7900391,0.2270508,0.1176758,0.1425781
3638,98.4375,-224.5,19.125,-1.195801,-0.8105469,-0.7363281,0.2392578,0.1201172,0.1206055
3642,88.1875,-216.5625,21.5,-1.091309,-0.7055664,-0.7514648,0.2460938,0.1225586,0.1044922
3646,74.9375,-210.125,18.125,-1.083496,-0.6977539,-0.7363281,0.2543945,0.1235352,0.08398438
3650,68.875,-204.375,16.1875,-1.048828,-0.7133789,-0.6669922,0.2626953,0.1235352,0.06494141
3654,67.6875,-201.75,9.9375,-1.021484,-0.7133789,-0.628418,0.269043,0.1225586,0.05126953
3658,61.4375,-195.125,4.5625,-0.9907227,-0.6938477,-0.609375,0.2734375,0.1225586,0.02978516
3662,58.25,-180.25,2.9375,-0.9287109,-0.6899414,-0.4975586,0.2758789,0.1210938,0.01171875
3666,50.0625,-167.25,-5.375,-0.9711914,-0.5424805,-0.3632813,0.2758789,0.1225586,0
3670,37.5625,-166.1875,-8.8125,-1.052734,-0.4414063,-0.3012695,0.2783203,0.125,-0.01611328
3674,19.75,-174.875,-11.9375,-1.029297,-0.3833008,-0.2285156,0.2783203,0.125,-0.03369141
3678,11.625,-173.3125,-11.25,-0.8745117,-0.484375,-0.1206055,0.2773438,0.1235352,-0.04345703
3682,17.125,-167,-8.9375,-0.9287109,-0.6513672,0.06347656,0.2749023,0.1264648,-0.05859375
3686,38.875,-157.4375,-5.875,-0.8237305,-0.7211914,0.2597656,0.2758789,0.1264648,-0.07470703
3690,57.875,-129.4375,3,-0.7231445,-0.6474609,0.5136719,0.2724609,0.1264648,-0.08447266
3694,83.9375,-115.9375,18.5625,-0.8818359,-0.7368164,0.5019531,0.2709961,0.1235352,-0.1005859
3698,98.4375,-107.3125,25.8125,-0.7348633,-0.4921875,0.4365234,0.2709961,0.1210938,-0.112793
3702,92.6875,-100.3125,31.25,-0.6767578,-0.3793945,0.1674805,0.2700195,0.1152344,-0.1225586
3706,75.5,-99.625,24.4375,-0.5292969,-0.2587891,-0.09375,0.2666016,0.1088867,-0.1357422
3710,48.875,-89.75,15.75,-0.2661133,-0.1889648,-0.2978516,0.2651367,0.1064453,-0.1484375
3715,22.0625,-60.9375,19.0625,-0.1186523,-0.2548828,-0.4438477,0.2651367,0.1049805,-0.1508789
3719,0.625,-22.125,31.75,0.004882813,-0.3056641,-0.5361328,0.2626953,0.1010742,-0.1591797
3723,-12.875,14.4375,35.5625,-0.05664063,-0.4335938,-0.559082,0.2641602,0.09765625,-0.1577148
3727,-13.5,33.25,21,-0.1923828,-0.534668,-0.559082,0.2666016,0.09619141,-0.15625
3731,-17,49.625,0.125,-0.08398438,-0.4101563,-0.6552734,0.269043,0.09619141,-0.1538086
3735,-37.5,81.0625,-8.625,-0.05273438,-0.324707,-0.7285156,0.2709961,0.09765625,-0.1484375
3739,-61.4375,114.1875,-8.0625,-0.1728516,-0.340332,-0.7709961,0.2734375,0.1000977,-0.1386719
3743,-84.4375,147.5625,-7.125,-0.2387695,-0.3833008,-0.7631836,0.2749023,0.1035156,-0.1264648
3747,-96.4375,167.25,-18.1875,-0.5292969,-0.5,-0.7475586,0.2783203,0.1064453,-0.105957
3751,-101.25,172.25,-40.6875,-0.6962891,-0.6162109,-0.7094727,0.2807617,0.1098633,-0.09521484
3755,-100,186.8125,-47.375,-0.765625,-0.7250977,-0.6479492,0.2817383,0.1162109,-0.07324219
3759,-98.6875,215.3125,-41.1875,-0.8164063,-0.7368164,-0.6401367,0.2792969,0.1225586,-0.05175781
3763,-97.8125,247.4375,-28.125,-0.9711914,-0.8105469,-0.6362305,0.2783203,0.1235352,-0.03271484
3767,-95.5,268,-22.8125,-1.242188,-0.7563477,-0.6899414,0.2749023,0.1264648,-0.006835938
3771,-114.875,261.125,-36.25,-1.57959,-0.6552734,-0.7324219,0.2700195,0.1274414,0.02001953
3775,-139.125,232.4375,-51.0625,-1.788574,-0.7133789,-0.6821289,0.2675781,0.1298828,0.03759766
3779,-156.6875,217.75,-42.9375,-1.761719,-0.8686523,-0.5629883,0.2583008,0.1298828,0.06640625
3783,-157.9375,225.3125,-13,-1.687988,-0.9697266,-0.559082,0.25,0.1298828,0.08935547
3787,-155.5625,254.1875,20.9375,-1.533203,-0.9077148,-0.6787109,0.2426758,0.125,0.1069336
3791,-157.0625,294.75,45.3125,-1.614258,-0.9580078,-0.7670898,0.2329102,0.1162109,0.1357422
3795,-138.1875,302.375,51.75,-1.916504,-1.11377,-0.7709961,0.21875,0.1064453,0.1640625
3799,-115.625,289.375,47.625,-1.885742,-0.9814453,-0.7822266,0.2094727,0.09863281,0.1821289
3803,-113.3125,276.6875,35.0625,-1.881836,-0.8574219,-0.809082,0.1928711,0.08740234,0.206543
3807,-105,246.375,20,-1.839355,-0.9077148,-0.8476563,0.1738281,0.07861328,0.2255859
3811,-97.1875,248.75,27.1875,-1.370117,-0.7753906,-0.9018555,0.1606445,0.07373047,0.237793
3815,-98.5625,269.75,47,-1.227051,-0.6938477,-1.117188,0.144043,0.06494141,0.2553711
3819,-109.75,293.6875,57.875,-1.025391,-0.5268555,-1.240234,0.1210938,0.05517578,0.2675781
3823,-129.25,322.875,73.0625,-1.063965,-0.4921875,-1.30957,0.1020508,0.04492188,0.2783203
3827,-137.375,320.875,68.1875,-1.35498,-0.565918,-1.228516,0.07373047,0.03027344,0.2895508
3831,-137.9375,274.625,45.125,-1.374023,-0.5581055,-1.224609,0.04492188,0.01513672,0.300293
3835,-142.125,257.875,32.9375,-1.041016,-0.4921875,-1.144043,0.02832031,0.007324219,0.3056641
3839,-145.9375,263.625,33.0625,-0.831543,-0.4648438,-1.19043,0.005859375,-0.008300781,0.3100586
3844,-144.125,271,47.375,-0.7695313,-0.4179688,-1.278809,-0.02099609,-0.0234375,0.3085938
3848,-149.6875,295.875,54.1875,-0.4750977,-0.1889648,-1.20166,-0.04003906,-0.03173828,0.3110352
3852,-161.75,310.75,72.875,-0.6494141,-0.2006836,-1.305664,-0.06884766,-0.046875,0.3085938
3856,-167.0625,310.625,71.875,-0.7387695,-0.2822266,-1.228516,-0.1010742,-0.06201172,0.2973633
3860,-165.0625,279.5625,69.0625,-0.7075195,-0.3754883,-1.251953,-0.1210938,-0.07177734,0.2910156
3864,-150.375,245.8125,46.3125,-0.4555664,-0.5776367,-1.086426,-0.1459961,-0.08203125,0.2783203
3868,-119.9375,241.875,24.25,-0.1962891,-0.7446289,-0.8710938,-0.1665039,-0.09423828,0.2636719
3872,-81.5,249.9375,13.8125,-0.1108398,-0.581543,-0.7670898,-0.1831055,-0.09960938,0.2568359
3876,-72,237.375,-6.1875,-0.4790039,-0.1269531,-0.7094727,-0.2021484,-0.1044922,0.2402344
3880,-91.875,179.875,-15.5625,-0.831543,0.08642578,-0.6630859,-0.21875,-0.1118164,0.2255859
3884,-107,127,-0.125,-0.730957,-0.06445313,-0.3706055,-0.2246094,-0.1157227,0.2172852
3888,-80.25,92.5,24.8125,-0.4633789,-0.5,-0.08203125,-0.2353516,-0.1220703,0.2050781
3892,-17.75,73.125,37.4375,-0.2080078,-0.7524414,0.105957,-0.2412109,-0.1254883,0.1967773
3896,48.5625,53.375,28.625,-0.04101563,-0.5893555,0.07128906,-0.2436523,-0.1230469,0.1953125
3900,78.375,32.75,1.0625,0.04345703,-0.04541016,-0.109375,-0.2485352,-0.1181641,0.1953125
3904,56.8125,4.1875,-16.0625,-0.2348633,0.284668,-0.3398438,-0.2495117,-0.1142578,0.1928711
3908,26.3125,-22.875,-6.0625,-0.02587891,0.4013672,-0.2900391,-0.2485352,-0.1118164,0.1943359
3912,13.5625,-25.5,18.3125,0.1015625,0.1176758,-0.3051758,-0.2485352,-0.1083984,0.1953125
3916,5.375,-23.1875,37.0625,0.1484375,-0.02978516,-0.2978516,-0.2470703,-0.1083984,0.199707
3920,12.5625,-38.375,35.3125,0.1484375,-0.2275391,-0.3359375,-0.2470703,-0.1044922,0.199707
3924,26.9375,-48.875,22.5625,0.2529297,-0.2900391,-0.3515625,-0.2426758,-0.1005859,0.2050781
3928,44.1875,-61.375,11.1875,0.1635742,-0.3134766,-0.4321289,-0.2387695,-0.09716797,0.2080078
3932,52.125,-78.375,-1.25,0.03173828,-0.1850586,-0.4707031,-0.237793,-0.09423828,0.2119141
3936,51.9375,-102.0625,-9.625,-0.1420898,-0.2006836,-0.5708008,-0.2304688,-0.08935547,0.2211914
3940,60.3125,-121.6875,-15.375,-0.02197266,-0.1420898,-0.644043,-0.2236328,-0.08935547,0.2280273
3944,62,-133.875,-6.75,-0.07226563,-0.2202148,-0.7822266,-0.2163086,-0.08544922,0.2324219
3948,72.875,-139.1875,-0.125,0.09375,-0.2666016,-0.7861328,-0.2045898,-0.08056641,0.2431641
3952,81.25,-139.875,8.3125,-0.06445313,-0.3950195,-0.8286133,-0.1938477,-0.07421875,0.2514648
3956,105.75,-149.0625,1.3125,0.140625,-0.4257813,-0.8862305,-0.1855469,-0.06933594,0.2553711
3960,108.75,-146,-11.5,-0.02978516,-0.3637695,-0.9555664,-0.1748047,-0.05810547,0.2651367
3964,118.125,-164.9375,-24.75,0.01269531,-0.3950195,-1.086426,-0.1601563,-0.05078125,0.2714844
3968,129.0625,-166.4375,-25.25,0.1674805,-0.3833008,-1.224609,-0.1508789,-0.04443359,0.2758789
3973,126.25,-147,-22.625,0.1445313,-0.2861328,-1.236328,-0.1352539,-0.03173828,0.2851563
3977,105.25,-138.75,-17.6875,-0.28125,-0.2202148,-1.144043,-0.1220703,-0.02197266,0.2895508
3981,84.3125,-156.375,-20.25,-0.6147461,-0.3286133,-0.9672852,-0.1137695,-0.01708984,0.293457
3985,91.0625,-191.5,-23.625,-0.6416016,-0.565918,-0.9594727,-0.09960938,-0.008300781,0.2973633
3989,121.5625,-207.3125,-20.8125,-0.3320313,-0.6787109,-1.128418,-0.078125,0.001464844,0.3032227
3993,136.875,-182.6875,-16.5,-0.1650391,-0.534668,-1.251953,-0.06640625,0.008789063,0.3017578
3997,119.5625,-151.75,-13.1875,-0.4633789,-0.387207,-1.217285,-0.04980469,0.02148438,0.3017578
4001,92.25,-163,-18.8125,-0.9633789,-0.3286133,-1.05957,-0.03320313,0.03369141,0.3017578
4005,78,-198.6875,-17.375,-1.215332,-0.5229492,-0.9555664,-0.02490234,0.03857422,0.2988281
4009,91.625,-236.125,-15.5625,-0.9130859,-0.6357422,-0.9980469,-0.005859375,0.04492188,0.2988281
4013,108.625,-229,-14.3125,-0.6767578,-0.6474609,-1.117188,0.01904297,0.05517578,0.293457
4017,106.8125,-208.75,-11.125,-0.7387695,-0.5385742,-1.121094,0.03173828,0.06103516,0.2919922
4021,92.4375,-203.75,-8.875,-0.9711914,-0.5,-1.117188,0.05078125,0.07128906,0.2841797
4025,80.8125,-212.5625,-3.6875,-1.12207,-0.6083984,-1.043945,0.06982422,0.08105469,0.2744141
4029,87.8125,-229.375,-1.5625,-0.9091797,-0.6201172,-1.090332,0.08300781,0.08398438,0.2705078
4033,92.6875,-218,7.3125,-0.8935547,-0.6162109,-1.086426,0.1020508,0.09228516,0.2568359
4037,90.1875,-217.4375,11.8125,-1.056641,-0.5927734,-1.147949,0.1210938,0.09863281,0.2460938
4041,74.5,-214.625,14.4375,-1.044922,-0.534668,-1.109375,0.1333008,0.1049805,0.237793
4045,56,-210.6875,11.375,-0.9829102,-0.5073242,-1.040039,0.1499023,0.1074219,0.2226563
4049,45.3125,-214,9.4375,-1.071777,-0.5854492,-0.9707031,0.1665039,0.1088867,0.2089844
4053,43.375,-221.125,10.0625,-0.9868164,-0.6279297,-0.9360352,0.1757813,0.1123047,0.2021484
4057,52.125,-227,1.3125,-1.009766,-0.7871094,-0.8862305,0.1914063,0.1152344,0.1860352
4061,64.4375,-225.75,-7.8125,-0.847168,-0.7407227,-0.8710938,0.2055664,0.1162109,0.1708984
4065,67.125,-207.0625,-2.75,-0.862793,-0.7172852,-0.8017578,0.215332,0.1201172,0.1572266
4069,65.25,-195.0625,1.0625,-0.8588867,-0.6201172,-0.7402344,0.2246094,0.125,0.1381836
4073,58.8125,-185.625,4.5625,-0.9711914,-0.6162109,-0.6748047,0.234375,0.1235352,0.1235352
4077,48.6875,-190.875,-2.125,-1.103027,-0.7133789,-0.6977539,0.2402344,0.1264648,0.1123047
4081,46.625,-202.5,-22.5,-1.195801,-0.8339844,-0.5014648,0.2460938,0.1298828,0.09326172
4085,55.1875,-212.75,-40.875,-1.025391,-0.8535156,-0.394043,0.2519531,0.1313477,0.07568359
4089,65.0625,-183.6875,-28,-0.796875,-0.8535156,-0.2783203,0.2543945,0.1347656,0.06201172
4093,80.125,-150.5625,2.75,-0.8007813,-0.8535156,-0.2978516,0.2592773,0.1376953,0.04589844
4097,93.125,-124.9375,26.8125,-0.7695313,-0.7832031,-0.3476563,0.2592773,0.1401367,0.02832031
4102,97.8125,-110.75,37.3125,-0.8125,-0.7133789,-0.3325195,0.2641602,0.1376953,0.01708984
4106,98.625,-110.8125,25.3125,-0.8198242,-0.581543,-0.309082,0.269043,0.1347656,0.00390625
4110,85.5,-122.75,0.6875,-0.9130859,-0.4414063,-0.2631836,0.2709961,0.1337891,-0.009277344
4114,61.4375,-134.1875,-4.9375,-1.056641,-0.46875,-0.1708984,0.2724609,0.1337891,-0.02050781
4118,42.125,-146.0625,1.5,-0.9750977,-0.4882813,-0.06689453,0.2724609,0.1337891,-0.03369141
4122,30.625,-147.125,4.75,-0.9208984,-0.565918,0.06347656,0.2709961,0.1337891,-0.05175781
4126,32.25,-148.75,5.125,-0.7578125,-0.5966797,0.05175781,0.2700195,0.1323242,-0.06103516
4130,35.5,-133,-8.5,-0.6342773,-0.6318359,0.1982422,0.2700195,0.1323242,-0.07470703
4134,49.875,-132.9375,-20.6875,-0.847168,-0.8535156,0.2368164,0.2666016,0.1337891,-0.08544922
4138,54.75,-123.4375,-25.6875,-0.6416016,-0.5424805,0.3212891,0.2641602,0.1347656,-0.09667969
4142,43.875,-100.3125,-17.625,-0.7426758,-0.4609375,0.4941406,0.2626953,0.1347656,-0.1088867
4146,32.25,-97.0625,-10.9375,-0.8164063,-0.4609375,0.5288086,0.2583008,0.1347656,-0.1181641
4150,29.0625,-96.0625,-3.75,-0.6264648,-0.503418,0.4018555,0.2568359,0.1337891,-0.1235352
4154,29.3125,-78,-0.125,-0.3706055,-0.4765625,0.2597656,0.253418,0.1337891,-0.1333008
4158,34.1875,-56.3125,2.4375,-0.2661133,-0.4960938,0.05957031,0.2509766,0.1313477,-0.1425781
4162,35.0625,-38.8125,0.125,-0.2543945,-0.4101563,-0.08203125,0.25,0.1313477,-0.1469727
4166,25.0625,-26.75,-3.1875,-0.2890625,-0.3637695,-0.1166992,0.2475586,0.1313477,-0.1508789
4170,10.875,-12.0625,2.1875,-0.2270508,-0.3095703,-0.112793,0.2475586,0.1298828,-0.1508789
4174,-7.0625,12.125,12.3125,-0.215332,-0.2822266,-0.1206055,0.2485352,0.1289063,-0.1538086
