Packet number,Gyroscope X (deg/s),Gyroscope Y (deg/s),Gyroscope Z (deg/s),Accelerometer X (g),Accelerometer Y (g),Accelerometer Z (g),Magnetometer X (G),Magnetometer Y (G),Magnetometer Z (G)
0,-1.25,0.875,-0.625,-0.9399414,0.02832031,-0.4746094,0.2509766,-0.01074219,0.1831055
4,-3,-4.0625,-1.25,-0.9438477,0.0009765625,-0.4516602,0.2519531,-0.01074219,0.1831055
8,-1.75,-4.4375,0.9375,-0.9013672,-0.02978516,-0.4555664,0.2509766,-0.009277344,0.1821289
12,0.875,-1.3125,3.5,-0.8706055,-0.06445313,-0.4667969,0.2519531,-0.01074219,0.1821289
16,3.4375,2.4375,4.75,-0.8857422,-0.06445313,-0.4863281,0.2543945,-0.01171875,0.1806641
20,3.875,4.625,3.4375,-0.8818359,-0.06054688,-0.5170898,0.2519531,-0.01171875,0.1821289
24,1.9375,4.6875,-0.4375,-0.8935547,-0.07226563,-0.5551758,0.2509766,-0.01171875,0.1831055
28,1.25,5.5,-4.125,-0.878418,-0.1269531,-0.6015625,0.2519531,-0.01171875,0.1831055
32,5.0625,10.9375,-4.375,-0.8588867,-0.1733398,-0.6479492,0.2519531,-0.01171875,0.1821289
36,7.75,18.8125,-4.75,-0.847168,-0.1733398,-0.6787109,0.2519531,-0.01074219,0.1845703
40,8.125,26.4375,-7,-0.8549805,-0.1499023,-0.7363281,0.2509766,-0.009277344,0.1860352
44,8.25,31,-10.1875,-0.8745117,-0.2084961,-0.8017578,0.2485352,-0.006835938,0.1875
48,15.3125,32.75,-14.9375,-0.8046875,-0.2783203,-0.9399414,0.2460938,-0.009277344,0.1928711
52,25,42.5,-20.6875,-0.6225586,-0.3442383,-1.166992,0.2451172,-0.005859375,0.1914063
56,36.75,69.875,-32.0625,-0.5332031,-0.3442383,-1.282715,0.2412109,-0.003417969,0.1943359
60,45.25,95.4375,-39.75,-0.6264648,-0.2666016,-1.447754,0.234375,0.00390625,0.2011719
64,35.8125,123.0625,-48.8125,-0.5952148,0.0009765625,-1.532715,0.2285156,0.008789063,0.2050781
68,0.9375,154.8125,-52.1875,-0.6728516,0.1640625,-1.571289,0.21875,0.01367188,0.2143555
72,-32.75,178.8125,-47.4375,-0.8125,0.08251953,-1.571289,0.2045898,0.01611328,0.2255859
76,-47.8125,200.6875,-38.1875,-0.8198242,-0.1538086,-1.520996,0.1938477,0.01757813,0.2348633
81,-37.875,217.0625,-38.25,-0.7929688,-0.3520508,-1.475098,0.1772461,0.01513672,0.2470703
85,-9.125,234.0625,-37.5625,-0.8276367,-0.484375,-1.482422,0.1557617,0.01611328,0.262207
89,4.625,258,-49.8125,-0.8125,-0.1459961,-1.482422,0.1425781,0.01757813,0.2705078
93,-29.5,276.625,-62.625,-0.9985352,0.2299805,-1.621094,0.1166992,0.02148438,0.2797852
97,-94.875,280.0625,-62.1875,-1.180664,0.3466797,-1.709473,0.09130859,0.01855469,0.293457
101,-129.0625,283.5,-39.125,-1.133789,-0.09570313,-1.63623,0.07226563,0.01269531,0.2988281
105,-100.25,304.6875,-10.6875,-0.7387695,-0.4414063,-1.540039,0.04248047,-0.0004882813,0.3041992
109,-49.75,352.4375,4.4375,-0.7231445,-0.5112305,-1.574707,0.01074219,-0.008300781,0.3100586
113,-15.5625,390.5625,7.625,-0.6767578,-0.2202148,-1.717285,-0.01416016,-0.01074219,0.3100586
117,-17.375,409.6875,2.8125,-0.8935547,-0.2626953,-1.913574,-0.05664063,-0.009277344,0.3071289
121,-27.4375,406.25,-17.625,-0.9013672,-0.06835938,-1.871094,-0.09375,-0.01171875,0.2988281
125,-36.5625,395.625,-25.1875,-0.8510742,-0.02197266,-1.759766,-0.1220703,-0.01464844,0.2910156
129,-39.5625,380.4375,-16.0625,-1.157227,-0.09570313,-1.501953,-0.1567383,-0.02050781,0.2744141
133,-41.6875,340.625,-7.625,-1.20752,0.05908203,-1.090332,-0.1914063,-0.02197266,0.2583008
137,-46.5625,289.0625,15.5,-1.095215,0.04003906,-0.824707,-0.206543,-0.02441406,0.2431641
141,-46.9375,257.625,23.375,-0.8354492,0.02050781,-0.3706055,-0.2304688,-0.02685547,0.2280273
145,-52.9375,212.625,23.625,-0.9672852,-0.02197266,-0.02441406,-0.2460938,-0.02929688,0.206543
149,-40.875,138.5625,26.5,-0.8935547,-0.2744141,0.2866211,-0.2553711,-0.02929688,0.199707
153,1.3125,81.5,27.4375,-0.4907227,-0.4726563,0.6098633,-0.2636719,-0.02832031,0.1889648
157,47.4375,43.625,22.25,-0.2504883,-0.4140625,0.5751953,-0.2675781,-0.02832031,0.1831055
161,64.75,11.9375,11.6875,-0.1030273,-0.2163086,0.3637695,-0.2685547,-0.0234375,0.1831055
165,61,-14.25,-5.875,0.0009765625,-0.04541016,0.2636719,-0.2700195,-0.01806641,0.1845703
169,60.5625,-36.1875,-7.4375,0.03955078,-0.09179688,0.1289063,-0.2661133,-0.015625,0.1831055
173,66.1875,-49.3125,4,0.1015625,-0.04882813,0.02490234,-0.2651367,-0.01464844,0.1845703
177,62.6875,-60,15.3125,0.1171875,0.04003906,-0.1166992,-0.2636719,-0.006835938,0.1889648
181,46,-74.4375,20.5625,0.07470703,0.008789063,-0.2246094,-0.2592773,-0.001953125,0.1928711
185,35.25,-94.1875,18.0625,0.09033203,-0.1459961,-0.3515625,-0.2519531,0,0.1953125
189,30.4375,-109.3125,3.75,0.190918,-0.1577148,-0.4477539,-0.2485352,0.00390625,0.2050781
193,24.4375,-126.375,-6.6875,0.008789063,-0.2163086,-0.5170898,-0.2412109,0.006347656,0.2133789
197,25.0625,-149.5625,-20.1875,-0.02978516,-0.2548828,-0.4785156,-0.2329102,0.006347656,0.2172852
201,42,-173.875,-13.4375,-0.215332,-0.5581055,-0.574707,-0.222168,0.006347656,0.2280273
205,79.6875,-183.3125,-3.1875,-0.08398438,-0.5229492,-0.574707,-0.2104492,0.01269531,0.2392578
210,99.8125,-190.8125,8.6875,-0.3935547,-0.3676758,-0.6362305,-0.1982422,0.01513672,0.2431641
214,92.8125,-222.375,-9.875,-0.6533203,-0.006347656,-0.6206055,-0.1831055,0.02392578,0.2539063
218,69.25,-269.25,-21.3125,-1.013672,-0.05273438,-0.7592773,-0.1625977,0.03027344,0.2651367
222,76.375,-315.9375,-9.4375,-0.9091797,-0.3950195,-0.9438477,-0.1459961,0.03125,0.2744141
226,100.875,-315.3125,14.25,-0.7114258,-0.484375,-0.9707031,-0.1176758,0.04150391,0.2841797
230,115.625,-296.5625,35.125,-0.9248047,-0.4067383,-0.9208984,-0.08642578,0.04980469,0.2910156
234,107.5625,-309,33.1875,-1.339355,-0.1074219,-0.9863281,-0.06884766,0.05859375,0.2919922
238,77.75,-340.5625,24.6875,-1.54834,-0.03369141,-1.094238,-0.03759766,0.06884766,0.293457
242,43.25,-365.5,30.1875,-1.544922,-0.04882813,-1.221191,-0.001953125,0.07519531,0.2919922
246,26.4375,-368.625,44.4375,-1.436035,-0.3056641,-1.193848,0.02148438,0.07617188,0.2880859
250,33.375,-350.375,71.9375,-1.339355,-0.5229492,-1.228516,0.05810547,0.07763672,0.2827148
254,44.9375,-330.75,75.4375,-1.420898,-0.5385742,-1.221191,0.09277344,0.08007813,0.2705078
258,41.8125,-333.75,52.625,-1.494141,-0.355957,-1.274902,0.1142578,0.08007813,0.2607422
262,28.25,-337.875,24.9375,-1.711426,-0.3134766,-1.125,0.1425781,0.08007813,0.2460938
266,21.9375,-342.125,36.3125,-1.924316,-0.4179688,-1.125,0.1723633,0.08105469,0.2270508
270,26.25,-343.0625,58.0625,-1.785156,-0.5,-1.128418,0.1904297,0.08007813,0.2133789
274,26.375,-318.5,83.1875,-1.645508,-0.4882813,-1.205566,0.2177734,0.07617188,0.1899414
278,24.4375,-309.9375,71.9375,-1.742188,-0.4726563,-1.205566,0.237793,0.07275391,0.1655273
282,18.875,-305.625,55.5625,-1.719238,-0.4067383,-1.147949,0.2509766,0.06738281,0.1479492
286,8.3125,-293,50,-1.699707,-0.371582,-1.078613,0.2700195,0.06396484,0.1235352
290,-1.25,-285.875,48.75,-1.727051,-0.387207,-0.9941406,0.2832031,0.05859375,0.09765625
294,-4.75,-277.75,53.1875,-1.665039,-0.3911133,-0.9287109,0.2915039,0.05615234,0.08007813
298,-2.9375,-259.9375,61.875,-1.463379,-0.4179688,-0.9169922,0.3007813,0.04980469,0.05664063
302,-2.6875,-234.3125,65,-1.331543,-0.3637695,-0.9052734,0.309082,0.04248047,0.02978516
306,-7.9375,-221.75,58.3125,-1.195801,-0.340332,-0.9980469,0.3139648,0.03759766,0.01611328
310,-14.5,-197.75,52.75,-0.9633789,-0.355957,-1.01709,0.3188477,0.03271484,-0.002441406
314,-22.1875,-170.1875,44.5625,-0.730957,-0.371582,-1.174805,0.3212891,0.02490234,-0.02148438
318,-27.1875,-138.6875,28.125,-0.5371094,-0.484375,-1.236328,0.3198242,0.02392578,-0.03125
322,-20.5,-97.375,15.625,-0.3085938,-0.5737305,-1.328613,0.3198242,0.01757813,-0.04492188
326,-7.125,-42.625,2.5,-0.1225586,-0.6396484,-1.317383,0.3212891,0.01855469,-0.05029297
330,3.8125,14.5,-8.5,-0.1459961,-0.6123047,-1.371094,0.3212891,0.01855469,-0.05273438
334,0.0625,69.0625,-16.5,-0.1186523,-0.5073242,-1.405762,0.3222656,0.02148438,-0.04882813
339,-13.625,120.6875,-24.125,-0.230957,-0.4882813,-1.509277,0.3198242,0.02246094,-0.04052734
343,-29.8125,158.625,-48.5625,-0.4091797,-0.4921875,-1.471191,0.3173828,0.02392578,-0.03369141
347,-36.5625,186.75,-77.9375,-0.6455078,-0.6044922,-1.455566,0.3188477,0.03027344,-0.01220703
351,-30.25,218.8125,-94.3125,-0.7851563,-0.6899414,-1.401855,0.3139648,0.04003906,0.006347656
355,-11.9375,261.875,-92,-0.9516602,-0.7172852,-1.413086,0.309082,0.04638672,0.02148438
359,4.25,311.8125,-76.5625,-1.087402,-0.6201172,-1.382324,0.3032227,0.05371094,0.04882813
363,13.8125,364.5625,-56.6875,-1.351074,-0.5307617,-1.44043,0.2900391,0.0625,0.08007813
367,2.875,395.9375,-49.25,-1.67627,-0.2084961,-1.494141,0.2792969,0.06738281,0.1044922
371,-47.0625,382.875,-72.5625,-2.296387,-0.1191406,-1.432617,0.2617188,0.07275391,0.1357422
375,-81.5625,341.375,-89.625,-2.238281,-0.3208008,-1.217285,0.2353516,0.07617188,0.1669922
379,-89.9375,350.125,-65.4375,-2.013672,-0.5893555,-1.163086,0.2211914,0.07617188,0.1831055
383,-72.4375,386.0625,-33.5625,-1.967285,-0.7407227,-1.15918,0.1928711,0.07519531,0.2119141
387,-38.1875,403.6875,1.75,-2.09082,-0.8417969,-1.320801,0.1616211,0.07519531,0.2416992
391,11.1875,406.375,24.4375,-2.133789,-0.9506836,-1.424805,0.1416016,0.07128906,0.2514648
395,44.0625,408.5625,19.75,-1.932129,-0.6435547,-1.528809,0.1079102,0.07373047,0.269043
399,23.6875,418.3125,-8.4375,-1.812012,-0.2587891,-1.674805,0.07128906,0.07861328,0.28125
403,-21.875,414.9375,-29.625,-1.963379,-0.2353516,-1.778809,0.04394531,0.07861328,0.2851563
407,-52.625,388.5625,-34.0625,-1.912598,-0.3676758,-1.705566,0.003417969,0.07861328,0.2910156
411,-56.75,368.4375,-23.5625,-1.668457,-0.519043,-1.578613,-0.03417969,0.07275391,0.2895508
415,-41.375,367.625,-9.3125,-1.37793,-0.6279297,-1.498047,-0.05810547,0.06884766,0.2895508
419,-19.8125,376.25,5.6875,-1.07959,-0.4804688,-1.551758,-0.09228516,0.06738281,0.2851563
423,-43,397.375,-17.0625,-0.9208984,-0.08398438,-1.459473,-0.1259766,0.06494141,0.2714844
427,-95.5,377,-56.625,-1.172852,0.1254883,-1.409668,-0.1518555,0.06005859,0.262207
431,-153,327.75,-81,-1.389648,-0.01416016,-1.040039,-0.184082,0.04736328,0.2485352
435,-164.3125,261.0625,-64.75,-1.312012,-0.3793945,-0.6132813,-0.2114258,0.03125,0.2324219
439,-122.125,221.375,-30.5625,-0.9477539,-0.6318359,-0.03613281,-0.2255859,0.02001953,0.2241211
443,-63.875,207.5625,2.1875,-0.6416016,-0.565918,0.3291016,-0.2402344,0.01123047,0.2119141
447,-20.0625,185.4375,16.8125,-0.5605469,-0.3208008,0.425293,-0.2543945,0.006347656,0.1967773
451,-7.625,144.6875,7.625,-0.6147461,-0.04541016,0.5634766,-0.2592773,0.007324219,0.1889648
455,-16.0625,80.875,-11.0625,-0.6533203,0.09423828,0.6791992,-0.2685547,0.007324219,0.1777344
459,-20.6875,16.3125,-11.1875,-0.5756836,-0.09179688,0.7211914,-0.2724609,0.004882813,0.175293
463,0.1875,-25.6875,5.3125,-0.2700195,-0.2666016,0.6943359,-0.2724609,0.00390625,0.1738281
468,30.6875,-48.0625,27.9375,-0.1030273,-0.3481445,0.5595703,-0.2700195,0.004882813,0.1777344
472,52.4375,-65.0625,40.5,0.02050781,-0.3017578,0.3789063,-0.2661133,0.01269531,0.1806641
476,62.875,-85,35.5625,0.04736328,-0.2666016,0.2250977,-0.2626953,0.01757813,0.1845703
480,66.9375,-107.4375,23.5625,-0.002441406,-0.2626953,0.144043,-0.2553711,0.02246094,0.1899414
484,76.25,-136.625,13.25,-0.1342773,-0.2939453,-0.03222656,-0.2460938,0.02734375,0.1982422
488,81.25,-158.625,14.9375,-0.2890625,-0.2705078,-0.1401367,-0.2412109,0.03271484,0.2036133
492,82.875,-186.3125,22.875,-0.4248047,-0.2241211,-0.2939453,-0.2294922,0.04003906,0.2119141
496,73.5625,-211.75,20.875,-0.6147461,-0.1381836,-0.3286133,-0.2128906,0.04882813,0.2255859
500,68,-254.125,31.9375,-0.8354492,-0.3833008,-0.6171875,-0.2045898,0.05126953,0.2324219
504,79.625,-285.75,32.8125,-0.6533203,-0.4375,-0.6630859,-0.1831055,0.06005859,0.2460938
508,86.6875,-298.5,26.4375,-0.746582,-0.4296875,-0.7822266,-0.1582031,0.06884766,0.2568359
512,94.5,-314.75,16.75,-1.005859,-0.3286133,-0.894043,-0.1376953,0.07519531,0.2651367
516,78.4375,-338.375,12.1875,-1.257813,-0.1577148,-1.086426,-0.1103516,0.08105469,0.2714844
520,51.5625,-361.0625,25.5625,-1.475098,-0.1577148,-1.186523,-0.07714844,0.08886719,0.2773438
524,38.125,-394.125,54.625,-1.567871,-0.3637695,-1.420898,-0.05322266,0.09228516,0.28125
528,35.5,-394,76.6875,-1.165039,-0.4804688,-1.424805,-0.01513672,0.09765625,0.2827148
532,33.375,-357.1875,75.875,-1.083496,-0.4882813,-1.336426,0.0234375,0.09765625,0.28125
536,28.875,-331.25,47.5,-1.285156,-0.3481445,-1.248047,0.04736328,0.09765625,0.2758789
540,9.3125,-328.6875,24.75,-1.687988,-0.2163086,-1.213379,0.07958984,0.09863281,0.2651367
544,-8.125,-358.5625,25.375,-2.137695,-0.4179688,-1.282715,0.109375,0.09765625,0.2553711
548,2.25,-393.6875,51.3125,-1.866211,-0.6123047,-1.336426,0.1318359,0.09619141,0.2470703
552,21.6875,-363.875,75.1875,-1.455566,-0.6748047,-1.186523,0.1665039,0.09228516,0.2255859
556,33.6875,-320.375,76.5625,-1.595215,-0.534668,-1.105469,0.1948242,0.08886719,0.2050781
560,17.75,-316.9375,53.5,-2.056152,-0.3793945,-1.055664,0.2119141,0.08886719,0.1899414
564,-1,-348.6875,29,-2.269531,-0.453125,-0.9672852,0.2329102,0.08251953,0.1655273
568,-1.875,-379.375,14.6875,-2.238281,-0.5698242,-0.8745117,0.2519531,0.08251953,0.1396484
572,15,-384.5625,18.625,-2.063965,-0.7133789,-0.7900391,0.2651367,0.08105469,0.1166992
576,43.25,-359.625,41.0625,-1.843262,-0.7792969,-0.7514648,0.2817383,0.07763672,0.08251953
580,63.1875,-316.6875,63.9375,-1.777344,-0.6938477,-0.7133789,0.2939453,0.07373047,0.04882813
584,61.25,-296,66.1875,-1.742188,-0.4296875,-0.8671875,0.2983398,0.07128906,0.03076172
588,41.5,-288.5625,61.4375,-1.695801,-0.4101563,-0.9018555,0.3071289,0.06494141,0
592,22.625,-274.125,58.8125,-1.413086,-0.3134766,-0.9287109,0.3105469,0.05859375,-0.02978516
597,0.0625,-249.3125,61.875,-1.172852,-0.371582,-0.9594727,0.3105469,0.05371094,-0.04345703
601,-8.375,-210.875,66,-0.9365234,-0.4882813,-0.9438477,0.3129883,0.04638672,-0.06787109
605,-8.0625,-172.25,68.6875,-0.8046875,-0.6083984,-0.9941406,0.3115234,0.03857422,-0.08691406
609,-2.4375,-134.3125,60.75,-0.5332031,-0.6083984,-1.043945,0.3115234,0.03515625,-0.09765625
613,0.8125,-88.0625,47.6875,-0.2543945,-0.6044922,-1.117188,0.3105469,0.03027344,-0.1098633
617,-1.5625,-35,23.5,-0.08789063,-0.5463867,-1.170898,0.3071289,0.02490234,-0.1181641
621,-7.8125,22.8125,4.5625,-0.02197266,-0.5581055,-1.163086,0.309082,0.02490234,-0.1181641
625,-9,82.3125,-5.1875,-0.1420898,-0.5541992,-1.08252,0.3105469,0.02490234,-0.112793
629,-16.0625,125.1875,-12.8125,-0.3974609,-0.4609375,-1.070801,0.3115234,0.02636719,-0.1035156
633,-28.375,147.5625,-29.6875,-0.5683594,-0.4375,-1.040039,0.3154297,0.03027344,-0.09228516
637,-44.0625,159,-53.5625,-0.6342773,-0.4257813,-1.047852,0.3154297,0.03369141,-0.07617188
641,-54.25,184.875,-73.75,-0.6186523,-0.5307617,-0.9980469,0.3154297,0.04003906,-0.06103516
645,-55.3125,216.875,-84.9375,-0.8354492,-0.6396484,-1.047852,0.3139648,0.04492188,-0.04638672
649,-53.5,240.75,-99.0625,-1.029297,-0.7290039,-1.043945,0.3129883,0.05517578,-0.02294922
653,-29.0625,261.5625,-107.5625,-1.165039,-0.9736328,-0.9555664,0.3056641,0.06494141,0.00390625
657,13.75,288.875,-113.0625,-1.253906,-1.016602,-0.9326172,0.3007813,0.07275391,0.02001953
661,50.5625,322.75,-115.125,-1.327637,-0.9467773,-1.051758,0.2890625,0.08496094,0.04589844
665,60.4375,358.8125,-118.625,-1.661133,-0.7329102,-1.121094,0.2773438,0.09765625,0.07421875
669,41.8125,345.625,-144.6875,-2.253906,-0.6513672,-1.132324,0.2666016,0.1064453,0.09326172
673,-7.4375,311.0625,-169.8125,-2.276855,-0.340332,-1.097656,0.2426758,0.1210938,0.1206055
677,-80.5625,305.9375,-164.25,-2.09082,-0.3754883,-1.01709,0.21875,0.1313477,0.144043
681,-121.375,320.4375,-135.4375,-2.152832,-0.8339844,-1.01709,0.203125,0.1376953,0.1616211
685,-119.25,353.5,-87.625,-1.87793,-1.05127,-0.9208984,0.1748047,0.1386719,0.1875
689,-98.9375,410.125,-36.5,-1.715332,-1.074707,-1.105469,0.1450195,0.1347656,0.2143555
693,-83.9375,474.5625,6.75,-1.645508,-0.9233398,-1.274902,0.1225586,0.1323242,0.230957
697,-99.1875,506.4375,10.75,-1.87793,-0.6123047,-1.644043,0.08447266,0.1235352,0.2524414
701,-151,505.6875,-3,-1.994141,-0.4765625,-1.763184,0.04150391,0.1152344,0.269043
705,-196.9375,495.8125,-12.125,-1.711426,-0.484375,-1.748047,0.01074219,0.1035156,0.2773438
709,-214.75,496.5625,-3.625,-1.525391,-0.6977539,-1.797852,-0.03662109,0.08642578,0.2866211
713,-198.9375,503.875,7.0625,-1.223145,-0.8613281,-1.713379,-0.08203125,0.06494141,0.2851563
717,-148.375,502.4375,24.9375,-1.285156,-0.9350586,-1.609375,-0.1137695,0.05615234,0.2783203
721,-98.4375,472.25,34.6875,-1.358887,-0.6669922,-1.397949,-0.1567383,0.04492188,0.2636719
726,-89.5625,398.3125,4.1875,-1.45166,-0.2744141,-1.144043,-0.1948242,0.03857422,0.2416992
730,-102.8125,315.4375,-38.6875,-1.187988,-0.2822266,-0.859375,-0.2138672,0.03515625,0.2270508
734,-95.5625,260.75,-45.5,-1.033203,-0.4726563,-0.4824219,-0.2363281,0.02246094,0.2104492
738,-58.875,206.25,-36.5,-0.8276367,-0.534668,-0.2055664,-0.2553711,0.01269531,0.1943359
742,-22.5,172.5625,-20.9375,-0.5913086,-0.355957,0.02490234,-0.2617188,0.008789063,0.1845703
746,-5.875,144.125,-8.25,-0.5683594,-0.1772461,0.07519531,-0.2709961,0.007324219,0.1708984
750,1.125,101.6875,-5.4375,-0.4711914,-0.09570313,0.1635742,-0.2783203,0.007324219,0.1616211
754,10.0625,69.375,-12.125,-0.2270508,-0.08007813,0.2866211,-0.2841797,0.006347656,0.15625
758,16.0625,42.75,-18.25,-0.1884766,-0.01025391,0.2944336,-0.2866211,0.004882813,0.1494141
762,12.8125,11.5,-15.8125,-0.246582,-0.01806641,0.2905273,-0.2890625,0.006347656,0.1464844
766,18.875,-19.8125,-2.875,-0.1767578,-0.1230469,0.2944336,-0.2875977,0.004882813,0.1464844
770,35.125,-41.25,16.25,-0.002441406,-0.1655273,0.2021484,-0.2890625,0.006347656,0.1494141
774,43.875,-52.4375,21.6875,0.06298828,-0.05273438,0.07519531,-0.2851563,0.01025391,0.1533203
778,34.0625,-71.4375,21.75,0.02832031,-0.03369141,-0.08984375,-0.2807617,0.01123047,0.15625
782,26.9375,-91.25,14.25,0.09033203,-0.1420898,-0.2055664,-0.2783203,0.01757813,0.1616211
786,28,-103.6875,10.375,0.09765625,-0.1967773,-0.2397461,-0.2724609,0.02001953,0.1699219
790,26.125,-117.875,7.6875,-0.09912109,-0.09179688,-0.2744141,-0.2700195,0.02148438,0.1738281
794,14.9375,-146.625,1.5625,-0.4208984,-0.03369141,-0.2553711,-0.2592773,0.02392578,0.1831055
798,7.0625,-188.9375,-4.125,-0.6650391,-0.08789063,-0.2553711,-0.2495117,0.02490234,0.1953125
802,16.625,-235.6875,1.375,-0.8666992,-0.3056641,-0.324707,-0.2426758,0.02246094,0.2080078
806,47.9375,-279.625,11.875,-0.8164063,-0.5268555,-0.4936523,-0.2236328,0.02636719,0.2226563
810,77.4375,-297.75,12.8125,-0.8237305,-0.4765625,-0.6323242,-0.2006836,0.03027344,0.2402344
814,86.9375,-309.625,3.6875,-1.199707,-0.3754883,-0.7207031,-0.184082,0.03613281,0.2514648
818,90.875,-347.125,-5.375,-1.625977,-0.355957,-0.894043,-0.1582031,0.04394531,0.2636719
822,95.8125,-395.8125,-1.375,-1.796387,-0.4375,-1.144043,-0.1259766,0.05273438,0.2783203
826,112.75,-436.6875,29.5,-1.599121,-0.6396484,-1.555664,-0.09960938,0.05761719,0.2841797
830,133.3125,-442.3125,54.75,-1.184082,-0.6474609,-1.736328,-0.05810547,0.06884766,0.2895508
834,119.8125,-393.375,64.375,-0.878418,-0.453125,-1.70166,-0.01416016,0.08105469,0.2895508
838,87.3125,-342.5,48.875,-1.471191,-0.4140625,-1.494141,0.01074219,0.08886719,0.2851563
842,61.375,-374.1875,42.3125,-2.001953,-0.4960938,-1.594238,0.04492188,0.09375,0.2758789
846,55.8125,-403.5,43.3125,-1.843262,-0.6899414,-1.490234,0.08056641,0.09765625,0.2651367
850,67.9375,-400.0625,57,-1.862305,-0.8222656,-1.45166,0.105957,0.1010742,0.2524414
855,77.5625,-383.3125,77.4375,-1.850586,-0.8574219,-1.467285,0.1401367,0.1035156,0.2348633
859,70,-366,86,-1.854492,-0.7563477,-1.475098,0.1738281,0.1035156,0.2119141
863,50.8125,-358.875,72.4375,-1.916504,-0.7250977,-1.424805,0.1948242,0.1035156,0.1967773
867,35.9375,-364.375,61,-2.04834,-0.8105469,-1.397949,0.21875,0.1010742,0.1699219
871,28.125,-371.75,59.625,-2.013672,-0.8457031,-1.382324,0.2412109,0.09619141,0.1396484
875,22.25,-373.1875,51.125,-1.908691,-0.7602539,-1.348145,0.2568359,0.09375,0.1220703
879,9.6875,-377.5625,29.875,-1.928223,-0.6787109,-1.282715,0.2749023,0.09130859,0.08691406
883,2,-386,11.25,-1.796387,-0.6977539,-1.30957,0.2866211,0.08740234,0.05419922
887,2.625,-362.125,4.5,-1.343262,-0.6474609,-1.151855,0.2924805,0.08740234,0.03222656
891,11.625,-319.0625,6.5625,-1.289063,-0.6748047,-1.020996,0.2983398,0.08642578,-0.001464844
895,28.625,-294.875,14.8125,-1.273438,-0.6860352,-0.9746094,0.2998047,0.08642578,-0.02978516
899,47,-269.8125,31.625,-1.114746,-0.7094727,-0.9785156,0.2998047,0.08398438,-0.04736328
903,65.5,-239.125,45.75,-0.78125,-0.6708984,-1.05957,0.2973633,0.07763672,-0.07763672
907,71.8125,-188.75,46.625,-0.2851563,-0.5927734,-1.228516,0.2973633,0.07128906,-0.1005859
911,59.6875,-117.5625,36.125,0.04345703,-0.4296875,-1.351563,0.2963867,0.06738281,-0.1113281
915,28.9375,-45,29.8125,0.1635742,-0.2939453,-1.38623,0.2939453,0.06396484,-0.1225586
919,-8.3125,23.0625,24.0625,0.125,-0.3676758,-1.244141,0.2973633,0.06005859,-0.1235352
923,-29.25,80.5625,17.375,-0.05273438,-0.484375,-1.121094,0.2963867,0.06005859,-0.1210938
927,-43.375,123.3125,12.1875,-0.2192383,-0.503418,-1.01709,0.2983398,0.05859375,-0.1113281
931,-56.4375,159.3125,3.5,-0.3354492,-0.5112305,-0.9516602,0.3007813,0.06005859,-0.09765625
935,-65.9375,182.4375,-6.9375,-0.5292969,-0.581543,-1.028809,0.3046875,0.06005859,-0.08447266
939,-79.625,205,-27.125,-0.4907227,-0.5541992,-1.070801,0.3071289,0.06396484,-0.06396484
943,-90.9375,235.375,-50.4375,-0.6225586,-0.6123047,-1.144043,0.3071289,0.06738281,-0.04199219
947,-95.1875,264.625,-68.4375,-0.8354492,-0.7172852,-1.132324,0.3056641,0.07373047,-0.02294922
951,-86.125,297.75,-70.8125,-1.009766,-0.7988281,-1.094238,0.3007813,0.07763672,0.006347656
955,-72.8125,333.6875,-56.1875,-1.223145,-0.7949219,-1.055664,0.2924805,0.08496094,0.03759766
959,-59.1875,354,-44.625,-1.436035,-0.7329102,-1.101563,0.2856445,0.08740234,0.06103516
963,-61.3125,367.0625,-42.5625,-1.703613,-0.6318359,-1.097656,0.2700195,0.08984375,0.09619141
967,-75.375,339.5625,-70.5625,-2.067871,-0.6357422,-1.094238,0.2543945,0.09228516,0.1289063
971,-91.625,307.875,-90.8125,-1.912598,-0.6860352,-0.9902344,0.2412109,0.09521484,0.1464844
975,-93.875,322.6875,-69.8125,-1.79248,-0.8574219,-0.9360352,0.2202148,0.09619141,0.1738281
979,-72.375,353.125,-18.4375,-1.765625,-0.9853516,-0.9707031,0.1938477,0.09375,0.2011719
984,-30.25,395.625,32.5625,-1.672363,-0.9506836,-1.040039,0.1796875,0.09130859,0.2158203
988,7.125,401,49.1875,-2.393555,-0.9775391,-1.132324,0.1499023,0.08886719,0.237793
992,29.375,263,-12.6875,-2.928223,-0.7871094,-1.33252,0.1210938,0.08984375,0.2524414
996,7.25,175.125,-67.8125,-1.657227,-0.4453125,-1.19043,0.1103516,0.09228516,0.2583008
1000,-48.9375,231.3125,-92.625,-0.9130859,-0.3017578,-1.209473,0.08886719,0.09521484,0.2651367
1004,-79.1875,276.8125,-104.25,-1.269531,-0.6474609,-1.382324,0.06298828,0.09130859,0.2744141
1008,-67.3125,294.5,-65.75,-1.370117,-0.9116211,-1.482422,0.04052734,0.08886719,0.2797852
1012,-50.875,333.8125,-32.125,-0.9594727,-0.6669922,-1.475098,0.01074219,0.08398438,0.2880859
1016,-58.8125,371.5,-19.0625,-1.021484,-0.503418,-1.628906,-0.0234375,0.08007813,0.2880859
1020,-77.5,394.75,-34.4375,-1.041016,-0.3833008,-1.482422,-0.04980469,0.07373047,0.2880859
1024,-104.8125,404,-36.9375,-1.300781,-0.3520508,-1.320801,-0.08642578,0.06640625,0.2851563
1028,-117.9375,372.875,-21.625,-1.637695,-0.5463867,-1.101563,-0.1235352,0.05615234,0.2783203
1032,-109.25,324.25,0.125,-1.389648,-0.5268555,-0.7709961,-0.1459961,0.04980469,0.269043
1036,-105,278,4.625,-1.195801,-0.4492188,-0.5092773,-0.1723633,0.03857422,0.2553711
1040,-99.375,224.0625,-6.3125,-0.9130859,-0.519043,-0.2900391,-0.1923828,0.03027344,0.2460938
1044,-83.3125,189.1875,-14.9375,-0.5141602,-0.5581055,-0.07470703,-0.2045898,0.02392578,0.237793
1048,-51.125,172.875,-11.0625,-0.3354492,-0.6044922,0.03662109,-0.2172852,0.01855469,0.2280273
1052,-4,150.4375,-8,-0.296875,-0.5463867,0.1210938,-0.2319336,0.01367188,0.2158203
1056,35.0625,123.3125,-1.1875,-0.2270508,-0.324707,0.1518555,-0.2387695,0.01611328,0.2104492
1060,46.375,93.4375,2.125,-0.2661133,-0.07226563,0.144043,-0.2470703,0.01757813,0.2021484
1064,36.625,51.8125,-7.6875,-0.2387695,0.09423828,0.1098633,-0.2519531,0.02148438,0.1943359
1068,20.4375,13.625,-7.9375,-0.1572266,0.02832031,0.06738281,-0.2543945,0.02246094,0.1928711
1072,21.8125,-9.625,-7,0.1015625,-0.06835938,0.04443359,-0.2543945,0.02392578,0.1914063
1076,26.25,-16.75,2,0.140625,-0.06445313,-0.05126953,-0.2543945,0.02246094,0.1928711
1080,23.75,-27.1875,6.8125,0.1518555,-0.04882813,-0.112793,-0.2543945,0.02392578,0.1914063
1084,21.1875,-42.25,10,0.1328125,-0.09179688,-0.1552734,-0.2519531,0.02734375,0.1943359
1088,21.25,-58.1875,10.25,0.06689453,-0.1152344,-0.1708984,-0.2495117,0.03125,0.1982422
1092,19,-74.9375,11.125,-0.01025391,-0.1035156,-0.1899414,-0.2460938,0.03027344,0.2021484
1096,14.125,-95.875,8,-0.2080078,-0.07617188,-0.1708984,-0.237793,0.03271484,0.206543
1100,14.0625,-129.125,14.6875,-0.4711914,-0.2006836,-0.2128906,-0.2319336,0.03515625,0.2158203
1104,27.75,-166,23.5,-0.3164063,-0.2353516,-0.3168945,-0.2236328,0.03759766,0.2202148
1108,34.125,-180.375,29.0625,-0.3862305,-0.2275391,-0.359375,-0.2104492,0.04003906,0.2294922
1113,38.375,-199.5,27,-0.5683594,-0.2241211,-0.3632813,-0.1923828,0.04492188,0.2392578
1117,39.25,-221.8125,24.25,-0.8896484,-0.2124023,-0.3286133,-0.1855469,0.04980469,0.2460938
1121,44.8125,-258.25,31.5,-1.219238,-0.3173828,-0.4824219,-0.1640625,0.05273438,0.2568359
1125,56.9375,-297.125,51.8125,-1.285156,-0.453125,-0.6552734,-0.1401367,0.05761719,0.2675781
1129,78.5625,-330.0625,79,-1.187988,-0.6748047,-1.001465,-0.1186523,0.0625,0.2758789
1133,91.5,-323.6875,81.3125,-0.7929688,-0.5893555,-1.090332,-0.08642578,0.07519531,0.2797852
1137,80.625,-291.0625,66.8125,-1.037109,-0.4570313,-1.078613,-0.05419922,0.08398438,0.2827148
1141,57.375,-304.625,44.5625,-1.591309,-0.3833008,-1.113281,-0.03515625,0.08886719,0.2851563
1145,36.625,-344.8125,42.3125,-1.819824,-0.5229492,-1.205566,-0.003417969,0.09228516,0.2827148
1149,38.6875,-374.75,55,-1.661133,-0.7719727,-1.344238,0.03173828,0.09521484,0.28125
1153,55.125,-370.3125,68.9375,-1.428223,-0.9038086,-1.375,0.05712891,0.09765625,0.2744141
1157,67.9375,-340.375,67.9375,-1.389648,-0.8647461,-1.348145,0.09033203,0.1000977,0.262207
1161,71.25,-320.0625,54.5,-1.657227,-0.7407227,-1.270996,0.1225586,0.1035156,0.2470703
1165,61.25,-324.25,39,-1.982422,-0.6591797,-1.228516,0.1401367,0.1035156,0.2348633
1169,46.375,-352.4375,31.1875,-2.29248,-0.7563477,-1.301758,0.1674805,0.1074219,0.2158203
1173,41.5,-381,40.625,-2.133789,-0.8574219,-1.328613,0.1938477,0.1064453,0.1928711
1177,45.0625,-374,67,-1.912598,-0.9541016,-1.274902,0.2128906,0.1064453,0.1708984
1181,49.625,-350.9375,86.0625,-1.723145,-0.9389648,-1.263184,0.2368164,0.1010742,0.144043
1185,39.4375,-324.625,74.625,-1.668457,-0.8261719,-1.197754,0.2558594,0.09521484,0.1166992
1189,26.625,-330.25,38.25,-1.727051,-0.6669922,-1.301758,0.2666016,0.09375,0.09619141
1193,-4,-343.1875,0.6875,-1.637695,-0.5073242,-1.282715,0.2792969,0.09130859,0.06884766
1197,-21.5625,-343,-16,-1.358887,-0.6083984,-1.186523,0.2880859,0.09228516,0.03369141
1201,-4.6875,-311.4375,0.25,-1.118652,-0.8803711,-0.9824219,0.2924805,0.09130859,0.01708984
1205,44.0625,-260.125,35.625,-0.9750977,-1.008789,-0.8671875,0.2963867,0.08886719,-0.008300781
1209,91,-217,54.9375,-0.8510742,-0.9038086,-0.9399414,0.2998047,0.08642578,-0.03515625
1213,116.0625,-183.3125,51.375,-0.699707,-0.7133789,-1.013184,0.3007813,0.08105469,-0.04882813
1217,114.75,-151.3125,35.875,-0.4521484,-0.5,-1.113281,0.2998047,0.07519531,-0.07324219
1221,91.8125,-102.625,19,-0.2504883,-0.3364258,-1.166992,0.3007813,0.07275391,-0.08837891
1225,52.75,-47.25,18.375,-0.2426758,-0.2861328,-1.197754,0.2998047,0.06884766,-0.09521484
1229,11.4375,0.875,21.875,-0.262207,-0.3325195,-1.263184,0.2983398,0.06640625,-0.09912109
1233,-24.4375,38.4375,15.875,-0.1923828,-0.402832,-1.351563,0.2998047,0.06396484,-0.09765625
1237,-54.4375,86.125,4.625,-0.1147461,-0.5,-1.405762,0.2998047,0.0625,-0.09375
1242,-79.375,144.25,-16.8125,-0.1499023,-0.565918,-1.38623,0.3046875,0.06494141,-0.08300781
1246,-94.75,191.9375,-44.3125,-0.4208984,-0.6977539,-1.367188,0.3056641,0.06982422,-0.0625
1250,-100.875,225.75,-67.0625,-0.6494141,-0.7485352,-1.324707,0.3032227,0.07275391,-0.04882813
1254,-103.3125,263.8125,-69.625,-0.8164063,-0.7832031,-1.328613,0.3007813,0.08105469,-0.02294922
1258,-99.5,306.625,-53,-0.9013672,-0.7524414,-1.371094,0.2973633,0.08740234,0.0078125
1262,-93.875,360.6875,-29.3125,-0.9829102,-0.6513672,-1.471191,0.2924805,0.08886719,0.03076172
1266,-98.25,409.3125,-11.5,-1.285156,-0.565918,-1.567383,0.2832031,0.08984375,0.06787109
1270,-96.625,424.3125,-0.1875,-1.680176,-0.6083984,-1.713379,0.2675781,0.08740234,0.1083984
1274,-101.5625,415.1875,-5.375,-1.994141,-0.5737305,-1.759766,0.253418,0.08740234,0.1357422
1278,-116.6875,373.5625,-26.6875,-2.156738,-0.5698242,-1.751953,0.2319336,0.08398438,0.1699219
1282,-128.1875,358,-34.4375,-1.905273,-0.6123047,-1.609375,0.2070313,0.07763672,0.1982422
1286,-130.4375,395.0625,-10.8125,-1.785156,-0.7016602,-1.586426,0.1879883,0.07373047,0.2202148
1290,-116.1875,446.3125,22.25,-1.908691,-0.7871094,-1.621094,0.1567383,0.06396484,0.2446289
1294,-90.25,490.5625,48.5625,-2.114258,-0.8027344,-1.666992,0.1176758,0.05371094,0.2714844
1298,-70.9375,506.4375,46.3125,-2.474609,-0.6044922,-1.698242,0.09033203,0.04736328,0.2841797
1302,-81.125,441.8125,8.25,-3.009277,-0.5,-1.605469,0.04150391,0.04150391,0.2973633
1306,-89.3125,337.875,-16.375,-2.753906,-0.519043,-1.344238,0.003417969,0.03271484,0.3041992
1310,-82.3125,281.8125,2.875,-2.172363,-0.6240234,-1.166992,-0.01757813,0.02636719,0.3041992
1314,-52.375,272.8125,21,-1.521484,-0.6708984,-1.063477,-0.04492188,0.01855469,0.3032227
1318,-25.625,287.25,42.1875,-1.15332,-0.5927734,-1.174805,-0.07128906,0.01513672,0.2988281
1322,-13.5,303.25,47.375,-0.8549805,-0.4570313,-1.313477,-0.09033203,0.01513672,0.2963867
1326,-17.1875,317.125,31.875,-0.5605469,-0.2783203,-1.324707,-0.1186523,0.01513672,0.2880859
1330,-30.9375,317.75,14.4375,-0.7192383,-0.2705078,-1.344238,-0.1484375,0.01513672,0.2744141
1334,-37.5,286.75,-6.5625,-0.6689453,-0.3134766,-1.224609,-0.1665039,0.01513672,0.2661133
1338,-37.875,268.0625,-22.6875,-0.4555664,-0.3286133,-0.9941406,-0.1899414,0.01123047,0.2539063
1342,-31.9375,268.125,-31.25,-0.4443359,-0.3208008,-0.7592773,-0.2114258,0.006347656,0.237793
1346,-29.5,263.5,-20.25,-0.6030273,-0.2509766,-0.5322266,-0.2270508,0.00390625,0.2241211
1350,-29.1875,237.5625,-11.875,-0.730957,-0.08789063,-0.1938477,-0.2460938,0,0.206543
1354,-28.5625,181.4375,-8.25,-0.9287109,-0.07617188,0.06347656,-0.2592773,-0.001953125,0.1914063
1358,-23.1875,110.5,-9.8125,-0.8198242,-0.1347656,0.3828125,-0.2675781,-0.005859375,0.1845703
1362,-7.75,57.9375,0.375,-0.6342773,-0.2783203,0.5058594,-0.2724609,-0.004394531,0.1762695
1366,16.8125,19.4375,12.875,-0.3164063,-0.340332,0.4365234,-0.2744141,-0.005859375,0.1699219
1371,41.0625,-0.6875,20.5625,-0.006347656,-0.3208008,0.3251953,-0.2744141,-0.004394531,0.1699219
1375,53.4375,-1.375,24.5,0.159668,-0.2124023,0.2905273,-0.2744141,0.001464844,0.1708984
1379,55.4375,-11.5,23.9375,0.04736328,-0.1577148,0.2060547,-0.2744141,0.004882813,0.168457
1383,52.625,-35.625,17.25,-0.01025391,-0.07617188,0.1904297,-0.2724609,0.01123047,0.1723633
1387,46.5625,-64.5,13.625,-0.07617188,-0.09179688,0.105957,-0.2700195,0.01513672,0.1708984
1391,43.875,-90.625,14.6875,-0.1069336,-0.1577148,0.03662109,-0.2661133,0.01757813,0.1777344
1395,48.125,-116.375,20.5,-0.1845703,-0.2470703,-0.109375,-0.2617188,0.01855469,0.1831055
1399,57.0625,-142.75,25.0625,-0.1459961,-0.2587891,-0.2631836,-0.2553711,0.02636719,0.1914063
1403,54.375,-153.875,19.3125,-0.1225586,-0.1499023,-0.3168945,-0.2436523,0.03271484,0.199707
1407,42.625,-173,8.6875,-0.4169922,-0.1308594,-0.3325195,-0.2353516,0.03515625,0.2089844
1411,48,-224.5,18.125,-0.5952148,-0.4140625,-0.628418,-0.222168,0.03857422,0.2202148
1415,67.5625,-243.8125,19.375,-0.2041016,-0.3676758,-0.6401367,-0.206543,0.04492188,0.2363281
1419,66.25,-233.125,18.1875,-0.4594727,-0.2509766,-0.7246094,-0.1914063,0.04882813,0.2402344
1423,52.5,-250.9375,6.125,-0.9091797,-0.1577148,-0.7133789,-0.1733398,0.05371094,0.2524414
1427,43.9375,-295.75,-2.25,-1.37793,-0.3481445,-0.7514648,-0.1494141,0.05761719,0.2651367
1431,62.375,-349.5,2.5625,-1.347168,-0.519043,-0.9360352,-0.1303711,0.06103516,0.2705078
1435,86.0625,-365.4375,19.75,-1.405273,-0.6669922,-1.036133,-0.09863281,0.06738281,0.2797852
1439,118.25,-396.3125,63.875,-1.362793,-0.8027344,-1.51709,-0.06152344,0.07617188,0.2880859
1443,132.125,-383,83.0625,-0.9985352,-0.6005859,-1.475098,-0.03417969,0.08642578,0.2851563
1447,100.5625,-333.6875,81.875,-0.9169922,-0.324707,-1.401855,0.002441406,0.09619141,0.2827148
1451,58.375,-307.9375,50.5625,-1.385742,-0.2392578,-1.232422,0.03564453,0.1035156,0.2744141
1455,24.375,-329.4375,33.0625,-1.901367,-0.3950195,-1.186523,0.05712891,0.1049805,0.269043
1459,15.0625,-375.5,28,-2.087402,-0.6435547,-1.213379,0.08886719,0.1064453,0.2607422
1463,26.5,-389.6875,44,-1.835449,-0.8496094,-1.15918,0.1210938,0.1049805,0.2460938
1467,49.875,-369.6875,66.8125,-1.75,-0.9311523,-1.105469,0.144043,0.1049805,0.2348633
1471,65.375,-343.875,82.75,-1.804199,-0.8535156,-1.086426,0.1748047,0.1049805,0.2119141
1475,57.625,-338.5625,77.1875,-2.017578,-0.7250977,-1.113281,0.2021484,0.1025391,0.1889648
1479,41.3125,-353.375,58.4375,-2.04834,-0.7094727,-1.182617,0.21875,0.1025391,0.1708984
1483,25.3125,-358.25,49.6875,-2.029297,-0.7680664,-1.105469,0.2402344,0.1000977,0.1425781
1487,22.5,-362.125,46.6875,-1.947754,-0.8535156,-1.066895,0.2602539,0.09619141,0.1123047
1491,30.8125,-349.875,54.9375,-1.734375,-0.8842773,-1.009277,0.2700195,0.09375,0.09228516
1495,37.1875,-326.8125,64.4375,-1.757813,-0.8300781,-0.9516602,0.2841797,0.08886719,0.06103516
1500,40.75,-328,58.875,-1.730469,-0.7719727,-1.013184,0.2939453,0.08251953,0.02978516
1504,36.25,-313,55.8125,-1.45166,-0.6240234,-0.9477539,0.2983398,0.07861328,0.0078125
1508,25.75,-291.1875,53.75,-1.292969,-0.5854492,-0.9980469,0.3007813,0.07373047,-0.02148438
1512,19.0625,-264.6875,55.3125,-1.087402,-0.5541992,-0.9746094,0.3056641,0.06640625,-0.05029297
1516,14.5625,-232.1875,59.6875,-0.862793,-0.5581055,-1.024902,0.3071289,0.06396484,-0.06396484
1520,18.6875,-189.3125,63.8125,-0.5722656,-0.6083984,-1.055664,0.3056641,0.05761719,-0.08984375
1524,24.875,-140.3125,55.5,-0.4013672,-0.5927734,-1.070801,0.3032227,0.04980469,-0.1044922
1528,29.3125,-104.0625,32,-0.2734375,-0.519043,-1.147949,0.3032227,0.04638672,-0.1142578
1532,28.75,-60.625,8.625,-0.06445313,-0.4375,-1.121094,0.3032227,0.04394531,-0.1225586
1536,16.9375,0.0625,-2.8125,0.02441406,-0.324707,-1.086426,0.3007813,0.04150391,-0.1289063
1540,-0.3125,63.375,-3.0625,-0.04492188,-0.2666016,-1.01709,0.3007813,0.04150391,-0.125
1544,-19.9375,118.625,3,-0.2001953,-0.2314453,-0.9672852,0.3022461,0.04150391,-0.1166992
1548,-45.125,150.5,-5.4375,-0.4985352,-0.1889648,-0.9633789,0.3071289,0.04394531,-0.1044922
1552,-74,154.125,-28.75,-0.7348633,-0.2666016,-0.894043,0.3081055,0.04492188,-0.09228516
1556,-88.75,153.0625,-48,-0.7890625,-0.4570313,-0.8325195,0.3105469,0.04980469,-0.07617188
1560,-85.375,171.75,-54.25,-0.7075195,-0.6083984,-0.7709961,0.3081055,0.05615234,-0.05566406
1564,-68.875,213.9375,-49.1875,-0.7114258,-0.7094727,-0.7670898,0.309082,0.06005859,-0.04345703
1568,-51.625,261.0625,-40.9375,-0.8007813,-0.6435547,-0.8129883,0.3071289,0.06494141,-0.01904297
1572,-44.875,310.375,-30.25,-0.9477539,-0.5073242,-0.878418,0.3022461,0.06982422,0.0078125
1576,-52.75,329.9375,-44.0625,-1.541016,-0.484375,-0.878418,0.3007813,0.07128906,0.02832031
1580,-63.5625,292.25,-66.875,-1.866211,-0.5112305,-0.8554688,0.2900391,0.07617188,0.05957031
1584,-71,270.0625,-69.625,-1.777344,-0.5737305,-0.6860352,0.2783203,0.08105469,0.08789063
1588,-70.625,272.625,-54.8125,-1.711426,-0.6435547,-0.6362305,0.2709961,0.08251953,0.1044922
1592,-61.3125,292.1875,-27.75,-1.614258,-0.7094727,-0.6323242,0.2558594,0.08398438,0.1313477
1596,-45.8125,328.375,3.875,-1.505859,-0.6977539,-0.7783203,0.2368164,0.08496094,0.1586914
1600,-36.5,352.75,16.4375,-1.734375,-0.6669922,-0.9477539,0.2260742,0.08105469,0.1777344
1604,-35.25,328.9375,-4.5625,-1.858398,-0.5776367,-1.132324,0.2045898,0.08007813,0.2021484
1608,-50,318.9375,-29,-1.742188,-0.5541992,-1.125,0.1806641,0.07763672,0.2226563
1612,-60.875,316.75,-37.3125,-1.625977,-0.5966797,-1.182617,0.1616211,0.07763672,0.2348633
1616,-68.5625,340.3125,-29.5,-1.393555,-0.5893555,-1.248047,0.1357422,0.07519531,0.2553711
1620,-68.25,374.3125,-6.3125,-1.455566,-0.6396484,-1.30957,0.1020508,0.06982422,0.2714844
1624,-60.125,386,33.125,-1.587402,-0.6240234,-1.420898,0.08056641,0.06494141,0.2797852
1629,-60.875,376.5,45.875,-1.684082,-0.4882813,-1.394043,0.04492188,0.05859375,0.2919922
1633,-69.6875,326.9375,23.875,-1.591309,-0.3754883,-1.371094,0.01269531,0.05371094,0.2973633
1637,-80.5625,284.75,-13.125,-1.370117,-0.484375,-1.259277,-0.0078125,0.04882813,0.300293
1641,-66.875,262.6875,-28,-1.013672,-0.6474609,-1.155762,-0.03515625,0.04150391,0.2988281
1645,-33.9375,260.125,-16.5,-0.831543,-0.7290039,-1.186523,-0.06054688,0.03759766,0.2973633
1649,-10.125,278.75,-10.625,-0.5913086,-0.4726563,-1.178711,-0.07958984,0.03613281,0.2963867
1653,-23.1875,290,-4.4375,-0.6376953,-0.1850586,-1.290039,-0.1054688,0.03271484,0.2895508
1657,-57.8125,284.1875,-7.5625,-0.7231445,-0.006347656,-1.236328,-0.1328125,0.03027344,0.2797852
1661,-100.8125,247.125,-26.4375,-0.8393555,-0.04541016,-1.078613,-0.1494141,0.02490234,0.2714844
1665,-126,203.1875,-44.125,-0.746582,-0.2783203,-0.7783203,-0.1723633,0.01611328,0.2636719
1669,-127.375,179,-51.125,-0.5644531,-0.5,-0.4667969,-0.1889648,0,0.2553711
1673,-97.6875,166,-45.3125,-0.3823242,-0.6630859,-0.2055664,-0.199707,-0.008300781,0.25
1677,-57.4375,162.4375,-29.9375,-0.3823242,-0.6396484,0.02490234,-0.2114258,-0.01806641,0.2392578
1681,-14.5,144.875,-14.5625,-0.4287109,-0.5268555,0.1904297,-0.2236328,-0.02441406,0.230957
1685,17.0625,122,-1.4375,-0.4594727,-0.2939453,0.390625,-0.2304688,-0.0234375,0.2255859
1689,31.125,73.875,4.875,-0.7231445,-0.07226563,0.3671875,-0.2387695,-0.02050781,0.2143555
1693,28.75,3.6875,0.5625,-0.5756836,0.02050781,0.340332,-0.2426758,-0.01806641,0.2119141
1697,24.875,-32.875,7.1875,-0.2661133,-0.06054688,0.3251953,-0.2402344,-0.01708984,0.2119141
1701,34.8125,-53.125,15.5625,-0.1806641,-0.1772461,0.2329102,-0.237793,-0.01464844,0.2143555
1705,49.375,-72.125,20.9375,-0.1459961,-0.1928711,0.1328125,-0.2353516,-0.01074219,0.21875
1709,58.1875,-90.75,19.875,-0.2348633,-0.1230469,0.09423828,-0.2304688,-0.004394531,0.2241211
1713,61.125,-121.5625,14.75,-0.5214844,-0.09960938,0.05175781,-0.2246094,-0.0004882813,0.2280273
1717,64.125,-165.0625,7.4375,-0.7387695,-0.09960938,0.02880859,-0.2138672,0.006347656,0.2363281
1721,73.8125,-215.3125,15.875,-0.9477539,-0.2241211,-0.1977539,-0.2045898,0.01025391,0.2431641
1725,87.5,-255.375,24.625,-0.847168,-0.2241211,-0.3398438,-0.184082,0.01513672,0.2568359
1729,95.125,-273.125,39.4375,-0.9438477,-0.3286133,-0.5825195,-0.1616211,0.02490234,0.2661133
1733,100.625,-285.25,52.6875,-0.9248047,-0.2939453,-0.7167969,-0.1459961,0.03271484,0.2744141
1737,92.875,-291.5,51.6875,-1.129883,-0.2783203,-0.7900391,-0.1162109,0.04394531,0.28125
1741,75.1875,-312.75,44.3125,-1.370117,-0.3173828,-0.8745117,-0.08544922,0.05273438,0.2895508
1745,65.125,-341.375,34.5,-1.583496,-0.453125,-1.009277,-0.06738281,0.05859375,0.2895508
1749,62.9375,-364.1875,33.0625,-1.625977,-0.519043,-1.094238,-0.03173828,0.06396484,0.293457
1753,68.0625,-377.875,52.75,-1.730469,-0.7753906,-1.317383,0.004394531,0.06884766,0.2949219
1758,89.625,-384.6875,75.1875,-1.381836,-0.8496094,-1.498047,0.03076172,0.07617188,0.2880859
1762,90.0625,-350.375,75.875,-1.273438,-0.7329102,-1.490234,0.06982422,0.08251953,0.2758789
1766,67.75,-329.6875,49.5,-1.672363,-0.6357422,-1.428711,0.1020508,0.08642578,0.2651367
1770,44.375,-345.25,19,-2.067871,-0.7055664,-1.328613,0.1225586,0.08642578,0.2514648
1774,38.125,-369.4375,11.8125,-2.191895,-0.8725586,-1.26709,0.1523438,0.08886719,0.2348633
1778,48.875,-376.5625,32.8125,-2.098633,-1.008789,-1.174805,0.1806641,0.09130859,0.2119141
1782,63.6875,-366.4375,61.5625,-1.974609,-1.004883,-1.232422,0.2021484,0.09228516,0.1953125
1786,62.8125,-350.75,67.25,-1.874023,-0.7988281,-1.340332,0.2260742,0.08984375,0.168457
1790,25.0625,-343.0625,45.4375,-1.881836,-0.4726563,-1.397949,0.2475586,0.08984375,0.1411133
1794,-25.8125,-354.625,8.0625,-1.959473,-0.5073242,-1.274902,0.2602539,0.08740234,0.1220703
1798,-44,-368.875,-25.4375,-1.905273,-0.6899414,-1.094238,0.2724609,0.08496094,0.09228516
1802,-28.875,-371.1875,-19.375,-1.785156,-0.9272461,-1.005371,0.2841797,0.08496094,0.06201172
1806,6.3125,-344.125,15.8125,-1.556152,-1.000977,-0.9746094,0.2915039,0.08496094,0.0390625
1810,36,-300.9375,50.875,-1.312012,-0.8764648,-0.9438477,0.2973633,0.08105469,0.01074219
1814,50.4375,-264.5625,61.625,-1.187988,-0.6513672,-0.9633789,0.3032227,0.07519531,-0.01757813
1818,49.5625,-251.5625,41.25,-1.161133,-0.46875,-0.9672852,0.3032227,0.07128906,-0.03662109
1822,38.875,-248.8125,11.125,-0.9829102,-0.2509766,-0.9438477,0.3046875,0.06738281,-0.06103516
1826,25.9375,-228.375,-10.3125,-0.8164063,-0.2084961,-0.7939453,0.3032227,0.06494141,-0.08447266
1830,26.1875,-194.9375,-3,-0.6806641,-0.2470703,-0.6708984,0.2998047,0.06640625,-0.09912109
1834,37.875,-154.0625,19,-0.5952148,-0.2744141,-0.6245117,0.2963867,0.06494141,-0.1181641
1838,51.125,-118.9375,34.6875,-0.4829102,-0.2045898,-0.6860352,0.2924805,0.0625,-0.1333008
1842,52.8125,-91.125,28.3125,-0.3901367,-0.1347656,-0.7553711,0.2900391,0.05859375,-0.1401367
1846,47.0625,-54.3125,18.6875,-0.1264648,-0.1074219,-0.7553711,0.2900391,0.05517578,-0.1494141
1850,35.9375,5.4375,6.625,0.04736328,-0.1308594,-0.7363281,0.2880859,0.05126953,-0.1538086
1854,25.0625,61.75,-1.9375,-0.08398438,-0.1928711,-0.9018555,0.2890625,0.04882813,-0.1523438
1858,8.625,105.6875,0,-0.1689453,-0.1967773,-1.001465,0.2939453,0.04882813,-0.1469727
1862,-13.5625,152.5,3.8125,-0.2543945,-0.2241211,-1.047852,0.2963867,0.04736328,-0.1357422
1866,-38.75,191.375,-3.875,-0.4052734,-0.2431641,-1.105469,0.2983398,0.04980469,-0.1235352
1870,-59.375,225.75,-18.3125,-0.5913086,-0.402832,-1.05957,0.3046875,0.05126953,-0.1044922
1874,-68.5625,252.4375,-32.9375,-0.831543,-0.5620117,-1.036133,0.309082,0.05615234,-0.08007813
1878,-68.625,271.8125,-42.1875,-0.9829102,-0.6396484,-0.9555664,0.3071289,0.05859375,-0.0625
1882,-64.25,302.5,-41,-1.017578,-0.6748047,-0.8862305,0.3081055,0.06396484,-0.03271484
1887,-56.0625,336.625,-37.25,-1.265625,-0.7133789,-0.8515625,0.3032227,0.06738281,0.0009765625
1891,-46.8125,350.5,-30.3125,-1.439941,-0.6708984,-0.859375,0.3007813,0.07128906,0.02148438
1895,-48.6875,364.125,-25.8125,-1.57959,-0.5463867,-0.859375,0.2900391,0.07275391,0.05664063
1899,-60,365.4375,-23.5,-1.70752,-0.4570313,-0.9360352,0.2792969,0.07373047,0.09082031
1903,-82.3125,363.3125,-22.3125,-1.990234,-0.4921875,-0.9477539,0.269043,0.07519531,0.1137695
1907,-94.9375,327.3125,-29.4375,-2.160645,-0.6396484,-0.9824219,0.2519531,0.07275391,0.1479492
1911,-92.125,310.125,-27.5,-1.959473,-0.7910156,-0.8554688,0.2294922,0.07128906,0.1723633
1915,-76.375,322.0625,-12.375,-1.796387,-0.8261719,-0.894043,0.21875,0.06884766,0.1943359
1919,-59.875,344.3125,5.5,-1.753906,-0.7792969,-1.051758,0.1948242,0.06396484,0.2172852
1923,-49.25,370.375,26.9375,-1.746094,-0.7016602,-1.209473,0.1674805,0.06005859,0.2392578
1927,-43.125,383.6875,42.1875,-1.734375,-0.5541992,-1.378906,0.1484375,0.05615234,0.2539063
1931,-61,377.75,22.375,-1.947754,-0.4296875,-1.394043,0.1152344,0.04980469,0.2729492
1935,-83.8125,314.3125,-12.0625,-2.141602,-0.4648438,-1.428711,0.08544922,0.04492188,0.2851563
1939,-91.3125,262.1875,-31.375,-1.788574,-0.6005859,-1.163086,0.06542969,0.04003906,0.293457
1943,-71.5625,247.5625,-26.625,-1.513672,-0.7988281,-1.047852,0.0390625,0.03271484,0.2988281
1947,-33.25,245.75,-11.9375,-1.219238,-0.7832031,-1.066895,0.01416016,0.02734375,0.3041992
1951,-2.875,255.75,1.875,-1.029297,-0.6318359,-1.193848,-0.003417969,0.02636719,0.3041992
1955,7.5625,264.9375,4.6875,-0.8237305,-0.4375,-1.278809,-0.02685547,0.02734375,0.3041992
1959,-2.625,278.6875,-7.375,-0.6572266,-0.1381836,-1.278809,-0.05664063,0.02734375,0.300293
1963,-40.75,277.3125,-31.625,-0.8896484,-0.002441406,-1.224609,-0.07226563,0.02734375,0.2973633
1967,-67.75,234.0625,-44.1875,-0.9399414,-0.1347656,-1.228516,-0.09960938,0.02001953,0.2919922
1971,-72.5625,214.5625,-42.375,-0.5834961,-0.2822266,-1.125,-0.1220703,0.01367188,0.2866211
1975,-76.5,238.9375,-31.6875,-0.3862305,-0.3676758,-0.9863281,-0.1367188,0.007324219,0.2841797
1979,-80.8125,262.0625,-25.9375,-0.4946289,-0.4067383,-0.7324219,-0.1582031,0,0.2714844
1983,-66.3125,256.4375,-24.5,-0.6845703,-0.5229492,-0.2553711,-0.1831055,-0.008300781,0.2607422
1987,-31,208.9375,-33.4375,-0.9711914,-0.46875,0.1826172,-0.1972656,-0.01318359,0.2524414
1991,2.1875,134.5625,-36.0625,-1.103027,-0.4296875,0.5366211,-0.2128906,-0.01708984,0.2392578
1995,34.0625,54.25,-15.3125,-0.9829102,-0.4335938,0.5097656,-0.2197266,-0.01806641,0.2333984
1999,60.3125,0.625,14.625,-0.5722656,-0.3833008,0.3867188,-0.2236328,-0.01464844,0.2294922
2003,86.75,-30.875,29.5,-0.05273438,-0.2470703,0.1367188,-0.222168,-0.009277344,0.230957
2007,86.8125,-22.25,29.125,0.3457031,-0.01025391,0.04785156,-0.21875,0.001464844,0.2324219
2011,69.625,-16.125,11.5625,0.1831055,0.1333008,0.005859375,-0.2163086,0.004882813,0.2324219
2016,48.4375,-40.1875,-3.625,-0.1030273,0.1484375,0.01708984,-0.215332,0.01123047,0.2324219
2020,34,-63.5,-2.5625,-0.246582,0.1020508,0.1748047,-0.2128906,0.01513672,0.2363281
2024,32.75,-92.75,5.5625,-0.5141602,0.004882813,0.1982422,-0.2089844,0.01611328,0.237793
2028,43.1875,-136.875,19.5,-0.7773438,-0.1308594,0.125,-0.2006836,0.02148438,0.2446289
2032,68.25,-190,37.375,-0.7192383,-0.2666016,-0.08984375,-0.1875,0.02490234,0.2514648
2036,93.625,-209.875,56.125,-0.5488281,-0.3442383,-0.1782227,-0.1733398,0.03271484,0.2568359
2040,104.25,-220.8125,66.3125,-0.5644531,-0.2626953,-0.4399414,-0.1542969,0.04394531,0.2651367
2044,91.1875,-230.9375,51.9375,-0.6806641,-0.08007813,-0.5053711,-0.1328125,0.05615234,0.2729492
2048,68.3125,-253.75,44.25,-0.9208984,-0.1230469,-0.6591797,-0.1176758,0.0625,0.2773438
2052,50.3125,-275.5,37.8125,-1.168945,-0.2163086,-0.6401367,-0.09228516,0.06884766,0.2827148
2056,46.625,-301.75,47.4375,-1.362793,-0.4257813,-0.7167969,-0.06494141,0.07373047,0.2880859
2060,55.4375,-319.625,63.6875,-1.552246,-0.6240234,-0.7900391,-0.04394531,0.07763672,0.2880859
2064,71.1875,-356.6875,88.625,-1.501953,-0.7641602,-1.228516,-0.009277344,0.08251953,0.2866211
2068,74.875,-351.5625,89.25,-1.176758,-0.6669922,-1.182617,0.02734375,0.08886719,0.2827148
2072,51.375,-318.125,73.8125,-1.253906,-0.534668,-1.128418,0.05078125,0.09130859,0.2783203
2076,23.4375,-307.3125,45.5,-1.695801,-0.5424805,-0.9863281,0.08056641,0.09521484,0.269043
2080,10.5,-329.9375,28.4375,-2.149414,-0.7641602,-0.9555664,0.1103516,0.09375,0.2568359
2084,21.625,-369.75,40.625,-2.315918,-1.024414,-1.009277,0.1318359,0.09228516,0.2446289
2088,52,-388.875,50.875,-2.040527,-1.102051,-0.9824219,0.1630859,0.08984375,0.2270508
2092,77.5625,-373,61.5,-1.889648,-1.059082,-0.9555664,0.1938477,0.09228516,0.2011719
2096,90.3125,-351.375,69.0625,-1.990234,-0.9580078,-0.9360352,0.2119141,0.09375,0.1845703
2100,87.4375,-352.75,62.75,-2.20752,-0.8842773,-0.9555664,0.2353516,0.09130859,0.1533203
2104,75.875,-367.3125,55.6875,-2.280762,-0.8261719,-0.9633789,0.2558594,0.09130859,0.1206055
2108,63.5625,-372.1875,51.375,-2.164551,-0.8105469,-0.8901367,0.2666016,0.08984375,0.09912109
2112,57.75,-368.5625,53.5625,-2.07959,-0.7680664,-0.840332,0.2817383,0.08496094,0.06494141
2116,53.1875,-361.3125,62.3125,-1.974609,-0.7055664,-0.7822266,0.2939453,0.08105469,0.03076172
2120,50.5625,-347.8125,68.25,-1.916504,-0.6318359,-0.6977539,0.2983398,0.07861328,0.0078125
2124,52.8125,-342,77.875,-1.866211,-0.6357422,-0.6323242,0.3046875,0.07128906,-0.02734375
2128,56.3125,-329.75,92.4375,-1.595215,-0.5893555,-0.6513672,0.3056641,0.0625,-0.05957031
2132,52.125,-298.25,95.0625,-1.436035,-0.4882813,-0.6821289,0.3056641,0.05371094,-0.08154297
2136,36.5625,-278.875,81.9375,-1.339355,-0.3637695,-0.8325195,0.3022461,0.04638672,-0.1113281
2140,16.75,-255.8125,64.0625,-1.056641,-0.2861328,-0.7402344,0.2998047,0.03515625,-0.1386719
2145,12,-226.5,48.1875,-0.8276367,-0.355957,-0.6132813,0.2939453,0.03271484,-0.1538086
2149,26.1875,-187.0625,49.6875,-0.7192383,-0.5112305,-0.4321289,0.2841797,0.02490234,-0.1728516
2153,55.25,-151.9375,67.375,-0.6650391,-0.6474609,-0.4594727,0.2783203,0.01855469,-0.1904297
2157,78.375,-117.0625,83.3125,-0.4248047,-0.5854492,-0.59375,0.2749023,0.01025391,-0.1987305
2161,80.625,-75.0625,76.8125,-0.09521484,-0.4179688,-0.7822266,0.2734375,0,-0.2109375
2165,49.25,-23.8125,47.125,0.140625,-0.2045898,-0.9169922,0.2724609,-0.009277344,-0.2163086
2169,0.0625,32.0625,5.0625,0.2373047,-0.1499023,-0.894043,0.2700195,-0.01464844,-0.2177734
2173,-36.375,89.875,-21.8125,0.03173828,-0.2822266,-0.8671875,0.2724609,-0.01318359,-0.2119141
2177,-55.625,131.875,-33.6875,-0.262207,-0.3989258,-0.8671875,0.2792969,-0.006835938,-0.2011719
2181,-64.8125,160.875,-48.5625,-0.4594727,-0.4296875,-0.8823242,0.2832031,-0.001953125,-0.1928711
2185,-74,183.375,-68.8125,-0.5644531,-0.4296875,-0.8823242,0.2915039,0.004882813,-0.1782227
2189,-82.375,214.125,-84.125,-0.6494141,-0.4765625,-0.9091797,0.2963867,0.01757813,-0.1591797
2193,-87.9375,251.125,-89.75,-0.715332,-0.4882813,-0.9326172,0.2983398,0.02392578,-0.1386719
2197,-91.3125,298,-90.1875,-0.8549805,-0.5229492,-0.9633789,0.3032227,0.03759766,-0.1157227
2201,-94.4375,345.5,-82.9375,-1.133789,-0.5581055,-1.005371,0.3081055,0.04736328,-0.07861328
2205,-93.875,377.4375,-77.375,-1.45166,-0.6279297,-1.020996,0.309082,0.05371094,-0.05419922
2209,-92.5,385.75,-85.75,-1.916504,-0.7211914,-0.9248047,0.3071289,0.0625,-0.01757813
2213,-88,357.0625,-100,-2.063965,-0.7680664,-0.8554688,0.2998047,0.07128906,0.02148438
2217,-76.5625,363.6875,-82.125,-1.885742,-0.8066406,-0.7514648,0.2915039,0.07617188,0.04443359
2221,-71.3125,406.0625,-36.1875,-1.839355,-0.6977539,-0.8862305,0.2783203,0.08251953,0.08105469
2225,-77.375,444.9375,-1.5625,-1.95166,-0.5893555,-1.032227,0.2602539,0.08251953,0.1235352
2229,-93.0625,442.8125,-9.375,-2.524902,-0.6201172,-1.047852,0.2475586,0.08251953,0.1479492
2233,-97.625,349.5625,-52.375,-2.92041,-0.7910156,-0.9746094,0.2211914,0.07861328,0.1806641
2237,-79.125,285.9375,-66.8125,-2.443848,-0.9970703,-0.7207031,0.1987305,0.07275391,0.2080078
2241,-50.8125,291.875,-37.1875,-1.95166,-0.9541016,-0.7016602,0.1831055,0.07617188,0.21875
2245,-28.1875,325.125,-11.25,-1.719238,-0.7753906,-0.7861328,0.1591797,0.07373047,0.2392578
2249,-18.75,343,4.0625,-1.78125,-0.6708984,-0.9399414,0.1293945,0.07275391,0.2553711
2253,-14.375,345.8125,28.8125,-1.858398,-0.6860352,-1.070801,0.1103516,0.07275391,0.2661133
2257,-20.125,284.6875,-5.125,-2.141602,-0.6044922,-1.182617,0.08203125,0.07128906,0.2773438
2261,-40.6875,220.625,-56.1875,-1.67627,-0.6162109,-1.047852,0.05810547,0.06982422,0.2827148
2265,-63.3125,218,-80,-1.32373,-0.6860352,-0.8901367,0.04150391,0.06884766,0.2895508
2269,-55.1875,218.75,-77.25,-1.289063,-0.8339844,-0.7592773,0.01904297,0.0625,0.293457
2274,-21.6875,206.0625,-47.8125,-1.187988,-0.9077148,-0.7514648,-0.004394531,0.05761719,0.2949219
2278,16.4375,201.125,-21.375,-0.7890625,-0.7524414,-0.7441406,-0.01855469,0.05859375,0.2963867
2282,34.6875,216.125,-12.625,-0.4091797,-0.4726563,-0.8056641,-0.0390625,0.06103516,0.293457
2286,21.4375,244.9375,-21.3125,-0.4907227,-0.2275391,-0.8325195,-0.06054688,0.06494141,0.2910156
2290,-4.375,231.75,-28.0625,-0.7929688,-0.1616211,-0.7749023,-0.07568359,0.06738281,0.2851563
2294,-24.3125,189.125,-26.1875,-0.6767578,-0.1733398,-0.7167969,-0.09863281,0.06396484,0.2797852
2298,-24.75,165.3125,-24.75,-0.3085938,-0.324707,-0.6630859,-0.1152344,0.06005859,0.2758789
2302,-24,183.25,-34.375,0.175293,-0.2666016,-0.6938477,-0.1269531,0.06005859,0.2744141
2306,-44.875,234.4375,-50.125,0.2797852,-0.1733398,-0.7749023,-0.1459961,0.05371094,0.2675781
2310,-57.0625,265,-43.5625,-0.05664063,-0.3481445,-0.7133789,-0.1674805,0.04882813,0.2553711
2314,-40.25,262.4375,-9.625,-0.4711914,-0.4257813,-0.4091797,-0.1831055,0.04394531,0.25
2318,-14.75,209.5,0.1875,-0.7114258,-0.4375,-0.1782227,-0.203125,0.04248047,0.2348633
2322,14.6875,152.1875,-1.25,-0.6494141,-0.4804688,0.05957031,-0.21875,0.04003906,0.2241211
2326,41.5625,90.6875,-15.1875,-0.4868164,-0.3325195,0.06347656,-0.2246094,0.04248047,0.2172852
2330,49.75,51.0625,-25.5,-0.1767578,-0.2045898,-0.01660156,-0.2304688,0.04394531,0.2089844
2334,53.1875,34.8125,-23.3125,-0.1030273,-0.1499023,-0.06298828,-0.2329102,0.04638672,0.2050781
2338,60.125,23.9375,-0.8125,-0.1689453,-0.1035156,-0.04003906,-0.234375,0.04638672,0.2021484
2342,67.25,-0.1875,23.875,-0.347168,-0.03369141,-0.07470703,-0.2363281,0.05126953,0.2011719
2346,64.375,-38.5625,41.75,-0.2583008,0.08642578,-0.1474609,-0.234375,0.05859375,0.199707
2350,47.0625,-68.5625,51.875,-0.1689453,0.121582,-0.2631836,-0.2319336,0.06396484,0.1982422
2354,19.6875,-92,48.8125,-0.002441406,0.08251953,-0.3554688,-0.2255859,0.06982422,0.2036133
2358,-2.25,-97.1875,41.9375,0.01269531,-0.04541016,-0.3515625,-0.2172852,0.07519531,0.2104492
2362,-9.875,-105.875,31.75,-0.1499023,-0.1269531,-0.2744141,-0.2114258,0.07519531,0.2158203
2366,-6.375,-135.5,37.3125,-0.5141602,-0.2861328,-0.3359375,-0.203125,0.07617188,0.2226563
2370,5.5,-171.1875,42.1875,-0.3901367,-0.1694336,-0.359375,-0.1914063,0.08007813,0.2294922
2374,17,-187.6875,40.9375,-0.4594727,-0.3676758,-0.3862305,-0.1791992,0.08105469,0.2363281
2378,28.8125,-200.5,40.4375,-0.7036133,-0.3637695,-0.3554688,-0.1625977,0.08398438,0.2460938
2382,39.5625,-224.6875,56.5,-1.060547,-0.453125,-0.4477539,-0.1435547,0.09130859,0.2583008
2386,56,-272.75,83.5,-1.037109,-0.5541992,-0.7749023,-0.128418,0.09521484,0.2583008
2390,61.25,-290.375,97.8125,-0.6650391,-0.4296875,-0.8979492,-0.09960938,0.1010742,0.2636719
2394,46.25,-284.5625,95.0625,-0.730957,-0.387207,-0.9672852,-0.06982422,0.1088867,0.2729492
2398,21.375,-275.1875,77.75,-0.9594727,-0.355957,-0.8129883,-0.04980469,0.1123047,0.2705078
2403,2.6875,-297.1875,68.0625,-1.381836,-0.5541992,-0.9208984,-0.02099609,0.1152344,0.2729492
2407,5.25,-331.25,64.6875,-1.292969,-0.6977539,-0.894043,0.008300781,0.1137695,0.2714844
2411,21.6875,-341.875,74.875,-1.358887,-0.9077148,-0.9941406,0.02978516,0.1123047,0.269043
2415,44.5625,-341.75,87.9375,-1.265625,-0.8803711,-0.9785156,0.06640625,0.1123047,0.262207
2419,51.25,-322.0625,90.75,-1.304199,-0.7485352,-0.9091797,0.09863281,0.1152344,0.25
2423,43.3125,-313.1875,80.5625,-1.603027,-0.6748047,-0.7939453,0.1186523,0.1152344,0.2402344
2427,33.75,-333.3125,67.6875,-1.850586,-0.6860352,-0.7709961,0.1484375,0.1162109,0.2241211
2431,33.25,-354.3125,74.0625,-1.905273,-0.7949219,-0.7246094,0.1772461,0.1123047,0.2036133
2435,43.75,-365.0625,89.1875,-2.017578,-0.9155273,-0.7631836,0.1948242,0.1113281,0.1889648
2439,52.4375,-361.125,108.4375,-2.056152,-1.016602,-0.7939453,0.222168,0.1074219,0.1616211
2443,58.5625,-350.875,114.5625,-2.025391,-1.020508,-0.7592773,0.2460938,0.09765625,0.1303711
2447,66.125,-352.75,102.0625,-2.013672,-0.9038086,-0.7441406,0.2602539,0.09375,0.1123047
2451,63.375,-361.75,83.8125,-1.87793,-0.6552734,-0.7363281,0.2773438,0.08886719,0.07714844
2455,39.8125,-350.625,75.875,-1.738281,-0.4882813,-0.6015625,0.2915039,0.08105469,0.04199219
2459,18.125,-335.5625,80.8125,-1.819824,-0.5112305,-0.5322266,0.2973633,0.07861328,0.02294922
2463,3.1875,-332.625,80.4375,-2.075684,-0.6005859,-0.4438477,0.3022461,0.06640625,-0.01074219
2467,-1.8125,-344.625,81,-2.052246,-0.7211914,-0.394043,0.3081055,0.06005859,-0.04345703
2471,4.375,-352.0625,66.625,-1.866211,-0.6708984,-0.3666992,0.3071289,0.05371094,-0.06396484
2475,8.0625,-345.625,52.6875,-1.560059,-0.5073242,-0.3168945,0.3032227,0.04638672,-0.09765625
2479,5.1875,-321.4375,54.0625,-1.389648,-0.4882813,-0.3974609,0.2983398,0.04394531,-0.1289063
2483,2.4375,-280.875,69.25,-1.215332,-0.5541992,-0.3974609,0.2924805,0.03857422,-0.1484375
2487,6.5625,-245.6875,73.1875,-1.118652,-0.5151367,-0.3745117,0.2841797,0.03125,-0.1738281
2491,14.0625,-223.8125,55.9375,-1.021484,-0.5268555,-0.4707031,0.2758789,0.02490234,-0.1928711
2495,27.3125,-202.25,41,-0.7387695,-0.4648438,-0.574707,0.269043,0.02001953,-0.2080078
2499,37.125,-164.75,34.5625,-0.4633789,-0.4453125,-0.7133789,0.2602539,0.01367188,-0.2231445
2503,43.8125,-110.8125,32.6875,-0.1264648,-0.3754883,-0.8632813,0.253418,0.008789063,-0.2353516
2507,39.75,-35.125,30.9375,0.1791992,-0.2939453,-0.9326172,0.2475586,0.006347656,-0.2421875
2511,21.8125,51.0625,21.8125,0.2875977,-0.1772461,-0.9477539,0.2460938,0.002441406,-0.2436523
2515,-1.6875,129.6875,16.9375,0.06689453,-0.2006836,-1.001465,0.253418,0,-0.2353516
2519,-22.75,182.8125,8.8125,-0.1845703,-0.2509766,-1.043945,0.2592773,-0.0004882813,-0.2270508
2523,-43.8125,214.625,-15.625,-0.4091797,-0.3134766,-1.047852,0.2709961,0,-0.2119141
2527,-64.375,235.4375,-48.625,-0.5371094,-0.3950195,-1.086426,0.2817383,0.004882813,-0.1889648
2532,-76.0625,266.8125,-75.8125,-0.5795898,-0.5151367,-1.086426,0.2880859,0.01025391,-0.1713867
2536,-75.5,321.8125,-87.0625,-0.6342773,-0.6396484,-1.105469,0.2973633,0.02246094,-0.1484375
2540,-64.4375,392.3125,-79.8125,-0.8276367,-0.7250977,-1.174805,0.3056641,0.03515625,-0.112793
2544,-46.6875,449.5625,-75.5,-1.289063,-0.7792969,-1.228516,0.3105469,0.04150391,-0.08447266
2548,-29.6875,467.5,-78.0625,-1.738281,-0.7055664,-1.263184,0.3105469,0.04882813,-0.03955078
2552,-19.1875,443.8125,-98.3125,-2.400879,-0.8725586,-1.182617,0.3046875,0.05859375,0.004882813
2556,-4.0625,377.8125,-124.5,-2.583008,-0.9350586,-1.013184,0.2998047,0.06396484,0.03076172
2560,13,350.5,-119.75,-2.242188,-0.8457031,-0.859375,0.2880859,0.07763672,0.06494141
2564,19.625,372.5625,-84.4375,-2.025391,-0.7172852,-0.8901367,0.2709961,0.08886719,0.09472656
2568,15.375,413.25,-48.25,-1.901367,-0.5776367,-1.005371,0.2568359,0.09521484,0.1152344
2572,1.1875,462.9375,-21.375,-1.847168,-0.503418,-1.244141,0.2368164,0.09863281,0.1508789
2576,-15.625,501.625,-26,-2.114258,-0.534668,-1.413086,0.2045898,0.1010742,0.1821289
2580,-35.4375,478.5,-59.1875,-2.62207,-0.5854492,-1.543945,0.1831055,0.1025391,0.2050781
2584,-57.25,417.125,-93.4375,-2.648926,-0.519043,-1.424805,0.144043,0.1035156,0.2324219
2588,-85.875,358.5625,-106.25,-2.656738,-0.534668,-1.278809,0.1079102,0.1025391,0.2539063
2592,-105.8125,311.375,-94.875,-2.338867,-0.5893555,-1.15918,0.08691406,0.09863281,0.262207
2596,-115.5,287.8125,-65.5625,-1.943848,-0.5927734,-1.13623,0.05322266,0.09375,0.2729492
2600,-118.5625,289.75,-40.25,-1.633789,-0.6162109,-1.117188,0.02587891,0.08251953,0.2841797
2604,-111.0625,296.5,-9,-1.428223,-0.6669922,-1.109375,0.006835938,0.07617188,0.2910156
2608,-92.1875,291.75,7.4375,-1.560059,-0.7680664,-0.9824219,-0.02099609,0.06640625,0.293457
2612,-59.5,236.6875,-0.125,-1.436035,-0.7988281,-0.8862305,-0.04736328,0.05859375,0.293457
2616,-25.8125,198.125,4.625,-1.165039,-0.8725586,-0.809082,-0.06152344,0.05615234,0.2919922
2620,9.625,176.1875,13.9375,-0.9365234,-0.7832031,-0.7822266,-0.07714844,0.05517578,0.2895508
2624,29.625,176.5625,19.375,-0.4443359,-0.5854492,-0.8286133,-0.09375,0.05517578,0.2851563
2628,29.125,212.5,-8,-0.1147461,-0.3637695,-0.7822266,-0.1054688,0.06005859,0.2797852
2632,8.1875,232.75,-46.4375,-0.2851563,-0.2202148,-0.9360352,-0.1269531,0.06103516,0.2714844
2636,-17.625,223.5,-72,-0.3901367,-0.1655273,-0.8901367,-0.1484375,0.05859375,0.2636719
2640,-31.25,207.25,-78.75,-0.5214844,-0.2314453,-0.6748047,-0.1625977,0.05615234,0.2539063
2644,-24.125,187.125,-78.25,-0.5410156,-0.2006836,-0.3476563,-0.1831055,0.04882813,0.2470703
2648,-11.125,163.625,-55.125,-0.7036133,-0.1811523,-0.1513672,-0.199707,0.04394531,0.237793
2652,4.625,129.5,-30.1875,-0.7075195,-0.07226563,0.09033203,-0.2089844,0.04248047,0.230957
2656,18.0625,86.5625,-1.5,-0.6923828,0.02441406,0.06738281,-0.2163086,0.04003906,0.2241211
2661,16.0625,40,18,-0.5566406,0.1333008,0.07128906,-0.222168,0.04248047,0.2202148
2665,10,-8.25,29.625,-0.3432617,0.008789063,-0.06298828,-0.2236328,0.04394531,0.2172852
2669,11.875,-30.9375,35.75,0.04345703,-0.02197266,-0.1206055,-0.2211914,0.04736328,0.21875
2673,18.4375,-21.0625,32.9375,0.2758789,-0.1928711,-0.1362305,-0.21875,0.05126953,0.21875
2677,26.375,-15.625,25.0625,0.2104492,-0.1889648,-0.1938477,-0.2163086,0.05273438,0.2211914
2681,31.5625,-25.125,20.8125,0.1289063,-0.1420898,-0.2324219,-0.2128906,0.05761719,0.2202148
2685,28.5625,-37.3125,23.8125,0.02441406,-0.06445313,-0.2705078,-0.2114258,0.06103516,0.2202148
2689,14.4375,-55.4375,29.875,-0.08398438,-0.04541016,-0.324707,-0.2104492,0.06396484,0.2211914
2693,0.625,-76.5,33.3125,-0.1069336,-0.1035156,-0.359375,-0.203125,0.06494141,0.2241211
2697,-8.8125,-94.125,31.4375,-0.1845703,-0.1811523,-0.3359375,-0.1962891,0.06738281,0.2324219
2701,-10.5625,-122.875,33.25,-0.3085938,-0.2900391,-0.4091797,-0.1899414,0.06982422,0.2363281
2705,-7.3125,-143,30.3125,-0.262207,-0.3520508,-0.3398438,-0.1772461,0.06982422,0.2460938
2709,3.1875,-163.9375,31.5625,-0.3666992,-0.4882813,-0.4248047,-0.1650391,0.07128906,0.2514648
2713,22.25,-182,42.75,-0.4633789,-0.6357422,-0.5170898,-0.1557617,0.07275391,0.2553711
2717,46.625,-196.9375,55.75,-0.3203125,-0.6821289,-0.6206055,-0.1367188,0.07519531,0.2636719
2721,66.25,-186.9375,50.5625,-0.246582,-0.5229492,-0.5786133,-0.1176758,0.08398438,0.269043
2725,63.6875,-181.3125,31.25,-0.5795898,-0.2783203,-0.5708008,-0.1069336,0.08886719,0.269043
2729,45.375,-207,17.0625,-1.129883,-0.2241211,-0.609375,-0.08886719,0.09375,0.2729492
2733,37.0625,-271.625,48.6875,-1.439941,-0.5927734,-1.047852,-0.06640625,0.09765625,0.2744141
2737,53.25,-307.8125,86.8125,-0.6147461,-0.6787109,-1.174805,-0.04589844,0.1010742,0.2783203
2741,61.9375,-258.8125,96.625,-0.328125,-0.6123047,-1.109375,-0.01611328,0.1064453,0.2783203
2745,48.5,-217.1875,71.1875,-0.5605469,-0.355957,-0.9902344,0.009277344,0.1113281,0.2729492
2749,18.75,-215.625,33.375,-1.095215,-0.3325195,-0.9477539,0.02490234,0.1123047,0.2705078
2753,-0.75,-246.8125,14.5625,-1.327637,-0.355957,-0.8515625,0.04638672,0.1123047,0.2661133
2757,-10.875,-267.3125,13.1875,-1.443848,-0.4648438,-0.809082,0.06884766,0.1098633,0.262207
2761,-6.5625,-281.9375,26.75,-1.603027,-0.5854492,-0.8364258,0.08691406,0.1123047,0.2583008
2765,7.75,-293.3125,39.6875,-1.533203,-0.6240234,-0.8325195,0.1103516,0.1098633,0.2470703
2769,23.1875,-287.625,52.8125,-1.556152,-0.6630859,-0.7939453,0.1367188,0.1088867,0.2333984
2773,35.125,-285.875,65.625,-1.65332,-0.6396484,-0.7939453,0.1547852,0.1098633,0.2255859
2777,37.125,-295.6875,63.3125,-1.765625,-0.5581055,-0.7978516,0.1782227,0.1064453,0.2080078
2781,30.4375,-320.0625,49.875,-1.82373,-0.5151367,-0.824707,0.199707,0.1049805,0.1875
2785,21.25,-334.375,44.4375,-1.819824,-0.5229492,-0.8129883,0.215332,0.1010742,0.1699219
2790,9.875,-343.25,51,-1.79248,-0.5620117,-0.8168945,0.2353516,0.09863281,0.1450195
2794,-0.3125,-344.25,59.75,-1.668457,-0.534668,-0.8056641,0.2558594,0.09521484,0.1166992
2798,-6.1875,-338.3125,67.3125,-1.57959,-0.6162109,-0.7441406,0.2666016,0.09130859,0.1000977
2802,0.75,-338,63.5625,-1.567871,-0.6513672,-0.7246094,0.2832031,0.08398438,0.0703125
2806,2.375,-331.6875,54.5625,-1.529297,-0.6435547,-0.6977539,0.2915039,0.07763672,0.0390625
2810,7.3125,-326.9375,45.8125,-1.583496,-0.6669922,-0.609375,0.2998047,0.07519531,0.01855469
2814,21.1875,-325.5,37.8125,-1.479004,-0.6630859,-0.4477539,0.3022461,0.06738281,-0.01220703
2818,35.3125,-304.875,41.75,-1.351074,-0.5541992,-0.2055664,0.3046875,0.0625,-0.04345703
2822,37.0625,-283.75,45.1875,-1.370117,-0.355957,-0.06298828,0.3046875,0.06005859,-0.0625
2826,28.75,-274.4375,46.0625,-1.401367,-0.3056641,0.05175781,0.3046875,0.05517578,-0.08984375
2830,25,-271.75,52,-1.405273,-0.3325195,0.02880859,0.2998047,0.04980469,-0.1166992
2834,14.1875,-262.1875,54.6875,-1.23877,-0.2978516,0.04785156,0.2949219,0.04638672,-0.1318359
2838,6.25,-244.0625,51.625,-1.165039,-0.3481445,0.1020508,0.2880859,0.04003906,-0.15625
2842,9.0625,-234.25,47,-1.125977,-0.4570313,0.07128906,0.2807617,0.03613281,-0.1796875
2846,27,-220.1875,45.125,-0.9287109,-0.6044922,0.005859375,0.2734375,0.03125,-0.1918945
2850,54.75,-192,48.25,-0.6884766,-0.5854492,-0.1362305,0.2651367,0.02246094,-0.2109375
2854,74.3125,-148.4375,50.125,-0.4555664,-0.519043,-0.2900391,0.2558594,0.01757813,-0.2270508
2858,84.875,-102.8125,46.1875,-0.4013672,-0.4492188,-0.5014648,0.2509766,0.01123047,-0.2353516
2862,82.75,-63.375,36.8125,-0.246582,-0.3286133,-0.6938477,0.2460938,0.002441406,-0.2407227
2866,58.6875,-9.1875,27.3125,-0.02587891,-0.1420898,-0.7978516,0.2436523,-0.005859375,-0.2475586
2870,14.5,54.5,21.1875,0.03955078,-0.03369141,-0.859375,0.2436523,-0.008300781,-0.2490234
2874,-31.0625,110.75,16.5625,-0.1806641,-0.1381836,-0.9785156,0.2475586,-0.009277344,-0.2421875
2878,-68.6875,142.375,2.5625,-0.362793,-0.2509766,-1.113281,0.2558594,-0.008300781,-0.230957
2882,-102.6875,167.5,-26.25,-0.378418,-0.3950195,-1.128418,0.2626953,-0.004394531,-0.2231445
2886,-119.125,206.3125,-64.125,-0.328125,-0.5620117,-1.043945,0.2724609,0.00390625,-0.206543
2890,-120.8125,261.125,-88.625,-0.4868164,-0.7133789,-0.9980469,0.2817383,0.01855469,-0.1850586
2894,-112.625,316.625,-101.6875,-0.8164063,-0.8144531,-0.9477539,0.2890625,0.02734375,-0.1660156
2898,-98,352.5,-106.4375,-1.234863,-0.8920898,-0.9130859,0.2973633,0.04248047,-0.1318359
2902,-80.375,377.625,-98.3125,-1.501953,-0.8535156,-0.8325195,0.3032227,0.05371094,-0.09667969
2906,-73.875,396.75,-88.5625,-1.711426,-0.7055664,-0.809082,0.3032227,0.06396484,-0.06787109
2910,-80.1875,408.125,-77,-1.908691,-0.5893555,-0.7978516,0.3007813,0.07275391,-0.02587891
2914,-95.875,405.3125,-72.1875,-2.137695,-0.5737305,-0.7749023,0.2973633,0.08105469,0.01074219
2919,-109.3125,387.875,-73.5,-2.381836,-0.7211914,-0.7094727,0.2890625,0.08398438,0.03759766
2923,-102.3125,350.5,-73.75,-2.563965,-0.9658203,-0.559082,0.2773438,0.08886719,0.07568359
2927,-76.5625,332.9375,-57.875,-2.253906,-0.9931641,-0.4477539,0.2617188,0.09228516,0.1083984
2931,-61.1875,355,-30.9375,-2.052246,-0.7988281,-0.5478516,0.2509766,0.09228516,0.1313477
2935,-64.4375,382.125,-7.3125,-1.990234,-0.6396484,-0.7939453,0.230957,0.09130859,0.1616211
2939,-76.25,401.1875,-3.375,-2.222656,-0.6552734,-0.8325195,0.2070313,0.08886719,0.1914063
2943,-78.25,350.875,-20.625,-2.687988,-0.8457031,-0.9130859,0.1904297,0.08642578,0.2089844
2947,-67,289.3125,-37.5625,-2.296387,-0.7680664,-0.7285156,0.1630859,0.08398438,0.2324219
2951,-68.375,278.875,-26.5625,-1.936035,-0.6821289,-0.7246094,0.1401367,0.08007813,0.2485352
2955,-75.1875,282.375,-11.625,-1.730469,-0.5776367,-0.7861328,0.1210938,0.07617188,0.2592773
2959,-82,285.5,0.375,-1.552246,-0.6162109,-0.84375,0.09765625,0.07128906,0.2729492
2963,-70.5,291.375,25.5625,-1.32373,-0.7094727,-0.9287109,0.06982422,0.06396484,0.2841797
2967,-47.3125,318.5,46,-1.052734,-0.6591797,-0.9360352,0.05566406,0.05859375,0.2880859
2971,-41,329.125,49.5625,-1.15332,-0.4921875,-1.070801,0.0234375,0.05517578,0.2949219
2975,-47.25,311.875,35.75,-1.060547,-0.3833008,-1.08252,-0.005859375,0.05273438,0.2973633
2979,-59.875,288.9375,27,-0.8896484,-0.3598633,-1.132324,-0.02587891,0.05126953,0.2973633
2983,-68.375,283.25,9.75,-0.5874023,-0.3520508,-1.109375,-0.05078125,0.04150391,0.2963867
2987,-76.875,293.625,-2.5,-0.4287109,-0.4067383,-1.205566,-0.08056641,0.03759766,0.2949219
2991,-83.9375,312.25,-20.75,-0.3085938,-0.371582,-1.248047,-0.09960938,0.03125,0.2895508
2995,-85.8125,327.375,-20.5625,-0.4985352,-0.4179688,-1.166992,-0.1303711,0.02148438,0.2827148
2999,-78.125,314.6875,-16.0625,-0.7270508,-0.3793945,-0.9326172,-0.1601563,0.01367188,0.2675781
3003,-66.8125,272.1875,-10,-1.025391,-0.371582,-0.6015625,-0.1772461,0.008789063,0.262207
3007,-53.0625,206.75,-9.625,-1.12207,-0.324707,-0.2167969,-0.199707,0.002441406,0.2460938
3011,-39.75,129.1875,-19,-0.9091797,-0.2314453,-0.02441406,-0.2138672,-0.001953125,0.2363281
3015,-26.25,74.875,-20.25,-0.5292969,-0.2470703,0.01367188,-0.21875,-0.003417969,0.2324219
3019,-9.6875,54.5,-17.6875,-0.246582,-0.2392578,-0.04736328,-0.2255859,-0.004394531,0.2270508
3023,3.8125,43.5625,-7.125,-0.1650391,-0.1889648,-0.1362305,-0.2270508,-0.006835938,0.2226563
3027,13.125,34.75,7.4375,-0.07617188,-0.1269531,-0.1323242,-0.2304688,-0.008300781,0.2211914
3031,17.3125,28.625,22.25,-0.06835938,-0.08007813,-0.08984375,-0.2329102,-0.006835938,0.2211914
3035,19.375,14.125,33.9375,-0.08398438,-0.03369141,-0.03222656,-0.234375,-0.001953125,0.2172852
3039,18.3125,-6.25,41.6875,-0.1420898,-0.04541016,0.02490234,-0.234375,0,0.2172852
3043,18.5625,-34.6875,43.625,-0.1303711,-0.06445313,0.03662109,-0.2319336,0.006347656,0.2202148
3048,16.9375,-57.375,41.0625,-0.1728516,-0.1191406,0.04052734,-0.2280273,0.01025391,0.2211914
3052,18.1875,-84.25,31.8125,-0.2773438,-0.1499023,0.08251953,-0.2246094,0.01123047,0.2255859
3056,26.125,-115.4375,22.5,-0.4130859,-0.2202148,0.08642578,-0.2172852,0.01611328,0.2294922
3060,42.5625,-153.5,23.875,-0.5371094,-0.3325195,-0.02832031,-0.2080078,0.02001953,0.2392578
3064,64.3125,-187.5,30.6875,-0.4365234,-0.3911133,-0.2128906,-0.1962891,0.02392578,0.2431641
3068,78.25,-196.6875,32.1875,-0.4287109,-0.3989258,-0.3051758,-0.1831055,0.03271484,0.2539063
3072,88,-203.9375,30,-0.6455078,-0.3754883,-0.4013672,-0.1640625,0.04003906,0.2607422
3076,95.625,-241.0625,49.3125,-0.9169922,-0.5541992,-0.7167969,-0.1508789,0.04638672,0.2675781
3080,113.375,-282.875,53.9375,-0.5102539,-0.581543,-0.9326172,-0.1269531,0.05615234,0.2729492
3084,115.875,-282.1875,42.1875,-0.3745117,-0.5,-1.105469,-0.09960938,0.06982422,0.2797852
3088,94.4375,-261.25,20.625,-0.4555664,-0.3364258,-1.117188,-0.08203125,0.07861328,0.2827148
3092,69.3125,-259.5625,14.375,-0.9248047,-0.503418,-1.248047,-0.05810547,0.08642578,0.2841797
3096,67.5,-296,32.3125,-0.6728516,-0.5893555,-1.482422,-0.03173828,0.09130859,0.2841797
3100,63.6875,-266.8125,34.625,-0.3125,-0.503418,-1.33252,-0.01269531,0.09521484,0.28125
3104,48.375,-225.5625,33.5625,-0.6689453,-0.4492188,-1.259277,0.01171875,0.1010742,0.2773438
3108,32,-217.125,25.25,-1.11084,-0.4453125,-1.121094,0.03662109,0.1025391,0.2744141
3112,18.625,-238.9375,16.375,-1.432129,-0.46875,-0.9824219,0.04882813,0.1064453,0.2705078
3116,14.3125,-265,18.625,-1.517578,-0.565918,-0.8979492,0.07128906,0.1074219,0.262207
3120,20.625,-278.125,34.0625,-1.525391,-0.6513672,-0.8364258,0.09375,0.1049805,0.2553711
3124,34.625,-282.4375,47.1875,-1.533203,-0.6977539,-0.8017578,0.1118164,0.1049805,0.2470703
3128,45.4375,-277.4375,60.75,-1.556152,-0.7055664,-0.7514648,0.1391602,0.1074219,0.2324219
3132,56.6875,-279.9375,60.75,-1.695801,-0.7290039,-0.7285156,0.1616211,0.1049805,0.21875
3136,64.9375,-297.8125,54.625,-1.788574,-0.6938477,-0.7094727,0.1772461,0.1074219,0.2050781
3140,70.9375,-314.0625,53.3125,-1.730469,-0.6552734,-0.7324219,0.2021484,0.1074219,0.1806641
3144,71.25,-312.3125,63.875,-1.641602,-0.6083984,-0.6899414,0.222168,0.1074219,0.1601563
3148,66,-309.1875,77.5,-1.680176,-0.5776367,-0.7133789,0.2353516,0.1064453,0.1396484
3152,56.1875,-309.3125,87.5625,-1.603027,-0.550293,-0.7016602,0.2543945,0.1010742,0.1152344
3156,41.375,-309.5,83.5625,-1.665039,-0.5698242,-0.6513672,0.2700195,0.09619141,0.08691406
3160,36.6875,-328.625,67.75,-1.734375,-0.6513672,-0.6132813,0.2783203,0.09130859,0.06640625
3164,44,-336.625,56.4375,-1.513672,-0.6357422,-0.4936523,0.2900391,0.08642578,0.03515625
3168,44.625,-306.875,56.0625,-1.479004,-0.5737305,-0.4208984,0.2973633,0.08105469,0.00390625
3172,38.1875,-285.0625,60.1875,-1.684082,-0.5385742,-0.3168945,0.3007813,0.07519531,-0.01757813
3177,41.1875,-291.3125,63.0625,-1.866211,-0.6201172,-0.1743164,0.3022461,0.06982422,-0.04345703
3181,49.625,-300.625,68.4375,-1.665039,-0.5620117,-0.09375,0.3032227,0.06494141,-0.07324219
3185,41.5625,-290.4375,63.9375,-1.541016,-0.3833008,0.02490234,0.3022461,0.05615234,-0.09228516
3189,26.6875,-278.5625,63.1875,-1.420898,-0.4140625,-0.05517578,0.2973633,0.04980469,-0.1210938
3193,13.25,-255.4375,63.5,-1.269531,-0.3911133,-0.01660156,0.2924805,0.04394531,-0.1469727
3197,11.0625,-234.5625,68.3125,-1.149414,-0.5,-0.04736328,0.2866211,0.03857422,-0.1616211
3201,23.0625,-214.3125,71.8125,-1.07959,-0.6552734,-0.09765625,0.2807617,0.03515625,-0.1806641
3205,49.375,-196.8125,75.625,-0.8007813,-0.7172852,-0.2783203,0.2700195,0.02490234,-0.1987305
3209,75.125,-160.875,75.9375,-0.4868164,-0.6513672,-0.5283203,0.2651367,0.01757813,-0.2148438
3213,87.9375,-119.6875,68.6875,-0.2231445,-0.534668,-0.7978516,0.2592773,0.006347656,-0.2270508
3217,80.5625,-65.6875,56.0625,0.1289063,-0.3637695,-1.040039,0.2558594,-0.005859375,-0.2368164
3221,48.6875,6.75,36.0625,0.3769531,-0.1850586,-1.128418,0.2519531,-0.009277344,-0.2392578
3225,9,80.25,17.5,0.2294922,-0.2006836,-1.132324,0.2543945,-0.01708984,-0.237793
3229,-23.0625,127.0625,-3.9375,-0.06445313,-0.2978516,-1.132324,0.2617188,-0.01464844,-0.2299805
3233,-50.4375,158.875,-32.9375,-0.1689453,-0.3208008,-1.066895,0.2666016,-0.01171875,-0.2216797
3237,-76.0625,192.6875,-64.125,-0.2773438,-0.3676758,-1.009277,0.2758789,-0.005859375,-0.206543
3241,-91.0625,229.4375,-87.5,-0.4750977,-0.4882813,-0.9785156,0.2832031,0.004882813,-0.1889648
3245,-96.75,270.5,-98.125,-0.6494141,-0.5737305,-0.9902344,0.2880859,0.01367188,-0.1699219
3249,-98.0625,320.1875,-99.8125,-0.862793,-0.6357422,-0.9902344,0.2973633,0.02734375,-0.1401367
3253,-100.9375,356.75,-108.25,-1.312012,-0.6977539,-1.013184,0.3046875,0.04003906,-0.1088867
3257,-98.125,360.5,-120.5625,-1.603027,-0.7910156,-0.9863281,0.3071289,0.04980469,-0.08154297
3261,-88.5625,377.875,-110.5,-1.595215,-0.8339844,-0.9208984,0.3056641,0.06396484,-0.04492188
3265,-77.6875,427.75,-75.75,-1.560059,-0.7563477,-1.020996,0.2998047,0.07519531,-0.005371094
3269,-78.25,486,-42.0625,-1.62207,-0.6240234,-1.228516,0.2963867,0.07763672,0.02832031
3273,-92.875,539.75,-22,-1.761719,-0.5385742,-1.505859,0.2832031,0.08007813,0.07177734
3277,-113.875,572.3125,-26.125,-2.133789,-0.5893555,-1.770996,0.2617188,0.07763672,0.1274414
3281,-134.5,562.6875,-48.625,-2.656738,-0.7172852,-1.786621,0.2402344,0.07617188,0.1601563
3285,-144.625,473,-88.875,-3.234375,-0.8920898,-1.598145,0.2045898,0.07373047,0.2036133
3289,-127.9375,360.0625,-109.125,-2.881348,-0.9311523,-1.290039,0.1699219,0.07128906,0.2333984
3293,-100.625,330.5,-89.6875,-2.354492,-0.9233398,-1.094238,0.1484375,0.06738281,0.2485352
3297,-74.5625,344.375,-32.875,-2.110352,-0.8144531,-1.232422,0.1166992,0.06396484,0.2651367
3301,-59.375,365.5,10.4375,-1.928223,-0.6005859,-1.328613,0.08447266,0.05859375,0.28125
3306,-59.9375,371.625,44.5,-1.924316,-0.4648438,-1.455566,0.06152344,0.05273438,0.2880859
3310,-74.875,354.25,51.125,-1.858398,-0.2744141,-1.447754,0.02832031,0.04882813,0.2963867
3314,-102.25,307.875,22.9375,-1.866211,-0.2783203,-1.293945,-0.004394531,0.04003906,0.3017578
3318,-113.5,245,-6.0625,-1.645508,-0.4257813,-1.105469,-0.02246094,0.03515625,0.3032227
3322,-101.9375,204.5,-5.8125,-1.308105,-0.6630859,-0.9785156,-0.04492188,0.02001953,0.3056641
3326,-68.4375,192.375,5.125,-0.8935547,-0.7641602,-0.8979492,-0.06640625,0.01123047,0.3032227
3330,-33,208.375,12.75,-0.5683594,-0.6669922,-0.9091797,-0.078125,0.01025391,0.2988281
3334,-6.3125,224.5625,20.75,-0.4594727,-0.5307617,-0.9941406,-0.09863281,0.007324219,0.2949219
3338,5.0625,230.125,20.625,-0.4287109,-0.355957,-1.005371,-0.1201172,0.007324219,0.2895508
3342,3.9375,219.9375,20.625,-0.3745117,-0.2314453,-1.066895,-0.1352539,0.01025391,0.2851563
3346,1.5,216.0625,15.5,-0.2348633,-0.1928711,-1.020996,-0.1533203,0.01123047,0.2729492
3350,-3.6875,214.75,-4,-0.1845703,-0.04882813,-0.9902344,-0.1723633,0.01367188,0.2636719
3354,-36.1875,208.375,-40.875,-0.296875,0.2148438,-1.020996,-0.1855469,0.01123047,0.2539063
3358,-85.75,189.125,-65.75,-0.4946289,0.1293945,-0.8515625,-0.203125,0.00390625,0.2446289
3362,-105.4375,157.875,-56.625,-0.5722656,-0.1459961,-0.6245117,-0.2163086,-0.006835938,0.2348633
3366,-87.375,136.5625,-34.375,-0.3823242,-0.3134766,-0.2978516,-0.2246094,-0.015625,0.2280273
3370,-58,128.4375,-5.4375,-0.347168,-0.3208008,-0.1630859,-0.2363281,-0.0234375,0.2202148
3374,-33.125,111,17.9375,-0.3320313,-0.3598633,-0.02832031,-0.2446289,-0.02587891,0.2104492
3378,-15.25,92.6875,33.0625,-0.2890625,-0.5307617,0.1132813,-0.2470703,-0.02685547,0.2036133
3382,8.875,66.375,20,-0.2890625,-0.3676758,0.2675781,-0.2519531,-0.02587891,0.1982422
3386,29.375,19.3125,3.5,-0.3935547,-0.3286133,0.3330078,-0.2578125,-0.02197266,0.1953125
3390,46.25,-24.8125,-1.0625,-0.3393555,-0.3095703,0.3173828,-0.2578125,-0.02050781,0.1928711
3394,60.5,-53.0625,8.8125,-0.3007813,-0.2822266,0.2250977,-0.2568359,-0.01953125,0.199707
3398,67.875,-76.3125,21.375,-0.2851563,-0.2163086,0.1171875,-0.2509766,-0.01074219,0.2021484
3402,68.0625,-97.875,30.75,-0.2851563,-0.1381836,0.04785156,-0.2485352,-0.006835938,0.2050781
3406,61.5625,-121.1875,25.8125,-0.4208984,-0.08398438,0.02490234,-0.2412109,0.001464844,0.2133789
3410,54.6875,-156.8125,16.875,-0.6303711,-0.1035156,-0.04736328,-0.2294922,0.004882813,0.2211914
3414,52.25,-196.3125,9.9375,-0.8237305,-0.2124023,-0.112793,-0.222168,0.01025391,0.2270508
3418,62.6875,-246.5,12.875,-0.8896484,-0.3911133,-0.3208008,-0.2055664,0.01367188,0.2402344
3422,85.125,-278.0625,14.3125,-0.8432617,-0.4960938,-0.4667969,-0.1831055,0.02148438,0.2553711
3426,104.375,-293.5625,33.4375,-0.7617188,-0.503418,-0.6977539,-0.1674805,0.02734375,0.262207
3430,114,-292.75,44.25,-0.7929688,-0.453125,-0.8364258,-0.1376953,0.03857422,0.2729492
3435,110,-301.6875,49.75,-1.021484,-0.46875,-1.08252,-0.1113281,0.04882813,0.28125
3439,110.75,-328.75,60.25,-1.075684,-0.5424805,-1.324707,-0.09130859,0.05761719,0.2841797
3443,111.3125,-347.1875,78.625,-0.9594727,-0.5541992,-1.520996,-0.05664063,0.06884766,0.2910156
3447,97.4375,-339.5625,94.1875,-0.7387695,-0.4335938,-1.578613,-0.02246094,0.08007813,0.2851563
3451,63.5625,-305.75,81.0625,-0.6962891,-0.3364258,-1.524902,0,0.08740234,0.2851563
3455,33.6875,-287.25,45.25,-0.9633789,-0.402832,-1.475098,0.03173828,0.08984375,0.2797852
3459,19.25,-285.25,22.6875,-1.292969,-0.5229492,-1.344238,0.05957031,0.09228516,0.2744141
3463,22.25,-305.125,22.75,-1.501953,-0.6240234,-1.359375,0.07714844,0.09228516,0.2705078
3467,33.875,-311.9375,34.0625,-1.467285,-0.6748047,-1.240234,0.1044922,0.09375,0.2583008
3471,44.1875,-312,49.875,-1.537109,-0.6787109,-1.274902,0.1333008,0.09375,0.2460938
3475,48.5625,-296.0625,64.875,-1.48291,-0.6435547,-1.178711,0.1508789,0.09375,0.2324219
3479,43.625,-270.3125,62.875,-1.471191,-0.5893555,-1.047852,0.1782227,0.09375,0.2172852
3483,47.9375,-281,43.5625,-1.75,-0.6083984,-0.9477539,0.199707,0.09228516,0.1967773
3487,54,-304.6875,39.25,-1.75,-0.6123047,-0.8554688,0.2119141,0.09375,0.1821289
3491,65.375,-327.1875,42.875,-1.70752,-0.6357422,-0.84375,0.2329102,0.09228516,0.15625
3495,76.625,-322.6875,64.375,-1.541016,-0.6513672,-0.7363281,0.2509766,0.09130859,0.1303711
3499,92.0625,-304.625,85.875,-1.54834,-0.6669922,-0.644043,0.2626953,0.08886719,0.1083984
3503,108.3125,-310,86.3125,-1.963379,-0.7563477,-0.559082,0.2783203,0.08496094,0.07714844
3507,122.25,-348.125,73.5,-1.974609,-0.6396484,-0.609375,0.2900391,0.08007813,0.04589844
3511,102.4375,-351,66.8125,-1.649414,-0.2666016,-0.6015625,0.2963867,0.07617188,0.01855469
3515,50.875,-327.5,72.5,-1.479004,-0.1113281,-0.394043,0.3022461,0.06982422,-0.01367188
3519,18.4375,-307.6875,80.4375,-1.595215,-0.355957,-0.1669922,0.3046875,0.06103516,-0.04638672
3523,23.5,-306.1875,92.8125,-1.595215,-0.6162109,-0.005371094,0.3056641,0.05761719,-0.06542969
3527,43.1875,-291.3125,97.3125,-1.413086,-0.6083984,0.05957031,0.3056641,0.04492188,-0.09521484
3531,47.6875,-267.8125,95.9375,-1.315918,-0.5463867,-0.09765625,0.3032227,0.03369141,-0.125
3535,41.5625,-245.875,85.9375,-1.087402,-0.4101563,-0.2055664,0.2973633,0.02880859,-0.1416016
3539,15.75,-223.75,64.9375,-1.021484,-0.2314453,-0.324707,0.2915039,0.01757813,-0.1630859
3543,-8.25,-209.875,53.625,-1.001953,-0.3793945,-0.3632813,0.2832031,0.01269531,-0.1821289
3547,-12.25,-188.5625,58.5,-0.7929688,-0.5463867,-0.4208984,0.2783203,0.01025391,-0.1928711
3551,-0.875,-151.8125,66.4375,-0.5024414,-0.6435547,-0.5517578,0.2709961,0.004882813,-0.2109375
3555,9.875,-101.25,63.5,-0.1420898,-0.5463867,-0.7207031,0.2641602,-0.0004882813,-0.2216797
3559,6.75,-40.4375,48.8125,0.1367188,-0.4179688,-0.878418,0.2602539,-0.005859375,-0.2231445
3564,-14.75,27.75,27.5,0.2412109,-0.2744141,-0.9130859,0.2617188,-0.009277344,-0.2255859
3568,-39.0625,88.8125,8.5,0.03955078,-0.3017578,-0.9091797,0.2641602,-0.009277344,-0.2246094
3572,-54.3125,129,-9.1875,-0.1845703,-0.3637695,-0.8979492,0.2666016,-0.006835938,-0.2163086
3576,-65.375,161.3125,-29.3125,-0.28125,-0.3833008,-0.8325195,0.2749023,-0.003417969,-0.2055664
3580,-73.375,194.1875,-48.1875,-0.3862305,-0.4179688,-0.8286133,0.2832031,0.00390625,-0.1875
3584,-81.75,230.375,-61.625,-0.5175781,-0.4067383,-0.84375,0.2880859,0.01025391,-0.1767578
3588,-91,267.25,-73.75,-0.7231445,-0.4375,-0.840332,0.2963867,0.02148438,-0.1494141
3592,-100.1875,293.75,-83.3125,-1.005859,-0.5112305,-0.859375,0.3032227,0.03125,-0.1225586
3596,-99.75,311.3125,-88.1875,-1.184082,-0.6318359,-0.8286133,0.3056641,0.03857422,-0.1020508
3600,-93.125,340,-78.5,-1.242188,-0.6552734,-0.8286133,0.3071289,0.04980469,-0.06787109
3604,-92.3125,351.5625,-88.5625,-1.637695,-0.6669922,-0.8671875,0.3071289,0.05859375,-0.03125
3608,-96.4375,338,-102.6875,-1.800293,-0.6708984,-0.8710938,0.3046875,0.06494141,-0.005371094
3612,-99.4375,334.0625,-102,-1.773438,-0.7172852,-0.84375,0.2963867,0.07519531,0.03076172
3616,-98.625,365.375,-77.125,-1.699707,-0.7680664,-0.8823242,0.2856445,0.08251953,0.06103516
3620,-93.875,405.4375,-46.3125,-1.839355,-0.8183594,-0.9824219,0.2758789,0.08496094,0.08691406
3624,-80.4375,413.3125,-45.3125,-2.280762,-0.8803711,-1.066895,0.2568359,0.08642578,0.1259766
3628,-77.4375,389.25,-55.625,-2.424316,-0.7871094,-1.055664,0.2353516,0.08740234,0.1616211
3632,-83.5,374,-61.125,-2.300293,-0.7871094,-1.070801,0.2177734,0.08740234,0.1831055
3636,-78.375,385.1875,-54.25,-2.106445,-0.8764648,-1.086426,0.1914063,0.08740234,0.2104492
3640,-57.25,417.1875,-17.125,-2.029297,-0.9541016,-1.174805,0.1582031,0.08496094,0.2333984
3644,-35.6875,458.3125,21.9375,-1.819824,-0.7680664,-1.351563,0.1357422,0.08398438,0.25
3648,-28.6875,482.1875,43.625,-2.013672,-0.6162109,-1.528809,0.09521484,0.08007813,0.2705078
3652,-45.875,437.875,26.8125,-2.226563,-0.4067383,-1.594238,0.05712891,0.07519531,0.28125
3656,-87.3125,358.625,-20.9375,-2.040527,-0.3095703,-1.532715,0.02832031,0.07519531,0.2895508
3660,-142.5,305.1875,-68.0625,-1.517578,-0.3017578,-1.38623,-0.004394531,0.06396484,0.2949219
3664,-177.75,286.4375,-75.375,-1.07959,-0.5268555,-1.378906,-0.03515625,0.04736328,0.2963867
3668,-174.9375,306.25,-51.625,-0.862793,-0.7753906,-1.270996,-0.05566406,0.03515625,0.2988281
3672,-133.25,325.5,11.0625,-0.796875,-0.8647461,-1.236328,-0.08789063,0.01855469,0.2963867
3676,-86.9375,350.75,67.375,-0.730957,-0.7792969,-1.125,-0.1186523,0.007324219,0.2895508
3680,-48.9375,340.1875,71.125,-0.8510742,-0.6162109,-1.009277,-0.1401367,0.004882813,0.2773438
3684,-43.375,273.8125,23.0625,-0.9130859,-0.3637695,-0.9633789,-0.168457,0.00390625,0.2651367
3688,-61.3125,205.4375,-30.9375,-0.4946289,-0.2861328,-0.9052734,-0.1899414,0.001464844,0.2539063
3693,-73.75,195.125,-70.1875,0.008789063,-0.3754883,-0.824707,-0.2006836,-0.004394531,0.2470703
3697,-68.8125,218.6875,-81.5,0.1210938,-0.4570313,-0.7822266,-0.2172852,-0.01464844,0.2333984
3701,-47.1875,235.8125,-66.875,-0.03320313,-0.4257813,-0.7514648,-0.234375,-0.02685547,0.21875
3705,-24.4375,248.9375,-26.25,-0.2851563,-0.2900391,-0.5400391,-0.2470703,-0.03173828,0.2080078
3709,-3.375,230.25,15.25,-0.7543945,-0.2783203,-0.2475586,-0.2626953,-0.03320313,0.1889648
3713,23.9375,169.4375,33.375,-0.9365234,-0.2431641,0.02490234,-0.2734375,-0.03173828,0.1708984
3717,48,107.9375,35.5,-0.878418,-0.1538086,0.2709961,-0.2817383,-0.02832031,0.1630859
3721,58.375,49.5625,33.5625,-0.6962891,-0.02197266,0.2060547,-0.2851563,-0.02050781,0.1572266
3725,53.8125,-1.8125,35,-0.4985352,0.06689453,0.09423828,-0.2890625,-0.01464844,0.1533203
3729,37.5625,-46,44.875,-0.2001953,0.06689453,-0.03222656,-0.2866211,-0.01074219,0.1533203
3733,24.5625,-52.0625,46.375,0.159668,-0.01025391,0.01708984,-0.2817383,-0.004394531,0.1586914
3737,24.5625,-46,35.375,0.1484375,-0.1113281,0.005859375,-0.2817383,-0.0004882813,0.1616211
3741,29.625,-59.25,20.0625,-0.1186523,-0.07226563,0.02490234,-0.2768555,0.002441406,0.1630859
3745,28.0625,-93,10.625,-0.3588867,-0.01806641,0.009765625,-0.2734375,0.007324219,0.1699219
3749,25.9375,-137.4375,17.75,-0.4326172,-0.08789063,-0.1206055,-0.2675781,0.01025391,0.1762695
3753,32.25,-169.875,26.25,-0.3242188,-0.1577148,-0.2016602,-0.2617188,0.01269531,0.1845703
3757,41.75,-195.875,38.25,-0.3745117,-0.2163086,-0.3901367,-0.2485352,0.01611328,0.1982422
3761,47.125,-201.8125,40.5,-0.3320313,-0.1889648,-0.4282227,-0.234375,0.02246094,0.2104492
3765,44.625,-208.0625,43.875,-0.5141602,-0.2548828,-0.5708008,-0.2236328,0.02636719,0.2211914
3769,52.3125,-241,43.75,-0.5834961,-0.355957,-0.7055664,-0.206543,0.03125,0.2333984
3773,61.625,-271.375,48.5625,-0.5371094,-0.402832,-0.8476563,-0.1865234,0.04248047,0.2470703
3777,69.875,-295.5625,50.1875,-0.6376953,-0.4609375,-1.043945,-0.168457,0.04638672,0.2553711
3781,68.3125,-301.1875,47.3125,-0.5253906,-0.4414063,-1.090332,-0.1411133,0.05371094,0.2675781
3785,61.3125,-288.9375,43.9375,-0.5253906,-0.519043,-1.170898,-0.112793,0.0625,0.2773438
3789,70.125,-293.5625,35.8125,-0.5756836,-0.5893555,-1.263184,-0.09472656,0.06494141,0.28125
3793,73.6875,-288.9375,31.0625,-0.730957,-0.5927734,-1.270996,-0.06494141,0.07275391,0.2866211
3797,71,-290.0625,37.3125,-0.9399414,-0.5966797,-1.340332,-0.03759766,0.08105469,0.2851563
3801,69.1875,-290.4375,43.5,-1.009766,-0.6162109,-1.282715,-0.02246094,0.08496094,0.2866211
3805,68.5625,-285,47.125,-0.9985352,-0.6123047,-1.232422,0.01074219,0.09228516,0.28125
3809,70.4375,-281.0625,45.3125,-1.172852,-0.6318359,-1.147949,0.03808594,0.09765625,0.2773438
3813,69.3125,-287.25,38.5,-1.447754,-0.6708984,-1.193848,0.05322266,0.1000977,0.2729492
3817,69,-298.5,41.375,-1.661133,-0.7485352,-1.166992,0.08203125,0.1064453,0.2607422
3822,76.75,-312.875,56.25,-1.723145,-0.8066406,-1.113281,0.1103516,0.1098633,0.2460938
3826,83.1875,-315.125,79.625,-1.637695,-0.7949219,-1.043945,0.1308594,0.1113281,0.2324219
3830,86.3125,-315.8125,95.1875,-1.687988,-0.7832031,-1.020996,0.1582031,0.1137695,0.2143555
3834,85.0625,-324.375,98.8125,-1.757813,-0.7871094,-1.066895,0.1855469,0.1152344,0.1928711
3838,75.6875,-326.1875,95.125,-1.761719,-0.7792969,-1.005371,0.2021484,0.1113281,0.1762695
3842,72.0625,-337.75,87.5,-1.843262,-0.8183594,-0.9863281,0.2270508,0.1074219,0.1494141
3846,71.3125,-341.5625,87.5,-1.715332,-0.7910156,-0.7978516,0.2475586,0.1049805,0.1220703
3850,72.625,-328,93.8125,-1.668457,-0.8027344,-0.7324219,0.2592773,0.1010742,0.1000977
3854,77.3125,-298.625,100.3125,-1.637695,-0.8574219,-0.4594727,0.2758789,0.09619141,0.07177734
3858,87.8125,-295.4375,96.0625,-1.905273,-0.8457031,-0.559082,0.2856445,0.08886719,0.04199219
3862,83.625,-309.875,88.875,-1.788574,-0.6357422,-0.6362305,0.2949219,0.08398438,0.02001953
3866,61.4375,-306.5,98.5,-1.629883,-0.5541992,-0.6479492,0.3007813,0.07373047,-0.01074219
3870,39.5625,-305.3125,101.9375,-1.575684,-0.5854492,-0.6821289,0.3071289,0.06396484,-0.04052734
3874,33.625,-303.5625,94.5,-1.358887,-0.6279297,-0.4975586,0.3056641,0.05859375,-0.05957031
3878,31.375,-296.875,77.25,-1.385742,-0.5966797,-0.4902344,0.3056641,0.04882813,-0.09228516
3882,22.4375,-295.25,59.8125,-1.211426,-0.4140625,-0.4628906,0.3007813,0.04150391,-0.1210938
3886,3.5625,-284.8125,52.3125,-0.9594727,-0.2978516,-0.5209961,0.2973633,0.03369141,-0.1401367
3890,-17.375,-252.375,51.125,-0.7231445,-0.2783203,-0.4360352,0.2880859,0.03271484,-0.1630859
3894,-20.75,-222.25,52.9375,-0.6806641,-0.4067383,-0.4975586,0.2792969,0.02490234,-0.1865234
3898,-12.9375,-190.625,52.75,-0.5063477,-0.5698242,-0.4516602,0.2724609,0.02392578,-0.1958008
3902,3.8125,-151.125,43.5,-0.2387695,-0.503418,-0.4902344,0.2651367,0.02148438,-0.2109375
3906,17.4375,-99.8125,37.1875,-0.04101563,-0.4648438,-0.5551758,0.2568359,0.01513672,-0.2216797
3910,16.5625,-36.0625,28.1875,0.1831055,-0.3173828,-0.6171875,0.2568359,0.01367188,-0.2270508
3914,0.0625,31.3125,11,0.2216797,-0.2353516,-0.6552734,0.2568359,0.01123047,-0.2285156
3918,-14.75,93.75,1.3125,0.1518555,-0.3134766,-0.7592773,0.2592773,0.01025391,-0.2255859
3922,-29.9375,158.6875,1.625,0.02050781,-0.3598633,-0.8168945,0.2626953,0.01123047,-0.2177734
3926,-40.25,204.5,-10.75,-0.2890625,-0.4335938,-0.8823242,0.2724609,0.01367188,-0.2011719
3930,-55.4375,221.0625,-39.5,-0.6030273,-0.4804688,-0.9091797,0.2832031,0.01757813,-0.1835938
3934,-74.8125,228.75,-72.625,-0.699707,-0.484375,-0.8862305,0.2890625,0.02392578,-0.168457
3938,-95.625,247.5625,-95.625,-0.8125,-0.5698242,-0.8671875,0.2949219,0.03515625,-0.144043
3942,-108.9375,277.375,-103.625,-0.8706055,-0.6513672,-0.8745117,0.2983398,0.04638672,-0.1196289
3946,-122.9375,334.5625,-85.25,-0.878418,-0.6748047,-0.9052734,0.3022461,0.05615234,-0.09667969
3951,-127.125,405.5,-60.6875,-1.145508,-0.8027344,-0.9248047,0.3046875,0.06738281,-0.06103516
3955,-110.25,437.1875,-64.875,-1.695801,-1.059082,-0.9672852,0.3022461,0.07373047,-0.01611328
3959,-77.75,414.0625,-110.5625,-2.168457,-1.315918,-0.8671875,0.2983398,0.07763672,0.01318359
3963,-34.5,366.5,-156.75,-2.222656,-1.436035,-0.8364258,0.2856445,0.08886719,0.05126953
3967,-10,371.5625,-169.3125,-1.850586,-1.241699,-0.7822266,0.2641602,0.1035156,0.08251953
3971,-3.8125,404.25,-146.8125,-1.815918,-1.062988,-0.9287109,0.2519531,0.1152344,0.105957
3975,-2.75,431.0625,-103.4375,-1.812012,-0.9116211,-1.055664,0.2285156,0.125,0.1396484
3979,-13.25,464.875,-50.0625,-1.746094,-0.6708984,-1.259277,0.1972656,0.1323242,0.1699219
3983,-23.3125,484.75,-14.1875,-1.998047,-0.7250977,-1.363281,0.1757813,0.1337891,0.1889648
3987,-17.9375,450.4375,-10.75,-2.300293,-0.8535156,-1.405762,0.1425781,0.1323242,0.2143555
3991,-11,384.125,-46.9375,-2.164551,-0.7832031,-1.416992,0.109375,0.1362305,0.2333984
3995,-24.375,337,-82.75,-1.881836,-0.6318359,-1.45166,0.08886719,0.1362305,0.2402344
3999,-58.125,312.875,-89.375,-1.65332,-0.503418,-1.540039,0.05566406,0.1347656,0.2524414
4003,-90.75,302.1875,-81.375,-1.475098,-0.4882813,-1.555664,0.02490234,0.1313477,0.2607422
4007,-115.625,301.5625,-57.5,-1.351074,-0.5307617,-1.567383,0.002441406,0.125,0.2651367
4011,-128.625,302.8125,-36,-1.401367,-0.7016602,-1.513184,-0.02587891,0.1152344,0.2729492
4015,-119.375,271.3125,-50.4375,-1.413086,-0.8725586,-1.297852,-0.05224609,0.1025391,0.2773438
4019,-105.375,232.5625,-65.3125,-1.20752,-0.8764648,-1.13623,-0.06982422,0.09375,0.2744141
4023,-99.4375,209.6875,-86.1875,-0.9672852,-0.8066406,-0.9980469,-0.09472656,0.08398438,0.2744141
4027,-96.25,194.4375,-94.3125,-0.796875,-0.8339844,-0.9633789,-0.1152344,0.07373047,0.2714844
4031,-73,187.6875,-80.625,-0.5683594,-0.9580078,-0.9287109,-0.1293945,0.06494141,0.269043
4035,-37.4375,210.0625,-71.9375,-0.1420898,-0.8496094,-0.8710938,-0.1484375,0.05517578,0.2636719
4039,-11.6875,243.5625,-60.9375,-0.1533203,-0.6513672,-0.9477539,-0.1699219,0.05126953,0.2524414
4043,-7.1875,254.3125,-47.5625,-0.3549805,-0.387207,-0.8862305,-0.184082,0.04736328,0.2446289
4047,-26.75,240.25,-46.625,-0.6572266,-0.2626953,-0.6630859,-0.2055664,0.04394531,0.2324219
4051,-39.375,185.25,-62.375,-0.6923828,-0.3208008,-0.4360352,-0.2236328,0.03759766,0.21875
4055,-33.75,142,-80.5625,-0.4633789,-0.3989258,-0.1630859,-0.234375,0.03369141,0.2104492
4059,-18.6875,127.75,-80.25,-0.4052734,-0.3911133,0.02490234,-0.2446289,0.02392578,0.2011719
4063,3.75,116.625,-54.3125,-0.4052734,-0.3481445,0.159668,-0.253418,0.01855469,0.1943359
4067,29,108.1875,-22.3125,-0.3823242,-0.1733398,0.2788086,-0.2592773,0.01757813,0.1875
4071,40.5625,85.6875,-1.3125,-0.5722656,0.03222656,0.3867188,-0.2651367,0.01757813,0.1777344
4075,37,36.4375,8.75,-0.6884766,0.1254883,0.4174805,-0.2700195,0.02148438,0.1723633
4080,28.3125,-15.4375,17.6875,-0.5795898,0.1137695,0.3867188,-0.2700195,0.02246094,0.1699219
4084,26.8125,-52.625,23.6875,-0.4052734,0.02050781,0.3056641,-0.2700195,0.02636719,0.1708984
4088,30.8125,-83.0625,34.25,-0.3354492,-0.01416016,0.1826172,-0.2661133,0.02880859,0.1738281
4092,33.5,-106.875,43.625,-0.230957,-0.03759766,0.08251953,-0.2592773,0.03369141,0.1821289
4096,32.8125,-120.3125,46.6875,-0.1728516,-0.06445313,-0.03613281,-0.253418,0.03857422,0.1875
4100,32.5625,-134,52.0625,-0.3046875,-0.1577148,-0.1821289,-0.2426758,0.04638672,0.1982422
4104,40.0625,-157.3125,55.6875,-0.4052734,-0.2666016,-0.2939453,-0.2353516,0.04882813,0.2036133
4108,51.25,-182.4375,61.0625,-0.4790039,-0.3056641,-0.4360352,-0.222168,0.05615234,0.2133789
4112,57.5625,-202.625,67.5,-0.5332031,-0.324707,-0.5551758,-0.2055664,0.0625,0.2255859
4116,57.875,-221.5,84,-0.5756836,-0.3598633,-0.7441406,-0.1948242,0.07128906,0.230957
4120,52.9375,-232.5,85.1875,-0.5874023,-0.371582,-0.8208008,-0.1733398,0.08007813,0.2416992
4124,48.0625,-244.8125,78.6875,-0.8432617,-0.4765625,-0.8515625,-0.1508789,0.08740234,0.25
4128,52.6875,-281.3125,83.1875,-0.9248047,-0.565918,-1.063477,-0.1352539,0.09130859,0.2553711
4132,55.5,-294.1875,87.4375,-0.8666992,-0.5737305,-1.08252,-0.1069336,0.1000977,0.2636719
4136,51.5625,-302.5625,97.5625,-1.145508,-0.6396484,-1.166992,-0.07714844,0.1088867,0.2705078
4140,50,-318,110.375,-1.331543,-0.7446289,-1.155762,-0.05566406,0.1098633,0.2705078
4144,53.1875,-328.5625,104.25,-1.436035,-0.8027344,-1.047852,-0.01855469,0.1176758,0.2714844
4148,69.8125,-353.25,101.9375,-1.62207,-0.8574219,-1.090332,0.01416016,0.1225586,0.2675781
4152,81.625,-371.0625,99.1875,-1.665039,-0.7988281,-1.151855,0.03808594,0.125,0.2607422
4156,78.8125,-359.875,110.4375,-1.70752,-0.7910156,-1.186523,0.07470703,0.1289063,0.2485352
4160,72.1875,-349.25,122.125,-1.808105,-0.7719727,-1.186523,0.1118164,0.1298828,0.2348633
4164,62.25,-342,129.375,-1.897461,-0.8183594,-1.094238,0.1333008,0.1298828,0.2211914
4168,52.9375,-355.9375,119.9375,-2.114258,-0.8535156,-1.094238,0.1640625,0.1289063,0.1982422
4172,38.0625,-377.9375,107.5,-2.172363,-0.8339844,-1.078613,0.1962891,0.125,0.1777344
4176,22.9375,-402.3125,96.375,-2.284668,-0.9580078,-1.113281,0.215332,0.1201172,0.1586914
4180,19.3125,-414.5,95.75,-2.056152,-1.000977,-1.020996,0.2402344,0.1123047,0.1259766
4184,24.9375,-400.125,101.6875,-1.885742,-1.016602,-0.9130859,0.2617188,0.1049805,0.09228516
4188,33,-387.125,99.25,-1.943848,-1.020508,-0.7939453,0.2734375,0.09765625,0.06884766
4192,41.375,-388.875,80.1875,-2.07959,-1.012695,-0.7133789,0.2880859,0.08984375,0.03369141
4196,53.0625,-396.6875,76.4375,-2.040527,-1.040039,-0.6513672,0.2983398,0.08398438,-0.001464844
4200,72.5,-394.5625,83.25,-1.994141,-1.066895,-0.5244141,0.2973633,0.07763672,-0.02978516
4204,78.875,-380.9375,82.1875,-1.641602,-0.7832031,-0.4628906,0.2998047,0.06982422,-0.06787109
4209,68,-344.1875,78.9375,-1.289063,-0.6318359,-0.4360352,0.2973633,0.05761719,-0.105957
4213,57.0625,-302.875,76.625,-1.246094,-0.6357422,-0.4321289,0.2939453,0.05273438,-0.1264648
4217,58.0625,-278.75,74.1875,-1.180664,-0.6630859,-0.4555664,0.2880859,0.04394531,-0.1547852
4221,64.4375,-251.5,70.9375,-1.021484,-0.6474609,-0.4360352,0.2783203,0.03515625,-0.1782227
4225,63.5,-223.6875,62.4375,-0.8857422,-0.4960938,-0.4555664,0.2724609,0.02734375,-0.1928711
4229,52.5625,-200.5,52.0625,-0.7192383,-0.4067383,-0.5629883,0.2617188,0.01855469,-0.2148438
4233,39.125,-167.1875,43.5625,-0.378418,-0.3520508,-0.6132813,0.2519531,0.01123047,-0.2338867
4237,25.25,-113.125,34.4375,-0.1069336,-0.3676758,-0.6860352,0.2475586,0.006347656,-0.2392578
4241,13.375,-58.125,19.125,0.03955078,-0.3056641,-0.7822266,0.2412109,0.00390625,-0.2490234
4245,-6.6875,2.6875,11.8125,0.175293,-0.2353516,-0.84375,0.2392578,0.001464844,-0.2514648
4249,-33.75,70.6875,7.3125,0.1674805,-0.2275391,-0.8515625,0.2402344,0.002441406,-0.25
4253,-52.5625,127.625,3.625,-0.02587891,-0.3017578,-0.9018555,0.2485352,0.00390625,-0.2421875
4257,-70.25,170.625,-6.8125,-0.1962891,-0.3364258,-0.9287109,0.2558594,0.007324219,-0.2285156
4261,-90.1875,201.625,-28.5625,-0.3242188,-0.3833008,-0.9785156,0.2626953,0.01269531,-0.21875
4265,-109.8125,234.8125,-54.25,-0.4868164,-0.4804688,-1.036133,0.2724609,0.02148438,-0.1972656
4269,-126.1875,269.5,-72.5,-0.6147461,-0.5854492,-1.125,0.2832031,0.03515625,-0.1728516
4273,-139.75,314.3125,-80.625,-0.7695313,-0.6787109,-1.170898,0.2866211,0.04003906,-0.15625
4277,-144.5,363.4375,-78.125,-0.9829102,-0.7949219,-1.232422,0.2963867,0.05517578,-0.1196289
4281,-132.5,419.5,-53.6875,-1.23877,-0.9853516,-1.290039,0.2998047,0.06494141,-0.07861328
4285,-116.6875,475.8125,-34.3125,-1.567871,-0.9619141,-1.367188,0.3022461,0.06884766,-0.04736328
4289,-112.625,498.5,-42.5,-2.141602,-1.004883,-1.45166,0.2983398,0.07275391,0
4293,-112.375,441.8125,-96.6875,-2.79248,-1.133301,-1.447754,0.2890625,0.08007813,0.04882813
4297,-105.3125,371,-131.25,-2.494141,-1.102051,-1.286133,0.2792969,0.08398438,0.07568359
4301,-110.75,393.6875,-115.9375,-2.141602,-1.012695,-1.193848,0.2602539,0.09228516,0.1113281
4305,-120.25,447.625,-49,-2.106445,-0.9233398,-1.375,0.2353516,0.09521484,0.1479492
4309,-114.3125,495.375,11.0625,-2.191895,-0.8764648,-1.536621,0.21875,0.09228516,0.1738281
4313,-106.1875,518.5,31.125,-2.668457,-1.008789,-1.551758,0.1855469,0.08496094,0.2133789
4317,-90,449.5,-11,-3.17627,-1.043945,-1.467285,0.1499023,0.07617188,0.2460938
4321,-76.4375,343.3125,-71.0625,-2.71875,-0.9038086,-1.305664,0.1225586,0.07373047,0.2583008
4325,-79.75,328.0625,-90.3125,-2.156738,-0.7680664,-1.109375,0.09277344,0.06982422,0.2744141
4329,-95.8125,339.625,-65.875,-2.036621,-0.6708984,-1.209473,0.05712891,0.06103516,0.2866211
4333,-103.9375,336.25,-41.125,-1.893555,-0.5927734,-1.166992,0.03417969,0.05859375,0.2919922
4338,-109.5,328.125,-4.4375,-1.765625,-0.565918,-1.20166,0,0.04882813,0.2973633
4342,-110.0625,319.75,14.6875,-1.625977,-0.503418,-1.051758,-0.02929688,0.04003906,0.3017578
4346,-111.625,292.875,9,-1.57959,-0.46875,-0.9130859,-0.05078125,0.03027344,0.300293
4350,-111.8125,255.875,1.0625,-1.32373,-0.4257813,-0.7514648,-0.078125,0.02001953,0.2973633
4354,-99.625,228.5625,12.0625,-1.099121,-0.550293,-0.6630859,-0.1020508,0.01025391,0.2963867
4358,-68.5,208.8125,26.9375,-0.7504883,-0.5307617,-0.6513672,-0.1152344,0.00390625,0.2895508
4362,-37,220.125,37.3125,-0.3203125,-0.5,-0.7246094,-0.1342773,0,0.2841797
4366,-11.5625,242.625,38.8125,-0.09521484,-0.3793945,-0.8671875,-0.1542969,0,0.2729492
4370,-14.3125,254.125,14.5625,-0.06054688,-0.1152344,-0.9633789,-0.1699219,0,0.2651367
4374,-41.5625,229.4375,-26.25,-0.3666992,-0.09570313,-0.8901367,-0.1923828,0,0.2524414
4378,-51.5,184.25,-49.125,-0.4326172,-0.3208008,-0.6245117,-0.2080078,-0.006835938,0.2402344
4382,-30.3125,157.5,-36.6875,-0.2119141,-0.5541992,-0.4555664,-0.2197266,-0.01074219,0.2333984
4386,10.5,161.75,-17.25,0.008789063,-0.4453125,-0.394043,-0.2304688,-0.01318359,0.2241211
4390,35.25,167.8125,-0.125,0.1132813,-0.2392578,-0.5170898,-0.2426758,-0.01318359,0.2104492
4394,24.875,179.4375,2.5625,0.01660156,-0.02587891,-0.4516602,-0.2495117,-0.01318359,0.2021484
4398,0.4375,154.75,-7.5625,-0.2773438,-0.01416016,-0.324707,-0.2617188,-0.009277344,0.1899414
4402,-9.1875,110.8125,-17.1875,-0.3706055,-0.09179688,-0.05908203,-0.2700195,-0.01318359,0.1762695
4406,-3.125,70.375,-7,-0.4404297,-0.1616211,0.09814453,-0.2734375,-0.01318359,0.1708984
4410,7.375,21.5,11.125,-0.4326172,-0.1577148,0.07128906,-0.2783203,-0.01171875,0.1669922
4414,13.125,-19.75,20.6875,-0.1923828,-0.1889648,0.02490234,-0.2783203,-0.01074219,0.1669922
4418,17.5,-44.9375,27.8125,0.02441406,-0.2241211,-0.06689453,-0.2768555,-0.009277344,0.1699219
4422,20.25,-45.6875,25.625,0.2875977,-0.2124023,-0.06689453,-0.2734375,-0.005859375,0.1723633
4426,23.1875,-41.875,15.875,0.175293,-0.2045898,-0.05126953,-0.2709961,-0.001953125,0.175293
4430,23.5,-58.375,4.125,-0.1381836,-0.09179688,0.001953125,-0.2675781,-0.0004882813,0.1777344
4434,18.4375,-91.625,-1.1875,-0.5175781,-0.04541016,0.05566406,-0.2636719,0,0.1821289
4438,19.875,-148.875,1.3125,-0.8432617,-0.1577148,0.03662109,-0.2592773,0.001464844,0.1914063
4442,39.8125,-214.625,17.625,-0.5605469,-0.2939453,-0.2207031,-0.2509766,0.00390625,0.199707
4446,54.3125,-224.25,29.75,-0.28125,-0.2587891,-0.3476563,-0.2363281,0.006347656,0.2158203
4450,54.3125,-218.375,28.5625,-0.4482422,-0.1811523,-0.4785156,-0.21875,0.01269531,0.2294922
4454,44.6875,-238.5,19.25,-0.9013672,-0.1967773,-0.5361328,-0.2055664,0.01757813,0.237793
4458,44.25,-285,21.625,-1.017578,-0.3676758,-0.6821289,-0.1865234,0.02246094,0.2524414
4462,61.3125,-320.3125,18.75,-0.9248047,-0.519043,-0.7939453,-0.1601563,0.02880859,0.269043
4467,84.5,-342.0625,20.125,-0.8896484,-0.5854492,-1.01709,-0.1411133,0.03271484,0.2758789
4471,98.75,-348.0625,22.3125,-0.9477539,-0.5463867,-1.174805,-0.1079102,0.04248047,0.2866211
4475,95,-337.375,30.4375,-1.021484,-0.503418,-1.228516,-0.07324219,0.04980469,0.2919922
4479,89.0625,-340.125,33.5625,-1.215332,-0.5463867,-1.290039,-0.05224609,0.05761719,0.293457
4483,89.75,-359.375,37.5,-1.289063,-0.6240234,-1.367188,-0.01757813,0.06494141,0.2919922
4487,95.4375,-373.1875,43.375,-1.447754,-0.7832031,-1.447754,0.01904297,0.07373047,0.2866211
4491,106.1875,-389,62.5,-1.443848,-0.8574219,-1.571289,0.04394531,0.07861328,0.28125
4495,109.5,-372.875,66.6875,-1.199707,-0.7446289,-1.501953,0.08203125,0.08740234,0.2705078
4499,90.3125,-327.3125,53.0625,-1.300781,-0.6044922,-1.301758,0.1152344,0.09521484,0.2524414
4503,72.9375,-319.5625,32.25,-1.905273,-0.7446289,-1.121094,0.1333008,0.09619141,0.2416992
4507,80,-356.875,30.875,-2.32373,-0.9736328,-1.05957,0.1630859,0.1000977,0.2226563
4511,105.8125,-392.375,49.375,-2.191895,-1.059082,-1.040039,0.1904297,0.1049805,0.1953125
4515,121.3125,-381.75,86.875,-1.932129,-0.9931641,-1.043945,0.2070313,0.1074219,0.175293
4519,115.625,-347.9375,115.875,-1.738281,-0.8105469,-1.040039,0.234375,0.1074219,0.1450195
4523,95.75,-332.4375,102.75,-1.939941,-0.7792969,-0.9746094,0.253418,0.1010742,0.1123047
4527,81.8125,-358.25,71.8125,-2.187988,-0.8496094,-0.8823242,0.2675781,0.09765625,0.09082031
4531,79.5,-380.6875,53.9375,-1.901367,-0.7719727,-0.7207031,0.2807617,0.09228516,0.05517578
4535,74.375,-358.875,63.875,-1.723145,-0.7329102,-0.5283203,0.2924805,0.08886719,0.02001953
4539,78.125,-337.4375,83.625,-1.757813,-0.8222656,-0.4628906,0.2949219,0.08398438,-0.00390625
4543,85.625,-319.875,99.6875,-1.591309,-0.6899414,-0.4594727,0.2998047,0.07617188,-0.03808594
4547,72.875,-310.875,97.75,-1.614258,-0.5,-0.5092773,0.3022461,0.06396484,-0.06933594
4551,53.125,-320.25,75.875,-1.691895,-0.484375,-0.4360352,0.3022461,0.05761719,-0.09082031
4555,43,-327.5625,64,-1.269531,-0.5307617,-0.3286133,0.2983398,0.04882813,-0.1235352
4559,59.875,-288.6875,71.1875,-0.9477539,-0.7407227,-0.2016602,0.2890625,0.04150391,-0.1547852
4563,93.5,-241.3125,91.5,-0.831543,-0.7602539,-0.3515625,0.2841797,0.03369141,-0.1674805
4567,105.75,-200.375,99.1875,-0.7114258,-0.5776367,-0.5976563,0.2773438,0.02001953,-0.1928711
4571,97.625,-171.25,86.5625,-0.4868164,-0.402832,-0.8476563,0.2700195,0.004882813,-0.2119141
4575,76.9375,-133.0625,61.8125,-0.2504883,-0.3676758,-0.9672852,0.2651367,-0.001953125,-0.2246094
4579,56.3125,-81.625,42,0.03955078,-0.355957,-1.078613,0.2568359,-0.01074219,-0.2324219
4583,36.75,-11.3125,24.125,0.2412109,-0.3598633,-1.101563,0.2558594,-0.01806641,-0.237793
4587,11.3125,67.5,11.875,0.2646484,-0.2900391,-1.125,0.2558594,-0.01953125,-0.237793
4591,-20.25,136.0625,0.625,0.05126953,-0.2431641,-1.101563,0.2617188,-0.02197266,-0.2285156
4596,-51.4375,184,-18.875,-0.2700195,-0.2822266,-1.086426,0.2700195,-0.01708984,-0.2177734
4600,-83.125,207.75,-45,-0.5605469,-0.3520508,-1.086426,0.2749023,-0.01464844,-0.2055664
4604,-113.0625,225.3125,-72.8125,-0.7348633,-0.4296875,-1.05957,0.2856445,-0.005859375,-0.1850586
4608,-135.875,245.875,-93.0625,-0.7929688,-0.5112305,-1.020996,0.2939453,0.01025391,-0.1616211
4612,-147.0625,287.375,-99.375,-0.8393555,-0.6279297,-0.9633789,0.2983398,0.01757813,-0.144043
4616,-146,342.625,-90.0625,-1.029297,-0.7832031,-0.9555664,0.3056641,0.03369141,-0.112793
4620,-128,394.4375,-78.4375,-1.397461,-0.9697266,-0.894043,0.3081055,0.04492188,-0.07177734
4624,-99.3125,401.0625,-90.375,-2.009766,-1.024414,-0.878418,0.3105469,0.05273438,-0.04345703
4628,-76.375,350.3125,-120.25,-2.474609,-1.016602,-0.7475586,0.3071289,0.0625,-0.005371094
4632,-63.0625,307.5,-119,-2.226563,-0.8300781,-0.6552734,0.2963867,0.07373047,0.02685547
4636,-69.75,337.25,-80.6875,-1.854492,-0.6240234,-0.6630859,0.2915039,0.08251953,0.04882813
4640,-82.8125,392.875,-36.4375,-1.78125,-0.5581055,-0.8632813,0.2783203,0.08642578,0.08251953
4644,-91.3125,436.9375,-26.75,-2.060059,-0.6787109,-0.9863281,0.2592773,0.08642578,0.1235352
4648,-92.1875,441.375,-43.125,-2.606445,-0.8842773,-0.9980469,0.2451172,0.08496094,0.1479492
4652,-77.0625,389.75,-61.9375,-2.92041,-1.05127,-0.9091797,0.2177734,0.08496094,0.1821289
4656,-50.0625,343.5625,-58.375,-2.552246,-0.9580078,-0.7631836,0.1904297,0.08496094,0.2089844
4660,-36.5625,355.4375,-29.625,-2.094727,-0.8027344,-0.7709961,0.1699219,0.08642578,0.2241211
4664,-31.8125,379.0625,-16.6875,-1.746094,-0.5966797,-1.001465,0.1416016,0.08496094,0.2431641
4668,-44.3125,414.6875,-23.375,-1.505859,-0.421875,-1.205566,0.109375,0.08496094,0.2636719
4672,-60.1875,434.4375,-12.5,-1.777344,-0.46875,-1.436523,0.08300781,0.08007813,0.2729492
4676,-75.3125,405.875,1.5625,-1.916504,-0.5229492,-1.416992,0.04394531,0.07617188,0.2841797
4680,-70.4375,338.75,0.9375,-1.761719,-0.6513672,-1.378906,0.006835938,0.06884766,0.2919922
4684,-57.5,306.875,2.5,-1.037109,-0.6123047,-1.270996,-0.01269531,0.06494141,0.2910156
4688,-46.625,335.5,-0.125,-0.6264648,-0.6357422,-1.286133,-0.04394531,0.06103516,0.2949219
4692,-30.25,365.8125,19.8125,-0.5527344,-0.6938477,-1.55957,-0.07958984,0.05517578,0.2895508
4696,-25.75,402.9375,34.5625,-0.3393555,-0.4453125,-1.70166,-0.1010742,0.05517578,0.2827148
4700,-61.3125,414.9375,-0.3125,-0.8588867,-0.2353516,-1.659668,-0.1342773,0.05371094,0.269043
4704,-113.9375,335.625,-62.75,-1.315918,-0.2783203,-1.405762,-0.1708984,0.04638672,0.2553711
4708,-141.5,237.4375,-116.4375,-1.129883,-0.5581055,-0.8671875,-0.1899414,0.03613281,0.2470703
4712,-103.5,182.5625,-121,-0.765625,-1.047363,-0.4282227,-0.2104492,0.01855469,0.2363281
4716,-21.6875,182.3125,-83.5625,-0.3666992,-0.9541016,-0.2939453,-0.2246094,0.002441406,0.2294922
4720,30.3125,206,-42.1875,-0.4248047,-0.5307617,-0.3286133,-0.2363281,0,0.2172852
4725,42.75,194.875,-10.5,-0.5292969,-0.03369141,-0.3476563,-0.2495117,0.001464844,0.199707
4729,21.5625,162.625,-10.375,-0.7036133,0.2612305,-0.1206055,-0.2617188,0.002441406,0.1860352
4733,-5.3125,97.5625,-20.75,-0.8432617,0.2573242,0.01708984,-0.2661133,0.002441406,0.1777344
4737,-16.6875,28.625,-13.25,-0.6416016,0.09033203,0.08642578,-0.2724609,0,0.175293
4741,-7.5625,-3.625,0.5625,-0.2890625,-0.02978516,0.1865234,-0.2734375,0,0.1723633
4745,3.125,-20.4375,22.0625,-0.1069336,-0.07226563,0.09033203,-0.2744141,-0.001953125,0.1723633
4749,8.1875,-12.5625,27.375,0.2216797,-0.09570313,0.105957,-0.2709961,0.001464844,0.1723633
4753,16.3125,-6.75,19.625,0.2373047,-0.1152344,0.02490234,-0.2709961,0.004882813,0.1723633
4757,29.375,-19.875,6.4375,0.1367188,-0.09570313,-0.001464844,-0.2709961,0.006347656,0.1738281
4761,34.3125,-38.875,5.375,0.04345703,-0.06054688,-0.1015625,-0.2685547,0.008789063,0.1762695
4765,33,-56.5,8.9375,0.008789063,-0.03759766,-0.1245117,-0.2685547,0.01123047,0.1791992
4769,32.9375,-74.1875,13.375,-0.07226563,-0.01416016,-0.1977539,-0.2626953,0.01367188,0.1831055
4773,28.6875,-90.75,16.9375,-0.2080078,0.0009765625,-0.2631836,-0.2578125,0.01611328,0.1899414
4777,19.6875,-111.8125,22.4375,-0.4091797,0.0009765625,-0.2861328,-0.253418,0.02148438,0.1953125
4781,14.6875,-150.4375,36.875,-0.5683594,-0.1459961,-0.394043,-0.2446289,0.02246094,0.2011719
4785,20.75,-193.875,49.9375,-0.4326172,-0.324707,-0.5551758,-0.2353516,0.02734375,0.2119141
4789,30.9375,-214.5625,50.25,-0.2583008,-0.4067383,-0.6401367,-0.21875,0.03271484,0.2241211
4793,36.0625,-217.1875,37.125,-0.4633789,-0.5,-0.6401367,-0.206543,0.03515625,0.2333984
4797,49.875,-233.3125,22.3125,-0.7348633,-0.5620117,-0.6552734,-0.1865234,0.04003906,0.2470703
4801,71.875,-264.875,37.875,-0.9868164,-0.7211914,-0.8476563,-0.1674805,0.04638672,0.2568359
4805,96.25,-310.125,75.6875,-0.4790039,-0.6860352,-1.30957,-0.1494141,0.05273438,0.2651367
4809,103.625,-294.5,66.0625,-0.3164063,-0.550293,-1.255371,-0.1201172,0.06396484,0.2729492
4813,93.0625,-275.6875,63.6875,-0.6533203,-0.5268555,-1.282715,-0.09228516,0.07617188,0.2797852
4817,79.625,-257.1875,52,-0.8896484,-0.565918,-1.117188,-0.07324219,0.08251953,0.2797852
4821,83.9375,-287.8125,61.5,-1.075684,-0.7016602,-1.33252,-0.04589844,0.09130859,0.28125
4825,86.5,-309.25,54.375,-0.8354492,-0.6474609,-1.33252,-0.01757813,0.09765625,0.2783203
4829,77.5,-306.875,54.1875,-1.033203,-0.6821289,-1.45166,0.003417969,0.1049805,0.2783203
4833,73.125,-308.125,53.75,-1.165039,-0.7055664,-1.328613,0.03417969,0.1098633,0.2714844
4837,68.0625,-296.5625,55.625,-1.219238,-0.6938477,-1.125,0.06542969,0.1137695,0.262207
4841,73.9375,-295.4375,64.1875,-1.443848,-0.7753906,-0.9980469,0.08203125,0.1201172,0.2553711
4845,85.4375,-305.0625,83.1875,-1.567871,-0.7949219,-0.9594727,0.1118164,0.1235352,0.2392578
4849,87.4375,-316.5,93.625,-1.753906,-0.7949219,-0.9633789,0.1401367,0.1235352,0.2241211
4854,80.0625,-340.5,91.1875,-1.905273,-0.7250977,-1.043945,0.1567383,0.125,0.206543
4858,61.3125,-365.0625,85.375,-1.905273,-0.7172852,-1.036133,0.1855469,0.125,0.1831055
4862,49.3125,-375.375,81.5625,-1.75,-0.7290039,-0.9052734,0.2138672,0.1210938,0.15625
4866,49.1875,-368.4375,77.375,-1.65332,-0.7329102,-0.7592773,0.2294922,0.1201172,0.1381836
4870,53.75,-355.1875,79.25,-1.645508,-0.7602539,-0.6171875,0.2485352,0.1123047,0.1083984
4874,61.75,-337.4375,88.625,-1.719238,-0.8105469,-0.5170898,0.2651367,0.1088867,0.07568359
4878,73.25,-333.0625,94.75,-1.839355,-0.8183594,-0.4707031,0.2773438,0.1035156,0.05517578
4882,85.875,-335.6875,98.3125,-1.788574,-0.8183594,-0.4248047,0.2890625,0.09521484,0.02148438
4886,95.375,-333,97.625,-1.746094,-0.7485352,-0.4091797,0.2939453,0.08496094,-0.009277344
4890,93.875,-329.3125,94.5625,-1.633789,-0.581543,-0.3745117,0.2983398,0.08105469,-0.03515625
4894,76.875,-314.3125,82.8125,-1.517578,-0.421875,-0.2939453,0.3007813,0.07128906,-0.06787109
4898,53.875,-307.5,73.125,-1.587402,-0.4101563,-0.2436523,0.2973633,0.06005859,-0.09912109
4902,43.3125,-302,74,-1.521484,-0.5541992,-0.2167969,0.2963867,0.05615234,-0.1181641
4906,48.125,-285.3125,82.5,-1.343262,-0.6435547,-0.2055664,0.2900391,0.04736328,-0.1484375
4910,46.4375,-265.9375,81.75,-1.161133,-0.4609375,-0.3325195,0.2817383,0.03613281,-0.1738281
4914,27.0625,-249.125,70.125,-0.9946289,-0.3637695,-0.4130859,0.2749023,0.03027344,-0.1889648
4918,7.75,-234.1875,61.3125,-0.8354492,-0.4140625,-0.5517578,0.2641602,0.02490234,-0.2094727
4922,-8.5625,-214.6875,59.5,-0.5214844,-0.4921875,-0.6787109,0.2519531,0.02001953,-0.2285156
4926,-17.1875,-178.375,52.3125,-0.1572266,-0.565918,-0.7324219,0.2451172,0.01611328,-0.2407227
4930,-9.1875,-122.1875,33.625,0.2451172,-0.6279297,-0.7822266,0.2353516,0.01123047,-0.2529297
4934,0,-44.25,9.3125,0.4736328,-0.550293,-0.7939453,0.2294922,0.01123047,-0.2568359
4938,-3.0625,34.375,-16,0.3417969,-0.453125,-0.8979492,0.2270508,0.01123047,-0.2597656
4942,-16.75,99,-22.0625,0.125,-0.3911133,-0.9208984,0.2319336,0.01367188,-0.2543945
4946,-35.125,156.8125,-29.125,-0.1147461,-0.355957,-0.8901367,0.237793,0.01513672,-0.2460938
4950,-58.375,196.4375,-45.6875,-0.3510742,-0.3598633,-0.9091797,0.2475586,0.02001953,-0.2338867
4954,-88.625,223.5,-73.375,-0.5488281,-0.3911133,-0.9130859,0.2568359,0.02880859,-0.21875
4958,-112.6875,248.625,-85.875,-0.6767578,-0.534668,-0.9091797,0.2666016,0.04150391,-0.1987305
4962,-125.375,293.6875,-83.125,-0.715332,-0.6787109,-0.8745117,0.2734375,0.05126953,-0.1796875
4966,-130.75,343.125,-83.375,-0.8237305,-0.7602539,-0.9399414,0.2832031,0.06396484,-0.1484375
4970,-130.875,404.375,-74.8125,-0.8085938,-0.7949219,-1.063477,0.2890625,0.07617188,-0.1098633
4974,-127.9375,487.25,-54.375,-0.9052734,-0.7988281,-1.297852,0.2939453,0.08251953,-0.07763672
4978,-125.6875,569.8125,-37.1875,-1.362793,-0.8066406,-1.567383,0.2949219,0.08984375,-0.02832031
4983,-120.8125,579.0625,-57,-2.374023,-1.15625,-1.744141,0.2890625,0.09521484,0.02978516
4987,-101.1875,506.25,-84.3125,-2.67627,-1.265137,-1.609375,0.2758789,0.09619141,0.06494141
4991,-96.75,455,-116.8125,-2.528809,-1.098145,-1.371094,0.2543945,0.1025391,0.1123047
4995,-101.4375,435.8125,-116.875,-2.482422,-1.032227,-1.467285,0.2285156,0.1074219,0.1494141
4999,-106.1875,437.5,-63.3125,-2.416504,-0.8339844,-1.498047,0.2094727,0.1088867,0.1723633
5003,-119.5,452.875,2.125,-2.338867,-0.6123047,-1.674805,0.1782227,0.1035156,0.2050781
5007,-125.8125,465.75,46.4375,-2.586914,-0.7563477,-1.63623,0.1450195,0.09619141,0.2333984
5011,-99.625,395.1875,29.8125,-3.028809,-0.9541016,-1.513184,0.1225586,0.08984375,0.2524414
5015,-80.75,306.4375,-15.0625,-2.707031,-0.7485352,-1.178711,0.09277344,0.07861328,0.2705078
5019,-82.125,239.8125,-40.75,-2.45166,-0.6591797,-1.024902,0.06396484,0.07519531,0.28125
5023,-82.5625,200.5,-45.4375,-2.036621,-0.6005859,-0.8671875,0.04980469,0.06982422,0.2851563
5027,-81.875,192.875,-24.25,-1.815918,-0.6240234,-0.7709961,0.02832031,0.0625,0.2919922
5031,-68.6875,182.25,2.625,-1.571777,-0.6044922,-0.7553711,0.009277344,0.05517578,0.2963867
5035,-46.5625,175.6875,21.75,-1.125977,-0.5385742,-0.7749023,-0.0009765625,0.04980469,0.2973633
5039,-19.25,178.4375,27.4375,-0.8549805,-0.5073242,-0.84375,-0.01757813,0.04736328,0.2988281
5043,-4.375,176.625,25.5,-0.7695313,-0.3911133,-0.9746094,-0.03417969,0.04736328,0.2973633
5047,-16.5,177.875,4.375,-0.6533203,-0.2163086,-0.9746094,-0.04394531,0.04736328,0.2963867
5051,-28,160.3125,-2.1875,-0.7929688,-0.3364258,-0.9941406,-0.06396484,0.04394531,0.2963867
5055,-22.3125,150.1875,-5.125,-0.328125,-0.4140625,-0.9208984,-0.07714844,0.04492188,0.2919922
5059,-4.25,172.875,-8.5,-0.04492188,-0.4492188,-0.9326172,-0.08642578,0.04248047,0.2910156
5063,6.25,206.4375,-12.5625,0.125,-0.387207,-1.047852,-0.1020508,0.04150391,0.2851563
5067,3.6875,244.5,-27.875,0.2177734,-0.3095703,-1.144043,-0.1259766,0.04150391,0.2773438
5071,-7.4375,260.625,-44.375,0.05126953,-0.2783203,-1.248047,-0.1401367,0.04003906,0.2729492
5075,-19.875,271.1875,-48.8125,-0.1069336,-0.1811523,-1.105469,-0.1665039,0.03857422,0.2592773
5079,-32.5625,265,-25.25,-0.4052734,-0.08007813,-0.9438477,-0.1865234,0.03369141,0.2470703
5083,-51.625,244.875,-9.6875,-0.6494141,-0.03369141,-0.7016602,-0.2045898,0.03027344,0.2402344
5087,-64.5625,195.25,-9.5,-0.6186523,-0.1459961,-0.5053711,-0.2211914,0.02734375,0.2241211
5091,-65.125,161.625,-22.75,-0.3203125,-0.3481445,-0.2783203,-0.2353516,0.02148438,0.2133789
5095,-44.875,137.125,-33.125,-0.1689453,-0.4765625,-0.2397461,-0.2412109,0.01611328,0.206543
5099,-15.375,119.75,-31.75,-0.1689453,-0.4882813,-0.1743164,-0.2509766,0.01123047,0.1967773
5103,9.625,101,-10.5,-0.1962891,-0.3325195,-0.1015625,-0.2602539,0.007324219,0.1875
5107,24.0625,80,8.6875,-0.2270508,-0.2202148,-0.07080078,-0.2651367,0.01025391,0.1821289
5112,29.8125,53.3125,17,-0.2661133,-0.1381836,0.01367188,-0.2675781,0.01123047,0.1738281
5116,28.625,17.1875,16.25,-0.2700195,-0.08007813,0.005859375,-0.2685547,0.01611328,0.1738281
5120,17.9375,-15.125,18.1875,-0.2348633,-0.04882813,-0.005371094,-0.2700195,0.01611328,0.1723633
5124,5.5625,-39.875,20.3125,-0.1381836,-0.1308594,0.001953125,-0.2685547,0.01855469,0.1738281
5128,5,-58.625,20.9375,-0.07226563,-0.2548828,0.009765625,-0.2661133,0.02246094,0.1762695
5132,13.9375,-73.0625,23.3125,-0.09521484,-0.3481445,0.001953125,-0.2636719,0.02148438,0.1806641
5136,32.0625,-92.8125,24.8125,-0.1499023,-0.371582,-0.03613281,-0.2568359,0.02636719,0.1889648
5140,46.6875,-114.875,26.0625,-0.2583008,-0.340332,-0.06689453,-0.2495117,0.03027344,0.1943359
5144,56.0625,-144.4375,24.5,-0.3901367,-0.3208008,-0.109375,-0.2426758,0.03515625,0.199707
5148,64.625,-177.5625,24.0625,-0.5722656,-0.3520508,-0.1899414,-0.2329102,0.04003906,0.2104492
5152,78.4375,-217.125,37.375,-0.6533203,-0.4882813,-0.3862305,-0.21875,0.04638672,0.2202148
5156,100.3125,-249.3125,49.25,-0.5332031,-0.5581055,-0.559082,-0.2055664,0.05126953,0.2294922
5160,118.3125,-265.375,57.0625,-0.4946289,-0.5463867,-0.7709961,-0.1855469,0.06396484,0.2402344
5164,126.8125,-273.5,53.25,-0.6225586,-0.4648438,-0.8325195,-0.1601563,0.08007813,0.2485352
5168,119.125,-283.4375,58.375,-0.7578125,-0.4453125,-0.9633789,-0.1450195,0.08642578,0.2553711
5172,108.625,-293.625,62.75,-0.8164063,-0.4570313,-1.094238,-0.1176758,0.1000977,0.2592773
5176,98.75,-319.5625,83.625,-0.7231445,-0.484375,-1.432617,-0.08886719,0.1098633,0.2661133
5180,79.625,-312.875,84.3125,-0.4868164,-0.4067383,-1.436523,-0.06884766,0.1162109,0.2661133
5184,47.9375,-283.125,71.6875,-0.5102539,-0.4101563,-1.355469,-0.03662109,0.1235352,0.2661133
5188,27.5625,-253.9375,52.4375,-0.8706055,-0.5385742,-1.170898,-0.01025391,0.1274414,0.2651367
5192,28.125,-275.125,52.5625,-1.199707,-0.7329102,-1.26709,0.006835938,0.1298828,0.2636719
5196,34.875,-282.875,48.625,-1.048828,-0.6474609,-1.15918,0.03564453,0.1313477,0.2592773
5200,30.375,-266.625,48.9375,-1.265625,-0.6240234,-1.070801,0.06054688,0.1298828,0.2514648
5204,34.75,-268.5625,54.5,-1.618164,-0.7172852,-0.9516602,0.07714844,0.1313477,0.2470703
5208,48.6875,-280.5625,74.25,-1.78125,-0.7949219,-0.878418,0.1020508,0.1337891,0.2333984
5212,66.8125,-298.9375,99.8125,-1.881836,-0.8881836,-0.9208984,0.1293945,0.1337891,0.2211914
5216,81.125,-316.3125,108.6875,-1.78125,-0.8535156,-0.9477539,0.1499023,0.1362305,0.2089844
5220,78.25,-312.5625,105.1875,-1.684082,-0.6821289,-0.9326172,0.1772461,0.1347656,0.1875
5224,55.8125,-305.8125,98.625,-1.738281,-0.550293,-0.8901367,0.2011719,0.1323242,0.1640625
5228,28.875,-313.1875,88.1875,-1.866211,-0.534668,-0.859375,0.215332,0.1289063,0.1508789
5232,4.0625,-330.1875,83.1875,-1.862305,-0.5698242,-0.809082,0.2353516,0.1210938,0.125
5236,-7.75,-339.8125,85.6875,-1.761719,-0.6748047,-0.7592773,0.2543945,0.1137695,0.09765625
