Packet number,Gyroscope X (deg/s),Gyroscope Y (deg/s),Gyroscope Z (deg/s),Accelerometer X (g),Accelerometer Y (g),Accelerometer Z (g),Magnetometer X (G),Magnetometer Y (G),Magnetometer Z (G)
0,-2.1875,3,-0.6875,-0.8354492,-0.4570313,-0.359375,0.222168,0.1025391,0.168457
4,-3.6875,1.4375,-1.25,-0.847168,-0.453125,-0.3632813,0.222168,0.1035156,0.1640625
8,-3.9375,0,-2.625,-0.847168,-0.46875,-0.3666992,0.222168,0.1049805,0.1655273
12,-3.75,0.5625,-2.75,-0.8393555,-0.4882813,-0.3666992,0.222168,0.1025391,0.1669922
16,-1.5,1.125,-2.875,-0.831543,-0.4960938,-0.3632813,0.222168,0.1035156,0.168457
20,1.0625,1.9375,-3.25,-0.831543,-0.4882813,-0.3666992,0.222168,0.1025391,0.1655273
24,3.3125,2.5625,-2.5625,-0.831543,-0.4726563,-0.3745117,0.21875,0.1035156,0.1669922
28,3.875,1.4375,-2.25,-0.831543,-0.4492188,-0.3901367,0.2202148,0.1035156,0.1669922
32,2.375,1.125,-2.5625,-0.8237305,-0.4335938,-0.4091797,0.2202148,0.1049805,0.1655273
36,0.25,0.5,-2.8125,-0.7929688,-0.4375,-0.4399414,0.2202148,0.1049805,0.1669922
40,-1.4375,2.0625,-3.4375,-0.7695313,-0.4375,-0.4477539,0.2202148,0.1049805,0.1640625
44,-2.0625,4.0625,-4.4375,-0.7578125,-0.4609375,-0.4628906,0.2202148,0.1049805,0.1655273
48,-0.875,7.75,-4.5625,-0.7578125,-0.4804688,-0.4628906,0.2202148,0.1049805,0.1669922
52,3.0625,11.5625,-3.5,-0.7543945,-0.4882813,-0.4975586,0.2177734,0.1064453,0.1655273
56,5.1875,17.25,-1.375,-0.7617188,-0.46875,-0.5244141,0.2177734,0.1074219,0.1699219
60,3.625,20.4375,-0.375,-0.7387695,-0.453125,-0.6015625,0.21875,0.1074219,0.1699219
64,1.5,22.9375,-0.4375,-0.6962891,-0.46875,-0.6748047,0.215332,0.1074219,0.1708984
68,-1.3125,26.5625,-0.6875,-0.6069336,-0.46875,-0.7900391,0.2138672,0.1074219,0.1738281
73,-5.0625,33.625,-3.125,-0.5063477,-0.4882813,-0.9399414,0.2138672,0.1064453,0.1738281
77,-14,53.3125,-12.625,-0.3354492,-0.4453125,-1.040039,0.2128906,0.1074219,0.1762695
81,-24.25,82.5,-24.125,-0.3354492,-0.453125,-1.101563,0.2070313,0.1088867,0.1806641
85,-33.5,103.9375,-30.25,-0.4672852,-0.4570313,-1.19043,0.199707,0.1088867,0.1889648
89,-43.25,119.75,-30.125,-0.5175781,-0.4335938,-1.240234,0.1914063,0.1064453,0.1967773
93,-56.625,134.8125,-27.375,-0.5644531,-0.4453125,-1.317383,0.184082,0.1064453,0.2011719
97,-65.75,154.875,-19.875,-0.4750977,-0.4414063,-1.320801,0.1748047,0.1025391,0.2133789
101,-79.375,188.8125,-18.25,-0.4482422,-0.4179688,-1.351563,0.1606445,0.1000977,0.2270508
105,-94.125,221.375,-20.1875,-0.5722656,-0.3833008,-1.375,0.1484375,0.09619141,0.2333984
109,-116.5625,242.6875,-23.375,-0.6689453,-0.3208008,-1.463379,0.1293945,0.08886719,0.25
113,-143.375,256.875,-33,-0.8046875,-0.2900391,-1.455566,0.1079102,0.08007813,0.2651367
117,-166.625,248.5625,-29.8125,-0.9907227,-0.3442383,-1.505859,0.09130859,0.07128906,0.2758789
121,-183,239.0625,-13.625,-1.033203,-0.4960938,-1.490234,0.06982422,0.05615234,0.2866211
125,-180.0625,225.3125,9.25,-0.831543,-0.6396484,-1.498047,0.04736328,0.03613281,0.2963867
129,-151.0625,237.1875,25.6875,-0.3901367,-0.7792969,-1.555664,0.03076172,0.02490234,0.300293
133,-113.3125,287,41.5625,-0.07617188,-0.7910156,-1.698242,0.008300781,0.01269531,0.3071289
137,-92.4375,323.8125,27.3125,-0.1147461,-0.4648438,-1.920898,-0.02246094,0,0.3085938
141,-111.875,340.5,-7.25,-0.4130859,-0.2163086,-2.028809,-0.04394531,-0.005859375,0.3085938
145,-146.25,322.5,-29.875,-0.8588867,-0.2900391,-2.009766,-0.078125,-0.01708984,0.3041992
149,-165.6875,278.625,-30.1875,-0.9091797,-0.4375,-1.875,-0.1079102,-0.03320313,0.2988281
153,-165.9375,260.1875,-18.4375,-0.6884766,-0.5307617,-1.640137,-0.1235352,-0.04589844,0.2919922
157,-151.75,269,1.3125,-0.4521484,-0.5893555,-1.482422,-0.1484375,-0.05957031,0.2783203
161,-129.4375,285.625,17,-0.2583008,-0.565918,-1.475098,-0.1733398,-0.07177734,0.2651367
165,-118,297,8.8125,-0.2119141,-0.3676758,-1.467285,-0.1899414,-0.08056641,0.2539063
169,-123.9375,285.875,-12.375,-0.362793,-0.1967773,-1.355469,-0.2128906,-0.08935547,0.2333984
173,-135.125,257.3125,-34.75,-0.4868164,-0.1420898,-1.132324,-0.2329102,-0.09960938,0.2133789
177,-132,217.5625,-37.875,-0.5214844,-0.2241211,-0.840332,-0.2446289,-0.1083984,0.2011719
181,-108.0625,186,-23.3125,-0.4052734,-0.3017578,-0.5517578,-0.2553711,-0.1181641,0.1821289
185,-74.1875,175,7.1875,-0.2231445,-0.2783203,-0.359375,-0.2685547,-0.1254883,0.1640625
189,-45.1875,173,27.8125,-0.09521484,-0.1308594,-0.2783203,-0.2744141,-0.1269531,0.1547852
193,-36.5,160.625,22.9375,-0.1147461,0.1333008,-0.2324219,-0.2841797,-0.1269531,0.1411133
197,-50.25,124.125,-2.4375,-0.246582,0.253418,-0.1513672,-0.2915039,-0.1293945,0.1259766
202,-56.8125,73.375,-24.5625,-0.28125,0.1523438,-0.02832031,-0.2949219,-0.1308594,0.1166992
206,-41.25,34.875,-23,-0.2001953,-0.1152344,0.144043,-0.2973633,-0.1357422,0.1113281
210,-2.8125,18.6875,-0.375,-0.02587891,-0.2084961,0.1982422,-0.2983398,-0.1381836,0.1069336
214,34.875,16.6875,26.5625,0.03955078,-0.1381836,0.159668,-0.2958984,-0.1367188,0.105957
218,63.8125,2.875,40.4375,0.1367188,0.04394531,0.01708984,-0.2998047,-0.1333008,0.105957
222,64.875,-14.0625,33.8125,0.1484375,0.2226563,-0.1782227,-0.3007813,-0.1245117,0.1098633
226,41.6875,-35.375,19.9375,0.1987305,0.3623047,-0.2631836,-0.2983398,-0.1220703,0.1123047
230,24.0625,-57.1875,7.625,0.2294922,0.237793,-0.3051758,-0.2998047,-0.1206055,0.1137695
234,23.875,-70.25,8,0.2797852,0.06689453,-0.3051758,-0.293457,-0.1196289,0.1220703
238,36.125,-74.875,21.25,0.2685547,-0.04541016,-0.324707,-0.2949219,-0.1166992,0.1274414
242,49.3125,-81.25,38,0.1367188,-0.1074219,-0.3515625,-0.2900391,-0.1108398,0.1342773
246,68.25,-98.6875,52.1875,0.07470703,-0.1928711,-0.3862305,-0.2866211,-0.1044922,0.144043
250,93.5625,-121.8125,66,0.08251953,-0.3481445,-0.4863281,-0.2866211,-0.1005859,0.1508789
254,116.9375,-136.5625,61.125,0.206543,-0.2822266,-0.559082,-0.2792969,-0.08837891,0.1630859
258,123.625,-153.125,47.75,0.125,-0.2241211,-0.7324219,-0.2709961,-0.07568359,0.175293
262,118.375,-177.375,24.375,0.1132813,-0.1308594,-0.8632813,-0.2651367,-0.06835938,0.1875
266,103.9375,-192.25,-2.75,0.03173828,-0.1152344,-0.859375,-0.253418,-0.05810547,0.2011719
270,95.8125,-208.625,-14.875,-0.1845703,-0.2163086,-0.8901367,-0.2387695,-0.05175781,0.2172852
274,102.5625,-231.4375,-13,-0.3164063,-0.2548828,-0.9594727,-0.2280273,-0.04931641,0.2270508
278,107.125,-249.125,-0.375,-0.4287109,-0.3325195,-1.009277,-0.2114258,-0.04052734,0.2402344
282,111.8125,-261.25,9.1875,-0.4829102,-0.3911133,-1.01709,-0.1899414,-0.03173828,0.2592773
286,110.8125,-263.5625,16.8125,-0.4790039,-0.5073242,-1.08252,-0.1733398,-0.02441406,0.2661133
290,118.1875,-258.75,13.5,-0.4326172,-0.5737305,-1.090332,-0.1533203,-0.01464844,0.2783203
294,130.125,-255,11.6875,-0.6186523,-0.6513672,-1.13623,-0.128418,-0.0004882813,0.2851563
298,139.8125,-263.125,11.1875,-0.7075195,-0.6044922,-1.224609,-0.112793,0.006347656,0.2895508
302,141.25,-267.9375,14.75,-0.8857422,-0.6083984,-1.290039,-0.08544922,0.02148438,0.2963867
306,141.8125,-274,25.5625,-0.9248047,-0.6279297,-1.344238,-0.06152344,0.03613281,0.2973633
310,135.9375,-271.9375,44.375,-0.9013672,-0.6474609,-1.382324,-0.04150391,0.04492188,0.2988281
314,133.0625,-275.0625,50.25,-0.8007813,-0.6938477,-1.51709,-0.01416016,0.05615234,0.2963867
318,127,-264.6875,35.4375,-0.746582,-0.6708984,-1.463379,0.01416016,0.07275391,0.2910156
322,119.375,-253.625,18.9375,-1.005859,-0.7250977,-1.413086,0.03173828,0.07861328,0.2851563
326,113.8125,-258.8125,8.25,-1.269531,-0.7368164,-1.363281,0.0546875,0.08886719,0.2783203
331,106.375,-269.5,9,-1.455566,-0.8027344,-1.290039,0.07958984,0.09765625,0.2661133
335,107.0625,-289.0625,23.6875,-1.567871,-0.8959961,-1.297852,0.09375,0.1064453,0.2553711
339,108.8125,-307.25,35.25,-1.529297,-0.9272461,-1.293945,0.1210938,0.1137695,0.2392578
343,109.375,-318,37.5625,-1.45166,-0.9389648,-1.293945,0.1484375,0.1186523,0.2241211
347,109.3125,-322.625,32.3125,-1.401367,-0.9194336,-1.305664,0.1630859,0.1225586,0.206543
351,103.125,-321.875,22.9375,-1.420898,-0.8496094,-1.282715,0.1865234,0.1264648,0.1831055
355,89.5625,-336.1875,-3.3125,-1.591309,-0.7910156,-1.228516,0.2070313,0.1323242,0.1572266
359,72.5,-368.0625,-35.375,-1.727051,-0.6977539,-1.121094,0.2177734,0.1347656,0.137207
363,48.875,-398.6875,-46.8125,-1.808105,-0.7133789,-1.051758,0.2329102,0.1411133,0.1083984
367,26.0625,-417.5625,-39.375,-1.641602,-0.6240234,-1.009277,0.2460938,0.1435547,0.07421875
371,4.75,-416.125,-20.5625,-1.285156,-0.6396484,-0.9594727,0.2543945,0.1474609,0.04980469
375,4.5,-375.1875,3.4375,-0.8706055,-0.7949219,-0.824707,0.2602539,0.1459961,0.01708984
379,26.6875,-311.5,20.1875,-0.7036133,-0.9233398,-0.7285156,0.2651367,0.1450195,-0.009277344
383,67.6875,-253.125,26,-0.6728516,-1.036133,-0.6206055,0.2666016,0.1435547,-0.02978516
387,110.9375,-206.625,25.75,-0.5874023,-0.9467773,-0.7094727,0.269043,0.1411133,-0.05273438
391,140.5625,-160.25,32.625,-0.4404297,-0.7988281,-0.7822266,0.269043,0.1376953,-0.07617188
395,149.9375,-111.375,46.375,-0.3085938,-0.5698242,-0.9707031,0.269043,0.1337891,-0.08837891
399,130.375,-68.625,55.8125,-0.1533203,-0.2353516,-1.144043,0.269043,0.1264648,-0.1074219
403,87.5625,-28.5,50.25,0.03955078,-0.006347656,-1.228516,0.2709961,0.1186523,-0.1166992
407,30.5625,23.375,41.0625,0.1831055,0.01269531,-1.097656,0.2724609,0.1123047,-0.1196289
411,-13.6875,83.75,36.9375,0.1328125,-0.1811523,-0.9360352,0.2749023,0.1098633,-0.1166992
415,-34.9375,134.625,34.5625,-0.05664063,-0.3793945,-0.8208008,0.2783203,0.1074219,-0.1074219
419,-46.875,166,26.3125,-0.2851563,-0.4296875,-0.7749023,0.2817383,0.1049805,-0.09667969
423,-56.375,177.5625,10.625,-0.4790039,-0.4648438,-0.7709961,0.2866211,0.1049805,-0.08007813
427,-64,175.625,-11.3125,-0.5722656,-0.484375,-0.7783203,0.2880859,0.1064453,-0.06103516
431,-72.5625,178.5625,-31.875,-0.5722656,-0.4726563,-0.8056641,0.2890625,0.1049805,-0.04638672
435,-87.9375,194.9375,-46.8125,-0.5991211,-0.4257813,-0.859375,0.2880859,0.1113281,-0.02734375
439,-111,222.75,-54.125,-0.6767578,-0.3950195,-0.9208984,0.2832031,0.1152344,-0.002441406
443,-136.25,254,-52.4375,-0.8935547,-0.4492188,-0.9208984,0.2807617,0.1186523,0.01318359
447,-151.1875,273.3125,-45.75,-1.157227,-0.6005859,-0.894043,0.2724609,0.1225586,0.04052734
451,-150.375,277.3125,-34.5625,-1.35498,-0.7329102,-0.8515625,0.2617188,0.1210938,0.07421875
455,-143.25,284.8125,-14.4375,-1.366211,-0.7172852,-0.8554688,0.2558594,0.1201172,0.09228516
460,-142.5,304.1875,8.4375,-1.374023,-0.6591797,-0.9326172,0.2436523,0.1152344,0.1235352
464,-147.375,321.9375,30.875,-1.479004,-0.6240234,-1.05957,0.2270508,0.1064453,0.1533203
468,-154.3125,328.125,44.6875,-1.556152,-0.5854492,-1.155762,0.2177734,0.1000977,0.175293
472,-170.6875,330.4375,49.125,-1.633789,-0.5424805,-1.255371,0.1972656,0.08642578,0.2021484
476,-187.625,321.375,50.9375,-1.649414,-0.5620117,-1.33252,0.1748047,0.07128906,0.2294922
480,-191.0625,315.9375,50.375,-1.629883,-0.6630859,-1.348145,0.1591797,0.06005859,0.2470703
484,-180.1875,308.6875,57.25,-1.641602,-0.7524414,-1.33252,0.1333008,0.04150391,0.2651367
488,-154.25,290.125,62.5625,-1.54834,-0.7407227,-1.320801,0.1079102,0.02246094,0.28125
492,-129.75,277.4375,67.375,-1.393555,-0.7016602,-1.33252,0.09375,0.01123047,0.2895508
496,-102.875,274.8125,71.25,-1.157227,-0.6435547,-1.344238,0.06640625,-0.001953125,0.2988281
500,-89.5625,282.25,65.0625,-1.005859,-0.4492188,-1.424805,0.0390625,-0.01171875,0.3085938
504,-92.1875,279.375,49.125,-1.091309,-0.3793945,-1.524902,0.02001953,-0.01806641,0.3110352
508,-96.4375,253.875,39.0625,-1.060547,-0.4414063,-1.547852,-0.004394531,-0.02832031,0.3110352
512,-67.6875,230.625,42.0625,-0.7192383,-0.6860352,-1.513184,-0.02832031,-0.03564453,0.3100586
516,-14.75,249.8125,40.625,-0.2119141,-0.550293,-1.455566,-0.04394531,-0.04052734,0.3100586
520,-17.5625,315.4375,12.75,-0.2387695,0.09814453,-1.555664,-0.07226563,-0.03955078,0.3056641
524,-88.5,313.5625,-26,-0.9555664,0.3896484,-1.763184,-0.1030273,-0.04296875,0.2973633
528,-160.0625,248.5625,-49.375,-1.327637,0.2338867,-1.567383,-0.1220703,-0.05175781,0.2919922
532,-193,186,-28.125,-1.145508,-0.1577148,-1.221191,-0.1450195,-0.06933594,0.2827148
536,-175.5625,172,19.375,-0.7426758,-0.4726563,-0.9287109,-0.1591797,-0.08691406,0.2744141
540,-135.9375,186.3125,75.125,-0.5175781,-0.5927734,-0.7783203,-0.1699219,-0.09570313,0.2636719
544,-101.75,183.5625,100.8125,-0.2851563,-0.3520508,-0.8208008,-0.1875,-0.1020508,0.2514648
548,-103,167.25,71.125,0.05126953,-0.1269531,-0.8710938,-0.203125,-0.1044922,0.2392578
552,-113.6875,149.375,5.1875,0.1210938,-0.1889648,-0.7783203,-0.2104492,-0.1083984,0.230957
556,-105.5625,127.375,-49.5625,0.1132813,-0.3989258,-0.5478516,-0.222168,-0.1166992,0.2211914
560,-66.3125,120.75,-55.9375,-0.006347656,-0.6240234,-0.324707,-0.2304688,-0.1279297,0.2104492
564,-9.6875,127.4375,-20.1875,-0.1069336,-0.6123047,-0.1435547,-0.2353516,-0.1333008,0.2050781
568,38.375,125.4375,18.1875,-0.1572266,-0.2783203,-0.1899414,-0.2436523,-0.1333008,0.1953125
572,44.5625,113.875,37.75,-0.1806641,0.09423828,-0.2822266,-0.2509766,-0.1279297,0.1860352
576,13.4375,84.25,29.625,-0.1572266,0.3544922,-0.378418,-0.2568359,-0.1245117,0.1831055
580,-30.0625,47.4375,5.5625,-0.09912109,0.300293,-0.2978516,-0.2617188,-0.1206055,0.1762695
584,-49,12.1875,-12.5,-0.01025391,0.008789063,-0.1669922,-0.2636719,-0.1254883,0.1723633
589,-33.625,-6.375,-13.375,0.05126953,-0.2666016,-0.05126953,-0.2626953,-0.1279297,0.1708984
593,6.1875,-19.0625,0.5,0.1171875,-0.3442383,-0.03613281,-0.2626953,-0.1293945,0.1708984
597,33.5625,-27.375,8.5,0.07470703,-0.06445313,-0.09765625,-0.2617188,-0.1308594,0.1738281
601,57.8125,-54.5,10.3125,0.07861328,-0.1420898,-0.2978516,-0.2592773,-0.1254883,0.175293
605,66.4375,-68.625,-0.625,0.2607422,-0.01025391,-0.4248047,-0.2568359,-0.1230469,0.1821289
609,65.5,-78.3125,-17.125,0.2412109,0.06689453,-0.5708008,-0.2519531,-0.1196289,0.1899414
613,59,-89.4375,-28.625,0.1557617,0.1254883,-0.6401367,-0.2485352,-0.1166992,0.1953125
617,48.4375,-97.5625,-31.625,-0.03320313,0.121582,-0.5668945,-0.2402344,-0.1142578,0.2021484
621,49.6875,-118.25,-28.3125,-0.2348633,0.02441406,-0.5170898,-0.2353516,-0.1132813,0.2133789
625,63.5625,-142.9375,-20.8125,-0.4404297,-0.2202148,-0.4902344,-0.2255859,-0.1118164,0.21875
629,110.75,-183.75,-6,-0.2851563,-0.4648438,-0.6669922,-0.215332,-0.109375,0.230957
633,156.125,-181.25,2.875,-0.06054688,-0.4067383,-0.7285156,-0.2006836,-0.09814453,0.2431641
637,167.875,-165.0625,6.4375,-0.1728516,-0.2431641,-0.824707,-0.1938477,-0.08935547,0.25
641,157.25,-167.5,-7.9375,-0.5683594,-0.1420898,-0.8325195,-0.1782227,-0.07421875,0.2636719
645,140.4375,-209.875,-28.125,-0.9208984,-0.1230469,-0.9326172,-0.1640625,-0.06201172,0.2729492
649,133.25,-271.25,-54.8125,-1.009766,-0.2626953,-1.032227,-0.1484375,-0.05322266,0.28125
653,146.875,-312.4375,-68.4375,-0.8510742,-0.5268555,-1.086426,-0.1220703,-0.04296875,0.2910156
657,175.9375,-311.5625,-52.6875,-0.7075195,-0.7250977,-1.144043,-0.09228516,-0.03173828,0.3017578
661,196.75,-280.5,-16.4375,-0.7851563,-0.7172852,-1.166992,-0.07226563,-0.01953125,0.3041992
665,195.4375,-254.6875,13.5625,-0.9907227,-0.6240234,-1.19043,-0.04589844,0.001464844,0.3071289
669,181.3125,-258.1875,16.125,-1.28125,-0.6005859,-1.178711,-0.02001953,0.02001953,0.3071289
673,170.4375,-290.8125,7.9375,-1.436035,-0.6669922,-1.259277,-0.003417969,0.03369141,0.3017578
677,166,-324.375,-11.5625,-1.575684,-0.7988281,-1.224609,0.02490234,0.04980469,0.2963867
681,168.375,-346.9375,-20,-1.544922,-0.9077148,-1.26709,0.05810547,0.06494141,0.2851563
685,172.875,-339.9375,-3.375,-1.486328,-0.9580078,-1.259277,0.07861328,0.07519531,0.2758789
689,173.125,-322.625,20.9375,-1.533203,-0.9775391,-1.274902,0.1069336,0.09130859,0.2568359
693,167.5,-315,37.5625,-1.62207,-0.9775391,-1.320801,0.1367188,0.1049805,0.2363281
697,163.3125,-325.1875,33.5625,-1.769531,-1.047363,-1.344238,0.1547852,0.1098633,0.2226563
701,162.8125,-344.3125,24,-1.761719,-1.098145,-1.363281,0.1796875,0.1225586,0.1982422
705,162.375,-349.75,20.0625,-1.633789,-1.059082,-1.336426,0.2021484,0.1289063,0.1669922
709,155,-341,21.5,-1.587402,-1.000977,-1.324707,0.215332,0.1323242,0.144043
713,144.5,-330.125,25.6875,-1.571777,-0.9814453,-1.251953,0.2329102,0.1386719,0.1123047
718,136.8125,-321.25,27.8125,-1.587402,-0.9814453,-1.19043,0.2485352,0.1411133,0.08007813
722,134.3125,-319,24.875,-1.629883,-1.055176,-1.074707,0.2543945,0.1435547,0.05810547
726,144.9375,-326.3125,16.25,-1.649414,-1.105957,-1.020996,0.2617188,0.1411133,0.02294922
730,162.3125,-333.6875,7,-1.501953,-1.098145,-0.8554688,0.2666016,0.1411133,-0.01074219
734,176.8125,-312.125,15.5625,-1.161133,-0.9580078,-0.7167969,0.2666016,0.1411133,-0.03808594
738,177.1875,-261.5,36.375,-0.9130859,-0.7602539,-0.574707,0.2675781,0.1386719,-0.07324219
742,159.875,-220.3125,50.875,-0.8706055,-0.5151367,-0.6479492,0.2666016,0.1313477,-0.1035156
746,128.125,-202,54.5625,-0.7890625,-0.3754883,-0.7822266,0.2626953,0.125,-0.1181641
750,95.5,-189.0625,47.6875,-0.5449219,-0.4067383,-0.7631836,0.2617188,0.1176758,-0.1455078
754,72.75,-163.375,41.3125,-0.2231445,-0.4570313,-0.84375,0.2583008,0.1088867,-0.1616211
758,55.3125,-115.5625,30.6875,0.1713867,-0.402832,-0.878418,0.2558594,0.1049805,-0.1713867
762,30.375,-43.375,22.125,0.4194336,-0.3017578,-0.8056641,0.2519531,0.09863281,-0.1806641
766,-2.8125,28.3125,11.75,0.2836914,-0.2744141,-0.7207031,0.253418,0.09765625,-0.1850586
770,-27.5625,72.5625,1.1875,-0.02587891,-0.3637695,-0.609375,0.2543945,0.09765625,-0.1821289
774,-45.9375,102.5625,-0.9375,-0.1650391,-0.3754883,-0.5400391,0.2583008,0.09765625,-0.1728516
778,-67.5,121.75,-6.375,-0.3393555,-0.3208008,-0.5786133,0.2617188,0.1010742,-0.1630859
782,-90.9375,124.25,-18.5625,-0.4555664,-0.3134766,-0.644043,0.2651367,0.1049805,-0.1523438
786,-113.1875,126.25,-30.1875,-0.4633789,-0.3676758,-0.6748047,0.2675781,0.1098633,-0.1357422
790,-130.0625,140.75,-36.625,-0.4326172,-0.46875,-0.6860352,0.2700195,0.1176758,-0.1196289
794,-142.4375,168.4375,-39.9375,-0.4287109,-0.5463867,-0.7133789,0.269043,0.1225586,-0.1044922
798,-152.4375,203,-45.9375,-0.5214844,-0.6513672,-0.6899414,0.2709961,0.1289063,-0.08544922
802,-153.9375,235.9375,-51.125,-0.6923828,-0.7753906,-0.6748047,0.2709961,0.1337891,-0.05712891
806,-151.8125,266.5625,-48.5625,-0.8510742,-0.8339844,-0.6708984,0.2709961,0.1376953,-0.03662109
810,-152.1875,294.75,-39.6875,-1.037109,-0.8417969,-0.6938477,0.2651367,0.1425781,-0.002441406
814,-157.25,311.25,-29.75,-1.261719,-0.8339844,-0.7167969,0.2592773,0.1450195,0.02685547
818,-168.3125,319.125,-15.75,-1.389648,-0.7871094,-0.7475586,0.253418,0.1450195,0.05126953
822,-184.125,329.75,-1.125,-1.513672,-0.7602539,-0.7939453,0.2436523,0.1411133,0.08691406
826,-196.75,330.875,10.375,-1.680176,-0.8920898,-0.840332,0.2294922,0.1323242,0.1220703
830,-201.3125,332.5625,24,-1.711426,-0.9155273,-0.8364258,0.2202148,0.1274414,0.1450195
834,-202.0625,345.25,48.3125,-1.672363,-0.8378906,-0.8710938,0.2045898,0.1123047,0.1806641
838,-211.6875,373.4375,84.3125,-1.618164,-0.8066406,-1.024902,0.1831055,0.09619141,0.2089844
842,-210.625,394.25,104.875,-1.65332,-0.7641602,-1.125,0.1674805,0.08398438,0.2294922
847,-196.5625,388.6875,116.625,-1.765625,-0.7871094,-1.228516,0.1391602,0.06103516,0.2568359
851,-172.1875,349.9375,108.6875,-1.839355,-0.7563477,-1.263184,0.1069336,0.03857422,0.2773438
855,-146.4375,292.625,95.5625,-1.668457,-0.6591797,-1.20166,0.09033203,0.02490234,0.2895508
859,-122.8125,253.375,87.25,-1.312012,-0.6513672,-1.144043,0.06542969,0.01123047,0.2988281
863,-82.9375,236.3125,86.3125,-0.9555664,-0.7055664,-1.094238,0.04150391,-0.0004882813,0.3041992
867,-36.875,233.4375,82.9375,-0.7270508,-0.6162109,-1.170898,0.02587891,-0.006835938,0.3071289
871,-8.125,233.1875,67.125,-0.5644531,-0.4067383,-1.305664,0.003417969,-0.01074219,0.3085938
875,-8.5,229.9375,38,-0.5371094,-0.1616211,-1.416992,-0.01855469,-0.009277344,0.3085938
879,-27.8125,213.125,7.9375,-0.6303711,-0.08789063,-1.436523,-0.03417969,-0.009277344,0.3085938
883,-45,189.4375,-7.625,-0.5874023,-0.1538086,-1.401855,-0.05322266,-0.01464844,0.3071289
887,-51.25,181.4375,-12.875,-0.5175781,-0.2241211,-1.270996,-0.07128906,-0.01806641,0.3041992
891,-36.6875,171.4375,2.1875,-0.4750977,-0.3793945,-1.244141,-0.08203125,-0.02197266,0.300293
895,-5.75,177.0625,18.75,-0.4052734,-0.4296875,-1.144043,-0.1010742,-0.0234375,0.2963867
899,17.5,189.875,34.0625,-0.3125,-0.2124023,-1.132324,-0.1176758,-0.0234375,0.2910156
903,13.3125,188.625,37.0625,-0.2734375,0.03613281,-1.240234,-0.128418,-0.02197266,0.2880859
907,-21,186.125,8.625,-0.215332,0.2768555,-1.26709,-0.1474609,-0.01953125,0.2797852
911,-66.375,166.5625,-10.125,-0.2387695,0.2226563,-1.313477,-0.1625977,-0.02050781,0.2729492
915,-95.125,154,-14.8125,-0.1728516,-0.02978516,-1.248047,-0.1723633,-0.02685547,0.269043
919,-107.875,164.75,-3.75,0.01660156,-0.1655273,-1.13623,-0.1865234,-0.03564453,0.2583008
923,-110.75,182.0625,15.25,-0.04882813,-0.2939453,-1.08252,-0.199707,-0.04589844,0.2514648
927,-104.625,183.875,23.5625,-0.1572266,-0.3911133,-0.9785156,-0.2114258,-0.04931641,0.2416992
931,-90.8125,166.9375,12.75,-0.01806641,-0.3911133,-0.84375,-0.2246094,-0.05566406,0.230957
935,-73.8125,154.75,-5.9375,0.01660156,-0.4648438,-0.7167969,-0.234375,-0.06298828,0.21875
939,-52.0625,143.875,-22.3125,0.02832031,-0.4140625,-0.5786133,-0.2436523,-0.06835938,0.2089844
943,-38.125,127.6875,-26.5625,-0.07617188,-0.3989258,-0.4785156,-0.2509766,-0.07177734,0.199707
947,-17.9375,108.625,-22.75,-0.07226563,-0.3520508,-0.3168945,-0.2568359,-0.07568359,0.1899414
951,5.1875,94.125,-10.6875,-0.1030273,-0.2861328,-0.2089844,-0.2626953,-0.07714844,0.1831055
955,28.875,72.3125,-2.25,-0.1572266,-0.1928711,-0.1435547,-0.2700195,-0.07568359,0.1777344
959,38.9375,42.25,-7,-0.09130859,-0.002441406,-0.1743164,-0.2734375,-0.07421875,0.1723633
963,31.3125,15,-19.1875,-0.02587891,0.1137695,-0.1938477,-0.2758789,-0.07568359,0.168457
967,30,-13,-20.3125,0.03564453,-0.01025391,-0.2246094,-0.2758789,-0.07421875,0.1708984
971,39.4375,-20.3125,-13.875,0.2104492,0.004882813,-0.1782227,-0.2709961,-0.07421875,0.1738281
976,41.5625,-19.4375,-8.375,0.1445313,0.07080078,-0.2246094,-0.2724609,-0.07421875,0.1738281
980,39.6875,-35,-6.3125,-0.02978516,0.07080078,-0.2592773,-0.2724609,-0.07324219,0.1777344
984,43.75,-63.25,1.0625,-0.04882813,-0.02197266,-0.3515625,-0.2685547,-0.06835938,0.1831055
988,52.3125,-79.6875,10.6875,0.08251953,-0.05664063,-0.4130859,-0.2675781,-0.06835938,0.1831055
992,61.8125,-91.4375,16,0.05517578,-0.1113281,-0.4785156,-0.2602539,-0.06298828,0.1889648
996,71.3125,-107.8125,15.5,0.09765625,-0.1191406,-0.5629883,-0.2568359,-0.05712891,0.1982422
1000,67.5625,-109.4375,7.1875,0.004882813,-0.04541016,-0.5209961,-0.2485352,-0.05322266,0.2036133
1004,57.6875,-130.125,-13,-0.3510742,-0.06835938,-0.4902344,-0.2412109,-0.04833984,0.2133789
1008,66.5,-185.25,-23.4375,-0.5991211,-0.2978516,-0.6401367,-0.2319336,-0.04589844,0.2255859
1012,93.8125,-227,-16.75,-0.246582,-0.3754883,-0.7670898,-0.21875,-0.04296875,0.2363281
1016,100.25,-215,-9.75,-0.1420898,-0.3481445,-0.8286133,-0.203125,-0.03564453,0.2460938
1020,94.375,-203,-13.8125,-0.4521484,-0.3481445,-0.7939453,-0.1865234,-0.02929688,0.2607422
1024,96.1875,-227.75,-23.25,-0.9287109,-0.5966797,-0.7670898,-0.1748047,-0.02441406,0.2661133
1028,135.75,-295,-26.5,-0.796875,-0.7753906,-0.9941406,-0.1518555,-0.015625,0.2773438
1032,169.75,-288.5625,-24,-0.5063477,-0.7871094,-1.01709,-0.1259766,-0.001953125,0.2880859
1036,181.0625,-272.1875,-16.25,-0.8393555,-0.7055664,-1.147949,-0.1069336,0.008789063,0.293457
1040,175.9375,-279.3125,-7.3125,-1.15332,-0.6821289,-1.221191,-0.08203125,0.02636719,0.2949219
1044,167.1875,-297.875,5.125,-1.184082,-0.7055664,-1.30957,-0.05566406,0.04150391,0.2988281
1048,168.75,-311.6875,23.8125,-1.060547,-0.7871094,-1.409668,-0.03515625,0.05371094,0.2963867
1052,168.6875,-306.5,38.5625,-0.9711914,-0.7792969,-1.478516,-0.003417969,0.06982422,0.2919922
1056,156.5,-296.25,37.4375,-1.041016,-0.7753906,-1.459473,0.02587891,0.08642578,0.2827148
1060,140.375,-295.5,28.5625,-1.091309,-0.7871094,-1.459473,0.04492188,0.09521484,0.2758789
1064,130.3125,-295.625,12.0625,-1.195801,-0.8647461,-1.359375,0.07226563,0.1064453,0.2636719
1068,126.1875,-297.9375,4.3125,-1.374023,-0.9892578,-1.286133,0.09960938,0.1162109,0.25
1072,128.625,-299.1875,12.375,-1.436035,-1.047363,-1.244141,0.1142578,0.1225586,0.237793
1076,129,-298.0625,26.875,-1.471191,-1.036133,-1.205566,0.1401367,0.1298828,0.2172852
1080,127.1875,-300.375,36,-1.486328,-1.02832,-1.178711,0.1606445,0.1401367,0.1967773
1084,124.5,-308.6875,37.4375,-1.455566,-1.016602,-1.170898,0.1772461,0.1435547,0.1791992
1088,119.0625,-313.6875,30.5,-1.37793,-1.012695,-1.101563,0.1962891,0.1489258,0.1533203
1092,116.625,-313.875,21.1875,-1.327637,-1.016602,-1.051758,0.215332,0.1513672,0.125
1096,114.6875,-304.6875,18.375,-1.28125,-0.9970703,-0.9399414,0.2260742,0.1538086,0.1098633
1100,114.0625,-288.375,27,-1.253906,-0.9541016,-0.859375,0.2353516,0.15625,0.07861328
1105,114.5625,-278.9375,32.3125,-1.420898,-1.008789,-0.6821289,0.2460938,0.15625,0.05126953
1109,128.375,-288.0625,41.125,-1.420898,-0.9931641,-0.6669922,0.2519531,0.1577148,0.03076172
1113,128.9375,-276.9375,51.25,-1.269531,-0.8105469,-0.5825195,0.2592773,0.1538086,0
1117,113.1875,-268.4375,53.25,-1.161133,-0.6748047,-0.59375,0.2626953,0.1489258,-0.03125
1121,85.125,-257.4375,52.0625,-0.9946289,-0.5073242,-0.6245117,0.2651367,0.1459961,-0.04736328
1125,52.0625,-239.5625,48,-0.8237305,-0.4257813,-0.4667969,0.2641602,0.1401367,-0.07324219
1129,29.125,-224.8125,33.9375,-0.8857422,-0.5307617,-0.309082,0.2626953,0.1323242,-0.09521484
1133,30.1875,-226.4375,13.625,-0.8588867,-0.6860352,-0.1669922,0.2617188,0.1323242,-0.1098633
1137,47.875,-210.1875,15.1875,-0.6147461,-0.6748047,-0.1362305,0.2568359,0.1313477,-0.1303711
1141,65.25,-170.125,34.5,-0.4404297,-0.7172852,-0.1821289,0.2519531,0.1264648,-0.1484375
1145,84.3125,-127.25,47.125,-0.2583008,-0.6044922,-0.3051758,0.2509766,0.1210938,-0.1577148
1149,85.875,-86.8125,44,-0.1225586,-0.4453125,-0.4438477,0.2485352,0.1152344,-0.1738281
1153,74.125,-46.6875,31.5,-0.02587891,-0.3017578,-0.5898438,0.2460938,0.1074219,-0.1806641
1157,49.3125,-5.8125,19.625,0.01660156,-0.1889648,-0.6630859,0.2460938,0.1049805,-0.1850586
1161,11.9375,39.9375,17.875,0.02441406,-0.1538086,-0.6669922,0.2485352,0.1000977,-0.1875
1165,-19.25,75.3125,17.625,-0.1264648,-0.2548828,-0.7207031,0.2519531,0.1000977,-0.1821289
1169,-40.4375,96.1875,10.9375,-0.2001953,-0.3598633,-0.7324219,0.2568359,0.09863281,-0.1782227
1173,-55.4375,114.875,-4.0625,-0.2387695,-0.4296875,-0.7285156,0.2568359,0.1010742,-0.168457
1177,-69.125,133.5625,-22.75,-0.262207,-0.484375,-0.7246094,0.2641602,0.1035156,-0.1538086
1181,-82.6875,160.8125,-36.9375,-0.2929688,-0.5268555,-0.7324219,0.2651367,0.1064453,-0.144043
1185,-97.625,194.3125,-45.0625,-0.4248047,-0.565918,-0.7324219,0.269043,0.1137695,-0.1264648
1189,-114.0625,221.0625,-51.3125,-0.6494141,-0.6240234,-0.7514648,0.2724609,0.1210938,-0.1005859
1193,-130,238.6875,-56.6875,-0.8588867,-0.7133789,-0.7133789,0.2709961,0.1264648,-0.08544922
1197,-142.9375,244.6875,-65.8125,-1.052734,-0.7910156,-0.6591797,0.2700195,0.1323242,-0.05712891
1201,-153.1875,249.75,-68.125,-1.141602,-0.8261719,-0.6206055,0.269043,0.1401367,-0.02832031
1205,-165.125,266.5625,-56.8125,-1.23877,-0.8686523,-0.59375,0.2641602,0.1435547,-0.008300781
1209,-174.875,288.3125,-36.125,-1.358887,-0.9155273,-0.6054688,0.2592773,0.1459961,0.02294922
1213,-183.5625,295.8125,-32.625,-1.661133,-0.9697266,-0.6245117,0.2485352,0.1474609,0.05810547
1217,-188.8125,269.4375,-50.625,-1.967285,-1.136719,-0.5361328,0.2426758,0.1459961,0.07861328
1221,-176.5,224.25,-59.25,-1.905273,-1.210938,-0.4248047,0.230957,0.1425781,0.1083984
1225,-165.25,229.75,-29.9375,-1.599121,-1.179688,-0.324707,0.21875,0.1401367,0.1357422
1229,-153.25,261.125,15.125,-1.486328,-1.098145,-0.4169922,0.2094727,0.1347656,0.1518555
1234,-143.5,298.1875,51.75,-1.315918,-0.9194336,-0.5898438,0.1948242,0.1264648,0.1777344
1238,-149.375,346.1875,71.5,-1.215332,-0.7524414,-0.7592773,0.1757813,0.1113281,0.2036133
1242,-150.5625,372.875,74.8125,-1.517578,-0.8647461,-0.9438477,0.1616211,0.1000977,0.2226563
1246,-144.625,346.6875,67.3125,-1.70752,-0.7832031,-1.090332,0.1357422,0.08740234,0.2460938
1250,-152.5,302.375,56.5,-1.625977,-0.6357422,-1.140137,0.1103516,0.07128906,0.2661133
1254,-156.6875,265.75,47.4375,-1.331543,-0.6357422,-1.132324,0.09375,0.06103516,0.2758789
1258,-140.9375,252.125,42.8125,-1.041016,-0.7250977,-1.117188,0.06982422,0.04638672,0.2895508
1262,-102.4375,250.5,53.75,-0.8857422,-0.8613281,-1.15918,0.04882813,0.03271484,0.2963867
1266,-53.4375,257,60.875,-0.6108398,-0.7329102,-1.255371,0.03320313,0.02636719,0.300293
1270,-33.375,279.3125,52.5,-0.4750977,-0.4453125,-1.359375,0.01074219,0.02001953,0.3032227
1274,-43.6875,280.8125,31.625,-0.6494141,-0.2314453,-1.513184,-0.01757813,0.02001953,0.3041992
1278,-75.625,260.625,6.9375,-0.8125,-0.09179688,-1.51709,-0.03515625,0.01513672,0.3041992
1282,-108.5,229.8125,-6.0625,-0.847168,-0.1420898,-1.45166,-0.06054688,0.008789063,0.3041992
1286,-121.75,208.9375,-6.1875,-0.6572266,-0.2783203,-1.336426,-0.08056641,-0.004394531,0.300293
1290,-114.5625,217.8125,4.0625,-0.4482422,-0.371582,-1.193848,-0.09716797,-0.01318359,0.2973633
1294,-107.125,237.75,16.375,-0.3901367,-0.2587891,-1.19043,-0.1162109,-0.02197266,0.2919922
1298,-118.0625,240.625,16.8125,-0.5024414,-0.08789063,-1.228516,-0.1391602,-0.03173828,0.2851563
1302,-148.1875,215.3125,7.75,-0.5449219,-0.06835938,-1.251953,-0.1542969,-0.04199219,0.2783203
1306,-163.5,178.25,-7.9375,-0.3974609,-0.3017578,-1.182617,-0.1723633,-0.0546875,0.2661133
1310,-151.25,161.625,-6.625,-0.09912109,-0.5581055,-1.078613,-0.1865234,-0.06933594,0.2592773
1314,-122.625,181.3125,7.625,0.02050781,-0.7016602,-0.878418,-0.1948242,-0.07568359,0.25
1318,-88,193.8125,24.375,-0.01806641,-0.6435547,-0.8017578,-0.2104492,-0.08544922,0.237793
1322,-64,190.0625,22.1875,-0.07226563,-0.4296875,-0.6513672,-0.2255859,-0.08935547,0.2241211
1326,-62.3125,157.5,-6.375,-0.2583008,-0.2045898,-0.5708008,-0.234375,-0.09082031,0.2133789
1330,-67.5,102.5625,-39.5625,-0.3203125,-0.2783203,-0.4360352,-0.2446289,-0.09716797,0.2021484
1334,-56.625,68.4375,-43.0625,-0.1689453,-0.4414063,-0.2324219,-0.2509766,-0.1044922,0.1953125
1338,-24.125,59.75,-16.625,-0.04492188,-0.5698242,-0.06689453,-0.2519531,-0.1083984,0.1928711
1342,18.75,57.0625,6.8125,-0.01025391,-0.4414063,0.001953125,-0.2553711,-0.1118164,0.1875
1346,42.1875,46.875,18.5625,-0.03710938,-0.2084961,-0.05126953,-0.2568359,-0.1083984,0.1831055
1350,43.875,20.375,11.75,-0.09130859,-0.01806641,-0.1552734,-0.2602539,-0.1044922,0.1821289
1354,36.0625,-11.8125,-4.125,-0.05273438,0.03613281,-0.2016602,-0.2602539,-0.1020508,0.1831055
1358,35.3125,-36.8125,-11.625,0.02050781,-0.04541016,-0.2089844,-0.2617188,-0.09960938,0.1845703
1363,48.875,-48.875,-6.5,0.1015625,-0.1035156,-0.2397461,-0.2592773,-0.09814453,0.1875
1367,63.5625,-52.625,4.8125,0.09033203,-0.08007813,-0.3168945,-0.2553711,-0.09570313,0.1899414
1371,72.625,-58.5,14.625,0.09765625,-0.03369141,-0.4052734,-0.2509766,-0.09179688,0.1982422
1375,75.1875,-67.25,19.25,0.05517578,-0.006347656,-0.4936523,-0.2509766,-0.08691406,0.1982422
1379,71.1875,-84.1875,12.9375,-0.002441406,0.05126953,-0.559082,-0.2446289,-0.07958984,0.206543
1383,61.5625,-106.3125,1.1875,-0.1459961,0.01660156,-0.609375,-0.2387695,-0.07324219,0.2158203
1387,64,-139.75,-6,-0.1689453,-0.1538086,-0.6708984,-0.2319336,-0.07080078,0.2226563
1391,85.875,-166.6875,-5.8125,0.01660156,-0.2861328,-0.7939453,-0.2197266,-0.06591797,0.2294922
1395,98.6875,-159.375,0.375,0.1171875,-0.2861328,-0.8710938,-0.2080078,-0.05957031,0.2402344
1399,97.625,-140.625,5.1875,-0.03320313,-0.2241211,-0.8823242,-0.199707,-0.0546875,0.2485352
1403,92,-149.125,7.0625,-0.3935547,-0.3056641,-0.9018555,-0.1889648,-0.04589844,0.2568359
1407,112,-191,5.625,-0.362793,-0.4335938,-1.028809,-0.1757813,-0.03564453,0.2651367
1411,121.625,-199.25,-2.9375,-0.2543945,-0.4067383,-1.032227,-0.1640625,-0.02832031,0.2729492
1415,122.6875,-205.1875,-15.5,-0.4672852,-0.4648438,-1.086426,-0.1450195,-0.01806641,0.2797852
1419,118.5625,-214.75,-22.5625,-0.6845703,-0.4765625,-1.032227,-0.1269531,-0.008300781,0.2880859
1423,122.8125,-238.6875,-13.125,-0.8237305,-0.6396484,-1.147949,-0.1113281,0,0.293457
1427,142.1875,-253.25,-1.0625,-0.5991211,-0.6591797,-1.221191,-0.09033203,0.01269531,0.2949219
1431,149.3125,-241.75,15.875,-0.6416016,-0.6474609,-1.293945,-0.06640625,0.02636719,0.300293
1435,137.75,-228.6875,22.375,-0.6884766,-0.5424805,-1.297852,-0.05078125,0.03515625,0.300293
1439,113.625,-223.25,12.75,-0.9091797,-0.5385742,-1.20166,-0.02685547,0.04882813,0.2973633
1443,96.6875,-245.6875,-4.875,-1.15332,-0.6591797,-1.170898,-0.004394531,0.06005859,0.2973633
1447,102.5625,-278.1875,-12.5625,-1.133789,-0.8261719,-1.197754,0.01074219,0.06494141,0.293457
1451,113.625,-281.3125,-5.5625,-1.029297,-0.8725586,-1.20166,0.03808594,0.07763672,0.2851563
1455,125.125,-274.875,7,-0.9438477,-0.9116211,-1.282715,0.06298828,0.08642578,0.2758789
1459,133.9375,-256.0625,12.375,-0.8857422,-0.8496094,-1.236328,0.07958984,0.09228516,0.2661133
1463,130,-244.1875,11.1875,-1.083496,-0.8105469,-1.205566,0.1010742,0.1049805,0.2524414
1467,123.6875,-255.9375,-0.375,-1.296875,-0.8378906,-1.15918,0.1210938,0.1152344,0.237793
1471,119.4375,-282.5,-18.3125,-1.405273,-0.8842773,-1.155762,0.1357422,0.1201172,0.2270508
1475,121.0625,-302.5625,-27.3125,-1.397461,-0.9853516,-1.066895,0.1557617,0.1298828,0.2036133
1479,133.5,-316.75,-25.6875,-1.420898,-1.062988,-1.005371,0.1748047,0.1401367,0.1821289
1483,146.875,-315.5,-9.5625,-1.273438,-1.040039,-0.9902344,0.1865234,0.1459961,0.1640625
1487,147.8125,-294.75,6.125,-1.184082,-0.9233398,-0.9399414,0.203125,0.1547852,0.1357422
1492,138.375,-283.625,11.9375,-1.300781,-0.9038086,-0.9018555,0.21875,0.1601563,0.1098633
1496,131.5625,-288,10.75,-1.385742,-0.9233398,-0.8056641,0.2260742,0.1625977,0.09082031
1500,130.0625,-298.125,13.1875,-1.37793,-0.9272461,-0.7207031,0.2353516,0.1650391,0.05957031
1504,125.5,-296.8125,19,-1.165039,-0.7988281,-0.6748047,0.2426758,0.1660156,0.02978516
1508,110.6875,-278.125,23.0625,-0.9672852,-0.6938477,-0.5668945,0.2475586,0.1660156,0.009277344
1512,93,-250.0625,28.875,-0.9091797,-0.6162109,-0.4863281,0.2519531,0.1635742,-0.01904297
1516,67.1875,-242.0625,22.9375,-1.017578,-0.46875,-0.4516602,0.253418,0.1635742,-0.04345703
1520,45,-254.5625,7.0625,-1.033203,-0.5268555,-0.378418,0.253418,0.1601563,-0.05859375
1524,39.1875,-258.0625,0.9375,-0.8818359,-0.6357422,-0.2670898,0.2509766,0.1601563,-0.08300781
1528,49.125,-235.625,13,-0.6884766,-0.7446289,-0.1630859,0.2460938,0.1577148,-0.1035156
1532,70.125,-200.4375,32.75,-0.5874023,-0.8339844,-0.1401367,0.2451172,0.1547852,-0.1157227
1536,97.3125,-176.375,41.4375,-0.5644531,-0.7832031,-0.3208008,0.2412109,0.1513672,-0.137207
1540,103.625,-154.5,41.1875,-0.3510742,-0.5966797,-0.4321289,0.2353516,0.1425781,-0.15625
1544,99.4375,-118.125,37.625,-0.07226563,-0.4960938,-0.5708008,0.2368164,0.1362305,-0.1660156
1548,87.0625,-67.5625,31,0.1328125,-0.3481445,-0.6479492,0.2319336,0.1313477,-0.1806641
1552,59,-6.625,27.9375,0.2255859,-0.2202148,-0.6787109,0.2319336,0.125,-0.1875
1556,23.875,50.8125,25.3125,0.109375,-0.2163086,-0.6323242,0.234375,0.1210938,-0.1889648
1560,-5.8125,86.9375,23,-0.1186523,-0.2666016,-0.6591797,0.2392578,0.1176758,-0.1850586
1564,-32.9375,111.75,19.125,-0.2001953,-0.2705078,-0.6552734,0.2436523,0.1176758,-0.1767578
1568,-58.1875,131.375,11.5625,-0.2851563,-0.2900391,-0.6938477,0.2475586,0.1186523,-0.168457
1572,-82.125,145.6875,0.4375,-0.3862305,-0.3520508,-0.7324219,0.2543945,0.1225586,-0.1538086
1576,-106,156.6875,-15.4375,-0.4594727,-0.3911133,-0.7670898,0.2583008,0.1264648,-0.137207
1580,-129.0625,176.625,-26.5625,-0.4829102,-0.4726563,-0.7709961,0.2592773,0.1274414,-0.125
1584,-146.4375,206.4375,-30.75,-0.5756836,-0.5966797,-0.7631836,0.2626953,0.1337891,-0.1020508
1588,-156.375,238.75,-31.6875,-0.7270508,-0.7290039,-0.7475586,0.2641602,0.1401367,-0.07617188
1592,-159.3125,268,-30.25,-0.9208984,-0.8496094,-0.7363281,0.2651367,0.1425781,-0.05566406
1596,-157.9375,285.4375,-29,-1.149414,-0.9077148,-0.7133789,0.2626953,0.1459961,-0.02294922
1600,-157,292.4375,-28.6875,-1.362793,-0.9467773,-0.7055664,0.2602539,0.1474609,0.009277344
1604,-159.375,290.5625,-26.4375,-1.529297,-0.9736328,-0.6787109,0.2568359,0.1499023,0.03369141
1608,-160.625,289.5625,-11.3125,-1.556152,-0.9506836,-0.644043,0.2485352,0.1474609,0.06201172
1612,-166.125,309.5,26.5625,-1.517578,-0.8647461,-0.6860352,0.237793,0.1435547,0.09228516
1616,-176.0625,337.125,62.8125,-1.625977,-0.8261719,-0.7441406,0.2319336,0.1376953,0.1181641
1621,-185.5625,327.5625,62.75,-2.021484,-0.9350586,-0.8325195,0.21875,0.125,0.1533203
1625,-178.5625,267.375,34,-2.180176,-1.090332,-0.7861328,0.2021484,0.1113281,0.1806641
1629,-163.3125,229.25,23.4375,-1.769531,-1.036133,-0.6591797,0.1938477,0.1010742,0.1982422
1633,-150.5625,243.25,37.375,-1.48291,-1.020508,-0.6787109,0.1772461,0.08984375,0.21875
1637,-135.125,273.75,58.375,-1.289063,-0.9194336,-0.8017578,0.1591797,0.07617188,0.2392578
1641,-114.125,305.6875,78.625,-1.273438,-0.8764648,-0.9594727,0.1450195,0.06738281,0.2485352
1645,-91.9375,318.25,102.875,-1.358887,-0.7602539,-1.151855,0.1225586,0.05371094,0.2661133
1649,-85,306.9375,106.75,-1.327637,-0.503418,-1.26709,0.09619141,0.04394531,0.28125
1653,-105.25,281,84.3125,-1.285156,-0.2626953,-1.317383,0.08056641,0.03613281,0.2895508
1657,-134.375,252.4375,57.75,-1.184082,-0.2900391,-1.286133,0.05712891,0.02246094,0.2973633
1661,-152,233.625,39,-1.091309,-0.4140625,-1.19043,0.03173828,0.008789063,0.3071289
1665,-141.5,218.75,38.6875,-1.029297,-0.5927734,-1.109375,0.01904297,-0.001953125,0.3071289
1669,-113.375,209.9375,53.4375,-0.8510742,-0.6474609,-1.070801,-0.001953125,-0.01708984,0.3100586
1673,-76.5625,211.4375,66.625,-0.5952148,-0.5737305,-1.13623,-0.0234375,-0.02587891,0.3100586
1677,-60.375,226.25,62.6875,-0.4248047,-0.2509766,-1.270996,-0.03759766,-0.03076172,0.3100586
1681,-96.9375,234.25,31.625,-0.4521484,0.1098633,-1.378906,-0.05908203,-0.03564453,0.3100586
1685,-143.25,208.8125,3,-0.6264648,0.004882813,-1.390137,-0.08203125,-0.05078125,0.3032227
1689,-153.0625,178.375,-11,-0.6147461,-0.2978516,-1.144043,-0.09472656,-0.05810547,0.3017578
1693,-127.8125,165.5625,-1.75,-0.4208984,-0.4414063,-0.9863281,-0.1113281,-0.07177734,0.2949219
1697,-94.1875,175.5,20.75,-0.347168,-0.4609375,-0.9018555,-0.128418,-0.08300781,0.2880859
1701,-72.375,177.1875,35.375,-0.3320313,-0.2744141,-0.9477539,-0.1401367,-0.08837891,0.2797852
1705,-74.875,167.75,39.4375,-0.1962891,-0.1191406,-1.08252,-0.1567383,-0.09179688,0.2729492
1709,-101.4375,161.375,12.875,0.01269531,0.1254883,-1.051758,-0.1723633,-0.09814453,0.2636719
1713,-126.625,150.0625,-10.9375,-0.06835938,-0.03369141,-0.9633789,-0.1791992,-0.1054688,0.2553711
1717,-120.375,140.3125,-7.625,-0.1108398,-0.2431641,-0.7167969,-0.1914063,-0.1157227,0.2470703
1721,-88.125,128.125,3.1875,-0.2773438,-0.3598633,-0.5209961,-0.2021484,-0.1245117,0.2333984
1725,-60.0625,85.875,-5.625,-0.4868164,-0.355957,-0.3554688,-0.206543,-0.1279297,0.2280273
1729,-20.5625,38.6875,-7.875,-0.3588867,-0.5307617,-0.2167969,-0.2128906,-0.1342773,0.2255859
1733,26.5625,25.0625,2.25,0.1328125,-0.4067383,-0.2285156,-0.2138672,-0.1342773,0.2211914
1737,57.25,37.125,3.125,0.2568359,-0.1928711,-0.3862305,-0.2172852,-0.1333008,0.2211914
1741,61.8125,37.8125,4.375,0.1367188,0.07080078,-0.5209961,-0.2172852,-0.1269531,0.2226563
1745,54.375,23.75,14.5625,0.109375,0.08251953,-0.5478516,-0.2236328,-0.1220703,0.2202148
1750,47.4375,25.75,26,0.2333984,0.1367188,-0.4399414,-0.2236328,-0.1181641,0.2202148
1754,36.6875,21.5625,31.1875,0.07470703,0.09423828,-0.4360352,-0.2255859,-0.1142578,0.21875
1758,30.375,-2.8125,26,-0.02197266,-0.006347656,-0.4208984,-0.2280273,-0.109375,0.2211914
1762,35.5625,-25.75,20.1875,0.08251953,-0.1655273,-0.4091797,-0.2270508,-0.1069336,0.2202148
1766,51.5,-33.8125,21.6875,0.190918,-0.2783203,-0.4282227,-0.2255859,-0.1005859,0.2226563
1770,73.9375,-37.9375,19.375,0.2724609,-0.2314453,-0.4399414,-0.2236328,-0.09716797,0.2270508
1774,81.1875,-38.1875,20,0.1484375,-0.2163086,-0.4902344,-0.222168,-0.08935547,0.2280273
1778,91.375,-52.4375,19.5625,0.08251953,-0.2045898,-0.5478516,-0.21875,-0.08203125,0.2324219
1782,90.5,-66.3125,12.9375,-0.02197266,-0.1347656,-0.5825195,-0.2138672,-0.07324219,0.2363281
1786,93.875,-93.125,4.8125,0.01269531,-0.1191406,-0.7324219,-0.2114258,-0.06933594,0.2402344
1790,86.8125,-103.75,2.625,0.03955078,-0.1616211,-0.8168945,-0.2045898,-0.06054688,0.2470703
1794,97,-121.25,1.125,0.2568359,-0.1928711,-0.9941406,-0.1948242,-0.05175781,0.2524414
1798,89.9375,-93.625,3.5,0.3305664,-0.1230469,-0.859375,-0.1889648,-0.04833984,0.2583008
1802,82.125,-83.0625,10.3125,-0.006347656,-0.1850586,-0.8979492,-0.1791992,-0.03955078,0.2661133
1806,71.75,-88.125,8.625,-0.2583008,-0.1577148,-0.7285156,-0.1723633,-0.03173828,0.2661133
1810,76.75,-141.6875,12.4375,-0.6376953,-0.4570313,-1.005371,-0.1674805,-0.02685547,0.2705078
1814,102.5,-191.1875,-11.6875,-0.06445313,-0.355957,-1.086426,-0.1533203,-0.01806641,0.2773438
1818,99,-176.1875,-24.6875,0.1713867,-0.2783203,-1.163086,-0.1352539,-0.009277344,0.2827148
1822,87.4375,-148.875,-35.6875,-0.002441406,-0.2314453,-1.094238,-0.1245117,-0.004394531,0.2880859
1826,68.4375,-137.75,-23.9375,-0.4482422,-0.3481445,-1.01709,-0.112793,0.001464844,0.2910156
1830,75.75,-165.5,-4.25,-0.6225586,-0.5424805,-1.074707,-0.09716797,0.008789063,0.2973633
1834,97,-179.25,1.875,-0.3046875,-0.4921875,-1.074707,-0.08789063,0.01269531,0.2988281
1838,103.375,-170.125,1.4375,-0.362793,-0.503418,-1.144043,-0.06982422,0.02490234,0.2973633
1842,106.625,-167.25,0.3125,-0.4287109,-0.453125,-1.128418,-0.05419922,0.03271484,0.300293
1846,93,-165.8125,6.25,-0.5795898,-0.4140625,-1.151855,-0.04248047,0.04003906,0.2988281
1850,74.625,-176,3.875,-0.6494141,-0.3989258,-1.174805,-0.02685547,0.04882813,0.2988281
1854,57.3125,-188.9375,-4.5,-0.715332,-0.5,-1.070801,-0.0078125,0.05517578,0.2949219
1858,63.4375,-211.375,-9.5625,-0.6884766,-0.6899414,-1.094238,0.003417969,0.05761719,0.2949219
1862,82.8125,-213.3125,-18.125,-0.6264648,-0.7910156,-0.9824219,0.02246094,0.06494141,0.2919922
1866,97.875,-204.6875,-19.4375,-0.6264648,-0.7910156,-0.9863281,0.04394531,0.07373047,0.2866211
1870,104.125,-187.4375,-19.6875,-0.7543945,-0.7368164,-0.9169922,0.0546875,0.08105469,0.2797852
1874,97.1875,-179.8125,-18.6875,-0.9985352,-0.7016602,-0.8632813,0.06884766,0.08984375,0.2729492
1879,94.625,-207.375,-15.125,-1.285156,-0.8222656,-0.9594727,0.08691406,0.09765625,0.2651367
1883,105.4375,-241.0625,-20.625,-1.133789,-0.9194336,-0.9326172,0.09619141,0.1064453,0.2553711
1887,121.1875,-245.5625,-16,-1.033203,-0.9853516,-0.9208984,0.1176758,0.1152344,0.2402344
1891,138.125,-243.75,-14.5625,-1.063965,-0.9580078,-0.9130859,0.1376953,0.125,0.2255859
1895,135.375,-230.4375,-8.5,-0.9868164,-0.7832031,-0.9052734,0.1474609,0.1313477,0.2133789
1899,114.3125,-215.625,-5,-1.083496,-0.7133789,-0.8979492,0.1640625,0.1425781,0.1943359
1903,96.625,-227.375,-13.6875,-1.261719,-0.7753906,-0.8632813,0.1757813,0.1489258,0.175293
1907,86.5625,-240.25,-16.1875,-1.195801,-0.8535156,-0.8325195,0.184082,0.1513672,0.1616211
1911,86.6875,-242,-13.8125,-1.095215,-0.9272461,-0.7978516,0.1948242,0.1586914,0.1425781
1915,96.0625,-246.0625,-12.4375,-1.149414,-1.000977,-0.7133789,0.2070313,0.1625977,0.1235352
1919,113.125,-248,-8.1875,-0.9907227,-0.9814453,-0.7055664,0.2163086,0.1650391,0.1069336
1923,123.9375,-219.6875,9.75,-0.78125,-0.8881836,-0.6591797,0.2236328,0.1689453,0.08251953
1927,125.8125,-193.8125,18.625,-0.8974609,-0.8066406,-0.6708984,0.2319336,0.1713867,0.05664063
1931,120.625,-204.125,7.375,-1.005859,-0.6899414,-0.6669922,0.2353516,0.1723633,0.04296875
1935,102.375,-212.1875,-9.0625,-0.8666992,-0.5229492,-0.574707,0.2402344,0.1748047,0.01855469
1939,73.25,-215.625,-26.5625,-0.8510742,-0.4257813,-0.5478516,0.2402344,0.1787109,-0.002441406
1943,52.75,-208,-17.875,-0.6572266,-0.534668,-0.5244141,0.2412109,0.1801758,-0.01367188
1947,41.625,-166,4.3125,-0.3588867,-0.5541992,-0.3823242,0.2412109,0.1801758,-0.03662109
1951,33.4375,-124.4375,6.625,-0.4091797,-0.5112305,-0.359375,0.2412109,0.1787109,-0.04736328
1955,17,-115.5625,-15.625,-0.5605469,-0.4492188,-0.3745117,0.2412109,0.1801758,-0.05419922
1959,3.875,-119.375,-38.1875,-0.5292969,-0.4921875,-0.3666992,0.2392578,0.1801758,-0.06787109
1963,-3.3125,-104.6875,-41.875,-0.328125,-0.5620117,-0.2744141,0.2329102,0.1835938,-0.07177734
1967,0.125,-68.875,-28.875,-0.246582,-0.6357422,-0.2514648,0.230957,0.1850586,-0.07763672
1971,4.5,-31.1875,-15.75,-0.1962891,-0.5854492,-0.2900391,0.2285156,0.1875,-0.08300781
1975,-2.6875,7.25,-7.8125,-0.1264648,-0.4609375,-0.359375,0.2270508,0.1884766,-0.08300781
1979,-16.75,43.375,-3.0625,-0.246582,-0.4765625,-0.4130859,0.2260742,0.1875,-0.08300781
1983,-22.75,54.3125,-10.75,-0.4091797,-0.534668,-0.4399414,0.2270508,0.1899414,-0.07763672
1987,-25.8125,62.6875,-18.375,-0.3666992,-0.5698242,-0.4248047,0.2270508,0.1914063,-0.07177734
1991,-31.0625,86.1875,-16.5,-0.3125,-0.534668,-0.4399414,0.2270508,0.1923828,-0.06542969
1995,-42.125,110.5625,-11.75,-0.3745117,-0.4804688,-0.5053711,0.2260742,0.1938477,-0.05712891
1999,-58.875,137.375,-2,-0.4091797,-0.4765625,-0.5478516,0.2260742,0.1938477,-0.04492188
2003,-78.3125,161.4375,7.3125,-0.5332031,-0.503418,-0.5825195,0.2260742,0.1938477,-0.03515625
2008,-95.5,175.5625,8.6875,-0.6186523,-0.5776367,-0.5864258,0.2270508,0.1938477,-0.01611328
2012,-107.875,189.125,6.6875,-0.6611328,-0.6513672,-0.5898438,0.2270508,0.1923828,0.002441406
2016,-116.125,193.9375,-1.75,-0.78125,-0.7446289,-0.5976563,0.2246094,0.1938477,0.01708984
2020,-115,199.8125,-4.4375,-0.7578125,-0.8144531,-0.6015625,0.222168,0.1923828,0.0390625
2024,-115,227.25,6.75,-0.6845703,-0.7832031,-0.5898438,0.2177734,0.1875,0.06201172
2028,-119.875,263.9375,28.5625,-0.765625,-0.7172852,-0.6708984,0.2128906,0.1850586,0.07861328
2032,-136.3125,288.125,42,-1.021484,-0.6396484,-0.7592773,0.2045898,0.1801758,0.1044922
2036,-157.9375,269.8125,27.75,-1.347168,-0.7094727,-0.8168945,0.1948242,0.1713867,0.1328125
2040,-176.1875,227.5625,4.0625,-1.432129,-0.8105469,-0.7441406,0.1855469,0.1660156,0.1508789
2044,-182.6875,201.6875,-2.6875,-1.269531,-0.9658203,-0.7285156,0.1748047,0.1538086,0.175293
2048,-175.9375,212.375,16.8125,-1.025391,-1.02832,-0.7363281,0.1616211,0.1425781,0.1953125
2052,-156.5625,243.875,51.5,-0.9672852,-1.066895,-0.840332,0.1523438,0.1337891,0.2080078
2056,-131.75,277.6875,87.4375,-0.8818359,-0.9467773,-1.005371,0.1357422,0.1186523,0.2280273
2060,-126.1875,312.75,101.9375,-0.9594727,-0.7172852,-1.19043,0.1176758,0.1049805,0.2470703
2064,-145.125,293.875,76.1875,-1.319824,-0.550293,-1.405762,0.1035156,0.09521484,0.2583008
2068,-177.125,241,38.0625,-1.292969,-0.4804688,-1.401855,0.08056641,0.08105469,0.2729492
2072,-204.875,206.6875,23.8125,-1.180664,-0.6748047,-1.340332,0.06152344,0.06396484,0.2880859
2076,-196.875,197,32.5625,-0.9365234,-0.9233398,-1.251953,0.05078125,0.04736328,0.293457
2080,-162.625,220.4375,58.1875,-0.715332,-1.004883,-1.19043,0.03173828,0.02880859,0.300293
2084,-133.25,259.875,82.9375,-0.6728516,-0.7910156,-1.263184,0.01074219,0.01367188,0.3056641
2088,-124.8125,272,90.75,-0.8198242,-0.5698242,-1.405762,-0.005859375,0.004882813,0.3085938
2092,-138.5625,252.5,76.5625,-0.8198242,-0.355957,-1.524902,-0.03320313,-0.006835938,0.3085938
2096,-158.5625,221.1875,52.3125,-0.6494141,-0.3481445,-1.51709,-0.05664063,-0.02050781,0.3100586
2100,-162.625,207.75,26.875,-0.3393555,-0.4257813,-1.455566,-0.06884766,-0.03076172,0.3056641
2104,-154.8125,228.125,21.0625,-0.296875,-0.5229492,-1.317383,-0.08886719,-0.04931641,0.300293
2108,-136.1875,238.1875,31.5625,-0.5175781,-0.5927734,-1.324707,-0.112793,-0.06201172,0.293457
2112,-108.4375,229.6875,45.9375,-0.4052734,-0.5151367,-1.259277,-0.1259766,-0.06689453,0.2880859
2116,-87.3125,230.3125,49.9375,-0.1923828,-0.3793945,-1.213379,-0.1474609,-0.07568359,0.2783203
2120,-84.9375,234.875,38.75,0.02050781,-0.1269531,-1.263184,-0.1708984,-0.08056641,0.2661133
2124,-115.875,243.8125,14.25,-0.05273438,0.04003906,-1.282715,-0.1831055,-0.08447266,0.2583008
2128,-156.9375,235.875,-6.9375,-0.3164063,0.01660156,-1.074707,-0.2045898,-0.09423828,0.2416992
2132,-180.75,198.875,-10.8125,-0.7231445,-0.3056641,-0.840332,-0.2211914,-0.1083984,0.2241211
2137,-162.875,146.625,4,-0.6845703,-0.6591797,-0.34375,-0.2304688,-0.1166992,0.2143555
2141,-98.8125,111.6875,25.3125,-0.347168,-0.8725586,0.03271484,-0.2402344,-0.1279297,0.2011719
2145,-25.75,85.8125,26.75,-0.1611328,-0.7988281,0.07910156,-0.2460938,-0.1308594,0.1899414
2149,21.1875,55.4375,9.3125,-0.01806641,-0.5151367,-0.09375,-0.2485352,-0.1269531,0.1875
2153,33.6875,32.1875,-13.25,0.1328125,-0.2124023,-0.1630859,-0.2543945,-0.1269531,0.1831055
2157,32.5,16.75,-31.25,0.08251953,-0.06445313,-0.1899414,-0.253418,-0.1293945,0.1845703
2161,35.3125,-2.625,-35.625,0.06689453,-0.006347656,-0.2514648,-0.2543945,-0.1279297,0.1831055
2165,34.3125,-11.3125,-18.375,0.03173828,-0.002441406,-0.2246094,-0.253418,-0.1279297,0.1831055
2169,44.5,-26.75,-0.875,0.02441406,-0.05273438,-0.2631836,-0.253418,-0.1269531,0.1860352
2173,57.375,-36.625,12.75,0.1054688,-0.03759766,-0.2939453,-0.2509766,-0.1220703,0.1889648
2177,63.125,-47.3125,15.3125,0.1171875,0.04003906,-0.359375,-0.2470703,-0.1196289,0.1914063
2181,57,-61.125,5.875,0.08642578,0.07861328,-0.4130859,-0.2446289,-0.1132813,0.199707
2185,47.1875,-78.4375,-10.6875,-0.04492188,0.04394531,-0.3632813,-0.2436523,-0.1118164,0.2021484
2189,50.625,-102.8125,-16.25,-0.2192383,-0.1538086,-0.3286133,-0.2363281,-0.109375,0.2104492
2193,84.9375,-133.0625,-10.875,-0.1303711,-0.324707,-0.4282227,-0.2270508,-0.1044922,0.2202148
2197,126.9375,-141.25,2,0.008789063,-0.3442383,-0.574707,-0.222168,-0.1005859,0.2255859
2201,148.5,-133.5625,13.375,-0.01806641,-0.2548828,-0.6977539,-0.2089844,-0.09082031,0.237793
2205,141.25,-126.125,15.625,-0.2426758,-0.1269531,-0.7094727,-0.2021484,-0.07714844,0.2470703
2209,121.875,-149.625,3.125,-0.6225586,-0.1230469,-0.7670898,-0.1938477,-0.06933594,0.2539063
2213,134.0625,-225.1875,-9.75,-0.6342773,-0.4296875,-1.05957,-0.1791992,-0.05566406,0.2636719
2217,169.1875,-259.6875,-30.6875,-0.04492188,-0.3442383,-1.155762,-0.1582031,-0.04589844,0.2783203
2221,165,-223.6875,-19.375,-0.04101563,-0.2978516,-1.270996,-0.1425781,-0.03466797,0.28125
2225,136.3125,-180.875,-5.6875,-0.2543945,-0.2163086,-1.155762,-0.1235352,-0.02197266,0.2880859
2229,108.875,-174.625,5.1875,-0.8198242,-0.4414063,-1.043945,-0.1069336,-0.009277344,0.2949219
2233,121.5,-226,11.375,-0.9711914,-0.6708984,-1.113281,-0.09472656,0,0.2973633
2237,140.1875,-252.625,6,-0.7348633,-0.7485352,-1.178711,-0.07128906,0.01025391,0.3017578
2241,164.0625,-259.9375,2.6875,-0.6225586,-0.7792969,-1.382324,-0.04736328,0.02636719,0.3032227
2245,163.1875,-239.375,6.625,-0.5913086,-0.6435547,-1.416992,-0.02929688,0.03759766,0.300293
2249,140.8125,-220.8125,10.375,-0.6108398,-0.5073242,-1.447754,-0.005859375,0.05126953,0.2973633
2253,111.8125,-209.6875,4.5625,-0.8125,-0.5,-1.340332,0.01513672,0.06494141,0.2919922
2257,93.875,-227.25,4.625,-1.056641,-0.6435547,-1.351563,0.02832031,0.07128906,0.2880859
2261,90.25,-248.9375,-6.0625,-0.9868164,-0.7172852,-1.221191,0.04882813,0.08007813,0.28125
2266,94.8125,-253.75,-11.4375,-1.013672,-0.8647461,-1.125,0.07373047,0.08642578,0.2744141
2270,108.5625,-255.25,-15.5,-1.067871,-0.9467773,-1.028809,0.08886719,0.09521484,0.2651367
2274,121.5625,-245.875,-8.9375,-1.11084,-0.9506836,-0.9980469,0.1079102,0.1035156,0.2524414
2278,122.1875,-231.875,2.5,-1.168945,-0.8999023,-0.9863281,0.128418,0.1137695,0.237793
2282,118.5625,-233.5,5.0625,-1.358887,-0.9194336,-0.8979492,0.1401367,0.1201172,0.2255859
2286,124.3125,-263.1875,-5.0625,-1.436035,-0.9541016,-0.9018555,0.1557617,0.1289063,0.2089844
2290,133.8125,-287.4375,-15.0625,-1.393555,-1.004883,-0.84375,0.1757813,0.1386719,0.1875
2294,143.375,-295.125,-17.25,-1.273438,-1.000977,-0.8364258,0.1865234,0.1425781,0.1699219
2298,143.5,-282.75,-7.5,-1.227051,-0.9116211,-0.7822266,0.2011719,0.1513672,0.1425781
2302,134.6875,-269.875,5.5625,-1.289063,-0.8803711,-0.7475586,0.2138672,0.1586914,0.1181641
2306,129.6875,-268.9375,11.6875,-1.327637,-0.9116211,-0.7055664,0.222168,0.1611328,0.09619141
2310,125.125,-273.5,14.625,-1.351074,-0.8959961,-0.644043,0.230957,0.1635742,0.06884766
2314,117,-283.1875,7.5,-1.424316,-0.9194336,-0.5825195,0.2402344,0.1650391,0.04199219
2318,116.375,-299.6875,-3.5,-1.265625,-0.9038086,-0.5898438,0.2451172,0.1660156,0.02148438
2322,108,-286.1875,2.25,-0.9438477,-0.7792969,-0.6245117,0.2475586,0.1689453,-0.008300781
2326,93.125,-248.75,18.1875,-0.7387695,-0.7016602,-0.5400391,0.2475586,0.1650391,-0.03662109
2330,80.3125,-215.4375,25.3125,-0.831543,-0.7172852,-0.4863281,0.25,0.1660156,-0.05175781
2334,71,-215.4375,14.6875,-0.9829102,-0.6552734,-0.4013672,0.25,0.1611328,-0.07324219
2338,52.25,-222,3,-0.8588867,-0.5229492,-0.4052734,0.2485352,0.1601563,-0.09228516
2342,35.25,-218.1875,-4.75,-0.7192383,-0.550293,-0.3862305,0.2436523,0.1586914,-0.1074219
2346,32.75,-197.9375,2.625,-0.4208984,-0.565918,-0.3823242,0.2368164,0.1586914,-0.1264648
2350,36.75,-151.6875,18.9375,-0.2080078,-0.6201172,-0.3823242,0.2353516,0.15625,-0.1425781
2354,50,-96.75,32.1875,-0.05273438,-0.5966797,-0.4785156,0.2294922,0.1547852,-0.1523438
2358,54.375,-44.3125,34.25,0.05126953,-0.4648438,-0.5976563,0.2294922,0.1499023,-0.1591797
2362,41.5,11.1875,27.9375,0.1484375,-0.3056641,-0.6552734,0.230957,0.1450195,-0.1630859
2366,20.75,66.4375,23.25,0.05908203,-0.3095703,-0.6787109,0.234375,0.1411133,-0.1660156
2370,7.25,109.3125,26.1875,-0.1225586,-0.3911133,-0.7475586,0.237793,0.1386719,-0.1591797
2374,-4.875,134.1875,22.8125,-0.2504883,-0.421875,-0.7900391,0.2451172,0.1376953,-0.1523438
2378,-21.8125,152.9375,13.0625,-0.2773438,-0.3989258,-0.8129883,0.2485352,0.1362305,-0.1425781
2382,-44.875,177.0625,0.4375,-0.3125,-0.4067383,-0.840332,0.253418,0.1362305,-0.1303711
2386,-72.875,203.5,-13.8125,-0.3706055,-0.3989258,-0.8671875,0.2583008,0.1386719,-0.1088867
2390,-109.5,231.125,-29.0625,-0.4790039,-0.3598633,-0.9326172,0.2602539,0.1411133,-0.09521484
2395,-149.875,260.875,-38.875,-0.5952148,-0.4453125,-0.9594727,0.2617188,0.1474609,-0.06933594
2399,-180.8125,295.9375,-33.125,-0.7734375,-0.6083984,-0.9746094,0.2602539,0.1538086,-0.03662109
2403,-195.5,330.25,-14,-0.9946289,-0.8066406,-0.9863281,0.2592773,0.1538086,-0.01220703
2407,-194.25,361.0625,9.625,-1.165039,-0.8920898,-1.032227,0.2543945,0.1538086,0.02685547
2411,-193.9375,387.125,28.875,-1.374023,-0.9233398,-1.125,0.2475586,0.1459961,0.06787109
2415,-191.5625,385.4375,26.375,-1.657227,-0.9506836,-1.228516,0.2392578,0.1435547,0.09619141
2419,-191,372.875,20.0625,-1.67627,-0.9155273,-1.282715,0.2236328,0.1298828,0.1342773
2423,-192.5,373.3125,31.5625,-1.672363,-0.9311523,-1.317383,0.2055664,0.1210938,0.1699219
2427,-187.625,387.125,50.875,-1.618164,-0.8881836,-1.344238,0.1904297,0.1113281,0.1899414
2431,-178.5625,402.4375,72.75,-1.67627,-0.8686523,-1.413086,0.1665039,0.09619141,0.2211914
2435,-169.25,400.9375,79,-1.819824,-0.8105469,-1.520996,0.1367188,0.07861328,0.2485352
2439,-160.125,368.875,77.5,-1.916504,-0.7563477,-1.547852,0.1166992,0.06494141,0.2661133
2443,-148.9375,324.0625,67.125,-1.835449,-0.6977539,-1.532715,0.08691406,0.04980469,0.28125
2447,-136.8125,281.375,57.4375,-1.610352,-0.7172852,-1.498047,0.06054688,0.03613281,0.2919922
2451,-118.3125,270.4375,50.375,-1.230957,-0.6787109,-1.44043,0.04394531,0.02734375,0.2988281
2455,-114.125,278.5625,40.875,-1.191895,-0.5463867,-1.486328,0.01757813,0.01513672,0.3041992
2459,-126.8125,266,30.6875,-1.296875,-0.4765625,-1.547852,-0.0078125,0.002441406,0.3071289
2463,-138.0625,237.0625,22.4375,-1.180664,-0.484375,-1.498047,-0.02587891,-0.006835938,0.3100586
2467,-132,216,24.375,-0.9555664,-0.6162109,-1.378906,-0.04833984,-0.01953125,0.3110352
2471,-104.5625,218,34.1875,-0.6533203,-0.6513672,-1.26709,-0.06982422,-0.03173828,0.3085938
2475,-86.125,239.0625,37.3125,-0.5527344,-0.4765625,-1.20166,-0.08398438,-0.03710938,0.3032227
2479,-79.625,238.5,29.75,-0.6376953,-0.3364258,-1.213379,-0.1079102,-0.04443359,0.2963867
2483,-77.0625,213.625,16.875,-0.6455078,-0.2783203,-1.13623,-0.1293945,-0.04931641,0.2895508
2487,-62.8125,187.75,15.75,-0.4868164,-0.3520508,-1.047852,-0.1425781,-0.05566406,0.28125
2491,-42.6875,182.25,19.875,-0.2119141,-0.3056641,-1.047852,-0.1591797,-0.06054688,0.2729492
2495,-40.0625,189.8125,18.5,0.02050781,-0.01806641,-1.140137,-0.1748047,-0.06201172,0.2636719
2499,-79.6875,201.875,-7.0625,0.04736328,0.2299805,-1.236328,-0.1865234,-0.06298828,0.2568359
2503,-130.1875,193.1875,-30.5625,-0.09912109,0.1484375,-1.224609,-0.2021484,-0.07324219,0.2460938
2507,-162.8125,185.6875,-37.125,-0.2270508,-0.04882813,-1.01709,-0.2172852,-0.08544922,0.2324219
2511,-172.4375,175.75,-21.0625,-0.3085938,-0.1655273,-0.8129883,-0.2255859,-0.09814453,0.2202148
2515,-173.8125,154.75,-12.9375,-0.3706055,-0.1733398,-0.6206055,-0.2387695,-0.1108398,0.2080078
2519,-169.9375,121.125,-11.9375,-0.4521484,-0.3442383,-0.4438477,-0.2470703,-0.1245117,0.1914063
2524,-147.375,81.75,-0.375,-0.4052734,-0.565918,-0.2324219,-0.2509766,-0.1333008,0.1845703
2528,-100.5625,52.5,21.875,-0.3125,-0.8457031,0.03271484,-0.2553711,-0.1396484,0.175293
2532,-30,33.5,42,-0.1069336,-0.8261719,0.1904297,-0.2592773,-0.1430664,0.1708984
2536,22.4375,22.3125,44.875,0.07861328,-0.5424805,0.105957,-0.2617188,-0.1396484,0.1669922
2540,50.125,5.9375,23.0625,0.1635742,-0.2666016,-0.08203125,-0.2651367,-0.1342773,0.168457
2544,51.125,-12.1875,-7.0625,0.206543,-0.01806641,-0.1821289,-0.2626953,-0.1293945,0.168457
2548,38.3125,-29.25,-25.625,0.09033203,0.02441406,-0.2436523,-0.2626953,-0.1293945,0.1699219
2552,33.9375,-45.9375,-31.6875,0.06689453,0.0009765625,-0.2324219,-0.2617188,-0.1293945,0.175293
2556,35.625,-56.125,-20,0.04736328,-0.05664063,-0.2592773,-0.2568359,-0.1293945,0.1791992
2560,49.4375,-65.8125,-5.0625,0.02050781,-0.1577148,-0.3286133,-0.2543945,-0.1279297,0.1821289
2564,70.0625,-73.5625,9.1875,0.05126953,-0.1850586,-0.3862305,-0.2495117,-0.1269531,0.1889648
2568,78.875,-78.625,14.9375,0.02050781,-0.08398438,-0.4399414,-0.2446289,-0.1206055,0.1967773
2572,71.1875,-97.375,3.375,-0.1303711,-0.006347656,-0.5131836,-0.2426758,-0.1157227,0.2011719
2576,61.625,-131.4375,-16.8125,-0.246582,-0.09179688,-0.5551758,-0.2329102,-0.1108398,0.2119141
2580,85.75,-177.5,-30.5625,-0.1689453,-0.3950195,-0.6552734,-0.222168,-0.1069336,0.2226563
2584,131.1875,-186.3125,-33.9375,0.07470703,-0.453125,-0.7631836,-0.2138672,-0.1030273,0.2324219
2588,159,-165.8125,-13,-0.01806641,-0.4765625,-0.8862305,-0.2006836,-0.09423828,0.2460938
2592,170.75,-158.625,-9.5625,-0.2192383,-0.2900391,-0.9746094,-0.1865234,-0.08056641,0.2568359
2596,177.9375,-192.375,-0.5625,-0.4248047,-0.4375,-1.232422,-0.1757813,-0.07080078,0.262207
2600,202.6875,-231.5625,-17.4375,-0.1303711,-0.2392578,-1.367188,-0.1582031,-0.0546875,0.2758789
2604,185.4375,-225.375,-14.875,-0.2504883,-0.1733398,-1.416992,-0.1401367,-0.03808594,0.2851563
2608,151.625,-216.5,-18.875,-0.3666992,-0.1113281,-1.336426,-0.1259766,-0.02587891,0.2919922
2612,103.5,-199.4375,-31.4375,-0.5566406,-0.2084961,-1.109375,-0.1044922,-0.01318359,0.2949219
2616,108.5,-232.9375,-28.9375,-0.9091797,-0.7641602,-1.205566,-0.08398438,-0.004394531,0.2988281
2620,160.875,-253.4375,-28.1875,-0.4868164,-0.8300781,-1.140137,-0.06640625,0.001464844,0.3017578
2624,180.4375,-218.625,-10.8125,-0.5292969,-0.7329102,-1.155762,-0.04492188,0.02001953,0.3032227
2628,171.9375,-197.1875,-3.75,-0.9052734,-0.5463867,-1.155762,-0.02587891,0.03613281,0.300293
2632,138.5625,-209.8125,-6,-1.300781,-0.5307617,-1.094238,-0.01269531,0.04736328,0.2988281
2636,119.1875,-252.6875,-19.375,-1.467285,-0.6821289,-1.024902,0.01074219,0.06103516,0.2949219
2640,119.4375,-288.4375,-26.3125,-1.416992,-0.8378906,-0.9746094,0.03173828,0.07275391,0.2880859
2644,134,-303.0625,-24.625,-1.393555,-1.004883,-0.9208984,0.05078125,0.08105469,0.28125
2648,155.5625,-304.5,-13.875,-1.389648,-1.062988,-0.9438477,0.07714844,0.09375,0.2675781
2653,170.25,-298.8125,0.6875,-1.420898,-1.012695,-1.001465,0.1044922,0.1098633,0.25
2657,174,-296.375,12.75,-1.501953,-1.004883,-1.040039,0.1186523,0.1176758,0.2392578
2661,173.25,-311.0625,13.0625,-1.637695,-1.012695,-1.078613,0.144043,0.1289063,0.2143555
2665,176.125,-337.875,4.6875,-1.645508,-1.066895,-1.097656,0.1665039,0.1411133,0.1899414
2669,179.625,-347.6875,6.875,-1.517578,-1.08252,-1.078613,0.1821289,0.1489258,0.1708984
2673,179.125,-341.3125,18.125,-1.389648,-1.043945,-1.063477,0.2021484,0.15625,0.1396484
2677,171.9375,-323.375,28.5625,-1.366211,-1.020508,-0.9941406,0.2163086,0.1635742,0.1069336
2681,159.25,-312,32,-1.362793,-0.9389648,-0.9902344,0.2260742,0.1650391,0.08251953
2685,142.5625,-305,29.5625,-1.381836,-0.8920898,-0.894043,0.2368164,0.1674805,0.05126953
2689,128.4375,-302.8125,21.625,-1.370117,-0.9155273,-0.8632813,0.2451172,0.1689453,0.02001953
2693,118.0625,-298.5,17.375,-1.296875,-0.9077148,-0.8129883,0.2485352,0.1650391,-0.001464844
2697,109.6875,-286.3125,19,-1.095215,-0.8066406,-0.7475586,0.25,0.1635742,-0.03515625
2701,92.9375,-260.5,17.875,-0.9946289,-0.7094727,-0.59375,0.2509766,0.1611328,-0.06103516
2705,78.5,-240.0625,11.375,-0.9287109,-0.6787109,-0.5131836,0.2509766,0.1601563,-0.07763672
2709,68.9375,-225,4.625,-0.9052734,-0.6708984,-0.394043,0.2475586,0.1577148,-0.1020508
2713,61.375,-211.3125,2.8125,-0.7929688,-0.6318359,-0.3632813,0.2412109,0.15625,-0.1235352
2717,54.75,-190.1875,8.3125,-0.6147461,-0.6279297,-0.3325195,0.237793,0.1538086,-0.1347656
2721,52.1875,-159.4375,20.0625,-0.4404297,-0.6240234,-0.324707,0.2329102,0.1523438,-0.1508789
2725,50.125,-122.9375,31.25,-0.3085938,-0.6083984,-0.3168945,0.230957,0.1459961,-0.1660156
2729,52.4375,-89.375,32.6875,-0.2231445,-0.5737305,-0.4248047,0.2270508,0.1450195,-0.1713867
2733,50.375,-58.875,26.5625,-0.05273438,-0.4765625,-0.4975586,0.2260742,0.1401367,-0.1806641
2737,32.1875,-14.0625,19.8125,0.1132813,-0.3095703,-0.5439453,0.2246094,0.1362305,-0.1875
2741,-0.125,36.5625,12.9375,0.07861328,-0.2202148,-0.559082,0.2260742,0.1323242,-0.1875
2745,-27.5625,67.625,6.5,-0.1572266,-0.3056641,-0.6591797,0.2294922,0.1347656,-0.1835938
2749,-50.75,84.5625,3.0625,-0.2270508,-0.324707,-0.7133789,0.2319336,0.1362305,-0.1767578
2753,-77.0625,101.5,-6,-0.2543945,-0.3286133,-0.7402344,0.234375,0.1376953,-0.1699219
2757,-102.875,119.25,-18.9375,-0.2734375,-0.3637695,-0.7861328,0.237793,0.1411133,-0.1538086
2761,-127.8125,146.5625,-24.8125,-0.3046875,-0.4375,-0.7978516,0.2412109,0.1474609,-0.1416016
2765,-150.125,181.9375,-25.3125,-0.4013672,-0.5581055,-0.7822266,0.2412109,0.1499023,-0.1264648
2769,-163.5,213.9375,-28.875,-0.5874023,-0.7368164,-0.7553711,0.2460938,0.1577148,-0.1020508
2773,-165.125,236.5,-34.125,-0.7773438,-0.8881836,-0.7207031,0.2475586,0.1635742,-0.07324219
2777,-162.0625,259.75,-34.125,-0.9013672,-0.9736328,-0.6899414,0.2485352,0.1689453,-0.05273438
2782,-157.5625,288.125,-20.3125,-0.9907227,-0.9970703,-0.6860352,0.2451172,0.1699219,-0.02294922
2786,-155.4375,325.875,5.875,-1.067871,-0.9580078,-0.7363281,0.2426758,0.1713867,0.009277344
2790,-162.375,367.875,31.625,-1.149414,-0.8457031,-0.8632813,0.2426758,0.1713867,0.03369141
2794,-182,411.625,48.4375,-1.165039,-0.7563477,-1.024902,0.2329102,0.1635742,0.0703125
2798,-199.5625,456.3125,57.8125,-1.32373,-0.8144531,-1.20166,0.2211914,0.1513672,0.1181641
2802,-207.6875,481.3125,71.1875,-1.738281,-0.9892578,-1.382324,0.2080078,0.1435547,0.144043
2806,-207.125,462.3125,74.4375,-2.211426,-1.136719,-1.367188,0.1831055,0.1289063,0.1845703
2810,-188.25,382.75,61.5,-2.257813,-1.090332,-1.317383,0.1567383,0.1113281,0.2211914
2814,-173.75,331.8125,51.6875,-1.765625,-0.9311523,-1.221191,0.1401367,0.09863281,0.237793
2818,-162.0625,330.9375,51.0625,-1.494141,-0.8764648,-1.251953,0.1166992,0.08398438,0.2583008
2822,-145.9375,337.4375,63.3125,-1.494141,-0.8647461,-1.297852,0.08886719,0.06738281,0.2744141
2826,-126.375,325.5,81.4375,-1.57959,-0.8183594,-1.344238,0.06982422,0.05859375,0.2841797
2830,-107.5,298.375,94.3125,-1.455566,-0.7446289,-1.371094,0.04150391,0.04394531,0.2973633
2834,-90.25,275.5625,96.6875,-1.15332,-0.6396484,-1.359375,0.01660156,0.03515625,0.3017578
2838,-75.8125,267.5,82.8125,-0.9169922,-0.519043,-1.359375,0,0.03027344,0.3041992
2842,-84.4375,262.3125,50.625,-0.862793,-0.3325195,-1.409668,-0.0234375,0.02148438,0.3056641
2846,-97.9375,238,21.6875,-0.9052734,-0.4179688,-1.432617,-0.04980469,0.01367188,0.3032227
2850,-93.5625,206.5,-2.1875,-0.7114258,-0.453125,-1.355469,-0.06298828,0.006347656,0.3032227
2854,-80.875,194.75,-4.25,-0.5722656,-0.5620117,-1.320801,-0.08203125,-0.001953125,0.3017578
2858,-62.0625,202.9375,0.625,-0.3588867,-0.5268555,-1.293945,-0.1030273,-0.009277344,0.2963867
2862,-56.8125,220,5.4375,-0.2773438,-0.3754883,-1.340332,-0.1162109,-0.01318359,0.2919922
2866,-61.9375,223.875,-1.3125,-0.2890625,-0.2392578,-1.378906,-0.1367188,-0.01953125,0.2851563
2870,-77.5625,217,-15.8125,-0.296875,-0.1616211,-1.355469,-0.1557617,-0.02685547,0.2744141
2874,-92.6875,205.875,-27.0625,-0.3393555,-0.1811523,-1.270996,-0.168457,-0.03173828,0.269043
2878,-98.625,190.1875,-26.75,-0.328125,-0.2314453,-1.163086,-0.1875,-0.03955078,0.2583008
2882,-100,179.5,-25.6875,-0.2231445,-0.1850586,-1.063477,-0.2021484,-0.05078125,0.25
2886,-115.1875,178.875,-22,-0.2583008,-0.1381836,-0.9980469,-0.2114258,-0.05712891,0.2392578
2890,-132.75,166.375,-18.125,-0.3164063,-0.2431641,-0.859375,-0.2246094,-0.06835938,0.2270508
2894,-131.5,147.0625,-14.125,-0.262207,-0.4179688,-0.6206055,-0.2353516,-0.08056641,0.2143555
2898,-109.4375,132.0625,-12.75,-0.2192383,-0.5737305,-0.2978516,-0.2446289,-0.08691406,0.206543
2902,-71.4375,110.75,-13.5,-0.230957,-0.5966797,-0.109375,-0.2509766,-0.09179688,0.1982422
2906,-33.75,83.875,-15.625,-0.2387695,-0.5854492,-0.02050781,-0.2568359,-0.09814453,0.1860352
2911,1.8125,59.5625,-9.75,-0.1264648,-0.4960938,0.001953125,-0.2592773,-0.09960938,0.1845703
2915,29.25,43.875,-3.75,-0.04101563,-0.3364258,-0.04003906,-0.2636719,-0.1020508,0.1806641
2919,42.9375,29.875,1,-0.07226563,-0.2006836,-0.0859375,-0.2636719,-0.09814453,0.1762695
2923,45.75,11.4375,6.0625,-0.04101563,-0.09179688,-0.1630859,-0.2675781,-0.09716797,0.175293
2927,42.1875,-7.4375,8.6875,0.07470703,0.0009765625,-0.2436523,-0.2661133,-0.09326172,0.1806641
2931,29.6875,-25.5625,-0.875,0.08251953,0.01269531,-0.2939453,-0.2675781,-0.09179688,0.1791992
2935,22.75,-45.5625,-10.375,0.05908203,-0.1152344,-0.2978516,-0.2636719,-0.09082031,0.1806641
2939,29.375,-61.75,-11.6875,0.05126953,-0.2353516,-0.2900391,-0.2636719,-0.08935547,0.1860352
2943,46,-74.8125,-7.6875,0.04345703,-0.2587891,-0.3051758,-0.2578125,-0.08837891,0.1889648
2947,57.4375,-87.5,-3.0625,-0.05273438,-0.2275391,-0.34375,-0.2553711,-0.08544922,0.1953125
2951,64.1875,-106.5,-1.1875,-0.2270508,-0.2470703,-0.34375,-0.2485352,-0.078125,0.2036133
2955,80.4375,-140.625,0.0625,-0.3823242,-0.4414063,-0.378418,-0.2402344,-0.07714844,0.2119141
2959,114.25,-173.375,2,-0.2583008,-0.4921875,-0.4824219,-0.234375,-0.07080078,0.2211914
2963,136.375,-180.6875,10.25,-0.2080078,-0.4960938,-0.6015625,-0.21875,-0.06201172,0.2324219
2967,149.5,-185.625,10.125,-0.3242188,-0.4765625,-0.6748047,-0.206543,-0.05078125,0.2446289
2971,163.1875,-208.1875,14.0625,-0.4750977,-0.5620117,-0.8632813,-0.1962891,-0.04296875,0.2524414
2975,176.6875,-225,15.9375,-0.4594727,-0.5463867,-0.9169922,-0.1791992,-0.02587891,0.262207
2979,183,-238.75,19.5,-0.6303711,-0.550293,-1.024902,-0.1567383,-0.009277344,0.2729492
2983,187.75,-261.1875,27.4375,-0.6108398,-0.5229492,-1.221191,-0.1425781,0.001464844,0.2783203
2987,171.1875,-258,26.0625,-0.5141602,-0.4067383,-1.236328,-0.1162109,0.02001953,0.2866211
2991,140.875,-255.5,18.0625,-0.730957,-0.4570313,-1.251953,-0.09375,0.03759766,0.2910156
2995,124.8125,-269.6875,6.25,-0.8085938,-0.565918,-1.255371,-0.07714844,0.04638672,0.2919922
2999,118.3125,-276.8125,7.5625,-0.9052734,-0.7329102,-1.236328,-0.05078125,0.05615234,0.293457
3003,133.625,-293.375,20.4375,-0.796875,-0.8378906,-1.351563,-0.0234375,0.06982422,0.2919922
3007,142.1875,-276,29.5625,-0.7695313,-0.8027344,-1.278809,-0.005859375,0.07861328,0.2880859
3011,133.0625,-254.6875,27.875,-0.9130859,-0.7602539,-1.263184,0.02246094,0.09130859,0.2797852
3015,117.9375,-245.25,13.9375,-1.176758,-0.7832031,-1.128418,0.04492188,0.1025391,0.2714844
3019,111.875,-263.75,0,-1.447754,-0.8613281,-1.090332,0.06152344,0.1098633,0.262207
3023,112.0625,-291.375,3.25,-1.505859,-0.9233398,-1.128418,0.08447266,0.1176758,0.2553711
3027,114.8125,-305.125,7.75,-1.471191,-1.000977,-1.144043,0.1079102,0.1289063,0.2348633
3031,117.625,-302.375,18.0625,-1.413086,-1.05127,-1.15918,0.1259766,0.1323242,0.2226563
3035,117.5,-290.625,29.875,-1.401367,-1.070801,-1.101563,0.1499023,0.1411133,0.2050781
3040,124.25,-290.6875,28.5,-1.416992,-1.090332,-1.063477,0.1674805,0.1450195,0.1831055
3044,131.9375,-297.5,20.8125,-1.45166,-1.117676,-1.01709,0.1821289,0.1499023,0.1640625
3048,139.4375,-304.625,14.3125,-1.401367,-1.070801,-1.020996,0.199707,0.15625,0.1411133
3052,134.625,-294.125,22.875,-1.28125,-0.9814453,-0.9941406,0.215332,0.1625977,0.1098633
3056,123.9375,-277.5625,31.3125,-1.312012,-0.9697266,-0.8476563,0.222168,0.1635742,0.09228516
3060,122.3125,-281.8125,27.375,-1.424316,-1.032227,-0.7978516,0.234375,0.1650391,0.06494141
3064,123.25,-286,28.75,-1.257813,-0.9658203,-0.8056641,0.2426758,0.1625977,0.03515625
3068,110.75,-273.9375,31.6875,-1.184082,-0.8881836,-0.7475586,0.2475586,0.1635742,0.01464844
3072,99.9375,-270.75,26.375,-1.099121,-0.8457031,-0.7094727,0.2509766,0.1611328,-0.01220703
3076,90.9375,-258.25,20.3125,-0.9672852,-0.8339844,-0.4707031,0.2543945,0.1601563,-0.04052734
3080,85.5,-241.6875,10.875,-0.9438477,-0.8027344,-0.2670898,0.2543945,0.1586914,-0.05712891
3084,78.75,-230.625,1.6875,-0.9287109,-0.7016602,-0.1054688,0.2519531,0.1547852,-0.08007813
3088,70.8125,-220.9375,4.25,-0.8745117,-0.7055664,-0.1054688,0.2485352,0.1538086,-0.1044922
3092,63.0625,-206.3125,14.4375,-0.7231445,-0.5698242,-0.02050781,0.2451172,0.1513672,-0.1166992
3096,49.5625,-191.1875,16.3125,-0.7075195,-0.5424805,-0.001464844,0.2412109,0.1489258,-0.1347656
3100,39.5,-188.9375,6,-0.730957,-0.5776367,0.04443359,0.234375,0.1459961,-0.1523438
3104,40.375,-189.9375,-3.3125,-0.6806641,-0.6396484,0.1289063,0.2319336,0.1450195,-0.1630859
3108,47.5,-188.6875,-0.6875,-0.5566406,-0.6669922,0.02099609,0.2246094,0.1435547,-0.1796875
3112,54.0625,-165.875,0.8125,-0.28125,-0.5463867,0.005859375,0.215332,0.1401367,-0.1958008
3116,57.3125,-129.0625,10.25,-0.1342773,-0.5307617,-0.09375,0.2094727,0.1401367,-0.2055664
3120,60.3125,-90,14.75,-0.06054688,-0.5,-0.2324219,0.203125,0.1362305,-0.2148438
3124,56.3125,-53.75,11.25,0.02832031,-0.371582,-0.3325195,0.1987305,0.1313477,-0.2255859
3128,35.6875,-12,5.25,0.1367188,-0.2084961,-0.3862305,0.1987305,0.1289063,-0.2255859
3132,5.8125,33.9375,5.625,0.1054688,-0.1850586,-0.4052734,0.1987305,0.1235352,-0.2270508
3136,-18.75,71,11.4375,-0.04101563,-0.2509766,-0.5014648,0.2011719,0.125,-0.2231445
3140,-40.25,98.375,12.0625,-0.1030273,-0.2587891,-0.5708008,0.2055664,0.1264648,-0.2202148
3144,-61.5,118.0625,-0.5,-0.2080078,-0.3208008,-0.6323242,0.2119141,0.1289063,-0.2109375
3148,-84.5625,135.125,-15.5,-0.2231445,-0.3520508,-0.6860352,0.2163086,0.1323242,-0.1972656
3152,-108.9375,164,-24.5,-0.2387695,-0.4179688,-0.7709961,0.2236328,0.1362305,-0.1875
3156,-133.625,202.25,-26.4375,-0.3046875,-0.4921875,-0.8168945,0.2285156,0.1435547,-0.1699219
3160,-157.625,246.9375,-27,-0.4169922,-0.5854492,-0.8554688,0.2353516,0.1513672,-0.144043
3164,-173.4375,291.25,-24,-0.6845703,-0.7719727,-0.8632813,0.2392578,0.1577148,-0.125
3169,-176.625,317,-21.9375,-0.9907227,-0.9541016,-0.8515625,0.2436523,0.1635742,-0.09082031
3173,-173.75,325.1875,-26.3125,-1.23877,-1.047363,-0.8364258,0.2460938,0.1689453,-0.05566406
3177,-170.0625,324.6875,-29.4375,-1.362793,-1.074707,-0.8129883,0.2451172,0.1713867,-0.03125
3181,-171.125,326.75,-27.9375,-1.459473,-1.066895,-0.7900391,0.2426758,0.1738281,0.00390625
3185,-179.375,338.8125,-13.4375,-1.436035,-0.9814453,-0.8325195,0.2353516,0.1723633,0.04199219
3189,-198.4375,370.3125,13.125,-1.463379,-0.9116211,-0.9169922,0.2285156,0.1713867,0.06787109
3193,-214,395.5625,36.125,-1.649414,-0.9541016,-1.028809,0.2177734,0.1625977,0.105957
3197,-230.3125,405.3125,44.625,-1.947754,-0.9775391,-1.109375,0.2011719,0.1499023,0.1464844
3201,-237.9375,361.9375,24.6875,-2.432129,-1.241699,-1.113281,0.1879883,0.1401367,0.1708984
3205,-218.1875,280.0625,-0.9375,-2.25,-1.296387,-0.9672852,0.1650391,0.1235352,0.2036133
3209,-204.5,262.75,3.1875,-1.711426,-1.1875,-0.8671875,0.1474609,0.1088867,0.2270508
3213,-194.75,289.5625,31.125,-1.537109,-1.117676,-0.9477539,0.1333008,0.09863281,0.2402344
3217,-179.625,311.8125,66.3125,-1.541016,-1.020508,-1.066895,0.1103516,0.08007813,0.2592773
3221,-167.25,320.125,100.8125,-1.552246,-0.8999023,-1.193848,0.08447266,0.0625,0.2773438
3225,-161.0625,313.125,118,-1.48291,-0.7563477,-1.278809,0.06640625,0.05126953,0.2866211
3229,-156.5,287.5625,113.375,-1.374023,-0.6591797,-1.301758,0.04394531,0.03369141,0.2988281
3233,-152.375,255.9375,91.875,-1.180664,-0.5966797,-1.248047,0.01757813,0.01855469,0.3056641
3237,-146.625,231.4375,64.875,-0.9438477,-0.5698242,-1.213379,0.0009765625,0.007324219,0.3085938
3241,-133.125,219.3125,42.75,-0.8164063,-0.6279297,-1.151855,-0.01855469,-0.008300781,0.3110352
3245,-106.3125,203.9375,35.5625,-0.7387695,-0.6821289,-1.147949,-0.04150391,-0.01953125,0.3100586
3249,-68.625,193.0625,38.1875,-0.5410156,-0.6279297,-1.170898,-0.05419922,-0.02685547,0.3085938
3253,-45.8125,200.125,43.9375,-0.3823242,-0.4375,-1.251953,-0.07568359,-0.03320313,0.3056641
3257,-60.625,209.125,38.3125,-0.3588867,-0.1308594,-1.328613,-0.09375,-0.03710938,0.300293
3261,-95.5,195.625,20.5,-0.362793,-0.05273438,-1.359375,-0.1069336,-0.04052734,0.2949219
3265,-118.125,186.8125,-1.875,-0.3354492,-0.1928711,-1.209473,-0.1245117,-0.04931641,0.2910156
3269,-113.9375,173.125,-0.4375,-0.2773438,-0.3325195,-1.097656,-0.1411133,-0.06054688,0.2827148
3273,-92.75,175.375,11,-0.1845703,-0.4375,-1.009277,-0.1508789,-0.06689453,0.2758789
3277,-69.125,175.6875,21.3125,-0.01806641,-0.3173828,-1.090332,-0.168457,-0.07421875,0.2705078
3281,-76.625,192.1875,23.1875,0.1054688,-0.1308594,-1.125,-0.1831055,-0.07714844,0.2583008
3285,-104.0625,214.25,23.625,-0.01416016,-0.1420898,-1.024902,-0.1948242,-0.08300781,0.25
3289,-111.875,214.8125,17.8125,-0.2890625,-0.2900391,-0.7285156,-0.2104492,-0.08935547,0.2363281
3293,-96.0625,181,10.1875,-0.6069336,-0.4765625,-0.4052734,-0.2270508,-0.09814453,0.2202148
3298,-66.0625,123.9375,-3.75,-0.5644531,-0.534668,-0.1166992,-0.2353516,-0.1005859,0.2119141
3302,-29.6875,84.875,-1.9375,-0.3935547,-0.6552734,0.005859375,-0.2436523,-0.1054688,0.2036133
3306,7.5,63.1875,5.3125,-0.2543945,-0.5854492,0.04785156,-0.2495117,-0.1054688,0.1967773
3310,37.0625,47.25,10.9375,-0.1225586,-0.4335938,-0.03613281,-0.2509766,-0.1054688,0.1928711
3314,54.875,33.9375,14.375,-0.06445313,-0.2548828,-0.1054688,-0.253418,-0.1005859,0.1899414
3318,57.625,13.125,8.875,-0.09912109,-0.06054688,-0.2285156,-0.2543945,-0.09716797,0.1928711
3322,47.375,-12.8125,8.375,-0.08398438,0.004882813,-0.3168945,-0.2568359,-0.09423828,0.1914063
3326,39.3125,-33.9375,7.8125,-0.02197266,-0.02978516,-0.3286133,-0.2553711,-0.08935547,0.1943359
3330,38.625,-49.5625,13.0625,0.05126953,-0.1035156,-0.378418,-0.253418,-0.08691406,0.1953125
3334,40.625,-61.0625,18.6875,0.03173828,-0.1499023,-0.4130859,-0.2495117,-0.08447266,0.199707
3338,44.4375,-76.5625,18.8125,0.05908203,-0.2163086,-0.4555664,-0.2470703,-0.07958984,0.2050781
3342,48.625,-85.8125,10.625,0.04345703,-0.2509766,-0.4360352,-0.2402344,-0.07568359,0.2119141
3346,60.9375,-103.4375,5.25,-0.1381836,-0.3833008,-0.4863281,-0.237793,-0.07324219,0.2172852
3350,84.5625,-130.0625,0.5625,-0.1381836,-0.4140625,-0.5092773,-0.2294922,-0.06689453,0.2255859
3354,103.6875,-146.0625,-1.1875,-0.1767578,-0.4335938,-0.59375,-0.2172852,-0.05957031,0.2333984
3358,118.1875,-161,-2.625,-0.2890625,-0.402832,-0.6899414,-0.2114258,-0.05322266,0.2416992
3362,121.375,-172.8125,-1.875,-0.4208984,-0.4257813,-0.7285156,-0.1962891,-0.04443359,0.2514648
3366,131.75,-195.9375,-0.8125,-0.5292969,-0.5073242,-0.8286133,-0.1816406,-0.03466797,0.262207
3370,146.5625,-212.4375,2.25,-0.5063477,-0.565918,-0.9018555,-0.1708984,-0.02587891,0.269043
3374,161.5625,-226.9375,8.6875,-0.5449219,-0.6005859,-0.9941406,-0.1508789,-0.01074219,0.2783203
3378,167.25,-235,11.625,-0.5952148,-0.550293,-1.105469,-0.1293945,0.002441406,0.2841797
3382,154.6875,-239.125,11.5625,-0.7270508,-0.5112305,-1.144043,-0.1162109,0.01513672,0.2880859
3386,138.5,-248.5625,10.6875,-0.8046875,-0.5620117,-1.193848,-0.09228516,0.03027344,0.2910156
3390,132.6875,-262,5.1875,-0.8706055,-0.6513672,-1.205566,-0.06884766,0.04394531,0.2973633
3394,135.0625,-274.8125,9.5,-0.8974609,-0.7602539,-1.286133,-0.05224609,0.05273438,0.2949219
3398,140.5625,-275.1875,14.625,-0.9052734,-0.8105469,-1.328613,-0.02587891,0.06494141,0.2919922
3402,140.25,-268.8125,22.25,-0.9907227,-0.8066406,-1.336426,0.003417969,0.08105469,0.2880859
3406,134.125,-265.25,23.25,-1.149414,-0.8144531,-1.297852,0.01757813,0.08740234,0.2841797
3410,121.9375,-274.6875,18.75,-1.20752,-0.7871094,-1.317383,0.04638672,0.1000977,0.2729492
3414,115.9375,-290.4375,0.625,-1.304199,-0.8803711,-1.263184,0.06884766,0.1113281,0.2636719
3418,117.5,-305.25,-11.0625,-1.351074,-0.9853516,-1.221191,0.08789063,0.1137695,0.2524414
3422,124.3125,-313.9375,-12.1875,-1.393555,-1.040039,-1.197754,0.1103516,0.1274414,0.2348633
3427,132,-319.25,-7.1875,-1.385742,-1.074707,-1.178711,0.1357422,0.1362305,0.2158203
3431,139.5,-316.875,1.4375,-1.362793,-1.11377,-1.13623,0.1499023,0.1425781,0.2011719
3435,145.75,-313.125,3.5,-1.23877,-1.08252,-1.163086,0.1713867,0.1499023,0.1777344
3439,140.3125,-292.375,-2,-1.095215,-1.000977,-1.066895,0.1889648,0.1577148,0.1508789
3443,139.3125,-282.1875,-10.625,-1.257813,-1.070801,-1.01709,0.1972656,0.1635742,0.1342773
3447,140.0625,-277.5,-6.375,-1.23877,-0.9970703,-0.9555664,0.2104492,0.1689453,0.105957
3451,137.5,-272.5,2,-1.312012,-1.02832,-0.8823242,0.2202148,0.1748047,0.07714844
3455,144.375,-278.0625,9.9375,-1.289063,-1.059082,-0.8056641,0.2260742,0.1762695,0.05810547
3459,152.3125,-268.625,29.0625,-1.106934,-0.9467773,-0.7441406,0.2319336,0.1787109,0.02978516
3463,139.0625,-251.3125,33.1875,-1.017578,-0.6821289,-0.6787109,0.2368164,0.1772461,0
3467,110.625,-244,26.6875,-1.106934,-0.6708984,-0.5551758,0.2412109,0.1738281,-0.01611328
3471,98.9375,-253.9375,12.75,-1.071777,-0.7563477,-0.3666992,0.2412109,0.1723633,-0.04492188
3475,101.6875,-253,10.25,-0.9052734,-0.7485352,-0.2363281,0.2412109,0.1713867,-0.07080078
3479,105.4375,-232.5,29.25,-0.7695313,-0.7485352,-0.2246094,0.2412109,0.1713867,-0.08837891
3483,100.5,-202.75,50.5,-0.6455078,-0.6318359,-0.1821289,0.237793,0.1625977,-0.1113281
3487,84.875,-181.875,52,-0.7695313,-0.6162109,-0.1015625,0.2368164,0.15625,-0.1303711
3491,63.375,-186.4375,32.1875,-0.796875,-0.5307617,0.05175781,0.2353516,0.1523438,-0.144043
3495,45.9375,-197.0625,10.875,-0.78125,-0.6162109,0.2250977,0.2294922,0.1474609,-0.1616211
3499,50.6875,-201.5,6.8125,-0.6806641,-0.7524414,0.1943359,0.2211914,0.1435547,-0.1796875
3503,65.8125,-188.5625,20.4375,-0.4521484,-0.7910156,0.2021484,0.2177734,0.1435547,-0.1889648
3507,81.875,-159.1875,36.625,-0.2543945,-0.6977539,0.09033203,0.2094727,0.1386719,-0.2055664
3511,82.125,-132.4375,30.375,-0.1728516,-0.4921875,-0.1166992,0.2045898,0.1298828,-0.2202148
3515,65.125,-109.9375,11.25,-0.02197266,-0.3095703,-0.2207031,0.1987305,0.1264648,-0.2285156
3519,47.6875,-76.3125,-5.625,0.125,-0.324707,-0.2363281,0.1928711,0.1225586,-0.2353516
3523,40.0625,-28.5,-13,0.206543,-0.3442383,-0.2089844,0.1889648,0.1201172,-0.2446289
3527,28.3125,18.5625,-18,0.04736328,-0.2939453,-0.2744141,0.1879883,0.1186523,-0.2446289
3531,10.0625,44.25,-21.25,-0.1420898,-0.1889648,-0.4594727,0.1879883,0.1176758,-0.2446289
3535,-23.4375,64.125,-21.3125,-0.1533203,-0.06054688,-0.5976563,0.1904297,0.1201172,-0.2421875
3539,-68.4375,90.9375,-18.25,-0.1533203,-0.02197266,-0.7094727,0.1948242,0.1210938,-0.2368164
3543,-117.0625,119.75,-16.125,-0.2001953,-0.08789063,-0.7861328,0.1972656,0.1289063,-0.2246094
3547,-157.875,153,-13.9375,-0.2543945,-0.3286133,-0.7861328,0.2045898,0.1362305,-0.2094727
3551,-181.6875,185.0625,-21.5,-0.347168,-0.5620117,-0.7592773,0.2094727,0.1435547,-0.1972656
3556,-192.9375,217.6875,-34.4375,-0.4711914,-0.7792969,-0.7207031,0.2163086,0.1547852,-0.1699219
3560,-191.4375,252,-37.3125,-0.5683594,-0.9697266,-0.6821289,0.2236328,0.1674805,-0.1425781
3564,-184.1875,295.25,-21.4375,-0.6455078,-1.000977,-0.7133789,0.2260742,0.1723633,-0.1225586
3568,-192.8125,354.1875,14,-0.6728516,-0.7832031,-0.8476563,0.2319336,0.1787109,-0.08837891
3572,-227.8125,421.1875,43.125,-0.8085938,-0.6240234,-1.086426,0.2392578,0.1762695,-0.04492188
3576,-268.25,450.5625,21.25,-1.432129,-0.9970703,-1.174805,0.2392578,0.1772461,-0.01367188
3580,-272.8125,409.125,-25.6875,-1.808105,-1.439941,-1.151855,0.2329102,0.1723633,0.03759766
3584,-234.25,365.25,-68.8125,-1.761719,-1.910156,-0.859375,0.2211914,0.1713867,0.08544922
3588,-168.6875,371.5625,-41.5,-1.45166,-1.90625,-0.7514648,0.2080078,0.1699219,0.1113281
3592,-125.125,430.1875,27.5625,-1.308105,-1.505859,-0.8671875,0.1865234,0.1625977,0.144043
3596,-117.25,485.75,98.375,-1.405273,-1.133301,-1.163086,0.1650391,0.15625,0.175293
3600,-127.5,514.3125,139.1875,-1.684082,-0.9116211,-1.444336,0.1499023,0.1474609,0.1967773
3604,-138.5,484.75,127.0625,-2.276855,-1.08252,-1.494141,0.1186523,0.1323242,0.2270508
3608,-122.5,368.125,67.0625,-2.648926,-1.280762,-1.278809,0.09033203,0.1176758,0.2514648
3612,-104.75,235.8125,-13,-2.141602,-1.012695,-1.109375,0.07470703,0.1123047,0.2568359
3616,-112.6875,186.9375,-54.125,-1.567871,-0.8999023,-0.9707031,0.05322266,0.1025391,0.269043
3620,-116.3125,174.875,-46.375,-1.351074,-0.9467773,-0.9863281,0.03662109,0.09228516,0.2783203
3624,-103.5,175.3125,-15.875,-1.129883,-0.9775391,-1.01709,0.0234375,0.08496094,0.2841797
3628,-82.5,184.25,16.125,-0.8974609,-0.9038086,-1.08252,0.008300781,0.07763672,0.2880859
3632,-63.1875,195.75,40.4375,-0.8007813,-0.8417969,-1.151855,-0.01025391,0.06884766,0.2910156
3636,-52.875,184.6875,39.1875,-0.6923828,-0.6669922,-1.236328,-0.02246094,0.06640625,0.293457
3640,-51.25,162.5,14.1875,-0.4130859,-0.534668,-1.282715,-0.03759766,0.0625,0.293457
3644,-59.8125,163.0625,-12,-0.1923828,-0.4921875,-1.293945,-0.05224609,0.05517578,0.293457
3648,-67.0625,174,-24.8125,-0.2080078,-0.5927734,-1.301758,-0.06396484,0.05371094,0.2910156
3652,-62.75,175.9375,-22.1875,-0.2192383,-0.6474609,-1.344238,-0.08203125,0.04492188,0.2919922
3656,-54,192.25,-13.5625,-0.1459961,-0.6821289,-1.290039,-0.09863281,0.04150391,0.2880859
3660,-47.5625,210.25,-4.4375,-0.1420898,-0.5151367,-1.317383,-0.1113281,0.03759766,0.2841797
3664,-67.8125,218.1875,-18.75,-0.2387695,-0.2939453,-1.355469,-0.1293945,0.03027344,0.2797852
3668,-103.5625,203.375,-45.0625,-0.3007813,-0.2705078,-1.344238,-0.1508789,0.02246094,0.2729492
3672,-129.1875,186.625,-64.3125,-0.2734375,-0.3989258,-1.20166,-0.1625977,0.01513672,0.269043
3676,-132,183.25,-64.6875,-0.28125,-0.5581055,-1.024902,-0.1791992,-0.0004882813,0.2592773
3680,-120.4375,183.5,-47.3125,-0.2851563,-0.5229492,-0.8515625,-0.1948242,-0.01464844,0.2485352
3685,-111.625,180.5625,-29.8125,-0.4169922,-0.5307617,-0.7133789,-0.206543,-0.0234375,0.2446289
3689,-99.1875,155.5,-24.0625,-0.3745117,-0.5073242,-0.5322266,-0.2197266,-0.03320313,0.230957
3693,-77.25,135.125,-19.9375,-0.2661133,-0.5424805,-0.3745117,-0.2304688,-0.04199219,0.2226563
3697,-49.8125,122.875,-18.3125,-0.1767578,-0.46875,-0.2324219,-0.2363281,-0.04833984,0.21875
3701,-31.125,112.6875,-17.625,-0.1923828,-0.3364258,-0.1782227,-0.2470703,-0.05078125,0.2089844
3705,-20.5625,94.4375,-15.5625,-0.4052734,-0.2626953,-0.08203125,-0.2543945,-0.05566406,0.1967773
3709,-7.0625,50.25,-4.6875,-0.5253906,-0.2275391,-0.03222656,-0.2568359,-0.05810547,0.1943359
3713,4,11.75,9.0625,-0.3510742,-0.1850586,-0.005371094,-0.2617188,-0.05712891,0.1928711
3717,13.5,-10.25,25.3125,-0.1650391,-0.2124023,-0.06298828,-0.2592773,-0.0546875,0.1943359
3721,20.875,-19.9375,30.3125,0.06689453,-0.1655273,-0.1323242,-0.2592773,-0.05322266,0.1943359
3725,24.4375,-25.0625,27.9375,0.08642578,-0.1811523,-0.1821289,-0.2578125,-0.04833984,0.1953125
3729,30.0625,-38.0625,22.125,0.08642578,-0.1772461,-0.2397461,-0.2553711,-0.04589844,0.1967773
3733,34.25,-50.0625,22.5,0.06298828,-0.1928711,-0.2436523,-0.2553711,-0.04052734,0.1967773
3737,39.1875,-64.3125,22.875,-0.03320313,-0.2241211,-0.2705078,-0.2509766,-0.03955078,0.2050781
3741,46.5,-85.625,26,-0.07617188,-0.2783203,-0.3632813,-0.2460938,-0.03466797,0.2080078
3745,54.125,-98.875,31.25,-0.08398438,-0.3208008,-0.4052734,-0.2426758,-0.02929688,0.2133789
3749,64.125,-120.8125,34.875,-0.1499023,-0.3950195,-0.5053711,-0.2329102,-0.0234375,0.2211914
3753,74.8125,-142.75,31.75,-0.006347656,-0.3676758,-0.5668945,-0.2236328,-0.01464844,0.2280273
3757,75.1875,-146.125,27.9375,-0.02978516,-0.4296875,-0.644043,-0.2163086,-0.009277344,0.2363281
3761,82.1875,-155.1875,21.9375,-0.05664063,-0.4570313,-0.7133789,-0.203125,-0.0004882813,0.2460938
3765,86.8125,-160.75,25.375,-0.1689453,-0.5073242,-0.7822266,-0.1899414,0.006347656,0.2514648
3769,94.1875,-166.375,27.3125,-0.1767578,-0.4765625,-0.8168945,-0.1816406,0.01269531,0.2583008
3773,95,-169.5625,38.6875,-0.3745117,-0.550293,-0.9052734,-0.1674805,0.02392578,0.2636719
3777,101.625,-183.125,43,-0.4130859,-0.5620117,-0.9633789,-0.1494141,0.03369141,0.2714844
3781,100.4375,-188.875,44.625,-0.4907227,-0.5737305,-0.9516602,-0.1391602,0.04003906,0.2729492
3785,99.25,-199.875,39.3125,-0.6728516,-0.6513672,-0.9672852,-0.1201172,0.05273438,0.2773438
3789,107.75,-234.3125,44.3125,-0.730957,-0.8105469,-1.205566,-0.09716797,0.06005859,0.28125
3793,117.875,-241.5625,36.75,-0.4482422,-0.7407227,-1.174805,-0.08398438,0.06884766,0.2827148
3797,114.0625,-227.1875,38.125,-0.5605469,-0.7211914,-1.217285,-0.06152344,0.08105469,0.2851563
3801,103.9375,-217.75,34.875,-0.6806641,-0.6669922,-1.132324,-0.03759766,0.09228516,0.28125
3805,89.1875,-220.4375,32,-0.9633789,-0.7250977,-1.097656,-0.0234375,0.09765625,0.28125
3809,84.75,-242.9375,23.4375,-1.118652,-0.8613281,-1.070801,-0.0009765625,0.1049805,0.2773438
3814,93.4375,-262.3125,10.0625,-1.176758,-0.9775391,-0.9824219,0.02001953,0.1152344,0.269043
3818,109.0625,-278.8125,5.1875,-1.253906,-1.074707,-0.9824219,0.03662109,0.1186523,0.2651367
3822,126.6875,-285.125,14.1875,-1.215332,-1.070801,-0.9980469,0.06152344,0.1298828,0.2539063
3826,134.9375,-278.375,29.75,-1.253906,-1.062988,-1.020996,0.08544922,0.1401367,0.2392578
3830,137.5,-278.1875,42.1875,-1.370117,-1.125488,-1.01709,0.1020508,0.1459961,0.2270508
3834,141.8125,-284,45.0625,-1.339355,-1.133301,-1.028809,0.1235352,0.1547852,0.2104492
3838,145.25,-289.375,39.4375,-1.37793,-1.175781,-0.9824219,0.1474609,0.1611328,0.1860352
3842,154.8125,-302.25,28.25,-1.40918,-1.199219,-1.013184,0.1591797,0.1660156,0.1708984
3846,156.375,-302.1875,30.5625,-1.32373,-1.125488,-1.001465,0.1782227,0.1723633,0.144043
3850,149.5,-287.1875,46.375,-1.246094,-1.08252,-0.9516602,0.1948242,0.1772461,0.1152344
3854,146.375,-274.8125,58.4375,-1.261719,-1.102051,-0.9018555,0.203125,0.1772461,0.09619141
3858,146.5,-276.5,58.875,-1.289063,-1.094238,-0.8515625,0.21875,0.1801758,0.06787109
3862,150.5625,-287.25,47.875,-1.32373,-1.105957,-0.7553711,0.2294922,0.1772461,0.03613281
3866,156.75,-302.0625,29.75,-1.261719,-0.9853516,-0.6171875,0.2353516,0.1772461,0.01708984
3870,147.1875,-298.0625,24.25,-1.191895,-0.8647461,-0.559082,0.2402344,0.1772461,-0.01464844
3874,128.625,-288.3125,31.5,-1.180664,-0.8222656,-0.4248047,0.2402344,0.1723633,-0.04882813
3878,119.6875,-286.625,37.0625,-1.157227,-0.8300781,-0.2514648,0.2426758,0.1723633,-0.06396484
3882,114.0625,-282.0625,38.3125,-1.106934,-0.7949219,-0.08203125,0.2402344,0.1650391,-0.09667969
3886,109.75,-283.625,24.1875,-1.067871,-0.7792969,0.04443359,0.2353516,0.1586914,-0.1235352
3890,97.8125,-285.625,2.5,-0.9052734,-0.6005859,0.1713867,0.230957,0.1577148,-0.144043
3894,81.625,-266.75,2.5,-0.7773438,-0.6201172,0.2094727,0.222168,0.1523438,-0.168457
3898,74.6875,-237.6875,25.625,-0.6689453,-0.6899414,0.1787109,0.2119141,0.1474609,-0.1904297
3902,75.3125,-207.8125,48.0625,-0.5214844,-0.6938477,0.07519531,0.203125,0.1435547,-0.2026367
3906,76.375,-182.125,52.9375,-0.4365234,-0.6860352,-0.08203125,0.1962891,0.1376953,-0.2177734
3910,79.5625,-159.875,49.8125,-0.246582,-0.6044922,-0.2744141,0.1904297,0.1289063,-0.2338867
3914,75.625,-126.125,38.75,-0.01416016,-0.534668,-0.4130859,0.1831055,0.1225586,-0.2436523
3918,64.3125,-81.9375,31.625,0.1791992,-0.3911133,-0.5092773,0.1806641,0.1176758,-0.2543945
3922,37.125,-27.625,27,0.2875977,-0.2353516,-0.59375,0.1748047,0.1098633,-0.2612305
3926,0,22.1875,22.6875,0.2490234,-0.1889648,-0.609375,0.1772461,0.1064453,-0.2612305
3930,-34.8125,58.75,18.6875,0.07470703,-0.2822266,-0.6054688,0.1796875,0.1074219,-0.2583008
3934,-57.0625,79.625,12.875,-0.02978516,-0.3676758,-0.5898438,0.184082,0.1098633,-0.2543945
3938,-81.125,96.3125,-2.0625,-0.08789063,-0.3793945,-0.5517578,0.1889648,0.1113281,-0.2475586
3943,-104.25,109.125,-21.8125,-0.1186523,-0.387207,-0.5209961,0.1948242,0.1186523,-0.237793
3947,-131.9375,131.4375,-33.6875,-0.1499023,-0.4140625,-0.4975586,0.2021484,0.1274414,-0.2255859
3951,-156.9375,161.9375,-36.25,-0.230957,-0.5151367,-0.5131836,0.2055664,0.1347656,-0.2119141
3955,-173,197.125,-30.125,-0.3510742,-0.6279297,-0.5170898,0.2119141,0.1459961,-0.1889648
3959,-181.75,233.5625,-22.6875,-0.5024414,-0.7524414,-0.5361328,0.2177734,0.1547852,-0.1674805
3963,-183.875,272,-11,-0.6494141,-0.8300781,-0.5668945,0.2236328,0.1625977,-0.1469727
3967,-184.9375,302.75,-12.1875,-1.013672,-1.036133,-0.5551758,0.230957,0.1699219,-0.1142578
3971,-168.625,296.75,-27.3125,-1.273438,-1.199219,-0.6323242,0.2353516,0.1748047,-0.08154297
3975,-159.5,301.4375,-17.75,-1.289063,-1.179688,-0.6787109,0.2353516,0.1787109,-0.05712891
3979,-163.125,327.125,13.4375,-1.308105,-1.164063,-0.8208008,0.2353516,0.1801758,-0.02294922
3983,-172.3125,376.9375,54.8125,-1.168945,-1.062988,-0.9248047,0.234375,0.1772461,0.01074219
3987,-184.6875,445.25,74.5,-1.300781,-1.066895,-1.063477,0.2329102,0.1713867,0.03759766
3991,-184.5,447.0625,33.5,-2.087402,-1.42041,-1.121094,0.2270508,0.1611328,0.08251953
3995,-153.3125,360.625,-36.125,-2.37793,-1.447754,-1.036133,0.2119141,0.1577148,0.1220703
3999,-143.875,305.5,-65,-2.125977,-1.22998,-0.824707,0.1972656,0.1538086,0.1411133
4003,-155.4375,293.125,-50.75,-2.021484,-1.164063,-0.8632813,0.1782227,0.1513672,0.1699219
4007,-163.1875,295.375,-21.125,-1.850586,-1.090332,-0.8745117,0.1557617,0.1411133,0.1967773
4011,-165.375,306.6875,18.5,-1.761719,-1.062988,-0.9633789,0.1416016,0.1362305,0.2133789
4015,-166.375,326.5625,58.25,-1.599121,-0.9853516,-1.051758,0.1210938,0.1225586,0.2333984
4019,-169.125,343.4375,86.3125,-1.65332,-0.9389648,-1.117188,0.09765625,0.1064453,0.2553711
4023,-172.375,318.3125,68.25,-1.874023,-0.9541016,-1.08252,0.08056641,0.09619141,0.269043
4027,-169.125,242.4375,30.9375,-1.812012,-0.9467773,-1.013184,0.05566406,0.07763672,0.28125
4031,-157.625,187.8125,9.375,-1.366211,-1.008789,-0.8862305,0.03662109,0.06396484,0.2919922
4035,-128.8125,176.1875,13.5625,-0.9091797,-0.9970703,-0.8710938,0.02490234,0.05371094,0.2949219
4039,-104.875,200.1875,25.9375,-0.5756836,-0.8417969,-0.9287109,0.008300781,0.04150391,0.3017578
4043,-87.5,225.4375,30.4375,-0.5449219,-0.6899414,-1.08252,-0.01269531,0.03125,0.3017578
4047,-76.0625,218.875,26.375,-0.6416016,-0.6396484,-1.274902,-0.02685547,0.02490234,0.3041992
4051,-63.4375,188.375,5.25,-0.4594727,-0.5112305,-1.363281,-0.04736328,0.01855469,0.3056641
4055,-73.5625,175,-42.3125,-0.09912109,-0.1420898,-1.44043,-0.06396484,0.01269531,0.3017578
4059,-138.1875,208.0625,-66.0625,-0.2929688,-0.2275391,-1.416992,-0.07568359,0.00390625,0.300293
4063,-166.375,204.125,-65.375,-0.7075195,-0.6162109,-1.221191,-0.09863281,-0.01074219,0.2963867
4067,-150,187.9375,-41.6875,-0.6962891,-0.7524414,-0.8286133,-0.1176758,-0.02832031,0.2919922
4072,-119,189.6875,-9.4375,-0.5991211,-0.7792969,-0.559082,-0.128418,-0.03710938,0.2895508
4076,-79.8125,188.9375,9.4375,-0.4208984,-0.5737305,-0.4863281,-0.1474609,-0.05078125,0.28125
4080,-72.625,192.625,13.4375,-0.5214844,-0.3833008,-0.4667969,-0.1650391,-0.0546875,0.2714844
4084,-62.5625,164.3125,19,-0.5991211,-0.4414063,-0.3745117,-0.1748047,-0.05810547,0.2636719
4088,-39.875,136.375,16.25,-0.4013672,-0.3950195,-0.1782227,-0.1889648,-0.06298828,0.2553711
4092,-13.1875,108.3125,6.6875,-0.378418,-0.3325195,-0.1166992,-0.2006836,-0.06689453,0.2485352
4096,4.8125,79.375,-2,-0.2700195,-0.2124023,-0.1474609,-0.2055664,-0.06445313,0.2446289
4100,9.9375,58.3125,-4.625,-0.215332,-0.1420898,-0.2016602,-0.2114258,-0.06445313,0.2392578
4104,14.1875,42.9375,1.875,-0.1420898,-0.1381836,-0.2128906,-0.2163086,-0.06298828,0.2348633
4108,23.5,34.5,11.8125,-0.06445313,-0.09960938,-0.2324219,-0.215332,-0.06298828,0.2333984
4112,25.3125,29.125,21.625,0.0009765625,0.0009765625,-0.2861328,-0.21875,-0.05810547,0.2333984
4116,13.9375,13.6875,23.875,-0.1342773,-0.04541016,-0.359375,-0.222168,-0.05712891,0.230957
4120,9.25,-22,13.5625,-0.06054688,-0.1499023,-0.4013672,-0.2211914,-0.0546875,0.2333984
4124,12.3125,-37.25,3.625,0.1054688,-0.2353516,-0.3554688,-0.2197266,-0.05175781,0.2324219
4128,18.625,-41.75,3.6875,0.06298828,-0.3325195,-0.4013672,-0.2163086,-0.05175781,0.2348633
4132,32.125,-53.4375,6.0625,0.07861328,-0.387207,-0.4936523,-0.215332,-0.04931641,0.237793
4136,43.375,-59.0625,9.5,0.140625,-0.4101563,-0.5478516,-0.2104492,-0.04589844,0.2431641
4140,54.4375,-62.625,10.3125,0.1635742,-0.3793945,-0.5668945,-0.203125,-0.04052734,0.2460938
4144,56.8125,-66.875,8.6875,-0.01806641,-0.371582,-0.5517578,-0.2021484,-0.03808594,0.2485352
4148,58.1875,-88.0625,1.4375,-0.2426758,-0.3989258,-0.5053711,-0.1962891,-0.03564453,0.2524414
4152,71.75,-123.875,-2.8125,-0.3242188,-0.5541992,-0.6323242,-0.1875,-0.02685547,0.2583008
4156,89.6875,-141.625,-9.0625,-0.1923828,-0.4882813,-0.6171875,-0.1782227,-0.02441406,0.2636719
4160,94.9375,-148.6875,-9.625,-0.3901367,-0.503418,-0.6401367,-0.1665039,-0.01464844,0.269043
4164,100.6875,-163.9375,-12.0625,-0.6030273,-0.550293,-0.5898438,-0.1533203,-0.008300781,0.2758789
4168,115.8125,-193.375,-4.5625,-0.8510742,-0.8144531,-0.6708984,-0.1435547,-0.0004882813,0.28125
4172,161.8125,-234.3125,10.875,-0.5175781,-0.8920898,-0.9594727,-0.1245117,0.008789063,0.2851563
4176,184,-210.9375,17.5,-0.1650391,-0.7016602,-0.9863281,-0.1020508,0.02734375,0.2910156
4180,177.625,-175.5625,21.4375,-0.4594727,-0.6318359,-1.020996,-0.09033203,0.04003906,0.2895508
4184,163.125,-176,16.1875,-0.9399414,-0.6396484,-0.9208984,-0.07226563,0.05615234,0.2895508
4188,156.9375,-209.6875,16.875,-1.265625,-0.7988281,-0.9091797,-0.05322266,0.07128906,0.2851563
4192,161.875,-245.625,25.75,-1.246094,-0.8764648,-0.9633789,-0.04150391,0.08251953,0.2841797
4196,165.75,-271.6875,42.75,-1.133789,-0.9155273,-1.132324,-0.01757813,0.09765625,0.2783203
4201,166.0625,-284.75,49.3125,-0.9946289,-0.8647461,-1.217285,0.01074219,0.1123047,0.2705078
4205,142.875,-277.3125,40.25,-0.8549805,-0.8105469,-1.170898,0.02832031,0.1225586,0.2651367
4209,120.25,-264.4375,18.375,-1.044922,-0.9233398,-1.032227,0.0546875,0.1337891,0.2524414
4213,113.5625,-276.625,1.125,-1.339355,-1.078613,-0.9477539,0.07714844,0.1425781,0.2402344
4217,119.3125,-307.6875,-12.375,-1.494141,-1.171875,-0.9360352,0.09277344,0.1499023,0.2294922
4221,124.0625,-329.875,-14.3125,-1.447754,-1.15625,-0.9477539,0.112793,0.1577148,0.2119141
4225,122.625,-337.875,-2.125,-1.362793,-1.179688,-0.9555664,0.1376953,0.1660156,0.1889648
4229,114.5625,-327.5625,4.5,-1.106934,-1.109863,-0.9785156,0.1499023,0.1699219,0.1738281
4233,99.25,-305.125,-11.0625,-1.013672,-1.1875,-0.8632813,0.1689453,0.1762695,0.1508789
4237,113.75,-294.875,-33.1875,-1.099121,-1.358398,-0.8017578,0.1806641,0.1826172,0.1259766
4241,135,-286.625,-41.25,-1.141602,-1.34668,-0.7324219,0.1889648,0.1875,0.1083984
4245,148.375,-276.4375,-40.3125,-1.215332,-1.257324,-0.7441406,0.1972656,0.1948242,0.08105469
4249,154.3125,-265.1875,-21.8125,-1.308105,-1.253418,-0.628418,0.2011719,0.2001953,0.05273438
4253,162.25,-253.4375,5.3125,-1.28125,-1.222656,-0.5517578,0.2055664,0.2036133,0.03515625
4257,167.625,-248.25,24.875,-1.292969,-1.199219,-0.5322266,0.2094727,0.2050781,0.00390625
4261,161.0625,-254.0625,27.1875,-1.304199,-1.047363,-0.5361328,0.2138672,0.2036133,-0.02441406
4265,138.8125,-267,17.1875,-1.223145,-0.9311523,-0.5478516,0.215332,0.2026367,-0.04199219
4269,113,-271.625,-2,-1.106934,-0.9077148,-0.3554688,0.215332,0.2011719,-0.07080078
4273,99.3125,-269.125,-14.875,-0.9633789,-0.9389648,-0.2670898,0.2094727,0.1972656,-0.09667969
4277,94.6875,-250.5,-14.375,-0.8354492,-0.9541016,-0.09375,0.2055664,0.1972656,-0.112793
4281,99.3125,-219.25,2.6875,-0.7075195,-0.9077148,-0.06298828,0.1987305,0.1948242,-0.1357422
4285,99.75,-196.4375,10.75,-0.7504883,-0.7988281,-0.05126953,0.1904297,0.1923828,-0.1547852
4289,94.9375,-189.9375,8.0625,-0.7543945,-0.7368164,-0.001464844,0.1879883,0.1884766,-0.1674805
4293,94.5,-189.375,2.5625,-0.6494141,-0.6318359,-0.01318359,0.1796875,0.1835938,-0.1835938
4297,84.0625,-180,-1.125,-0.4711914,-0.4804688,0.01708984,0.1713867,0.1787109,-0.2026367
4301,72.125,-165.0625,0.875,-0.3901367,-0.46875,0.04443359,0.1640625,0.1762695,-0.2109375
4305,64.9375,-149.5,6.6875,-0.3242188,-0.46875,0.03662109,0.1567383,0.1723633,-0.2255859
4309,61.3125,-133.6875,12.75,-0.2231445,-0.4804688,0.06347656,0.1459961,0.1660156,-0.2353516
4313,58.875,-117.3125,15.8125,-0.1303711,-0.4375,0.01367188,0.1425781,0.1650391,-0.2421875
4317,48.6875,-94.75,17.1875,0.05908203,-0.3364258,-0.0859375,0.1357422,0.1586914,-0.25
4321,26.6875,-58.875,16.25,0.2646484,-0.2006836,-0.1708984,0.1308594,0.15625,-0.2583008
4325,-2.25,-15.3125,12.8125,0.3417969,-0.2006836,-0.1899414,0.1293945,0.1538086,-0.2583008
4330,-25.5625,26.625,10.5,0.2685547,-0.3134766,-0.2167969,0.1318359,0.1538086,-0.2597656
4334,-36.6875,61.75,16.25,0.1518555,-0.4101563,-0.3168945,0.1342773,0.15625,-0.2558594
4338,-47.4375,93.1875,19.6875,0.1289063,-0.387207,-0.394043,0.1391602,0.1577148,-0.2514648
4342,-63.25,125.8125,17.0625,0.06298828,-0.371582,-0.4902344,0.1474609,0.1601563,-0.2446289
4346,-84.875,157.3125,14,-0.03710938,-0.3911133,-0.6132813,0.1567383,0.1635742,-0.2324219
4350,-106.625,190.0625,11.6875,-0.1186523,-0.4375,-0.7094727,0.1630859,0.1660156,-0.2216797
4354,-129.75,227.4375,12.5625,-0.2504883,-0.5073242,-0.7709961,0.1757813,0.1723633,-0.2041016
4358,-149.875,259,12.625,-0.4868164,-0.6748047,-0.7939453,0.1865234,0.1801758,-0.1821289
4362,-161.3125,282.8125,12.75,-0.6806641,-0.8105469,-0.7978516,0.1948242,0.1835938,-0.1616211
4366,-180.375,303.5625,5.625,-0.9052734,-0.7792969,-0.7670898,0.2070313,0.1884766,-0.1333008
4370,-205.9375,306.1875,-7.875,-1.165039,-0.8300781,-0.7861328,0.2138672,0.1938477,-0.09912109
4374,-237,302.625,-7.6875,-1.374023,-0.9892578,-0.5976563,0.2138672,0.1972656,-0.07617188
4378,-248.75,301.4375,18.6875,-1.563965,-1.304199,-0.4746094,0.2163086,0.1987305,-0.03515625
4382,-225.3125,281.0625,32.8125,-1.765625,-1.653809,-0.3974609,0.2177734,0.1972656,0.00390625
4386,-192.875,254.3125,43.375,-1.525391,-1.455566,-0.4399414,0.2177734,0.1948242,0.02294922
4390,-185.8125,270.0625,58.4375,-1.195801,-1.199219,-0.6206055,0.215332,0.1875,0.05517578
4394,-200.125,308.1875,66.25,-1.075684,-0.9541016,-0.8325195,0.2119141,0.1787109,0.08691406
4398,-226.9375,358,73.25,-1.118652,-0.8764648,-1.013184,0.2070313,0.1699219,0.1113281
4402,-242,393.75,65.5,-1.742188,-1.26123,-1.001465,0.1928711,0.15625,0.1494141
4406,-208.5,340.0625,43.875,-2.269531,-1.622559,-0.9980469,0.1757813,0.1386719,0.1845703
4410,-160.625,279.25,25.9375,-2.060059,-1.447754,-0.809082,0.1630859,0.1274414,0.2021484
4414,-146,253.5625,24.6875,-1.796387,-1.210938,-0.859375,0.1450195,0.1162109,0.2241211
4418,-141.3125,256.4375,31.3125,-1.537109,-1.090332,-0.9208984,0.1259766,0.1064453,0.2416992
4422,-129.375,267.5,45.4375,-1.432129,-1.086426,-1.040039,0.112793,0.09619141,0.2524414
4426,-106.875,275,69.75,-1.304199,-1.055176,-1.255371,0.08886719,0.08398438,0.2675781
4430,-98.75,285.375,73.9375,-1.005859,-0.6821289,-1.447754,0.06884766,0.07519531,0.2783203
4434,-123.125,303.0625,59.75,-0.9790039,-0.503418,-1.555664,0.0546875,0.06494141,0.2851563
4438,-157.125,307.1875,45,-1.07959,-0.453125,-1.528809,0.02587891,0.05126953,0.293457
4442,-179.375,291.5625,36.5625,-1.261719,-0.5776367,-1.44043,-0.003417969,0.03369141,0.3017578
4446,-186.5625,261.1875,39.25,-1.331543,-0.6513672,-1.320801,-0.02001953,0.02392578,0.3056641
4450,-188.4375,222.3125,40.625,-1.296875,-0.6513672,-1.240234,-0.04394531,0.004882813,0.3071289
4454,-186.1875,180.8125,33.9375,-1.103027,-0.6474609,-1.101563,-0.06396484,-0.01318359,0.3056641
4459,-189.6875,158.9375,36.0625,-0.7695313,-0.565918,-1.020996,-0.07470703,-0.02685547,0.3056641
4463,-199.0625,157.1875,33.125,-0.5175781,-0.5541992,-1.01709,-0.09033203,-0.04443359,0.300293
4467,-194.875,160.875,32.3125,-0.328125,-0.6630859,-0.9360352,-0.1054688,-0.06298828,0.2949219
4471,-169.9375,174.75,41.0625,-0.28125,-0.8105469,-0.840332,-0.1176758,-0.07568359,0.293457
4475,-128.3125,180.6875,46.9375,-0.2119141,-0.7329102,-0.7363281,-0.1342773,-0.08691406,0.2841797
4479,-98.875,175.125,40.875,-0.2583008,-0.565918,-0.6860352,-0.1508789,-0.09814453,0.2729492
4483,-83.9375,158.3125,30.8125,-0.2734375,-0.4921875,-0.5898438,-0.1601563,-0.1005859,0.2705078
4487,-64.8125,139.5,24.8125,-0.2734375,-0.519043,-0.4594727,-0.1748047,-0.109375,0.2583008
4491,-46.8125,124.625,24.25,-0.2387695,-0.4882813,-0.3012695,-0.1865234,-0.1108398,0.2524414
4495,-25,105.5,20.4375,-0.1884766,-0.453125,-0.2631836,-0.1914063,-0.1083984,0.2446289
4499,-12,86.0625,14.875,-0.215332,-0.4179688,-0.2055664,-0.203125,-0.1118164,0.2402344
4503,5.625,57.9375,9,-0.1499023,-0.4067383,-0.1821289,-0.2055664,-0.1108398,0.2348633
4507,21.75,39.4375,2.6875,-0.09521484,-0.371582,-0.1782227,-0.2104492,-0.1118164,0.2324219
4511,34.5625,23.125,2,-0.05273438,-0.2939453,-0.2324219,-0.2128906,-0.1083984,0.230957
4515,41.125,7.8125,-0.375,-0.04492188,-0.2314453,-0.2939453,-0.2128906,-0.1044922,0.2294922
4519,45.5,-7.5625,-2.8125,0.03955078,-0.1889648,-0.378418,-0.215332,-0.1020508,0.2324219
4523,43.625,-16.5625,-7,0.1171875,-0.1113281,-0.4282227,-0.2128906,-0.09814453,0.2333984
4527,42.0625,-22.875,-9.0625,0.1015625,-0.1577148,-0.4438477,-0.2114258,-0.09570313,0.2363281
4531,49,-34.25,-9.125,0.03955078,-0.2006836,-0.4902344,-0.2104492,-0.09423828,0.2348633
4535,54,-44.625,-7.375,0.07080078,-0.1269531,-0.5092773,-0.2080078,-0.09082031,0.2402344
4539,49.4375,-52.125,-4.9375,-0.01025391,-0.1269531,-0.5209961,-0.2055664,-0.08544922,0.2460938
4543,47.5,-70.3125,-4.625,-0.1499023,-0.2163086,-0.5170898,-0.199707,-0.08447266,0.2470703
4547,55.5625,-92.4375,-8.1875,-0.2119141,-0.3173828,-0.4628906,-0.1923828,-0.08056641,0.2539063
4551,76.625,-116,-7.1875,-0.2426758,-0.4609375,-0.5209961,-0.1865234,-0.07568359,0.2583008
4555,103.75,-132.8125,-6.3125,-0.215332,-0.519043,-0.5478516,-0.1782227,-0.07080078,0.262207
4559,138.3125,-146.125,2.3125,-0.230957,-0.6977539,-0.7631836,-0.168457,-0.06298828,0.2714844
4563,174.6875,-149,4.625,0.01269531,-0.5,-0.8745117,-0.1542969,-0.046875,0.2797852
4567,171.375,-123.1875,8,-0.05664063,-0.2900391,-0.9248047,-0.1435547,-0.03710938,0.28125
4571,145,-125.625,-2.4375,-0.4985352,-0.1772461,-0.9902344,-0.1342773,-0.02050781,0.2851563
4575,122.25,-172.8125,-11.375,-0.8007813,-0.3364258,-1.066895,-0.1186523,-0.008300781,0.2895508
4579,133.5,-229.1875,-18.3125,-0.5449219,-0.5620117,-1.20166,-0.109375,-0.0004882813,0.293457
4583,150.6875,-231.1875,-16.75,-0.2001953,-0.6201172,-1.178711,-0.08642578,0.01269531,0.2973633
4588,156,-199.625,-6.1875,-0.1572266,-0.5854492,-1.151855,-0.06640625,0.02880859,0.2973633
4592,141,-160,3.25,-0.3706055,-0.5776367,-1.028809,-0.05419922,0.03759766,0.2988281
4596,130.25,-152.25,7.0625,-0.7851563,-0.7329102,-0.9399414,-0.0390625,0.05126953,0.2973633
4600,145.4375,-187.25,15.125,-1.017578,-0.9467773,-1.040039,-0.0234375,0.06640625,0.2919922
4604,169,-214.8125,17.1875,-0.699707,-0.8920898,-1.086426,-0.01025391,0.07617188,0.2910156
4608,171.5,-205.875,16.375,-0.6225586,-0.8066406,-1.105469,0.009277344,0.08984375,0.2827148
4612,163.1875,-196.6875,17.75,-0.8125,-0.7792969,-1.066895,0.03076172,0.1074219,0.2729492
4616,143.3125,-197.4375,18.5625,-0.9711914,-0.7680664,-0.9980469,0.04150391,0.1152344,0.2661133
4620,126.375,-209.0625,14,-1.021484,-0.8066406,-0.9672852,0.05957031,0.1274414,0.2539063
4624,118.5,-222.75,6.1875,-1.07959,-0.8999023,-0.859375,0.07861328,0.1376953,0.2416992
4628,120,-240.4375,-4.6875,-1.141602,-1.004883,-0.8129883,0.09033203,0.1425781,0.2333984
4632,123.8125,-250.4375,-6.8125,-1.137695,-1.043945,-0.7670898,0.1079102,0.1523438,0.2172852
4636,130.125,-260.875,-8.375,-1.211426,-1.094238,-0.7514648,0.125,0.1625977,0.2011719
4640,136.875,-271.75,-7.9375,-1.20752,-1.121582,-0.7363281,0.1391602,0.1674805,0.1875
4644,143.0625,-274,-1.9375,-1.141602,-1.125488,-0.7055664,0.1547852,0.1762695,0.1655273
4648,148.25,-267.0625,6.0625,-1.060547,-1.098145,-0.7207031,0.1674805,0.1826172,0.1411133
4652,144.5625,-251.25,10.5625,-0.9985352,-1.040039,-0.6708984,0.1772461,0.1884766,0.1235352
4656,143.125,-246.375,7.5,-1.091309,-1.055176,-0.6552734,0.1889648,0.1948242,0.1000977
4660,144.6875,-252.9375,1.25,-1.141602,-1.094238,-0.5629883,0.1987305,0.1987305,0.07324219
4664,149.6875,-255.1875,-0.5625,-1.07959,-1.070801,-0.4902344,0.203125,0.2011719,0.05664063
4668,148.9375,-244.9375,5.0625,-1.041016,-1.020508,-0.4438477,0.2104492,0.2011719,0.02685547
4672,138.3125,-229.0625,16.8125,-1.009766,-0.9580078,-0.359375,0.2128906,0.2011719,0.002441406
4676,129.875,-222.5625,17.875,-1.07959,-1.000977,-0.3208008,0.215332,0.2026367,-0.01367188
4680,121.4375,-225.5,13,-1.099121,-0.9892578,-0.2128906,0.2163086,0.2011719,-0.03808594
4684,117.9375,-232.375,2.875,-1.103027,-1.016602,-0.1054688,0.2163086,0.1987305,-0.0625
4688,115.3125,-235.9375,-3.0625,-0.9829102,-0.9350586,-0.02050781,0.2138672,0.1972656,-0.08007813
4692,107.25,-225.375,1.3125,-0.8706055,-0.8999023,0.06738281,0.2094727,0.1962891,-0.1035156
4696,95.75,-206.8125,12.0625,-0.7543945,-0.7949219,0.07128906,0.2045898,0.1914063,-0.125
4700,84.1875,-191.625,16.75,-0.7231445,-0.7641602,0.1171875,0.2021484,0.1914063,-0.1386719
4704,73.5,-189.125,4.25,-0.7851563,-0.7680664,0.2290039,0.1962891,0.1850586,-0.1547852
4708,65.5,-192.8125,-11.9375,-0.8085938,-0.7871094,0.3828125,0.1879883,0.1826172,-0.1728516
4712,66.75,-195.9375,-19.4375,-0.7734375,-0.8339844,0.425293,0.1831055,0.1826172,-0.1835938
4717,78.875,-197.625,-11.25,-0.6416016,-0.8105469,0.2558594,0.1723633,0.1801758,-0.1987305
4721,85.5,-181,6.8125,-0.3745117,-0.7016602,0.1674805,0.1630859,0.1748047,-0.2148438
4725,86.125,-150.625,19.75,-0.1689453,-0.5927734,0.04052734,0.1567383,0.1723633,-0.2255859
4729,87.6875,-122.25,21.375,-0.07226563,-0.5268555,-0.1166992,0.1484375,0.1674805,-0.2368164
4733,84.5,-99.6875,11.8125,0.004882813,-0.4414063,-0.2324219,0.1416016,0.1577148,-0.2490234
4737,68.125,-73.5625,4.3125,0.1635742,-0.2939453,-0.324707,0.1376953,0.1547852,-0.2543945
4741,42.125,-35.0625,4.375,0.2797852,-0.2006836,-0.3398438,0.1357422,0.1499023,-0.2612305
4745,12.0625,6.875,11,0.2646484,-0.1655273,-0.3208008,0.1318359,0.1474609,-0.2651367
4749,-19.25,39.25,16.375,0.1445313,-0.1889648,-0.309082,0.1342773,0.1489258,-0.2626953
4753,-44,60.3125,16.4375,0.05517578,-0.2275391,-0.309082,0.1376953,0.1474609,-0.2583008
4757,-67.5,80.875,13.625,0.01269531,-0.2744141,-0.3012695,0.1425781,0.1499023,-0.2514648
4761,-87.125,97.25,4.5625,-0.05664063,-0.3325195,-0.2978516,0.1484375,0.1538086,-0.2460938
4765,-100.25,112.75,-4.125,-0.1381836,-0.453125,-0.34375,0.1567383,0.1601563,-0.2338867
4769,-106.6875,130.625,-5.875,-0.1806641,-0.5385742,-0.4248047,0.1616211,0.1674805,-0.2255859
4773,-118.75,160.25,-3.125,-0.1342773,-0.4726563,-0.4321289,0.1674805,0.1713867,-0.2133789
4777,-144.4375,198.625,-9.8125,-0.2773438,-0.5112305,-0.4477539,0.1772461,0.1787109,-0.1943359
4781,-164.5625,222.5,-16.8125,-0.5371094,-0.6630859,-0.5053711,0.1831055,0.1860352,-0.1728516
4785,-178.125,234,-18.5625,-0.796875,-0.8686523,-0.4902344,0.1889648,0.1923828,-0.15625
4789,-174.0625,231.5625,-15.75,-0.9555664,-1.062988,-0.4824219,0.1962891,0.2001953,-0.1303711
4793,-166.5625,248.5,7.0625,-0.8393555,-1.047363,-0.4667969,0.2011719,0.2060547,-0.1020508
4797,-170.3125,290.5,37.75,-0.7890625,-0.9116211,-0.574707,0.203125,0.2099609,-0.08007813
4801,-190.625,340.75,60.625,-0.8745117,-0.7988281,-0.7285156,0.2104492,0.2075195,-0.04638672
4805,-218.0625,374,64.8125,-1.219238,-0.8261719,-0.9018555,0.215332,0.2011719,-0.008300781
4809,-241.4375,363.125,35.375,-1.79248,-1.125488,-0.8979492,0.2138672,0.1987305,0.01855469
4813,-230.3125,295.1875,1.5,-2.07959,-1.509766,-0.7978516,0.2104492,0.1923828,0.05957031
4817,-204.75,260.4375,-4,-1.723145,-1.432129,-0.628418,0.2011719,0.1850586,0.09228516
4821,-199.0625,281.625,28.8125,-1.494141,-1.280762,-0.7207031,0.1938477,0.1811523,0.1113281
4825,-204.5,325.1875,66.9375,-1.385742,-1.140625,-0.894043,0.1821289,0.1699219,0.1425781
4829,-210.5625,369.125,100,-1.432129,-1.070801,-1.128418,0.1699219,0.1523438,0.175293
4833,-210.875,398.1875,117.6875,-1.637695,-1.094238,-1.259277,0.1567383,0.1401367,0.1953125
4837,-205,380.8125,112.4375,-2.036621,-1.144531,-1.375,0.1357422,0.1210938,0.2270508
4841,-204.1875,306.3125,77.6875,-2.211426,-1.066895,-1.293945,0.1118164,0.1000977,0.2514648
4846,-201.4375,222,36.625,-1.92041,-1.055176,-1.15918,0.09960938,0.08642578,0.262207
4850,-196.1875,187.9375,25.5625,-1.424316,-1.078613,-1.070801,0.08056641,0.06738281,0.2773438
4854,-178,193.8125,30.875,-1.029297,-1.062988,-1.063477,0.06542969,0.04882813,0.2880859
4858,-155.1875,218.3125,46.625,-0.9208984,-1.020508,-1.113281,0.05224609,0.03759766,0.2949219
4862,-135.6875,235.4375,59.3125,-0.8857422,-0.8574219,-1.19043,0.03320313,0.02148438,0.3032227
4866,-133,246.875,68.1875,-0.9208984,-0.6787109,-1.251953,0.008300781,0.01025391,0.3071289
4870,-145.1875,238.25,69.25,-1.001953,-0.581543,-1.255371,-0.006835938,0,0.3085938
4874,-156.125,209.8125,58.3125,-0.9130859,-0.5927734,-1.197754,-0.02929688,-0.01318359,0.3100586
4878,-147.3125,181.875,44.375,-0.6845703,-0.6821289,-1.097656,-0.04736328,-0.03076172,0.3100586
4882,-123.8125,176.9375,31.75,-0.4248047,-0.7094727,-1.032227,-0.05908203,-0.04052734,0.3071289
4886,-106.875,192.875,29,-0.3203125,-0.6318359,-1.036133,-0.07568359,-0.05078125,0.3017578
4890,-101.3125,203.6875,32.5625,-0.3706055,-0.5463867,-1.05957,-0.09716797,-0.05957031,0.2973633
4894,-95,197.1875,35.8125,-0.3549805,-0.5229492,-1.090332,-0.1103516,-0.06591797,0.293457
4898,-89.4375,201.0625,31.375,-0.1264648,-0.387207,-0.9785156,-0.128418,-0.07324219,0.2866211
4902,-95.3125,214.4375,33.6875,-0.2661133,-0.3520508,-0.9248047,-0.1474609,-0.08203125,0.2783203
4906,-92.125,207,35.125,-0.4208984,-0.4067383,-0.8056641,-0.1601563,-0.08544922,0.2714844
4910,-87.875,188.3125,29.5625,-0.4521484,-0.2470703,-0.6552734,-0.1791992,-0.09082031,0.2592773
4914,-98.8125,153.75,11.625,-0.6186523,-0.1538086,-0.5244141,-0.1938477,-0.09814453,0.2470703
4918,-104.3125,81.3125,-12.4375,-0.7270508,-0.3134766,-0.4555664,-0.2006836,-0.1030273,0.2431641
4922,-79.125,25,-18.625,-0.3432617,-0.6240234,-0.2397461,-0.206543,-0.1118164,0.2363281
4926,-15.6875,19.6875,0.4375,0.01660156,-0.8261719,-0.112793,-0.2080078,-0.1166992,0.2333984
4930,58.4375,38.0625,27.5625,0.1987305,-0.6435547,-0.1552734,-0.2114258,-0.1157227,0.2333984
4934,86.625,48.8125,38.875,0.1674805,-0.1499023,-0.3398438,-0.2128906,-0.109375,0.2333984
4938,71.5,30.9375,17.1875,0.109375,0.2070313,-0.4208984,-0.2163086,-0.1005859,0.2324219
4942,31.3125,1,-21.375,0.004882813,0.3081055,-0.4013672,-0.2163086,-0.09570313,0.2294922
4946,-3,-28.625,-41.5625,-0.2041016,0.04394531,-0.34375,-0.21875,-0.09570313,0.2294922
4950,-1.75,-52.625,-29.6875,-0.2041016,-0.2509766,-0.2363281,-0.2138672,-0.1005859,0.2324219
4954,28.9375,-57.25,-7.125,-0.04882813,-0.3833008,-0.1630859,-0.2104492,-0.09960938,0.2363281
4958,50.1875,-55.375,10,-0.06054688,-0.4101563,-0.2475586,-0.206543,-0.09960938,0.2392578
4962,58.625,-63.75,13.25,-0.2231445,-0.2509766,-0.1938477,-0.2006836,-0.09179688,0.2431641
4966,73.25,-95.375,16.5625,-0.4672852,-0.534668,-0.324707,-0.1972656,-0.08837891,0.2460938
4970,106.875,-126.1875,18,-0.2387695,-0.5541992,-0.309082,-0.1899414,-0.08056641,0.2539063
4975,141.75,-142,18.0625,-0.2348633,-0.6748047,-0.5092773,-0.1791992,-0.06933594,0.262207
4979,175.4375,-156.4375,8.375,-0.02587891,-0.4765625,-0.6938477,-0.1699219,-0.05957031,0.2714844
4983,172.4375,-144.6875,0.8125,-0.1108398,-0.3520508,-0.8286133,-0.1567383,-0.04296875,0.2783203
4987,158.25,-149.4375,-10.875,-0.3666992,-0.2314453,-0.8632813,-0.1435547,-0.02685547,0.2851563
4991,143.0625,-174,-11.625,-0.6767578,-0.3950195,-0.9360352,-0.1352539,-0.01953125,0.2866211
4995,146.8125,-209.625,-8.6875,-0.5141602,-0.4296875,-0.9941406,-0.1162109,-0.003417969,0.2910156
4999,142.5,-207.25,-5,-0.4790039,-0.4921875,-0.9208984,-0.09716797,0.008789063,0.2949219
5003,139.4375,-208.3125,-2.1875,-0.7036133,-0.6201172,-0.9052734,-0.08300781,0.01855469,0.2973633
5007,135.4375,-213,-4,-0.9208984,-0.7680664,-0.8017578,-0.06396484,0.03271484,0.2973633
5011,146.0625,-239.0625,-8.8125,-1.203613,-1.036133,-0.8286133,-0.04248047,0.04638672,0.2988281
5015,175.4375,-270.1875,-14.875,-1.114746,-1.102051,-0.9130859,-0.02587891,0.05615234,0.2949219
5019,193.3125,-270.1875,-11.9375,-1.099121,-1.102051,-0.9477539,-0.001953125,0.07275391,0.2895508
5023,197.25,-263.75,2.375,-1.20752,-1.094238,-1.013184,0.02490234,0.08984375,0.2797852
5027,192.625,-258.25,10.75,-1.253906,-1.078613,-0.9980469,0.03662109,0.1049805,0.2714844
5031,191.125,-267.125,7.8125,-1.436035,-1.148438,-0.9672852,0.06298828,0.1210938,0.2592773
5035,188.1875,-283.4375,6.125,-1.479004,-1.171875,-1.001465,0.08544922,0.1362305,0.2402344
5039,185.5625,-298.5,3.25,-1.537109,-1.249512,-1.013184,0.1010742,0.1450195,0.2294922
5043,184.6875,-308,6.25,-1.513672,-1.276855,-1.01709,0.1235352,0.1586914,0.2021484
5047,178.3125,-307.75,15.5,-1.397461,-1.207031,-1.055664,0.144043,0.1713867,0.1762695
5051,165.875,-301.0625,20.3125,-1.35498,-1.183594,-1.043945,0.1582031,0.1772461,0.1616211
5055,156.3125,-303.875,14.625,-1.389648,-1.195313,-1.032227,0.1748047,0.1835938,0.1342773
5059,145.375,-307.3125,5.1875,-1.339355,-1.167969,-0.9438477,0.1889648,0.1875,0.105957
5063,138,-306.5625,-5.125,-1.292969,-1.140625,-0.8901367,0.1972656,0.1923828,0.08691406
5067,129.1875,-300.5625,-8,-1.273438,-1.105957,-0.7900391,0.2070313,0.1987305,0.05810547
5071,123.25,-292.8125,-7.25,-1.296875,-1.140625,-0.6938477,0.2119141,0.1987305,0.02832031
5075,122.0625,-286.75,-3,-1.269531,-1.15625,-0.6054688,0.2138672,0.1987305,0.01171875
5079,124.6875,-277.3125,2.3125,-1.180664,-1.129395,-0.5053711,0.215332,0.2011719,-0.01904297
5083,130.0625,-266.1875,6.3125,-1.106934,-1.078613,-0.4208984,0.2177734,0.2001953,-0.04492188
5087,134.0625,-256.875,5.625,-1.07959,-1.059082,-0.3325195,0.2163086,0.1987305,-0.06396484
5091,139.125,-250.625,5.75,-1.025391,-1.004883,-0.3359375,0.2138672,0.1948242,-0.09082031
5095,131.625,-236.1875,11.4375,-0.9399414,-0.9350586,-0.2744141,0.2094727,0.1923828,-0.1157227
5099,122,-223.0625,15.3125,-0.847168,-0.8417969,-0.1401367,0.2070313,0.1884766,-0.1318359
5104,110.0625,-212.5625,13.6875,-0.862793,-0.8647461,-0.02050781,0.2011719,0.1826172,-0.1547852
5108,106.5,-214.25,7.125,-0.8432617,-0.8999023,0.07128906,0.1914063,0.1762695,-0.1738281
5112,109.1875,-217.9375,-2.0625,-0.7387695,-0.8881836,0.1518555,0.1855469,0.1762695,-0.1889648
5116,112.6875,-210.8125,-6,-0.5410156,-0.8027344,0.2094727,0.1748047,0.1699219,-0.2109375
5120,109.25,-188.1875,-3.375,-0.4326172,-0.7641602,0.3291016,0.1650391,0.1625977,-0.2285156
5124,106.75,-171.375,3.6875,-0.4287109,-0.6787109,0.2329102,0.1557617,0.1586914,-0.237793
5128,94.5,-165.75,2.5625,-0.3706055,-0.534668,0.1713867,0.1459961,0.1513672,-0.2543945
5132,86.0625,-168.75,-7,-0.2583008,-0.4960938,0.04785156,0.1333008,0.1435547,-0.2666016
5136,83.8125,-158.125,-10.875,0.02441406,-0.4609375,-0.06298828,0.125,0.1386719,-0.2749023
5140,80.625,-120.0625,-5.6875,0.3032227,-0.3286133,-0.2128906,0.1118164,0.1337891,-0.2841797
5144,55.5,-63.3125,5.6875,0.4580078,-0.2241211,-0.3129883,0.1035156,0.1298828,-0.2924805
5148,15.6875,-7.5,1.3125,0.5200195,0.004882813,-0.2822266,0.1010742,0.125,-0.2939453
5152,-20.9375,36.4375,-7.875,0.3266602,-0.1381836,-0.2167969,0.1035156,0.125,-0.2924805
5156,-35.6875,62.125,-9,0.1557617,-0.2314453,-0.2167969,0.105957,0.1274414,-0.2939453
5160,-57,95.4375,1.375,0.1015625,-0.1420898,-0.2128906,0.1079102,0.1298828,-0.2885742
5164,-84.5625,123.9375,8.6875,-0.04101563,-0.1152344,-0.2978516,0.1152344,0.1337891,-0.2802734
5168,-109.4375,142.1875,6.9375,-0.1923828,-0.2353516,-0.359375,0.1259766,0.1411133,-0.2719727
5172,-126.0625,154.125,3.5625,-0.2583008,-0.340332,-0.4936523,0.1357422,0.1489258,-0.2626953
5176,-145.125,172.375,5.5625,-0.262207,-0.3833008,-0.6401367,0.1474609,0.1577148,-0.2460938
5180,-172.875,200.8125,4.1875,-0.2661133,-0.4067383,-0.7749023,0.1582031,0.1660156,-0.2246094
5184,-200.9375,237.75,2.25,-0.362793,-0.5620117,-0.8554688,0.1674805,0.1738281,-0.2119141
5188,-224.0625,282.75,9.0625,-0.5566406,-0.7407227,-0.9169922,0.1796875,0.1850586,-0.1835938
5192,-235.5,322.4375,22.5,-0.7890625,-0.9467773,-0.9477539,0.1914063,0.1938477,-0.1508789
5196,-235.125,356.625,32.75,-1.083496,-1.183594,-0.9091797,0.199707,0.2001953,-0.1225586
5200,-211.875,356.75,24.75,-1.471191,-1.513672,-0.8286133,0.2104492,0.2011719,-0.08447266
5204,-173.4375,344.0625,12.5625,-1.494141,-1.645996,-0.6401367,0.2138672,0.2036133,-0.04345703
5208,-134.3125,355.6875,14,-1.385742,-1.591309,-0.609375,0.215332,0.2036133,-0.02148438
5212,-120.5625,395.0625,39.0625,-1.327637,-1.284668,-0.7094727,0.2104492,0.2001953,0.01318359
5216,-141.375,438.8125,77.9375,-1.494141,-1.024414,-0.9438477,0.2104492,0.1962891,0.04882813
5220,-181.25,462.625,91.875,-1.742188,-0.9697266,-1.051758,0.2055664,0.1884766,0.07714844
5224,-201.0625,428.875,54.8125,-2.443848,-1.447754,-1.024902,0.1962891,0.1762695,0.1191406
