Packet number,Gyroscope X (deg/s),Gyroscope Y (deg/s),Gyroscope Z (deg/s),Accelerometer X (g),Accelerometer Y (g),Accelerometer Z (g),Magnetometer X (G),Magnetometer Y (G),Magnetometer Z (G)
0,-0.8125,-0.25,-0.0625,-0.8588867,-0.4882813,-0.08203125,0.2543945,0.1274414,0.07324219
4,-1.4375,-0.9375,0.5,-0.8588867,-0.4804688,-0.07470703,0.2558594,0.1274414,0.07177734
8,-2.5,-1.25,0.375,-0.8354492,-0.4804688,-0.08984375,0.2558594,0.1274414,0.0703125
12,-3.25,-0.6875,0.125,-0.862793,-0.4921875,-0.08203125,0.2558594,0.1274414,0.06884766
16,-3.5,-1.25,0.6875,-0.8745117,-0.5073242,-0.08984375,0.2558594,0.1274414,0.0703125
20,-3.3125,-0.375,1.3125,-0.8588867,-0.5112305,-0.08203125,0.2558594,0.1274414,0.0703125
24,-2.9375,0.4375,1.5625,-0.8510742,-0.5073242,-0.0859375,0.2558594,0.1274414,0.0703125
28,-3.8125,0.8125,1.875,-0.8432617,-0.4960938,-0.1015625,0.2568359,0.1274414,0.07177734
32,-5.25,0.5625,0.6875,-0.847168,-0.5,-0.1206055,0.2558594,0.1274414,0.07177734
36,-6.4375,0.3125,-0.1875,-0.8354492,-0.5073242,-0.1054688,0.2568359,0.125,0.07177734
40,-6.75,1.25,-0.375,-0.8237305,-0.5112305,-0.1015625,0.2558594,0.1264648,0.07177734
44,-6.8125,2.0625,-1,-0.831543,-0.5151367,-0.109375,0.2558594,0.1274414,0.07177734
48,-6.25,2.625,-2.875,-0.8276367,-0.5268555,-0.1015625,0.2568359,0.1264648,0.07324219
52,-5.1875,5.5625,-2.875,-0.8354492,-0.5385742,-0.1054688,0.2543945,0.1264648,0.07324219
56,-4.8125,7.5625,-2.625,-0.8393555,-0.519043,-0.1015625,0.2543945,0.125,0.07324219
60,-6.1875,8.3125,-3.375,-0.8510742,-0.503418,-0.128418,0.2543945,0.1274414,0.07421875
64,-10.5,5.6875,-5.3125,-0.8706055,-0.519043,-0.1591797,0.2543945,0.1264648,0.07568359
68,-14.9375,4.875,-4.8125,-0.8549805,-0.550293,-0.2055664,0.2558594,0.125,0.07568359
72,-18.3125,4.8125,-6.625,-0.8125,-0.5581055,-0.2670898,0.253418,0.125,0.07714844
76,-23.0625,9.375,-9.1875,-0.796875,-0.5927734,-0.309082,0.253418,0.1274414,0.07861328
80,-24,14.0625,-11.875,-0.8125,-0.6357422,-0.359375,0.2543945,0.1235352,0.08007813
84,-24,23.6875,-12.8125,-0.847168,-0.6977539,-0.4282227,0.253418,0.1274414,0.08251953
88,-21.0625,34.625,-13.625,-0.8706055,-0.7368164,-0.5131836,0.2509766,0.1274414,0.08789063
92,-16.25,45.1875,-14,-0.8935547,-0.7719727,-0.6552734,0.25,0.1289063,0.09082031
96,-13.3125,56.8125,-14.5625,-0.8432617,-0.7407227,-0.824707,0.2475586,0.1289063,0.09765625
100,-18.75,71.1875,-21.5,-0.7617188,-0.7055664,-1.001465,0.2426758,0.1289063,0.1000977
104,-31.5625,90.625,-35.5625,-0.7192383,-0.6899414,-1.101563,0.2392578,0.1313477,0.105957
108,-39.9375,115.8125,-45.5625,-0.7543945,-0.7446289,-1.144043,0.234375,0.1298828,0.1152344
112,-41.6875,144.375,-45.5625,-0.862793,-0.8339844,-1.15918,0.2246094,0.1323242,0.1274414
117,-37.4375,170.6875,-42.625,-0.9326172,-0.7680664,-1.166992,0.2202148,0.1362305,0.1328125
121,-34.5625,187.25,-32.4375,-0.9399414,-0.8417969,-1.286133,0.2080078,0.1347656,0.1518555
125,-40.0625,205.3125,-34.0625,-0.8818359,-0.7446289,-1.394043,0.1948242,0.1376953,0.1640625
129,-62.6875,217.875,-44.875,-0.8085938,-0.5698242,-1.475098,0.1889648,0.1362305,0.1738281
133,-99.625,234.9375,-60.6875,-0.8354492,-0.5581055,-1.494141,0.1723633,0.1337891,0.1914063
137,-126.9375,252.25,-68.3125,-0.9438477,-0.6552734,-1.390137,0.1474609,0.1298828,0.2104492
141,-137.625,265.8125,-63.75,-1.118652,-0.8105469,-1.293945,0.1342773,0.1264648,0.2226563
145,-131.9375,271.125,-48.125,-1.269531,-0.9350586,-1.240234,0.109375,0.1201172,0.2416992
149,-119.1875,258.1875,-36.25,-1.118652,-0.8803711,-1.359375,0.08691406,0.1088867,0.2553711
153,-127,269,-35.5,-0.7075195,-0.6201172,-1.444336,0.07128906,0.1035156,0.2661133
157,-170.0625,307.6875,-56.8125,-0.5834961,-0.3754883,-1.563477,0.04248047,0.09228516,0.2797852
161,-220.875,332.5625,-61.5,-0.8818359,-0.5151367,-1.632813,0.01171875,0.07617188,0.2895508
165,-245.4375,334.375,-38.8125,-1.083496,-0.7446289,-1.640137,-0.01025391,0.06005859,0.2949219
169,-246.875,335.75,-11.125,-0.9516602,-0.8183594,-1.602051,-0.04394531,0.03515625,0.300293
173,-241.1875,352.6875,-0.0625,-0.7348633,-0.7988281,-1.571289,-0.078125,0.01367188,0.2988281
177,-241.1875,377.9375,-0.6875,-0.7348633,-0.7250977,-1.594238,-0.09960938,-0.004394531,0.2963867
181,-246.9375,366.5,-13.5625,-1.017578,-0.7172852,-1.563477,-0.1352539,-0.02929688,0.2827148
185,-248.25,333.125,-33.8125,-0.8935547,-0.6435547,-1.293945,-0.1665039,-0.05175781,0.2675781
189,-242,312.1875,-49.625,-1.052734,-0.7524414,-0.8168945,-0.1865234,-0.06835938,0.2553711
193,-208.875,269.0625,-46.9375,-1.308105,-0.8725586,-0.2822266,-0.2089844,-0.09082031,0.237793
197,-143.5,217.375,-29.4375,-1.20752,-0.8535156,0.2250977,-0.2294922,-0.1069336,0.2158203
201,-64.5625,160.25,-6,-1.296875,-0.6821289,0.4057617,-0.237793,-0.1157227,0.2050781
205,-15.75,90.1875,37.875,-0.9790039,-0.4960938,0.2172852,-0.2460938,-0.1157227,0.1967773
209,11.4375,57.9375,66.875,-0.1499023,-0.2822266,0.05566406,-0.253418,-0.1132813,0.1914063
213,22.8125,73.5,68.0625,0.3730469,-0.1850586,-0.001464844,-0.2568359,-0.1083984,0.1889648
217,34.375,85.1875,50.5,0.2915039,-0.1074219,0.01367188,-0.2626953,-0.1020508,0.1791992
221,35.9375,67.8125,26.0625,0.02832031,-0.006347656,0.01367188,-0.2685547,-0.09570313,0.175293
225,25.9375,31.375,11,-0.1420898,0.02441406,0.02490234,-0.2700195,-0.09326172,0.1708984
229,14.875,-9.875,9,-0.1689453,-0.08789063,-0.05126953,-0.2734375,-0.09326172,0.1708984
233,17.9375,-35.1875,21.9375,0.109375,-0.2861328,-0.1362305,-0.2685547,-0.08935547,0.175293
237,32.375,-39.125,31.5,0.2915039,-0.3598633,-0.2167969,-0.2685547,-0.08837891,0.175293
241,48.1875,-37.125,32.6875,0.3535156,-0.3520508,-0.2363281,-0.2675781,-0.08300781,0.1791992
246,54,-39.75,23.1875,0.2177734,-0.2900391,-0.2592773,-0.2661133,-0.07714844,0.1821289
250,56.1875,-61.9375,6.1875,-0.01806641,-0.2275391,-0.2783203,-0.2617188,-0.07421875,0.1845703
254,58.6875,-93.8125,-1.9375,-0.1303711,-0.2822266,-0.3476563,-0.2592773,-0.07080078,0.1928711
258,67.875,-116.75,-1.875,-0.02978516,-0.3095703,-0.378418,-0.253418,-0.06591797,0.199707
262,79,-128,4.375,-0.1962891,-0.421875,-0.3823242,-0.2470703,-0.06201172,0.206543
266,104.9375,-147.3125,12.6875,-0.3242188,-0.5268555,-0.394043,-0.237793,-0.05712891,0.2158203
270,140.875,-165.1875,32.25,-0.4208984,-0.6279297,-0.5244141,-0.2270508,-0.04589844,0.2270508
274,173.3125,-174.8125,42.75,-0.3549805,-0.4609375,-0.6708984,-0.21875,-0.03466797,0.2348633
278,177.1875,-182.5,42.75,-0.5756836,-0.324707,-0.8056641,-0.2045898,-0.01806641,0.2460938
282,165.1875,-204.875,38.25,-0.9169922,-0.2045898,-0.894043,-0.1889648,-0.0004882813,0.2539063
286,148.875,-245.3125,48.125,-1.261719,-0.324707,-1.028809,-0.1757813,0.01025391,0.2607422
290,133.125,-291.25,67.5,-1.063965,-0.3325195,-1.248047,-0.1508789,0.02490234,0.2714844
294,105.1875,-308.75,81.9375,-0.8510742,-0.3754883,-1.447754,-0.1259766,0.04150391,0.2797852
298,81,-330.25,70.5625,-0.5527344,-0.4726563,-1.598145,-0.1030273,0.04638672,0.2841797
302,67.1875,-329.75,14.0625,-0.4482422,-0.550293,-1.659668,-0.06982422,0.05615234,0.2910156
306,60.875,-316.25,-5.8125,-0.4750977,-0.6708984,-1.651855,-0.04003906,0.0625,0.2910156
310,73,-280.5625,16.5,-0.5952148,-0.8647461,-1.520996,-0.02001953,0.06738281,0.293457
314,97.25,-243.9375,48,-0.7075195,-0.8959961,-1.390137,0.008300781,0.07275391,0.2895508
318,117.3125,-225.25,71.0625,-1.052734,-1.004883,-1.351563,0.03173828,0.08251953,0.2841797
322,141.4375,-240.75,77,-1.071777,-0.9619141,-1.467285,0.04736328,0.08984375,0.2773438
326,139.375,-246.4375,64.5,-0.8588867,-0.6860352,-1.567383,0.07226563,0.1000977,0.2651367
330,106.1875,-240.625,41.0625,-0.9130859,-0.5385742,-1.543945,0.09619141,0.1098633,0.25
334,70.5625,-231.8125,27.75,-1.103027,-0.6396484,-1.382324,0.109375,0.1137695,0.2446289
338,57.75,-232.25,32.125,-1.315918,-0.8457031,-1.20166,0.1308594,0.1176758,0.2333984
342,62.8125,-241.25,30.4375,-1.381836,-0.9350586,-1.013184,0.1508789,0.1210938,0.2158203
346,79.125,-257.125,23.9375,-1.385742,-0.9389648,-0.9438477,0.1630859,0.1235352,0.2080078
350,82.625,-260.9375,31.5625,-1.292969,-0.8535156,-0.9208984,0.1821289,0.1264648,0.1889648
354,74.375,-253.4375,44.75,-1.180664,-0.7680664,-0.9208984,0.2011719,0.1264648,0.1669922
358,69.75,-245.4375,52.625,-1.125977,-0.7832031,-0.8671875,0.2119141,0.1289063,0.15625
362,65.5,-245.25,44.5,-1.234863,-0.7524414,-0.7749023,0.2260742,0.1274414,0.1342773
366,63.375,-270.9375,22.4375,-1.362793,-0.6899414,-0.7441406,0.2392578,0.1274414,0.1113281
370,45.1875,-281.25,11.25,-1.106934,-0.5776367,-0.7363281,0.2485352,0.1274414,0.09326172
375,37.0625,-258.625,20.25,-0.9287109,-0.7250977,-0.5786133,0.2583008,0.1289063,0.07177734
379,48.875,-228.5625,34.5625,-0.9750977,-0.8417969,-0.4360352,0.2651367,0.125,0.04882813
383,74.6875,-223.5625,33.25,-1.292969,-0.8574219,-0.2670898,0.2700195,0.1225586,0.03222656
387,82.875,-261.625,18.625,-1.432129,-0.5620117,-0.3168945,0.2773438,0.1235352,0.01074219
391,63.875,-274.4375,24.4375,-1.091309,-0.4765625,-0.3476563,0.2773438,0.1210938,-0.01757813
395,43.8125,-250.5,33.75,-0.7578125,-0.5268555,-0.2592773,0.2817383,0.1176758,-0.03369141
399,51.0625,-210.1875,51,-0.5834961,-0.7329102,-0.1860352,0.2817383,0.1152344,-0.05712891
403,67.6875,-166.625,57,-0.6303711,-0.7055664,-0.09375,0.2832031,0.1088867,-0.08007813
407,77.6875,-151.25,48.4375,-0.8432617,-0.6552734,-0.1206055,0.2832031,0.1035156,-0.09082031
411,74.3125,-150.9375,31.3125,-0.8198242,-0.5112305,-0.1591797,0.2817383,0.09863281,-0.1074219
415,62.4375,-138.8125,26.5,-0.5756836,-0.4375,-0.2592773,0.2792969,0.09375,-0.1235352
419,48.875,-110.375,30.6875,-0.3823242,-0.4101563,-0.3325195,0.2792969,0.09228516,-0.1333008
423,36.9375,-75.4375,36.5625,-0.2348633,-0.387207,-0.4052734,0.2773438,0.08740234,-0.1425781
427,22,-42.625,29.5625,-0.1728516,-0.3754883,-0.5092773,0.2773438,0.08251953,-0.1494141
431,8.1875,-10.875,17.0625,-0.04492188,-0.402832,-0.5170898,0.2749023,0.08251953,-0.1508789
435,-1.375,35.875,12.1875,0.09033203,-0.4375,-0.559082,0.2773438,0.07763672,-0.1547852
439,-1.875,87.375,14.25,0.05517578,-0.5151367,-0.6323242,0.2792969,0.07763672,-0.1469727
443,-3.375,130.9375,10.875,-0.04492188,-0.484375,-0.7133789,0.2807617,0.07519531,-0.1401367
447,-11.375,162.5,-2.125,-0.2001953,-0.4179688,-0.8129883,0.2856445,0.07763672,-0.1279297
451,-34.9375,171,-32.3125,-0.4208984,-0.3095703,-0.9746094,0.2890625,0.08007813,-0.112793
455,-72.875,163.0625,-72.5,-0.5371094,-0.2861328,-1.047852,0.2924805,0.08105469,-0.1005859
459,-113.625,164.6875,-103.25,-0.5102539,-0.4140625,-1.028809,0.2900391,0.09130859,-0.08154297
463,-136.0625,195.25,-107.5,-0.5605469,-0.7211914,-0.9438477,0.2880859,0.1035156,-0.0625
467,-128.375,242.5,-90.75,-0.699707,-0.9775391,-0.859375,0.2866211,0.1098633,-0.04492188
471,-103.3125,294.8125,-69.0625,-0.8549805,-1.109863,-0.84375,0.2792969,0.1176758,-0.01611328
475,-80.4375,339,-58.1875,-1.137695,-1.078613,-0.9208984,0.2734375,0.125,0.01611328
479,-78.5625,339.6875,-78.8125,-1.544922,-0.8764648,-1.097656,0.2675781,0.1274414,0.04052734
483,-110.8125,318.6875,-98.75,-1.727051,-0.6899414,-1.140137,0.2543945,0.1323242,0.07177734
487,-153.9375,308.9375,-93.5625,-1.761719,-0.6821289,-1.13623,0.2392578,0.1386719,0.1044922
491,-184.6875,309.8125,-58.5,-1.835449,-0.8105469,-1.197754,0.2246094,0.1362305,0.1220703
495,-200.25,321.375,-26.375,-1.785156,-0.9389648,-1.328613,0.2070313,0.1313477,0.1547852
499,-190.375,328.8125,-7.5,-1.800293,-1.144531,-1.413086,0.1889648,0.1225586,0.1875
504,-166.875,346.375,4,-1.665039,-1.125488,-1.44043,0.1738281,0.1152344,0.206543
508,-160.6875,373.25,10.25,-1.703613,-0.9428711,-1.513184,0.1474609,0.1025391,0.230957
512,-171.4375,378.1875,17.25,-1.955566,-0.8417969,-1.609375,0.1152344,0.08886719,0.2539063
516,-187,360.6875,23.25,-2.005859,-0.8183594,-1.621094,0.09375,0.07617188,0.2714844
520,-190.5625,327.375,24.375,-2.001953,-1.012695,-1.532715,0.06542969,0.05859375,0.2866211
524,-169.875,291.125,13.0625,-1.571777,-0.9658203,-1.471191,0.03417969,0.04003906,0.2973633
528,-173.625,295.625,7.1875,-1.052734,-0.7094727,-1.617188,0.01513672,0.03027344,0.3032227
532,-185.75,316.625,-6.1875,-0.9130859,-0.6279297,-1.744141,-0.01416016,0.01123047,0.3041992
536,-195,329.8125,0.4375,-0.8745117,-0.6821289,-1.867188,-0.04492188,-0.005859375,0.3071289
540,-184.0625,340.3125,26.4375,-0.7192383,-0.7133789,-1.871094,-0.06982422,-0.01953125,0.3056641
544,-167.1875,373.4375,42.4375,-0.5991211,-0.6240234,-1.797852,-0.1020508,-0.03710938,0.2973633
548,-173.3125,376.125,20.1875,-0.7387695,-0.3637695,-1.855957,-0.1376953,-0.05078125,0.2851563
552,-194.6875,341.6875,-19.1875,-0.9399414,-0.3442383,-1.694336,-0.1582031,-0.06054688,0.2729492
556,-204.9375,297.875,-44.6875,-0.7231445,-0.4296875,-1.444336,-0.1875,-0.08056641,0.2539063
560,-192.6875,283.375,-47.9375,-0.6728516,-0.5776367,-1.066895,-0.2114258,-0.1005859,0.2333984
564,-154.125,273.125,-24.875,-0.8085938,-0.6591797,-0.6669922,-0.2246094,-0.1132813,0.2211914
568,-101.875,241.5625,0.75,-0.9287109,-0.5424805,-0.309082,-0.2412109,-0.1220703,0.1982422
572,-56.3125,194.375,7.9375,-0.831543,-0.2470703,-0.1669922,-0.2553711,-0.1279297,0.1806641
576,-39.3125,141.5625,12.375,-0.6884766,-0.09179688,-0.2475586,-0.2626953,-0.1293945,0.1669922
580,-29.4375,111.25,19.25,-0.2270508,-0.08007813,-0.2246094,-0.2709961,-0.1308594,0.15625
584,1.9375,100.3125,30.9375,0.08642578,-0.1499023,-0.2783203,-0.2783203,-0.1279297,0.1494141
588,28.6875,116.75,43.375,0.3266602,0.01269531,-0.3398438,-0.2817383,-0.1269531,0.1425781
592,36.1875,117.5,45.9375,0.109375,0.1679688,-0.4282227,-0.2890625,-0.1206055,0.1342773
596,25,100,33.625,0.06298828,0.3740234,-0.4208984,-0.293457,-0.1166992,0.125
600,-1.375,69.75,25.4375,-0.1030273,0.3081055,-0.3515625,-0.2973633,-0.1132813,0.1191406
604,-19.25,38.75,22.625,0.09765625,0.1914063,-0.2246094,-0.3007813,-0.1108398,0.1137695
608,-25.4375,26,28.25,0.1831055,-0.02587891,-0.1401367,-0.3007813,-0.109375,0.1098633
612,-15.875,10.25,29.1875,0.206543,-0.1889648,-0.07470703,-0.3041992,-0.1083984,0.1069336
616,0.875,-3,30.375,0.3149414,-0.2470703,-0.04394531,-0.3056641,-0.1069336,0.1098633
620,15,-7.5,26.0625,0.3613281,-0.1928711,-0.07470703,-0.3041992,-0.1044922,0.1083984
624,15.125,-22.75,19.3125,0.2177734,-0.1655273,-0.1552734,-0.3041992,-0.09960938,0.1083984
628,19.1875,-43.3125,13.8125,0.2607422,-0.2275391,-0.1669922,-0.3041992,-0.09814453,0.1113281
633,28,-55.5,14.6875,0.2758789,-0.2548828,-0.2207031,-0.3017578,-0.09716797,0.1166992
637,36.4375,-65.0625,17.6875,0.2685547,-0.2587891,-0.2861328,-0.3007813,-0.09326172,0.1220703
641,41.5625,-78.625,21.875,0.1674805,-0.340332,-0.2978516,-0.2983398,-0.09179688,0.1259766
645,53.625,-93.125,16.6875,0.1210938,-0.3833008,-0.2397461,-0.293457,-0.08837891,0.1357422
649,64.3125,-112.3125,7.875,-0.09912109,-0.3793945,-0.1669922,-0.2900391,-0.08447266,0.1425781
653,83.5625,-148.9375,2.3125,-0.28125,-0.5073242,-0.2397461,-0.2851563,-0.07958984,0.1533203
657,114.1875,-181.875,6.4375,-0.01806641,-0.5307617,-0.4594727,-0.2758789,-0.07421875,0.168457
661,130.3125,-181.625,13.125,0.05517578,-0.4609375,-0.6206055,-0.2675781,-0.06835938,0.1806641
665,137.125,-182.0625,15.1875,-0.1186523,-0.3950195,-0.7324219,-0.2578125,-0.06054688,0.1943359
669,131.9375,-184.875,14.25,-0.3666992,-0.3481445,-0.7094727,-0.2446289,-0.04931641,0.2089844
673,137.875,-214.5625,17.9375,-0.6069336,-0.453125,-0.7939453,-0.2353516,-0.04296875,0.2172852
677,151.8125,-238.5,22.375,-0.4750977,-0.4257813,-0.9477539,-0.2211914,-0.02929688,0.2324219
681,147.625,-248,36.1875,-0.5102539,-0.453125,-1.236328,-0.2006836,-0.01318359,0.2485352
685,138.625,-254.0625,39,-0.4907227,-0.4453125,-1.320801,-0.1855469,-0.006835938,0.2553711
689,123.9375,-258,46.3125,-0.3666992,-0.503418,-1.436523,-0.1665039,0.008789063,0.2675781
693,117.8125,-254.8125,37.125,-0.08789063,-0.4726563,-1.475098,-0.1401367,0.02148438,0.2773438
697,102.0625,-247.9375,29.9375,-0.2041016,-0.503418,-1.602051,-0.1245117,0.02734375,0.28125
701,87.125,-251.375,2.625,-0.2387695,-0.4257813,-1.659668,-0.1010742,0.04003906,0.2866211
705,47.5625,-244.3125,-23.875,-0.4443359,-0.3017578,-1.625,-0.078125,0.04638672,0.2895508
709,15,-262.125,-53.25,-0.8393555,-0.4765625,-1.505859,-0.06298828,0.04736328,0.293457
713,11.4375,-291.3125,-61.25,-1.044922,-0.8613281,-1.432617,-0.0390625,0.04638672,0.2963867
717,58.5625,-298.75,-61.5625,-0.8510742,-1.121582,-1.45166,-0.01025391,0.04980469,0.2973633
721,107.6875,-252.4375,-21.5625,-0.6455078,-1.05127,-1.467285,0.005859375,0.05517578,0.2949219
725,135.1875,-200.9375,25.125,-0.7617188,-0.8027344,-1.567383,0.03076172,0.06738281,0.2910156
729,128.25,-186.125,44.125,-0.9907227,-0.5307617,-1.578613,0.04882813,0.07763672,0.28125
733,100.125,-212.625,27.25,-1.269531,-0.4492188,-1.551758,0.05957031,0.08642578,0.2758789
737,87.0625,-258.6875,2.75,-1.455566,-0.7446289,-1.344238,0.07958984,0.09228516,0.2651367
741,105.25,-299.6875,-17.375,-1.335449,-0.8686523,-1.30957,0.1069336,0.1010742,0.2524414
745,112.875,-291.375,-8.25,-1.044922,-0.8457031,-1.286133,0.1210938,0.1088867,0.2416992
749,109.875,-262,0.3125,-0.9326172,-0.7988281,-1.340332,0.1425781,0.1152344,0.2255859
753,99.3125,-238.3125,5.4375,-1.013672,-0.7719727,-1.251953,0.1616211,0.125,0.206543
757,105.25,-250.5,-4.875,-1.28125,-0.9272461,-1.090332,0.1723633,0.1264648,0.1943359
762,122.3125,-276.5,-22.6875,-1.331543,-0.9931641,-0.9785156,0.1879883,0.1337891,0.1723633
766,140.25,-300.3125,-30.9375,-1.420898,-0.9736328,-0.9248047,0.2045898,0.1435547,0.1479492
770,139.6875,-314.5,-17.3125,-1.304199,-0.7910156,-1.013184,0.2138672,0.1474609,0.1289063
774,114.25,-291.125,-3.125,-0.831543,-0.5893555,-0.9672852,0.2246094,0.1513672,0.1015625
778,85,-244.375,-7.625,-0.7543945,-0.6977539,-0.7749023,0.234375,0.1577148,0.07324219
782,89.125,-231.8125,-12.375,-0.8818359,-0.8535156,-0.6479492,0.2402344,0.1611328,0.05810547
786,95.3125,-215.5625,-4.5625,-0.8085938,-0.8496094,-0.5976563,0.2460938,0.1611328,0.03759766
790,107.375,-195.1875,5.6875,-0.765625,-0.8686523,-0.4863281,0.2475586,0.1635742,0.01318359
794,119.0625,-177.875,17.9375,-0.765625,-0.7871094,-0.4013672,0.2485352,0.1625977,0
798,99.6875,-154.8125,18.25,-0.4985352,-0.4570313,-0.4746094,0.253418,0.1625977,-0.02050781
802,63.8125,-133.4375,-0.0625,-0.6806641,-0.4101563,-0.3168945,0.2543945,0.1625977,-0.03808594
806,38.5,-148.5,-15.1875,-0.7504883,-0.4067383,-0.4282227,0.2519531,0.1611328,-0.04638672
810,10.8125,-148.8125,-21.6875,-0.5332031,-0.371582,-0.3974609,0.2519531,0.1625977,-0.0625
814,-0.8125,-128.875,-7.75,-0.3974609,-0.5854492,-0.3476563,0.2485352,0.1660156,-0.07324219
818,10.9375,-90.5,17.1875,-0.03320313,-0.5229492,-0.4555664,0.2475586,0.1625977,-0.07861328
822,12.0625,-37.0625,25.875,-0.002441406,-0.4492188,-0.5708008,0.2485352,0.1611328,-0.08544922
826,12.1875,-18.25,4.3125,-0.1689453,-0.4140625,-0.6206055,0.2475586,0.1601563,-0.08984375
830,4.0625,-4.125,-16.9375,-0.1030273,-0.3017578,-0.5898438,0.2485352,0.1601563,-0.08984375
834,-7.125,20.875,-16.5,-0.1303711,-0.2783203,-0.6171875,0.2475586,0.1611328,-0.08984375
838,-24,51.9375,1.3125,-0.1108398,-0.2314453,-0.6787109,0.2475586,0.1601563,-0.08544922
842,-44,88.5,17.375,-0.03710938,-0.2705078,-0.7553711,0.2475586,0.1625977,-0.08154297
846,-49.5625,130.3125,25.5625,-0.002441406,-0.4804688,-0.8364258,0.2509766,0.1611328,-0.07080078
850,-40.8125,173.125,24.9375,-0.06835938,-0.6357422,-0.8901367,0.2519531,0.1586914,-0.05566406
854,-35.25,203.9375,6.9375,-0.262207,-0.6240234,-0.9785156,0.2543945,0.1586914,-0.04638672
858,-44.8125,223.9375,-10.4375,-0.4594727,-0.5893555,-1.05957,0.2543945,0.1586914,-0.02441406
862,-64.9375,243.0625,-21.4375,-0.6264648,-0.6083984,-1.117188,0.2519531,0.1601563,-0.00390625
866,-93.5,253.1875,-34.9375,-0.847168,-0.6357422,-1.144043,0.25,0.1611328,0.01171875
870,-120.9375,252.75,-50.8125,-1.001953,-0.7407227,-1.13623,0.2426758,0.1635742,0.0390625
874,-142.625,260.625,-49.3125,-1.07959,-0.8725586,-1.121094,0.2319336,0.1660156,0.06494141
878,-159.125,285.3125,-32.9375,-1.095215,-0.9428711,-1.155762,0.2270508,0.1660156,0.08691406
882,-167.75,316.25,-9.625,-1.230957,-1.024414,-1.197754,0.2128906,0.1611328,0.1152344
886,-159.25,326.375,-4.9375,-1.567871,-1.358398,-1.13623,0.1972656,0.1523438,0.1464844
891,-127.5625,314.5625,-23.8125,-1.567871,-1.385742,-1.055664,0.184082,0.1499023,0.1630859
895,-118.5,307.3125,-42.25,-1.595215,-1.129395,-1.163086,0.1630859,0.1435547,0.1899414
899,-141.3125,297.5,-46.9375,-1.629883,-0.8725586,-1.278809,0.1391602,0.1386719,0.2104492
903,-179.625,283.9375,-23.25,-1.618164,-0.7719727,-1.455566,0.1235352,0.1313477,0.2255859
907,-219.25,290.8125,12.9375,-1.389648,-0.7602539,-1.574707,0.1020508,0.1162109,0.2470703
911,-241.875,317.9375,47.4375,-1.277344,-0.8999023,-1.613281,0.07617188,0.09619141,0.2661133
915,-226.5625,323.3125,57.8125,-1.529297,-1.300293,-1.543945,0.05957031,0.08251953,0.2797852
919,-179.8125,292.875,32.4375,-1.289063,-1.214844,-1.467285,0.03173828,0.06005859,0.2910156
923,-169.875,288.75,15.75,-1.137695,-0.9077148,-1.563477,0.004394531,0.04248047,0.2988281
927,-195.8125,285.3125,13.75,-1.11084,-0.6474609,-1.659668,-0.01416016,0.03271484,0.3017578
931,-222.8125,266.625,26.625,-1.099121,-0.6474609,-1.801758,-0.04248047,0.01025391,0.3041992
935,-222.8125,260.625,43.5,-0.5449219,-0.6787109,-1.871094,-0.06640625,-0.009277344,0.3041992
939,-196.875,311.4375,60.875,-0.230957,-0.8222656,-1.801758,-0.08544922,-0.02441406,0.3017578
943,-171.5,343,55.125,-0.5214844,-0.581543,-1.755859,-0.1152344,-0.04052734,0.293457
947,-193.5625,318.4375,15.4375,-0.9672852,-0.2202148,-1.763184,-0.1474609,-0.05712891,0.28125
951,-232.3125,234.625,-54.25,-0.715332,-0.1928711,-1.698242,-0.1640625,-0.06933594,0.269043
955,-240.25,213.75,-78.125,-0.4013672,-0.6630859,-1.416992,-0.1831055,-0.09326172,0.2553711
959,-201.3125,236.4375,-37.5,-0.2001953,-0.9116211,-1.232422,-0.1982422,-0.1157227,0.237793
963,-159.375,270.75,23.6875,-0.3706055,-0.7680664,-1.066895,-0.2114258,-0.1293945,0.2255859
967,-132.125,273.375,64.8125,-0.5141602,-0.4960938,-0.8476563,-0.2304688,-0.1381836,0.2021484
971,-99.8125,240.0625,74,-0.6186523,-0.4570313,-0.5014648,-0.2509766,-0.1381836,0.1806641
975,-68.8125,187.9375,38.4375,-0.4907227,-0.2822266,-0.2939453,-0.2602539,-0.1367188,0.1699219
979,-58.0625,138.25,-3.75,-0.3354492,-0.2626953,-0.2363281,-0.2700195,-0.1381836,0.1533203
983,-38.4375,104.5625,-26.6875,-0.2270508,-0.3598633,-0.09765625,-0.2768555,-0.1430664,0.1425781
987,-2.125,93.5625,-19.625,-0.07226563,-0.2744141,-0.01318359,-0.2807617,-0.1469727,0.1357422
991,20.0625,91.125,-3.375,-0.1533203,0.07080078,-0.0859375,-0.2827148,-0.1469727,0.1274414
995,10.75,67.8125,16.1875,-0.3549805,0.2226563,-0.09375,-0.2875977,-0.1469727,0.1206055
999,12.1875,42.1875,32.5,-0.1147461,0.06689453,0.005859375,-0.2900391,-0.1455078,0.1166992
1003,18.1875,32.625,40.9375,-0.01025391,0.05517578,0.02490234,-0.293457,-0.1420898,0.1137695
1007,22.6875,6.3125,31.3125,0.01269531,-0.02978516,-0.009277344,-0.2949219,-0.1381836,0.1123047
1011,29.5,-11.5625,20.25,0.09033203,-0.1347656,0.06347656,-0.2949219,-0.1342773,0.1123047
1015,48.3125,-24.375,22.8125,0.07470703,-0.2626953,0.05957031,-0.293457,-0.1308594,0.1166992
1020,69.4375,-37.3125,27.9375,0.05517578,-0.2006836,-0.005371094,-0.2949219,-0.1245117,0.1181641
1024,78.0625,-54.6875,30.125,0.07080078,-0.1035156,-0.1362305,-0.293457,-0.1196289,0.1235352
1028,75.0625,-74.5,31.375,-0.006347656,-0.1074219,-0.2436523,-0.2924805,-0.1142578,0.1289063
1032,71.375,-96.4375,32.5,-0.05273438,-0.1694336,-0.2861328,-0.2866211,-0.109375,0.1381836
1036,74,-125.25,23.1875,-0.08007813,-0.2744141,-0.359375,-0.2866211,-0.1030273,0.1464844
1040,90.0625,-147.75,14.125,-0.01416016,-0.3598633,-0.4321289,-0.2783203,-0.09814453,0.1586914
1044,100.375,-164.875,9.4375,-0.1962891,-0.4257813,-0.5014648,-0.2685547,-0.09179688,0.1708984
1048,123.5625,-196.3125,4,-0.1186523,-0.5385742,-0.6899414,-0.2617188,-0.08837891,0.1845703
1052,154.5625,-197.8125,9.875,0.2138672,-0.4414063,-0.9169922,-0.2495117,-0.07714844,0.1982422
1056,151.125,-176.125,21.75,-0.09521484,-0.3017578,-1.005371,-0.2363281,-0.06689453,0.2172852
1060,133.3125,-196.5,17.5,-0.6147461,-0.2587891,-1.009277,-0.2294922,-0.05712891,0.2255859
1064,113.375,-233.8125,11.5,-0.8354492,-0.4609375,-0.9594727,-0.2138672,-0.04589844,0.2402344
1068,128,-272.8125,2.75,-0.7543945,-0.7133789,-1.032227,-0.1938477,-0.03710938,0.2539063
1072,159.6875,-293.375,-4,-0.6342773,-0.8725586,-1.232422,-0.1782227,-0.02929688,0.2661133
1076,186.1875,-301.5,-4.5,-0.5756836,-0.7792969,-1.459473,-0.1508789,-0.01171875,0.2797852
1080,172.25,-294.25,-3.875,-0.6069336,-0.4648438,-1.647949,-0.1235352,0.004882813,0.2851563
1084,112.1875,-291.8125,-4.1875,-0.9365234,-0.1499023,-1.686523,-0.1054688,0.01367188,0.2910156
1088,68.875,-337.5,-35.3125,-1.099121,-0.4335938,-1.625,-0.07568359,0.02246094,0.2973633
1092,84,-357.25,-54.625,-0.7348633,-0.8574219,-1.455566,-0.04248047,0.02734375,0.2988281
1096,133.1875,-310,-19.25,-0.6650391,-1.269043,-1.336426,-0.02246094,0.03759766,0.3017578
1100,187.25,-271.75,24.1875,-0.8549805,-1.175781,-1.463379,0.006835938,0.04882813,0.2963867
1104,197.25,-254.0625,40.1875,-0.9326172,-0.7871094,-1.647949,0.03320313,0.06738281,0.2880859
1108,164,-254.1875,41.8125,-1.033203,-0.5151367,-1.740234,0.04882813,0.08007813,0.2797852
1112,130.1875,-271.5625,24.75,-1.20752,-0.6748047,-1.651855,0.07470703,0.09228516,0.269043
1116,115,-282.0625,11.8125,-1.137695,-0.8417969,-1.528809,0.09863281,0.1035156,0.2553711
1120,121.9375,-285.0625,6.75,-1.176758,-1.08252,-1.378906,0.1166992,0.1098633,0.2446289
1124,136.625,-279,4.875,-1.033203,-1.070801,-1.320801,0.1376953,0.1186523,0.2270508
1128,142.625,-266.6875,8.1875,-1.118652,-1.012695,-1.278809,0.1591797,0.1274414,0.2050781
1132,133.875,-264,8.375,-1.191895,-0.8647461,-1.320801,0.1699219,0.1323242,0.1914063
1136,114.875,-273.125,-8,-1.327637,-0.8300781,-1.232422,0.1889648,0.1401367,0.168457
1140,102.3125,-299.0625,-31.25,-1.432129,-0.8496094,-1.128418,0.2011719,0.1474609,0.144043
1144,96.625,-304.9375,-31.3125,-1.246094,-0.9116211,-1.040039,0.2128906,0.1513672,0.1274414
1149,105.5625,-279,-13.8125,-1.083496,-1.020508,-0.8325195,0.2211914,0.15625,0.1000977
1153,115,-259.5,-7.5,-1.087402,-0.8999023,-0.8168945,0.2294922,0.1611328,0.07421875
1157,106.25,-258.5625,-20.0625,-1.103027,-0.7602539,-0.8129883,0.2368164,0.1635742,0.05517578
1161,90.375,-260.0625,-23,-1.099121,-0.6669922,-0.7822266,0.2426758,0.1650391,0.03076172
1165,77.5625,-256.25,-25.6875,-0.8549805,-0.6860352,-0.644043,0.2426758,0.1699219,0.004882813
1169,88.1875,-217.1875,-0.9375,-0.7543945,-0.9931641,-0.3325195,0.2460938,0.1723633,-0.006835938
1173,121.9375,-163.4375,43.8125,-0.7387695,-1.133301,-0.07470703,0.2460938,0.1689453,-0.03125
1177,147.3125,-135.9375,47.4375,-0.8818359,-0.8647461,-0.1743164,0.25,0.1660156,-0.05029297
1181,133.8125,-152.9375,17.8125,-1.037109,-0.5112305,-0.2167969,0.25,0.1635742,-0.06542969
1185,93.625,-173,5.0625,-0.8857422,-0.2900391,-0.3359375,0.2485352,0.1601563,-0.08447266
1189,59.25,-173.9375,3.75,-0.5141602,-0.387207,-0.3632813,0.2451172,0.1577148,-0.1035156
1193,51.125,-146.3125,14.3125,-0.2890625,-0.6357422,-0.2783203,0.2436523,0.15625,-0.112793
1197,66.875,-113.25,22.375,-0.1303711,-0.6787109,-0.3515625,0.2412109,0.1523438,-0.1279297
1201,72.1875,-73.625,23.625,0.05126953,-0.4804688,-0.5053711,0.2412109,0.1474609,-0.1401367
1205,57.5,-37.5625,13.4375,0.08251953,-0.2939453,-0.6171875,0.2402344,0.1474609,-0.1455078
1209,24.6875,-4.4375,9.0625,0.1171875,-0.1889648,-0.6245117,0.2392578,0.1435547,-0.1508789
1213,-11.5625,37.3125,14.0625,0.109375,-0.2163086,-0.574707,0.2402344,0.1411133,-0.1494141
1217,-38.6875,77.3125,23.5625,0.04345703,-0.2626953,-0.6245117,0.2412109,0.1425781,-0.1484375
1221,-55,103.25,19.75,-0.1264648,-0.3911133,-0.6977539,0.2460938,0.1425781,-0.137207
1225,-63.0625,113.3125,-1.5625,-0.1147461,-0.421875,-0.809082,0.2509766,0.1425781,-0.1289063
1229,-74.3125,140,-21.6875,-0.04492188,-0.4257813,-0.894043,0.2519531,0.1435547,-0.1181641
1233,-84.625,180.375,-27.3125,-0.1186523,-0.4648438,-1.01709,0.2558594,0.1459961,-0.1005859
1237,-97.75,230.5625,-19.1875,-0.2543945,-0.4960938,-1.113281,0.2543945,0.1513672,-0.07861328
1241,-111.8125,285.375,1.1875,-0.4208984,-0.565918,-1.205566,0.2568359,0.1538086,-0.0625
1245,-123.125,327.8125,19.6875,-0.7773438,-0.7910156,-1.270996,0.2592773,0.1547852,-0.02832031
1249,-111.375,331.5625,5.75,-1.044922,-1.070801,-1.255371,0.2583008,0.1523438,0.00390625
1253,-88.5625,326.0625,-39.1875,-1.029297,-1.109863,-1.205566,0.253418,0.1523438,0.02392578
1257,-97.5,338.4375,-72.5625,-1.145508,-0.8261719,-1.348145,0.2451172,0.1547852,0.05517578
1261,-147.25,343.4375,-80.5,-1.509766,-0.6201172,-1.486328,0.2294922,0.1586914,0.08935547
1265,-214.4375,340.625,-45.1875,-1.812012,-0.6083984,-1.528809,0.2163086,0.1586914,0.1113281
1269,-251,332.9375,-13.1875,-2.044434,-1.08252,-1.432617,0.1987305,0.1499023,0.1479492
1273,-235.625,312.8125,-9.5625,-2.12207,-1.459473,-1.270996,0.1796875,0.1362305,0.1821289
1278,-196.3125,293.9375,-23.5,-1.959473,-1.42041,-1.228516,0.1640625,0.1274414,0.2011719
1282,-177.75,300.8125,-20.125,-1.885742,-1.22998,-1.30957,0.1425781,0.1176758,0.2255859
1286,-181.125,303.25,2.6875,-2.005859,-1.012695,-1.416992,0.1176758,0.1035156,0.2460938
1290,-200.625,297.375,42.9375,-1.986328,-0.9233398,-1.498047,0.1020508,0.09130859,0.2607422
1294,-216.3125,296.6875,72.625,-1.75,-0.9233398,-1.586426,0.07861328,0.07128906,0.2797852
1298,-224.875,294.75,71.0625,-1.599121,-0.8920898,-1.625,0.05322266,0.05126953,0.2910156
1302,-233.5,252.3125,19.75,-1.603027,-0.9038086,-1.586426,0.03564453,0.03271484,0.2963867
1306,-238.5625,221.875,-11.5625,-1.304199,-0.9736328,-1.459473,0.01171875,0.008789063,0.3056641
1310,-221.625,217.8125,2.125,-1.12207,-1.032227,-1.397949,-0.0078125,-0.01464844,0.3100586
1314,-188.1875,230.6875,37.3125,-0.8818359,-0.9389648,-1.390137,-0.02490234,-0.02929688,0.3139648
1318,-166.5625,259.3125,72.4375,-0.7036133,-0.7055664,-1.490234,-0.04833984,-0.04589844,0.3100586
1322,-164.9375,282.1875,82.9375,-0.715332,-0.5385742,-1.498047,-0.07324219,-0.06201172,0.3056641
1326,-168.3125,265.5625,57.25,-0.796875,-0.5,-1.382324,-0.09228516,-0.07324219,0.2988281
1330,-171.25,235.5,21.5625,-0.7348633,-0.534668,-1.178711,-0.1176758,-0.08544922,0.2919922
1334,-159.375,207.1875,1.375,-0.7036133,-0.6162109,-0.9980469,-0.1376953,-0.1020508,0.2797852
1338,-129.75,186.9375,3,-0.5175781,-0.7055664,-0.8554688,-0.1508789,-0.1108398,0.2729492
1342,-87.3125,190.1875,22.625,-0.3203125,-0.6748047,-0.7324219,-0.1674805,-0.1206055,0.2607422
1346,-52.25,198.9375,42.0625,-0.2929688,-0.4960938,-0.628418,-0.1855469,-0.1269531,0.2470703
1350,-33.375,185.5625,41.9375,-0.296875,-0.1655273,-0.6323242,-0.1948242,-0.1254883,0.2392578
1354,-49.875,159.375,19.8125,-0.3046875,0.08642578,-0.6401367,-0.2114258,-0.1269531,0.2270508
1358,-66.625,119.6875,-13,-0.2348633,-0.06445313,-0.5053711,-0.222168,-0.1293945,0.21875
1362,-55.0625,100.875,-17.875,-0.08398438,-0.3481445,-0.2939453,-0.2270508,-0.1342773,0.2133789
1366,-14.25,104.875,5.5,0.0009765625,-0.46875,-0.1474609,-0.2304688,-0.1381836,0.2036133
1370,28.625,108.5,27.6875,0.1132813,-0.2548828,-0.1743164,-0.2387695,-0.1357422,0.1982422
1374,36.75,105.4375,29.25,0.01269531,0.04003906,-0.2514648,-0.2460938,-0.1333008,0.1914063
1378,12.6875,73.25,5.25,-0.09130859,0.284668,-0.3129883,-0.2509766,-0.1293945,0.1860352
1382,-19.375,36.5,-17.6875,-0.1225586,0.1333008,-0.2324219,-0.2553711,-0.1308594,0.1821289
1386,-19.875,7.0625,-26.4375,-0.06054688,-0.1269531,-0.112793,-0.2568359,-0.1318359,0.1806641
1390,1.8125,-1,-13.6875,0.05126953,-0.1928711,-0.009277344,-0.2568359,-0.1342773,0.1791992
1394,27.1875,-11.625,5.125,0.05126953,-0.2939453,-0.08984375,-0.2568359,-0.1342773,0.1777344
1398,59.375,-19.5625,18.1875,0.2529297,-0.2939453,-0.1245117,-0.2543945,-0.1342773,0.1806641
1402,77.1875,-15.3125,24.4375,0.2875977,-0.1230469,-0.2670898,-0.2543945,-0.1269531,0.1831055
1407,71.75,-26.125,16.375,0.09765625,0.02832031,-0.3823242,-0.253418,-0.1196289,0.1860352
1411,56.125,-55.875,-0.4375,-0.02978516,0.05908203,-0.4282227,-0.253418,-0.1166992,0.1899414
1415,50.375,-83.75,-7.625,0.05126953,-0.04541016,-0.4516602,-0.2470703,-0.1118164,0.1943359
1419,49.8125,-92.3125,-4.25,0.05126953,-0.1191406,-0.4208984,-0.2426758,-0.109375,0.2021484
1423,61.0625,-112.375,-7,-0.01416016,-0.1811523,-0.4628906,-0.2363281,-0.1108398,0.2080078
1427,69.375,-123.8125,-6.875,-0.1225586,-0.3134766,-0.4091797,-0.2280273,-0.1030273,0.21875
1431,90.3125,-135.4375,-7.8125,-0.3510742,-0.4921875,-0.3398438,-0.2211914,-0.09814453,0.2280273
1435,125.0625,-163.625,-12.9375,-0.5874023,-0.5893555,-0.394043,-0.2138672,-0.09326172,0.2363281
1439,163.25,-193.375,-13.125,-0.5874023,-0.5385742,-0.5668945,-0.199707,-0.08447266,0.25
1443,176.3125,-206,-6.1875,-0.6455078,-0.4101563,-0.7631836,-0.1831055,-0.07080078,0.2583008
1447,165.1875,-226.5,-6.4375,-0.7075195,-0.2241211,-0.9785156,-0.1708984,-0.06054688,0.2661133
1451,147.9375,-245.75,0.25,-0.6884766,-0.2861328,-1.105469,-0.1508789,-0.04589844,0.2797852
1455,145.5,-251.3125,6.875,-0.5332031,-0.3911133,-1.163086,-0.1269531,-0.03173828,0.2895508
1459,140.4375,-243.0625,23.375,-0.5566406,-0.4296875,-1.286133,-0.1113281,-0.02197266,0.293457
1463,132.5625,-243.5625,24.125,-0.715332,-0.503418,-1.270996,-0.08642578,-0.008300781,0.300293
1467,128.6875,-253.875,21,-0.8857422,-0.7094727,-1.240234,-0.06396484,0.006347656,0.3041992
1471,143.4375,-261.9375,24.375,-0.9130859,-0.8842773,-1.290039,-0.04589844,0.01269531,0.3032227
1475,159.9375,-264.0625,31.625,-0.8198242,-0.8378906,-1.447754,-0.02001953,0.02880859,0.3017578
1479,161.625,-261.5,35.6875,-0.8237305,-0.7250977,-1.574707,0.006835938,0.04492188,0.2973633
1483,147.4375,-259.0625,31.9375,-0.878418,-0.6083984,-1.58252,0.0234375,0.05517578,0.2919922
1487,118.9375,-252.9375,26.125,-0.9438477,-0.6279297,-1.520996,0.04882813,0.06982422,0.2841797
1491,98.4375,-257.1875,13.0625,-1.195801,-0.8222656,-1.424805,0.07226563,0.07763672,0.2758789
1495,99,-272.75,6.5625,-1.157227,-0.9467773,-1.375,0.09033203,0.08398438,0.2675781
1499,111.6875,-269.375,5.875,-1.133789,-1.121582,-1.259277,0.112793,0.09228516,0.2553711
1503,139.4375,-262.6875,14.875,-1.161133,-1.203125,-1.224609,0.1357422,0.1010742,0.237793
1507,151.8125,-248.25,29.25,-1.165039,-1.040039,-1.251953,0.1508789,0.1064453,0.2241211
1511,137.25,-239.625,24.0625,-1.180664,-0.8300781,-1.248047,0.1689453,0.1186523,0.2080078
1515,110.9375,-243.875,9.5625,-1.315918,-0.7910156,-1.117188,0.1855469,0.125,0.1831055
1519,97.375,-258,-0.6875,-1.397461,-0.9272461,-0.9824219,0.1972656,0.1274414,0.1708984
1523,102.75,-270.0625,-7.9375,-1.296875,-1.008789,-0.8823242,0.2104492,0.1347656,0.1494141
1527,113.1875,-257.1875,6,-1.184082,-1.05127,-0.8208008,0.2246094,0.1376953,0.125
1531,118.75,-232,26.375,-1.141602,-0.9428711,-0.7861328,0.2319336,0.1401367,0.1083984
1536,109.625,-216.9375,23.625,-0.9477539,-0.6977539,-0.809082,0.2426758,0.1435547,0.08544922
1540,94.5,-202.0625,12.625,-1.099121,-0.7368164,-0.6591797,0.25,0.1450195,0.06201172
1544,91.3125,-215.625,-0.1875,-1.133789,-0.7211914,-0.5708008,0.253418,0.1435547,0.04736328
1548,81.1875,-223.375,-5.5625,-1.137695,-0.6396484,-0.59375,0.2583008,0.1474609,0.02392578
1552,67.5,-226.0625,-3.25,-0.9477539,-0.5854492,-0.5629883,0.2602539,0.1474609,0.002441406
1556,60.1875,-203.125,14.25,-0.765625,-0.6821289,-0.4013672,0.2626953,0.1450195,-0.01367188
1560,65.6875,-178.4375,23.5625,-0.699707,-0.7016602,-0.2900391,0.2651367,0.1450195,-0.03271484
1564,66.8125,-158.9375,15.4375,-0.6264648,-0.5927734,-0.3012695,0.2666016,0.1411133,-0.05029297
1568,54.5625,-144.9375,-1.3125,-0.7114258,-0.5151367,-0.2324219,0.2641602,0.1411133,-0.06103516
1572,53,-158.375,-19.875,-0.8237305,-0.6279297,-0.1977539,0.2626953,0.1411133,-0.07617188
1576,59.75,-159.1875,-21.4375,-0.6342773,-0.6318359,-0.1899414,0.2602539,0.1425781,-0.09228516
1580,53.5625,-131,-8.75,-0.362793,-0.4335938,-0.2363281,0.2558594,0.1435547,-0.1035156
1584,36.625,-98.3125,-2.5625,-0.347168,-0.355957,-0.2978516,0.253418,0.1425781,-0.1157227
1588,22.8125,-78.625,-3.3125,-0.3320313,-0.3989258,-0.2822266,0.253418,0.1425781,-0.125
1592,19.0625,-50.3125,0.875,-0.1962891,-0.4296875,-0.2822266,0.2485352,0.1425781,-0.1303711
1596,17.5,-6.75,14.3125,-0.1147461,-0.4296875,-0.3325195,0.2485352,0.1401367,-0.1333008
1600,10.3125,33.5625,26.4375,-0.1499023,-0.3520508,-0.4477539,0.2509766,0.1386719,-0.1333008
1604,-2.1875,56.1875,25.75,-0.2041016,-0.2822266,-0.6821289,0.2509766,0.1362305,-0.1303711
1608,-34.5,65.375,-1,-0.1186523,-0.01025391,-0.9287109,0.2558594,0.1347656,-0.1264648
1612,-82.125,76.75,-28.25,-0.1303711,-0.02587891,-1.028809,0.2558594,0.1386719,-0.1157227
1616,-121.5,102.3125,-36.875,-0.1420898,-0.2006836,-1.051758,0.2568359,0.1411133,-0.1088867
1620,-142.9375,139.875,-31.25,-0.2504883,-0.4257813,-1.036133,0.2558594,0.1489258,-0.09082031
1624,-149.375,186.375,-16.9375,-0.378418,-0.5893555,-1.01709,0.2543945,0.1523438,-0.06933594
1628,-146,225.6875,-8.5,-0.6416016,-0.8027344,-0.9824219,0.2568359,0.1538086,-0.05273438
1632,-130.8125,249.8125,-11.4375,-0.8588867,-0.9775391,-0.9287109,0.2583008,0.15625,-0.02441406
1636,-119,269,-17.4375,-0.9711914,-0.9619141,-0.9248047,0.2543945,0.1577148,0.0009765625
1640,-126.375,291.8125,-12.25,-1.114746,-0.8222656,-0.9863281,0.2509766,0.15625,0.02148438
1644,-153.0625,315.5625,7.5,-1.261719,-0.7016602,-1.078613,0.2436523,0.1547852,0.05273438
1648,-183.0625,327.75,21.875,-1.603027,-0.8457031,-1.094238,0.2353516,0.1499023,0.08691406
1652,-188.375,310.5625,20.875,-1.819824,-1.140625,-1.040039,0.2270508,0.1450195,0.1098633
1656,-166.25,287.6875,13.0625,-1.912598,-1.475098,-0.8979492,0.215332,0.1362305,0.144043
1660,-124.875,272.5625,2.75,-1.703613,-1.45166,-0.8979492,0.2011719,0.1264648,0.1699219
1665,-106.125,298.25,11.6875,-1.490234,-1.195313,-0.9980469,0.1889648,0.1225586,0.1845703
1669,-111.75,325.5,36.75,-1.67627,-0.9892578,-1.15918,0.1699219,0.1152344,0.206543
1673,-128.1875,331.9375,61.1875,-1.738281,-0.8686523,-1.286133,0.1459961,0.1049805,0.2294922
1677,-155.1875,328.125,66.3125,-1.812012,-0.7563477,-1.409668,0.1333008,0.09619141,0.2446289
1681,-176,282,39.1875,-2.056152,-0.9970703,-1.375,0.1079102,0.08007813,0.262207
1685,-169.4375,228.125,12.4375,-1.544922,-0.9931641,-1.232422,0.08691406,0.0625,0.2773438
1689,-163.4375,239.6875,20.625,-1.125977,-1.040039,-1.205566,0.07373047,0.05126953,0.2851563
1693,-142.6875,271.375,29.5,-0.9750977,-1.032227,-1.228516,0.05078125,0.03759766,0.2963867
1697,-125.75,294.875,44.5625,-0.9985352,-0.8881836,-1.328613,0.0234375,0.02148438,0.3032227
1701,-115.6875,303.1875,61.75,-0.9790039,-0.7641602,-1.432617,0.004394531,0.01367188,0.3056641
1705,-121.75,291.5625,50.75,-0.8393555,-0.5073242,-1.478516,-0.0234375,0.00390625,0.3071289
1709,-137.3125,270.5625,13.375,-0.6572266,-0.4804688,-1.509277,-0.05322266,-0.01074219,0.3056641
1713,-145.75,267.4375,-13.5625,-0.4594727,-0.5424805,-1.478516,-0.06982422,-0.01708984,0.3041992
1717,-142.125,278.0625,-9.9375,-0.4555664,-0.6240234,-1.509277,-0.09716797,-0.03320313,0.2988281
1721,-132.6875,291.1875,4.375,-0.3974609,-0.5620117,-1.505859,-0.1220703,-0.046875,0.2880859
1725,-133,312.3125,14.8125,-0.3588867,-0.3134766,-1.51709,-0.1411133,-0.0546875,0.2827148
1729,-165.375,308,7.875,-0.5913086,-0.002441406,-1.571289,-0.1708984,-0.06835938,0.2651367
1733,-219.25,279.5,-23.125,-0.7348633,0.07080078,-1.371094,-0.1948242,-0.08300781,0.2485352
1737,-248.4375,217.4375,-56.3125,-0.9633789,-0.3520508,-0.878418,-0.2089844,-0.09814453,0.2363281
1741,-216.6875,176.625,-40.75,-0.8510742,-0.9931641,-0.1245117,-0.222168,-0.1206055,0.2158203
1745,-117.4375,159.3125,15,-0.746582,-1.397461,0.3364258,-0.234375,-0.1342773,0.2021484
1749,-4.6875,142.25,57.5625,-0.5683594,-1.148438,0.3481445,-0.2412109,-0.1367188,0.1953125
1753,57.8125,117.625,52.25,-0.2387695,-0.4296875,0.08642578,-0.2519531,-0.1308594,0.1831055
1757,57.4375,84,18,-0.1459961,0.1484375,-0.1474609,-0.2592773,-0.1245117,0.1762695
1761,23.0625,47.0625,-25.3125,-0.08789063,0.4243164,-0.2128906,-0.2626953,-0.1220703,0.175293
1765,-7.625,23.1875,-22.1875,-0.1845703,0.1640625,-0.1630859,-0.2651367,-0.1220703,0.1699219
1769,-1.875,11.9375,6.8125,-0.04492188,-0.04882813,-0.04003906,-0.2636719,-0.1245117,0.1699219
1773,14.9375,11.8125,34.875,0.1015625,-0.1191406,-0.06689453,-0.2651367,-0.1254883,0.1708984
1777,23.4375,5.375,42.5,0.09033203,-0.1074219,-0.07470703,-0.2661133,-0.1196289,0.1708984
1781,25.9375,-13.625,29.25,-0.02587891,-0.1811523,-0.07861328,-0.2685547,-0.1142578,0.1699219
1785,34.75,-44.1875,9.5625,-0.08007813,-0.2900391,-0.06689453,-0.2685547,-0.1118164,0.168457
1789,56.1875,-66,2.0625,-0.01025391,-0.3134766,-0.1015625,-0.2651367,-0.1083984,0.1762695
1794,69.125,-81.1875,4.375,-0.1264648,-0.2509766,-0.1860352,-0.2602539,-0.1054688,0.1831055
1798,78.25,-113.0625,2.9375,-0.1806641,-0.2587891,-0.309082,-0.2568359,-0.1005859,0.1875
1802,89,-132.125,4.75,-0.1030273,-0.2939453,-0.4130859,-0.2509766,-0.09570313,0.199707
1806,95.8125,-142.125,9.375,-0.1689453,-0.3754883,-0.4975586,-0.237793,-0.09082031,0.2089844
1810,119.8125,-167.75,3.625,-0.04882813,-0.3989258,-0.6899414,-0.2329102,-0.08300781,0.2202148
1814,134.125,-172.1875,6.6875,0.004882813,-0.4179688,-0.840332,-0.2211914,-0.07421875,0.230957
1818,151.125,-177.5625,7.5625,-0.01025391,-0.4414063,-0.9633789,-0.206543,-0.06298828,0.2431641
1822,147.6875,-177.1875,11.625,-0.2119141,-0.3481445,-1.013184,-0.1962891,-0.05322266,0.25
1826,142.5625,-201.125,8.25,-0.4287109,-0.4453125,-1.074707,-0.1831055,-0.04052734,0.262207
1830,164,-239.8125,8.875,-0.262207,-0.565918,-1.259277,-0.1640625,-0.02587891,0.2714844
1834,181.8125,-241.8125,12.625,0.01269531,-0.4492188,-1.390137,-0.1494141,-0.01464844,0.2797852
1838,157.8125,-198.6875,30,0.04736328,-0.2705078,-1.340332,-0.128418,0.001464844,0.2841797
1842,104.875,-154.125,32.25,-0.2583008,-0.1499023,-1.147949,-0.109375,0.01513672,0.2910156
1846,56.9375,-165.1875,22.25,-0.9829102,-0.3520508,-0.9863281,-0.09960938,0.02246094,0.2895508
1850,53.6875,-226.9375,11.9375,-1.296875,-0.8105469,-0.8823242,-0.08300781,0.02880859,0.2973633
1854,101.0625,-280.375,0,-0.9477539,-1.05127,-0.9980469,-0.05664063,0.03613281,0.2973633
1858,136.75,-257.25,10.3125,-0.7231445,-0.9467773,-1.086426,-0.04003906,0.04150391,0.2973633
1862,140.0625,-228.0625,21.375,-0.878418,-0.7172852,-1.232422,-0.01513672,0.05615234,0.293457
1866,116.4375,-232,14.5,-1.165039,-0.581543,-1.290039,0.006835938,0.06884766,0.2910156
1870,90.1875,-258.6875,0.75,-1.273438,-0.5966797,-1.351563,0.0234375,0.07617188,0.2880859
1874,71.875,-280.875,-10.625,-1.261719,-0.7524414,-1.282715,0.04736328,0.08251953,0.2773438
1878,78.0625,-296,-18,-1.230957,-1.004883,-1.20166,0.07373047,0.09130859,0.2705078
1882,109.0625,-301.5,-14.9375,-1.095215,-1.129395,-1.205566,0.09130859,0.09619141,0.262207
1886,136.8125,-282.25,-1.1875,-1.037109,-1.11377,-1.248047,0.1142578,0.1049805,0.2460938
1890,146.375,-255.4375,14.875,-1.037109,-0.9736328,-1.26709,0.1357422,0.1162109,0.2270508
1894,137,-243.4375,26.6875,-1.223145,-0.8183594,-1.228516,0.1484375,0.1210938,0.2158203
1898,119.9375,-260.75,21.8125,-1.370117,-0.7792969,-1.19043,0.1650391,0.1289063,0.1953125
1902,104.6875,-288.9375,5.125,-1.389648,-0.8574219,-1.155762,0.1865234,0.1362305,0.175293
1906,94.6875,-308.4375,-11,-1.25,-0.9428711,-1.109375,0.1962891,0.1401367,0.1586914
1910,95.0625,-298.0625,-12.875,-1.106934,-1.040039,-0.9672852,0.2128906,0.1450195,0.1357422
1914,105.0625,-266.375,-0.6875,-0.9907227,-1.016602,-0.7822266,0.2246094,0.1499023,0.1069336
1918,105.5625,-236.9375,10.0625,-1.172852,-0.9697266,-0.7094727,0.230957,0.1513672,0.09228516
1923,102.5625,-230.1875,10.25,-1.211426,-0.9350586,-0.6323242,0.2402344,0.1523438,0.06494141
1927,100.5,-232.1875,5.9375,-1.20752,-0.9194336,-0.5898438,0.2475586,0.1547852,0.04296875
1931,101.75,-232.5,-2.4375,-1.184082,-0.9467773,-0.4516602,0.25,0.1547852,0.02685547
1935,117.0625,-233.625,1.8125,-1.021484,-0.9428711,-0.5053711,0.2519531,0.15625,0.002441406
1939,119.3125,-209.875,14.9375,-0.6728516,-0.7329102,-0.5976563,0.2558594,0.1547852,-0.02294922
1943,99.1875,-164.0625,20.8125,-0.4985352,-0.5698242,-0.5708008,0.2568359,0.1577148,-0.03662109
1947,82.1875,-140.1875,20.3125,-0.6884766,-0.6318359,-0.6054688,0.2568359,0.1513672,-0.05712891
1951,67.125,-127.625,13.1875,-0.6728516,-0.6123047,-0.4208984,0.2568359,0.1499023,-0.07080078
1955,60.8125,-128.6875,-2.625,-0.6264648,-0.5927734,-0.4052734,0.2568359,0.1489258,-0.07861328
1959,55.375,-119.75,-13.1875,-0.6303711,-0.6474609,-0.2744141,0.2558594,0.1474609,-0.09375
1963,61.1875,-111.8125,-14.625,-0.5024414,-0.6162109,-0.3286133,0.2509766,0.1489258,-0.1074219
1967,61.4375,-91.125,-6.125,-0.2851563,-0.453125,-0.4516602,0.25,0.1474609,-0.1142578
1971,46.8125,-53.1875,0,-0.08007813,-0.2666016,-0.5439453,0.2485352,0.1459961,-0.1235352
1975,19.0625,-12.75,-0.25,0.004882813,-0.1499023,-0.6132813,0.2475586,0.1459961,-0.1318359
1979,-13.0625,27.375,-1.375,-0.02587891,-0.1655273,-0.6821289,0.2460938,0.1450195,-0.1289063
1983,-36.75,53.6875,-1,-0.08789063,-0.2124023,-0.809082,0.2475586,0.1450195,-0.125
1987,-59.0625,77.3125,-5.8125,-0.07617188,-0.2314453,-0.9130859,0.25,0.1489258,-0.1196289
1991,-85.5,106.5625,-19.0625,-0.04492188,-0.2666016,-0.9785156,0.25,0.1474609,-0.112793
1995,-110.375,143.375,-25.75,-0.1459961,-0.371582,-1.013184,0.25,0.1523438,-0.09521484
1999,-128,181.9375,-23.5,-0.3007813,-0.4804688,-1.01709,0.25,0.1577148,-0.07617188
2003,-138.3125,213.5625,-17.9375,-0.5449219,-0.6357422,-0.9941406,0.2519531,0.1601563,-0.05859375
2007,-140.3125,235.6875,-16.3125,-0.7231445,-0.7563477,-0.9707031,0.2509766,0.1611328,-0.03369141
2011,-141.875,256.5625,-16.25,-0.878418,-0.8183594,-0.9707031,0.2485352,0.1625977,-0.006835938
2015,-146.875,271.9375,-15,-1.044922,-0.8457031,-0.9785156,0.2460938,0.1635742,0.01318359
2019,-159.5625,284.875,-10,-1.253906,-0.8959961,-0.9902344,0.2426758,0.1650391,0.04199219
2023,-172.4375,280.125,-12.3125,-1.389648,-0.9853516,-0.9980469,0.2319336,0.1611328,0.07324219
2027,-183.1875,284,-8.0625,-1.397461,-1.140625,-0.9633789,0.2270508,0.1577148,0.09472656
2031,-175.5625,297.375,6.875,-1.393555,-1.26123,-0.9672852,0.2128906,0.1513672,0.125
2035,-163.75,332.5,28.5,-1.370117,-1.253418,-1.013184,0.1987305,0.1435547,0.15625
2039,-147.1875,354,41.125,-1.687988,-1.265137,-1.117188,0.1879883,0.1347656,0.1762695
2043,-124.9375,328.125,33.375,-1.95166,-1.389648,-1.147949,0.1665039,0.1225586,0.2036133
2047,-104.4375,298.5625,16.0625,-1.599121,-1.109863,-1.178711,0.144043,0.1152344,0.2255859
2052,-114.5,310.6875,18.5625,-1.490234,-0.9970703,-1.274902,0.1293945,0.1088867,0.2392578
2056,-128.5625,318.1875,29.5625,-1.541016,-0.9155273,-1.340332,0.1044922,0.09765625,0.2539063
2060,-148,318.5,38.1875,-1.479004,-0.8222656,-1.378906,0.07861328,0.08642578,0.269043
2064,-162.9375,308.8125,40.9375,-1.583496,-0.9077148,-1.359375,0.06054688,0.07519531,0.2797852
2068,-150.75,270.625,33.8125,-1.54834,-1.11377,-1.221191,0.03417969,0.05859375,0.2895508
2072,-116.5,248,16.9375,-1.106934,-1.144531,-1.090332,0.008300781,0.04736328,0.2973633
2076,-83.5,249.9375,8.625,-0.746582,-0.9350586,-1.182617,-0.006835938,0.04003906,0.300293
2080,-76.8125,257.8125,-2.0625,-0.6030273,-0.6123047,-1.375,-0.03076172,0.03125,0.3017578
2084,-104.4375,267.3125,-12.0625,-0.6225586,-0.3950195,-1.509277,-0.05664063,0.02392578,0.3017578
2088,-129.1875,256.1875,-6.6875,-0.5834961,-0.3481445,-1.586426,-0.07470703,0.01611328,0.2973633
2092,-147.875,258.6875,1.875,-0.3666992,-0.340332,-1.58252,-0.09716797,0.002441406,0.2963867
2096,-160.625,274.0625,6.5625,-0.1806641,-0.3286133,-1.628906,-0.1245117,-0.01171875,0.2895508
2100,-175.25,299,12.3125,-0.2700195,-0.4492188,-1.670898,-0.1411133,-0.02050781,0.2827148
2104,-184.875,307.75,6.625,-0.2851563,-0.3364258,-1.63623,-0.1674805,-0.03710938,0.2705078
2108,-208.75,317.6875,7.9375,-0.4208984,-0.2548828,-1.498047,-0.1948242,-0.0546875,0.2553711
2112,-218.75,314.1875,24,-0.746582,-0.4804688,-1.15918,-0.2104492,-0.06591797,0.2392578
2116,-189.875,259.0625,28.9375,-1.087402,-0.8027344,-0.59375,-0.234375,-0.08056641,0.2158203
2120,-122.6875,188.1875,27.25,-0.8666992,-1.129395,-0.01318359,-0.2495117,-0.09082031,0.1967773
2124,-33.125,151.3125,20.125,-0.4052734,-1.160156,0.2211914,-0.2578125,-0.09326172,0.1875
2128,48,132.5625,19.5,-0.2080078,-0.8842773,0.1020508,-0.2661133,-0.09082031,0.175293
2132,80.8125,118.1875,18.3125,-0.2348633,-0.2861328,-0.1591797,-0.2744141,-0.08544922,0.1655273
2136,64.8125,88.3125,4.375,-0.1845703,0.3544922,-0.4282227,-0.2792969,-0.08056641,0.1616211
2140,8,58,-7,-0.2080078,0.6923828,-0.3974609,-0.2827148,-0.07958984,0.1533203
2144,-35,26.125,1.6875,-0.1264648,0.2070313,-0.3051758,-0.2851563,-0.078125,0.1508789
2148,-43.9375,18.5,12,0.07470703,-0.1191406,-0.1054688,-0.2866211,-0.08056641,0.1508789
2152,-28.4375,4.25,17.6875,0.004882813,-0.5424805,0.005859375,-0.2890625,-0.08203125,0.1494141
2156,1.8125,-13.0625,7.5625,0.1870117,-0.387207,0.05175781,-0.2875977,-0.08203125,0.1479492
2160,27.625,-28.5625,2.25,0.08642578,-0.371582,-0.01318359,-0.2890625,-0.08056641,0.1479492
2164,37.8125,-48.875,1.25,-0.03710938,-0.2822266,-0.109375,-0.2851563,-0.078125,0.1533203
2168,38.125,-68.3125,-2,-0.09130859,-0.2509766,-0.1166992,-0.2827148,-0.07714844,0.1572266
2172,50.75,-92.625,-6.6875,0.0009765625,-0.3056641,-0.2324219,-0.2792969,-0.07421875,0.1616211
2176,60.6875,-101.0625,-2.875,0.03173828,-0.3017578,-0.2939453,-0.2758789,-0.07324219,0.1708984
2181,65.0625,-112.375,2.375,-0.1572266,-0.3364258,-0.3208008,-0.2685547,-0.06835938,0.1791992
2185,73.3125,-137.8125,0.25,-0.4521484,-0.4140625,-0.2514648,-0.2636719,-0.06591797,0.1860352
2189,93.3125,-179.125,-0.3125,-0.6416016,-0.5541992,-0.3168945,-0.2543945,-0.06054688,0.1982422
2193,131.6875,-218.5,-1.75,-0.4443359,-0.5620117,-0.5131836,-0.2412109,-0.05322266,0.2133789
2197,149.25,-219.375,5.8125,-0.246582,-0.4609375,-0.7363281,-0.2294922,-0.04589844,0.2270508
2201,138.75,-213.8125,10.875,-0.5141602,-0.3364258,-0.9633789,-0.2128906,-0.03320313,0.237793
2205,121.5,-244.9375,22.625,-0.8432617,-0.371582,-1.063477,-0.1962891,-0.02197266,0.25
2209,112.625,-275.4375,23.625,-0.6416016,-0.421875,-1.063477,-0.1806641,-0.01464844,0.2592773
2213,113.25,-275.3125,21.5,-0.328125,-0.4765625,-1.174805,-0.1557617,-0.001953125,0.2729492
2217,113.6875,-260.25,6.375,-0.3666992,-0.4960938,-1.30957,-0.1318359,0.007324219,0.2841797
2221,101.75,-257.25,3.375,-0.6806641,-0.5307617,-1.471191,-0.1152344,0.01513672,0.2866211
2225,82.5625,-261.8125,-2.9375,-0.8706055,-0.5893555,-1.447754,-0.09033203,0.02392578,0.2963867
2229,72.875,-275.875,-5.5625,-1.021484,-0.7055664,-1.375,-0.06494141,0.03027344,0.2988281
2233,86.5625,-291.1875,-7.5625,-0.9711914,-0.8803711,-1.363281,-0.04833984,0.03515625,0.300293
2237,110,-292.6875,-6.375,-0.9946289,-0.9619141,-1.44043,-0.01855469,0.04638672,0.2973633
2241,126.9375,-290.625,-5.5,-1.246094,-1.000977,-1.543945,0.009277344,0.05517578,0.293457
2245,134.25,-295.3125,-2.3125,-1.432129,-1.004883,-1.617188,0.02587891,0.06396484,0.2919922
2249,141.3125,-303.25,1.3125,-1.571777,-1.05127,-1.567383,0.0546875,0.07617188,0.2783203
2253,147.9375,-317.9375,6.625,-1.641602,-1.066895,-1.563477,0.08056641,0.08984375,0.269043
2257,145.5,-321.6875,3.8125,-1.443848,-1.040039,-1.590332,0.1020508,0.1000977,0.2553711
2261,141.8125,-318.4375,-3.5,-1.494141,-1.171875,-1.555664,0.1269531,0.1088867,0.237793
2265,149.9375,-318.4375,-14,-1.416992,-1.241699,-1.555664,0.1523438,0.1210938,0.2143555
2269,158,-306.375,-13.125,-1.339355,-1.241699,-1.509277,0.1650391,0.1298828,0.1982422
2273,168.1875,-294.1875,6.375,-1.393555,-1.245605,-1.420898,0.1855469,0.1386719,0.1723633
2277,174.375,-287.625,18.3125,-1.296875,-1.078613,-1.420898,0.199707,0.1450195,0.144043
2281,157.1875,-272.5625,18.0625,-1.137695,-0.8842773,-1.413086,0.2119141,0.1499023,0.1235352
2285,136.0625,-256.1875,9.125,-1.168945,-0.8881836,-1.251953,0.2246094,0.15625,0.09765625
2289,120.125,-265.0625,-6.0625,-1.319824,-0.8764648,-1.128418,0.2319336,0.1586914,0.0703125
2293,113,-275.6875,-15.75,-1.11084,-0.8647461,-1.01709,0.237793,0.1625977,0.05419922
2297,112.6875,-266.875,-5.5625,-0.9555664,-0.8613281,-0.9130859,0.2451172,0.1635742,0.02832031
2301,102.5625,-243.5,1.875,-0.5527344,-0.5966797,-0.9326172,0.2475586,0.1674805,-0.001464844
2305,76.3125,-210.375,-11.5625,-0.6650391,-0.5463867,-0.7441406,0.25,0.1660156,-0.01464844
2310,60.8125,-212.625,-18.875,-0.7504883,-0.6513672,-0.5825195,0.2475586,0.1674805,-0.03369141
2314,67.4375,-205.125,-20.8125,-0.5527344,-0.8457031,-0.34375,0.2460938,0.1689453,-0.05712891
2318,101.8125,-176.875,-9.25,-0.3007813,-0.8920898,-0.2514648,0.2436523,0.1689453,-0.06933594
2322,124.8125,-126.75,16.9375,-0.08789063,-0.6630859,-0.34375,0.2412109,0.1660156,-0.08984375
2326,113.4375,-80.25,30.6875,-0.09521484,-0.2783203,-0.4936523,0.2412109,0.1611328,-0.105957
2330,72.6875,-66.9375,24,-0.2270508,-0.06835938,-0.6015625,0.2436523,0.1577148,-0.1157227
2334,28.625,-63.0625,10.1875,-0.1845703,-0.1074219,-0.5786133,0.2426758,0.1538086,-0.1225586
2338,7.0625,-48.75,0.5625,-0.02587891,-0.2744141,-0.5170898,0.2402344,0.1538086,-0.1279297
2342,-0.9375,-15.625,2.6875,0.1054688,-0.3095703,-0.5517578,0.2392578,0.1538086,-0.1289063
2346,-18.5625,29.5,12.125,0.1674805,-0.1616211,-0.6899414,0.2412109,0.1547852,-0.1264648
2350,-46.6875,71.5625,25.0625,0.09765625,-0.1269531,-0.7900391,0.2426758,0.1523438,-0.125
2354,-72.6875,107,32.875,0.01660156,-0.1850586,-0.8632813,0.2451172,0.1538086,-0.1181641
2358,-91.125,131.9375,26.625,-0.1264648,-0.3325195,-0.9326172,0.25,0.1523438,-0.1044922
2362,-105.375,145.1875,1.6875,-0.2192383,-0.402832,-0.9707031,0.2519531,0.1538086,-0.08837891
2366,-120.5625,160.5,-20.375,-0.3085938,-0.4804688,-1.024902,0.253418,0.1523438,-0.07324219
2370,-140.9375,184.375,-28.1875,-0.4091797,-0.5229492,-1.086426,0.253418,0.1601563,-0.05273438
2374,-163.875,216.25,-22.5,-0.5605469,-0.6357422,-1.125,0.2519531,0.1625977,-0.02734375
2378,-176.375,239.75,-18,-0.7890625,-0.8686523,-1.094238,0.2509766,0.1625977,-0.009277344
2382,-171.25,257.4375,-21.125,-0.9287109,-1.070801,-1.01709,0.2475586,0.1635742,0.01855469
2386,-155.375,272.125,-23.0625,-1.125977,-1.179688,-0.9785156,0.2392578,0.1625977,0.04882813
2390,-142.125,279.875,-22.875,-1.32373,-1.117676,-0.9980469,0.2329102,0.1601563,0.07177734
2394,-152.0625,274.4375,-26.0625,-1.537109,-0.9580078,-1.05957,0.2211914,0.1586914,0.09912109
2398,-176.375,265.5,-23.125,-1.633789,-0.9541016,-1.036133,0.2080078,0.1538086,0.1259766
2402,-195.3125,265.5625,-7.25,-1.649414,-1.016602,-1.001465,0.199707,0.1499023,0.1450195
2406,-200.3125,263.0625,9.3125,-1.885742,-1.237793,-0.9360352,0.1879883,0.1386719,0.1723633
2410,-183,231.4375,0.3125,-1.95166,-1.374023,-0.7939453,0.1713867,0.1264648,0.1967773
2414,-159.625,214.625,2.6875,-1.79248,-1.436035,-0.6552734,0.1591797,0.1176758,0.2119141
2418,-135.9375,218.5625,14.3125,-1.571777,-1.358398,-0.6015625,0.144043,0.1074219,0.2280273
2422,-121.1875,226.25,32.5625,-1.571777,-1.21875,-0.6630859,0.1259766,0.09521484,0.2470703
2426,-118,223.1875,48.5,-1.471191,-1.016602,-0.7514648,0.1152344,0.08886719,0.2539063
2430,-126.5625,218.0625,58.125,-1.405273,-0.9970703,-0.8017578,0.09765625,0.07763672,0.2675781
2434,-121.9375,192.5,37.5,-1.265625,-0.9580078,-0.7783203,0.08300781,0.06396484,0.2783203
2439,-104.8125,163.9375,16.125,-0.9985352,-1.020508,-0.7978516,0.06982422,0.05517578,0.2827148
2443,-79.0625,168.875,13.8125,-0.6611328,-0.9658203,-0.8208008,0.05712891,0.04492188,0.2895508
2447,-47.6875,190.625,22.875,-0.4013672,-0.8496094,-1.001465,0.04150391,0.03857422,0.2949219
2451,-29.6875,218.0625,34.4375,-0.3974609,-0.5620117,-1.221191,0.02832031,0.03515625,0.2988281
2455,-47.75,231.25,39.375,-0.378418,-0.1733398,-1.401855,0.006835938,0.03125,0.300293
2459,-94.5,231.375,32.8125,-0.4248047,-0.05273438,-1.509277,-0.01416016,0.02636719,0.3032227
2463,-130.9375,224.125,27.5,-0.4985352,-0.2241211,-1.475098,-0.02929688,0.01855469,0.3041992
2467,-138.1875,212.875,20.1875,-0.262207,-0.3598633,-1.459473,-0.04980469,0.007324219,0.3032227
2471,-139.875,240.8125,26.0625,-0.1069336,-0.4609375,-1.482422,-0.07226563,-0.006835938,0.300293
2475,-138.3125,268.6875,38.0625,-0.2119141,-0.4570313,-1.513184,-0.08789063,-0.01464844,0.2988281
2479,-158.1875,282.75,42.5625,-0.4946289,-0.3056641,-1.45166,-0.1162109,-0.02929688,0.2919922
2483,-171.3125,258.875,41,-0.7578125,-0.4960938,-1.251953,-0.1401367,-0.04199219,0.2841797
2487,-154.5625,214.1875,25.375,-0.5834961,-0.6123047,-1.036133,-0.1557617,-0.05078125,0.2758789
2491,-123.375,195.9375,15.25,-0.3164063,-0.7329102,-0.9169922,-0.1733398,-0.06201172,0.2651367
2495,-89.875,190.4375,14.0625,-0.1884766,-0.6240234,-0.8745117,-0.1899414,-0.07177734,0.2553711
2499,-69.375,180.875,10.875,-0.05273438,-0.4335938,-0.8710938,-0.199707,-0.07714844,0.2460938
2503,-66.1875,174.0625,-0.3125,-0.03710938,-0.1499023,-0.824707,-0.2163086,-0.08056641,0.2333984
2507,-78.125,156.6875,-7.5,-0.262207,-0.05664063,-0.7207031,-0.2270508,-0.08837891,0.2211914
2511,-79.625,114.0625,-9.4375,-0.347168,-0.1499023,-0.574707,-0.234375,-0.09082031,0.2158203
2515,-56.6875,88.1875,-2,-0.1108398,-0.387207,-0.394043,-0.2402344,-0.09814453,0.2050781
2519,-15.75,83.125,11.875,0.05126953,-0.4921875,-0.3012695,-0.2470703,-0.09960938,0.1982422
2523,25.6875,79.75,19.3125,0.07861328,-0.324707,-0.2978516,-0.2519531,-0.09960938,0.1953125
2527,34.375,78.5,14.3125,0.07080078,0.05908203,-0.4282227,-0.2568359,-0.09570313,0.1889648
2531,5.375,55.3125,3.6875,-0.1264648,0.3081055,-0.4746094,-0.2602539,-0.09179688,0.1845703
2535,-21.75,14.25,-9,-0.1069336,0.1367188,-0.3632813,-0.2636719,-0.09326172,0.1831055
2539,-30.1875,-1.625,-4.625,0.05126953,-0.07226563,-0.2207031,-0.2636719,-0.09570313,0.1821289
2543,-15.6875,-10.5,10.5,0.02832031,-0.3598633,-0.05517578,-0.2636719,-0.09716797,0.1845703
2547,8.625,-23.0625,13.6875,0.02050781,-0.1772461,0.08642578,-0.2636719,-0.09570313,0.1831055
2551,35.4375,-44.3125,16.5625,-0.04882813,-0.4804688,0.04443359,-0.2617188,-0.09423828,0.1831055
2555,56,-60,12.6875,-0.006347656,-0.453125,-0.04394531,-0.2578125,-0.08935547,0.1899414
2559,67.4375,-78,10.5625,-0.1689453,-0.484375,-0.05908203,-0.2543945,-0.08544922,0.1914063
2563,83.5,-104.125,8.875,-0.328125,-0.581543,-0.07080078,-0.2509766,-0.07958984,0.199707
2568,105.4375,-135.125,6.5,-0.4052734,-0.6396484,-0.1513672,-0.2426758,-0.07324219,0.2089844
2572,131.0625,-161.5,4.1875,-0.2851563,-0.5776367,-0.3325195,-0.234375,-0.06835938,0.2158203
2576,138.3125,-173.4375,7,-0.3974609,-0.5385742,-0.4516602,-0.2236328,-0.05712891,0.2294922
2580,140.125,-195.5,7.5625,-0.5913086,-0.5620117,-0.5244141,-0.2089844,-0.04589844,0.2416992
2584,139,-215,11.875,-0.6650391,-0.6552734,-0.6015625,-0.1982422,-0.03808594,0.2514648
2588,152.875,-236.375,12.6875,-0.6030273,-0.6899414,-0.7783203,-0.1782227,-0.02587891,0.2592773
2592,167.75,-242.75,22.125,-0.5488281,-0.7290039,-0.9516602,-0.1591797,-0.009277344,0.2714844
2596,181,-236.4375,32.875,-0.6069336,-0.7290039,-1.05957,-0.1450195,0.002441406,0.2797852
2600,170.6875,-233.8125,40.4375,-0.8125,-0.6201172,-1.186523,-0.1210938,0.02001953,0.2851563
2604,151.875,-253.625,33.1875,-1.041016,-0.5893555,-1.259277,-0.09863281,0.03759766,0.2880859
2608,146.6875,-288.5,23.5625,-0.9711914,-0.6821289,-1.413086,-0.08203125,0.04638672,0.2910156
2612,144.5625,-298,19.5,-0.831543,-0.6669922,-1.498047,-0.05419922,0.06103516,0.2910156
2616,133.5,-292.5,25.1875,-0.8510742,-0.6821289,-1.609375,-0.02490234,0.07519531,0.2880859
2620,113.0625,-267.0625,32.4375,-0.8935547,-0.7133789,-1.505859,-0.006835938,0.08251953,0.2866211
2624,99.25,-265,40.0625,-1.187988,-0.8417969,-1.447754,0.01904297,0.09375,0.2797852
2628,102.9375,-279.375,37.9375,-1.292969,-1.000977,-1.371094,0.04638672,0.1010742,0.2729492
2632,116.625,-290.875,32.4375,-1.223145,-1.062988,-1.348145,0.06298828,0.1064453,0.2651367
2636,126.625,-289.25,33.5625,-1.199707,-1.016602,-1.405762,0.08886719,0.1162109,0.25
2640,122.5,-275.875,32.3125,-1.044922,-0.9350586,-1.359375,0.112793,0.1235352,0.2348633
2644,122.375,-265.25,26.875,-1.075684,-0.9311523,-1.301758,0.1293945,0.1274414,0.2226563
2648,127.3125,-269.5625,12.75,-1.273438,-1.024414,-1.209473,0.1508789,0.1362305,0.2021484
2652,138.8125,-282,-3.5,-1.385742,-1.125488,-1.19043,0.1699219,0.1435547,0.1806641
2656,152.125,-287.75,-10.8125,-1.358887,-1.117676,-1.193848,0.1796875,0.1523438,0.1640625
2660,154.125,-262.9375,10.75,-1.063965,-0.9814453,-1.147949,0.1962891,0.15625,0.1381836
2664,145.75,-216.25,38.8125,-0.8857422,-0.8881836,-1.020996,0.2070313,0.1625977,0.1123047
2668,139.375,-190.5625,59.125,-1.106934,-0.9077148,-0.9555664,0.2163086,0.1650391,0.09912109
2672,122,-200.5625,46.4375,-1.269531,-0.8803711,-0.894043,0.2260742,0.1674805,0.07714844
2676,108.3125,-235.8125,12.375,-1.343262,-0.9814453,-0.84375,0.2329102,0.1650391,0.05273438
2680,101.0625,-251.5,-0.9375,-1.11084,-1.020508,-0.7207031,0.2368164,0.1674805,0.03515625
2684,89.875,-226.125,11.375,-0.878418,-0.9892578,-0.5014648,0.2412109,0.1689453,0.01074219
2688,83.1875,-200.3125,23.3125,-0.9326172,-1.008789,-0.324707,0.2451172,0.1650391,-0.008300781
2692,79,-203.75,11.375,-1.230957,-1.090332,-0.1362305,0.2475586,0.1660156,-0.02294922
2697,75.0625,-244.4375,-17.8125,-1.467285,-1.024414,-0.04394531,0.2475586,0.1635742,-0.04492188
2701,77.5,-292.75,-40.375,-1.351074,-1.11377,0.03271484,0.2426758,0.1674805,-0.06787109
2705,96.1875,-287.9375,-16.1875,-0.8896484,-1.253418,0.1904297,0.237793,0.1660156,-0.08691406
2709,137.9375,-243.9375,36.6875,-0.6264648,-1.226563,0.1865234,0.2329102,0.1650391,-0.112793
2713,150.6875,-192,65.9375,-0.4052734,-0.8066406,0.09423828,0.230957,0.1577148,-0.1401367
2717,137.5625,-163.25,64.5,-0.5253906,-0.6474609,-0.03222656,0.2285156,0.1489258,-0.15625
2721,116.8125,-160.5625,34.0625,-0.362793,-0.4492188,-0.2128906,0.2285156,0.1401367,-0.1738281
2725,98.25,-141.875,17.375,-0.1342773,-0.3950195,-0.378418,0.2211914,0.1323242,-0.1918945
2729,82.375,-104.6875,17.1875,0.04345703,-0.3056641,-0.5551758,0.2177734,0.1274414,-0.2026367
2733,58.1875,-61.125,22.0625,0.1713867,-0.1616211,-0.7363281,0.2138672,0.1225586,-0.2119141
2737,16.9375,-16.5625,21.125,0.3227539,0.03222656,-0.8901367,0.2128906,0.1186523,-0.21875
2741,-26.6875,35.1875,17.6875,0.4038086,-0.01806641,-0.9707031,0.2138672,0.1162109,-0.21875
2745,-54.9375,87.375,14.375,0.3071289,-0.2202148,-1.001465,0.2163086,0.1186523,-0.2109375
2749,-66.5625,130.25,7.5625,0.1870117,-0.3286133,-1.013184,0.2236328,0.1201172,-0.2041016
2753,-80,167.9375,-4.8125,0.05126953,-0.3208008,-1.047852,0.2285156,0.1235352,-0.1928711
2757,-103.6875,197,-22.5625,-0.1420898,-0.324707,-1.066895,0.2368164,0.1298828,-0.175293
2761,-131,217.8125,-38.5,-0.4130859,-0.4257813,-1.074707,0.2402344,0.1347656,-0.1523438
2765,-158.9375,219.0625,-61.625,-0.6923828,-0.5307617,-1.036133,0.2460938,0.1411133,-0.137207
2769,-183.875,223.5625,-70,-0.765625,-0.6938477,-0.9438477,0.2460938,0.1499023,-0.1098633
2773,-196.0625,249.0625,-54.875,-0.8588867,-0.9311523,-0.8364258,0.2485352,0.1611328,-0.08007813
2777,-185.4375,274.3125,-36.6875,-1.075684,-1.167969,-0.7553711,0.2451172,0.1625977,-0.05712891
2781,-174.3125,293.4375,-26.8125,-1.230957,-1.094238,-0.7670898,0.2436523,0.1713867,-0.02441406
2785,-194.625,298.5,-31.4375,-1.595215,-0.8999023,-0.7475586,0.2392578,0.1699219,0.01074219
2789,-235,274.125,-34.375,-2.160645,-1.26123,-0.3823242,0.2353516,0.1699219,0.03076172
2793,-231.5625,230.4375,-29.375,-2.145508,-1.731445,-0.01660156,0.2270508,0.1699219,0.06494141
2797,-196.0625,226.5,-11.3125,-1.75,-1.669434,-0.03222656,0.21875,0.1650391,0.09472656
2801,-172.8125,246.375,4.4375,-1.436035,-1.37793,-0.3632813,0.2138672,0.1601563,0.1137695
2805,-159.1875,285.25,22.125,-1.32373,-1.207031,-0.6708984,0.199707,0.1513672,0.1425781
2809,-142.25,319.625,43.625,-1.331543,-1.090332,-0.9399414,0.1855469,0.1425781,0.168457
2813,-147.1875,360.5625,69.1875,-1.315918,-0.8725586,-1.186523,0.1738281,0.1337891,0.1889648
2817,-169.1875,383.125,81,-1.556152,-0.7832031,-1.375,0.1533203,0.1201172,0.2158203
2821,-184.5625,356.5,74.5,-1.773438,-0.8496094,-1.478516,0.1269531,0.1049805,0.2416992
2826,-186.9375,321.125,57.25,-1.331543,-0.8339844,-1.455566,0.112793,0.09130859,0.2539063
2830,-184.5625,324.25,46.5625,-1.009766,-0.8881836,-1.532715,0.08544922,0.07373047,0.2758789
2834,-172,339.4375,48.3125,-1.005859,-0.8920898,-1.590332,0.05712891,0.05517578,0.2851563
2838,-168.875,335.75,49.4375,-1.20752,-0.7680664,-1.655762,0.03662109,0.04394531,0.2949219
2842,-179.9375,316.25,51.4375,-1.211426,-0.7094727,-1.621094,0.005859375,0.02636719,0.300293
2846,-184.25,296.0625,51.25,-1.11084,-0.6821289,-1.528809,-0.0234375,0.008789063,0.3056641
2850,-176.875,270.875,49.4375,-0.9829102,-0.7680664,-1.444336,-0.04150391,-0.004394531,0.3071289
2854,-156.375,258.125,44.9375,-0.746582,-0.7211914,-1.359375,-0.06738281,-0.01953125,0.3032227
2858,-133,253.4375,43.1875,-0.6108398,-0.6630859,-1.305664,-0.09228516,-0.03320313,0.2988281
2862,-111.375,244.625,38.75,-0.5102539,-0.5424805,-1.348145,-0.109375,-0.04199219,0.293457
2866,-109.5625,235.8125,29.625,-0.4052734,-0.387207,-1.355469,-0.1328125,-0.04931641,0.2851563
2870,-110.4375,218.0625,11.25,-0.3823242,-0.3676758,-1.282715,-0.1518555,-0.05957031,0.2773438
2874,-103.25,193.375,-8.3125,-0.362793,-0.3520508,-1.128418,-0.1665039,-0.06591797,0.2705078
2878,-94.4375,176.125,-10.125,-0.4169922,-0.3911133,-1.013184,-0.1816406,-0.07421875,0.2592773
2882,-83.0625,174.9375,0.375,-0.2583008,-0.402832,-0.9399414,-0.1962891,-0.08300781,0.2485352
2886,-75.125,173.1875,11.5,-0.3354492,-0.3754883,-0.8208008,-0.206543,-0.08544922,0.2402344
2890,-59.5625,157.125,12.6875,-0.2929688,-0.3793945,-0.5898438,-0.21875,-0.09179688,0.2294922
2894,-40.0625,140.75,5.4375,-0.28125,-0.3676758,-0.4130859,-0.2304688,-0.09423828,0.2172852
2898,-20.375,119.125,-0.375,-0.3510742,-0.3520508,-0.2861328,-0.2363281,-0.09716797,0.2119141
2902,1.375,94.5,-1.5625,-0.3164063,-0.3325195,-0.1860352,-0.2436523,-0.09716797,0.2036133
2906,23.125,78.3125,1.0625,-0.2041016,-0.2006836,-0.1743164,-0.2495117,-0.09814453,0.1967773
2910,28.9375,64.1875,2.125,-0.1499023,0.0009765625,-0.2397461,-0.253418,-0.09716797,0.1953125
2914,16.8125,43.625,1.25,-0.09130859,0.121582,-0.3012695,-0.2568359,-0.09326172,0.1889648
2918,3.6875,28.6875,3.125,-0.06445313,0.03222656,-0.2363281,-0.2592773,-0.09179688,0.1860352
2922,10.3125,14.4375,10.3125,0.01269531,-0.1577148,-0.1669922,-0.2592773,-0.09326172,0.1845703
2926,20.75,8.9375,13.8125,0.02441406,-0.1459961,-0.1669922,-0.2636719,-0.09082031,0.1845703
2930,20.5625,-9.4375,7.1875,-0.09912109,-0.1152344,-0.1782227,-0.2617188,-0.08544922,0.1831055
2934,24.1875,-35.4375,-0.6875,-0.02978516,-0.2163086,-0.1435547,-0.2617188,-0.08691406,0.1845703
2938,36.9375,-48.0625,0,0.01269531,-0.2978516,-0.1821289,-0.2602539,-0.08300781,0.1889648
2942,49.125,-59.3125,7.125,-0.03710938,-0.2939453,-0.2631836,-0.2553711,-0.08203125,0.1928711
2946,55.0625,-71.9375,7.5,-0.08007813,-0.2431641,-0.2978516,-0.253418,-0.07958984,0.1953125
2950,54.625,-92.75,0.875,-0.2387695,-0.2163086,-0.2822266,-0.2470703,-0.07421875,0.2036133
2955,49.75,-122.6875,-9.8125,-0.4521484,-0.2626953,-0.2822266,-0.2426758,-0.07177734,0.2133789
2959,68.5625,-168.6875,-25,-0.3510742,-0.4570313,-0.378418,-0.2353516,-0.07080078,0.21875
2963,92.9375,-180.8125,-31.375,-0.2504883,-0.4453125,-0.4975586,-0.2211914,-0.06591797,0.230957
2967,100.6875,-188.25,-28.1875,-0.5371094,-0.4067383,-0.5898438,-0.206543,-0.06054688,0.2460938
2971,103.375,-215.1875,-28.1875,-0.8164063,-0.4335938,-0.609375,-0.1972656,-0.05566406,0.25
2975,110.75,-248.5,-31.375,-0.9555664,-0.534668,-0.6899414,-0.1757813,-0.04931641,0.2636719
2979,131.4375,-284.875,-36.4375,-1.056641,-0.6435547,-0.8515625,-0.1533203,-0.04199219,0.2773438
2983,159.9375,-326.5,-37.9375,-1.07959,-0.6938477,-1.109375,-0.1367188,-0.03173828,0.2866211
2987,171.0625,-341.3125,-35.8125,-0.9399414,-0.6630859,-1.317383,-0.1054688,-0.02050781,0.2973633
2991,163.5625,-326,-32.625,-0.7075195,-0.6162109,-1.471191,-0.07324219,-0.001953125,0.300293
2995,154.25,-304.125,-28.5,-0.78125,-0.6708984,-1.513184,-0.05224609,0.006347656,0.3041992
2999,151.5,-296.375,-24.5625,-0.9130859,-0.6821289,-1.494141,-0.02246094,0.02246094,0.3056641
3003,143,-294.9375,-25.6875,-1.106934,-0.7446289,-1.478516,0.004394531,0.03759766,0.3017578
3007,138.75,-303.25,-21.25,-1.300781,-0.8764648,-1.44043,0.0234375,0.04638672,0.2949219
3011,147.8125,-314.75,-14.9375,-1.315918,-1.024414,-1.394043,0.05322266,0.06103516,0.2866211
3015,161.5625,-310.1875,-16.625,-1.15332,-1.040039,-1.409668,0.08056641,0.07519531,0.2758789
3019,164.875,-295.0625,-19.5625,-1.118652,-0.9931641,-1.401855,0.09863281,0.08398438,0.2636719
3023,155.25,-276.0625,-15.6875,-1.273438,-0.9736328,-1.390137,0.1210938,0.09863281,0.2446289
3027,145.6875,-279.9375,-14.625,-1.494141,-1.032227,-1.340332,0.144043,0.1113281,0.2280273
3031,147.9375,-295.0625,-12.875,-1.459473,-1.109863,-1.224609,0.1582031,0.1176758,0.2119141
3035,156.3125,-296.25,-3.125,-1.381836,-1.15625,-1.13623,0.1782227,0.1289063,0.1875
3039,159.875,-292.1875,-3.0625,-1.292969,-1.152344,-1.13623,0.1948242,0.1386719,0.1640625
3043,159.375,-280,-17.4375,-1.223145,-1.117676,-1.128418,0.2055664,0.1435547,0.144043
3047,152.1875,-258.5,-12.375,-1.339355,-1.133301,-1.040039,0.21875,0.1523438,0.1152344
3051,154,-255.9375,-2.5625,-1.385742,-1.125488,-0.9052734,0.2260742,0.1586914,0.08789063
3055,158.5625,-251.5625,9.25,-1.401367,-1.183594,-0.7246094,0.2319336,0.1601563,0.0703125
3059,166.6875,-249.1875,21.375,-1.428223,-1.15625,-0.6171875,0.2392578,0.1635742,0.04052734
3063,169.75,-259.75,21.8125,-1.494141,-1.144531,-0.5439453,0.2460938,0.1625977,0.01074219
3067,165.5,-267.625,6.3125,-1.253906,-0.9736328,-0.5244141,0.2451172,0.1635742,-0.009277344
3071,155.3125,-253.3125,-3.625,-0.9438477,-0.9077148,-0.5786133,0.2485352,0.1611328,-0.03955078
3075,149.1875,-220.125,8.6875,-0.78125,-0.8686523,-0.5786133,0.2485352,0.1625977,-0.06640625
3079,141.125,-181.75,28.4375,-0.6689453,-0.7368164,-0.5170898,0.2460938,0.1586914,-0.08544922
3084,136.75,-161.75,37.0625,-0.730957,-0.7368164,-0.4936523,0.2451172,0.1538086,-0.1074219
3088,136.25,-159.375,30.375,-0.7890625,-0.7407227,-0.4013672,0.2460938,0.1459961,-0.1264648
3092,129.375,-155.5625,18.5625,-0.5488281,-0.4726563,-0.3325195,0.2412109,0.1435547,-0.1416016
3096,100.75,-135.0625,10.75,-0.3901367,-0.2861328,-0.3012695,0.237793,0.1362305,-0.1591797
3100,65.6875,-114.375,4.625,-0.3935547,-0.2509766,-0.2475586,0.234375,0.1323242,-0.1728516
3104,42.0625,-102.1875,7.0625,-0.3046875,-0.2861328,-0.2246094,0.230957,0.1298828,-0.1806641
3108,26.625,-81.875,8.4375,-0.1303711,-0.3520508,-0.2055664,0.2260742,0.1274414,-0.1889648
3112,21.5625,-54.75,3.75,-0.03320313,-0.3989258,-0.2089844,0.2236328,0.125,-0.1958008
3116,18,-25.5,-1.3125,0.05908203,-0.2978516,-0.2514648,0.222168,0.1264648,-0.199707
3120,1.875,10.6875,-2.25,0.08642578,-0.2163086,-0.3745117,0.2236328,0.125,-0.2026367
3124,-22.1875,40,-1.4375,0.06298828,-0.1269531,-0.5708008,0.2236328,0.125,-0.199707
3128,-52.6875,70.8125,-1.875,0.07470703,-0.08789063,-0.7167969,0.2246094,0.1264648,-0.1972656
3132,-84.5625,97.6875,-12.1875,-0.01806641,-0.1538086,-0.809082,0.2285156,0.1289063,-0.1875
3136,-107.75,119.375,-21.375,-0.1186523,-0.2939453,-0.8671875,0.230957,0.1347656,-0.1738281
3140,-126.375,150.0625,-23.875,-0.1884766,-0.4179688,-0.9052734,0.2329102,0.1401367,-0.1616211
3144,-137.8125,181.875,-24.5,-0.3164063,-0.5463867,-0.9326172,0.2368164,0.1474609,-0.1425781
3148,-149.875,219.625,-17.0625,-0.4521484,-0.6318359,-0.9287109,0.2426758,0.1547852,-0.1157227
3152,-162.6875,251.5,-13.4375,-0.6884766,-0.7368164,-0.9130859,0.2426758,0.1586914,-0.1020508
3156,-174.5625,269.4375,-21.1875,-0.9208984,-0.8764648,-0.8823242,0.2460938,0.1611328,-0.07080078
3160,-175.3125,268.125,-38.125,-1.195801,-1.05127,-0.7822266,0.2475586,0.1660156,-0.03955078
3164,-179.625,282.375,-38.25,-1.25,-1.136719,-0.5976563,0.2475586,0.1674805,-0.01611328
3168,-179.375,302.625,-21.125,-1.475098,-1.226563,-0.5439453,0.2392578,0.1699219,0.01611328
3172,-176.375,314.4375,11.4375,-1.633789,-1.160156,-0.6245117,0.2329102,0.1689453,0.04882813
3176,-178.125,318.4375,40.4375,-1.695801,-1.094238,-0.7709961,0.2294922,0.1625977,0.07177734
3180,-183.25,310.25,39.0625,-1.82373,-1.199219,-0.840332,0.2211914,0.15625,0.105957
3184,-167.6875,266.5625,-4.5625,-1.765625,-1.241699,-0.8364258,0.2104492,0.1474609,0.137207
3188,-173.125,270.4375,-9.875,-1.614258,-1.164063,-0.8515625,0.199707,0.1435547,0.1547852
3192,-174.6875,280.5,1.9375,-1.62207,-1.179688,-0.9287109,0.184082,0.1337891,0.1806641
3196,-171.875,292.1875,30.8125,-1.649414,-1.152344,-1.020996,0.1650391,0.1186523,0.2050781
3200,-167.8125,310.5625,64.9375,-1.606445,-1.098145,-1.05957,0.1523438,0.1113281,0.2211914
3204,-161.5625,326.625,97.5625,-1.57959,-1.047363,-1.151855,0.1318359,0.09228516,0.2416992
3208,-156.375,315.8125,90.5,-1.719238,-1.036133,-1.140137,0.1079102,0.07617188,0.262207
3213,-143.4375,259.25,50.625,-1.665039,-1.062988,-1.094238,0.09033203,0.06640625,0.2744141
3217,-134.5625,226.5625,14.3125,-1.20752,-0.9619141,-1.01709,0.07128906,0.05273438,0.2851563
3221,-126.25,224.5625,1.3125,-1.017578,-1.000977,-1.005371,0.04882813,0.04003906,0.2949219
3225,-102.875,229.75,7.25,-0.8164063,-0.9619141,-1.032227,0.03417969,0.03027344,0.2973633
3229,-74.375,240.875,28.1875,-0.7114258,-0.8842773,-1.15918,0.01269531,0.02246094,0.3041992
3233,-59.0625,251.25,39.125,-0.4672852,-0.4921875,-1.367188,-0.01171875,0.01611328,0.3056641
3237,-85.25,259.3125,29.4375,-0.4672852,-0.2314453,-1.528809,-0.02685547,0.01123047,0.3056641
3241,-127.0625,240.625,-2.5,-0.5332031,-0.1811523,-1.567383,-0.05322266,0.00390625,0.3056641
3245,-160.5,226.375,-25.3125,-0.4091797,-0.371582,-1.463379,-0.07470703,-0.009277344,0.3017578
3249,-162,237.6875,-16.0625,-0.3203125,-0.6708984,-1.33252,-0.08886719,-0.0234375,0.2988281
3253,-136.0625,261.5,10.9375,-0.3354492,-0.7407227,-1.197754,-0.1137695,-0.03955078,0.2919922
3257,-115.3125,277.5,32.875,-0.3901367,-0.5268555,-1.132324,-0.1401367,-0.05078125,0.2827148
3261,-116.9375,275.1875,35,-0.5449219,-0.3325195,-1.032227,-0.1582031,-0.05566406,0.2729492
3265,-136.1875,241.8125,13.625,-0.765625,-0.1616211,-0.8476563,-0.1791992,-0.06591797,0.2607422
3269,-148.0625,169.0625,-13.8125,-1.005859,-0.4765625,-0.5170898,-0.1972656,-0.07714844,0.2470703
3273,-113.4375,101.875,-22.875,-0.6806641,-0.7753906,-0.1166992,-0.2055664,-0.08544922,0.2402344
3277,-52.4375,84.1875,-1.625,-0.328125,-0.9194336,-0.03222656,-0.2138672,-0.09716797,0.2333984
3281,20.6875,75.5,19.125,-0.1342773,-0.8105469,-0.1513672,-0.21875,-0.09570313,0.2270508
3285,63.9375,75.1875,25.375,0.159668,-0.3676758,-0.4052734,-0.2236328,-0.09326172,0.2255859
3289,75.5625,77.1875,14.0625,0.3032227,0.02050781,-0.644043,-0.2294922,-0.08837891,0.2211914
3293,45.125,76.125,-10.375,0.1831055,0.4165039,-0.7709961,-0.234375,-0.08056641,0.2158203
3297,-13.5625,57.3125,-29,-0.04882813,0.6108398,-0.6899414,-0.2387695,-0.07958984,0.2158203
3301,-59.8125,28.625,-28.3125,-0.2734375,0.2807617,-0.5517578,-0.2402344,-0.08300781,0.2104492
3305,-64.8125,7.4375,-4.3125,-0.2773438,-0.2202148,-0.2900391,-0.2426758,-0.08935547,0.2080078
3309,-23.9375,-7.9375,11.6875,-0.03710938,-0.4921875,-0.1474609,-0.2412109,-0.09326172,0.2080078
3313,16.625,-14.1875,17.625,0.03955078,-0.3676758,-0.1669922,-0.2412109,-0.09326172,0.206543
3317,38.5,-23,14.25,0.03564453,-0.3017578,-0.2436523,-0.2412109,-0.08935547,0.2080078
3321,46.0625,-37.375,3.875,-0.02978516,-0.2275391,-0.34375,-0.2402344,-0.08691406,0.2089844
3325,48.0625,-51.5625,1.125,-0.07617188,-0.1811523,-0.3554688,-0.2363281,-0.08300781,0.2143555
3329,47.875,-67.6875,3.8125,-0.1884766,-0.1499023,-0.3706055,-0.2319336,-0.07958984,0.21875
3333,45.1875,-90.375,8.75,-0.3125,-0.1967773,-0.3632813,-0.2294922,-0.078125,0.2211914
3337,52.8125,-120.875,8.25,-0.3164063,-0.2978516,-0.4282227,-0.2236328,-0.07324219,0.2280273
3342,65.6875,-142.4375,3.875,-0.3320313,-0.3989258,-0.4555664,-0.2128906,-0.06835938,0.237793
3346,80.75,-160.5625,-0.5,-0.4091797,-0.4960938,-0.5400391,-0.2045898,-0.06591797,0.2470703
3350,102.1875,-180.5625,-11,-0.4208984,-0.4882813,-0.6171875,-0.1889648,-0.05712891,0.2539063
3354,119.125,-197.5625,-12.1875,-0.5214844,-0.519043,-0.7900391,-0.1748047,-0.04931641,0.2675781
3358,141.4375,-214.1875,-2.25,-0.3901367,-0.484375,-0.9941406,-0.1616211,-0.04199219,0.2729492
3362,144.25,-206.25,16.6875,-0.378418,-0.4101563,-1.097656,-0.1435547,-0.02832031,0.2797852
3366,131.625,-208.625,15.0625,-0.5175781,-0.371582,-1.125,-0.1220703,-0.01171875,0.2880859
3370,115.375,-222.5625,-1.0625,-0.730957,-0.4609375,-1.063477,-0.1103516,-0.004394531,0.2949219
3374,117.1875,-250.5625,-19.75,-0.9711914,-0.7290039,-1.020996,-0.09033203,0.004882813,0.2973633
3378,137.25,-277.5625,-25.75,-1.071777,-0.9428711,-1.055664,-0.06494141,0.01855469,0.300293
3382,165.625,-292.75,-13.125,-1.161133,-1.094238,-1.170898,-0.04492188,0.02636719,0.3017578
3386,189.8125,-300.125,4,-1.11084,-1.047363,-1.33252,-0.01757813,0.04248047,0.2973633
3390,193.0625,-287.5625,10.25,-1.048828,-0.9814453,-1.340332,0.01074219,0.0625,0.293457
3394,186.75,-279.6875,8.4375,-1.187988,-0.9931641,-1.33252,0.02978516,0.07519531,0.2851563
3398,186.6875,-288.375,6.0625,-1.385742,-1.109863,-1.26709,0.05712891,0.09228516,0.2744141
3402,196.25,-305.4375,10.75,-1.525391,-1.207031,-1.26709,0.08056641,0.1098633,0.2607422
3406,205.875,-321.625,26.4375,-1.552246,-1.210938,-1.282715,0.09863281,0.1186523,0.2446289
3410,206.875,-328.8125,42.5625,-1.40918,-1.133301,-1.351563,0.1259766,0.1347656,0.2211914
3414,187.4375,-313.5625,45.75,-1.129883,-0.9814453,-1.359375,0.1523438,0.1459961,0.1953125
3418,165.4375,-295.3125,33.5625,-1.230957,-1.043945,-1.232422,0.1674805,0.1523438,0.1762695
3422,157.75,-304.0625,21.625,-1.416992,-1.105957,-1.163086,0.184082,0.1586914,0.1508789
3426,151.375,-314.375,17.0625,-1.401367,-1.094238,-1.066895,0.2021484,0.1650391,0.1206055
3430,149.5625,-318.1875,20.375,-1.389648,-1.136719,-0.9516602,0.2128906,0.1674805,0.09912109
3434,157.5625,-312.5,35.6875,-1.35498,-1.21875,-0.8286133,0.2236328,0.1699219,0.06884766
3438,161,-299.9375,44.375,-1.339355,-1.15625,-0.8168945,0.2353516,0.1713867,0.03613281
3442,148.25,-289,27.5,-1.215332,-1.036133,-0.7324219,0.2392578,0.1713867,0.01464844
3446,137,-291.625,-4.6875,-1.296875,-0.9775391,-0.6669922,0.2426758,0.1699219,-0.01464844
3450,117.6875,-288.5,-14.5625,-1.230957,-0.8920898,-0.4555664,0.2436523,0.1713867,-0.04736328
3454,105.625,-280.875,-0.6875,-1.223145,-0.9697266,-0.3168945,0.2426758,0.1689453,-0.06542969
3458,108.5,-269,22.5,-1.141602,-1.171875,-0.1821289,0.237793,0.1660156,-0.09375
3462,127.5625,-251.125,39.3125,-0.9130859,-1.11377,-0.1362305,0.2329102,0.1611328,-0.1196289
3466,130.375,-237.3125,25,-0.8818359,-0.8764648,-0.1362305,0.2319336,0.1577148,-0.1386719
3471,121.8125,-245.875,-6.1875,-0.78125,-0.6669922,-0.2324219,0.2236328,0.1499023,-0.1606445
3475,104.8125,-233.3125,-17.375,-0.6108398,-0.6435547,-0.2128906,0.2128906,0.1474609,-0.1850586
3479,101,-203.4375,-3.3125,-0.3588867,-0.6279297,-0.2246094,0.2070313,0.1435547,-0.1987305
3483,100.9375,-158.125,14.9375,-0.215332,-0.565918,-0.2285156,0.1962891,0.1376953,-0.2163086
3487,97.0625,-118.6875,21.75,-0.1923828,-0.4570313,-0.2514648,0.1904297,0.1298828,-0.2324219
3491,90.375,-96.4375,19.4375,-0.1767578,-0.3364258,-0.2939453,0.1865234,0.1235352,-0.2392578
3495,69.5,-76.1875,13.25,-0.08398438,-0.2392578,-0.2900391,0.1821289,0.1201172,-0.25
3499,39.625,-56.625,6.125,0.06689453,-0.1113281,-0.359375,0.1757813,0.1137695,-0.2558594
3503,1.3125,-27.375,4.1875,0.1674805,-0.08398438,-0.34375,0.1748047,0.1123047,-0.2597656
3507,-36.8125,7.5,1.0625,0.2138672,-0.08007813,-0.378418,0.1723633,0.1123047,-0.2626953
3511,-74.1875,38.625,-4.1875,0.2216797,-0.05273438,-0.5170898,0.1738281,0.1152344,-0.2558594
3515,-106.6875,74.1875,-10.1875,0.2138672,-0.1420898,-0.6132813,0.1757813,0.1210938,-0.2514648
3519,-126.8125,104.4375,-17.1875,0.09765625,-0.2783203,-0.7207031,0.1806641,0.1289063,-0.2436523
3523,-138.3125,138,-19.5625,0.05126953,-0.3911133,-0.7749023,0.1865234,0.1401367,-0.2270508
3527,-144.1875,180.1875,-14.5,-0.07617188,-0.5229492,-0.824707,0.1928711,0.1450195,-0.2148438
3531,-145.3125,227.6875,1.5,-0.1767578,-0.6552734,-0.8325195,0.2011719,0.1538086,-0.1943359
3535,-137.6875,281,19.6875,-0.3354492,-0.8378906,-0.8208008,0.2128906,0.1611328,-0.168457
3539,-125.5625,330.8125,26.25,-0.4482422,-0.8378906,-0.8901367,0.222168,0.1635742,-0.1494141
3543,-134.8125,369.1875,16.5,-0.715332,-0.6977539,-0.9902344,0.2329102,0.1660156,-0.1157227
3547,-168.8125,385.0625,9.5,-1.129883,-0.6396484,-1.109375,0.2402344,0.1660156,-0.07617188
3551,-209.625,382.75,14.875,-1.389648,-0.6787109,-1.186523,0.2426758,0.1674805,-0.05175781
3555,-254.5,401.9375,41.4375,-1.436035,-0.7094727,-1.263184,0.2436523,0.1674805,-0.008300781
3559,-277.1875,410.75,43.0625,-2.032715,-1.257324,-1.213379,0.2402344,0.1611328,0.04052734
3563,-245.75,365.0625,20.25,-2.060059,-1.467285,-1.113281,0.234375,0.1547852,0.0703125
3567,-221.625,370.375,23.875,-1.769531,-1.350586,-1.117188,0.2260742,0.1459961,0.1137695
3571,-209.625,404.8125,51.125,-1.815918,-1.241699,-1.305664,0.2080078,0.1337891,0.1508789
3575,-203.9375,427.1875,82.0625,-2.040527,-1.136719,-1.494141,0.1948242,0.125,0.175293
3579,-197.875,428.125,99.5625,-2.222656,-1.055176,-1.571289,0.1723633,0.1064453,0.2104492
3583,-186.5625,396.3125,95.375,-2.478516,-1.233887,-1.432617,0.144043,0.08740234,0.2402344
3587,-154.1875,320.375,46.8125,-2.350586,-1.304199,-1.205566,0.1259766,0.07617188,0.2583008
3591,-116.875,269.875,4.25,-1.839355,-1.26123,-1.097656,0.09960938,0.06103516,0.2714844
3595,-95.3125,266.0625,2,-1.533203,-1.121582,-1.113281,0.07617188,0.05273438,0.2866211
3600,-80.1875,266.9375,13.5,-1.498047,-0.9736328,-1.166992,0.05810547,0.04736328,0.2910156
3604,-73.5625,253.1875,27.0625,-1.370117,-0.7563477,-1.213379,0.03564453,0.03759766,0.2963867
3608,-76.0625,246,36.9375,-1.157227,-0.5966797,-1.178711,0.01074219,0.03125,0.3032227
3612,-74.3125,234.125,44.5625,-0.9829102,-0.6162109,-1.166992,-0.004394531,0.02636719,0.3017578
3616,-57.6875,214,23.875,-0.7695313,-0.5463867,-1.13623,-0.02490234,0.01611328,0.3071289
3620,-62.125,196,-0.75,-0.6806641,-0.3793945,-1.228516,-0.04589844,0.01367188,0.3032227
3624,-81.375,182.3125,-12.8125,-0.5332031,-0.402832,-1.259277,-0.05810547,0.007324219,0.3017578
3628,-92.375,185.6875,-17.5,-0.3432617,-0.4960938,-1.174805,-0.07568359,0,0.3017578
3632,-84.5,192.5625,-8.875,-0.3164063,-0.6162109,-1.109375,-0.09375,-0.009277344,0.2963867
3636,-65.9375,199.8125,5.125,-0.3125,-0.6201172,-1.040039,-0.1054688,-0.01464844,0.293457
3640,-47.4375,199.8125,6.3125,-0.1806641,-0.46875,-1.05957,-0.1245117,-0.01953125,0.2880859
3644,-51.625,204.0625,0.625,-0.2700195,-0.3989258,-1.043945,-0.1450195,-0.0234375,0.2827148
3648,-59,194.75,-12.3125,-0.3085938,-0.3442383,-0.9438477,-0.1591797,-0.02685547,0.2729492
3652,-60.4375,178.5625,-17.4375,-0.3354492,-0.324707,-0.8056641,-0.1748047,-0.03320313,0.2651367
3656,-64.1875,164.0625,-19.8125,-0.4052734,-0.2705078,-0.6669922,-0.1889648,-0.03955078,0.2553711
3660,-65.5,139.3125,-16,-0.5063477,-0.3520508,-0.5283203,-0.1962891,-0.04296875,0.2485352
3664,-56.125,113.9375,-11.25,-0.4091797,-0.4414063,-0.3706055,-0.206543,-0.05078125,0.2416992
3668,-35.5625,98.6875,-4.375,-0.3007813,-0.4648438,-0.2324219,-0.2163086,-0.0546875,0.2348633
3672,-17.5625,81.9375,-1.5,-0.3745117,-0.421875,-0.1782227,-0.2211914,-0.05566406,0.230957
3676,-3.25,49.5625,-11.9375,-0.3549805,-0.355957,-0.1860352,-0.2294922,-0.05810547,0.2270508
3680,10,22.8125,-19.6875,-0.2504883,-0.3520508,-0.2016602,-0.2294922,-0.05810547,0.2226563
3684,25.4375,13.0625,-12.75,-0.1884766,-0.2822266,-0.2285156,-0.2304688,-0.05712891,0.2226563
3688,29.125,1.0625,-1.5625,-0.2890625,-0.1616211,-0.2978516,-0.2319336,-0.05810547,0.2211914
3692,28.1875,-22.1875,7.3125,-0.1845703,-0.1035156,-0.3632813,-0.2304688,-0.0546875,0.2211914
3696,21.5,-34.3125,7.6875,-0.06835938,-0.07226563,-0.4130859,-0.2304688,-0.05322266,0.2226563
3700,13.1875,-50.6875,0.375,-0.06445313,-0.1694336,-0.4438477,-0.2255859,-0.05175781,0.2255859
3704,17.875,-64.75,-6.0625,-0.01416016,-0.3017578,-0.4321289,-0.2246094,-0.05175781,0.2324219
3708,30.5,-74.375,-7.5625,-0.05273438,-0.3208008,-0.4667969,-0.2211914,-0.04931641,0.2348633
3712,39.25,-88.625,-7.0625,-0.1420898,-0.2861328,-0.5244141,-0.2128906,-0.04833984,0.2392578
3716,45.6875,-106.4375,-5.6875,-0.2080078,-0.2900391,-0.574707,-0.2055664,-0.04443359,0.2460938
3720,50.4375,-121.125,-3.8125,-0.2851563,-0.3325195,-0.5825195,-0.1982422,-0.04296875,0.2470703
3724,63.9375,-142.875,-5,-0.3203125,-0.402832,-0.6787109,-0.1875,-0.03808594,0.2568359
3729,76.625,-156,-5.875,-0.362793,-0.4375,-0.7363281,-0.1772461,-0.03320313,0.2636719
3733,93.0625,-170.625,-3.5625,-0.3901367,-0.4648438,-0.8129883,-0.1665039,-0.02929688,0.269043
3737,107.5625,-184.1875,1.0625,-0.3510742,-0.5,-0.9477539,-0.1533203,-0.01953125,0.2744141
3741,115.1875,-185.375,5.875,-0.3510742,-0.4648438,-1.05957,-0.1352539,-0.008300781,0.2827148
3745,119.3125,-188.375,15.1875,-0.3242188,-0.4648438,-1.147949,-0.1220703,-0.0004882813,0.2880859
3749,123.3125,-187.1875,26.375,-0.2543945,-0.484375,-1.244141,-0.1044922,0.01269531,0.2919922
3753,124,-177.0625,29.8125,-0.215332,-0.4296875,-1.26709,-0.08642578,0.02392578,0.2919922
3757,111.8125,-174.4375,29.25,-0.4365234,-0.4335938,-1.259277,-0.07568359,0.03369141,0.2963867
3761,94.5,-183.5,16.3125,-0.6264648,-0.4609375,-1.193848,-0.05810547,0.04394531,0.2963867
3765,83.9375,-199.8125,4.1875,-0.8164063,-0.6083984,-1.117188,-0.0390625,0.05273438,0.293457
3769,96.4375,-228,-3,-0.8007813,-0.7524414,-1.128418,-0.02587891,0.05859375,0.2949219
3773,111.3125,-230,5.4375,-0.6303711,-0.7563477,-1.166992,-0.003417969,0.06640625,0.2910156
3777,120.5,-220.9375,17.1875,-0.5991211,-0.6977539,-1.255371,0.01904297,0.07861328,0.2851563
3781,108.8125,-200.25,23.625,-0.6455078,-0.6279297,-1.228516,0.03076172,0.08642578,0.28125
3785,90.375,-195.125,17.3125,-0.9208984,-0.6899414,-1.13623,0.04980469,0.09375,0.2729492
3789,82.25,-210.625,2.875,-1.083496,-0.8105469,-0.9941406,0.06884766,0.1025391,0.2661133
3793,94,-234.0625,-8.0625,-1.165039,-0.9658203,-0.8901367,0.08203125,0.1074219,0.2607422
3797,115.1875,-251.25,-5.0625,-1.211426,-1.078613,-0.84375,0.1010742,0.1152344,0.2446289
3801,139.625,-260.375,2.75,-1.257813,-1.11377,-0.9208984,0.1201172,0.125,0.230957
3805,151.25,-258.0625,28.1875,-1.195801,-0.9931641,-0.9399414,0.1333008,0.1313477,0.2158203
3809,153.625,-256.6875,48.625,-1.180664,-0.9311523,-0.9633789,0.1547852,0.1401367,0.1967773
3813,147.25,-255.3125,48,-1.129883,-0.9272461,-0.8901367,0.1738281,0.1489258,0.175293
3817,145.625,-269.125,20.0625,-1.257813,-0.9931641,-0.8823242,0.184082,0.1499023,0.1586914
3821,141.625,-285.3125,-0.5625,-1.257813,-0.9428711,-0.840332,0.2011719,0.1586914,0.1328125
3825,131,-287.8125,6,-1.199707,-0.9038086,-0.8056641,0.2128906,0.1625977,0.1044922
3829,120.1875,-279.5,22.8125,-1.114746,-0.9155273,-0.6787109,0.2202148,0.1635742,0.08691406
3833,121.4375,-274.9375,25.875,-1.11084,-1.020508,-0.4936523,0.230957,0.1674805,0.05810547
3837,131.5,-271.4375,15.375,-1.211426,-1.148438,-0.3823242,0.237793,0.1650391,0.02978516
3841,146.875,-289.6875,-10.8125,-1.413086,-1.164063,-0.34375,0.2402344,0.1660156,0.01171875
3845,140.6875,-297.875,-24.3125,-0.9868164,-0.8686523,-0.4628906,0.2436523,0.1674805,-0.02050781
3849,119,-242.75,-1.9375,-0.5722656,-0.7910156,-0.2553711,0.2402344,0.1699219,-0.04882813
3853,119.3125,-183.5,25.9375,-0.746582,-1.059082,-0.04736328,0.2402344,0.1699219,-0.06103516
3858,146.8125,-162.6875,38.0625,-1.001953,-1.144531,0.02099609,0.2412109,0.1635742,-0.08691406
3862,163.25,-186.125,24.125,-1.312012,-0.9506836,-0.005371094,0.2412109,0.1601563,-0.1098633
3866,146.8125,-223.5625,12.625,-1.168945,-0.5893555,-0.109375,0.237793,0.1538086,-0.125
3870,101.75,-236.1875,21.9375,-0.8857422,-0.3911133,-0.1782227,0.2294922,0.1489258,-0.1494141
3874,52.9375,-223.0625,26.125,-0.5175781,-0.3286133,-0.001464844,0.2246094,0.1425781,-0.1713867
3878,30.375,-196.625,23.125,-0.5566406,-0.7329102,0.2368164,0.21875,0.1401367,-0.1835938
3882,40.5,-199.875,8.4375,-0.8432617,-0.9506836,0.4174805,0.2119141,0.1362305,-0.199707
3886,56.6875,-227.9375,-15.8125,-0.8237305,-0.8574219,0.3520508,0.1972656,0.1337891,-0.2148438
3890,60.9375,-230.25,-29.9375,-0.2387695,-0.5073242,0.1518555,0.1904297,0.1313477,-0.2285156
3894,42.9375,-187.75,-41.375,0.140625,-0.2978516,-0.01318359,0.1748047,0.1313477,-0.2436523
3898,31.1875,-129.375,-30.625,0.2568359,-0.3095703,-0.2592773,0.1616211,0.1323242,-0.2558594
3902,27.3125,-76.8125,-11.8125,0.2646484,-0.2353516,-0.5053711,0.1567383,0.1323242,-0.2568359
3906,13.3125,-25.5,-2.1875,0.3266602,-0.1459961,-0.6015625,0.1508789,0.1298828,-0.2651367
3910,-0.25,18.875,-3.25,0.3032227,-0.05273438,-0.6708984,0.1499023,0.1298828,-0.2651367
3914,-20,70.875,6.6875,0.3999023,-0.05664063,-0.7592773,0.1508789,0.1289063,-0.2626953
3918,-44.6875,135.8125,27.1875,0.3925781,-0.03369141,-0.8632813,0.1582031,0.1323242,-0.2583008
3922,-74.375,184.125,31.8125,0.1328125,-0.03759766,-0.9326172,0.1713867,0.1347656,-0.2436523
3926,-113.375,199.5,12.6875,-0.1572266,-0.06445313,-0.9360352,0.1796875,0.1362305,-0.2338867
3930,-155.125,193.5,-17.5,-0.4443359,-0.2202148,-0.8745117,0.1904297,0.1435547,-0.2148438
3934,-191.1875,187.625,-42.75,-0.4672852,-0.4375,-0.7514648,0.199707,0.1547852,-0.1943359
3938,-211.4375,207.4375,-48.1875,-0.4287109,-0.7016602,-0.6748047,0.203125,0.1650391,-0.175293
3942,-210.75,247.6875,-31.4375,-0.4633789,-0.9814453,-0.6591797,0.2104492,0.1762695,-0.1484375
3946,-198.8125,301.375,0,-0.5527344,-1.055176,-0.7094727,0.215332,0.1860352,-0.1166992
3950,-204.8125,355.25,26.375,-0.7192383,-0.8378906,-0.8632813,0.2211914,0.1860352,-0.09228516
3954,-241.75,390.5625,33.6875,-1.292969,-0.8339844,-0.9863281,0.2260742,0.1884766,-0.05175781
3958,-254.375,336.1875,-2.4375,-2.145508,-1.501953,-0.9169922,0.2260742,0.1860352,-0.005371094
3962,-216.0625,264.625,-25.25,-1.785156,-1.723633,-0.5439453,0.2236328,0.1860352,0.01611328
3966,-173.9375,279.25,-4.5,-1.296875,-1.634277,-0.5014648,0.2177734,0.1860352,0.05126953
3970,-164.0625,323,17.4375,-1.315918,-1.199219,-0.7402344,0.2104492,0.1801758,0.08007813
3974,-202.375,343.5625,35.6875,-1.641602,-0.8920898,-1.066895,0.199707,0.1748047,0.1044922
3978,-249.8125,349.75,56.25,-1.785156,-0.9580078,-1.147949,0.1904297,0.1635742,0.1396484
3982,-254.625,349.125,77.25,-1.986328,-1.412598,-1.055664,0.1738281,0.1459961,0.1762695
3987,-207.9375,329.375,91.625,-2.075684,-1.797363,-0.809082,0.1630859,0.1337891,0.1953125
3991,-129.6875,311.4375,103.125,-1.719238,-1.704102,-0.6821289,0.1459961,0.1162109,0.2211914
3995,-74.125,315.6875,102.5625,-1.48291,-1.370117,-0.7783203,0.1269531,0.1025391,0.2416992
3999,-51,304.875,79.3125,-1.374023,-1.000977,-0.9672852,0.112793,0.09765625,0.25
4003,-60.0625,282.625,48.9375,-1.351074,-0.7211914,-1.105469,0.09033203,0.09228516,0.2636719
4007,-85.4375,251.875,35.625,-1.304199,-0.6318359,-1.178711,0.06787109,0.08398438,0.2729492
4011,-108,231.8125,27.75,-1.071777,-0.6240234,-1.163086,0.05566406,0.07861328,0.28125
4015,-121.75,223.4375,27.4375,-0.9091797,-0.6552734,-1.182617,0.03320313,0.06640625,0.2866211
4019,-118.6875,222.9375,31.125,-0.7929688,-0.6708984,-1.163086,0.01171875,0.05517578,0.2949219
4023,-111.0625,218.6875,33.125,-0.7387695,-0.7016602,-1.147949,-0.0009765625,0.04736328,0.2973633
4027,-105.8125,211.625,21.25,-0.7114258,-0.6435547,-1.13623,-0.02099609,0.03759766,0.2988281
4031,-110.9375,190.4375,-0.875,-0.6147461,-0.5385742,-1.174805,-0.0390625,0.02636719,0.300293
4035,-112.9375,170.0625,-18.6875,-0.5683594,-0.6787109,-1.113281,-0.05322266,0.01855469,0.3017578
4039,-95.1875,160.1875,-26.25,-0.3320313,-0.7016602,-1.074707,-0.06982422,0.004882813,0.3017578
4043,-76.125,171.4375,-12,-0.1767578,-0.6552734,-1.125,-0.08398438,-0.0004882813,0.2973633
4047,-66.875,187.6875,-10.0625,-0.1381836,-0.4492188,-1.182617,-0.09863281,-0.006835938,0.2949219
4051,-78.125,194.5625,-13.5,-0.09912109,-0.2587891,-1.26709,-0.1162109,-0.01318359,0.2895508
4055,-107.75,198.0625,-23.5,-0.2929688,-0.1616211,-1.205566,-0.1352539,-0.02197266,0.2851563
4059,-123.75,174,-33.5625,-0.3935547,-0.2392578,-1.066895,-0.1474609,-0.03076172,0.2783203
4063,-130.5625,157.375,-47.0625,-0.2734375,-0.2314453,-0.9248047,-0.1616211,-0.04296875,0.2714844
4067,-149.125,142,-64.3125,-0.3974609,-0.1928711,-0.7861328,-0.1757813,-0.05957031,0.2661133
4071,-155.875,116.625,-68,-0.5795898,-0.4570313,-0.4902344,-0.1816406,-0.07080078,0.2568359
4075,-122.875,90.8125,-47.3125,-0.6767578,-0.7832031,-0.06689453,-0.1899414,-0.08837891,0.2514648
4079,-54,62.625,-12.0625,-0.7695313,-0.9428711,0.144043,-0.1972656,-0.09716797,0.2431641
4083,13.25,31.4375,14.625,-0.5722656,-0.8339844,0.05957031,-0.2006836,-0.1005859,0.2431641
4087,64.75,10.25,22.3125,-0.328125,-0.6708984,-0.1206055,-0.2006836,-0.09716797,0.2431641
4091,91.25,-0.4375,23.5625,-0.1499023,-0.2900391,-0.3398438,-0.2021484,-0.08691406,0.2416992
4095,73.9375,-2.25,15.8125,-0.1381836,0.01269531,-0.5131836,-0.203125,-0.08300781,0.2431641
4099,43.875,-20.125,5.125,-0.2851563,0.04736328,-0.4594727,-0.203125,-0.07421875,0.2446289
4103,27.125,-44.25,6.625,-0.3203125,-0.1577148,-0.378418,-0.2006836,-0.07324219,0.2460938
4107,34.4375,-60.125,16.5,-0.2080078,-0.3056641,-0.3398438,-0.1982422,-0.06933594,0.25
4111,44.3125,-69.1875,22.25,-0.2080078,-0.340332,-0.394043,-0.1938477,-0.06591797,0.2539063
4116,49.75,-85.6875,20.75,-0.3320313,-0.371582,-0.4248047,-0.1875,-0.06201172,0.2568359
4120,57.6875,-109.125,14.4375,-0.4750977,-0.5112305,-0.3974609,-0.1816406,-0.05957031,0.2592773
4124,84.9375,-140.3125,4.25,-0.4711914,-0.6357422,-0.4824219,-0.1699219,-0.05175781,0.2661133
4128,127.75,-167.6875,-7.125,-0.215332,-0.534668,-0.7553711,-0.1582031,-0.04199219,0.2758789
4132,135.1875,-158.5625,-4.1875,-0.1611328,-0.2900391,-0.9516602,-0.1484375,-0.03320313,0.2783203
4136,109.6875,-151.5,4,-0.4287109,-0.1420898,-1.040039,-0.1318359,-0.02197266,0.2851563
4140,78.75,-166.0625,9.3125,-0.746582,-0.2861328,-0.9863281,-0.1186523,-0.01171875,0.2895508
4144,91.75,-203.8125,7,-0.5991211,-0.4960938,-1.005371,-0.1079102,-0.008300781,0.293457
4148,113.25,-208.5,14.375,-0.4365234,-0.5737305,-1.097656,-0.08642578,0.00390625,0.2973633
4152,132.3125,-212.8125,19.0625,-0.4013672,-0.5,-1.244141,-0.06640625,0.01513672,0.300293
4156,118.0625,-201.4375,20.9375,-0.4248047,-0.387207,-1.328613,-0.05224609,0.02490234,0.2988281
4160,82.6875,-182.5,13.25,-0.6962891,-0.4257813,-1.197754,-0.03320313,0.03369141,0.300293
4164,64.3125,-202.8125,0,-1.141602,-0.6357422,-1.05957,-0.01513672,0.04150391,0.2988281
4168,72.6875,-240,-5.125,-1.273438,-0.9038086,-0.9672852,0,0.04492188,0.2973633
4172,106.3125,-264.3125,-10.25,-1.289063,-1.195313,-0.9438477,0.02246094,0.05615234,0.2949219
4176,152.1875,-277.125,-7.5,-1.351074,-1.29248,-1.051758,0.04882813,0.06738281,0.2866211
4180,177.875,-274.9375,8.375,-1.28125,-1.11377,-1.221191,0.06396484,0.07519531,0.2773438
4184,175.4375,-260.0625,16.375,-1.227051,-0.9233398,-1.278809,0.09033203,0.09130859,0.262207
4188,164.375,-263.3125,16,-1.35498,-0.8613281,-1.286133,0.112793,0.1035156,0.2470703
4192,152.25,-276.5625,19.1875,-1.397461,-0.9697266,-1.259277,0.1269531,0.1137695,0.2333984
4196,152,-293.8125,16.6875,-1.37793,-0.9853516,-1.20166,0.1499023,0.1264648,0.2119141
4200,158.4375,-304.625,20.8125,-1.315918,-1.032227,-1.163086,0.1713867,0.1347656,0.1875
4204,165.125,-304.25,29.0625,-1.187988,-1.024414,-1.125,0.1831055,0.1386719,0.1708984
4208,163.25,-290.875,31,-1.052734,-0.9580078,-1.105469,0.203125,0.1459961,0.144043
4212,152.4375,-273.6875,26.125,-1.118652,-0.9389648,-1.055664,0.21875,0.1513672,0.1166992
4216,140.6875,-267.5,24.6875,-1.137695,-0.9233398,-0.9633789,0.2270508,0.1523438,0.09472656
4220,129.875,-262.5,26.3125,-1.15332,-0.9038086,-0.878418,0.2353516,0.1538086,0.06884766
4224,122.875,-258.625,30.75,-1.052734,-0.8803711,-0.7822266,0.2436523,0.15625,0.04199219
4228,119.125,-251.4375,32.6875,-1.044922,-0.8725586,-0.6787109,0.2475586,0.15625,0.02539063
4232,122.125,-244.6875,31.0625,-1.021484,-0.9311523,-0.5322266,0.253418,0.1547852,-0.002441406
4236,136.1875,-243.75,23.5625,-1.075684,-0.9389648,-0.4707031,0.2592773,0.1489258,-0.02978516
4240,145.5625,-241.4375,22.0625,-1.013672,-0.8613281,-0.4130859,0.2602539,0.1474609,-0.04736328
4245,146.3125,-227.6875,33.4375,-0.8857422,-0.6899414,-0.3554688,0.2592773,0.1459961,-0.07470703
4249,131.8125,-214.0625,42.5625,-0.8745117,-0.5581055,-0.3398438,0.2583008,0.1401367,-0.1020508
4253,108.3125,-216.375,34.875,-0.9248047,-0.550293,-0.2016602,0.2543945,0.1347656,-0.1181641
4257,87.0625,-234,13.3125,-0.9672852,-0.5620117,-0.05908203,0.25,0.1274414,-0.1386719
4261,73,-249.75,-2.5625,-0.78125,-0.5620117,0.06347656,0.2426758,0.125,-0.1645508
4265,60,-233.9375,-4.8125,-0.5214844,-0.5776367,0.2060547,0.234375,0.1235352,-0.1796875
4269,58.5625,-207.5625,5.3125,-0.4287109,-0.6279297,0.2021484,0.2260742,0.1186523,-0.199707
4273,69.9375,-179.8125,19.3125,-0.2734375,-0.6240234,0.1020508,0.215332,0.1176758,-0.2163086
4277,81.0625,-149.9375,23.3125,-0.1069336,-0.5698242,-0.04003906,0.2104492,0.1113281,-0.2255859
4281,85.9375,-112.5625,22.4375,0.04345703,-0.4921875,-0.1743164,0.2021484,0.1064453,-0.2392578
4285,74.875,-70.0625,13.875,0.2373047,-0.2353516,-0.3515625,0.1948242,0.09863281,-0.2475586
4289,39,-20.875,0.0625,0.3613281,-0.02197266,-0.4628906,0.1962891,0.09521484,-0.2514648
4293,-5.0625,25.1875,-10.625,0.2797852,-0.006347656,-0.5283203,0.1938477,0.09228516,-0.2568359
4297,-41.8125,65.5,-3.5,0.2255859,-0.04882813,-0.6899414,0.1972656,0.09228516,-0.25
4301,-77.25,108.375,1.875,0.1831055,-0.09179688,-0.7592773,0.199707,0.09765625,-0.2460938
4305,-102.5625,135.625,-14.75,-0.01416016,-0.2431641,-0.8208008,0.2055664,0.1035156,-0.2353516
4309,-122.4375,152.75,-32.9375,-0.1533203,-0.3442383,-0.7939453,0.215332,0.1123047,-0.2216797
4313,-144.625,175.75,-43.5,-0.230957,-0.3833008,-0.7553711,0.2177734,0.1186523,-0.2080078
4317,-172.25,208.6875,-48.75,-0.3007813,-0.4257813,-0.7167969,0.2270508,0.1313477,-0.1865234
4321,-196.5,245.4375,-43.8125,-0.5410156,-0.6123047,-0.6132813,0.2319336,0.1411133,-0.1577148
4325,-203.6875,268.125,-31.6875,-0.8666992,-0.8686523,-0.5517578,0.234375,0.1474609,-0.1386719
4329,-197.9375,267.5,-30.8125,-1.118652,-1.02832,-0.3706055,0.2412109,0.1577148,-0.1088867
4333,-188.4375,261.4375,-35.9375,-1.219238,-1.144531,-0.2861328,0.2426758,0.1650391,-0.07470703
4337,-172.4375,262.875,-24.75,-1.242188,-1.148438,-0.3359375,0.2426758,0.1660156,-0.05419922
4341,-169.375,275.625,2.1875,-1.304199,-1.066895,-0.4360352,0.2412109,0.1699219,-0.02441406
4345,-162.875,281.5,14.8125,-1.343262,-1.125488,-0.5209961,0.2392578,0.1699219,0.0078125
4349,-144.4375,285.5625,11.5,-1.385742,-1.308105,-0.5322266,0.2368164,0.1689453,0.02978516
4353,-123.6875,293.5,5.3125,-1.381836,-1.1875,-0.609375,0.2329102,0.1650391,0.05957031
4357,-131.5,307.125,7.8125,-1.479004,-1.020508,-0.7246094,0.222168,0.1611328,0.08935547
4361,-149.0625,312.5625,8.75,-1.730469,-1.055176,-0.7363281,0.2163086,0.1601563,0.1069336
4365,-154.1875,293.5,3.25,-1.808105,-1.133301,-0.7363281,0.2055664,0.1499023,0.137207
4369,-151.5,294.125,14,-1.788574,-1.22998,-0.6401367,0.1889648,0.1450195,0.1640625
4374,-125.3125,282.5625,23.625,-1.835449,-1.300293,-0.6362305,0.1757813,0.1362305,0.1831055
4378,-107.4375,280.875,35.4375,-1.65332,-1.098145,-0.6787109,0.1582031,0.1274414,0.2036133
4382,-108.8125,278.25,44.3125,-1.563965,-0.8803711,-0.8056641,0.1401367,0.1176758,0.2226563
4386,-121.375,267.6875,45.5,-1.455566,-0.7211914,-0.9169922,0.128418,0.1113281,0.2348633
4390,-139.25,255.875,44.625,-1.327637,-0.6513672,-0.9863281,0.109375,0.1000977,0.25
4394,-151.1875,236.0625,39.1875,-1.261719,-0.6899414,-1.040039,0.09033203,0.08642578,0.2675781
4398,-152.0625,221.1875,37.0625,-1.07959,-0.7485352,-1.013184,0.07714844,0.07617188,0.2758789
4402,-141.6875,215.375,40.5625,-0.9868164,-0.8300781,-1.009277,0.05957031,0.06005859,0.2841797
4406,-127.1875,212.4375,40.1875,-0.7929688,-0.7719727,-1.040039,0.04052734,0.04736328,0.293457
4410,-113.9375,211,36.8125,-0.5214844,-0.6630859,-1.174805,0.02734375,0.03857422,0.2973633
4414,-116.5625,224.0625,22.875,-0.4521484,-0.5307617,-1.236328,0.008300781,0.02734375,0.3032227
4418,-131.0625,223.4375,12.4375,-0.5024414,-0.503418,-1.355469,-0.01269531,0.01513672,0.3056641
4422,-137.0625,219.6875,8.0625,-0.4555664,-0.565918,-1.336426,-0.02832031,0.004882813,0.3071289
4426,-127.5625,221.9375,13.4375,-0.3935547,-0.6083984,-1.282715,-0.05078125,-0.006835938,0.3041992
4430,-116.6875,230.875,16.25,-0.2119141,-0.4882813,-1.30957,-0.07324219,-0.01953125,0.3056641
4434,-119.5,241.9375,12.75,-0.2700195,-0.402832,-1.378906,-0.08789063,-0.02587891,0.300293
4438,-126.625,240.9375,3.25,-0.3164063,-0.4067383,-1.344238,-0.112793,-0.03955078,0.293457
4442,-127.625,234,-5.6875,-0.3823242,-0.4414063,-1.15918,-0.1342773,-0.04931641,0.2851563
4446,-118.875,224.8125,-11.625,-0.5371094,-0.4453125,-0.8632813,-0.1494141,-0.05957031,0.2783203
4450,-104.6875,199,-4.375,-0.8276367,-0.4921875,-0.6054688,-0.1674805,-0.06933594,0.2705078
4454,-76.625,147.5,4.8125,-0.8393555,-0.4921875,-0.4052734,-0.1831055,-0.078125,0.2592773
4458,-44.0625,110.3125,9.6875,-0.5332031,-0.4726563,-0.3208008,-0.1899414,-0.08056641,0.2514648
4462,-18.25,94.1875,7.8125,-0.347168,-0.371582,-0.3901367,-0.2006836,-0.08203125,0.2446289
4466,2.3125,75.9375,7.9375,-0.262207,-0.3481445,-0.4438477,-0.2080078,-0.08300781,0.2392578
4470,16.0625,64.6875,-2.3125,-0.08789063,-0.1889648,-0.4477539,-0.2114258,-0.08300781,0.2392578
4474,14.75,56.0625,3.875,-0.1381836,-0.1347656,-0.4477539,-0.2163086,-0.08203125,0.2348633
4478,9.125,40.875,10.8125,-0.1499023,-0.09960938,-0.3554688,-0.2211914,-0.08056641,0.2294922
4482,9.1875,20.125,16.5625,-0.1420898,-0.2006836,-0.3286133,-0.2211914,-0.078125,0.2280273
4486,19.625,3.6875,18.3125,-0.01416016,-0.2939453,-0.324707,-0.2236328,-0.07714844,0.2280273
4490,33.1875,-5.4375,14.9375,0.05908203,-0.3286133,-0.3208008,-0.2236328,-0.07324219,0.2280273
4494,44.25,-19.6875,5.125,-0.04101563,-0.3286133,-0.3632813,-0.2236328,-0.07177734,0.2294922
4498,52.5625,-36,-4.0625,-0.01416016,-0.2900391,-0.3901367,-0.2211914,-0.06689453,0.230957
4503,60.1875,-47.4375,-9.4375,0.0009765625,-0.2666016,-0.4360352,-0.2172852,-0.06445313,0.2333984
4507,66.6875,-54.625,-7.75,-0.08398438,-0.2626953,-0.4628906,-0.2138672,-0.06054688,0.237793
4511,73.4375,-69.125,0.125,-0.262207,-0.2626953,-0.5014648,-0.2114258,-0.05712891,0.2402344
4515,75,-87.9375,8.3125,-0.3588867,-0.2314453,-0.5014648,-0.2045898,-0.04833984,0.2446289
4519,82.5,-115.4375,8.4375,-0.4013672,-0.3364258,-0.559082,-0.199707,-0.04443359,0.2485352
4523,101.5625,-142.5625,3.8125,-0.3046875,-0.3793945,-0.6630859,-0.1875,-0.03710938,0.2568359
4527,116.5625,-156.875,0.25,-0.2543945,-0.4140625,-0.7861328,-0.1772461,-0.02685547,0.262207
4531,125.375,-159.75,-4.625,-0.2387695,-0.3911133,-0.8823242,-0.168457,-0.01953125,0.2675781
4535,124.0625,-161.875,-2.625,-0.4594727,-0.421875,-0.9018555,-0.1533203,-0.008300781,0.2744141
4539,136.75,-186.0625,6.6875,-0.3974609,-0.4804688,-1.020996,-0.1367188,0.002441406,0.2797852
4543,143.9375,-179.0625,20.0625,-0.2543945,-0.484375,-1.063477,-0.1269531,0.01269531,0.2866211
4547,143.8125,-170.75,30.625,-0.4287109,-0.5307617,-1.140137,-0.1079102,0.02490234,0.2866211
4551,136.8125,-178.3125,32.125,-0.7075195,-0.550293,-1.128418,-0.09130859,0.04248047,0.2895508
4555,119.4375,-198.1875,24.8125,-0.8125,-0.5229492,-1.125,-0.07958984,0.05126953,0.2895508
4559,108.75,-225.625,9.6875,-0.9208984,-0.6860352,-1.117188,-0.06054688,0.0625,0.2919922
4563,118.5,-256.875,6.125,-0.7036133,-0.7871094,-1.251953,-0.03759766,0.07373047,0.2895508
4567,124.4375,-249,7.375,-0.5488281,-0.8144531,-1.305664,-0.02099609,0.08105469,0.2866211
4571,121.4375,-230.3125,10,-0.5253906,-0.7832031,-1.363281,0.002441406,0.09228516,0.2827148
4575,113.75,-216.125,7.1875,-0.6884766,-0.7563477,-1.274902,0.02148438,0.1035156,0.2744141
4579,105.5625,-218.3125,5.1875,-0.8974609,-0.8183594,-1.147949,0.03662109,0.1074219,0.269043
4583,105.0625,-232,3.375,-1.083496,-0.9194336,-1.055664,0.05566406,0.1186523,0.2607422
4587,115.1875,-253.5625,4.8125,-1.242188,-1.070801,-0.9902344,0.07617188,0.1264648,0.2485352
4591,137.1875,-280.375,6.125,-1.366211,-1.214844,-0.9633789,0.08886719,0.1337891,0.237793
4595,149.5,-293.625,0.125,-0.9790039,-1.078613,-1.063477,0.1118164,0.1450195,0.2202148
4599,142.3125,-260.1875,-1.5,-0.8237305,-0.9892578,-1.01709,0.1357422,0.1547852,0.2011719
4603,127.125,-249.875,2.8125,-1.071777,-0.8764648,-1.043945,0.144043,0.1601563,0.1875
4607,107.4375,-258.9375,5.625,-1.168945,-0.8647461,-0.9902344,0.1606445,0.1660156,0.1669922
4611,94.1875,-283.5,-8.3125,-1.261719,-0.9506836,-0.9091797,0.1738281,0.1723633,0.1450195
4615,105.1875,-299.9375,-12.125,-1.195801,-1.164063,-0.7094727,0.184082,0.1762695,0.1328125
4619,126.25,-296.125,-3,-1.087402,-1.171875,-0.6513672,0.1962891,0.1811523,0.105957
4623,132.4375,-268.375,18.4375,-0.9516602,-0.9931641,-0.5898438,0.2070313,0.1860352,0.07714844
4627,119.875,-239.75,32.8125,-1.013672,-0.8803711,-0.5668945,0.2128906,0.1850586,0.06103516
4632,98,-231.75,30.3125,-1.095215,-0.7988281,-0.4785156,0.2211914,0.1835938,0.03613281
4636,83.3125,-242.4375,17.3125,-1.230957,-0.9311523,-0.4208984,0.2270508,0.1850586,0.01464844
4640,85.5,-260.5,10.1875,-1.195801,-1.040039,-0.3168945,0.2285156,0.1835938,-0.001464844
4644,100.3125,-271.5,15.3125,-1.037109,-1.024414,-0.309082,0.2329102,0.1835938,-0.02587891
4648,112.6875,-259.5,26.9375,-0.8007813,-0.9194336,-0.3012695,0.2329102,0.1801758,-0.05175781
4652,114.25,-231.6875,37.3125,-0.6533203,-0.8066406,-0.2475586,0.2319336,0.1787109,-0.07177734
4656,110.75,-212.5,35.0625,-0.7773438,-0.7792969,-0.2055664,0.2319336,0.1738281,-0.09375
4660,104.5625,-217.5625,21.375,-0.8974609,-0.6899414,-0.1362305,0.230957,0.1689453,-0.1157227
4664,92.9375,-235.5,4.5,-0.9750977,-0.6669922,-0.04736328,0.2285156,0.1660156,-0.1318359
4668,86.875,-246.125,1.6875,-0.8085938,-0.7753906,0.08642578,0.2202148,0.1625977,-0.1547852
4672,100.0625,-231,15.3125,-0.4868164,-0.7719727,0.1748047,0.2104492,0.1577148,-0.1767578
4676,109.8125,-187.125,31.875,-0.328125,-0.7290039,0.2749023,0.2055664,0.1538086,-0.1904297
4680,112.9375,-163.4375,28.5,-0.3706055,-0.4804688,0.1557617,0.1987305,0.1450195,-0.2094727
4684,89.3125,-155.8125,7.6875,-0.4208984,-0.3442383,0.09033203,0.1904297,0.1386719,-0.2246094
4688,71.125,-156.125,-1.1875,-0.3085938,-0.340332,0.04443359,0.1831055,0.1362305,-0.2353516
4692,65.5,-140,-0.75,-0.1611328,-0.4453125,0.01708984,0.1748047,0.1298828,-0.2475586
4696,67.875,-108.3125,7.5,0.02050781,-0.4375,0.005859375,0.1650391,0.1235352,-0.2597656
4700,70.0625,-66,14.125,0.1557617,-0.3754883,-0.128418,0.1606445,0.1210938,-0.2626953
4704,56.4375,-17.5625,19.5625,0.3417969,-0.1230469,-0.2705078,0.1582031,0.1162109,-0.269043
4708,20.3125,37.3125,18.9375,0.3730469,-0.07617188,-0.3632813,0.1606445,0.1098633,-0.2734375
4712,-12.875,74.8125,16,0.2026367,-0.1420898,-0.5898438,0.1616211,0.1088867,-0.2680664
4716,-44.125,108.9375,19.3125,0.1635742,-0.1655273,-0.7133789,0.1699219,0.1088867,-0.2636719
4720,-73.9375,136.625,8.5625,-0.002441406,-0.2548828,-0.8208008,0.1782227,0.1137695,-0.2543945
4724,-99.3125,155.8125,-10.1875,-0.01025391,-0.3173828,-0.8862305,0.1855469,0.1162109,-0.2460938
4728,-128.875,196.6875,-23.8125,0.008789063,-0.3286133,-0.9208984,0.1938477,0.1274414,-0.230957
4732,-160.25,250.1875,-25.3125,-0.09521484,-0.4140625,-0.9941406,0.2055664,0.1347656,-0.2094727
4736,-189.3125,312.6875,-9.3125,-0.2700195,-0.5151367,-1.078613,0.2138672,0.1411133,-0.1904297
4740,-208.75,373.75,19.0625,-0.6342773,-0.7172852,-1.128418,0.2294922,0.1499023,-0.1591797
4744,-216,410.25,31.625,-1.087402,-0.9506836,-1.128418,0.2412109,0.1577148,-0.1142578
4748,-206.6875,400.25,9.6875,-1.424316,-1.11377,-1.147949,0.2460938,0.1586914,-0.08300781
4752,-214.9375,398.25,-12.3125,-1.277344,-0.9116211,-1.020996,0.25,0.1611328,-0.03955078
4756,-258.5,439.3125,-4.75,-1.490234,-0.8574219,-1.125,0.2475586,0.1625977,0.006347656
4761,-315.4375,481.875,36.625,-1.684082,-0.7832031,-1.463379,0.2412109,0.1586914,0.04199219
4765,-361.25,517.0625,82.375,-1.924316,-0.9697266,-1.713379,0.2319336,0.1450195,0.09912109
4769,-347.25,497.5625,86.25,-2.261719,-1.37793,-1.770996,0.2128906,0.1235352,0.15625
4773,-294.9375,449.25,77.125,-2.408691,-1.618652,-1.540039,0.1948242,0.1088867,0.1845703
4777,-217.625,379.5,52.5,-2.195801,-1.603027,-1.348145,0.1699219,0.08642578,0.2211914
4781,-159.875,353.75,54.0625,-1.92041,-1.354492,-1.336426,0.144043,0.06884766,0.2485352
4785,-126.0625,337.4375,67.125,-1.850586,-1.040039,-1.45166,0.1259766,0.05859375,0.262207
4789,-118.625,310.5,69.5625,-1.769531,-0.7602539,-1.563477,0.09863281,0.04736328,0.2773438
4793,-131.0625,282.75,56.9375,-1.65332,-0.6240234,-1.628906,0.07226563,0.03271484,0.2895508
4797,-143.875,254.3125,41.625,-1.525391,-0.6552734,-1.571289,0.0546875,0.02246094,0.2949219
4801,-143.3125,232.25,33.0625,-1.428223,-0.7792969,-1.409668,0.03076172,0.008789063,0.3032227
4805,-123.6875,210.9375,29.375,-1.304199,-0.8764648,-1.26709,0.01171875,-0.005859375,0.3071289
4809,-98.8125,196.0625,29.5625,-1.114746,-0.8881836,-1.170898,-0.003417969,-0.01318359,0.3100586
4813,-67.5,180.125,23.125,-0.9287109,-0.8378906,-1.109375,-0.02246094,-0.02197266,0.3100586
4817,-42,167.375,20.0625,-0.746582,-0.7172852,-1.105469,-0.04003906,-0.02832031,0.3085938
4821,-26.8125,157.3125,11.375,-0.5795898,-0.5229492,-1.132324,-0.05078125,-0.02929688,0.3071289
4825,-28.625,155.3125,-0.375,-0.4169922,-0.3134766,-1.197754,-0.06494141,-0.03320313,0.3041992
4829,-40.625,151.5625,1.4375,-0.4482422,-0.3520508,-1.228516,-0.08056641,-0.03466797,0.3032227
4833,-34,142.625,5.4375,-0.2041016,-0.387207,-1.20166,-0.09130859,-0.03808594,0.3017578
4837,-20.9375,148.5,8.3125,0.0009765625,-0.2900391,-1.26709,-0.1054688,-0.04199219,0.2963867
4841,-36.3125,173.6875,-2,0.1948242,-0.05664063,-1.413086,-0.1201172,-0.04296875,0.2919922
4845,-83.3125,202.8125,-29.4375,-0.01806641,0.02441406,-1.428711,-0.1303711,-0.046875,0.2866211
4849,-123.5,199.375,-35.5625,-0.5063477,-0.2587891,-1.147949,-0.1484375,-0.05712891,0.2783203
4853,-117.875,173.625,-27.1875,-0.6689453,-0.5268555,-0.7670898,-0.1665039,-0.07080078,0.2675781
4857,-83.3125,157.8125,11.6875,-0.6186523,-0.7290039,-0.4707031,-0.1772461,-0.07568359,0.2636719
4861,-42.3125,149.6875,48.625,-0.6376953,-0.8496094,-0.1860352,-0.1899414,-0.08300781,0.2524414
4865,5.1875,123.8125,50.1875,-0.4594727,-0.6552734,-0.05517578,-0.203125,-0.07958984,0.2446289
4869,24.5625,88.75,14.1875,-0.4482422,-0.3208008,-0.09765625,-0.2080078,-0.078125,0.2392578
4873,6.3125,44.75,-25.625,-0.5253906,-0.03759766,-0.1860352,-0.2138672,-0.07568359,0.2348633
4877,-1.4375,-4.375,-41.875,-0.4404297,-0.2084961,-0.2553711,-0.2138672,-0.07714844,0.2324219
4881,17.25,-10.875,-19,-0.02587891,-0.3134766,-0.2475586,-0.215332,-0.08056641,0.2348633
4885,34.1875,14.875,13.9375,0.0009765625,-0.1811523,-0.3051758,-0.2138672,-0.08056641,0.2348633
4890,26,5.6875,20.5625,-0.2192383,-0.002441406,-0.3666992,-0.2163086,-0.07421875,0.237793
4894,9.625,-26.875,3.3125,-0.2543945,-0.05664063,-0.324707,-0.215332,-0.07324219,0.2333984
4898,9.1875,-55,-8.0625,-0.1845703,-0.3173828,-0.2744141,-0.2128906,-0.07324219,0.2348633
4902,30.1875,-68.8125,-8.5625,-0.1459961,-0.4140625,-0.2592773,-0.2089844,-0.07177734,0.2416992
4906,52.6875,-83.0625,-1.9375,-0.2080078,-0.4101563,-0.3476563,-0.2045898,-0.07080078,0.2431641
4910,68.125,-95.8125,3.25,-0.2119141,-0.3095703,-0.4321289,-0.1982422,-0.06445313,0.25
4914,69.625,-106.25,9.6875,-0.3510742,-0.2900391,-0.4667969,-0.1889648,-0.05810547,0.2553711
4918,71.125,-127.1875,10.0625,-0.5488281,-0.387207,-0.4477539,-0.1816406,-0.0546875,0.2592773
4922,85.75,-156.8125,10.4375,-0.6494141,-0.5424805,-0.5131836,-0.1708984,-0.046875,0.269043
4926,116.375,-187.75,7.8125,-0.5644531,-0.6435547,-0.644043,-0.1557617,-0.03955078,0.2758789
4930,144.375,-196,13.0625,-0.3823242,-0.6123047,-0.8476563,-0.1450195,-0.02929688,0.2797852
4934,153.125,-184.6875,31.25,-0.4750977,-0.5698242,-0.9516602,-0.128418,-0.015625,0.2880859
4938,149.9375,-185.1875,43.875,-0.7036133,-0.5073242,-0.9980469,-0.109375,0.001464844,0.293457
4942,139.0625,-204.4375,41.125,-0.9130859,-0.5,-1.013184,-0.09716797,0.01025391,0.2949219
4946,136.8125,-245.75,27.75,-0.9868164,-0.6201172,-1.101563,-0.07568359,0.02734375,0.2963867
4950,137.1875,-273.8125,12.0625,-0.9287109,-0.6748047,-1.186523,-0.04980469,0.03857422,0.2973633
4954,143,-295.625,13.25,-1.037109,-0.8999023,-1.228516,-0.03320313,0.04882813,0.2949219
4958,158.5625,-302.75,13.9375,-0.8237305,-0.9853516,-1.317383,-0.001953125,0.06494141,0.2949219
4962,162.4375,-270.1875,22.75,-0.6416016,-0.9506836,-1.297852,0.02587891,0.07861328,0.2841797
4966,161.375,-246.0625,30.125,-0.8974609,-0.9389648,-1.259277,0.04248047,0.08886719,0.2797852
4970,152.8125,-254.0625,24.4375,-1.165039,-1.004883,-1.19043,0.06542969,0.1025391,0.2661133
4974,151.9375,-278.4375,8.3125,-1.315918,-1.11377,-1.155762,0.09033203,0.1152344,0.2514648
4978,162.5,-298.5,3.9375,-1.420898,-1.296387,-1.047852,0.1044922,0.1210938,0.2402344
4982,189.375,-314.5,15.0625,-1.393555,-1.381836,-1.040039,0.1269531,0.1347656,0.21875
4986,207.625,-306.875,35.125,-1.253906,-1.319336,-1.13623,0.1499023,0.1459961,0.1914063
4990,202.8125,-284.25,45.875,-1.145508,-1.164063,-1.13623,0.1674805,0.15625,0.1738281
4994,184.25,-264,42.125,-1.125977,-1.090332,-1.063477,0.1879883,0.1611328,0.1479492
4998,166.5,-258.1875,33.6875,-1.20752,-1.024414,-0.9326172,0.199707,0.1689453,0.1191406
5002,151.25,-271.875,23.25,-1.358887,-1.05127,-0.8286133,0.2094727,0.1723633,0.1000977
5006,146.25,-285.25,24.4375,-1.265625,-1.074707,-0.6748047,0.2177734,0.1748047,0.07324219
5010,147.375,-280.25,37.375,-1.187988,-1.074707,-0.5170898,0.2285156,0.1762695,0.04199219
5014,147.8125,-272.1875,42.125,-1.28125,-1.086426,-0.4169922,0.234375,0.1748047,0.02148438
5019,143.4375,-272.125,39.8125,-1.304199,-0.9931641,-0.3745117,0.2392578,0.1738281,-0.006835938
5023,128,-281.625,25.125,-1.289063,-0.8105469,-0.2978516,0.2412109,0.1713867,-0.03515625
5027,105.9375,-294.5625,8.5,-1.242188,-0.7871094,-0.2324219,0.2412109,0.1689453,-0.05712891
5031,95.1875,-292.1875,7.75,-1.071777,-0.8027344,-0.09375,0.2412109,0.1650391,-0.08447266
5035,104.5,-278.6875,18.1875,-1.005859,-0.9853516,-0.03613281,0.234375,0.1625977,-0.112793
5039,113.6875,-258.8125,26.0625,-0.8935547,-0.8613281,0.001953125,0.2319336,0.1601563,-0.1303711
5043,110.8125,-249.5625,19.5,-0.9438477,-0.6977539,0.001953125,0.2260742,0.1538086,-0.15625
5047,91.875,-254.6875,6.5,-0.9438477,-0.6162109,0.09423828,0.2177734,0.1474609,-0.1796875
5051,81.625,-258.8125,-4.25,-0.8818359,-0.6748047,0.2172852,0.2094727,0.1459961,-0.1958008
5055,83,-250.75,-0.375,-0.746582,-0.7680664,0.2290039,0.1948242,0.1411133,-0.2163086
5059,100.1875,-227.8125,19.1875,-0.4750977,-0.7563477,0.1020508,0.1821289,0.1337891,-0.2353516
5063,98.4375,-187.125,26.8125,-0.28125,-0.4960938,0.01708984,0.1738281,0.1289063,-0.2475586
5067,80.375,-166.25,12.0625,-0.3203125,-0.3325195,-0.07080078,0.1616211,0.1225586,-0.2636719
5071,55.125,-164,-5.375,-0.3354492,-0.2548828,-0.2055664,0.1499023,0.1152344,-0.2734375
5075,31.8125,-160.1875,-15.25,-0.1381836,-0.2241211,-0.3129883,0.1416016,0.1123047,-0.2802734
5079,18.4375,-125.6875,-3.75,0.1791992,-0.2900391,-0.2939453,0.128418,0.1123047,-0.2895508
5083,3.1875,-70.75,15.375,0.2993164,-0.1967773,-0.4130859,0.1210938,0.1113281,-0.2924805
5087,-24.0625,-17.75,28.1875,0.4077148,-0.07226563,-0.4785156,0.1176758,0.1113281,-0.2949219
5091,-52.875,32.1875,31.875,0.2607422,-0.1499023,-0.5478516,0.1186523,0.1152344,-0.2924805
5095,-71.625,55.9375,18.375,0.125,-0.2314453,-0.644043,0.1225586,0.1162109,-0.2895508
5099,-92.1875,77.6875,-1.3125,0.159668,-0.1772461,-0.7133789,0.1269531,0.1201172,-0.2856445
5103,-124.0625,118,-10.3125,0.1870117,-0.1577148,-0.7978516,0.1342773,0.1289063,-0.2749023
5107,-156.0625,171.3125,-4.125,0.07861328,-0.2548828,-0.8823242,0.144043,0.1376953,-0.2597656
5111,-182.375,232.9375,12.1875,-0.01416016,-0.3911133,-0.8901367,0.1523438,0.1459961,-0.2475586
5115,-200.0625,299.5625,31.875,-0.2001953,-0.5737305,-0.9516602,0.1689453,0.1586914,-0.2231445
5119,-212.4375,353.5625,35.375,-0.5102539,-0.7988281,-1.001465,0.1865234,0.1660156,-0.1904297
5123,-218.875,377.4375,23.3125,-0.8974609,-0.9970703,-1.055664,0.199707,0.1738281,-0.1660156
5127,-226.75,376.3125,-8,-1.118652,-1.066895,-1.097656,0.2138672,0.1811523,-0.1289063
5131,-243,387.625,-22.0625,-1.168945,-1.121582,-1.066895,0.2202148,0.1884766,-0.08544922
5135,-267.625,418.9375,-5.25,-1.335449,-1.175781,-1.125,0.222168,0.1899414,-0.05273438
5139,-279.375,452.6875,30.75,-1.691895,-1.486816,-1.147949,0.2202148,0.1923828,-0.00390625
5143,-268.4375,458.625,58.25,-2.184082,-1.719727,-1.101563,0.2202148,0.1860352,0.04296875
5148,-230.875,375.1875,12.6875,-2.552246,-1.890625,-1.074707,0.2119141,0.1787109,0.07568359
5152,-197.1875,305.75,-26.75,-2.052246,-1.805176,-0.8901367,0.1987305,0.1713867,0.1137695
5156,-190.25,318.375,-12.375,-1.711426,-1.64209,-0.9360352,0.184082,0.1660156,0.1450195
5160,-187.25,351.3125,31,-1.788574,-1.583984,-1.043945,0.1699219,0.1577148,0.1655273
5164,-184,377.0625,80.375,-1.862305,-1.389648,-1.19043,0.1523438,0.1459961,0.1953125
5168,-198.0625,368.9375,77.1875,-2.172363,-1.308105,-1.163086,0.1293945,0.1274414,0.2211914
5172,-185.8125,273.75,16.625,-2.396973,-1.618652,-1.001465,0.1142578,0.1176758,0.237793
5176,-162.4375,207.25,-14.625,-1.765625,-1.568359,-0.7402344,0.09619141,0.1025391,0.2553711
5180,-140,214.1875,0.75,-1.261719,-1.467285,-0.7324219,0.07470703,0.08984375,0.269043
5184,-109.75,222.9375,17.125,-1.149414,-1.338867,-0.9399414,0.06298828,0.08007813,0.2758789
5188,-91.1875,231.0625,32.4375,-0.8706055,-1.11377,-1.051758,0.04394531,0.07128906,0.2851563
5192,-85.1875,245,34.875,-0.6264648,-0.7832031,-1.209473,0.02246094,0.0625,0.2919922
5196,-107.1875,250.0625,20.625,-0.6186523,-0.5463867,-1.336426,0.008300781,0.05859375,0.2949219
5200,-131.375,246.6875,6.6875,-0.6533203,-0.5,-1.359375,-0.01611328,0.04492188,0.2973633
5204,-149.875,239,5,-0.7734375,-0.581543,-1.340332,-0.04150391,0.03125,0.3017578
5208,-149.125,224.9375,10.5625,-0.715332,-0.6708984,-1.274902,-0.05566406,0.02246094,0.300293
5212,-146.3125,225.5,18.3125,-0.5024414,-0.6396484,-1.205566,-0.07714844,0.006347656,0.300293
5216,-150.0625,223.8125,13.0625,-0.4482422,-0.5307617,-1.205566,-0.09863281,-0.005859375,0.2963867
5220,-163.875,226.125,12.1875,-0.4169922,-0.4804688,-1.105469,-0.112793,-0.01708984,0.293457
5224,-168.625,225.25,19.25,-0.5102539,-0.5424805,-0.9785156,-0.1328125,-0.03076172,0.2851563
5228,-148.9375,215.8125,36.9375,-0.4985352,-0.6357422,-0.8017578,-0.1533203,-0.046875,0.2773438
