Packet number,Gyroscope X (deg/s),Gyroscope Y (deg/s),Gyroscope Z (deg/s),Accelerometer X (g),Accelerometer Y (g),Accelerometer Z (g),Magnetometer X (G),Magnetometer Y (G),Magnetometer Z (G)
0,-1.5625,1.625,-1.5625,-0.9052734,0.3271484,0.05957031,0.2558594,-0.2519531,-0.1005859
4,-2.125,1.625,-1.25,-0.9130859,0.3310547,0.08642578,0.2568359,-0.2519531,-0.1005859
8,-1.4375,1.3125,-0.125,-0.9208984,0.315918,0.07519531,0.2543945,-0.2529297,-0.09912109
12,-0.1875,1.375,1.375,-0.9091797,0.3271484,0.08642578,0.2583008,-0.2519531,-0.09912109
16,0.25,1.0625,1,-0.9208984,0.3232422,0.08642578,0.2568359,-0.2519531,-0.1005859
20,1.25,1.375,0.6875,-0.9169922,0.3193359,0.09033203,0.2568359,-0.2504883,-0.09912109
24,0.625,1.875,0.1875,-0.9052734,0.3271484,0.08251953,0.2568359,-0.2519531,-0.09912109
28,-0.6875,1.5,-0.5625,-0.9130859,0.3271484,0.08251953,0.2568359,-0.2529297,-0.09912109
32,-0.75,1.6875,-0.8125,-0.9169922,0.3081055,0.08251953,0.2583008,-0.2529297,-0.1005859
36,0,1.1875,-0.5625,-0.9287109,0.3120117,0.1020508,0.2568359,-0.2543945,-0.09912109
40,0.9375,0.5625,-0.4375,-0.9287109,0.3081055,0.1098633,0.2558594,-0.2543945,-0.09912109
44,4,0.5625,0.25,-0.9208984,0.2768555,0.1289063,0.2568359,-0.2543945,-0.1005859
48,8.0625,2.25,0.5,-0.8974609,0.300293,0.1171875,0.2558594,-0.2529297,-0.09912109
52,6.75,0.125,-0.9375,-0.9130859,0.3349609,0.09814453,0.2558594,-0.2543945,-0.09912109
56,2.375,-2.125,-1.9375,-0.9091797,0.3427734,0.07910156,0.2568359,-0.2529297,-0.09667969
60,0.4375,-3.25,-1.5,-0.9091797,0.3120117,0.09033203,0.2568359,-0.2519531,-0.09765625
64,3.3125,-2.9375,-2.875,-0.9013672,0.3081055,0.1020508,0.2558594,-0.2529297,-0.09765625
68,8.3125,-2.375,-1.9375,-0.9169922,0.2885742,0.1020508,0.2583008,-0.2529297,-0.09667969
72,13.5625,0.375,0,-0.9130859,0.3232422,0.08251953,0.2583008,-0.2519531,-0.09765625
76,11.5,-0.125,0.8125,-0.9365234,0.3623047,0.05957031,0.2558594,-0.2519531,-0.09765625
80,7.3125,-2.0625,1.25,-0.9365234,0.3505859,0.05175781,0.2568359,-0.2529297,-0.09765625
84,5.125,-1.9375,1.5,-0.9326172,0.3505859,0.05957031,0.2583008,-0.2529297,-0.09667969
88,6.8125,-1.625,2.625,-0.9287109,0.3427734,0.07519531,0.2583008,-0.2543945,-0.09765625
92,11.3125,-1.625,6.75,-0.9633789,0.3466797,0.09033203,0.2558594,-0.2558594,-0.09667969
96,16.1875,0.875,10.8125,-0.9287109,0.3701172,0.08642578,0.2583008,-0.2568359,-0.09667969
100,22.0625,3.0625,14.5625,-0.9633789,0.4086914,0.1020508,0.2568359,-0.2558594,-0.09375
104,22,1.9375,20.6875,-0.9985352,0.4829102,0.08251953,0.2558594,-0.2583008,-0.09375
108,19.875,-1.8125,27.5625,-1.044922,0.4946289,0.09423828,0.2543945,-0.2607422,-0.09082031
112,24.25,-5.5,34.625,-1.056641,0.5175781,0.1635742,0.2509766,-0.2641602,-0.08837891
116,29.875,-9.875,40.9375,-1.071777,0.5410156,0.1674805,0.2509766,-0.2670898,-0.08984375
120,34.5625,-14.25,45.5,-1.048828,0.5761719,0.1713867,0.2475586,-0.2680664,-0.08837891
125,35.75,-17.375,46.6875,-1.013672,0.6342773,0.140625,0.2451172,-0.2719727,-0.08691406
129,37.3125,-18.8125,48.6875,-1.001953,0.6616211,0.125,0.2392578,-0.2768555,-0.08837891
133,34.5,-15.8125,53.1875,-0.9477539,0.6923828,0.07910156,0.2402344,-0.2783203,-0.08300781
137,30.3125,-13.5625,61.8125,-0.9287109,0.7314453,0.07128906,0.2329102,-0.2841797,-0.08544922
141,25.5625,-11.5625,72.875,-1.052734,0.6264648,0.07519531,0.230957,-0.2919922,-0.08544922
145,23.3125,-18.1875,80.75,-0.9672852,0.7236328,0.1674805,0.2270508,-0.2954102,-0.08300781
149,27.0625,-19.75,76.5,-0.9594727,0.6499023,0.1748047,0.2211914,-0.3032227,-0.08300781
153,37.5625,-19.5625,79.5625,-1.009766,0.6616211,0.1826172,0.2177734,-0.3066406,-0.08154297
157,49.9375,-20.125,88.1875,-1.106934,0.7197266,0.1787109,0.2119141,-0.3129883,-0.07763672
161,60.875,-21.1875,111.25,-1.203613,0.8984375,0.1171875,0.2055664,-0.3178711,-0.07763672
165,53.9375,-22.9375,133.625,-1.219238,1.13916,-0.02832031,0.1962891,-0.3266602,-0.07177734
169,23.375,-19.3125,157.6875,-1.15332,1.302734,-0.1782227,0.1865234,-0.3320313,-0.07177734
173,1.1875,-10.5,176.25,-1.103027,1.108398,-0.128418,0.1738281,-0.3432617,-0.07177734
177,-2.8125,-0.5625,192.5,-1.095215,0.9956055,-0.06689453,0.1582031,-0.3544922,-0.07470703
181,-5.8125,3.4375,202.5625,-1.044922,0.972168,-0.04394531,0.1459961,-0.3579102,-0.07080078
185,-12.1875,0.5,203.875,-1.017578,0.953125,-0.02441406,0.128418,-0.3681641,-0.07470703
189,-13.875,-4.5625,210.3125,-1.009766,0.8710938,0.01708984,0.109375,-0.3730469,-0.07617188
193,-17,-10.5625,218.125,-0.9248047,0.90625,-0.009277344,0.09521484,-0.3769531,-0.07763672
197,-33.25,-10,219.9375,-0.7387695,0.8520508,-0.04394531,0.07470703,-0.3857422,-0.07861328
201,-35.375,-4.875,209.8125,-0.7114258,0.7973633,0.02490234,0.05078125,-0.3857422,-0.08154297
205,-30.1875,-3.1875,211.0625,-0.6845703,0.824707,0.03662109,0.04052734,-0.3881836,-0.08447266
209,-30.5625,-2.875,209.625,-0.6533203,0.8442383,0.001953125,0.01757813,-0.3891602,-0.08691406
213,-30.125,-6.625,208.4375,-0.6728516,0.9296875,0.03271484,-0.001953125,-0.3881836,-0.08984375
217,-36.625,-5.625,214.75,-0.5913086,0.9335938,-0.001464844,-0.01757813,-0.3857422,-0.09082031
221,-34.5625,-4.4375,209.125,-0.5371094,0.8984375,0.06738281,-0.03759766,-0.3857422,-0.09667969
225,-35.25,-11.5,204.1875,-0.5834961,1.01123,0.06738281,-0.05810547,-0.3803711,-0.1005859
229,-35.125,-18.625,205.0625,-0.5292969,0.987793,0.1020508,-0.07324219,-0.3769531,-0.1035156
233,-19.125,-13.75,217.625,-0.4711914,0.987793,0.159668,-0.09228516,-0.3691406,-0.1044922
237,-8.5,-7,233.1875,-0.4443359,1.06543,0.1020508,-0.112793,-0.3603516,-0.1044922
241,-19.625,-6,244.75,-0.3935547,1.108398,0.03662109,-0.1293945,-0.3530273,-0.1035156
245,-34.5625,-12.5,247.0625,-0.3354492,1.003418,0.05175781,-0.1508789,-0.3417969,-0.105957
249,-32.8125,-6.1875,249.375,-0.07226563,0.7392578,0.1518555,-0.1723633,-0.328125,-0.1074219
254,-27.1875,0,240.8125,-0.1069336,0.777832,0.1674805,-0.1855469,-0.3178711,-0.1088867
258,-33,-6.1875,237.4375,-0.1533203,0.8520508,0.1826172,-0.203125,-0.3007813,-0.1113281
262,-19.1875,-4.25,246.125,-0.1069336,0.7973633,0.3017578,-0.222168,-0.2841797,-0.1113281
266,-8.5625,-0.375,257.8125,-0.1381836,0.9682617,0.1826172,-0.2329102,-0.2705078,-0.112793
270,-28.3125,-1.8125,278.4375,-0.05664063,0.8710938,0.09814453,-0.2495117,-0.2504883,-0.112793
274,-54.375,-2.375,276.75,0.1484375,0.6264648,0.04052734,-0.2661133,-0.2270508,-0.112793
278,-93.625,-5.4375,259.8125,0.1870117,0.4165039,-0.009277344,-0.2758789,-0.2070313,-0.1166992
282,-113.875,-16.875,240.4375,0.2724609,0.05517578,0.06347656,-0.2890625,-0.1831055,-0.1181641
286,-116.875,-20.125,225.125,0.3691406,-0.4140625,0.03271484,-0.2958984,-0.1557617,-0.1210938
290,-74.4375,-18.5,222.625,0.4736328,-0.8842773,0.1557617,-0.3017578,-0.1381836,-0.1225586
294,-57.75,-32,194.6875,0.690918,-1.475098,0.2368164,-0.309082,-0.1142578,-0.1210938
298,-26.25,-28.6875,142.875,1.035645,-1.871094,0.2290039,-0.3115234,-0.09570313,-0.1181641
302,9.5,-13.4375,64.9375,1.209961,-1.859863,0.1865234,-0.3125,-0.08837891,-0.1181641
306,23.1875,-18.125,-17.5,0.9814453,-1.393555,0.08642578,-0.3139648,-0.08300781,-0.1166992
310,36.1875,-24.125,-72,0.8769531,-0.9775391,0.1171875,-0.3139648,-0.09082031,-0.1142578
314,56.25,-21.75,-102.875,0.7099609,-0.6279297,0.1132813,-0.3139648,-0.09570313,-0.112793
318,67.8125,-21.4375,-115,0.609375,-0.3017578,0.02880859,-0.3125,-0.1083984,-0.1088867
322,63.25,-13.5625,-123,0.659668,-0.1420898,-0.07080078,-0.3115234,-0.1230469,-0.105957
326,49.6875,-8.5,-137.5,0.609375,-0.1230469,-0.05126953,-0.3105469,-0.1318359,-0.1044922
330,45.375,-11.5,-160.8125,0.5395508,-0.2006836,0.09814453,-0.3032227,-0.1479492,-0.1020508
334,63,-10.1875,-185.5625,0.4853516,-0.2202148,0.2172852,-0.2983398,-0.1645508,-0.1005859
338,78.4375,-13.75,-206.75,0.3339844,-0.01025391,0.1171875,-0.2973633,-0.1782227,-0.09765625
342,76.0625,-15.25,-214.8125,0.1870117,0.2885742,-0.001464844,-0.2866211,-0.2006836,-0.09228516
346,51.75,-11.125,-213.875,0.1557617,0.5097656,-0.1245117,-0.2744141,-0.2216797,-0.08837891
350,28.8125,14.75,-217.5625,0.1870117,0.4165039,0.03662109,-0.2700195,-0.2368164,-0.08544922
354,0.3125,0.0625,-249.6875,-0.002441406,0.4399414,0.009765625,-0.2553711,-0.2529297,-0.08837891
358,-4.625,-20.6875,-290.3125,-0.07617188,0.3310547,0.1865234,-0.2363281,-0.2753906,-0.08691406
362,26.9375,-25,-305.3125,-0.3007813,0.5644531,0.1020508,-0.2246094,-0.2905273,-0.08447266
366,16.75,-19.0625,-273.8125,-0.4829102,1.240234,-0.1899414,-0.203125,-0.3120117,-0.08300781
370,-39.75,-11.125,-247.1875,-0.3901367,1.291016,-0.2089844,-0.1816406,-0.3291016,-0.08154297
374,-63.875,6.5,-239.125,-0.296875,0.875,0.08642578,-0.168457,-0.3369141,-0.08544922
378,-41.5625,13.3125,-255.25,-0.3510742,0.4672852,0.3212891,-0.1474609,-0.3491211,-0.09082031
383,19.625,19.125,-275.0625,-0.4482422,0.3427734,0.4790039,-0.1210938,-0.359375,-0.09228516
387,60,11.8125,-270.6875,-0.9555664,1.026855,0.1982422,-0.1044922,-0.3666992,-0.09375
391,17.1875,7.25,-224.5,-0.8432617,1.493164,-0.07861328,-0.078125,-0.3769531,-0.08691406
395,-12.0625,18.5625,-198.75,-0.6108398,1.007324,0.06347656,-0.06054688,-0.3818359,-0.08837891
399,-0.625,38.5,-198.75,-0.6264648,0.8325195,0.08251953,-0.04492188,-0.3842773,-0.08984375
403,4.25,36.375,-213.9375,-0.6728516,0.7080078,0.1367188,-0.02490234,-0.3857422,-0.09082031
407,18.5625,31.0625,-236.1875,-0.7929688,0.7431641,0.159668,-0.0009765625,-0.3881836,-0.08691406
411,5.1875,20.6875,-228.9375,-1.044922,1.174316,-0.07080078,0.01513672,-0.3891602,-0.08691406
415,-38.5,24.5625,-199.3125,-0.9438477,1.17041,-0.109375,0.03662109,-0.3867188,-0.08691406
419,-65.875,43.3125,-186.1875,-0.7851563,0.8632813,-0.08984375,0.05566406,-0.3803711,-0.09228516
423,-53.625,69.25,-188.3125,-0.8974609,0.6772461,0.08251953,0.06982422,-0.3803711,-0.09375
427,-24.5,73.6875,-202,-1.091309,0.9179688,0.1132813,0.08789063,-0.3754883,-0.09912109
431,-26.1875,57.25,-213.625,-1.300781,1.36084,0.1020508,0.1103516,-0.3681641,-0.09667969
435,-46.6875,41.9375,-201.25,-1.370117,1.376465,0.2133789,0.1235352,-0.3632813,-0.09912109
439,-37.6875,40.1875,-178.6875,-1.315918,1.182129,0.375,0.1401367,-0.3520508,-0.1035156
443,-13.9375,37,-162.5625,-1.269531,1.108398,0.3789063,0.1582031,-0.3457031,-0.1020508
447,7.375,25.5,-155.375,-1.223145,1.104492,0.3017578,0.1665039,-0.3369141,-0.1020508
451,22,12.875,-150,-1.137695,1.17041,0.2329102,0.1796875,-0.3291016,-0.1005859
455,30.0625,4.9375,-139.375,-1.075684,1.209473,0.2172852,0.1928711,-0.3217773,-0.09521484
459,41.0625,-0.75,-120.25,-1.083496,1.255859,0.2172852,0.1987305,-0.3154297,-0.09667969
463,42.5625,-8.8125,-88.375,-1.056641,1.380371,0.1518555,0.2055664,-0.3095703,-0.09228516
467,36.25,-2.9375,-53.875,-0.9248047,1.384277,0.1289063,0.2119141,-0.3066406,-0.08984375
471,27.625,2.5625,-27.3125,-0.831543,1.364746,0.1210938,0.215332,-0.3041992,-0.08837891
475,15.5625,4,-10.5625,-0.796875,1.353027,0.1367188,0.215332,-0.3017578,-0.08837891
479,9.75,1.4375,6.5625,-0.8432617,1.306641,0.2172852,0.215332,-0.3056641,-0.08544922
483,11.9375,2.375,31.8125,-0.8706055,1.251953,0.2749023,0.215332,-0.3056641,-0.08447266
487,17.1875,3.125,57.0625,-0.8974609,1.236328,0.2905273,0.2128906,-0.3081055,-0.08447266
491,22.1875,-1.5625,77.1875,-0.9130859,1.217285,0.3212891,0.2094727,-0.3120117,-0.08300781
495,31.4375,-11.5625,92.0625,-0.9326172,1.228516,0.3134766,0.2021484,-0.3178711,-0.07763672
499,40.25,-22.25,108.875,-0.9750977,1.259766,0.2636719,0.1972656,-0.3217773,-0.08007813
503,46.875,-27.1875,125.3125,-0.9790039,1.302734,0.2060547,0.1879883,-0.3320313,-0.07617188
507,47.5625,-32.8125,140.3125,-1.025391,1.325684,0.1210938,0.1806641,-0.3369141,-0.07324219
512,42.125,-30.9375,158.6875,-1.041016,1.325684,0.03662109,0.1674805,-0.3457031,-0.07470703
516,32.375,-31.125,172.3125,-1.067871,1.267578,0.02490234,0.1523438,-0.3530273,-0.07177734
520,22.75,-36.4375,175.5625,-1.067871,1.228516,0.02099609,0.1425781,-0.3579102,-0.06933594
524,17.375,-50,169,-1.063965,1.146973,0.06347656,0.125,-0.3681641,-0.06787109
528,22,-61.375,158.8125,-1.095215,1.189941,0.07128906,0.109375,-0.3706055,-0.07080078
532,39.25,-58,168.75,-1.033203,1.174316,0.02490234,0.09863281,-0.3769531,-0.07080078
536,47.8125,-27.75,200.6875,-0.9985352,1.477539,-0.1669922,0.08300781,-0.3818359,-0.06640625
540,15.25,-14,216.3125,-1.029297,1.450195,-0.2436523,0.06054688,-0.3867188,-0.06396484
544,-12.625,-18.4375,213.0625,-0.9750977,1.124023,-0.1015625,0.04638672,-0.390625,-0.06542969
548,-3.125,-5.3125,215.5,-0.831543,0.9179688,0.05175781,0.02587891,-0.390625,-0.06542969
552,-1.875,-1.4375,217.625,-0.8354492,0.9453125,-0.005371094,0.003417969,-0.3930664,-0.06396484
556,0.1875,7.6875,230.25,-0.730957,0.8012695,0.1020508,-0.01269531,-0.3930664,-0.06396484
560,2,9.875,229.9375,-0.6962891,0.8671875,0.06738281,-0.03417969,-0.390625,-0.06640625
564,-16.8125,3.3125,222.1875,-0.6303711,0.890625,0.04052734,-0.05810547,-0.3867188,-0.06640625
568,-32.8125,3.625,214.75,-0.5332031,0.8442383,0.05957031,-0.07226563,-0.3833008,-0.06640625
572,-31.4375,5.4375,214.25,-0.5024414,0.7587891,0.1098633,-0.09375,-0.3754883,-0.06933594
576,-26.3125,8,214.75,-0.4404297,0.7817383,0.07128906,-0.1137695,-0.3657227,-0.07080078
580,-32.8125,12.375,222.6875,-0.3974609,0.855957,0.001953125,-0.1245117,-0.3603516,-0.07617188
584,-42.9375,7.875,221,-0.3354492,0.7001953,0.05957031,-0.1459961,-0.3491211,-0.07763672
588,-37.75,3.0625,213.25,-0.2231445,0.5761719,0.1479492,-0.1650391,-0.3408203,-0.08300781
592,-18.0625,10.4375,210.625,-0.1962891,0.6884766,0.1787109,-0.1772461,-0.3291016,-0.08447266
596,-15.6875,8.875,216.0625,-0.2504883,0.8325195,0.1518555,-0.1938477,-0.3168945,-0.08544922
600,-11.5,9.4375,229.5625,-0.2001953,0.8286133,0.1904297,-0.2114258,-0.3017578,-0.08837891
604,4.125,10.5625,237.75,-0.09521484,0.8671875,0.2402344,-0.2211914,-0.2919922,-0.08837891
608,4.3125,12,248.6875,-0.1264648,1.061523,0.1367188,-0.237793,-0.2729492,-0.08837891
612,-12.4375,3.5,254.75,-0.06835938,1.088867,0.09033203,-0.2553711,-0.2529297,-0.08837891
616,-20.4375,1.875,258.5625,0.01269531,0.9995117,0.159668,-0.2661133,-0.2382813,-0.08837891
620,-26.125,-0.8125,265.3125,-0.02978516,0.875,0.140625,-0.2807617,-0.2143555,-0.09082031
624,-6.3125,0.5625,277.625,0.07861328,0.5761719,0.2441406,-0.2924805,-0.1879883,-0.09082031
628,-9.6875,-3.3125,285.8125,0.07080078,0.4985352,0.07519531,-0.3007813,-0.1704102,-0.09228516
632,-51.0625,-11,281.5,0.190918,0.1992188,-0.05908203,-0.309082,-0.1396484,-0.09082031
636,-82.75,-15.75,266.5,0.3339844,-0.5151367,-0.001464844,-0.3164063,-0.1118164,-0.08984375
641,-110.25,-17.1875,245.75,0.3613281,-1.463379,-0.1591797,-0.3198242,-0.09326172,-0.09082031
645,-100.9375,-10.5625,194.1875,0.8457031,-2.298828,-0.005371094,-0.3232422,-0.06835938,-0.08691406
649,-40.75,11.125,121.9375,1.19043,-3.013672,0.2060547,-0.324707,-0.046875,-0.08691406
653,22.25,10.0625,-3.9375,1.128418,-2.578613,0.2558594,-0.3222656,-0.04199219,-0.08984375
657,75.9375,-5.875,-101.3125,0.8730469,-1.917969,0.3251953,-0.3222656,-0.04589844,-0.08984375
661,119.6875,-13.875,-149.9375,0.4814453,-1.012695,0.1674805,-0.3222656,-0.06298828,-0.08984375
665,111.9375,-28.625,-164.375,0.4155273,-0.1850586,-0.1552734,-0.324707,-0.07421875,-0.08837891
669,64.625,-30.4375,-175.3125,0.527832,0.1098633,-0.2939453,-0.3208008,-0.09326172,-0.08300781
673,29.5625,-26.25,-189.6875,0.5820313,0.004882813,-0.1206055,-0.3198242,-0.1132813,-0.08154297
677,21.25,-26,-208.3125,0.5087891,-0.07226563,0.04785156,-0.3173828,-0.1254883,-0.07861328
681,40.3125,-26.375,-222.375,0.4311523,-0.06835938,0.1674805,-0.3125,-0.1479492,-0.07470703
685,61.6875,-26.625,-227.9375,0.2993164,0.1953125,0.09814453,-0.3056641,-0.171875,-0.07080078
689,55.1875,-18.5625,-216.9375,0.2568359,0.4985352,-0.04394531,-0.2983398,-0.1855469,-0.06787109
693,41.3125,-3.25,-202.6875,0.175293,0.5644531,-0.03613281,-0.2890625,-0.2070313,-0.06640625
697,26.3125,-5.5625,-208.0625,0.1289063,0.6538086,0.04785156,-0.2807617,-0.2280273,-0.0625
701,8.625,-29.5,-237.25,0.1445313,0.5761719,0.06738281,-0.2709961,-0.2392578,-0.05957031
705,24.625,-28.875,-249.75,0.07470703,0.4868164,0.1479492,-0.2553711,-0.2617188,-0.05957031
709,42.25,-24.8125,-242.375,-0.07617188,0.8129883,0.009765625,-0.2402344,-0.2807617,-0.05419922
713,27.625,-13.1875,-222.75,-0.05664063,1.034668,-0.1401367,-0.2280273,-0.2929688,-0.05273438
717,18.375,7.125,-205,-0.09521484,1.022949,-0.09765625,-0.2114258,-0.3081055,-0.05029297
721,0.4375,-1.1875,-214.6875,-0.2001953,1.104492,-0.1054688,-0.1972656,-0.3232422,-0.05029297
725,-12.8125,-13.875,-234.75,-0.1689453,0.9414063,-0.01318359,-0.1816406,-0.3320313,-0.05029297
729,-10.1875,-7.0625,-233.25,-0.2734375,0.9140625,0.02880859,-0.1640625,-0.3457031,-0.05175781
733,-5.8125,-3.9375,-230.75,-0.2851563,0.8364258,0.04052734,-0.1435547,-0.3579102,-0.05273438
737,22.8125,17.4375,-217.3125,-0.262207,0.6069336,0.09033203,-0.128418,-0.3657227,-0.05029297
741,77.3125,39.625,-206.75,-0.4750977,0.7895508,-0.02050781,-0.109375,-0.3730469,-0.04736328
745,63.875,26.6875,-205.125,-0.6767578,1.372559,-0.3862305,-0.08642578,-0.3818359,-0.04199219
749,-0.875,6.625,-212.9375,-0.5756836,1.493164,-0.4438477,-0.07568359,-0.3842773,-0.04052734
753,-44.9375,8.6875,-206.75,-0.5175781,1.166504,-0.2783203,-0.05419922,-0.390625,-0.04199219
757,-54,17.3125,-202.6875,-0.5605469,0.7856445,-0.05908203,-0.03173828,-0.3916016,-0.04736328
761,-13.4375,18.125,-211,-0.699707,0.3896484,0.2133789,-0.01855469,-0.3930664,-0.05029297
765,42.6875,12.8125,-220.4375,-0.9248047,0.793457,0.09033203,0.004394531,-0.3955078,-0.04638672
770,36.25,-7.0625,-224.6875,-1.048828,1.294922,-0.1245117,0.02490234,-0.3930664,-0.04638672
774,7.9375,-22.75,-219.5625,-1.044922,1.32959,-0.1362305,0.04052734,-0.390625,-0.04345703
778,-9.1875,-18.375,-203.75,-0.9790039,1.166504,-0.1054688,0.06298828,-0.3881836,-0.04345703
782,-21.75,-12.625,-194.25,-0.9399414,1.030762,-0.1015625,0.08056641,-0.3833008,-0.04492188
786,-31.75,-7.5625,-196.0625,-0.9091797,0.8481445,-0.07080078,0.09277344,-0.3803711,-0.04736328
790,-32.4375,-5.0625,-204.4375,-0.9594727,0.7158203,0.01367188,0.1103516,-0.3730469,-0.05273438
794,-25.125,-6.1875,-212.0625,-1.063965,0.6962891,0.09423828,0.1318359,-0.3657227,-0.05419922
798,-19.1875,-10,-217.3125,-1.172852,0.7548828,0.1479492,0.1450195,-0.359375,-0.05566406
802,-10.25,-15.1875,-213,-1.265625,0.793457,0.2133789,0.1650391,-0.3481445,-0.05859375
806,1.9375,-12.75,-202.125,-1.199707,0.9643555,0.1713867,0.1806641,-0.3393555,-0.06103516
810,6.25,-13.0625,-187,-1.234863,1.205566,0.1132813,0.1904297,-0.3291016,-0.05957031
814,8.3125,-12.75,-164,-1.176758,1.407715,0.09423828,0.2045898,-0.3193359,-0.05859375
818,9.375,-9.5625,-124.75,-1.191895,1.601563,0.07128906,0.2163086,-0.3066406,-0.06103516
822,9.6875,-2.5625,-77.875,-1.07959,1.675781,0.07519531,0.2202148,-0.3041992,-0.06103516
826,8.375,4.75,-35.0625,-1.037109,1.605469,0.1020508,0.2236328,-0.3007813,-0.06103516
830,6.3125,10.75,-3.125,-0.9169922,1.539551,0.09033203,0.2246094,-0.2983398,-0.05859375
834,-3.125,11.375,17,-0.847168,1.454102,0.05566406,0.2260742,-0.296875,-0.05712891
838,-9.125,11.4375,29.75,-0.7890625,1.302734,0.09423828,0.2260742,-0.2993164,-0.05712891
842,-1,9.4375,42.8125,-0.8276367,1.182129,0.1713867,0.2211914,-0.3017578,-0.05566406
846,12.0625,1.1875,54.9375,-0.878418,1.182129,0.1904297,0.2211914,-0.3041992,-0.05859375
850,24.5625,-7.375,67.3125,-0.8745117,1.232422,0.1328125,0.2163086,-0.3081055,-0.05566406
854,33.75,-9.1875,83.8125,-0.8935547,1.356934,0.009765625,0.2104492,-0.3105469,-0.05419922
858,31.5,-8.375,103.6875,-0.9672852,1.543457,-0.09765625,0.2070313,-0.3168945,-0.05419922
862,20.875,-1.9375,133.5625,-1.067871,1.640625,-0.109375,0.1987305,-0.3242188,-0.04882813
866,15.3125,3.0625,166,-1.176758,1.660156,-0.1054688,0.1879883,-0.3354492,-0.04882813
870,8.625,8.25,195.125,-1.265625,1.652344,-0.08984375,0.1782227,-0.3417969,-0.04882813
874,-0.8125,1.25,218.375,-1.381836,1.574707,-0.04736328,0.1616211,-0.3530273,-0.04736328
878,6.5625,1,239.375,-1.292969,1.287109,0.08642578,0.1416016,-0.3632813,-0.04736328
882,16,8.875,256.1875,-1.296875,1.376465,0.01367188,0.125,-0.3706055,-0.04638672
886,-8.6875,8.625,265.25,-1.347168,1.539551,-0.1362305,0.1010742,-0.3779297,-0.04199219
890,-39.6875,8.0625,275.1875,-1.277344,1.422852,-0.1166992,0.07617188,-0.3867188,-0.04492188
894,-39.9375,6.75,283,-1.230957,1.034668,0.02880859,0.05566406,-0.3891602,-0.05029297
899,-15.6875,8.8125,283.625,-1.165039,0.9140625,0.1098633,0.03076172,-0.3916016,-0.05273438
903,-12.6875,4.75,278.25,-1.083496,1.061523,-0.02441406,0,-0.3955078,-0.05273438
907,-27.0625,5.1875,275.4375,-0.9750977,1.124023,-0.1015625,-0.01757813,-0.3930664,-0.05273438
911,-65,1.4375,268.25,-0.9555664,1.209473,-0.2285156,-0.04589844,-0.3881836,-0.05957031
915,-88.875,-2.125,263.875,-0.8896484,0.8286133,-0.07470703,-0.07226563,-0.3833008,-0.06640625
919,-58.625,1.125,261.1875,-0.8085938,0.6303711,0.07519531,-0.08789063,-0.3754883,-0.07080078
923,-28.125,0.5,264.1875,-0.7851563,0.7817383,0.01708984,-0.112793,-0.3657227,-0.07470703
927,-30.0625,-2.6875,263.1875,-0.6806641,0.9414063,-0.08203125,-0.1376953,-0.3554688,-0.07763672
931,-40.8125,-0.5625,264.375,-0.6806641,1.038574,-0.1015625,-0.1533203,-0.3481445,-0.08154297
935,-55.9375,-4.3125,274.375,-0.7114258,1.007324,-0.08984375,-0.1772461,-0.3320313,-0.08447266
939,-62.5,-2.375,284.4375,-0.5834961,0.855957,-0.03613281,-0.199707,-0.3120117,-0.08544922
943,-48.8125,-0.0625,290.625,-0.5175781,0.6459961,0.03662109,-0.215332,-0.2983398,-0.09082031
947,-23.1875,-2.625,283.0625,-0.3320313,0.4907227,0.1328125,-0.2363281,-0.2753906,-0.09375
951,0.75,3.375,279.875,-0.2661133,0.5292969,0.09814453,-0.2543945,-0.2543945,-0.09375
955,9.6875,9.0625,277.0625,-0.2001953,0.4633789,0.1098633,-0.2636719,-0.2368164,-0.09228516
959,9.3125,5.9375,279.1875,-0.2192383,0.3701172,0.1289063,-0.2792969,-0.2143555,-0.09228516
963,3.125,2.875,269.125,-0.01416016,0.237793,0.1943359,-0.2924805,-0.1870117,-0.09375
967,-18.125,0.125,253.875,0.04736328,0.2148438,0.1210938,-0.2973633,-0.171875,-0.09375
971,-57.125,-20.3125,226.875,0.1518555,-0.06835938,0.08642578,-0.3081055,-0.1455078,-0.09375
975,-58.375,-22.375,210.1875,0.3378906,-0.6201172,0.2597656,-0.3139648,-0.1220703,-0.09228516
979,-31,-24.6875,209.125,0.2607422,-1.389648,0.1865234,-0.3188477,-0.109375,-0.09082031
983,-24.125,-19.625,176.375,0.7680664,-1.412598,0.08251953,-0.3208008,-0.08691406,-0.08837891
987,-42.875,-14.4375,124,0.9462891,-1.638184,-0.07080078,-0.3222656,-0.06933594,-0.08837891
991,-60,-14.1875,54,1.13623,-2.06543,-0.01660156,-0.324707,-0.06298828,-0.08544922
995,-33.75,-5.9375,-31.75,1.275879,-2.12793,0.125,-0.324707,-0.05810547,-0.08447266
999,20.1875,-2.5,-103.375,0.9619141,-1.696289,0.1787109,-0.324707,-0.06445313,-0.08544922
1003,64.25,-4.8125,-141.5625,0.7680664,-1.02832,0.1132813,-0.324707,-0.07177734,-0.08544922
1007,76.625,-4.1875,-160.8125,0.6362305,-0.3950195,-0.005371094,-0.3222656,-0.08935547,-0.08300781
1011,46.6875,-4.9375,-170.125,0.5512695,0.04394531,-0.1015625,-0.3188477,-0.1069336,-0.08300781
1015,9.3125,-3.6875,-171.875,0.5356445,0.1523438,-0.03613281,-0.3164063,-0.1206055,-0.08154297
1019,-7.5,-8.375,-183.375,0.574707,-0.03759766,0.1171875,-0.3105469,-0.1396484,-0.08154297
1023,28.5,-4.1875,-195.125,0.5239258,-0.2939453,0.3481445,-0.3066406,-0.1567383,-0.08154297
1028,65.3125,-2.3125,-207.375,0.3457031,-0.01806641,0.2021484,-0.3017578,-0.1704102,-0.08007813
1032,62.5625,-2.3125,-211.4375,0.2412109,0.2963867,0.02490234,-0.293457,-0.1904297,-0.07861328
1036,37.375,12.25,-207.125,0.2216797,0.4282227,-0.07861328,-0.2841797,-0.2104492,-0.07617188
1040,23.5,19,-211.875,0.02832031,0.2885742,0.09033203,-0.2758789,-0.2270508,-0.07617188
1044,40.3125,3.8125,-231.5,-0.02587891,0.1875,0.2250977,-0.2626953,-0.2456055,-0.07470703
1048,65.3125,-12.0625,-258.875,-0.1572266,0.4477539,0.09814453,-0.2485352,-0.2641602,-0.07324219
1052,30.0625,-30.6875,-276.125,-0.2851563,1.088867,-0.2514648,-0.237793,-0.2807617,-0.06933594
1056,-32.6875,-25.0625,-265.5625,-0.2700195,0.9916992,-0.1860352,-0.2163086,-0.3017578,-0.06396484
1060,-23.4375,4.875,-245.5,-0.2773438,0.6147461,0.105957,-0.1972656,-0.3193359,-0.07080078
1064,34.5625,28.9375,-229.4375,-0.4169922,0.5253906,0.2441406,-0.184082,-0.3305664,-0.06933594
1068,52.6875,10.25,-246.875,-0.6767578,1.081055,-0.05126953,-0.1640625,-0.3432617,-0.06640625
1072,-3.0625,-31.375,-275,-0.6767578,1.52002,-0.2592773,-0.1411133,-0.3569336,-0.06640625
1076,-69.1875,-27.5625,-258.5625,-0.6416016,1.450195,-0.2207031,-0.1235352,-0.3666992,-0.06542969
1080,-116.375,-4.75,-222.75,-0.5644531,1.084961,-0.1708984,-0.1020508,-0.3730469,-0.07177734
1084,-116.6875,26.6875,-206.5,-0.4287109,0.3701172,0.05175781,-0.07958984,-0.3793945,-0.08447266
1088,-72.9375,49.25,-227.1875,-0.6147461,0.08251953,0.159668,-0.06494141,-0.3793945,-0.09375
1092,-16,32.125,-273.25,-0.9208984,0.1293945,0.2597656,-0.04248047,-0.3833008,-0.09912109
1096,63,21.75,-299.0625,-1.172852,0.6733398,0.2402344,-0.01269531,-0.3857422,-0.09765625
1100,68.6875,17.1875,-279.8125,-1.447754,1.72998,-0.1474609,0.006835938,-0.3881836,-0.09082031
1104,0.9375,18.1875,-237.875,-1.381836,2.033203,-0.2089844,0.03417969,-0.3867188,-0.08691406
1108,-40.875,31.625,-204.9375,-1.176758,1.458008,0.005859375,0.05712891,-0.3818359,-0.08837891
1112,-28.4375,45.6875,-195.5,-1.041016,0.9956055,0.1289063,0.06982422,-0.3818359,-0.09082031
1116,-4.6875,42.3125,-205.125,-1.056641,0.8129883,0.1328125,0.09033203,-0.3754883,-0.09228516
1120,10.8125,34.375,-220.875,-1.013672,0.7895508,0.1674805,0.1103516,-0.3691406,-0.09228516
1124,26.9375,26.75,-229.625,-1.125977,0.7548828,0.2675781,0.125,-0.3657227,-0.08691406
1128,45.75,16.5,-230.75,-1.223145,0.8442383,0.3291016,0.1450195,-0.3530273,-0.08691406
1132,67.75,2.6875,-222.5,-1.296875,0.9375,0.3481445,0.1650391,-0.3432617,-0.08154297
1136,77.875,-7.6875,-207.6875,-1.292969,1.150879,0.2060547,0.1772461,-0.3393555,-0.07617188
1140,67.375,-16.9375,-191.875,-1.172852,1.267578,0.05566406,0.1938477,-0.3266602,-0.07080078
1144,48.4375,-17.5,-183.1875,-1.033203,1.259766,-0.03222656,0.2070313,-0.3168945,-0.06787109
1148,29.3125,-17.5625,-178.0625,-1.044922,1.228516,-0.02441406,0.2163086,-0.3081055,-0.06542969
1152,20.1875,-14.0625,-167.8125,-1.037109,1.154785,0.07128906,0.2285156,-0.2954102,-0.06640625
1157,22.9375,-12,-142.875,-1.176758,1.162598,0.1328125,0.237793,-0.2832031,-0.06396484
1161,30.125,-10.4375,-107.5625,-1.191895,1.255859,0.1748047,0.2436523,-0.2792969,-0.06396484
1165,38.375,-6.5625,-67.6875,-1.12207,1.380371,0.1479492,0.25,-0.2719727,-0.0625
1169,40.375,-1.875,-34.25,-1.025391,1.473633,0.07910156,0.253418,-0.265625,-0.0625
1173,33.4375,4.3125,-7.6875,-0.9907227,1.55127,0.02099609,0.2543945,-0.2641602,-0.0625
1177,25,9.4375,18.375,-1.005859,1.58252,0.02099609,0.2543945,-0.265625,-0.05957031
1181,19.625,15.875,46.8125,-1.087402,1.555176,0.07910156,0.25,-0.2670898,-0.05419922
1185,19.625,20.0625,84.5625,-1.184082,1.512207,0.1479492,0.2519531,-0.2744141,-0.05419922
1189,25.0625,21.5,123.4375,-1.223145,1.469727,0.1713867,0.2460938,-0.2792969,-0.05175781
1193,31.1875,19.5,150.1875,-1.195801,1.418945,0.1479492,0.2353516,-0.2895508,-0.04882813
1197,35.625,16.8125,168.9375,-1.199707,1.422852,0.1020508,0.2270508,-0.2993164,-0.04345703
1201,29.125,15.3125,186.3125,-1.246094,1.469727,0.01708984,0.2177734,-0.3095703,-0.03955078
1205,8.25,12.5,206.875,-1.343262,1.55127,-0.109375,0.203125,-0.3232422,-0.04052734
1209,-32.3125,6.0625,228.4375,-1.498047,1.664063,-0.2055664,0.1914063,-0.3330078,-0.03662109
1213,-101.75,-24.4375,234.8125,-1.599121,1.722168,-0.2822266,0.1723633,-0.3457031,-0.04052734
1217,-128.625,-51.4375,242.375,-1.603027,1.034668,0.009765625,0.1508789,-0.3579102,-0.05419922
1221,-67.125,-35.5625,274.4375,-1.35498,0.7314453,0.2094727,0.1367188,-0.3618164,-0.06103516
1225,-7.5625,-10.625,297,-1.331543,0.8984375,0.140625,0.1103516,-0.3745117,-0.06542969
1229,-16.75,-18.0625,295.375,-1.439941,1.228516,-0.08203125,0.08300781,-0.3833008,-0.06787109
1233,-44.875,-30.25,296.5,-1.374023,1.158691,-0.06298828,0.06298828,-0.3857422,-0.07080078
1237,-64.1875,-19.75,303.4375,-1.203613,1.088867,-0.08984375,0.03320313,-0.3881836,-0.07617188
1241,-90.3125,-9,310,-1.168945,1.045898,-0.1552734,0.002441406,-0.3881836,-0.08447266
1245,-107.1875,-7.5625,311.25,-1.184082,0.7431641,0.005859375,-0.01757813,-0.3881836,-0.08984375
1249,-57.3125,-10.3125,309.9375,-0.9985352,0.3120117,0.3251953,-0.04980469,-0.3803711,-0.09765625
1253,-17,-6,297,-0.9248047,0.5722656,0.2060547,-0.07958984,-0.3730469,-0.1035156
1257,-22.5625,-15.6875,281.5625,-0.9169922,0.8168945,0.08251953,-0.09716797,-0.3681641,-0.1035156
1261,-34.125,-23.625,267.5,-0.8164063,0.8364258,0.1132813,-0.1235352,-0.3569336,-0.1044922
1265,-46.6875,-22.25,268.6875,-0.8198242,0.9643555,-0.009277344,-0.1484375,-0.3442383,-0.1074219
1269,-65,-22.1875,281.0625,-0.7387695,0.7392578,0.01708984,-0.1665039,-0.3330078,-0.1074219
1273,-37.1875,-15.125,288.1875,-0.5834961,0.4829102,0.1518555,-0.1899414,-0.3129883,-0.112793
1277,-15.0625,-12,286,-0.4829102,0.5722656,0.09033203,-0.2114258,-0.2919922,-0.1113281
1281,-16.625,-12.625,284,-0.4130859,0.6923828,-0.001464844,-0.2255859,-0.2807617,-0.1113281
1286,-25.5625,-15,278.25,-0.3862305,0.7197266,0.06738281,-0.2436523,-0.2583008,-0.1142578
1290,-33,-20.0625,282.1875,-0.28125,0.6264648,0.08642578,-0.2617188,-0.234375,-0.112793
1294,-26.5,-19,286.9375,-0.3046875,0.6303711,0.1171875,-0.2700195,-0.2158203,-0.112793
1298,-37,-27.125,290.4375,-0.1611328,0.5019531,0.1020508,-0.2851563,-0.1879883,-0.112793
1302,-43.0625,-44.5625,273.6875,-0.02978516,0.2070313,0.1635742,-0.2983398,-0.1606445,-0.1098633
1306,-21.25,-52.25,261.75,0.159668,-0.324707,0.3520508,-0.3056641,-0.1420898,-0.105957
1310,8.625,-47.625,249.0625,0.2724609,-0.453125,0.3017578,-0.3139648,-0.1166992,-0.1035156
1314,9.0625,-42.3125,236.3125,0.3886719,-0.4882813,0.1289063,-0.3164063,-0.09326172,-0.09667969
1318,-22.875,-37.5,218.8125,0.5473633,-0.6357422,-0.06689453,-0.3208008,-0.07568359,-0.09521484
1322,-72.5625,-34.375,183,0.7412109,-0.9541016,-0.1821289,-0.3222656,-0.0546875,-0.09082031
1326,-88.625,-31.375,145,0.8769531,-1.820801,-0.1054688,-0.324707,-0.03466797,-0.08691406
1330,-53.1875,-7.75,90.25,1.194336,-2.372559,-0.01318359,-0.3232422,-0.0234375,-0.08544922
1334,-4,10.375,10.3125,1.202148,-2.306641,0.02490234,-0.324707,-0.015625,-0.08447266
1338,27.5,6.8125,-68,0.9311523,-1.816895,0.08642578,-0.324707,-0.01953125,-0.08447266
1342,55.1875,-0.125,-120.125,0.8071289,-1.358398,0.1098633,-0.3232422,-0.02587891,-0.08691406
1346,81.5625,-0.125,-150.5625,0.6791992,-0.9931641,0.1171875,-0.324707,-0.03955078,-0.08691406
1350,93.9375,-0.9375,-170.375,0.625,-0.7055664,0.03662109,-0.324707,-0.05957031,-0.08544922
1354,94.3125,4.4375,-188.1875,0.6210938,-0.5151367,-0.05517578,-0.324707,-0.07177734,-0.08691406
1358,94.9375,15,-206.75,0.5976563,-0.453125,-0.04736328,-0.3208008,-0.09570313,-0.08544922
1362,95.25,24.875,-225.6875,0.4350586,-0.3793945,-0.03222656,-0.3164063,-0.1166992,-0.08544922
1366,104.5625,26.6875,-240.5,0.1870117,-0.2939453,0.04785156,-0.3115234,-0.1357422,-0.08544922
1370,101.375,13.1875,-255.0625,0.02050781,-0.06445313,0.04443359,-0.3032227,-0.1630859,-0.08544922
1374,89.25,4.125,-280.3125,0.02050781,0.08642578,0.02880859,-0.293457,-0.1894531,-0.08447266
1378,65.4375,7,-300.5625,-0.1381836,0.2885742,-0.01318359,-0.2851563,-0.2094727,-0.08300781
1382,35.5625,3.75,-315.5625,-0.296875,0.2456055,0.09033203,-0.2700195,-0.2368164,-0.07861328
1386,53.8125,14.4375,-323.875,-0.4829102,0.03613281,0.2983398,-0.2495117,-0.2641602,-0.07861328
1390,108,13.6875,-322.1875,-0.796875,0.1953125,0.2749023,-0.2353516,-0.2841797,-0.07763672
1394,141.25,-1.25,-329.375,-0.9555664,0.6616211,0.01708984,-0.2104492,-0.3081055,-0.07080078
1398,90.375,-26.625,-339.0625,-1.145508,1.403809,-0.4516602,-0.184082,-0.3330078,-0.05566406
1402,-4.1875,-42.625,-341,-1.013672,1.415039,-0.4438477,-0.1640625,-0.3466797,-0.05566406
1406,-32.1875,-21.25,-326.125,-0.9365234,0.9604492,-0.2128906,-0.1342773,-0.3632813,-0.05175781
1410,-9,-8,-316.75,-1.11084,0.6147461,-0.01660156,-0.1044922,-0.3754883,-0.05566406
1415,34.625,-19.375,-332.1875,-1.308105,0.8710938,-0.1362305,-0.08398438,-0.3803711,-0.05566406
1419,17.375,-47.5,-350.0625,-1.420898,1.189941,-0.3398438,-0.04980469,-0.390625,-0.05273438
1423,-4.5,-61.1875,-352,-1.443848,1.186035,-0.2900391,-0.01513672,-0.3945313,-0.05175781
1427,-16.75,-46.6875,-319.375,-1.393555,1.162598,-0.2553711,0.008300781,-0.3945313,-0.05175781
1431,-38.3125,-27.75,-292.6875,-1.351074,1.022949,-0.2514648,0.03808594,-0.390625,-0.05419922
1435,-53.875,-16.6875,-287.6875,-1.358887,0.7626953,-0.2055664,0.06884766,-0.3867188,-0.05957031
1439,-53.9375,-11,-303.6875,-1.40918,0.5253906,-0.1513672,0.08691406,-0.3818359,-0.0625
1443,-24.125,-4.4375,-326.8125,-1.459473,0.4516602,-0.05126953,0.1152344,-0.371582,-0.06787109
1447,14.375,-3.125,-340.875,-1.777344,0.8364258,-0.03222656,0.1474609,-0.3579102,-0.07080078
1451,26,-9.1875,-315.375,-2.017578,1.36084,0.02880859,0.1650391,-0.3466797,-0.06933594
1455,21.9375,-11.625,-250.625,-1.978516,1.508301,0.05566406,0.1904297,-0.3330078,-0.06787109
1459,16.625,-3.3125,-197.75,-1.65332,1.508301,-0.04003906,0.2070313,-0.3154297,-0.06787109
1463,-2.0625,8.25,-165.5625,-1.339355,1.473633,-0.1899414,0.2163086,-0.3095703,-0.06542969
1467,-30.0625,20.5625,-148.6875,-1.157227,1.36084,-0.1708984,0.2270508,-0.2983398,-0.06640625
1471,-48.8125,30.4375,-134.6875,-1.129883,1.13916,0.04785156,0.2368164,-0.2856445,-0.06640625
1475,-43.125,35.5625,-118.6875,-1.114746,0.9257813,0.2788086,0.2412109,-0.2792969,-0.06787109
1479,-16,35.3125,-107,-1.07959,0.809082,0.4482422,0.25,-0.2695313,-0.06542969
1483,4.4375,27.25,-103.75,-1.056641,0.9101563,0.4521484,0.2543945,-0.2617188,-0.06640625
1487,8.3125,11.5,-105.375,-1.037109,1.06543,0.3979492,0.2617188,-0.2558594,-0.06396484
1491,9.3125,-0.4375,-102,-0.9790039,1.150879,0.355957,0.2675781,-0.2456055,-0.06396484
1495,12.875,-3,-91.25,-0.9868164,1.302734,0.2636719,0.2700195,-0.2392578,-0.06396484
1499,11.125,-4.1875,-70.625,-1.048828,1.426758,0.2211914,0.2734375,-0.234375,-0.0625
1503,5.375,-3.75,-40.625,-1.106934,1.547363,0.2060547,0.2773438,-0.2255859,-0.0625
1507,-5.4375,-7.4375,-5.875,-1.195801,1.613281,0.1479492,0.2792969,-0.2246094,-0.0625
1511,-15.25,-20.875,23.25,-1.215332,1.512207,0.1557617,0.2792969,-0.2255859,-0.06542969
1515,-1.75,-25.5,53.8125,-1.099121,1.325684,0.2133789,0.2773438,-0.2280273,-0.06640625
1519,17.875,-12.875,86.9375,-1.048828,1.283203,0.125,0.2734375,-0.234375,-0.06933594
1523,20.4375,-0.9375,115.4375,-1.11084,1.317871,0.05566406,0.269043,-0.2431641,-0.06640625
1527,11.125,5,141,-1.187988,1.310547,0.09033203,0.2666016,-0.2519531,-0.06542969
1531,7.3125,0.5,159,-1.312012,1.236328,0.1748047,0.2583008,-0.2641602,-0.06787109
1535,17.3125,-9.625,184.1875,-1.447754,1.12793,0.2480469,0.2475586,-0.2729492,-0.06396484
1539,29.4375,-7.3125,203.8125,-1.432129,1.182129,0.1943359,0.237793,-0.2841797,-0.06396484
1544,36.9375,-4.3125,225.625,-1.48291,1.213379,0.144043,0.222168,-0.3041992,-0.0625
1548,32.8125,1.4375,252.5625,-1.599121,1.314453,0.09033203,0.2104492,-0.3120117,-0.06103516
1552,16.3125,1.5625,276.8125,-1.730469,1.310547,0.08642578,0.1904297,-0.3305664,-0.05859375
1556,8.5625,-2.375,293.3125,-1.711426,1.178223,0.1367188,0.1674805,-0.3466797,-0.05566406
1560,3.3125,1.1875,302.6875,-1.70752,1.189941,0.08251953,0.1523438,-0.3569336,-0.05419922
1564,-8.9375,-6.5,304.25,-1.699707,1.112305,0.01708984,0.1235352,-0.3681641,-0.05566406
1568,-20.8125,-2.625,304.375,-1.603027,1.13916,-0.05908203,0.09521484,-0.3803711,-0.05712891
1572,-27.375,-2.3125,310.4375,-1.633789,0.9799805,0.005859375,0.07861328,-0.3857422,-0.05957031
1576,-36.1875,-9.3125,311.625,-1.537109,1.034668,-0.06298828,0.04492188,-0.390625,-0.05957031
1580,-44.5,-7.6875,314.4375,-1.35498,0.921875,-0.06689453,0.01513672,-0.3930664,-0.06542969
1584,-49.0625,-4.5625,310.3125,-1.203613,0.8129883,-0.109375,-0.0078125,-0.3930664,-0.06933594
1588,-44.1875,5.125,298.8125,-0.9516602,0.6884766,-0.128418,-0.03662109,-0.3881836,-0.07324219
1592,-44.0625,17.6875,276.8125,-0.8354492,0.7080078,-0.2167969,-0.06738281,-0.3833008,-0.07861328
1596,-58.375,9.25,260.25,-1.125977,0.7666016,-0.1782227,-0.08398438,-0.3779297,-0.08007813
1600,-67.8125,-13.875,271,-1.12207,0.809082,-0.07861328,-0.1103516,-0.3666992,-0.08691406
1604,-67.75,-5.8125,286.5625,-0.9711914,0.8286133,-0.05126953,-0.1376953,-0.3554688,-0.09228516
1608,-85.0625,-18.9375,290.1875,-1.149414,1.01123,-0.1245117,-0.1518555,-0.3442383,-0.09521484
1612,-96.4375,-33,299.875,-1.013672,0.7275391,0.04785156,-0.1782227,-0.3242188,-0.1044922
1616,-65.0625,-31.75,315.25,-0.9091797,0.5878906,0.144043,-0.203125,-0.3041992,-0.105957
1620,-37.5625,-28.6875,332.0625,-0.8896484,0.6616211,0.09814453,-0.21875,-0.2866211,-0.1088867
1624,-38.0625,-24.4375,349.125,-0.7075195,0.6733398,-0.04394531,-0.2402344,-0.2592773,-0.1074219
1628,-55.5,-28,341.1875,-0.6572266,0.5253906,-0.001464844,-0.2626953,-0.2304688,-0.1074219
1632,-55.1875,-30.6875,345,-0.5488281,0.2768555,0.09033203,-0.2783203,-0.2104492,-0.1088867
1636,-44.5,-33.375,335.25,-0.4208984,0.04003906,0.1557617,-0.2915039,-0.1757813,-0.1074219
1640,-34,-37.1875,318.875,-0.1650391,-0.2666016,0.2290039,-0.3056641,-0.1430664,-0.105957
1644,-6.5,-27.6875,295,-0.002441406,-0.3989258,0.3364258,-0.3115234,-0.1220703,-0.1035156
1648,-5.25,-17.4375,279.9375,0.109375,-0.3208008,0.2133789,-0.3198242,-0.09179688,-0.09912109
1652,-54.6875,-17.625,264.9375,0.2333984,-0.5,-0.03222656,-0.3222656,-0.06298828,-0.09765625
1656,-108.0625,-13.75,239.5,0.4658203,-1.331055,-0.1552734,-0.3232422,-0.04443359,-0.09765625
1660,-118.6875,2.625,196.75,0.8378906,-2.217285,-0.1977539,-0.3208008,-0.01806641,-0.09521484
1664,-97.0625,13.625,133.3125,1.023926,-2.791992,-0.2861328,-0.3198242,0.002441406,-0.09375
1668,-52.875,16.0625,24,1.632324,-3.526367,-0.1782227,-0.3173828,0.01123047,-0.09521484
1673,33.0625,26.75,-128.125,1.484863,-3.017578,0.03271484,-0.3173828,0.006347656,-0.09375
1677,118.75,23.875,-209.3125,0.7333984,-2.022949,0.08251953,-0.3198242,-0.008300781,-0.09912109
1681,177.3125,17,-208.1875,0.3730469,-1.241699,-0.02441406,-0.3198242,-0.02685547,-0.09912109
1685,181.6875,15.25,-208.5625,0.5161133,-0.534668,-0.2744141,-0.3198242,-0.05322266,-0.1035156
1689,134.8125,5.8125,-238.3125,0.5126953,-0.1811523,-0.3745117,-0.3188477,-0.07958984,-0.1035156
1693,92.1875,3.9375,-256.5,0.3496094,-0.2163086,-0.2207031,-0.3149414,-0.09716797,-0.1005859
1697,73.375,-6.25,-277.25,0.2568359,-0.3208008,-0.06689453,-0.3115234,-0.1279297,-0.1020508
1701,71.5,-13.5,-309.0625,0.1987305,-0.3754883,0.03662109,-0.3032227,-0.1567383,-0.09912109
1705,66.25,-24.25,-347.125,0.05126953,-0.3364258,0.07910156,-0.2949219,-0.1806641,-0.09765625
1709,74.25,-20.625,-365.5,-0.1533203,-0.3598633,0.159668,-0.2807617,-0.2143555,-0.09375
1713,102.125,0.6875,-354.625,-0.3823242,-0.3095703,0.1943359,-0.2626953,-0.2480469,-0.09082031
1717,140.875,24.375,-335.625,-0.6264648,-0.1499023,0.1904297,-0.2460938,-0.2680664,-0.08544922
1721,143.375,-0.8125,-350.5625,-1.161133,0.3310547,0.02880859,-0.2236328,-0.296875,-0.07763672
1725,103.75,-53.625,-390.25,-1.137695,0.5644531,-0.07470703,-0.1938477,-0.3242188,-0.06542969
1729,71.625,-70.1875,-405.75,-1.319824,0.6655273,-0.07861328,-0.1723633,-0.3393555,-0.05712891
1733,68.75,-60,-391.375,-1.479004,0.8208008,-0.04736328,-0.1352539,-0.3603516,-0.04882813
1737,48.125,-56.25,-366.1875,-1.618164,0.9453125,-0.1401367,-0.1010742,-0.3769531,-0.04052734
1741,22.1875,-49.5,-350,-1.62207,1.069336,-0.2705078,-0.07568359,-0.3842773,-0.03808594
1745,-29.9375,-51.3125,-340.1875,-1.711426,1.092773,-0.3706055,-0.04150391,-0.390625,-0.03369141
1749,-71.4375,-63.5,-352.5,-1.606445,0.7739258,-0.2744141,-0.0078125,-0.3955078,-0.04052734
1753,-70.9375,-45.125,-360.0625,-1.571777,0.4750977,-0.1435547,0.01660156,-0.3955078,-0.04492188
1757,-47.625,-20.0625,-358.75,-1.773438,0.4711914,-0.07470703,0.0546875,-0.3916016,-0.05175781
1761,-45,-8.4375,-352.9375,-1.990234,0.6577148,-0.07470703,0.08691406,-0.3833008,-0.05712891
1765,-58.5,0.4375,-337.625,-2.052246,0.7392578,-0.06298828,0.109375,-0.3769531,-0.05957031
1769,-64.875,7.6875,-324.4375,-2.075684,0.6225586,0.03271484,0.1401367,-0.3632813,-0.06787109
1773,-57.6875,13.1875,-317.3125,-2.098633,0.5952148,0.09423828,0.1689453,-0.3457031,-0.07177734
1777,-47.5,5.5625,-319.9375,-2.098633,0.7041016,0.09814453,0.1865234,-0.3344727,-0.07324219
1781,-25.9375,-0.5,-310.5625,-2.017578,0.7973633,0.140625,0.2094727,-0.3120117,-0.07617188
1785,2.4375,4.0625,-281,-1.955566,0.987793,0.1171875,0.234375,-0.2919922,-0.07861328
1789,26.3125,15.5625,-237,-1.819824,1.205566,0.09423828,0.2426758,-0.2753906,-0.07470703
1793,35.3125,22.625,-188.6875,-1.777344,1.376465,0.02490234,0.2568359,-0.2607422,-0.07470703
1797,14.8125,24.875,-137.3125,-1.62207,1.527832,-0.05517578,0.2651367,-0.2456055,-0.07080078
1802,-18.1875,25.1875,-96.5,-1.393555,1.356934,-0.03222656,0.2709961,-0.2407227,-0.06933594
1806,-38,29.5,-76.4375,-1.211426,1.108398,0.06347656,0.2749023,-0.2304688,-0.06933594
1810,-42.625,33.0625,-65.9375,-1.103027,0.9296875,0.2094727,0.2783203,-0.2246094,-0.06933594
1814,-33.9375,31.8125,-63.875,-1.060547,0.8012695,0.340332,0.2807617,-0.2207031,-0.06787109
1818,-15.4375,28.5,-69,-0.9985352,0.8129883,0.3979492,0.2832031,-0.2143555,-0.06787109
1822,1,18.1875,-77.1875,-1.033203,0.9760742,0.3789063,0.2866211,-0.2070313,-0.06396484
1826,5.9375,7.375,-73.75,-1.106934,1.217285,0.3212891,0.2890625,-0.203125,-0.06542969
1830,7.5,1.3125,-55.0625,-1.141602,1.341309,0.2944336,0.2924805,-0.1967773,-0.06542969
1834,11.125,2.5,-23.875,-1.187988,1.46582,0.2402344,0.2949219,-0.1904297,-0.06396484
1838,3.8125,0.5625,13.75,-1.261719,1.675781,0.1171875,0.2973633,-0.1933594,-0.06103516
1842,-17.75,0.3125,58.625,-1.315918,1.78418,0.04785156,0.2939453,-0.1943359,-0.06103516
1846,-47.25,-11.75,100.125,-1.432129,1.745605,0.09423828,0.2900391,-0.2016602,-0.06542969
1850,-53.125,-25.9375,134.8125,-1.362793,1.302734,0.2905273,0.2880859,-0.2094727,-0.06640625
1854,-13.5625,-17,164.25,-1.227051,1.045898,0.425293,0.2817383,-0.2216797,-0.07177734
1858,28.6875,-8.8125,185.1875,-1.304199,1.124023,0.3945313,0.2734375,-0.2358398,-0.07177734
1862,38.125,-13.9375,206.375,-1.463379,1.356934,0.2441406,0.2651367,-0.2456055,-0.07080078
1866,34.5,-17.125,232.25,-1.529297,1.376465,0.1787109,0.2519531,-0.2641602,-0.07080078
1870,34.5,-14.3125,255.875,-1.575684,1.376465,0.1518555,0.2368164,-0.2841797,-0.06933594
1874,31.5625,-7.1875,282.25,-1.691895,1.388184,0.08642578,0.2270508,-0.296875,-0.06787109
1878,13.125,-11.8125,296.5625,-1.815918,1.411133,0.02099609,0.2080078,-0.3168945,-0.06396484
1882,-0.3125,-15.875,305.5,-1.82373,1.240234,0.09423828,0.1821289,-0.3369141,-0.06542969
1886,-2.125,-11.625,318,-1.905273,1.217285,0.09423828,0.1665039,-0.3457031,-0.06640625
1890,-8.8125,-15.875,322.375,-2.005859,1.287109,0.02490234,0.1376953,-0.3632813,-0.06542969
1894,-10.25,-13.4375,336.1875,-2.071777,1.236328,0.04052734,0.1069336,-0.3730469,-0.06933594
1898,-15.0625,-7.875,361.125,-2.133789,1.376465,-0.06689453,0.08544922,-0.3818359,-0.06933594
1902,-49.5625,-6.25,381.1875,-2.07959,1.415039,-0.2436523,0.04882813,-0.3881836,-0.07080078
1906,-89.1875,-8.5,379.3125,-1.912598,1.131836,-0.2167969,0.01171875,-0.390625,-0.07763672
1910,-106.3125,-20.25,365.25,-1.819824,0.7392578,-0.1166992,-0.01513672,-0.390625,-0.08300781
1914,-89.4375,-18.3125,361.125,-1.533203,0.3974609,0.03271484,-0.05224609,-0.3833008,-0.09521484
1918,-62.625,-16.25,347.8125,-1.455566,0.3466797,0.02880859,-0.08398438,-0.3730469,-0.1035156
1922,-42.0625,-14.3125,354.9375,-1.486328,0.4243164,0.04785156,-0.1079102,-0.3642578,-0.105957
1926,-40.5625,-15.25,363.4375,-1.374023,0.5566406,-0.05908203,-0.1401367,-0.3466797,-0.1088867
1931,-56.0625,-19.25,354,-1.187988,0.5175781,-0.109375,-0.1708984,-0.3266602,-0.1098633
1935,-65.625,-21.3125,336.9375,-1.172852,0.4907227,-0.109375,-0.1899414,-0.3105469,-0.1113281
1939,-71,-20.0625,341.1875,-1.137695,0.4946289,-0.1166992,-0.2172852,-0.2866211,-0.1157227
1943,-72.75,-22.6875,352.0625,-1.118652,0.3896484,-0.09375,-0.2412109,-0.2583008,-0.1196289
1947,-67.25,-21.75,359.8125,-0.8818359,0.1953125,-0.08984375,-0.2553711,-0.2392578,-0.1210938
1951,-50.1875,-23.75,346.5,-0.6962891,-0.02587891,0.04052734,-0.2734375,-0.2070313,-0.1225586
1955,-30.8125,-27.25,329.25,-0.5371094,-0.08007813,0.07519531,-0.2900391,-0.1743164,-0.1196289
1959,-29.5,-32.75,322.1875,-0.4829102,-0.05664063,-0.02441406,-0.2983398,-0.1508789,-0.1181641
1963,-38.625,-40.4375,324.875,-0.2929688,-0.3676758,-0.005371094,-0.309082,-0.1166992,-0.1157227
1967,-32.5,-41,308.3125,0.02050781,-0.6630859,0.08642578,-0.3173828,-0.08544922,-0.1113281
1971,-45.125,-47.1875,278.3125,0.1831055,-0.9116211,-0.03613281,-0.3188477,-0.06298828,-0.1088867
1975,-73.3125,-50.125,241.4375,0.4775391,-1.272949,-0.06689453,-0.3198242,-0.03564453,-0.1044922
1979,-90.875,-45.9375,199.25,0.7568359,-1.898438,-0.07861328,-0.3208008,-0.009277344,-0.09667969
1983,-90.1875,-37.375,149.625,1.008301,-2.803711,-0.1323242,-0.3198242,0.004882813,-0.09228516
1987,-53.6875,-12.75,67.25,1.492676,-3.328125,-0.03613281,-0.3164063,0.02001953,-0.09082031
1991,6.3125,2.5625,-71.9375,1.589844,-2.900879,0.07519531,-0.3173828,0.02148438,-0.08984375
1995,52.625,-4,-183.4375,1.066406,-2.022949,0.04785156,-0.3173828,0.01269531,-0.08984375
1999,94.1875,-4.8125,-224.25,0.6518555,-1.428223,0.02099609,-0.3208008,-0.009277344,-0.08984375
2003,112.6875,-1.9375,-222.75,0.4619141,-0.8261719,-0.05908203,-0.324707,-0.03466797,-0.08984375
2007,88.25,-7.1875,-231.0625,0.5009766,-0.3442383,-0.2055664,-0.3232422,-0.05078125,-0.08837891
2011,36.9375,-7.8125,-250.5625,0.4970703,-0.1616211,-0.2436523,-0.3222656,-0.07568359,-0.08984375
2015,-1,10.9375,-261.125,0.4775391,-0.1772461,-0.2055664,-0.3173828,-0.1030273,-0.08984375
2019,-12.375,31.1875,-273.8125,0.3808594,-0.4179688,-0.05126953,-0.3139648,-0.1206055,-0.09375
2023,14.25,54.875,-286.6875,0.2724609,-0.5151367,0.05957031,-0.3066406,-0.1479492,-0.09667969
2027,61.1875,72.875,-296,-0.09130859,-0.550293,0.1557617,-0.293457,-0.1791992,-0.1005859
2031,109.9375,82,-295,-0.3085938,-0.3056641,0.08251953,-0.2851563,-0.1982422,-0.1044922
2035,115.25,75.9375,-310.125,-0.5683594,0.08642578,-0.109375,-0.2685547,-0.2294922,-0.105957
2039,84.375,31.5625,-348.6875,-0.7851563,0.2456055,-0.02441406,-0.2470703,-0.2592773,-0.1044922
2043,84.3125,10.875,-376.3125,-0.8354492,0.1445313,0.140625,-0.2319336,-0.2792969,-0.1005859
2047,116.875,19.375,-384.9375,-1.025391,0.2651367,0.1557617,-0.203125,-0.3081055,-0.09667969
2051,125.375,17.875,-370.5625,-1.428223,0.3081055,-0.05517578,-0.1723633,-0.3354492,-0.08837891
2055,73.4375,0.0625,-363.8125,-1.57959,1.112305,-0.2783203,-0.1494141,-0.3491211,-0.08300781
2060,21.5,-9.8125,-360.375,-1.505859,0.987793,-0.2207031,-0.1162109,-0.3666992,-0.07617188
2064,-10.5625,-14.9375,-369.1875,-1.533203,0.7041016,-0.1474609,-0.08203125,-0.3793945,-0.07617188
2068,5.9375,-11.1875,-384.8125,-1.571777,0.3388672,0.009765625,-0.05566406,-0.3857422,-0.07617188
2072,38.625,-1.625,-392.375,-1.866211,0.4516602,-0.1015625,-0.01855469,-0.3881836,-0.07470703
2076,30.9375,-4.3125,-390.3125,-2.094727,0.7431641,-0.2553711,0.02148438,-0.390625,-0.07080078
2080,0.875,-6.75,-389.3125,-2.133789,0.7509766,-0.2475586,0.04736328,-0.3881836,-0.06933594
2084,-10.625,-2,-389.0625,-2.17627,0.5913086,-0.1860352,0.08691406,-0.3818359,-0.07080078
2088,-11.5625,7,-391.1875,-2.246094,0.5722656,-0.1474609,0.1210938,-0.3691406,-0.07080078
2092,-10.8125,6.375,-395.6875,-2.370117,0.6733398,-0.1015625,0.1459961,-0.3579102,-0.07177734
2096,-1.0625,-4.0625,-388.875,-2.408691,0.7470703,-0.03222656,0.1806641,-0.3354492,-0.07324219
2100,23.5625,-11,-355.625,-2.342773,0.8632813,0.01708984,0.2094727,-0.3154297,-0.07324219
2104,44.3125,-6.1875,-307,-2.141602,1.04248,-0.02832031,0.2260742,-0.2993164,-0.07177734
2108,48.125,0.75,-260.875,-1.92041,1.275391,-0.109375,0.2460938,-0.2783203,-0.06933594
2112,32.5,5.25,-224.75,-1.711426,1.388184,-0.1630859,0.2592773,-0.2583008,-0.06640625
2116,8.5,10,-196.9375,-1.544922,1.407715,-0.1782227,0.2666016,-0.2470703,-0.06640625
2120,-9.5625,19.5625,-166.75,-1.475098,1.349121,-0.02050781,0.2749023,-0.2319336,-0.06542969
2124,-2.375,35.125,-132.125,-1.389648,1.255859,0.2329102,0.2841797,-0.2167969,-0.06396484
2128,16.875,43.1875,-100.125,-1.432129,1.341309,0.3520508,0.2866211,-0.2104492,-0.05957031
2132,21.125,36.375,-80.125,-1.347168,1.559082,0.3364258,0.2890625,-0.2006836,-0.05566406
2136,12.125,21.9375,-68.125,-1.273438,1.675781,0.3134766,0.2949219,-0.1967773,-0.05175781
2140,17.1875,13.125,-46.1875,-1.211426,1.640625,0.375,0.2963867,-0.1943359,-0.05029297
2144,31,12.75,-12.375,-1.223145,1.769043,0.3520508,0.2983398,-0.1894531,-0.04882813
2148,22.3125,13.25,31.875,-1.230957,1.986328,0.1787109,0.2973633,-0.1894531,-0.04638672
2152,-6.875,17.1875,77.6875,-1.199707,2.106934,0.02490234,0.2983398,-0.1933594,-0.04492188
2156,-34.3125,22.5,119.5625,-1.215332,1.850586,-0.02050781,0.2939453,-0.1992188,-0.04345703
2160,-48.875,21.75,147.25,-1.25,1.586426,0.03662109,0.2866211,-0.2119141,-0.04345703
2164,-46.6875,12.5,159.375,-1.285156,1.267578,0.1943359,0.2832031,-0.2216797,-0.04345703
2168,-26.375,2.0625,168.0625,-1.339355,1.038574,0.2866211,0.2758789,-0.234375,-0.04492188
2172,0.25,-10.375,178.9375,-1.439941,0.9453125,0.3330078,0.2666016,-0.2495117,-0.04736328
2176,18.1875,-26.75,191.6875,-1.517578,0.9760742,0.2866211,0.2602539,-0.2592773,-0.04882813
2180,23.4375,-41.3125,207.6875,-1.552246,0.9995117,0.2094727,0.2485352,-0.2753906,-0.04736328
2184,25.875,-42.3125,222.1875,-1.509766,0.972168,0.1210938,0.234375,-0.2905273,-0.04882813
2189,20.8125,-34.3125,236.0625,-1.505859,0.9956055,-0.01660156,0.222168,-0.3007813,-0.05029297
2193,-2.875,-26.3125,246.625,-1.560059,1.038574,-0.1245117,0.2045898,-0.3193359,-0.05029297
2197,-31.125,-24.875,250.625,-1.567871,0.8828125,-0.08984375,0.1855469,-0.3369141,-0.05273438
2201,-37.8125,-22.6875,256.0625,-1.537109,0.6811523,0.005859375,0.1723633,-0.3432617,-0.05712891
2205,-36,-19.0625,258.1875,-1.501953,0.6225586,0.02880859,0.1499023,-0.3554688,-0.05859375
2209,-38.1875,-28.3125,251.875,-1.413086,0.5839844,-0.01660156,0.1269531,-0.3706055,-0.06396484
2213,-40.8125,-30.5625,239.4375,-1.28125,0.5097656,-0.02441406,0.1103516,-0.3730469,-0.06933594
2217,-30.5,-23.625,237.625,-1.187988,0.4399414,-0.01318359,0.09130859,-0.3803711,-0.07177734
2221,-20.25,-15.25,232.4375,-1.149414,0.5410156,-0.02441406,0.06787109,-0.3867188,-0.07470703
2225,-21.5625,-13.5625,232.875,-1.118652,0.6342773,-0.07080078,0.05078125,-0.3891602,-0.07617188
2229,-30,-8.4375,232,-1.052734,0.6923828,-0.0859375,0.02587891,-0.390625,-0.08007813
2233,-40.75,-11.6875,228.8125,-1.091309,0.6884766,-0.1015625,0.004394531,-0.390625,-0.08300781
2237,-39.4375,-8.375,231.875,-0.9438477,0.6420898,-0.06298828,-0.01171875,-0.3891602,-0.08447266
2241,-42.75,-5.6875,226.625,-0.8896484,0.7197266,-0.128418,-0.03417969,-0.3857422,-0.08984375
2245,-53.25,-9.3125,218.625,-0.8085938,0.7080078,-0.109375,-0.05810547,-0.3833008,-0.09521484
2249,-55.25,-9.9375,214.25,-0.7231445,0.6772461,-0.06689453,-0.07226563,-0.3769531,-0.09765625
2253,-49.75,-8,206.9375,-0.7192383,0.6884766,0.01708984,-0.09130859,-0.3666992,-0.1035156
2257,-45.3125,-19.25,205.6875,-0.746582,0.777832,0.05175781,-0.1103516,-0.3618164,-0.105957
2261,-30.4375,-11.3125,220.125,-0.5756836,0.7666016,0.09423828,-0.1235352,-0.3544922,-0.1088867
2265,-24.75,-1.5625,230.4375,-0.5683594,0.9140625,0.04052734,-0.1459961,-0.3432617,-0.1098633
2269,-36.875,-8.125,231.8125,-0.5488281,0.972168,0.06347656,-0.1650391,-0.3305664,-0.112793
2273,-41.25,-12.25,229.875,-0.3823242,0.8598633,0.1367188,-0.1772461,-0.3232422,-0.112793
2277,-34.125,-15.6875,229.375,-0.4208984,0.8789063,0.1635742,-0.1972656,-0.3066406,-0.1157227
2281,-19.875,-17.6875,246.3125,-0.4169922,0.9023438,0.2368164,-0.215332,-0.2880859,-0.1157227
2285,-3.5625,-12.875,272.625,-0.3549805,0.9179688,0.2211914,-0.2280273,-0.2768555,-0.1166992
2289,-6.375,-9.5,297.625,-0.1728516,0.8325195,0.125,-0.2460938,-0.2543945,-0.1157227
2293,-12.1875,-11.625,293.9375,-0.03710938,0.6069336,0.144043,-0.2636719,-0.2294922,-0.1157227
2297,-12.0625,-12.8125,288.5,0.03173828,0.4399414,0.2133789,-0.2758789,-0.2119141,-0.1157227
2301,-12.3125,-20.8125,281.125,0.06689453,0.3466797,0.1826172,-0.2875977,-0.1855469,-0.1098633
2305,0.125,-12.5,287.125,0.2104492,0.1293945,0.2905273,-0.2998047,-0.1621094,-0.1113281
2309,10.0625,-7.3125,284.875,0.2875977,0.06689453,0.2133789,-0.3056641,-0.1381836,-0.1088867
2313,-2.625,-8.3125,274.375,0.3691406,-0.03759766,0.06347656,-0.3139648,-0.1118164,-0.1074219
2318,-29.5625,-7.25,259.375,0.4506836,-0.2666016,-0.02050781,-0.3173828,-0.08300781,-0.1088867
2322,-80.75,-17.375,233.625,0.5629883,-0.8725586,-0.1474609,-0.3188477,-0.06689453,-0.1074219
2326,-112.4375,-18.1875,198.3125,0.7836914,-1.844238,-0.01318359,-0.3188477,-0.03955078,-0.1044922
2330,-90.375,-17.3125,153.875,0.9194336,-2.986328,0.2021484,-0.3198242,-0.01953125,-0.1020508
2334,-19.375,-11.5,46.4375,1.508301,-3.728516,0.4750977,-0.3188477,-0.009277344,-0.1020508
2338,66.3125,-5.875,-93.0625,1.29541,-2.780273,0.4599609,-0.3198242,-0.008300781,-0.1005859
2342,110.9375,-22.6875,-178.25,0.7294922,-1.750977,0.3017578,-0.3208008,-0.02587891,-0.09912109
2346,125.25,-33.375,-193.25,0.4077148,-0.9892578,0.105957,-0.3232422,-0.04052734,-0.09765625
2350,109.125,-34.375,-202.375,0.5087891,-0.4882813,-0.109375,-0.3222656,-0.06445313,-0.09521484
2354,75.75,-15.5,-218.1875,0.609375,-0.2431641,-0.2246094,-0.3198242,-0.08691406,-0.09228516
2358,31.8125,-6,-238.4375,0.3378906,-0.1191406,-0.1899414,-0.3188477,-0.1030273,-0.09082031
2362,9.5625,-19.625,-265.4375,0.2333984,-0.3095703,0.06738281,-0.3139648,-0.1293945,-0.08837891
2366,26.875,-15.0625,-284.4375,0.1635742,-0.3676758,0.1787109,-0.3056641,-0.1567383,-0.08984375
2370,61.5,-6.9375,-292.8125,-0.03710938,-0.2353516,0.2133789,-0.2998047,-0.1757813,-0.08544922
2374,80.25,6.375,-283.3125,-0.2192383,0.171875,0.02099609,-0.2851563,-0.203125,-0.08544922
2378,60.25,22.375,-271.4375,-0.3085938,0.4438477,-0.128418,-0.2734375,-0.2304688,-0.08007813
2382,24.375,22.8125,-272.75,-0.4985352,0.5488281,-0.1669922,-0.2617188,-0.2456055,-0.08007813
2386,4.375,-0.875,-296.1875,-0.5253906,0.3779297,0.06738281,-0.2436523,-0.2705078,-0.08154297
2390,19.6875,-19.375,-338.375,-0.5644531,0.4086914,0.07910156,-0.222168,-0.2944336,-0.07861328
2394,25.5,-26.9375,-365.4375,-0.7695313,0.5292969,0.03271484,-0.2045898,-0.3105469,-0.07763672
2398,51.6875,-16.5,-347.3125,-1.083496,0.7548828,0.04785156,-0.1748047,-0.3354492,-0.07177734
2402,68.375,5.125,-292.0625,-1.125977,1.178223,-0.128418,-0.1459961,-0.3530273,-0.06640625
2406,37.75,22.3125,-270.625,-1.052734,1.473633,-0.4208984,-0.1293945,-0.3642578,-0.06396484
2410,-10.5,16.125,-278.375,-1.060547,1.221191,-0.309082,-0.1020508,-0.3745117,-0.06542969
2414,-6.875,-4,-314.125,-1.048828,0.7817383,0.005859375,-0.07324219,-0.3818359,-0.06640625
2418,44.375,-5.8125,-331.5,-1.215332,0.8051758,0.08251953,-0.05419922,-0.3881836,-0.06542969
2422,47.3125,-10,-315.5,-1.494141,1.426758,-0.1669922,-0.01855469,-0.3930664,-0.06103516
2426,3.625,-10.5625,-274.0625,-1.424316,1.609375,-0.2016602,0.009277344,-0.3930664,-0.05712891
2430,-19.8125,6.0625,-239.9375,-1.23877,1.267578,-0.1669922,0.02587891,-0.3930664,-0.05859375
2434,-18.6875,26.5,-229.8125,-1.15332,0.953125,-0.1435547,0.05078125,-0.390625,-0.05957031
2438,-2.6875,33.1875,-235.625,-1.234863,0.8129883,-0.112793,0.07373047,-0.3857422,-0.06103516
2442,10.875,26.75,-259.875,-1.285156,1.04248,-0.07861328,0.09130859,-0.3818359,-0.05957031
2447,17.3125,4.5,-277.4375,-1.471191,1.523926,-0.04003906,0.1142578,-0.3730469,-0.05859375
2451,9.5,-13.5,-256.625,-1.505859,2.052246,0.01367188,0.1401367,-0.3618164,-0.05859375
2455,5.125,-7.9375,-192.5,-1.347168,2.161133,0.08251953,0.1547852,-0.3530273,-0.05859375
2459,0,9.375,-132,-1.001953,2.114746,-0.05126953,0.1689453,-0.3457031,-0.05712891
2463,-15.8125,22.3125,-103.4375,-0.7929688,1.994141,-0.04394531,0.1772461,-0.3393555,-0.05712891
2467,-34.875,28.1875,-90.4375,-0.7617188,1.84668,0.07128906,0.1865234,-0.3344727,-0.05957031
2471,-40.5,22.3125,-74.1875,-0.8588867,1.640625,0.3520508,0.1914063,-0.3291016,-0.06103516
2475,-14.75,11,-51,-0.847168,1.547363,0.6210938,0.1972656,-0.3242188,-0.0625
2479,15.3125,-4.25,-28.25,-0.9091797,1.702637,0.6713867,0.1987305,-0.3232422,-0.05859375
2483,33.875,-23.1875,4.75,-0.9907227,1.908691,0.5595703,0.2011719,-0.3242188,-0.05957031
2487,40.3125,-27.75,50.3125,-0.9091797,1.990234,0.375,0.2011719,-0.3256836,-0.05957031
2491,40.5625,-23.1875,87,-0.8857422,2.044922,0.2211914,0.1938477,-0.328125,-0.05859375
2495,29.875,-23,116.4375,-1.009766,2.04834,0.1479492,0.1865234,-0.3330078,-0.05859375
2499,19,-22.9375,145.0625,-1.083496,1.924316,0.1328125,0.1772461,-0.3417969,-0.05712891
2503,14.125,-28.5,165.375,-1.191895,1.745605,0.1635742,0.1674805,-0.3457031,-0.05419922
2507,31.6875,-36.8125,191.6875,-1.304199,1.446289,0.2749023,0.1547852,-0.3569336,-0.05273438
2511,50.6875,-37.875,212.375,-1.339355,1.430664,0.159668,0.1367188,-0.3666992,-0.05273438
2515,53.5,-45.375,225.8125,-1.339355,1.399902,0.01367188,0.1210938,-0.3706055,-0.04736328
2519,41.6875,-46.1875,227.9375,-1.246094,1.333496,-0.1323242,0.09960938,-0.3793945,-0.04638672
2523,24.9375,-28.0625,233.125,-1.087402,1.306641,-0.2285156,0.07617188,-0.3867188,-0.04345703
2527,-8.3125,-1.6875,236.9375,-1.07959,1.384277,-0.3515625,0.06298828,-0.3881836,-0.04492188
2531,-49.4375,9.875,237.25,-1.137695,1.364746,-0.3398438,0.0390625,-0.3930664,-0.04492188
2535,-91.8125,10.9375,230,-1.114746,1.189941,-0.2822266,0.01416016,-0.3955078,-0.05273438
2539,-96.9375,10.125,222.3125,-1.025391,0.809082,-0.109375,-0.0009765625,-0.3945313,-0.05957031
2543,-68.125,13.25,235.4375,-1.106934,0.6884766,0.04443359,-0.02246094,-0.3916016,-0.06787109
2547,-54.6875,11.625,255.6875,-1.052734,0.7973633,-0.001464844,-0.04736328,-0.3881836,-0.07617188
2551,-52.5625,6.625,263.6875,-0.9516602,0.8364258,0.01367188,-0.06640625,-0.3833008,-0.07763672
2555,-63,-2.5625,272.3125,-0.9477539,0.9916992,-0.05126953,-0.09033203,-0.3754883,-0.08447266
2559,-86.1875,-3.8125,289.6875,-0.8666992,0.9916992,-0.112793,-0.1162109,-0.3642578,-0.08837891
2563,-91.3125,0.6875,311.5,-0.7270508,0.7080078,-0.009277344,-0.1367188,-0.3544922,-0.09521484
2567,-63.6875,12.5,324.8125,-0.6455078,0.4829102,0.144043,-0.1640625,-0.3369141,-0.1035156
2571,-40.25,14,331.5625,-0.5952148,0.5683594,0.08251953,-0.1899414,-0.3154297,-0.1088867
2576,-51.875,-2.1875,311.375,-0.5214844,0.6811523,0.05566406,-0.2080078,-0.3007813,-0.1098633
2580,-57.75,-17.125,295.5625,-0.4365234,0.5644531,0.125,-0.2280273,-0.2783203,-0.1113281
2584,-41,-2.9375,300.3125,-0.3745117,0.5839844,0.2133789,-0.2485352,-0.2504883,-0.1157227
2588,-33.9375,-1.9375,298.25,-0.4052734,0.6538086,0.1904297,-0.2602539,-0.234375,-0.1166992
2592,-13.25,-2.0625,308.3125,-0.4365234,0.5683594,0.2944336,-0.2744141,-0.2080078,-0.1157227
2596,2.9375,-9.875,315.0625,-0.3974609,0.6577148,0.2211914,-0.2900391,-0.1767578,-0.1142578
2600,-2.75,-23.5625,315.9375,-0.2929688,0.5644531,0.1289063,-0.2983398,-0.1591797,-0.112793
2604,-23.375,-30.625,317.9375,-0.2041016,0.4360352,0.03271484,-0.3066406,-0.1269531,-0.1113281
2608,-61.875,-37.5,322.0625,-0.1342773,0.1333008,-0.1401367,-0.3164063,-0.09326172,-0.105957
2612,-82.8125,-35.375,324.4375,0.06298828,-0.7719727,-0.04394531,-0.3208008,-0.06933594,-0.105957
2616,-85,-30.375,310.9375,0.2177734,-1.486816,-0.09375,-0.3198242,-0.03710938,-0.1035156
2620,-89.6875,-24.1875,264.5,0.5395508,-1.898438,-0.1782227,-0.3208008,-0.003417969,-0.09912109
2624,-70.4375,-6.625,210.0625,0.8730469,-2.811523,-0.0859375,-0.3173828,0.01611328,-0.09667969
2628,-23.6875,32.6875,136.3125,1.121094,-3.324219,0.009765625,-0.3139648,0.03613281,-0.09765625
2632,2.4375,30.3125,-6.8125,1.213867,-2.990234,0.09814453,-0.3105469,0.04492188,-0.09912109
2636,30.125,6.3125,-145.4375,0.8613281,-2.39209,0.2402344,-0.3105469,0.04003906,-0.1005859
2640,73.5625,-0.6875,-201.6875,0.3999023,-1.743164,0.2519531,-0.3149414,0.02246094,-0.1020508
2644,95.75,-2.6875,-215.5,0.3378906,-1.105957,0.1328125,-0.3173828,-0.0004882813,-0.1020508
2648,82.625,-3.8125,-240.5,0.4272461,-0.6279297,-0.04736328,-0.3188477,-0.01708984,-0.105957
2652,53.875,0.5625,-265.25,0.4467773,-0.4335938,-0.05517578,-0.3198242,-0.04589844,-0.1044922
2656,47.625,14.9375,-270.8125,0.3071289,-0.3833008,0.04052734,-0.3173828,-0.07177734,-0.1044922
2660,66.125,17.1875,-274.3125,0.1948242,-0.3676758,0.1904297,-0.3149414,-0.09326172,-0.105957
2664,91.5,9.5625,-291.4375,0.05517578,-0.2045898,0.2172852,-0.3115234,-0.1230469,-0.1074219
2668,105,-2.4375,-310.75,-0.04101563,0.07470703,0.1713867,-0.3007813,-0.1542969,-0.1044922
2672,107.75,-1.625,-315.125,-0.1572266,0.4555664,0.05175781,-0.2949219,-0.1767578,-0.1020508
2676,97.5625,1.6875,-309.3125,-0.2543945,0.6655273,-0.001464844,-0.2817383,-0.2094727,-0.09912109
2680,80.4375,12.25,-285,-0.3046875,0.8364258,-0.06298828,-0.2651367,-0.2368164,-0.09375
2684,62.5,11.5,-279.1875,-0.4130859,0.7275391,0.005859375,-0.2543945,-0.2543945,-0.09228516
2688,80.9375,-27.1875,-310.6875,-0.5292969,0.6303711,0.1865234,-0.2353516,-0.2807617,-0.08984375
2692,104.9375,-49,-337.6875,-0.5722656,0.6772461,0.1328125,-0.2128906,-0.3041992,-0.08007813
2696,136.25,-56.6875,-323.8125,-0.8354492,0.7973633,-0.0859375,-0.1948242,-0.3208008,-0.07177734
2700,89,-55.75,-295.75,-0.9013672,1.842773,-0.5361328,-0.168457,-0.3408203,-0.05859375
2705,-20.375,-44.0625,-262.8125,-0.6186523,1.722168,-0.6054688,-0.1435547,-0.3579102,-0.05175781
2709,-64.125,-14.125,-241.5625,-0.4868164,0.7973633,-0.1938477,-0.1269531,-0.3657227,-0.05273438
2713,-8.6875,12.8125,-244.125,-0.6533203,0.3583984,0.02099609,-0.1044922,-0.3745117,-0.05859375
2717,16.125,-13.625,-286.5,-0.8857422,0.5136719,-0.09375,-0.08203125,-0.3818359,-0.05957031
2721,40.5625,-27.3125,-317.75,-0.9829102,0.6225586,-0.09375,-0.05908203,-0.3857422,-0.05566406
2725,32.6875,-26,-314.0625,-1.253906,1.034668,-0.1977539,-0.02929688,-0.3916016,-0.05175781
2729,-7.6875,-24.875,-293.6875,-1.315918,1.146973,-0.1743164,0.0009765625,-0.3945313,-0.05029297
2733,-37.25,-14.125,-286.0625,-1.227051,0.8984375,-0.07470703,0.02246094,-0.3955078,-0.05273438
2737,-33.875,-6.8125,-296.5625,-1.300781,0.6577148,0.04052734,0.05078125,-0.390625,-0.05566406
2741,-12.3125,-5.4375,-312.75,-1.416992,0.7587891,0.03271484,0.08203125,-0.3867188,-0.05859375
2745,-7.5625,-5.8125,-317.875,-1.513672,0.9643555,-0.01318359,0.1010742,-0.3793945,-0.05859375
2749,-11.75,-5.5,-308.125,-1.665039,1.088867,0.01708984,0.1318359,-0.3681641,-0.05957031
2753,-14.125,-6.1875,-278.5,-1.703613,1.182129,0.05175781,0.1557617,-0.3544922,-0.06103516
2757,-21,-0.375,-246.375,-1.575684,1.209473,0.04052734,0.1738281,-0.3442383,-0.06103516
2761,-24.9375,6.75,-224.0625,-1.370117,1.189941,-0.01318359,0.1914063,-0.3305664,-0.06396484
2765,-30.9375,15.1875,-212.625,-1.253906,1.20166,-0.01318359,0.2080078,-0.3154297,-0.06787109
2769,-27.9375,21.4375,-196.5,-1.289063,1.154785,0.1328125,0.21875,-0.3056641,-0.06640625
2773,-6.25,23.25,-171.125,-1.28125,1.108398,0.2636719,0.230957,-0.2929688,-0.06787109
2777,17.5,22.25,-142.5,-1.292969,1.182129,0.2827148,0.2426758,-0.2783203,-0.06640625
2781,20.875,17.8125,-116.8125,-1.168945,1.368652,0.1748047,0.2485352,-0.2729492,-0.06542969
2785,16.25,15.75,-92.75,-1.087402,1.403809,0.144043,0.2543945,-0.265625,-0.06103516
2789,12.125,18.4375,-68.875,-1.017578,1.438477,0.2094727,0.2583008,-0.2592773,-0.06103516
2793,9.25,18.9375,-50.3125,-0.9907227,1.539551,0.2597656,0.2617188,-0.2558594,-0.05957031
2797,6.5,13.125,-32.1875,-1.060547,1.644531,0.3095703,0.2651367,-0.2504883,-0.05566406
2801,8.4375,5.625,-8.8125,-1.099121,1.741699,0.3291016,0.2666016,-0.2495117,-0.05419922
2805,14.1875,-0.0625,23.75,-1.199707,1.827148,0.2944336,0.2666016,-0.2495117,-0.05566406
2809,18.75,-3.5625,70,-1.304199,1.823242,0.2519531,0.2651367,-0.2519531,-0.05273438
2813,23.6875,-3.5625,120.5625,-1.351074,1.803711,0.2480469,0.2592773,-0.2607422,-0.05175781
2817,29.5,-6.5,165.0625,-1.45166,1.706543,0.2519531,0.253418,-0.2695313,-0.05175781
2821,35.25,-12.125,200.5,-1.517578,1.671875,0.2211914,0.2426758,-0.2817383,-0.05029297
2825,39.9375,-11.375,232.1875,-1.571777,1.58252,0.1713867,0.2294922,-0.2983398,-0.04882813
2829,39.3125,-10.9375,259.125,-1.699707,1.562988,0.03662109,0.2177734,-0.3095703,-0.04492188
2834,22.5625,-6.375,284.9375,-1.715332,1.566895,-0.09765625,0.1987305,-0.3266602,-0.04492188
2838,-7.9375,2.5625,306.25,-1.765625,1.527832,-0.1977539,0.1738281,-0.3466797,-0.04492188
2842,-37.9375,2.9375,318.4375,-1.808105,1.337402,-0.2128906,0.1557617,-0.3544922,-0.04052734
2846,-54.5,1,321.1875,-1.78125,1.154785,-0.2167969,0.1269531,-0.3691406,-0.05029297
2850,-57.1875,2.375,321.8125,-1.637695,0.956543,-0.1552734,0.09863281,-0.3793945,-0.05273438
2854,-54,15.5,326.0625,-1.533203,0.90625,-0.1860352,0.07714844,-0.3867188,-0.05859375
2858,-69.6875,20.875,324.9375,-1.513672,0.9492188,-0.2670898,0.04492188,-0.390625,-0.0625
2862,-93,14.5625,315.875,-1.413086,0.8325195,-0.2436523,0.01269531,-0.3916016,-0.07177734
2866,-108.625,2.625,293.3125,-1.28125,0.6962891,-0.2016602,-0.006835938,-0.390625,-0.07617188
2870,-98.8125,-3.8125,279.1875,-1.292969,0.5644531,-0.02832031,-0.03759766,-0.3857422,-0.08837891
2874,-80.6875,-9.6875,294.875,-1.319824,0.6225586,-0.05517578,-0.06494141,-0.3803711,-0.09521484
2878,-80.6875,-13.4375,318.6875,-1.257813,0.6381836,-0.112793,-0.08398438,-0.3730469,-0.1020508
2882,-85.8125,-11.6875,327.0625,-0.9248047,0.4321289,-0.07080078,-0.1152344,-0.359375,-0.1088867
2886,-82.4375,-15.875,301.8125,-0.746582,0.300293,-0.04003906,-0.1425781,-0.3442383,-0.1157227
2890,-74.4375,-19.5625,274.875,-0.6303711,0.2416992,0.04052734,-0.1616211,-0.3320313,-0.1196289
2894,-49,-11.875,262.8125,-0.6147461,0.2729492,0.08642578,-0.1865234,-0.3144531,-0.1235352
2898,-28.625,-5.875,280.25,-0.6069336,0.2612305,0.140625,-0.2055664,-0.2954102,-0.1264648
2902,-13.6875,-0.3125,282.375,-0.4521484,0.315918,0.1171875,-0.21875,-0.2807617,-0.125
2906,-21.8125,-9.8125,265.9375,-0.4985352,0.5449219,0.06738281,-0.2353516,-0.2607422,-0.1264648
2910,-28.5625,-17.875,253.75,-0.3745117,0.6264648,0.1826172,-0.253418,-0.2382813,-0.1264648
2914,-12,-19.1875,251,-0.3862305,0.7041016,0.2866211,-0.2636719,-0.2246094,-0.1264648
2918,3.75,-19.875,276.625,-0.4091797,0.8325195,0.2133789,-0.2758789,-0.2006836,-0.125
2922,2.6875,-8.5625,314.25,-0.2583008,0.7587891,0.1098633,-0.2890625,-0.1743164,-0.1210938
2926,-24.1875,-11.25,329.1875,-0.09130859,0.5136719,-0.005371094,-0.2983398,-0.1533203,-0.1225586
2930,-88.4375,-34.9375,299,0.1445313,0.1835938,-0.1206055,-0.3066406,-0.1206055,-0.1225586
2934,-149.875,-60.9375,231.25,0.4619141,-0.3833008,-0.109375,-0.3115234,-0.08935547,-0.1166992
2938,-138.5,-63.5625,202.5,0.5009766,-1.160156,0.125,-0.3173828,-0.07080078,-0.1142578
2942,-69.3125,-36.6875,189.875,0.7216797,-1.995605,0.3520508,-0.3188477,-0.04931641,-0.1088867
2946,-0.9375,-19.9375,183.875,0.7758789,-2.248047,0.1982422,-0.3198242,-0.02587891,-0.105957
2950,10.125,-16.5,141.4375,1.117188,-2.442383,-0.07080078,-0.3198242,-0.01464844,-0.105957
2954,-0.3125,-7.8125,35.375,1.5625,-2.481445,-0.1166992,-0.3188477,-0.004394531,-0.1020508
2958,10.9375,-3.5625,-96.6875,1.395996,-2.166504,0.05566406,-0.3188477,-0.004394531,-0.1020508
2963,61.1875,-6.8125,-167.5,0.8339844,-1.723633,0.2133789,-0.3198242,-0.015625,-0.1005859
2967,116.5,-4.0625,-173.6875,0.5161133,-1.098145,0.1518555,-0.3208008,-0.03564453,-0.1005859
2971,126.3125,-4.5625,-179.3125,0.5820313,-0.4648438,-0.05126953,-0.3208008,-0.05566406,-0.1020508
2975,99.6875,0,-202.0625,0.6328125,-0.1889648,-0.112793,-0.3198242,-0.07080078,-0.1020508
2979,81.3125,4.5,-216.75,0.4350586,-0.1772461,0.005859375,-0.3188477,-0.09423828,-0.1020508
2983,89.25,-0.9375,-225.625,0.3032227,-0.2548828,0.2172852,-0.3125,-0.1166992,-0.1005859
2987,104,-3.75,-230.5625,0.2026367,-0.02978516,0.1635742,-0.3105469,-0.1367188,-0.09765625
2991,84.125,0.8125,-228,0.125,0.300293,-0.009277344,-0.3007813,-0.1606445,-0.09521484
2995,41.6875,6.4375,-225.625,0.08642578,0.3349609,-0.06298828,-0.2924805,-0.1845703,-0.09228516
2999,24.9375,17,-229.3125,0.03173828,0.07470703,0.105957,-0.2866211,-0.1992188,-0.09375
3003,60.8125,26.375,-238.875,-0.06835938,-0.08398438,0.2675781,-0.2768555,-0.2207031,-0.09228516
3007,67.6875,-5.1875,-275.0625,-0.3393555,0.253418,0.03662109,-0.2617188,-0.2441406,-0.09228516
3011,44.625,-34.875,-318.6875,-0.3046875,0.4477539,-0.1054688,-0.2495117,-0.2607422,-0.08984375
3015,11.875,-32.1875,-330,-0.4404297,0.5449219,-0.1977539,-0.2280273,-0.2880859,-0.08300781
3019,-2.9375,-13.5,-321.8125,-0.5488281,0.4243164,-0.05126953,-0.2055664,-0.3120117,-0.08300781
3023,69.0625,7.25,-321.4375,-0.7695313,0.07861328,0.3056641,-0.1875,-0.3242188,-0.08300781
3027,141.4375,-14.1875,-345.125,-1.071777,0.5410156,0.02490234,-0.1616211,-0.3457031,-0.07470703
3031,140.25,-41,-389.3125,-0.9594727,1.034668,-0.2631836,-0.1269531,-0.3657227,-0.06103516
3035,88.3125,-46.875,-414.3125,-1.223145,1.469727,-0.4169922,-0.1020508,-0.3754883,-0.05175781
3039,12.375,-51.9375,-382.25,-1.471191,1.422852,-0.3398438,-0.06396484,-0.3881836,-0.04638672
3043,-17.9375,-44.1875,-324.0625,-1.401367,0.987793,-0.09765625,-0.02587891,-0.3930664,-0.04492188
3047,-24.4375,-33.25,-288.9375,-1.215332,0.7001953,-0.1206055,-0.005859375,-0.3945313,-0.04736328
3051,-6.0625,-27.6875,-305.1875,-1.168945,0.3466797,-0.04003906,0.0234375,-0.3916016,-0.04736328
3055,27.0625,-26.75,-334.3125,-1.343262,0.4013672,-0.08203125,0.0546875,-0.390625,-0.04882813
3059,50.5625,-21.25,-349.875,-1.541016,0.6303711,-0.109375,0.07714844,-0.3881836,-0.04638672
3063,54.5625,-22.375,-340,-1.885742,1.019043,-0.2016602,0.1103516,-0.3779297,-0.03955078
3067,16.8125,-23.3125,-298.0625,-1.897461,1.317871,-0.2939453,0.1401367,-0.3642578,-0.03955078
3071,-33,-11.375,-266.875,-1.618164,1.213379,-0.2939453,0.1567383,-0.3569336,-0.03955078
3075,-53.875,0.625,-259.4375,-1.552246,0.9335938,-0.1401367,0.1831055,-0.3417969,-0.04345703
3079,-36.4375,1.125,-273.75,-1.606445,0.9916992,-0.01660156,0.2011719,-0.3242188,-0.04736328
3083,-9.6875,-1.875,-262.1875,-1.672363,1.209473,0.04052734,0.215332,-0.3129883,-0.05029297
3087,8.5,5.25,-213.625,-1.711426,1.461914,0.04443359,0.2329102,-0.2954102,-0.04736328
3092,3.875,9.0625,-157,-1.595215,1.590332,0.001953125,0.2451172,-0.2792969,-0.04638672
3096,-13.25,11,-117.5,-1.339355,1.493164,-0.05126953,0.2509766,-0.2705078,-0.04882813
3100,-31.5625,17.5625,-95.9375,-1.129883,1.368652,-0.05517578,0.2583008,-0.2631836,-0.04736328
3104,-44.1875,20.875,-78,-1.099121,1.236328,0.07128906,0.2617188,-0.2558594,-0.04882813
3108,-50,17.9375,-60.125,-1.129883,1.17041,0.2021484,0.2651367,-0.2495117,-0.04736328
3112,-35.8125,13.375,-47.9375,-1.056641,1.100586,0.3598633,0.269043,-0.2456055,-0.05175781
3116,-10.5625,9.125,-37.9375,-1.083496,1.13916,0.3945313,0.2700195,-0.2407227,-0.05175781
3120,5.3125,1.8125,-22.75,-1.106934,1.337402,0.3017578,0.2734375,-0.2392578,-0.05029297
3124,4.8125,-5.75,-6.0625,-1.15332,1.46582,0.2094727,0.2749023,-0.2368164,-0.05273438
3128,5.125,-9.9375,19.5625,-1.172852,1.481445,0.1713867,0.2734375,-0.2368164,-0.05175781
3132,13.875,-4.8125,58.625,-1.227051,1.485352,0.1865234,0.2724609,-0.2407227,-0.05273438
3136,14.5,-6,92.9375,-1.308105,1.512207,0.159668,0.269043,-0.2456055,-0.05029297
3140,10.5,-16.25,117.375,-1.343262,1.415039,0.1518555,0.2626953,-0.2558594,-0.05175781
3144,13.75,-24.4375,136.5625,-1.443848,1.384277,0.1479492,0.2568359,-0.2617188,-0.05175781
3148,18.1875,-31.4375,163.125,-1.583496,1.36084,0.1210938,0.2519531,-0.2753906,-0.05419922
3152,23.625,-24.4375,204.9375,-1.57959,1.333496,0.06347656,0.237793,-0.2880859,-0.05419922
3156,20.1875,-13.875,238.375,-1.70752,1.39209,-0.03222656,0.2285156,-0.2983398,-0.05273438
3160,8.9375,-2.3125,274.625,-1.78125,1.368652,-0.05908203,0.2104492,-0.3168945,-0.05029297
3164,-1.1875,10.6875,305.4375,-1.827637,1.294922,-0.08984375,0.1865234,-0.3344727,-0.05175781
3168,-27.4375,8.5625,314.25,-1.870117,1.283203,-0.1552734,0.1713867,-0.3442383,-0.05029297
3172,-61.375,-3.75,313.25,-1.87793,1.178223,-0.2363281,0.144043,-0.3618164,-0.05566406
3176,-77.9375,-2.75,318.3125,-1.742188,0.9140625,-0.1362305,0.1152344,-0.3730469,-0.06103516
3180,-68,5.4375,327.8125,-1.668457,0.7509766,-0.03613281,0.09521484,-0.3818359,-0.06640625
3184,-69.8125,3.5,329.4375,-1.649414,0.8598633,-0.07861328,0.06152344,-0.3881836,-0.07324219
3188,-93.375,-8.1875,324.625,-1.537109,0.921875,-0.1630859,0.02978516,-0.3881836,-0.08154297
3192,-124.125,-17.75,313.0625,-1.374023,0.7817383,-0.2016602,0.009277344,-0.3881836,-0.08837891
3196,-122.375,-19.5,310,-1.227051,0.4790039,-0.05517578,-0.02490234,-0.3842773,-0.1005859
3200,-100.625,-22.25,307.4375,-1.227051,0.4360352,0.03662109,-0.05419922,-0.3779297,-0.112793
3204,-83.6875,-26.3125,310.1875,-1.129883,0.4790039,0.04052734,-0.07470703,-0.3730469,-0.1181641
3208,-71.125,-24.875,318.5,-1.056641,0.5644531,0.02099609,-0.1030273,-0.359375,-0.125
3212,-74.25,-27.4375,315.75,-0.9750977,0.6147461,0.001953125,-0.1352539,-0.3432617,-0.1279297
3216,-82.5,-38,309.5,-0.8276367,0.4985352,-0.005371094,-0.1533203,-0.3305664,-0.1318359
3221,-82.8125,-29.5,306.8125,-0.6376953,0.3701172,0.02490234,-0.1806641,-0.3105469,-0.1357422
3225,-79.0625,-18.25,305.375,-0.5756836,0.3310547,0.02099609,-0.203125,-0.2905273,-0.1416016
3229,-66.8125,-9,296.25,-0.5371094,0.3041992,0.1289063,-0.2163086,-0.2729492,-0.1455078
3233,-50.0625,-11,291.0625,-0.5371094,0.3701172,0.1865234,-0.2363281,-0.2470703,-0.1455078
3237,-35.625,-20.6875,289.3125,-0.5253906,0.4052734,0.2060547,-0.253418,-0.2231445,-0.1455078
3241,-32.25,-30.3125,289.0625,-0.3666992,0.4399414,0.2329102,-0.2651367,-0.2070313,-0.1469727
3245,-33.3125,-38.1875,296.3125,-0.3706055,0.3271484,0.1367188,-0.2768555,-0.1806641,-0.144043
3249,-46.4375,-41.625,300.625,-0.01806641,0.004882813,0.09423828,-0.2890625,-0.1508789,-0.1425781
3253,-51.125,-39.625,284.0625,0.1713867,-0.3637695,0.07910156,-0.2973633,-0.1318359,-0.1416016
3257,-46.5,-44.0625,255.25,0.3999023,-0.8183594,0.06738281,-0.3056641,-0.1020508,-0.137207
3261,-34.25,-46.375,219.625,0.625,-1.237793,0.06738281,-0.309082,-0.07714844,-0.1333008
3265,-8.625,-38.5,192.375,0.7641602,-1.599121,-0.04003906,-0.3139648,-0.06298828,-0.1303711
3269,8.5625,-19.9375,166.8125,0.9541016,-2.053711,-0.1015625,-0.3139648,-0.04296875,-0.1235352
3273,26.9375,0.25,129.25,1.179199,-2.52002,-0.01660156,-0.3139648,-0.02832031,-0.125
3277,56.8125,17.8125,40,1.395996,-2.605469,0.2290039,-0.3125,-0.02050781,-0.1235352
3281,81.375,-2.4375,-92.125,1.163574,-2.108398,0.3598633,-0.3125,-0.0234375,-0.1289063
3285,121.1875,-18.0625,-161.5625,0.6791992,-1.634277,0.409668,-0.3139648,-0.03808594,-0.1279297
3289,146.375,-26,-185.625,0.4931641,-0.9541016,0.2133789,-0.3125,-0.05175781,-0.125
3293,108.4375,-38.125,-207.25,0.4658203,-0.2314453,-0.0859375,-0.3139648,-0.078125,-0.1210938
3297,45.5,-43,-230.4375,0.5820313,-0.1035156,-0.09765625,-0.3115234,-0.1005859,-0.1157227
3301,20.1875,-25.875,-246.625,0.6713867,-0.340332,0.05175781,-0.309082,-0.1166992,-0.1157227
3305,42.25,7.8125,-253.9375,0.5126953,-0.4492188,0.2250977,-0.3017578,-0.1445313,-0.1113281
3309,70.0625,10.25,-268.125,0.175293,-0.3208008,0.2558594,-0.293457,-0.1704102,-0.112793
3313,96.6875,6.375,-274.5625,-0.06445313,-0.04541016,0.2480469,-0.2851563,-0.1894531,-0.1113281
3317,92.3125,-4.0625,-277.8125,-0.2583008,0.4321289,0.06347656,-0.2724609,-0.2182617,-0.1088867
3321,65.75,-17.5625,-277.5625,-0.4248047,0.3193359,-0.005371094,-0.2578125,-0.2431641,-0.1044922
3325,54.875,-10.1875,-282.0625,-0.3935547,0.5991211,0.06738281,-0.2485352,-0.2592773,-0.09912109
3329,65.0625,-8,-288.8125,-0.4326172,0.5605469,0.1328125,-0.2280273,-0.2832031,-0.09667969
3333,74.375,-5.8125,-304,-0.6186523,0.7666016,-0.01318359,-0.2080078,-0.3056641,-0.08984375
3337,71.875,-22.375,-315.3125,-0.9013672,0.9179688,-0.02832031,-0.1914063,-0.3193359,-0.08691406
3341,77.375,-25.75,-300.625,-0.9985352,1.310547,-0.1708984,-0.1674805,-0.3408203,-0.08007813
3345,41.75,-21.1875,-276.3125,-0.9790039,1.450195,-0.3666992,-0.1401367,-0.3579102,-0.07080078
3350,-5.5625,-12.6875,-263.125,-0.8588867,1.294922,-0.3515625,-0.1235352,-0.3642578,-0.07080078
3354,-41.9375,-1.3125,-259,-0.8046875,0.921875,-0.2592773,-0.09960938,-0.3730469,-0.07177734
3358,-48.75,4,-269.8125,-0.8549805,0.4711914,-0.07861328,-0.07470703,-0.3803711,-0.07470703
3362,-12.6875,0.6875,-298.8125,-0.9555664,0.1137695,0.09814453,-0.05566406,-0.3842773,-0.07861328
3366,43.6875,-5.375,-325.0625,-1.211426,0.1640625,0.1132813,-0.02587891,-0.3867188,-0.08007813
3370,76.875,-12.5625,-332.5625,-1.498047,0.5991211,-0.04394531,0.008300781,-0.3916016,-0.07324219
3374,65.3125,-20,-317.3125,-1.668457,0.9682617,-0.1669922,0.02978516,-0.3930664,-0.06787109
3378,42.875,-20.125,-293.1875,-1.625977,1.019043,-0.1977539,0.06152344,-0.3891602,-0.06103516
3382,22.625,-12.3125,-276.9375,-1.509766,0.90625,-0.2592773,0.08886719,-0.3842773,-0.06103516
3386,8.125,-3.0625,-276.25,-1.405273,0.7587891,-0.2978516,0.1069336,-0.3793945,-0.05859375
3390,1.5,9.0625,-283.5625,-1.420898,0.6845703,-0.2705078,0.1333008,-0.3681641,-0.05712891
3394,-2.375,20.9375,-293.25,-1.459473,0.7236328,-0.1899414,0.1591797,-0.3520508,-0.05859375
3398,3.0625,30.8125,-293.5625,-1.637695,0.7739258,-0.08203125,0.1748047,-0.3457031,-0.05712891
3402,18.875,28.875,-274.375,-1.79248,0.8520508,-0.001464844,0.1987305,-0.3266602,-0.05419922
3406,29.75,23,-244,-1.757813,1.081055,-0.04394531,0.2202148,-0.3081055,-0.05273438
3410,22.4375,10.875,-221.5625,-1.629883,1.271484,-0.08984375,0.2294922,-0.2983398,-0.05029297
3414,15.4375,5.5625,-206.375,-1.443848,1.349121,-0.09375,0.2436523,-0.2832031,-0.04736328
3418,16.1875,12.875,-186.5625,-1.331543,1.489258,-0.07080078,0.2558594,-0.265625,-0.04492188
3422,14.5625,28.25,-151.5625,-1.327637,1.652344,-0.04394531,0.2602539,-0.2568359,-0.04638672
3426,2.0625,30.875,-105.375,-1.401367,1.81543,0.01708984,0.2700195,-0.2441406,-0.04199219
3430,-9.8125,28,-60.75,-1.289063,1.78418,0.1748047,0.2749023,-0.2382813,-0.03808594
3434,-8.1875,24.875,-29.8125,-1.184082,1.718262,0.2944336,0.2758789,-0.2329102,-0.03808594
3438,4.9375,17.4375,-3.875,-1.12207,1.702637,0.3671875,0.2783203,-0.2329102,-0.03662109
3442,14.3125,9.375,20.6875,-1.141602,1.788086,0.3134766,0.2758789,-0.2304688,-0.03369141
3446,13.4375,2.4375,44.3125,-1.141602,1.831055,0.2329102,0.2758789,-0.2358398,-0.03515625
3450,6.9375,-6,73.6875,-1.261719,1.873535,0.159668,0.2749023,-0.2382813,-0.03369141
3454,-1.125,-8.4375,115.0625,-1.327637,1.834961,0.08642578,0.269043,-0.2456055,-0.03369141
3458,0.5625,-7.8125,154.25,-1.35498,1.65625,0.05957031,0.2651367,-0.2529297,-0.03515625
3462,5.875,-8.1875,183.4375,-1.424316,1.578613,0.01708984,0.2558594,-0.2705078,-0.03662109
3466,5,-10.5,206.375,-1.498047,1.500488,-0.02441406,0.2451172,-0.2832031,-0.03515625
3470,-1.125,-14.5625,221.8125,-1.541016,1.376465,-0.05517578,0.234375,-0.2929688,-0.03271484
3474,-10.25,-16.3125,232.875,-1.610352,1.294922,-0.09375,0.2177734,-0.3105469,-0.03662109
3479,-25.625,-19.125,243.375,-1.67627,1.20166,-0.112793,0.2021484,-0.328125,-0.03808594
3483,-27.6875,-22.3125,259.3125,-1.70752,1.007324,-0.04394531,0.1879883,-0.3344727,-0.03955078
3487,-22.25,-10.5,279.4375,-1.641602,0.9414063,-0.07861328,0.1665039,-0.3530273,-0.04492188
3491,-31.6875,-14,279.8125,-1.629883,0.9335938,-0.1591797,0.1391602,-0.3632813,-0.04736328
3495,-49.5625,-21.8125,268.5,-1.603027,0.921875,-0.2055664,0.1235352,-0.3691406,-0.04882813
3499,-69.1875,-21.8125,255.125,-1.471191,0.8789063,-0.2363281,0.09765625,-0.3779297,-0.05273438
3503,-81.125,-10.875,252.4375,-1.447754,0.875,-0.2631836,0.07373047,-0.3857422,-0.06396484
3507,-87.25,-2.875,267.625,-1.537109,0.7666016,-0.2285156,0.05712891,-0.3881836,-0.06933594
3511,-82.1875,-3.625,291.5,-1.541016,0.7314453,-0.1860352,0.03076172,-0.3916016,-0.07861328
3515,-83.375,0.1875,308.625,-1.374023,0.7158203,-0.1899414,0,-0.390625,-0.08691406
3519,-90.0625,0,300.875,-1.265625,0.6923828,-0.1513672,-0.02001953,-0.3891602,-0.09228516
3523,-105.125,-9.5,291.8125,-1.191895,0.6884766,-0.1630859,-0.04833984,-0.3818359,-0.1005859
3527,-114.8125,-16.5625,285.125,-1.11084,0.6264648,-0.128418,-0.07714844,-0.371582,-0.1113281
3531,-104.3125,-9.375,289.125,-0.9868164,0.4829102,-0.02441406,-0.09716797,-0.3642578,-0.1166992
3535,-71.375,1.375,305.9375,-0.9052734,0.3505859,0.1098633,-0.1235352,-0.3505859,-0.1235352
3539,-50.4375,2.25,313.5,-0.9130859,0.5527344,0.02490234,-0.1494141,-0.3344727,-0.1303711
3543,-63.6875,-12.25,311.5,-0.8198242,0.5644531,0.001953125,-0.1674805,-0.3193359,-0.1347656
3547,-61.25,-20.8125,297.75,-0.6650391,0.3896484,0.140625,-0.1938477,-0.2993164,-0.1357422
3551,-49.75,-29.5625,284.75,-0.5874023,0.3896484,0.1713867,-0.215332,-0.2783203,-0.1401367
3555,-28.125,-23.1875,294.3125,-0.5371094,0.4204102,0.2329102,-0.2280273,-0.2641602,-0.1386719
3559,-10.25,-7.75,314.625,-0.4633789,0.4868164,0.1635742,-0.2470703,-0.2368164,-0.1386719
3563,-9.0625,-5.75,323.4375,-0.3935547,0.4711914,0.1367188,-0.2636719,-0.2128906,-0.1386719
3567,-22.5,-18.4375,309.5625,-0.2543945,0.3466797,0.1132813,-0.2744141,-0.1933594,-0.1386719
3571,-42.1875,-39,289.8125,-0.1689453,0.1601563,0.08251953,-0.2866211,-0.1645508,-0.1386719
3575,-43.5,-46.3125,277.125,0.05126953,-0.2392578,0.2250977,-0.2983398,-0.1357422,-0.1347656
3579,-23,-42.375,280,0.109375,-0.453125,0.1865234,-0.3041992,-0.1166992,-0.1303711
3583,-20.5625,-44.0625,285.5,0.2529297,-0.6821289,0.05175781,-0.3125,-0.08837891,-0.1264648
3587,-45.9375,-49.6875,277.25,0.4272461,-0.8496094,-0.2016602,-0.3139648,-0.05957031,-0.1235352
3591,-82.9375,-52.75,244.8125,0.644043,-1.681152,-0.1435547,-0.3164063,-0.03955078,-0.1210938
3595,-75.125,-42.125,210.875,0.9423828,-2.58252,0.05175781,-0.3164063,-0.01318359,-0.112793
3599,-14.4375,2.875,132.875,1.546875,-2.994141,0.2905273,-0.3149414,0.007324219,-0.1113281
3603,38.9375,24.5,-18.125,1.566406,-2.617188,0.2866211,-0.3139648,0.01367188,-0.112793
3608,62.5625,-6.0625,-157.9375,0.8378906,-2.053711,0.2788086,-0.3125,0.007324219,-0.1157227
3612,96.8125,-25.375,-208.875,0.4697266,-1.509766,0.340332,-0.3164063,-0.01464844,-0.112793
3616,113.25,-24.625,-224.875,0.3652344,-0.9311523,0.1367188,-0.3164063,-0.03173828,-0.1098633
3620,80.375,-27.75,-248.0625,0.4272461,-0.402832,-0.06689453,-0.3173828,-0.05810547,-0.1098633
3624,25.8125,-24.5,-277.25,0.5009766,-0.2626953,-0.1054688,-0.3164063,-0.08544922,-0.1074219
3628,2.875,-4.75,-294.125,0.5087891,-0.4179688,-0.001464844,-0.3139648,-0.1054688,-0.105957
3632,21.6875,18.8125,-307.125,0.3188477,-0.4765625,0.1367188,-0.3066406,-0.1367188,-0.105957
3636,55.9375,17.3125,-318.25,0.05126953,-0.3481445,0.2172852,-0.2973633,-0.1669922,-0.105957
3640,93.6875,22.25,-318,-0.1147461,-0.08398438,0.2172852,-0.2890625,-0.1904297,-0.1088867
3644,111.8125,25.6875,-311.5,-0.2773438,0.3120117,0.1132813,-0.2744141,-0.2207031,-0.105957
3648,102.875,23.625,-312.1875,-0.3432617,0.855957,0.009765625,-0.2553711,-0.2495117,-0.1005859
3652,77.25,-1.3125,-324.5,-0.6845703,0.9375,-0.02441406,-0.2412109,-0.2670898,-0.09765625
3656,20.0625,-31.8125,-335.8125,-0.7192383,1.143066,-0.0859375,-0.2197266,-0.2954102,-0.09375
3660,21.3125,-23.0625,-327.625,-0.6342773,0.8671875,0.1171875,-0.1962891,-0.3168945,-0.09082031
3664,38.625,-11.5,-298.25,-0.8974609,0.9375,0.03271484,-0.1772461,-0.3305664,-0.08837891
3668,44.75,4.875,-266.5625,-0.8354492,1.038574,-0.1054688,-0.1533203,-0.3481445,-0.08544922
3672,46.125,13.875,-262.6875,-0.847168,0.9414063,-0.1435547,-0.128418,-0.3632813,-0.08154297
3676,26.875,4.5625,-280.75,-0.9287109,1.049805,-0.2631836,-0.1113281,-0.3681641,-0.08154297
3680,2.3125,-9.6875,-306,-0.9052734,0.777832,-0.1513672,-0.08300781,-0.3769531,-0.07470703
3684,21.625,-7.875,-318.5625,-1.087402,0.5952148,-0.02832031,-0.05224609,-0.3867188,-0.07763672
3688,34.875,-7.5,-315.1875,-1.25,0.7739258,-0.1206055,-0.03320313,-0.3881836,-0.07470703
3692,26.3125,-8.875,-318.375,-1.362793,0.9335938,-0.1743164,0,-0.3916016,-0.07080078
3696,18.6875,-10.375,-319.4375,-1.494141,0.9335938,-0.1899414,0.03076172,-0.3891602,-0.06933594
3700,32.4375,-2.75,-306.0625,-1.498047,0.8984375,-0.1435547,0.05322266,-0.3891602,-0.06787109
3704,47.75,9.1875,-288.25,-1.490234,1.081055,-0.2631836,0.08447266,-0.3842773,-0.06542969
3708,27.125,19.4375,-265.9375,-1.490234,1.337402,-0.4130859,0.1103516,-0.3745117,-0.06103516
3712,-16,26.6875,-239.8125,-1.420898,1.333496,-0.4052734,0.1259766,-0.3691406,-0.05859375
3716,-48.5625,41.5,-215.6875,-1.269531,1.112305,-0.2670898,0.1484375,-0.3603516,-0.05859375
3720,-55.5,58.3125,-197.875,-1.211426,0.8481445,-0.09765625,0.1665039,-0.3491211,-0.0625
3724,-47.4375,63.125,-199.0625,-1.203613,0.7275391,0.01708984,0.1772461,-0.3417969,-0.0625
3728,-32.375,54.875,-208.375,-1.277344,0.7470703,0.1098633,0.1938477,-0.3291016,-0.06396484
3732,-20.5625,44.125,-209.75,-1.331543,0.8442383,0.1787109,0.2128906,-0.3144531,-0.06542969
3737,-5.8125,34.125,-199.625,-1.370117,0.9453125,0.2558594,0.2211914,-0.3041992,-0.0625
3741,4.3125,25.25,-183.875,-1.327637,1.124023,0.2480469,0.234375,-0.2919922,-0.05957031
3745,6.3125,18.6875,-175.9375,-1.230957,1.349121,0.2519531,0.2460938,-0.2768555,-0.05859375
3749,7.6875,10.6875,-166.1875,-1.246094,1.648438,0.2675781,0.253418,-0.2670898,-0.05712891
3753,5.4375,2.9375,-141.5,-1.319824,1.982422,0.3291016,0.2626953,-0.2543945,-0.05419922
3757,7.125,-4.0625,-82.1875,-1.509766,2.188477,0.4018555,0.2700195,-0.2441406,-0.05419922
3761,6.5625,-1,3.9375,-1.517578,2.305176,0.3598633,0.2709961,-0.2416992,-0.05712891
3765,-2.9375,7,77.1875,-1.413086,2.211914,0.2675781,0.2675781,-0.2441406,-0.05566406
3769,-14.625,7.75,120,-1.381836,1.966797,0.2827148,0.2641602,-0.2519531,-0.05566406
3773,-8.875,1.375,148.5625,-1.501953,1.65625,0.4482422,0.2617188,-0.2592773,-0.05712891
3777,23.4375,-8.5625,182.5,-1.614258,1.43457,0.5942383,0.25,-0.2729492,-0.05712891
3781,57.0625,-23,214.125,-1.695801,1.368652,0.5175781,0.2392578,-0.2880859,-0.05419922
3785,78,-33.375,242.5625,-1.672363,1.310547,0.3251953,0.2270508,-0.3007813,-0.05175781
3789,81.125,-37.6875,265.0625,-1.57959,1.271484,0.105957,0.2094727,-0.3168945,-0.04736328
3793,68.25,-30.4375,278.25,-1.436035,1.232422,-0.1166992,0.1889648,-0.3330078,-0.04492188
3797,42.125,-20.6875,282.3125,-1.362793,1.186035,-0.2783203,0.1738281,-0.3466797,-0.03955078
3801,9.375,-11.25,277.3125,-1.25,1.12793,-0.3515625,0.1484375,-0.3618164,-0.03955078
3805,-12.75,-3.75,266.375,-1.289063,0.956543,-0.2939453,0.125,-0.3730469,-0.03808594
3809,-17.8125,1.625,263.875,-1.300781,0.8867188,-0.2167969,0.1069336,-0.3769531,-0.03955078
3813,-25.4375,5.0625,264,-1.25,0.8481445,-0.2363281,0.08203125,-0.3857422,-0.04345703
3817,-37.4375,4.4375,260.5,-1.180664,0.8129883,-0.2363281,0.05712891,-0.3916016,-0.04492188
3821,-53.5,4.4375,255.4375,-1.060547,0.7856445,-0.2592773,0.04052734,-0.3930664,-0.04882813
3825,-61.625,10.75,246.5,-0.9287109,0.6420898,-0.2128906,0.01513672,-0.3955078,-0.05175781
3829,-58.5625,19.5,236.8125,-0.9672852,0.6655273,-0.2089844,-0.01171875,-0.3930664,-0.05957031
3833,-68.5,17.3125,245.875,-1.017578,0.7509766,-0.2514648,-0.02832031,-0.3891602,-0.06542969
3837,-74.5,22.75,256.4375,-0.8354492,0.6030273,-0.1782227,-0.05224609,-0.3881836,-0.07177734
3841,-70.0625,26.5625,257.875,-0.7929688,0.5800781,-0.1513672,-0.07470703,-0.3803711,-0.08007813
3845,-73.75,19.25,248.5625,-0.7695313,0.5913086,-0.1630859,-0.09228516,-0.3730469,-0.08544922
3849,-86.0625,8.375,232.5,-0.6728516,0.6420898,-0.1630859,-0.1137695,-0.3642578,-0.09228516
3853,-100.5625,-4,209.3125,-0.6455078,0.6655273,-0.1435547,-0.1367188,-0.3530273,-0.1020508
3857,-102.875,-14.5,192.25,-0.6342773,0.6264648,-0.05517578,-0.1484375,-0.3442383,-0.1074219
3861,-68.75,-10.1875,216.4375,-0.6030273,0.4204102,0.1171875,-0.1665039,-0.3320313,-0.112793
3866,-33.75,9.1875,248.5625,-0.4633789,0.6069336,-0.009277344,-0.1855469,-0.3168945,-0.1181641
3870,-46.3125,15.375,261.75,-0.4091797,0.7666016,-0.1054688,-0.1972656,-0.3032227,-0.1166992
3874,-72.3125,9,248.3125,-0.3242188,0.7158203,-0.06689453,-0.2163086,-0.2856445,-0.1235352
3878,-89.4375,-1.3125,226.5625,-0.2080078,0.6381836,0.005859375,-0.234375,-0.2641602,-0.1279297
3882,-83.625,-2.8125,205.1875,-0.2119141,0.6616211,0.1328125,-0.2387695,-0.2504883,-0.1333008
3886,-66.25,-2.5,230.1875,-0.3125,0.6186523,0.1982422,-0.253418,-0.2319336,-0.137207
3890,-47.125,7.4375,262.1875,-0.1420898,0.6186523,0.2060547,-0.2661133,-0.2080078,-0.1386719
3894,-48.1875,13.75,272,-0.05273438,0.7001953,0.1865234,-0.2744141,-0.1918945,-0.1416016
3898,-75.3125,0,264.3125,0.04345703,0.6923828,0.1518555,-0.2851563,-0.1669922,-0.144043
3902,-118.1875,-21.8125,234.3125,0.1948242,0.5488281,0.1367188,-0.2924805,-0.1381836,-0.144043
3906,-151.25,-39.5625,205.8125,0.3227539,0.2070313,0.144043,-0.2998047,-0.1196289,-0.1455078
3910,-155.0625,-35.8125,207.625,0.4619141,-0.5151367,0.1982422,-0.3041992,-0.09570313,-0.1455078
3914,-115.375,-12.8125,232.0625,0.625,-1.191406,0.2983398,-0.3081055,-0.06689453,-0.1425781
3918,-80.25,-0.375,248.5,0.7412109,-1.852051,0.1904297,-0.3081055,-0.04931641,-0.1401367
3922,-66.3125,13.875,245.6875,1.027832,-2.632813,-0.0859375,-0.3056641,-0.02050781,-0.1425781
3926,-63.5625,7.75,131.125,1.589844,-2.958984,0.09814453,-0.3017578,0.002441406,-0.1416016
3930,-5.3125,0.25,-60.75,1.969238,-2.88916,0.5405273,-0.3032227,0.004882813,-0.1425781
3934,100.875,9.375,-175.0625,1.035645,-2.186035,0.6289063,-0.3041992,-0.003417969,-0.1425781
3938,193.375,5.4375,-194.8125,0.3925781,-1.29248,0.5175781,-0.3056641,-0.02685547,-0.1469727
3942,225.375,-4.8125,-169.125,0.2138672,-0.3754883,0.144043,-0.3041992,-0.04443359,-0.1469727
3946,185.4375,-22.9375,-160.0625,0.3959961,0.07861328,-0.0859375,-0.3066406,-0.06933594,-0.144043
3950,116.375,-43.875,-181.9375,0.4775391,0.1875,-0.1513672,-0.3041992,-0.09179688,-0.1386719
3954,68.25,-58.9375,-209.4375,0.4970703,-0.06445313,-0.009277344,-0.3041992,-0.1069336,-0.1357422
3958,67.5,-60.875,-228.9375,0.4931641,-0.3208008,0.1328125,-0.3032227,-0.1308594,-0.1289063
3962,90.5,-53,-246.9375,0.3808594,-0.3833008,0.144043,-0.2983398,-0.1557617,-0.1225586
3966,115.6875,-46.1875,-261.25,0.190918,-0.3442383,0.1289063,-0.2924805,-0.1743164,-0.1157227
3970,134.5625,-41.875,-272.5,0.07080078,-0.1616211,0.05175781,-0.2807617,-0.2006836,-0.1088867
3974,127.625,-32,-280.8125,-0.002441406,0.1367188,-0.09765625,-0.2685547,-0.2304688,-0.09912109
3978,101.5,-19.0625,-276.9375,-0.1650391,0.3232422,-0.1708984,-0.2592773,-0.2495117,-0.09375
3982,86.1875,-6.9375,-263.375,-0.3203125,0.2416992,-0.06298828,-0.2426758,-0.2719727,-0.08544922
3986,94.75,-5.0625,-263.4375,-0.4633789,0.269043,-0.01318359,-0.2236328,-0.2944336,-0.08007813
3990,100.25,-22.8125,-286.4375,-0.5991211,0.4086914,-0.04003906,-0.2104492,-0.3081055,-0.07470703
3995,83.9375,-58.375,-326.1875,-0.8237305,0.5214844,-0.2016602,-0.1875,-0.3266602,-0.06787109
3999,73.0625,-80.5,-353.4375,-0.8549805,0.7197266,-0.1630859,-0.1601563,-0.3505859,-0.05419922
4003,76.9375,-75.375,-348.4375,-0.9672852,0.9643555,-0.2089844,-0.1376953,-0.3632813,-0.04882813
4007,62.25,-60.5625,-325.4375,-1.11084,1.251953,-0.3706055,-0.1054688,-0.3754883,-0.04052734
4011,28.125,-50.75,-291.625,-1.15332,1.321777,-0.3823242,-0.07470703,-0.3842773,-0.03369141
4015,15.625,-41.25,-275,-1.118652,1.174316,-0.3168945,-0.05664063,-0.3891602,-0.03271484
4019,8.6875,-44,-272.625,-1.20752,1.124023,-0.3129883,-0.02832031,-0.3930664,-0.03125
4023,20.875,-47.8125,-280.4375,-1.145508,1.003418,-0.2324219,-0.0009765625,-0.3955078,-0.02734375
4027,42.75,-38,-280.5,-1.187988,1.150879,-0.324707,0.01904297,-0.3969727,-0.02734375
4031,17.375,-29.375,-261.8125,-1.223145,1.477539,-0.4399414,0.04638672,-0.3945313,-0.02294922
4035,-44,-25.625,-229.9375,-1.191895,1.388184,-0.4091797,0.06982422,-0.3891602,-0.02441406
4039,-86.6875,-17.75,-201.8125,-1.044922,0.9492188,-0.2167969,0.08691406,-0.3842773,-0.02734375
4043,-88.5625,0.3125,-187.1875,-0.8745117,0.4594727,-0.05517578,0.105957,-0.3803711,-0.03662109
4047,-64.125,18.3125,-198.0625,-0.9013672,0.1757813,0.001953125,0.1225586,-0.3730469,-0.04345703
4051,-33.625,21.75,-238.0625,-1.025391,0.1293945,0.05175781,0.1342773,-0.3666992,-0.04638672
4055,0.875,10.1875,-298.6875,-1.242188,0.3583984,0.1132813,0.1582031,-0.3554688,-0.05029297
4059,28.6875,-7.9375,-333.25,-1.715332,0.7470703,0.1748047,0.1855469,-0.3369141,-0.04736328
4063,57.8125,-18.1875,-311.125,-1.994141,1.162598,0.1943359,0.2021484,-0.3242188,-0.04492188
4067,74.6875,-13.0625,-230.0625,-1.893555,1.811523,-0.07080078,0.222168,-0.3041992,-0.04199219
4071,41.375,-2.6875,-166.6875,-1.633789,2.145508,-0.4555664,0.2368164,-0.2880859,-0.03662109
4075,-17.875,15.0625,-124.5,-1.261719,2.23877,-0.5708008,0.2426758,-0.2817383,-0.03662109
4079,-59.75,45.5,-91.3125,-1.091309,2.001953,-0.4052734,0.25,-0.2719727,-0.03808594
4083,-70.375,74.25,-54.0625,-1.246094,1.69873,-0.08203125,0.2568359,-0.2641602,-0.03808594
4087,-48.625,70.5,8.0625,-1.571777,1.512207,0.3134766,0.2583008,-0.2641602,-0.03515625
4091,-20.9375,50.125,58.1875,-1.509766,1.450195,0.5366211,0.2568359,-0.2631836,-0.03369141
4095,2.625,23.6875,78.0625,-1.308105,1.384277,0.4980469,0.253418,-0.2705078,-0.03369141
4099,27.375,6.1875,78.5625,-1.129883,1.380371,0.3637695,0.2519531,-0.2783203,-0.02978516
4103,43.1875,4.5,90.5,-1.191895,1.512207,0.1943359,0.2436523,-0.2832031,-0.02734375
4107,42.9375,10.5,118.6875,-1.304199,1.613281,0.05566406,0.2392578,-0.2905273,-0.02294922
4111,27.5625,7.3125,151.625,-1.443848,1.648438,-0.05517578,0.2319336,-0.296875,-0.02050781
4115,8.5,1.75,176.1875,-1.479004,1.555176,-0.09765625,0.222168,-0.3066406,-0.01757813
4119,-5.0625,-1.75,200.0625,-1.447754,1.43457,-0.1401367,0.2094727,-0.3208008,-0.01757813
4124,-21.0625,-2.8125,212.375,-1.397461,1.333496,-0.2055664,0.1972656,-0.3291016,-0.01904297
4128,-40.375,-9.5625,213.8125,-1.436035,1.193848,-0.2514648,0.1806641,-0.3432617,-0.02050781
4132,-57.375,-20.5,213.9375,-1.397461,1.069336,-0.2783203,0.1616211,-0.3530273,-0.02587891
4136,-66.25,-24.25,223.4375,-1.366211,0.890625,-0.2670898,0.1499023,-0.3618164,-0.02978516
4140,-61.5625,-21.5625,240.4375,-1.331543,0.7353516,-0.2246094,0.1293945,-0.3706055,-0.03662109
4144,-58.0625,-17.8125,246.6875,-1.234863,0.7353516,-0.2553711,0.105957,-0.3779297,-0.04492188
4148,-65.25,-18.375,243.4375,-1.176758,0.7626953,-0.3012695,0.09033203,-0.3842773,-0.04882813
4152,-82.8125,-25.75,233.3125,-1.11084,0.793457,-0.3554688,0.06640625,-0.3867188,-0.05712891
4156,-100.125,-30.25,228.6875,-1.001953,0.6884766,-0.3129883,0.04248047,-0.3891602,-0.06640625
4160,-95.5,-23,225.5,-0.8354492,0.5136719,-0.2128906,0.02587891,-0.3916016,-0.07177734
4164,-74.4375,-8.75,221.375,-0.8125,0.4907227,-0.1401367,0.004394531,-0.390625,-0.08300781
4168,-55.125,-0.3125,218.625,-0.8164063,0.5913086,-0.09375,-0.01855469,-0.390625,-0.08984375
4172,-48.25,-6.625,220.625,-0.8706055,0.6499023,-0.04736328,-0.03320313,-0.3891602,-0.09228516
4176,-41.0625,-11.375,224.5625,-0.8198242,0.7001953,0.01367188,-0.05566406,-0.3818359,-0.09765625
4180,-40.8125,-20,222.9375,-0.7890625,0.7856445,0.005859375,-0.07714844,-0.3769531,-0.1020508
4184,-43.75,-14.3125,230,-0.7036133,0.8325195,0.005859375,-0.09130859,-0.371582,-0.1020508
4188,-42,-4.0625,247.5625,-0.6533203,0.809082,0.02490234,-0.1137695,-0.3603516,-0.1074219
4192,-45.8125,0,260.1875,-0.6806641,0.824707,0.04443359,-0.1391602,-0.3491211,-0.1113281
4196,-42.625,-11.5,258.75,-0.6728516,0.7856445,0.1020508,-0.1518555,-0.3408203,-0.112793
4200,-41.5,-15.75,270.3125,-0.5410156,0.8051758,0.06347656,-0.1748047,-0.3232422,-0.1157227
4204,-43.9375,-14.5,278.6875,-0.4672852,0.809082,0.07910156,-0.1962891,-0.3056641,-0.1157227
4208,-41.9375,-6.375,290.9375,-0.3901367,0.7705078,0.09814453,-0.2104492,-0.2919922,-0.1196289
4212,-40.5625,1.125,306,-0.3823242,0.7587891,0.08642578,-0.2304688,-0.2680664,-0.1196289
4216,-37.1875,0.1875,319.1875,-0.3745117,0.6499023,0.1787109,-0.2509766,-0.2431641,-0.1235352
4220,-31.125,4.1875,319.125,-0.1923828,0.6499023,0.2060547,-0.2636719,-0.2255859,-0.1225586
4224,-43.4375,-6.4375,311.5625,-0.28125,0.6655273,0.1171875,-0.2783203,-0.1958008,-0.1235352
4228,-74.0625,-23.8125,311.3125,-0.1225586,0.4907227,0.05957031,-0.2924805,-0.1655273,-0.125
4232,-109.1875,-27.25,312.625,-0.01806641,0.1757813,-0.02441406,-0.3007813,-0.1445313,-0.125
4236,-129.1875,-36,313.125,0.125,-0.6240234,0.04052734,-0.3081055,-0.1083984,-0.1225586
4240,-124.25,-35.3125,292.8125,0.4775391,-1.008789,-0.03613281,-0.3149414,-0.07421875,-0.1225586
4244,-120.9375,-27.4375,241.1875,0.7954102,-1.677246,-0.03613281,-0.3173828,-0.05322266,-0.1196289
4248,-103,-28.125,189.5,0.9194336,-2.485352,-0.01318359,-0.3173828,-0.02587891,-0.1166992
4253,-52.0625,-0.125,142.9375,1.229492,-2.998047,0.03271484,-0.3149414,-0.005859375,-0.1142578
4257,-8.3125,21.4375,36,1.535645,-2.862305,0.04785156,-0.3139648,0.002441406,-0.112793
4261,31.6875,17.4375,-101,1.337891,-2.337402,0.140625,-0.3139648,0,-0.1142578
4265,76.4375,9.3125,-183.5625,0.8032227,-1.727539,0.2519531,-0.3164063,-0.01464844,-0.1196289
4269,118.1875,9.5625,-207.25,0.5473633,-1.152344,0.2329102,-0.3139648,-0.02832031,-0.1196289
4273,128.4375,11.0625,-219.1875,0.527832,-0.5463867,0.09814453,-0.3149414,-0.0546875,-0.1225586
4277,108.5,8.4375,-230.9375,0.5200195,-0.2241211,0.02099609,-0.3115234,-0.08203125,-0.1210938
4281,94.0625,22.0625,-233,0.5239258,-0.1577148,0.07519531,-0.3105469,-0.09814453,-0.1210938
4285,109.125,30,-232.375,0.3959961,-0.2666016,0.2060547,-0.3056641,-0.1245117,-0.1210938
4289,145.9375,36.125,-237.0625,0.3266602,-0.2353516,0.2368164,-0.2958984,-0.1533203,-0.1235352
4293,162.8125,30.8125,-249.875,0.1210938,0.03613281,0.105957,-0.2924805,-0.1704102,-0.1210938
4297,137.3125,7.5625,-269.25,-0.1264648,0.3349609,0.02490234,-0.2783203,-0.1992188,-0.1181641
4301,108.8125,-21.125,-287.375,-0.2001953,0.3505859,0.1289063,-0.2675781,-0.2270508,-0.1113281
4305,115.75,-31.4375,-286.0625,-0.3320313,0.09423828,0.3330078,-0.2568359,-0.2456055,-0.1074219
4309,173.4375,-21.4375,-274.1875,-0.4443359,0.1953125,0.3056641,-0.2402344,-0.2729492,-0.09765625
4313,197.625,-36.0625,-277.4375,-0.7075195,0.6381836,0.02490234,-0.2211914,-0.2954102,-0.08300781
4317,138.625,-80.3125,-300.4375,-0.8237305,1.32959,-0.4785156,-0.206543,-0.3120117,-0.07177734
4321,43.4375,-115.6875,-318.1875,-0.7036133,1.248047,-0.4555664,-0.1831055,-0.3320313,-0.05419922
4325,24.1875,-94.0625,-308.9375,-0.5756836,0.8286133,-0.2475586,-0.1567383,-0.3520508,-0.04736328
4329,49.8125,-59.375,-285.5,-0.7695313,0.7431641,-0.2397461,-0.1391602,-0.3603516,-0.04492188
4333,57.375,-46.8125,-275.4375,-0.9287109,1.06543,-0.4824219,-0.112793,-0.3730469,-0.03808594
4337,9.75,-58.0625,-276.5,-1.025391,1.302734,-0.6362305,-0.08544922,-0.3833008,-0.02978516
4341,-41,-66.25,-279.5625,-0.9169922,1.09668,-0.4785156,-0.06884766,-0.3881836,-0.03125
4345,-62.375,-52.1875,-268,-0.9130859,0.8012695,-0.2939453,-0.0390625,-0.3930664,-0.03515625
4349,-47.4375,-30.5625,-256.375,-0.9365234,0.4711914,-0.07470703,-0.01416016,-0.3955078,-0.04199219
4353,5.625,-14.1875,-264.9375,-1.099121,0.3740234,-0.001464844,0.004394531,-0.3969727,-0.04345703
4357,41.1875,-23,-281.3125,-1.37793,0.7041016,-0.1323242,0.03173828,-0.3969727,-0.04199219
4361,42.5625,-41.1875,-290.1875,-1.432129,0.9760742,-0.1938477,0.05957031,-0.390625,-0.03808594
4365,29.3125,-45.1875,-276.375,-1.479004,1.084961,-0.2246094,0.07861328,-0.3881836,-0.03515625
4369,13.125,-40.375,-242.0625,-1.432129,1.045898,-0.2128906,0.1044922,-0.3803711,-0.03369141
4373,5.1875,-29.75,-223.625,-1.277344,0.9453125,-0.2397461,0.1259766,-0.3730469,-0.03515625
4377,-4.8125,-22.125,-222,-1.20752,0.9414063,-0.3129883,0.1391602,-0.3642578,-0.03369141
4382,-18.0625,-14.8125,-226,-1.184082,0.9335938,-0.2631836,0.1606445,-0.3544922,-0.03662109
4386,-27.875,-6.75,-221.5,-1.227051,0.9375,-0.1708984,0.1782227,-0.3432617,-0.03808594
4390,-34.75,1.3125,-206.5625,-1.296875,0.8867188,-0.04736328,0.1889648,-0.3344727,-0.04052734
4394,-36.25,6.9375,-187.375,-1.289063,0.8598633,0.04443359,0.2070313,-0.3217773,-0.04345703
4398,-33.875,10.0625,-176.375,-1.246094,0.777832,0.09033203,0.2177734,-0.3081055,-0.04736328
4402,-24.125,10.1875,-177.375,-1.195801,0.7895508,0.105957,0.2285156,-0.2993164,-0.04736328
4406,-20.75,7.5,-180.75,-1.261719,0.9023438,0.1132813,0.2392578,-0.2856445,-0.04736328
4410,-28.8125,-0.3125,-173.4375,-1.401367,1.112305,0.105957,0.2509766,-0.2705078,-0.05029297
4414,-42.0625,-8.5,-144.125,-1.420898,1.267578,0.1713867,0.2583008,-0.2631836,-0.05175781
4418,-45.0625,-0.8125,-110.875,-1.300781,1.376465,0.2172852,0.2641602,-0.2519531,-0.05419922
4422,-40.0625,3.75,-81.5625,-1.20752,1.508301,0.2788086,0.2709961,-0.2416992,-0.05712891
4426,-23.6875,11.75,-44.9375,-1.261719,1.555176,0.3671875,0.2734375,-0.2368164,-0.05859375
4430,-3,15.25,-0.4375,-1.312012,1.578613,0.4365234,0.2749023,-0.2358398,-0.05957031
4434,13.625,13.4375,39.25,-1.304199,1.664063,0.3789063,0.2749023,-0.2368164,-0.05712891
4438,16.625,3.0625,73.6875,-1.385742,1.683105,0.2983398,0.2724609,-0.2407227,-0.05419922
4442,17.625,-8.125,109.625,-1.389648,1.609375,0.2636719,0.2666016,-0.2456055,-0.05273438
4446,26.875,-10.125,146.5,-1.351074,1.508301,0.1982422,0.2617188,-0.2592773,-0.05419922
4450,34.0625,-6.4375,177.9375,-1.343262,1.566895,0.1328125,0.2558594,-0.2680664,-0.05175781
4454,31.0625,-6.375,204.5625,-1.459473,1.640625,0.05957031,0.2451172,-0.2807617,-0.05029297
4458,19.375,-6.1875,231.25,-1.560059,1.660156,-0.02441406,0.2285156,-0.2993164,-0.04882813
4462,0.1875,-8.1875,255.875,-1.672363,1.65625,-0.1015625,0.21875,-0.3105469,-0.04736328
4466,-21.25,-11.3125,280.6875,-1.785156,1.543457,-0.1591797,0.1987305,-0.3256836,-0.05029297
4470,-34.0625,-9.5625,309.125,-1.858398,1.364746,-0.1630859,0.1757813,-0.3442383,-0.05273438
4474,-25.5625,-1.4375,338.5,-1.761719,1.06543,-0.109375,0.1582031,-0.3544922,-0.05419922
4478,-13.5625,9.3125,345.75,-1.657227,1.053711,-0.2207031,0.1259766,-0.3706055,-0.05566406
4482,-28.75,9.6875,344.1875,-1.614258,1.120117,-0.3168945,0.09375,-0.3818359,-0.05712891
4486,-58.6875,3.5625,330.1875,-1.509766,1.092773,-0.3666992,0.07226563,-0.3891602,-0.05957031
4490,-86,-3,318.375,-1.455566,1.007324,-0.3666992,0.0390625,-0.390625,-0.06640625
4494,-104.875,0.3125,316.25,-1.374023,0.9179688,-0.3168945,0.008300781,-0.3916016,-0.07763672
4498,-107.6875,-0.125,319.9375,-1.389648,0.7275391,-0.2207031,-0.01513672,-0.390625,-0.08300781
4502,-92.1875,3.75,328.5,-1.28125,0.6616211,-0.1591797,-0.04589844,-0.3842773,-0.09375
4506,-83.9375,4.8125,325.375,-1.223145,0.7197266,-0.1552734,-0.07714844,-0.3754883,-0.105957
4511,-90.5625,-1.125,322.5,-1.137695,0.7001953,-0.1782227,-0.09863281,-0.3666992,-0.105957
4515,-92.125,0.125,319.875,-0.9477539,0.5644531,-0.1054688,-0.128418,-0.3520508,-0.1166992
4519,-94.1875,2.6875,309.875,-0.9438477,0.6147461,-0.1054688,-0.1567383,-0.3344727,-0.1225586
4523,-104.125,-8.125,312.125,-0.9633789,0.5253906,-0.06298828,-0.1733398,-0.3178711,-0.1289063
4527,-85.3125,-13.5625,311.625,-0.847168,0.284668,0.1865234,-0.1972656,-0.296875,-0.1357422
4531,-48.5,-13.1875,315.5625,-0.7387695,0.315918,0.2636719,-0.2197266,-0.2719727,-0.1401367
4535,-31.6875,-18.4375,322.4375,-0.6650391,0.3935547,0.2021484,-0.2319336,-0.2558594,-0.1401367
4539,-33.3125,-23.6875,322.125,-0.5332031,0.4086914,0.1865234,-0.2519531,-0.2294922,-0.1401367
4543,-38.3125,-26.75,327.4375,-0.4907227,0.300293,0.1479492,-0.2700195,-0.1992188,-0.137207
4547,-55.6875,-35,322.4375,-0.2700195,0.07080078,0.1787109,-0.2817383,-0.1791992,-0.1386719
4551,-60.75,-49.4375,294.4375,-0.1420898,-0.1772461,0.2250977,-0.2949219,-0.1479492,-0.1386719
4555,-62.9375,-70.375,268.125,-0.006347656,-0.4414063,0.2368164,-0.3041992,-0.1181641,-0.1318359
4559,-57.25,-79.5,253.4375,0.175293,-0.7988281,0.2290039,-0.309082,-0.09960938,-0.1289063
4563,-47.3125,-78.125,243.8125,0.3339844,-0.7753906,0.09423828,-0.3149414,-0.07324219,-0.1210938
4567,-37.8125,-66.8125,228.625,0.5859375,-1.587891,0.05957031,-0.3164063,-0.04443359,-0.1142578
4571,-31.875,-60.25,188.9375,0.9311523,-2.077148,-0.04736328,-0.3188477,-0.03076172,-0.1098633
4575,-21.5,-43,115.125,1.330078,-2.458008,-0.109375,-0.3198242,-0.01171875,-0.1020508
4579,1.875,-19.0625,4.6875,1.640137,-2.508301,-0.109375,-0.3208008,-0.003417969,-0.1005859
4583,31.375,-3.75,-111.375,1.376465,-2.045898,-0.07080078,-0.3188477,-0.006835938,-0.09765625
4587,54.75,-1.5,-179.5,0.9155273,-1.548828,-0.05126953,-0.3208008,-0.02050781,-0.09765625
4591,74.8125,5.25,-203.8125,0.690918,-1.117676,-0.04394531,-0.3208008,-0.04199219,-0.09912109
4595,73.375,16.8125,-218.375,0.6362305,-0.6708984,-0.1323242,-0.3198242,-0.06054688,-0.1005859
4599,62.5625,28.5625,-232.75,0.5668945,-0.5268555,-0.06298828,-0.3173828,-0.08300781,-0.1020508
4603,59.3125,43.5625,-247.125,0.4619141,-0.4296875,0.005859375,-0.3139648,-0.1083984,-0.1044922
4607,68.5,46.5,-266.25,0.2451172,-0.387207,0.1171875,-0.3105469,-0.1279297,-0.1074219
4611,88.9375,36.1875,-287.1875,0.1171875,-0.2900391,0.1674805,-0.3017578,-0.1582031,-0.1098633
4615,117.3125,37.5,-293.625,-0.1108398,-0.1499023,0.144043,-0.2890625,-0.1870117,-0.1098633
4619,149.3125,41.9375,-279.1875,-0.2851563,0.1523438,0.08642578,-0.2792969,-0.2080078,-0.1088867
4623,142.375,43.5625,-256.0625,-0.5722656,0.09423828,-0.1782227,-0.2626953,-0.2358398,-0.1044922
4627,85.625,33.5,-263.5625,-0.5214844,0.9375,-0.2475586,-0.2436523,-0.2607422,-0.1020508
4631,37.75,2.3125,-285.5625,-0.6030273,0.809082,-0.005371094,-0.234375,-0.2744141,-0.09912109
4635,48.4375,-30.3125,-316.9375,-0.6416016,0.4633789,0.2558594,-0.2138672,-0.2983398,-0.09765625
4640,124,-33.125,-323.5,-0.7929688,0.4086914,0.2983398,-0.1889648,-0.3208008,-0.08984375
4644,171,-34.0625,-311.9375,-1.029297,0.972168,-0.1206055,-0.1708984,-0.3354492,-0.07763672
4648,104.25,-43.75,-292.5625,-1.033203,1.869629,-0.6401367,-0.1459961,-0.3520508,-0.06640625
4652,-1.875,-40.875,-269.4375,-0.8237305,1.621094,-0.4975586,-0.1201172,-0.3657227,-0.05712891
4656,-28.8125,-21.625,-257.5,-0.7543945,0.921875,-0.1630859,-0.1020508,-0.3730469,-0.05859375
4660,21,-6.8125,-264.4375,-0.8857422,0.5722656,0.05175781,-0.078125,-0.3818359,-0.05957031
4664,52.9375,-23.6875,-290.5,-1.087402,0.9604492,-0.1362305,-0.05078125,-0.3881836,-0.05419922
4668,25.625,-41.6875,-307.3125,-1.15332,1.20166,-0.1860352,-0.03173828,-0.3916016,-0.05175781
4672,-7.75,-47.5625,-300.125,-1.253906,1.124023,-0.06298828,-0.001953125,-0.3945313,-0.05029297
4676,-22.625,-41.9375,-271.125,-1.20752,0.8867188,-0.02441406,0.02832031,-0.3930664,-0.05273438
4680,-17,-26,-249.4375,-1.118652,0.6420898,-0.03222656,0.04492188,-0.3930664,-0.05273438
4684,4.0625,-12.625,-252.6875,-1.033203,0.4829102,-0.09375,0.06884766,-0.3867188,-0.05419922
4688,32.5,-0.75,-274.875,-1.037109,0.5058594,-0.1474609,0.09375,-0.3818359,-0.05419922
4692,37.125,8.375,-291.6875,-1.199707,0.7626953,-0.2514648,0.112793,-0.3754883,-0.05029297
4696,9.6875,7.25,-288.25,-1.467285,0.953125,-0.2553711,0.1401367,-0.3642578,-0.04736328
4700,-16.3125,2.8125,-264.9375,-1.560059,0.8632813,-0.1323242,0.1630859,-0.3530273,-0.04882813
4704,-22.125,9.75,-241.75,-1.443848,0.7431641,-0.06298828,0.1806641,-0.3408203,-0.04882813
4708,-20.375,16.9375,-241.125,-1.35498,0.7158203,-0.1015625,0.1972656,-0.3266602,-0.05175781
4712,-13.375,20.625,-261.625,-1.358887,0.8632813,-0.06298828,0.21875,-0.3105469,-0.04882813
4716,-6.5,16.3125,-273.5625,-1.498047,1.186035,-0.04394531,0.2285156,-0.2983398,-0.05175781
4720,-3.4375,17.875,-247.375,-1.610352,1.601563,0.01708984,0.2475586,-0.2744141,-0.05029297
4724,-5.6875,24.5625,-180.625,-1.684082,1.862305,0.08251953,0.2602539,-0.2583008,-0.04882813
4728,-6.5,30.1875,-100.0625,-1.62207,1.95166,0.1328125,0.2651367,-0.2495117,-0.04882813
4732,-11.5625,29.125,-41,-1.370117,1.88916,0.1328125,0.2709961,-0.2407227,-0.04638672
4736,-19.875,25.4375,-10.9375,-1.195801,1.772461,0.140625,0.2724609,-0.2392578,-0.04492188
4740,-24.625,19.375,5.5625,-1.195801,1.675781,0.2368164,0.2709961,-0.2392578,-0.04492188
4744,-18.125,8.5,30,-1.315918,1.617188,0.3442383,0.2724609,-0.2407227,-0.04638672
4748,-2.8125,-2.625,67.5,-1.397461,1.570801,0.4018555,0.2709961,-0.2441406,-0.04492188
4752,20.4375,-12.1875,105.875,-1.413086,1.516113,0.3520508,0.2675781,-0.2495117,-0.04638672
4756,37.4375,-16.5,140.4375,-1.416992,1.574707,0.2060547,0.2617188,-0.2583008,-0.04345703
4760,36.1875,-19.0625,170.5625,-1.486328,1.644531,0.04443359,0.253418,-0.2695313,-0.04345703
4764,29,-21.3125,202.75,-1.556152,1.58252,-0.02441406,0.2436523,-0.2807617,-0.04199219
4769,20.75,-16.125,235.5625,-1.57959,1.508301,-0.112793,0.2319336,-0.296875,-0.03955078
4773,8.0625,-8.9375,261.125,-1.625977,1.411133,-0.1708984,0.2128906,-0.3154297,-0.04052734
4777,-7.6875,-10.4375,279.375,-1.727051,1.294922,-0.1708984,0.1987305,-0.3256836,-0.04052734
4781,-19.125,-10.8125,292.8125,-1.668457,1.13916,-0.128418,0.1772461,-0.3432617,-0.04199219
4785,-21.3125,-8.375,295.9375,-1.661133,1.019043,-0.1474609,0.1484375,-0.359375,-0.04345703
4789,-26.5,-10.3125,294.9375,-1.641602,0.9956055,-0.2246094,0.1342773,-0.3681641,-0.04638672
4793,-42.9375,-7.9375,295.5,-1.595215,1.030762,-0.2861328,0.1069336,-0.3769531,-0.04882813
4797,-72.5625,-10.8125,297.8125,-1.575684,1.053711,-0.3706055,0.07714844,-0.3867188,-0.05859375
4801,-109.0625,-12.0625,299,-1.509766,1.003418,-0.3745117,0.05810547,-0.390625,-0.05957031
4805,-142.625,-18.5625,300.5,-1.467285,0.7587891,-0.3012695,0.02734375,-0.3916016,-0.07324219
4809,-133.4375,-30.625,299.5,-1.362793,0.4204102,-0.07470703,-0.001953125,-0.3881836,-0.08837891
4813,-98.625,-25.8125,304.0625,-1.168945,0.3974609,0.04785156,-0.0234375,-0.3857422,-0.09667969
4817,-82.0625,-14.625,314.25,-1.083496,0.5371094,-0.04736328,-0.05566406,-0.3803711,-0.1020508
4821,-87.875,-14.9375,314.5625,-1.095215,0.6577148,-0.1552734,-0.08398438,-0.3691406,-0.1142578
4825,-104.0625,-16.9375,310.375,-0.9516602,0.6303711,-0.112793,-0.1044922,-0.3632813,-0.1181641
4829,-107.3125,-29.1875,299.3125,-0.8745117,0.4360352,-0.02050781,-0.1342773,-0.3442383,-0.1264648
4833,-92.125,-40.0625,288.6875,-0.8393555,0.4013672,0.08251953,-0.1601563,-0.328125,-0.1333008
4837,-66.75,-46.4375,280.25,-0.6650391,0.3544922,0.1557617,-0.1748047,-0.3129883,-0.1333008
4841,-31.5625,-32.0625,284.0625,-0.5566406,0.4125977,0.159668,-0.1972656,-0.2954102,-0.137207
4845,-8.1875,-12.9375,291.75,-0.5410156,0.6030273,0.1098633,-0.2197266,-0.2744141,-0.1357422
4849,-11.5625,-12.4375,295.3125,-0.5644531,0.7739258,0.03662109,-0.2319336,-0.2583008,-0.1357422
4853,-21.6875,-20.0625,299.25,-0.4633789,0.6499023,0.01367188,-0.2509766,-0.2358398,-0.1357422
4857,-25.5,-24.5,300.5625,-0.4169922,0.5683594,-0.02050781,-0.2685547,-0.2104492,-0.1357422
4861,-21.5625,-28.3125,309.5625,-0.246582,0.2768555,0.06738281,-0.2768555,-0.1904297,-0.1333008
4865,-12.3125,-23.0625,318.9375,-0.002441406,-0.006347656,-0.009277344,-0.2900391,-0.1621094,-0.1303711
4869,-17,-15.25,306.3125,0.2294922,-0.355957,-0.07470703,-0.3007813,-0.1279297,-0.1279297
4873,-29.875,-15.0625,276.25,0.4272461,-0.7446289,-0.06689453,-0.3066406,-0.109375,-0.1289063
4877,-50,-10.1875,233.75,0.6713867,-1.036133,-0.001464844,-0.3115234,-0.08203125,-0.1279297
4881,-66.9375,-3.3125,195.4375,0.6557617,-1.521484,0.09423828,-0.3139648,-0.05957031,-0.1264648
4885,-56.8125,-7.0625,166.875,0.6948242,-2.186035,0.3095703,-0.3149414,-0.04443359,-0.1279297
4889,-22.1875,-3.25,143.6875,0.9038086,-2.489258,0.3330078,-0.3125,-0.02832031,-0.125
4893,-2.1875,-15.875,20.0625,1.399902,-2.555176,0.3828125,-0.3125,-0.01708984,-0.1225586
4898,34.25,-10.75,-111.5,1.473633,-2.213379,0.4174805,-0.3139648,-0.01806641,-0.125
4902,76.25,-10.375,-192,0.8110352,-1.696289,0.2944336,-0.3149414,-0.03173828,-0.1225586
4906,95.8125,-18.5625,-218.6875,0.4814453,-1.094238,0.1328125,-0.3139648,-0.05810547,-0.1210938
4910,82.3125,-26.4375,-230.25,0.4350586,-0.5268555,-0.07080078,-0.3139648,-0.07568359,-0.1235352
4914,50.125,-28.625,-245.375,0.4814453,-0.3208008,-0.1166992,-0.3115234,-0.1020508,-0.1181641
4918,42.875,-8.875,-260,0.609375,-0.324707,-0.02050781,-0.3066406,-0.1254883,-0.1142578
4922,68.9375,26.5,-268.3125,0.4697266,-0.3095703,0.08642578,-0.3017578,-0.1455078,-0.1142578
4926,102.6875,43.6875,-264.8125,-0.006347656,0.08642578,0.05957031,-0.2924805,-0.1757813,-0.1157227
4930,99.25,34.25,-237.75,-0.3320313,0.5488281,-0.03222656,-0.2807617,-0.1992188,-0.1142578
4934,58.875,24.1875,-220.125,-0.2851563,0.9101563,-0.109375,-0.2734375,-0.2167969,-0.1157227
4938,-7.75,11.125,-231.5625,-0.1381836,1.108398,-0.1206055,-0.2602539,-0.2382813,-0.1157227
4942,-32.625,12,-251.125,-0.05664063,0.7119141,0.2441406,-0.2460938,-0.2558594,-0.1157227
4946,30.5625,29,-241.125,-0.3432617,0.3974609,0.5595703,-0.234375,-0.2680664,-0.1166992
4950,111.6875,32.5625,-208.0625,-0.5683594,0.7001953,0.3945313,-0.2172852,-0.2866211,-0.1166992
4954,121.3125,23.0625,-190.6875,-0.5063477,1.182129,-0.005371094,-0.2021484,-0.3041992,-0.1088867
4958,53.25,1.875,-199.75,-0.4091797,1.403809,-0.2783203,-0.1914063,-0.3129883,-0.1044922
4962,-0.1875,-5.5,-218.5625,-0.2929688,0.8984375,-0.04736328,-0.1757813,-0.328125,-0.1035156
4966,46.1875,7.5625,-229.4375,-0.3666992,0.4013672,0.2597656,-0.1567383,-0.3417969,-0.1005859
4970,107.4375,10.25,-238.8125,-0.6186523,0.5527344,0.105957,-0.1425781,-0.3491211,-0.09765625
4974,127.6875,-11.1875,-253.5625,-0.8085938,1.022949,-0.1630859,-0.1210938,-0.3618164,-0.08837891
4978,82.4375,-42.3125,-262.125,-0.9169922,1.46582,-0.4516602,-0.09619141,-0.3730469,-0.07470703
4982,21.5625,-38.0625,-244.1875,-0.7192383,1.333496,-0.3901367,-0.07958984,-0.3779297,-0.07080078
4986,-5.9375,-9.75,-225.9375,-0.6728516,0.972168,-0.2861328,-0.05664063,-0.3857422,-0.06933594
4990,6.375,6.1875,-223.25,-0.715332,0.5878906,-0.1054688,-0.03515625,-0.3881836,-0.06933594
4994,31.125,13.0625,-240.9375,-0.8432617,0.5913086,-0.1245117,-0.02001953,-0.390625,-0.07080078
4998,32.75,1.375,-265.6875,-1.005859,0.7314453,-0.1435547,0.003417969,-0.3930664,-0.06542969
5002,37.3125,-15.9375,-287.9375,-1.168945,0.8051758,-0.04736328,0.03417969,-0.390625,-0.06103516
5006,41.1875,-27.6875,-291.1875,-1.385742,1.057617,-0.07470703,0.05078125,-0.390625,-0.06103516
5010,30.0625,-21.875,-269.875,-1.439941,1.209473,-0.1015625,0.08056641,-0.3857422,-0.05566406
5014,17.6875,-10.1875,-243.3125,-1.40918,1.189941,-0.1015625,0.105957,-0.3779297,-0.05419922
5018,5.1875,-1.25,-233.625,-1.257813,1.12793,-0.1054688,0.1176758,-0.371582,-0.05419922
5022,-0.0625,2.6875,-244.625,-1.195801,1.06543,-0.06298828,0.1401367,-0.3603516,-0.05419922
5027,-3.9375,-2.0625,-266.8125,-1.20752,1.306641,0.02099609,0.1616211,-0.3505859,-0.05419922
5031,-1.9375,-9.375,-266.9375,-1.327637,1.535645,0.2290039,0.1782227,-0.3393555,-0.05566406
5035,28.6875,-13.5,-226.0625,-1.494141,1.753418,0.375,0.1972656,-0.3256836,-0.05566406
5039,58.875,-10.4375,-149.0625,-1.370117,2.21582,0.2944336,0.2128906,-0.3129883,-0.05273438
5043,56.625,-14.375,-83.3125,-1.118652,2.429199,0.1171875,0.2202148,-0.3081055,-0.04882813
5047,47.125,-14.375,-34,-0.8666992,2.433105,0.02099609,0.222168,-0.3017578,-0.04882813
5051,28.75,-9.875,7.8125,-0.8085938,2.355469,-0.04736328,0.2260742,-0.3007813,-0.04736328
5055,15.5625,-2.8125,46.375,-0.78125,2.091309,0.06347656,0.2236328,-0.3032227,-0.04492188
5059,15.3125,3.0625,78.5625,-0.8588867,1.873535,0.1865234,0.2211914,-0.3056641,-0.04345703
5063,21.5,-2.8125,102.8125,-0.9399414,1.749512,0.2368164,0.2138672,-0.3120117,-0.04345703
5067,38.1875,-14.6875,126.125,-0.9790039,1.621094,0.2290039,0.2104492,-0.3178711,-0.04052734
5071,57.5,-17.75,150.8125,-1.021484,1.675781,0.09814453,0.199707,-0.3256836,-0.03955078
5075,57.625,-19.6875,175.5625,-1.056641,1.772461,-0.06298828,0.1865234,-0.3369141,-0.03515625
5079,45.375,-8.125,203.9375,-1.103027,1.807617,-0.2436523,0.1757813,-0.3457031,-0.03271484
5083,25.3125,7.625,229.9375,-1.184082,1.803711,-0.3554688,0.1582031,-0.3544922,-0.02832031
5087,-4.6875,23.9375,249.9375,-1.269531,1.772461,-0.4091797,0.1376953,-0.3657227,-0.02587891
5091,-36.375,38,260.1875,-1.347168,1.632813,-0.4130859,0.1201172,-0.371582,-0.02587891
5095,-69.125,37.625,268.3125,-1.633789,1.477539,-0.4052734,0.09765625,-0.3818359,-0.02734375
5099,-81.125,25.4375,286.125,-1.641602,1.221191,-0.2514648,0.06982422,-0.3881836,-0.03515625
5103,-80,16,293.5625,-1.575684,1.06543,-0.1938477,0.04980469,-0.3916016,-0.04052734
5107,-53.25,11.25,305.25,-1.443848,0.7275391,-0.05126953,0.02001953,-0.3930664,-0.04882813
5111,-28.5625,21.625,308.875,-1.25,0.8325195,-0.1362305,-0.009277344,-0.3945313,-0.05419922
5115,-50.5625,15.8125,299.875,-1.195801,1.038574,-0.3051758,-0.03076172,-0.3930664,-0.05566406
5119,-87.0625,9.4375,280.6875,-1.052734,1.026855,-0.3168945,-0.06054688,-0.3867188,-0.05957031
5123,-126.3125,-6.5,262.25,-1.075684,0.972168,-0.3706055,-0.08642578,-0.3779297,-0.07177734
5127,-120.25,-11.5625,268.0625,-0.9946289,0.4907227,-0.05908203,-0.1044922,-0.3706055,-0.08154297
5131,-67.4375,5.3125,286.0625,-0.8549805,0.5332031,-0.005371094,-0.128418,-0.359375,-0.08837891
5135,-45.3125,13.0625,293.4375,-0.7695313,0.7080078,-0.08984375,-0.1542969,-0.3432617,-0.09375
5139,-56.375,6.0625,275.875,-0.6845703,0.8520508,-0.1474609,-0.1723633,-0.3330078,-0.09765625
5143,-75.3125,-3.5625,260.625,-0.6767578,0.8945313,-0.1401367,-0.1938477,-0.3154297,-0.1020508
5147,-85.1875,-9.75,249.6875,-0.6069336,0.8442383,-0.0859375,-0.215332,-0.296875,-0.105957
5151,-79.1875,1.375,269.3125,-0.6264648,0.8286133,-0.07470703,-0.2246094,-0.2792969,-0.1098633
5156,-58.1875,9.25,299.6875,-0.5644531,0.6499023,0.05957031,-0.2436523,-0.2558594,-0.1166992
5160,-35.4375,12.875,305.5,-0.4482422,0.6499023,0.09033203,-0.2626953,-0.2304688,-0.1196289
5164,-26.0625,0.5625,306.3125,-0.3510742,0.4790039,0.1557617,-0.2709961,-0.2119141,-0.1181641
5168,-12.0625,-10.0625,295.6875,-0.230957,0.4013672,0.2597656,-0.2866211,-0.1821289,-0.1196289
5172,7.9375,-8.75,304.375,-0.1767578,0.2416992,0.3017578,-0.2958984,-0.1542969,-0.1166992
5176,20.1875,5.4375,320.4375,-0.04882813,0.1523438,0.2944336,-0.3007813,-0.1357422,-0.1181641
5180,-3.6875,9.8125,324,-0.006347656,0.08251953,0.1518555,-0.3105469,-0.1044922,-0.1196289
5184,-58.4375,-9.375,294.6875,0.1791992,-0.3520508,0.1289063,-0.3125,-0.07177734,-0.1181641
5188,-83.5,-21.8125,254.875,0.4038086,-1.125488,0.3291016,-0.3164063,-0.05175781,-0.1181641
5192,-71.875,-33.5,212.6875,0.4506836,-1.762695,0.4599609,-0.3164063,-0.02441406,-0.1166992
5196,-39.125,-36.25,172,0.6831055,-2.586426,0.3828125,-0.3164063,-0.001953125,-0.1113281
5200,-7.5,-25.25,108.8125,1.074219,-3.157227,0.3017578,-0.3149414,0.007324219,-0.1074219
5204,20.4375,-5.25,-0.125,1.42334,-3.192383,0.2329102,-0.3149414,0.01855469,-0.105957
5208,43.3125,-19.0625,-141.625,1.198242,-2.516113,0.1787109,-0.3139648,0.01025391,-0.105957
