Packet number,Gyroscope X (deg/s),Gyroscope Y (deg/s),Gyroscope Z (deg/s),Accelerometer X (g),Accelerometer Y (g),Accelerometer Z (g),Magnetometer X (G),Magnetometer Y (G),Magnetometer Z (G)
3,7.5,5.125,0,-0.9399414,0.2963867,0.06347656,0.2641602,-0.2456055,-0.07861328
7,8.8125,4.5,0.5,-0.9438477,0.300293,0.07519531,0.2651367,-0.2456055,-0.07617188
11,9.875,3.875,1.125,-0.9365234,0.3081055,0.07519531,0.2666016,-0.2470703,-0.07617188
15,9.1875,2.6875,1.75,-0.9399414,0.3081055,0.05957031,0.2666016,-0.2470703,-0.07617188
19,8.0625,1.1875,1.6875,-0.9326172,0.315918,0.06347656,0.2666016,-0.2480469,-0.07617188
23,6.875,-0.25,1.0625,-0.9326172,0.3081055,0.05566406,0.2666016,-0.2480469,-0.07470703
27,6.125,-0.25,0.25,-0.9248047,0.3041992,0.04052734,0.2675781,-0.2480469,-0.07324219
31,4.25,-0.5625,-0.4375,-0.9248047,0.315918,0.02880859,0.2666016,-0.2470703,-0.07470703
35,0.6875,-1.0625,-2.25,-0.9208984,0.3271484,0.01367188,0.2666016,-0.2495117,-0.07324219
39,-2.25,-1,-3.9375,-0.9169922,0.315918,0.009765625,0.2651367,-0.2495117,-0.07324219
44,-2.75,0.0625,-3.6875,-0.9399414,0.2963867,0.03662109,0.2651367,-0.2456055,-0.07470703
48,-0.8125,-0.8125,-2.5,-0.9516602,0.300293,0.02880859,0.2666016,-0.2480469,-0.07617188
52,0.5625,-1.75,-2.1875,-0.9326172,0.3081055,0.02099609,0.2675781,-0.2470703,-0.07177734
56,0.9375,-1.3125,-2.125,-0.9399414,0.315918,0.001953125,0.2666016,-0.2456055,-0.07324219
60,0.125,-0.1875,-0.375,-0.9399414,0.3271484,0.005859375,0.2675781,-0.2456055,-0.07470703
64,-0.6875,0.1875,0.875,-0.9477539,0.3193359,0.01367188,0.2666016,-0.2470703,-0.07470703
68,-0.625,0.25,1,-0.9326172,0.3120117,0.01367188,0.2666016,-0.2456055,-0.07470703
72,0.125,0.5,1.5625,-0.9365234,0.315918,0.005859375,0.2675781,-0.2470703,-0.07470703
76,0,0.9375,3.125,-0.9365234,0.3271484,0.005859375,0.2651367,-0.2456055,-0.07470703
80,0.5625,0.9375,5.375,-0.9477539,0.3081055,0.02490234,0.2666016,-0.2456055,-0.07177734
84,2.5,1.8125,5.625,-0.9208984,0.315918,0.01367188,0.2666016,-0.2470703,-0.07617188
88,1.5,1.4375,5.3125,-0.9287109,0.3388672,0.01367188,0.2651367,-0.2495117,-0.07324219
92,0,0.5,4.875,-0.9248047,0.3505859,0.009765625,0.2666016,-0.2495117,-0.07324219
96,0.625,0.25,5.4375,-0.9477539,0.3857422,0.02880859,0.2641602,-0.2495117,-0.07470703
100,3.625,1.4375,10,-0.9711914,0.4243164,0.04785156,0.2641602,-0.2495117,-0.07324219
104,12.375,3.4375,16.8125,-1.005859,0.4438477,0.08251953,0.2626953,-0.2495117,-0.07324219
108,22.3125,3.5625,27.625,-1.052734,0.4750977,0.09423828,0.2626953,-0.2529297,-0.07177734
112,29.9375,4.5,37.5625,-1.052734,0.5410156,0.07128906,0.2617188,-0.2529297,-0.06933594
116,30.1875,3.0625,44.25,-1.041016,0.5952148,0.04443359,0.2592773,-0.2583008,-0.06787109
120,27.9375,0.5,49,-1.060547,0.6303711,0.02880859,0.2568359,-0.2617188,-0.06640625
124,28.25,-2.25,56.1875,-1.087402,0.6616211,0.06347656,0.253418,-0.2670898,-0.06640625
128,33.5625,-2.625,68.25,-1.145508,0.6962891,0.07519531,0.2509766,-0.2705078,-0.06396484
132,38.25,-2.625,84.1875,-1.145508,0.7431641,0.08251953,0.2485352,-0.2753906,-0.0625
136,43,-0.375,98.25,-1.087402,0.777832,0.04785156,0.2412109,-0.2832031,-0.05859375
140,40.375,2.6875,105.5,-1.060547,0.8442383,-0.001464844,0.237793,-0.2880859,-0.05859375
144,29.3125,0.75,107.8125,-1.07959,0.90625,-0.04394531,0.2319336,-0.2993164,-0.05419922
148,15.875,-2.4375,115.125,-1.165039,0.921875,-0.03613281,0.2211914,-0.3056641,-0.05419922
152,12.5,-10.5625,127.4375,-1.191895,0.921875,-0.01318359,0.2177734,-0.3120117,-0.05175781
156,18.1875,-11.125,142.9375,-1.176758,0.90625,0.02490234,0.2080078,-0.3193359,-0.05175781
160,25,-12.375,159.4375,-1.234863,1.007324,-0.02050781,0.1962891,-0.3305664,-0.05029297
164,18.25,-13.125,176.5625,-1.199707,1.100586,-0.1206055,0.1865234,-0.3378906,-0.05029297
168,-4.125,-7.0625,186.1875,-1.11084,1.221191,-0.2055664,0.1723633,-0.3457031,-0.05029297
173,-39.125,-2.3125,201,-1.211426,1.279297,-0.2705078,0.1547852,-0.3554688,-0.05175781
177,-67.625,-2.5,219.0625,-1.234863,1.143066,-0.2436523,0.1416016,-0.3632813,-0.05419922
181,-78.375,-5.375,226.75,-1.141602,0.9375,-0.1054688,0.1225586,-0.3706055,-0.06103516
185,-68.5,-17.375,217.0625,-1.118652,0.7314453,0.06347656,0.1010742,-0.3779297,-0.06787109
189,-42.375,-30.625,208.5,-1.056641,0.6420898,0.1674805,0.08789063,-0.3818359,-0.07324219
193,-14.4375,-30.375,200.75,-0.9477539,0.7895508,0.140625,0.06787109,-0.3842773,-0.07763672
197,1.875,-20.5,200.8125,-0.9750977,1.015137,0.05566406,0.04882813,-0.3881836,-0.07763672
201,-3.0625,-10.9375,218.6875,-1.052734,1.225098,-0.09375,0.03173828,-0.3916016,-0.08007813
205,-22.375,-6.25,240.625,-0.9750977,1.143066,-0.1821289,0.01074219,-0.390625,-0.08007813
209,-41.125,-22.25,260.625,-1.037109,1.038574,-0.06298828,-0.01513672,-0.3916016,-0.08300781
213,-32.875,-24.875,258.9375,-0.7773438,0.9296875,-0.001464844,-0.03320313,-0.3881836,-0.08544922
217,-28.75,-15.5625,267.25,-0.7075195,0.9414063,-0.04003906,-0.06054688,-0.3833008,-0.08837891
221,-31.1875,-10.3125,272.3125,-0.7192383,0.9838867,-0.04736328,-0.08642578,-0.3754883,-0.08984375
225,-38.4375,-8.8125,279.125,-0.7192383,0.9916992,-0.0859375,-0.1030273,-0.3666992,-0.09228516
229,-48.5625,-3.375,292.25,-0.6533203,1.030762,-0.09765625,-0.1269531,-0.3569336,-0.09375
233,-62.875,-0.125,302.8125,-0.6689453,0.9799805,-0.1054688,-0.1542969,-0.3417969,-0.1005859
237,-78.0625,1.5625,324.3125,-0.6689453,0.9257813,-0.1206055,-0.1708984,-0.3266602,-0.1044922
241,-96.6875,1,347.1875,-0.6455078,0.7705078,-0.112793,-0.199707,-0.3041992,-0.1098633
245,-92.625,-1.125,356,-0.5913086,0.6264648,0.07519531,-0.2246094,-0.2783203,-0.1157227
249,-74.125,-0.9375,365.5625,-0.4946289,0.4868164,0.125,-0.2402344,-0.2583008,-0.1196289
253,-73.625,-1.25,384.0625,-0.4052734,0.284668,0.09423828,-0.2626953,-0.2255859,-0.1235352
257,-85.8125,-10.375,381.375,-0.1499023,-0.07226563,0.08251953,-0.2817383,-0.1879883,-0.125
261,-103.375,-22.9375,350.1875,0.1015625,-0.550293,0.04052734,-0.2924805,-0.1630859,-0.1264648
265,-121.8125,-24.125,298.25,0.3613281,0.3701172,-0.06298828,-0.3032227,-0.1279297,-0.1289063
269,-110.9375,-19.8125,271.0625,0.5898438,-1.735352,-0.001464844,-0.309082,-0.09423828,-0.1264648
273,-93.5625,-7.5,224.125,0.8149414,-2.321777,-0.03613281,-0.3125,-0.07324219,-0.125
277,-58.3125,9.6875,151.375,1.128418,-2.621094,0.05957031,-0.3139648,-0.04931641,-0.125
281,-14.75,16.6875,27.3125,1.368652,-2.418945,0.159668,-0.3149414,-0.03955078,-0.1289063
285,27.0625,3.9375,-95.0625,1.0625,-1.902344,0.2788086,-0.3139648,-0.03955078,-0.1279297
289,66.875,-11.875,-163.4375,0.675293,-1.319336,0.3520508,-0.3139648,-0.05322266,-0.1264648
293,87.125,-20.3125,-189.8125,0.4311523,-0.6821289,0.2211914,-0.3115234,-0.07421875,-0.125
297,71.5625,-33.75,-203.625,0.3691406,-0.1967773,0.03271484,-0.3105469,-0.08837891,-0.1235352
302,33.3125,-34.0625,-226.6875,0.5356445,-0.02197266,-0.07861328,-0.3081055,-0.109375,-0.1181641
306,10.1875,-29.125,-240.5625,0.5356445,-0.1499023,0.06347656,-0.3032227,-0.1342773,-0.1181641
310,21,-30.6875,-274.8125,0.4077148,-0.1772461,0.2402344,-0.3007813,-0.1508789,-0.1157227
314,73.5,-23.8125,-275.8125,0.2177734,-0.1074219,0.2827148,-0.2915039,-0.1782227,-0.112793
318,119.125,-27.6875,-265.1875,-0.02197266,0.3544922,0.009765625,-0.2792969,-0.2055664,-0.1044922
322,116.3125,-25.8125,-231.875,0.02050781,0.9453125,-0.1630859,-0.2734375,-0.2246094,-0.1020508
326,69.0625,5.4375,-218.4375,0.175293,0.8129883,-0.112793,-0.2592773,-0.2470703,-0.09228516
330,28.3125,39.9375,-224.8125,0.1132813,0.6342773,0.05566406,-0.2446289,-0.265625,-0.09375
334,38.5,43.0625,-253.875,-0.08007813,0.3349609,0.2944336,-0.2353516,-0.2792969,-0.09375
338,108.875,17.9375,-275.0625,-0.4482422,0.3857422,0.1982422,-0.2163086,-0.2993164,-0.09375
342,131.6875,-15.0625,-285.0625,-0.5214844,0.8286133,-0.02050781,-0.1923828,-0.3178711,-0.08544922
346,107,-23.0625,-289.3125,-0.5566406,1.057617,-0.1166992,-0.1791992,-0.3320313,-0.07617188
350,57.5,-29.8125,-268.625,-0.6455078,1.291016,-0.2397461,-0.1542969,-0.3505859,-0.06640625
354,17.5625,-29.3125,-251.6875,-0.6147461,1.088867,-0.1245117,-0.1303711,-0.3642578,-0.06396484
358,0.75,-21.875,-241.75,-0.5756836,0.9453125,-0.1435547,-0.1152344,-0.3681641,-0.0625
362,-9.125,-8.625,-243,-0.5253906,0.7626953,-0.1782227,-0.09228516,-0.3779297,-0.0625
366,-16.1875,10.125,-247.0625,-0.5756836,0.6420898,-0.2128906,-0.06738281,-0.3818359,-0.06396484
370,-20.6875,17.8125,-258.8125,-0.6689453,0.4399414,-0.1552734,-0.05078125,-0.3867188,-0.06396484
374,8.875,27.5625,-276.8125,-0.7734375,0.2963867,-0.0859375,-0.02490234,-0.390625,-0.06640625
378,48.6875,28.625,-297.5625,-1.099121,0.5253906,0.03271484,0.004394531,-0.3930664,-0.0625
382,64.125,13.6875,-308.1875,-1.374023,1.007324,-0.1166992,0.02490234,-0.3930664,-0.06103516
386,34.875,-6.375,-288.4375,-1.521484,1.337402,-0.1743164,0.05712891,-0.390625,-0.05419922
390,-17.5,-17.0625,-256.5625,-1.381836,1.259766,-0.1860352,0.08300781,-0.3867188,-0.05175781
394,-47.375,-11.1875,-228.5625,-1.219238,0.8598633,-0.09375,0.09960938,-0.3818359,-0.05419922
398,-36.6875,-0.5625,-230.375,-1.056641,0.4985352,-0.01318359,0.1210938,-0.3706055,-0.05712891
402,-4.3125,4.875,-248.875,-1.195801,0.4125977,0.05175781,0.1425781,-0.3632813,-0.05859375
406,31.5625,-0.4375,-273.25,-1.35498,0.6616211,0.03271484,0.1567383,-0.3554688,-0.06103516
410,37.375,-11.0625,-275.3125,-1.560059,0.9296875,0.02490234,0.1821289,-0.3408203,-0.05566406
414,29.25,-19.25,-251.875,-1.587402,1.034668,0.02490234,0.2021484,-0.3232422,-0.05566406
418,18.75,-18.3125,-222.125,-1.513672,1.034668,-0.01660156,0.2128906,-0.3129883,-0.05566406
422,11.625,-14.6875,-194.0625,-1.436035,0.9956055,-0.02050781,0.2285156,-0.296875,-0.05566406
426,7.4375,-11.3125,-183.375,-1.289063,1.038574,-0.009277344,0.2402344,-0.2841797,-0.05566406
431,7.5625,-14.125,-187.125,-1.28125,1.135742,0.02880859,0.2485352,-0.2744141,-0.05712891
435,14,-13.5625,-178.3125,-1.327637,1.240234,0.09033203,0.2583008,-0.2607422,-0.05957031
439,21.125,4.625,-137.125,-1.40918,1.39209,0.1865234,0.269043,-0.2470703,-0.05566406
443,19.75,18.4375,-72,-1.529297,1.586426,0.1557617,0.2734375,-0.2392578,-0.05566406
447,-2.8125,23.1875,-16.25,-1.397461,1.687012,0.105957,0.2758789,-0.2329102,-0.05566406
451,-17.3125,15.9375,13,-1.285156,1.539551,0.1289063,0.2749023,-0.234375,-0.05029297
455,-11.25,13.3125,33.1875,-1.265625,1.399902,0.2480469,0.2758789,-0.2358398,-0.05273438
459,17.375,1.8125,67.125,-1.416992,1.341309,0.3291016,0.2758789,-0.2382813,-0.05273438
463,42.625,-7,102.8125,-1.381836,1.314453,0.2709961,0.2700195,-0.2456055,-0.05175781
467,55.25,-6.3125,133.375,-1.331543,1.353027,0.1328125,0.2666016,-0.2529297,-0.04736328
471,54.5625,-9.75,155,-1.327637,1.317871,-0.02441406,0.2583008,-0.265625,-0.04638672
475,49.625,-8.3125,170.25,-1.32373,1.291016,-0.1015625,0.2475586,-0.2783203,-0.04199219
479,39.875,-4.5625,186.375,-1.389648,1.225098,-0.1323242,0.2412109,-0.2880859,-0.03955078
483,27.0625,1.3125,206.125,-1.420898,1.166504,-0.1206055,0.2270508,-0.3017578,-0.03808594
487,13.1875,3.9375,218.1875,-1.428223,1.081055,-0.112793,0.2128906,-0.3168945,-0.03662109
491,7.5625,0.5625,223.3125,-1.475098,0.9257813,-0.06298828,0.199707,-0.3256836,-0.03662109
495,10.125,-1.875,221.875,-1.479004,0.8710938,-0.05517578,0.1831055,-0.3393555,-0.03515625
499,6.375,-4.875,218.4375,-1.517578,0.972168,-0.1015625,0.1630859,-0.3520508,-0.03369141
503,-9,-6.0625,229.0625,-1.57959,1.045898,-0.1743164,0.1523438,-0.359375,-0.03515625
507,-16.8125,-4.3125,248.5625,-1.509766,0.8598633,-0.1938477,0.1308594,-0.3691406,-0.03515625
511,-14,10.1875,261.6875,-1.436035,0.7817383,-0.2363281,0.1079102,-0.3793945,-0.03808594
515,-24.5,19.5625,266.5625,-1.405273,0.875,-0.2670898,0.09033203,-0.3842773,-0.03808594
519,-48.125,13.25,267.0625,-1.374023,0.8671875,-0.2783203,0.06298828,-0.3891602,-0.04052734
523,-76.6875,-2.6875,253.4375,-1.292969,0.809082,-0.2514648,0.03662109,-0.3916016,-0.04736328
527,-94.9375,-15.125,246.0625,-1.265625,0.7275391,-0.2016602,0.02001953,-0.3945313,-0.05175781
531,-86.3125,-18,264.8125,-1.191895,0.5214844,-0.07861328,-0.004394531,-0.3945313,-0.0625
535,-55.25,-1.625,283.5,-0.9287109,0.4516602,-0.005371094,-0.03320313,-0.390625,-0.06933594
539,-42.25,11.9375,282.5625,-0.8588867,0.5839844,-0.06689453,-0.05322266,-0.3867188,-0.07324219
543,-49.875,11.375,280.5,-0.847168,0.6342773,-0.07861328,-0.07958984,-0.3803711,-0.07763672
547,-54.625,11.6875,275.5625,-0.7231445,0.5878906,-0.02441406,-0.1054688,-0.3706055,-0.08300781
551,-46.9375,15.6875,271.9375,-0.730957,0.5952148,0.05566406,-0.1235352,-0.3603516,-0.08837891
555,-23.875,20,283.8125,-0.6962891,0.5488281,0.1557617,-0.1474609,-0.3491211,-0.09082031
560,-8.75,31.9375,301.3125,-0.5874023,0.6381836,0.06738281,-0.1723633,-0.3305664,-0.09228516
564,-17.0625,33.25,303.5,-0.4404297,0.6381836,0.04443359,-0.1889648,-0.3208008,-0.09375
568,-35.5625,24.4375,291.5,-0.2929688,0.4633789,0.07910156,-0.2104492,-0.3007813,-0.09667969
572,-30.1875,21.375,271.375,-0.1884766,0.269043,0.2021484,-0.2294922,-0.2753906,-0.09912109
576,-15.3125,24.5625,262.75,-0.02587891,0.21875,0.2021484,-0.2426758,-0.2641602,-0.1020508
580,-10.625,29.75,265.3125,0.02050781,0.171875,0.1557617,-0.2578125,-0.2431641,-0.1074219
584,-28.875,23.1875,269.25,0.109375,0.09423828,0.06738281,-0.2724609,-0.2192383,-0.1088867
588,-71.6875,9.1875,266.3125,0.2758789,-0.1616211,0.009765625,-0.2817383,-0.203125,-0.1113281
592,-126.0625,-9.375,257.375,0.5356445,-0.7368164,-0.06298828,-0.2915039,-0.1743164,-0.1142578
596,-176.9375,-29.875,227.5,0.9155273,-1.564453,-0.1245117,-0.3032227,-0.1479492,-0.1181641
600,-162.9375,-23.8125,168.9375,1.454102,-2.485352,0.1289063,-0.3056641,-0.1279297,-0.1157227
604,-71.5,8.1875,73.4375,1.794922,-2.84668,0.5981445,-0.3105469,-0.1108398,-0.1166992
608,45.75,26.75,-55,1.546875,-2.310547,0.7099609,-0.3115234,-0.109375,-0.1210938
612,132.8125,28.5,-133.25,0.9389648,-1.552734,0.5249023,-0.309082,-0.1142578,-0.1225586
616,170.1875,18.875,-162.4375,0.5551758,-0.7871094,0.2480469,-0.3041992,-0.1333008,-0.1210938
620,144.75,-7.4375,-175.0625,0.3730469,-0.1347656,-0.02441406,-0.3007813,-0.1557617,-0.1166992
624,83.8125,-35.0625,-193.5625,0.4194336,0.1523438,-0.1166992,-0.293457,-0.1694336,-0.1142578
628,38.875,-49.75,-214.3125,0.4697266,-0.05273438,0.005859375,-0.2866211,-0.1894531,-0.1088867
632,51.125,-39.75,-227.125,0.4580078,-0.3325195,0.1943359,-0.2758789,-0.2119141,-0.1035156
636,94,-15,-230.0625,0.3652344,-0.2861328,0.1557617,-0.2709961,-0.2270508,-0.09912109
640,123.0625,1.875,-229.125,0.1870117,-0.08789063,0.009765625,-0.2568359,-0.2480469,-0.08984375
644,127.25,19.1875,-221.25,0.03955078,0.1601563,-0.1401367,-0.2436523,-0.2670898,-0.08691406
648,115.3125,35.25,-211.6875,-0.1572266,0.3583984,-0.1513672,-0.2329102,-0.2817383,-0.08007813
652,83.625,16.0625,-224.5625,-0.4013672,0.5019531,-0.2285156,-0.2163086,-0.3007813,-0.07763672
656,62.5,-2.8125,-250.9375,-0.3085938,0.4516602,-0.1054688,-0.1982422,-0.3178711,-0.07177734
660,60.1875,3.875,-262.6875,-0.4711914,0.5175781,-0.1206055,-0.1865234,-0.3291016,-0.06640625
664,66.875,3.0625,-267.3125,-0.6572266,0.6694336,-0.1015625,-0.1640625,-0.3442383,-0.06396484
668,55.6875,-4.5,-266.5625,-0.847168,0.9023438,-0.2246094,-0.1391602,-0.3603516,-0.05712891
672,45.5625,-15.125,-267.0625,-0.9248047,0.9682617,-0.2167969,-0.1235352,-0.3681641,-0.05419922
676,22.6875,-14.625,-257.5,-0.9633789,1.186035,-0.3129883,-0.09716797,-0.3769531,-0.04882813
680,1.5,-12.8125,-250.6875,-0.9248047,1.213379,-0.3325195,-0.07470703,-0.3867188,-0.04882813
684,-32.5,-6.0625,-232.6875,-0.9790039,1.232422,-0.324707,-0.05566406,-0.3881836,-0.05029297
689,-69.0625,-0.5625,-209.5625,-0.9907227,1.17041,-0.3012695,-0.03320313,-0.3916016,-0.05419922
693,-99.3125,18.5,-180.375,-0.8549805,0.9023438,-0.2436523,-0.01513672,-0.3930664,-0.06103516
697,-102.1875,51.1875,-162.5,-0.8046875,0.5253906,-0.1362305,-0.0009765625,-0.3916016,-0.06787109
701,-67.3125,80.8125,-165.875,-0.9633789,0.2109375,0.005859375,0.01757813,-0.390625,-0.07763672
705,-10.3125,88.3125,-194.8125,-1.172852,0.4052734,0.05175781,0.03564453,-0.3881836,-0.08007813
709,19.1875,69.3125,-227.375,-1.505859,0.921875,-0.05517578,0.04980469,-0.3881836,-0.07861328
713,13.25,29.9375,-244.625,-1.67627,1.255859,-0.08203125,0.07226563,-0.3818359,-0.07617188
717,16.75,5.8125,-243.5625,-1.665039,1.271484,0.02880859,0.09619141,-0.3754883,-0.07470703
721,39.9375,0.6875,-220,-1.563965,1.217285,0.05566406,0.1118164,-0.3730469,-0.07324219
725,59.75,1.8125,-199.9375,-1.439941,1.251953,-0.03613281,0.1308594,-0.3657227,-0.06787109
729,63.25,-1.8125,-194.125,-1.215332,1.364746,-0.1591797,0.1484375,-0.3569336,-0.06396484
733,53.25,-6.0625,-198.1875,-1.106934,1.438477,-0.1708984,0.1591797,-0.3520508,-0.06103516
737,40.75,-10.25,-195.125,-1.083496,1.543457,-0.128418,0.1782227,-0.3417969,-0.05859375
741,29.75,-12.25,-174.875,-1.083496,1.625,-0.08984375,0.1928711,-0.3305664,-0.05566406
745,30.625,0.75,-126.125,-1.025391,1.543457,-0.02441406,0.199707,-0.3217773,-0.05175781
749,28.75,16.1875,-80.6875,-0.9907227,1.718262,0.01367188,0.2094727,-0.3193359,-0.05175781
753,16.1875,15.3125,-52.75,-0.9052734,1.694824,0.07128906,0.2138672,-0.3105469,-0.04736328
757,4.3125,0.9375,-43.5625,-0.8237305,1.574707,0.140625,0.2163086,-0.3081055,-0.04736328
761,11.5,-6.4375,-31.9375,-0.8085938,1.422852,0.2827148,0.2202148,-0.3081055,-0.04638672
765,27.625,-10.875,-14,-0.8857422,1.477539,0.2749023,0.21875,-0.3041992,-0.04736328
769,34.0625,-25.3125,5.5,-1.021484,1.574707,0.2368164,0.222168,-0.3056641,-0.04736328
773,44.3125,-42.5,39.8125,-1.052734,1.683105,0.2329102,0.2202148,-0.3066406,-0.04345703
777,60.6875,-42.875,72.25,-1.001953,1.648438,0.1787109,0.2177734,-0.3105469,-0.04492188
781,64.9375,-47.875,94.4375,-1.060547,1.733887,0.07128906,0.2128906,-0.3168945,-0.04052734
785,63.9375,-52.8125,112.625,-1.087402,1.706543,-0.001464844,0.2045898,-0.3208008,-0.04052734
789,62,-50.75,129.6875,-1.191895,1.65625,-0.04394531,0.1962891,-0.3291016,-0.03955078
793,55.8125,-48.625,158.875,-1.335449,1.694824,-0.1362305,0.1865234,-0.3344727,-0.03662109
797,44.3125,-31.6875,200.25,-1.300781,1.590332,-0.1474609,0.1757813,-0.3457031,-0.03369141
801,32.6875,-10.25,227.8125,-1.265625,1.504395,-0.1591797,0.1567383,-0.3569336,-0.03271484
805,17.5,-2.375,236.3125,-1.253906,1.345215,-0.1552734,0.1416016,-0.3642578,-0.02832031
809,6.8125,0,233.75,-1.289063,1.236328,-0.109375,0.1201172,-0.3745117,-0.02978516
813,6.875,-8.8125,237.625,-1.362793,1.069336,-0.03613281,0.09765625,-0.3803711,-0.02978516
818,11,-5.5,249.3125,-1.20752,1.100586,-0.07861328,0.08300781,-0.3842773,-0.02832031
822,-6.0625,10.875,267.75,-1.141602,1.240234,-0.2207031,0.05712891,-0.390625,-0.02978516
826,-39.0625,24.375,284,-1.12207,1.209473,-0.2670898,0.02978516,-0.3955078,-0.02978516
830,-64.75,29.875,286.3125,-1.037109,1.045898,-0.2167969,0.01074219,-0.3955078,-0.03271484
834,-82.9375,30.625,272.8125,-0.9477539,0.855957,-0.1591797,-0.01757813,-0.3930664,-0.04199219
838,-85.1875,54.875,252.5625,-0.8393555,0.5683594,-0.06689453,-0.04492188,-0.3891602,-0.04736328
842,-61.375,34.625,246.375,-0.9555664,0.6733398,-0.1938477,-0.05908203,-0.3891602,-0.05566406
846,-66.0625,19.875,257.6875,-0.8666992,0.9023438,-0.2436523,-0.08398438,-0.3803711,-0.0625
850,-90,21.4375,266.1875,-0.730957,0.7666016,-0.1015625,-0.1079102,-0.371582,-0.06933594
854,-110.0625,12.375,255.75,-0.7578125,0.7431641,-0.2016602,-0.1259766,-0.3632813,-0.07617188
858,-100.5625,-5.1875,245.75,-0.6494141,0.5292969,-0.04736328,-0.1484375,-0.3505859,-0.08691406
862,-75.125,5.6875,241.875,-0.4868164,0.5175781,0.03271484,-0.1699219,-0.3344727,-0.09375
866,-54.3125,7.1875,236.625,-0.5253906,0.5839844,-0.02441406,-0.184082,-0.3242188,-0.09765625
870,-37.25,8.9375,238.75,-0.4594727,0.7158203,-0.01660156,-0.2006836,-0.3066406,-0.1020508
874,-33.9375,15.1875,251.6875,-0.5024414,0.7817383,-0.005371094,-0.21875,-0.2895508,-0.1035156
878,-25.875,12.125,271.875,-0.4829102,0.6655273,0.001953125,-0.2319336,-0.2753906,-0.1088867
882,-24.1875,19.875,280.25,-0.2231445,0.6420898,0.009765625,-0.2485352,-0.2529297,-0.1088867
886,-41.4375,20.125,274.625,-0.1381836,0.5488281,-0.07470703,-0.2651367,-0.2294922,-0.112793
890,-70.875,13.5,261.625,-0.04101563,0.4013672,-0.04736328,-0.2724609,-0.2128906,-0.1142578
894,-84.875,0,244.4375,-0.01416016,0.06298828,0.06738281,-0.2841797,-0.1870117,-0.1166992
898,-72.375,-0.9375,246.8125,0.1987305,-0.3056641,0.1865234,-0.293457,-0.1606445,-0.1210938
902,-62.1875,4.9375,233.625,0.3959961,-0.4882813,0.1943359,-0.3007813,-0.1445313,-0.1235352
906,-65,1.8125,205.25,0.5395508,-0.6748047,0.2172852,-0.3066406,-0.1196289,-0.1235352
910,-72.875,-7.5,171.6875,0.7255859,-0.9970703,0.2211914,-0.3105469,-0.09960938,-0.1225586
914,-72.4375,-7.3125,125.4375,0.9580078,-1.280762,0.2368164,-0.3125,-0.08691406,-0.1235352
918,-62.0625,2.3125,78.5,1.113281,-1.529297,0.2675781,-0.3125,-0.07324219,-0.125
922,-36.4375,-1.375,10.1875,1.186523,-1.688477,0.3520508,-0.3139648,-0.06591797,-0.1264648
926,11.375,15.1875,-53.4375,1.368652,-1.638184,0.3291016,-0.3125,-0.06445313,-0.125
930,59.125,25.4375,-102.5,1.047363,-1.203125,0.5751953,-0.3125,-0.07177734,-0.1279297
934,98.8125,22.4375,-141.6875,0.7177734,-0.6630859,0.375,-0.3125,-0.08544922,-0.1303711
938,95.125,17.9375,-138.625,0.6479492,-0.1538086,0.2021484,-0.309082,-0.09814453,-0.1289063
942,73.5,10.0625,-141.625,0.6054688,0.08251953,0.02099609,-0.3032227,-0.1166992,-0.1318359
947,47.25,-2.6875,-161.5625,0.6054688,0.02441406,0.07910156,-0.3017578,-0.1342773,-0.1289063
951,45.9375,-25.1875,-215.5625,0.4311523,-0.09179688,0.06738281,-0.2958984,-0.1445313,-0.1289063
955,56.5625,-30,-229,0.6289063,-0.2124023,0.3637695,-0.2924805,-0.1679688,-0.1235352
959,91.125,-23.0625,-237.5625,0.3417969,-0.08398438,0.2905273,-0.2817383,-0.1933594,-0.1196289
963,81.875,-38.6875,-237.5625,0.004882813,0.4790039,-0.01660156,-0.2768555,-0.2094727,-0.1142578
967,46.8125,-61,-243.125,0.09375,0.5800781,-0.009277344,-0.2651367,-0.2319336,-0.1074219
971,20.8125,-59.875,-230.6875,0.1635742,0.4052734,-0.001464844,-0.253418,-0.2519531,-0.09912109
975,22.3125,-30.625,-177.1875,0.2138672,0.315918,0.07519531,-0.2460938,-0.2641602,-0.09912109
979,40.4375,10.875,-158.25,0.04736328,0.09814453,0.05566406,-0.234375,-0.2768555,-0.09667969
983,65.625,6.375,-197.625,-0.1533203,0.315918,0.09814453,-0.222168,-0.2919922,-0.09375
987,49.125,-20.3125,-222.5,-0.262207,0.7353516,-0.2055664,-0.2104492,-0.3041992,-0.08984375
991,-6.125,-29.375,-228.5625,-0.2001953,0.8364258,-0.2089844,-0.1938477,-0.3193359,-0.08691406
995,-49.8125,-42.125,-239.8125,-0.2851563,0.6381836,-0.08984375,-0.1757813,-0.3344727,-0.08691406
999,-27.4375,-16.375,-261.6875,-0.1962891,0.1992188,0.355957,-0.1625977,-0.3393555,-0.08837891
1003,65.5625,2.9375,-271.3125,-0.5371094,0.237793,0.2905273,-0.1391602,-0.3530273,-0.08837891
1007,129.875,9.5625,-283.5,-0.7231445,0.7587891,0.09423828,-0.1137695,-0.3691406,-0.07861328
1011,102.25,-2.125,-289.6875,-0.9672852,1.55127,-0.3286133,-0.09472656,-0.3745117,-0.07080078
1015,-7.75,-21.25,-253.125,-1.044922,1.65625,-0.4091797,-0.06738281,-0.3867188,-0.06542969
1019,-87.125,-16.9375,-220.5,-0.6650391,0.9375,-0.07080078,-0.04248047,-0.3881836,-0.06787109
1023,-59.8125,20.625,-209.5,-0.5488281,0.2963867,0.1020508,-0.02929688,-0.3891602,-0.07470703
1027,3,49.6875,-230.625,-0.6611328,0.1176758,0.1865234,-0.005859375,-0.3916016,-0.07861328
1031,57.8125,48,-277.1875,-1.060547,0.4985352,0.03662109,0.02001953,-0.390625,-0.07324219
1035,44.75,27.125,-304.4375,-1.269531,1.007324,-0.1245117,0.0390625,-0.3930664,-0.07324219
1039,4.125,27,-293.875,-1.428223,1.019043,-0.03613281,0.07226563,-0.3867188,-0.06640625
1043,-12.125,10.3125,-267,-1.544922,0.7626953,0.03271484,0.09765625,-0.3803711,-0.06787109
1047,-2,11.5625,-248.875,-1.385742,0.6225586,0.06347656,0.112793,-0.3745117,-0.06787109
1051,18.4375,15.8125,-264.9375,-1.35498,0.5410156,-0.001464844,0.1376953,-0.3657227,-0.06640625
1055,44.0625,10.1875,-298.5625,-1.513672,0.7392578,-0.04736328,0.1616211,-0.3520508,-0.06396484
1059,59.1875,1.5,-304.0625,-1.761719,1.069336,-0.08203125,0.1806641,-0.3417969,-0.06103516
1063,60.0625,-1.125,-263.125,-1.862305,1.287109,-0.1166992,0.2045898,-0.3256836,-0.05566406
1067,50.375,5.25,-195.125,-1.742188,1.442383,-0.1401367,0.2202148,-0.3066406,-0.05175781
1071,22.5,9.6875,-147.3125,-1.471191,1.477539,-0.2783203,0.2294922,-0.2983398,-0.04736328
1076,-7.6875,14,-130.125,-1.234863,1.36084,-0.2363281,0.237793,-0.2880859,-0.04638672
1080,-27.6875,13.375,-130.0625,-1.168945,1.283203,-0.08203125,0.2460938,-0.2792969,-0.04882813
1084,-25.8125,6.5,-130.1875,-1.203613,1.275391,0.1367188,0.2519531,-0.2705078,-0.04882813
1088,6.8125,-1.3125,-106.375,-1.358887,1.259766,0.3671875,0.2592773,-0.2607422,-0.05029297
1092,45.0625,-4,-63.8125,-1.443848,1.46582,0.3710938,0.2641602,-0.2529297,-0.04736328
1096,52.5,-10.625,-13.125,-1.413086,1.827148,0.2060547,0.2666016,-0.2519531,-0.04882813
1100,34.0625,-14.5,27.6875,-1.308105,2.013672,0.02880859,0.2666016,-0.2519531,-0.04492188
1104,7.5,-10.5625,64.5625,-1.23877,1.900879,0.005859375,0.2641602,-0.2558594,-0.04492188
1108,1.4375,-5.75,99.5,-1.246094,1.660156,0.1210938,0.2617188,-0.2607422,-0.04638672
1112,13.5625,-0.5,129.9375,-1.292969,1.547363,0.2250977,0.2558594,-0.2695313,-0.04638672
1116,24.6875,-8,153.1875,-1.471191,1.547363,0.1826172,0.2475586,-0.2792969,-0.04492188
1120,26.625,-19.9375,178.625,-1.591309,1.574707,0.07910156,0.2402344,-0.2895508,-0.04345703
1124,23.125,-22.75,212.5,-1.583496,1.516113,-0.05908203,0.2260742,-0.3032227,-0.04052734
1128,16.25,-11.75,248.875,-1.606445,1.450195,-0.1743164,0.2104492,-0.3193359,-0.04199219
1132,0.5,1.6875,277.6875,-1.633789,1.415039,-0.2246094,0.1948242,-0.3291016,-0.04199219
1136,-25.25,1.4375,287.875,-1.757813,1.291016,-0.2783203,0.1723633,-0.3481445,-0.04052734
1140,-52.5625,-6.0625,286.6875,-1.649414,1.143066,-0.2631836,0.1499023,-0.3603516,-0.04638672
1144,-64.4375,-5.9375,285.5625,-1.657227,0.8671875,-0.1362305,0.1308594,-0.3681641,-0.04882813
1148,-66.375,-10.0625,280.4375,-1.541016,0.7353516,-0.08984375,0.1035156,-0.3793945,-0.05566406
1152,-50,-1.5,289.3125,-1.381836,0.5097656,-0.02050781,0.07714844,-0.3857422,-0.0625
1156,-31.375,16.6875,296.0625,-1.315918,0.5800781,-0.05517578,0.05810547,-0.390625,-0.06542969
1160,-36.8125,15.25,292.125,-1.23877,0.6962891,-0.1166992,0.02832031,-0.3945313,-0.06787109
1164,-52.8125,9.125,276.125,-1.145508,0.7119141,-0.1435547,-0.001953125,-0.3916016,-0.07324219
1168,-67.8125,3.8125,270.6875,-1.118652,0.6420898,-0.1166992,-0.01855469,-0.3916016,-0.07763672
1172,-66.125,5.875,277.0625,-1.037109,0.5644531,-0.03222656,-0.04492188,-0.3867188,-0.08447266
1176,-59.5625,5.875,278.25,-1.005859,0.5214844,-0.02832031,-0.07226563,-0.3779297,-0.09082031
1180,-47.1875,4.375,286.625,-0.9052734,0.3505859,0.05175781,-0.09130859,-0.371582,-0.09228516
1184,-28.875,8.875,281.375,-0.6845703,0.4086914,0.08251953,-0.1186523,-0.3632813,-0.09667969
1188,-20.8125,12.5625,269.1875,-0.6806641,0.5214844,0.08251953,-0.1435547,-0.3466797,-0.1005859
1192,-22.875,6.4375,270.3125,-0.7890625,0.6694336,0.02099609,-0.1591797,-0.3369141,-0.1005859
1196,-27.4375,5.5,279.625,-0.5605469,0.6225586,0.05175781,-0.1806641,-0.3242188,-0.1035156
1200,-27.1875,14,284.625,-0.4633789,0.5722656,0.06347656,-0.2045898,-0.3041992,-0.1035156
1205,-31.0625,16.375,291.9375,-0.4672852,0.5952148,0.05957031,-0.2172852,-0.2905273,-0.105957
1209,-41.3125,15.9375,297.8125,-0.3935547,0.5761719,0.07519531,-0.2363281,-0.2680664,-0.1088867
1213,-60.875,4.0625,296.375,-0.2270508,0.4321289,0.05957031,-0.2543945,-0.2431641,-0.112793
1217,-71.125,2.625,280.6875,0.01269531,0.1601563,0.1557617,-0.2661133,-0.2246094,-0.1157227
1221,-59.5625,11.5625,265.4375,0.1791992,-0.1035156,0.3056641,-0.2817383,-0.1992188,-0.1196289
1225,-42,7.9375,247.25,0.2255859,-0.2241211,0.3212891,-0.2890625,-0.171875,-0.1181641
1229,-27.4375,-4.125,234.4375,0.2836914,-0.484375,0.3789063,-0.2973633,-0.1557617,-0.1225586
1233,-7.1875,-14.4375,226.75,0.5126953,-0.8842773,0.375,-0.3032227,-0.1342773,-0.1225586
1237,-10.9375,-20.1875,206.75,0.7875977,-1.490723,0.2368164,-0.3081055,-0.1118164,-0.1210938
1241,-28.6875,-19.4375,160.4375,1.089844,-1.665527,0.1557617,-0.3125,-0.09960938,-0.1181641
1245,-31.625,-24.8125,93.125,1.333984,-2.213379,0.2021484,-0.3164063,-0.08203125,-0.1166992
1249,-2.5625,-21.125,-8.25,1.624512,-2.271484,0.2827148,-0.3149414,-0.07568359,-0.1157227
1253,45.375,-18.3125,-117.1875,1.341797,-1.878906,0.2709961,-0.3149414,-0.07958984,-0.1157227
1257,85.8125,-16.875,-177.5625,0.9155273,-1.342773,0.1982422,-0.3149414,-0.09423828,-0.112793
1261,98.1875,-21.625,-205.0625,0.5859375,-0.7641602,0.01367188,-0.3115234,-0.1157227,-0.1088867
1265,78.625,-30.1875,-215.25,0.4619141,-0.3173828,-0.1166992,-0.3081055,-0.1293945,-0.1044922
1269,47.4375,-25.125,-224.1875,0.5009766,-0.1499023,-0.1323242,-0.3041992,-0.1557617,-0.1020508
1273,33.3125,-9.8125,-231.1875,0.3808594,-0.1850586,-0.009277344,-0.2958984,-0.1782227,-0.09765625
1277,44.9375,-0.3125,-243.6875,0.3227539,-0.2084961,0.07910156,-0.2875977,-0.1943359,-0.09667969
1281,65.3125,12.375,-244.9375,0.09375,-0.06445313,0.03662109,-0.2768555,-0.2182617,-0.09765625
1285,85.1875,22.0625,-229.125,-0.1108398,0.1875,-0.02050781,-0.2651367,-0.2407227,-0.09375
1289,83.75,27.5,-222.0625,-0.1923828,0.3310547,-0.0859375,-0.2543945,-0.2568359,-0.09082031
1293,80.875,20.5625,-239.875,-0.3164063,0.4711914,-0.05126953,-0.2387695,-0.2753906,-0.08837891
1297,58.1875,-3.8125,-266.5625,-0.4790039,0.7705078,-0.1435547,-0.2197266,-0.2954102,-0.08447266
1301,13.5,-22.375,-292.4375,-0.5063477,0.9179688,-0.1552734,-0.2080078,-0.3105469,-0.08154297
1305,-1.125,-27.125,-300,-0.5527344,0.5991211,0.09423828,-0.1831055,-0.3305664,-0.08007813
1309,52.6875,-3.625,-280.5625,-0.7426758,0.4594727,0.2558594,-0.1591797,-0.3432617,-0.07763672
1313,118.5625,10.0625,-255.1875,-0.9399414,0.9604492,0.02490234,-0.1425781,-0.3554688,-0.07470703
1317,83.0625,-5.875,-250.5625,-1.067871,1.795898,-0.5131836,-0.1201172,-0.3666992,-0.06542969
1321,-28.5,-36.875,-262,-0.8706055,1.76123,-0.5092773,-0.09472656,-0.3779297,-0.06103516
1325,-87.625,-29.125,-258.625,-0.5913086,1.022949,-0.1245117,-0.078125,-0.3833008,-0.06103516
1329,-51.9375,9.3125,-244.3125,-0.5371094,0.203125,0.2290039,-0.05322266,-0.3867188,-0.07080078
1334,51.4375,47.9375,-244.125,-0.730957,0.06298828,0.2944336,-0.02832031,-0.3916016,-0.07080078
1338,110.875,41.125,-261.8125,-1.187988,0.7236328,-0.02832031,-0.01025391,-0.3930664,-0.06396484
1342,88.3125,1.25,-285.0625,-1.424316,1.411133,-0.324707,0.01513672,-0.3955078,-0.05566406
1346,22.1875,-26.0625,-270.375,-1.401367,1.559082,-0.324707,0.04394531,-0.3891602,-0.04882813
1350,-20.1875,-15.5625,-228,-1.195801,1.116211,-0.1782227,0.06298828,-0.3881836,-0.04882813
1354,-24.5625,4.1875,-203.9375,-1.048828,0.6616211,-0.1401367,0.08300781,-0.3857422,-0.05029297
1358,-7,16.8125,-215.25,-0.9868164,0.4204102,-0.1245117,0.1035156,-0.3793945,-0.05273438
1362,13.6875,14.375,-257.6875,-1.091309,0.4360352,-0.1474609,0.1186523,-0.3745117,-0.05029297
1366,21.1875,-0.625,-302.75,-1.351074,0.6733398,-0.1206055,0.1425781,-0.3632813,-0.05029297
1370,20.25,-13.8125,-320.3125,-1.57959,0.9023438,-0.07861328,0.1699219,-0.3457031,-0.04736328
1374,18.4375,-19.5,-296.8125,-1.804199,1.019043,-0.04003906,0.1889648,-0.3369141,-0.04736328
1378,17.625,-19.25,-249.875,-1.738281,1.092773,-0.02441406,0.2094727,-0.3178711,-0.05029297
1382,18.5625,-16.0625,-218.3125,-1.541016,1.174316,-0.09375,0.2270508,-0.3032227,-0.04882813
1386,16.3125,-15.25,-202,-1.393555,1.279297,-0.1166992,0.2353516,-0.2905273,-0.04736328
1390,5.4375,-15.25,-191.5,-1.304199,1.508301,-0.09375,0.2485352,-0.2768555,-0.04882813
1394,-15.0625,-19,-169.375,-1.401367,1.706543,-0.03222656,0.2568359,-0.2607422,-0.05175781
1398,-29.875,-20.0625,-121.9375,-1.459473,1.795898,0.1904297,0.2641602,-0.2519531,-0.05273438
1402,-22.625,-10.9375,-52.6875,-1.447754,1.757324,0.375,0.2700195,-0.2441406,-0.05712891
1406,1.3125,-0.6875,12.1875,-1.296875,1.718262,0.4326172,0.2709961,-0.2407227,-0.05712891
1410,17.1875,4.3125,53.0625,-1.227051,1.780273,0.3598633,0.2700195,-0.2416992,-0.05859375
1414,18.875,-2.0625,83.875,-1.257813,1.741699,0.3056641,0.2675781,-0.2480469,-0.05712891
1418,24.0625,-6.5625,108.8125,-1.223145,1.586426,0.3212891,0.2617188,-0.2558594,-0.05419922
1422,36.1875,-8.5625,133.5625,-1.347168,1.586426,0.2597656,0.2592773,-0.2617188,-0.05566406
1426,40.375,-12.5,166.0625,-1.486328,1.644531,0.1289063,0.25,-0.2753906,-0.05419922
1430,39.625,-12.6875,203.25,-1.521484,1.58252,0.03662109,0.2368164,-0.2880859,-0.05175781
1434,42.25,-5.875,235.25,-1.533203,1.52002,-0.04394531,0.2285156,-0.2993164,-0.04882813
1438,36.25,-0.25,258,-1.591309,1.469727,-0.1435547,0.2119141,-0.3178711,-0.04638672
1442,24.125,0.875,276.625,-1.661133,1.353027,-0.2089844,0.1914063,-0.3354492,-0.04345703
1446,10.1875,3.375,288.5,-1.65332,1.217285,-0.2363281,0.1738281,-0.3442383,-0.04199219
1450,-1.75,2.125,295.75,-1.649414,1.104492,-0.2436523,0.1499023,-0.3603516,-0.04052734
1454,-17.3125,1.8125,301.25,-1.603027,1.061523,-0.2670898,0.1225586,-0.3745117,-0.04199219
1458,-38.75,6.0625,300.75,-1.563965,1.06543,-0.2978516,0.1035156,-0.3803711,-0.04345703
1463,-60.0625,5.6875,306.6875,-1.541016,0.875,-0.2939453,0.07373047,-0.3867188,-0.04882813
1467,-56.4375,18.1875,317.25,-1.308105,0.6499023,-0.1821289,0.04248047,-0.3945313,-0.05273438
1471,-57.875,27.25,314.5625,-1.191895,0.6108398,-0.2246094,0.02246094,-0.3916016,-0.05566406
1475,-58.0625,24,295.0625,-1.141602,0.5058594,-0.1435547,-0.009277344,-0.3930664,-0.06396484
1479,-52.3125,19.8125,279.375,-0.9946289,0.5097656,-0.1166992,-0.03662109,-0.3891602,-0.07177734
1483,-60.25,22.375,267.6875,-0.9365234,0.6420898,-0.1821289,-0.05664063,-0.3867188,-0.07324219
1487,-86.3125,14.8125,256.25,-0.9711914,0.6884766,-0.2089844,-0.07958984,-0.3769531,-0.08154297
1491,-90.4375,3.9375,253.125,-0.8666992,0.4204102,-0.04736328,-0.1054688,-0.3681641,-0.08984375
1495,-65.5625,7.25,252.1875,-0.7578125,0.3232422,0.07128906,-0.1220703,-0.3618164,-0.09521484
1499,-41.0625,0.6875,247.625,-0.699707,0.3544922,0.06347656,-0.1450195,-0.3491211,-0.09912109
1503,-31.75,-4.6875,241.1875,-0.5991211,0.4946289,0.01708984,-0.1674805,-0.3354492,-0.1035156
1507,-28.9375,-0.8125,250.25,-0.4248047,0.4672852,0.01367188,-0.1806641,-0.3242188,-0.1035156
1511,-28.1875,16.6875,254.25,-0.262207,0.4516602,0.01708984,-0.1982422,-0.3081055,-0.105957
1515,-29.875,22.6875,245.4375,-0.2661133,0.4711914,0.03271484,-0.2197266,-0.2895508,-0.1088867
1519,-33.5625,16.1875,232.875,-0.215332,0.4750977,0.07128906,-0.2280273,-0.2783203,-0.1098633
1523,-29,17,232.0625,-0.1459961,0.4516602,0.1171875,-0.2436523,-0.2583008,-0.112793
1527,-14.625,20.25,239.875,0.01269531,0.3232422,0.2211914,-0.2568359,-0.2382813,-0.1181641
1531,4.9375,33.4375,242.6875,0.1289063,0.3740234,0.2250977,-0.2661133,-0.2255859,-0.1166992
1535,14.4375,40.125,242.75,0.190918,0.4672852,0.1904297,-0.2758789,-0.203125,-0.1196289
1539,4,38.6875,237.4375,0.1987305,0.5683594,0.1713867,-0.2851563,-0.1821289,-0.1235352
1543,-17.5625,32.3125,238.125,0.1557617,0.5913086,0.144043,-0.2924805,-0.1679688,-0.125
1547,-56,20.5625,254.0625,0.1791992,0.3120117,0.1479492,-0.2983398,-0.1430664,-0.1289063
1551,-94.3125,12.3125,259.0625,0.4116211,-0.2314453,0.2441406,-0.3032227,-0.1157227,-0.1289063
1555,-116.25,0.375,244.875,0.5708008,-1.040039,0.3251953,-0.309082,-0.09716797,-0.1333008
1559,-116.1875,-15.9375,214.25,0.8535156,-1.929688,0.3979492,-0.3115234,-0.06933594,-0.1333008
1563,-80,-14.5,153.625,1.225586,-2.741699,0.5405273,-0.3125,-0.04833984,-0.1318359
1567,-15,-14.4375,36.125,1.612793,-2.834961,0.6098633,-0.3139648,-0.03808594,-0.1303711
1571,46.25,-22.9375,-107.4375,1.426758,-2.248047,0.5097656,-0.3125,-0.03808594,-0.1289063
1575,90.125,-37.5,-195.5625,0.8417969,-1.564453,0.3520508,-0.3149414,-0.05322266,-0.1279297
1579,112.8125,-51.1875,-218.4375,0.4467773,-0.9775391,0.1943359,-0.3125,-0.06933594,-0.125
1583,97.8125,-59.6875,-224.5625,0.4194336,-0.371582,-0.03222656,-0.3115234,-0.09570313,-0.1181641
1587,47.125,-73,-244.875,0.4272461,-0.08398438,-0.1630859,-0.3115234,-0.1196289,-0.1098633
1592,3.9375,-74.9375,-267.4375,0.4814453,-0.1928711,-0.06298828,-0.3066406,-0.1396484,-0.105957
1596,3.5,-56.4375,-280.0625,0.4428711,-0.355957,0.1132813,-0.3007813,-0.1645508,-0.09765625
1600,26.6875,-36.4375,-289.3125,0.2104492,-0.3754883,0.2021484,-0.2875977,-0.1933594,-0.09228516
1604,51.125,-30.0625,-301.6875,0.01660156,-0.2045898,0.159668,-0.2807617,-0.2128906,-0.09228516
1608,63.5625,-22.1875,-299.4375,-0.2080078,0.121582,0.01367188,-0.2651367,-0.2382813,-0.08691406
1612,52.6875,-2.875,-283,-0.3085938,0.284668,-0.07080078,-0.2509766,-0.2641602,-0.08300781
1616,44.5625,8.5625,-270.8125,-0.4326172,0.3935547,-0.1206055,-0.237793,-0.2807617,-0.08007813
1620,30.6875,29.0625,-263,-0.5371094,0.5332031,-0.1591797,-0.2172852,-0.3017578,-0.07861328
1624,12.125,-8.125,-308.6875,-0.7734375,0.4907227,-0.1015625,-0.1948242,-0.3193359,-0.07763672
1628,30.625,-35.3125,-371,-0.7114258,0.3193359,0.125,-0.1772461,-0.3344727,-0.07617188
1632,67.375,-32.4375,-374.0625,-1.219238,0.5371094,0.02490234,-0.1411133,-0.3579102,-0.07177734
1636,74.6875,-20.5625,-329.1875,-1.447754,1.193848,-0.1821289,-0.109375,-0.3730469,-0.06542969
1640,15.75,-6.8125,-274.3125,-1.343262,1.543457,-0.4208984,-0.09130859,-0.3793945,-0.05957031
1644,-28,2.8125,-252.4375,-1.129883,1.112305,-0.2246094,-0.06298828,-0.3857422,-0.05859375
1648,-42.875,-4.1875,-273.375,-1.180664,0.7587891,-0.1401367,-0.0390625,-0.3891602,-0.06542969
1652,-9.25,-14.8125,-313.125,-1.060547,0.2963867,0.1289063,-0.02001953,-0.3930664,-0.06640625
1656,54.125,1.4375,-336.3125,-1.308105,0.5566406,0.02880859,0.01269531,-0.3945313,-0.06542969
1660,46.8125,-3.625,-320.4375,-1.730469,1.283203,-0.2670898,0.04394531,-0.390625,-0.05859375
1664,-7.5,-10.625,-278.375,-1.734375,1.388184,-0.2822266,0.06640625,-0.3881836,-0.05712891
1668,-46.75,-3.5625,-251.75,-1.455566,1.026855,-0.1938477,0.09277344,-0.3803711,-0.05957031
1672,-57,8.75,-267.5,-1.219238,0.6811523,-0.09765625,0.1166992,-0.371582,-0.0625
1676,-33.625,17.3125,-292.3125,-1.32373,0.5136719,0.04785156,0.1333008,-0.3657227,-0.06787109
1680,3.6875,22.625,-307.75,-1.498047,0.777832,0.1479492,0.1616211,-0.3505859,-0.06933594
1684,21.875,13.8125,-295.75,-1.827637,1.17041,0.1674805,0.1865234,-0.3344727,-0.06640625
1688,33.8125,1.6875,-251.25,-1.897461,1.341309,0.2021484,0.2021484,-0.3242188,-0.06542969
1692,38.125,-0.9375,-199.4375,-1.703613,1.485352,0.07519531,0.2202148,-0.3066406,-0.06103516
1696,24.625,3.6875,-160.3125,-1.413086,1.543457,-0.06298828,0.230957,-0.2944336,-0.05957031
1700,-0.6875,7.375,-137.6875,-1.187988,1.562988,-0.1015625,0.2368164,-0.2880859,-0.05859375
1704,-18.625,15,-122.625,-1.099121,1.454102,0.05566406,0.2485352,-0.2768555,-0.05859375
1708,-23.3125,14,-107,-1.15332,1.477539,0.2290039,0.2558594,-0.2680664,-0.05957031
1712,-11.375,10,-80.1875,-1.215332,1.539551,0.409668,0.2583008,-0.2607422,-0.05712891
1716,13.5,7.25,-39.25,-1.292969,1.667969,0.4599609,0.2617188,-0.2558594,-0.05957031
1721,34.1875,3.5,5.625,-1.304199,1.908691,0.390625,0.2641602,-0.2543945,-0.05957031
1725,47.875,-2,51,-1.347168,2.021484,0.2827148,0.2626953,-0.2543945,-0.05419922
1729,53.125,-1.125,103.0625,-1.35498,2.075684,0.1132813,0.2592773,-0.2631836,-0.05273438
1733,43.125,6.25,148.625,-1.343262,2.044922,0.001953125,0.253418,-0.2705078,-0.05175781
1737,36.9375,6.75,172.8125,-1.366211,1.928223,0.02490234,0.2460938,-0.2783203,-0.04492188
1741,56.125,7.8125,193.375,-1.591309,1.795898,0.1098633,0.2329102,-0.2929688,-0.04638672
1745,82.0625,9.9375,232,-1.881836,1.858398,0.03271484,0.2202148,-0.3081055,-0.03662109
1749,79,16.3125,272.5625,-1.986328,1.823242,-0.128418,0.2104492,-0.3193359,-0.03369141
1753,53.25,24.4375,315.625,-1.959473,1.769043,-0.309082,0.1855469,-0.3369141,-0.02734375
1757,3.125,32.6875,338.0625,-1.804199,1.621094,-0.378418,0.1591797,-0.3554688,-0.02148438
1761,-53.125,19.875,328.5625,-1.661133,1.244141,-0.3666992,0.1376953,-0.3657227,-0.02050781
1765,-86.4375,15.5,318.1875,-1.40918,0.7739258,-0.1669922,0.1079102,-0.3793945,-0.02734375
1769,-90.75,17.3125,308.5,-1.265625,0.4829102,-0.02050781,0.07714844,-0.3867188,-0.03515625
1773,-76.75,10.125,293.75,-1.195801,0.1914063,0.09423828,0.05566406,-0.3916016,-0.04052734
1777,-42.9375,-0.25,275.75,-1.067871,0.1484375,0.1132813,0.02832031,-0.3930664,-0.04736328
1781,-20.125,-0.6875,265.75,-1.017578,0.3271484,-0.009277344,0,-0.3969727,-0.05175781
1785,-23.4375,-1.4375,255.25,-0.9868164,0.5913086,-0.1782227,-0.01757813,-0.3955078,-0.05175781
1789,-53.4375,-9.625,240.25,-0.9555664,0.6884766,-0.3012695,-0.04248047,-0.3891602,-0.05566406
1793,-69.1875,-5.625,233.4375,-0.9477539,0.6616211,-0.2475586,-0.06640625,-0.3842773,-0.06103516
1797,-67.875,-0.25,242.25,-0.9672852,0.5410156,-0.1669922,-0.08056641,-0.3793945,-0.06640625
1801,-60,5.9375,248.25,-0.9091797,0.6147461,-0.1899414,-0.1044922,-0.3706055,-0.07177734
1805,-67.875,7.9375,255.25,-0.8125,0.6655273,-0.2128906,-0.128418,-0.3603516,-0.08007813
1809,-69,11.6875,254.5625,-0.7270508,0.5952148,-0.1474609,-0.1435547,-0.3544922,-0.08300781
1813,-55.875,12.5,248.5625,-0.6728516,0.6030273,-0.08984375,-0.1665039,-0.3378906,-0.08837891
1817,-45.3125,18.75,253.125,-0.7114258,0.793457,-0.0859375,-0.1875,-0.3242188,-0.09521484
1821,-49.625,17.625,266.4375,-0.730957,0.9604492,-0.05908203,-0.2021484,-0.3095703,-0.09667969
1825,-67.625,13.3125,290.5625,-0.7348633,0.9916992,-0.1669922,-0.2211914,-0.2905273,-0.1020508
1829,-86.3125,17.1875,316.5,-0.4013672,0.6303711,-0.02832031,-0.2426758,-0.265625,-0.1074219
1833,-81.125,25.75,316.75,-0.2543945,0.3662109,0.09033203,-0.2543945,-0.2470703,-0.1074219
1837,-67.6875,18.0625,304,-0.2192383,0.2573242,0.1982422,-0.2709961,-0.2182617,-0.1181641
1841,-53.5,10.375,296.625,-0.08398438,0.1640625,0.2402344,-0.2841797,-0.1894531,-0.1196289
1845,-44.0625,11.9375,301.3125,0.01660156,0.08251953,0.2636719,-0.2890625,-0.1679688,-0.1210938
1850,-50.25,9.125,304,0.09375,-0.1035156,0.2788086,-0.3007813,-0.1367188,-0.1235352
1854,-62.4375,-1.1875,293.5625,0.1870117,-0.1191406,0.2558594,-0.309082,-0.1054688,-0.1235352
1858,-87.9375,-19.5,279.25,0.4814453,-0.8803711,0.2133789,-0.3115234,-0.08544922,-0.1235352
1862,-110.1875,-34.0625,240.0625,0.7216797,-1.649902,0.1635742,-0.3139648,-0.0546875,-0.1235352
1866,-97.75,-25.5,199.25,1.016113,-2.609375,0.2211914,-0.3149414,-0.02832031,-0.1181641
1870,-51.1875,-1.6875,123.4375,1.477539,-3.126465,0.3212891,-0.3149414,-0.015625,-0.1181641
1874,11.625,13.625,-21.875,1.709961,-2.862305,0.3945313,-0.3139648,-0.006835938,-0.1196289
1878,67.25,-2.5625,-168.875,1.209961,-2.217285,0.3212891,-0.3139648,-0.01464844,-0.1196289
1882,114.125,-16.875,-237.3125,0.6870117,-1.645996,0.2749023,-0.3173828,-0.03076172,-0.1166992
1886,136.625,-27.5625,-252.9375,0.3496094,-0.9541016,0.05566406,-0.3173828,-0.05957031,-0.1196289
1890,112.4375,-44.125,-260.375,0.2993164,-0.4101563,-0.08984375,-0.3149414,-0.08837891,-0.112793
1894,69.75,-53.875,-279.8125,0.4467773,-0.2626953,-0.08984375,-0.3139648,-0.1069336,-0.1098633
1898,46,-45.6875,-303.1875,0.4619141,-0.3520508,-0.005371094,-0.3081055,-0.1396484,-0.1044922
1902,51.1875,-36.5,-329.0625,0.2875977,-0.4140625,0.1210938,-0.2973633,-0.171875,-0.09765625
1906,71.4375,-36.0625,-354.625,0.05517578,-0.3095703,0.1367188,-0.2890625,-0.1933594,-0.09521484
1910,82.375,-33.25,-358,-0.2192383,0.06298828,0.001953125,-0.2734375,-0.2270508,-0.08984375
1914,69.875,-17.6875,-333.875,-0.4326172,0.3857422,-0.1591797,-0.253418,-0.2592773,-0.08007813
1918,61.625,20,-288.1875,-0.3588867,0.3818359,-0.07080078,-0.2387695,-0.2753906,-0.07861328
1922,58.5625,38.1875,-279.5625,-0.6728516,0.5952148,-0.1591797,-0.21875,-0.2993164,-0.07861328
1926,30.25,6.25,-314.875,-0.8046875,0.7080078,-0.1166992,-0.1962891,-0.3208008,-0.07617188
1930,-8.3125,-23.0625,-356.375,-0.8666992,0.6420898,-0.09765625,-0.1782227,-0.3330078,-0.07617188
1934,-14.375,-14.0625,-362.625,-1.013672,0.3505859,0.1020508,-0.1459961,-0.3530273,-0.07470703
1938,30.375,7.5625,-339.8125,-1.20752,0.1523438,0.2290039,-0.1152344,-0.3691406,-0.07617188
1942,80.875,30,-317.75,-1.339355,0.3349609,0.07910156,-0.09228516,-0.3793945,-0.07324219
1946,93.125,27.1875,-318.625,-1.541016,0.9179688,-0.2285156,-0.05908203,-0.3881836,-0.06640625
1950,42.375,-4.75,-337.6875,-1.75,1.189941,-0.3901367,-0.02685547,-0.3945313,-0.05712891
1954,-13.1875,-33.875,-343.625,-1.625977,0.9643555,-0.2324219,-0.004394531,-0.3945313,-0.05712891
1958,-14.3125,-23.625,-329.625,-1.517578,0.6342773,-0.06298828,0.03076172,-0.3955078,-0.05859375
1962,2.3125,-5.6875,-304.875,-1.587402,0.5292969,-0.04736328,0.06054688,-0.3891602,-0.05859375
1966,25.5625,1.0625,-300.625,-1.571777,0.4829102,-0.05517578,0.08203125,-0.3857422,-0.05859375
1970,55.5625,-0.625,-315.25,-1.699707,0.6186523,-0.1323242,0.1103516,-0.3779297,-0.05566406
1974,72.625,-9.875,-328.0625,-1.796387,0.9101563,-0.2363281,0.1416016,-0.3632813,-0.04882813
1979,65.125,-26.625,-314.4375,-1.994141,1.337402,-0.4130859,0.1630859,-0.3530273,-0.04736328
1983,23.3125,-26.625,-278.6875,-1.82373,1.59375,-0.5092773,0.1865234,-0.3354492,-0.04345703
1987,-28.5,-6.25,-227,-1.614258,1.512207,-0.5014648,0.2055664,-0.3208008,-0.04199219
1991,-69.0625,12.5625,-198.1875,-1.40918,1.228516,-0.3862305,0.2202148,-0.3105469,-0.04638672
1995,-83.3125,23.3125,-193.0625,-1.292969,0.8984375,-0.1435547,0.2329102,-0.2954102,-0.05029297
1999,-68.6875,31.4375,-194.9375,-1.285156,0.6923828,0.1367188,0.2451172,-0.2807617,-0.05712891
2003,-41.625,33.75,-193.5625,-1.420898,0.6923828,0.3520508,0.2509766,-0.2719727,-0.05566406
2007,-13.5,21.9375,-186.5,-1.490234,0.8208008,0.4174805,0.2626953,-0.2558594,-0.05566406
2011,6.875,7.8125,-178.6875,-1.443848,1.034668,0.409668,0.2749023,-0.2382813,-0.05419922
2015,19.25,-2.875,-165.5625,-1.443848,1.221191,0.3481445,0.2792969,-0.2294922,-0.05273438
2019,21.25,-4.8125,-139.875,-1.393555,1.442383,0.3056641,0.2866211,-0.2158203,-0.05175781
2023,17.75,3.9375,-96.8125,-1.381836,1.621094,0.2368164,0.2915039,-0.203125,-0.05273438
2027,4.875,13.375,-42.75,-1.45166,1.749512,0.1826172,0.2939453,-0.1992188,-0.05029297
2031,-10.9375,12.6875,13.8125,-1.517578,1.714355,0.2094727,0.2963867,-0.1943359,-0.04882813
2035,-6.875,5.9375,69,-1.501953,1.477539,0.2788086,0.2939453,-0.2006836,-0.05029297
2039,2.625,4.0625,109.75,-1.447754,1.372559,0.2211914,0.2915039,-0.203125,-0.04736328
2043,5.8125,-1.375,136.625,-1.447754,1.314453,0.1518555,0.2856445,-0.2143555,-0.04882813
2047,0.625,-11.375,153.25,-1.501953,1.345215,0.08251953,0.2817383,-0.2280273,-0.04882813
2051,-7.125,-24.5625,172.0625,-1.62207,1.337402,0.06347656,0.2734375,-0.2382813,-0.05029297
2055,-0.25,-26.0625,207.5625,-1.665039,1.255859,0.07128906,0.2641602,-0.2519531,-0.05273438
2059,12.4375,-13.3125,251.25,-1.75,1.213379,0.07128906,0.2519531,-0.2705078,-0.05273438
2063,16.625,-3.5625,290.375,-1.850586,1.205566,0.02880859,0.2426758,-0.2856445,-0.05273438
2067,4.3125,-6.6875,314.1875,-1.932129,1.166504,-0.06689453,0.222168,-0.3066406,-0.05273438
2071,-20.9375,-21.3125,317.6875,-1.885742,1.038574,-0.1206055,0.1972656,-0.3291016,-0.05419922
2075,-35.9375,-36.8125,313.8125,-1.727051,0.7353516,-0.09765625,0.1782227,-0.3417969,-0.05712891
2079,-27.1875,-31.25,299.5625,-1.405273,0.5644531,-0.02441406,0.1523438,-0.3569336,-0.0625
2083,-14,-18,286.25,-1.37793,0.5683594,-0.01318359,0.128418,-0.3706055,-0.06103516
2087,-7.5,-13.875,281.3125,-1.428223,0.6577148,-0.05517578,0.1079102,-0.3754883,-0.06542969
2091,-17.1875,-12.3125,283.5625,-1.292969,0.7431641,-0.1015625,0.08056641,-0.3857422,-0.06640625
2095,-33.125,-9.8125,280.3125,-1.165039,0.7236328,-0.1054688,0.05224609,-0.390625,-0.06933594
2099,-49,-9.9375,271.0625,-1.133789,0.7158203,-0.1166992,0.03320313,-0.3930664,-0.07177734
2103,-63.75,-16.25,256.6875,-1.114746,0.7080078,-0.1015625,0.004394531,-0.390625,-0.07861328
2108,-71.0625,-25.1875,237.875,-1.056641,0.5878906,-0.05517578,-0.01855469,-0.390625,-0.08447266
2112,-48.25,-23.625,238.5,-0.9985352,0.4829102,0.05566406,-0.03515625,-0.3867188,-0.08837891
2116,-30.0625,-14.625,252.125,-0.8974609,0.6186523,-0.02441406,-0.05908203,-0.3818359,-0.09228516
2120,-28.125,-8.3125,246.125,-0.9326172,0.8481445,-0.1245117,-0.08544922,-0.3745117,-0.09521484
2124,-51,-10.5625,250.375,-0.9477539,1.022949,-0.2167969,-0.09960938,-0.3691406,-0.09521484
2128,-82.75,-22.1875,253.0625,-0.9555664,0.9838867,-0.2592773,-0.1259766,-0.359375,-0.1005859
2132,-95.1875,-31.75,260.875,-0.9130859,0.7973633,-0.1362305,-0.1459961,-0.3442383,-0.1074219
2136,-76.625,-29,292.6875,-0.8237305,0.5800781,-0.07470703,-0.1640625,-0.3330078,-0.1098633
2140,-60.625,-12.0625,319.0625,-0.6533203,0.5292969,-0.05908203,-0.1889648,-0.3129883,-0.1157227
2144,-60.4375,-16.4375,317.875,-0.5566406,0.4985352,-0.05517578,-0.2138672,-0.2895508,-0.1196289
2148,-57.875,-34.8125,284.9375,-0.4790039,0.3857422,0.03662109,-0.2294922,-0.2729492,-0.1210938
2152,-35.5625,-37.0625,272.4375,-0.347168,0.2768555,0.1865234,-0.2485352,-0.2504883,-0.1225586
2156,-9.875,-20.5625,294.75,-0.3549805,0.2612305,0.2250977,-0.2651367,-0.2270508,-0.1210938
2160,-9.6875,-6.625,325.3125,-0.2929688,0.269043,0.144043,-0.2758789,-0.2080078,-0.1166992
2164,-59.875,-21.625,327.875,-0.1459961,0.07080078,-0.005371094,-0.2900391,-0.1767578,-0.1181641
2168,-129.3125,-55.125,281.1875,0.3339844,-0.4257813,-0.06298828,-0.3017578,-0.1420898,-0.1166992
2172,-172.0625,-70.1875,234.0625,0.6328125,-1.405273,-0.06298828,-0.3066406,-0.1230469,-0.1157227
2176,-155.5,-57.375,224.375,1.089844,-2.609375,0.04443359,-0.3139648,-0.09570313,-0.1098633
2180,-110.875,-11.0625,208.3125,1.775879,-3.339844,-0.1474609,-0.3164063,-0.06835938,-0.1088867
2184,-48.125,36.625,70.5625,2.271973,-3.378906,0.105957,-0.3188477,-0.05712891,-0.1098633
2188,33.3125,33.5625,-122.875,1.752441,-2.69873,0.3017578,-0.3188477,-0.05322266,-0.112793
2192,123.1875,25.8125,-224.5,0.9541016,-1.9375,0.4174805,-0.3149414,-0.07177734,-0.1166992
2196,193.4375,26.875,-227.1875,0.3305664,-1.136719,0.2441406,-0.3149414,-0.09179688,-0.1157227
2200,192.5,18.625,-209.8125,0.2373047,-0.2587891,-0.05908203,-0.3081055,-0.1206055,-0.1157227
2204,129.75,-0.4375,-216.9375,0.3496094,0.1293945,-0.1743164,-0.3032227,-0.1455078,-0.1113281
2208,65.625,-11.125,-239.4375,0.3959961,0.1020508,-0.1206055,-0.2998047,-0.1630859,-0.1098633
2212,48.625,-6.0625,-250,0.3769531,-0.1655273,0.05175781,-0.2915039,-0.1879883,-0.1074219
2216,74.6875,20.5625,-246.6875,0.3808594,-0.2822266,0.08251953,-0.2783203,-0.2128906,-0.105957
2220,120.75,56.875,-231.3125,0.2177734,-0.3286133,0.08251953,-0.2685547,-0.2280273,-0.1035156
2224,155.4375,82.5,-221.9375,-0.06445313,-0.04882813,-0.06298828,-0.253418,-0.2495117,-0.1044922
2228,141.1875,65.5625,-227.3125,-0.4790039,0.4672852,-0.1899414,-0.2387695,-0.2719727,-0.1005859
2232,83.75,4.6875,-267.375,-0.7504883,0.4790039,-0.2744141,-0.2255859,-0.2856445,-0.09765625
2237,47.6875,-34.375,-312,-0.5449219,0.3818359,-0.01318359,-0.2045898,-0.3095703,-0.09228516
2241,78.625,-21.4375,-320.25,-0.6069336,0.2070313,0.09423828,-0.1791992,-0.3305664,-0.08447266
2245,115.5,5.9375,-303.25,-0.8276367,0.5644531,-0.1362305,-0.1601563,-0.3432617,-0.08007813
2249,100.3125,10.125,-286.5,-1.103027,1.092773,-0.4438477,-0.1342773,-0.3603516,-0.06933594
2253,29.25,-4.0625,-275.125,-1.157227,1.380371,-0.5361328,-0.109375,-0.371582,-0.06396484
2257,-36.9375,-12.9375,-271.3125,-1.060547,1.135742,-0.378418,-0.09033203,-0.3779297,-0.06396484
2261,-51.5,-15,-276.5625,-0.9672852,0.4907227,-0.05908203,-0.06396484,-0.3867188,-0.06787109
2265,5.1875,6.1875,-289.8125,-0.9477539,0.1914063,0.1132813,-0.03515625,-0.3891602,-0.07080078
2269,48.625,14.5625,-304.75,-1.227051,0.4672852,-0.07080078,-0.01513672,-0.3930664,-0.06787109
2273,37.5625,0.6875,-315.1875,-1.475098,0.7817383,-0.2363281,0.01416016,-0.3930664,-0.06396484
2277,2.9375,-7.9375,-305.1875,-1.479004,0.8012695,-0.2167969,0.04638672,-0.3916016,-0.0625
2281,-19.5,-0.9375,-290.8125,-1.455566,0.5878906,-0.1743164,0.06542969,-0.3891602,-0.06103516
2285,-16.9375,8.6875,-286.5,-1.475098,0.3271484,-0.1513672,0.09375,-0.3818359,-0.06542969
2289,4.5,17.1875,-309.5,-1.603027,0.253418,-0.1669922,0.1235352,-0.3745117,-0.06396484
2293,42.375,11.9375,-345.75,-1.839355,0.4868164,-0.1206055,0.144043,-0.3632813,-0.06396484
2297,71.125,-1.3125,-359.375,-2.156738,1.124023,-0.1054688,0.1748047,-0.3457031,-0.05859375
2301,64.6875,-14.5625,-316,-2.366211,1.795898,-0.1938477,0.2021484,-0.3242188,-0.05419922
2305,27.5,-16.1875,-229.625,-2.094727,2.060059,-0.3862305,0.2177734,-0.3129883,-0.05029297
2309,-32.6875,1.875,-164.25,-1.439941,1.998047,-0.574707,0.2319336,-0.296875,-0.04882813
2313,-88.0625,31.9375,-139.5,-1.063965,1.741699,-0.4091797,0.2412109,-0.2832031,-0.05273438
2317,-120.125,54.125,-130.5625,-1.11084,1.450195,-0.0859375,0.2460938,-0.2792969,-0.05712891
2321,-112.9375,62.875,-114.9375,-1.227051,1.092773,0.3828125,0.2558594,-0.2670898,-0.05957031
2325,-68.5625,63.0625,-94.8125,-1.339355,1.057617,0.7211914,0.2641602,-0.2568359,-0.06103516
2329,-15.875,35.9375,-77.75,-1.501953,1.263672,0.8945313,0.2666016,-0.2519531,-0.05957031
2333,27.5,5.5625,-49.125,-1.556152,1.469727,0.8789063,0.2709961,-0.2441406,-0.05712891
2337,52.25,-17.0625,-10.9375,-1.525391,1.671875,0.6713867,0.2700195,-0.2441406,-0.05566406
2341,54.5,-26.0625,31.6875,-1.393555,1.827148,0.425293,0.2700195,-0.2431641,-0.05419922
2345,34.5625,-19,77.6875,-1.331543,1.916504,0.2402344,0.2700195,-0.2495117,-0.05273438
2349,7,-9.125,120.875,-1.351074,1.788086,0.2021484,0.2626953,-0.2568359,-0.05273438
2353,-14.5,-7.5625,151.5625,-1.467285,1.613281,0.2519531,0.2583008,-0.2631836,-0.05419922
2357,-24.6875,-21.6875,167.5625,-1.556152,1.356934,0.3330078,0.2475586,-0.2768555,-0.05712891
2361,-13.625,-37.125,177.5625,-1.657227,1.13916,0.3789063,0.237793,-0.2895508,-0.05712891
2366,14.75,-49.5625,197.75,-1.67627,0.972168,0.355957,0.2285156,-0.2983398,-0.0625
2370,47.375,-47.4375,220.6875,-1.625977,0.9335938,0.1982422,0.2138672,-0.3129883,-0.06396484
2374,61.8125,-37.875,245.625,-1.67627,1.04248,0.01367188,0.1972656,-0.328125,-0.06103516
2378,47.1875,-32.4375,264.5,-1.649414,1.162598,-0.1821289,0.1831055,-0.3408203,-0.06103516
2382,17.125,-35.4375,263.25,-1.633789,1.09668,-0.2744141,0.1591797,-0.3530273,-0.05859375
2386,-5.875,-42.5,251.875,-1.575684,0.9257813,-0.2397461,0.1367188,-0.3666992,-0.05859375
2390,-5.375,-35.75,243.5625,-1.439941,0.6845703,-0.1630859,0.1210938,-0.3745117,-0.06103516
2394,2.5,-16.375,251.5625,-1.413086,0.7080078,-0.1977539,0.09765625,-0.3833008,-0.0625
2398,-14.875,-5.0625,262.0625,-1.45166,0.9101563,-0.3359375,0.07128906,-0.3891602,-0.06396484
2402,-52.1875,-1.25,273.8125,-1.37793,0.9140625,-0.378418,0.05322266,-0.390625,-0.06640625
2406,-83.5,-10.625,267.5,-1.389648,0.8051758,-0.3359375,0.02734375,-0.3955078,-0.07080078
2410,-97.0625,-27,258.5,-1.312012,0.5761719,-0.2363281,0,-0.3916016,-0.08154297
2414,-76.875,-26.3125,258.875,-1.180664,0.4594727,-0.1323242,-0.01855469,-0.3891602,-0.08447266
2418,-62.0625,-9.375,274.875,-1.021484,0.5722656,-0.1860352,-0.04589844,-0.3842773,-0.09375
2422,-74.625,7.25,280.8125,-0.9868164,0.7705078,-0.3051758,-0.07226563,-0.3779297,-0.09912109
2426,-103.5625,10.5625,292.375,-1.048828,0.7392578,-0.3286133,-0.09033203,-0.3691406,-0.1074219
2430,-118.25,-0.0625,294.5,-1.037109,0.5566406,-0.2016602,-0.1176758,-0.3554688,-0.1181641
2434,-107.6875,-13.5625,294.25,-0.8510742,0.4204102,-0.04394531,-0.1459961,-0.3393555,-0.1264648
2438,-70.5,-1.625,312.8125,-0.6030273,0.1020508,0.05566406,-0.1616211,-0.328125,-0.1303711
2442,-45.375,8,315,-0.5371094,0.1953125,0.01708984,-0.1865234,-0.3056641,-0.1386719
2446,-42.8125,6.5625,307.6875,-0.4672852,0.2807617,0.005859375,-0.2089844,-0.2856445,-0.137207
2450,-54.875,3.25,295.75,-0.3393555,0.2651367,0.05175781,-0.2236328,-0.2695313,-0.137207
2454,-66.625,3.6875,297.25,-0.3125,0.1484375,0.07910156,-0.2412109,-0.2441406,-0.144043
2458,-78.9375,2.0625,307.375,-0.1689453,-0.1381836,0.1289063,-0.2578125,-0.2167969,-0.1484375
2462,-98,-11.5625,302.375,0.05126953,-0.340332,0.1132813,-0.2700195,-0.1982422,-0.1494141
2466,-121.9375,-24.75,267.5625,0.4272461,-0.7290039,0.1171875,-0.2817383,-0.1669922,-0.1523438
2470,-142.25,-45.3125,235.625,0.5551758,-1.245605,0.07128906,-0.2890625,-0.1396484,-0.1538086
2474,-129,-47.5,213.6875,0.9311523,-1.97998,0.09423828,-0.2949219,-0.1206055,-0.1494141
2478,-84.3125,-25,193.625,1.341797,-2.621094,0.159668,-0.3032227,-0.09423828,-0.1494141
2482,-25.75,0.8125,115.625,1.670898,-2.617188,0.2749023,-0.3056641,-0.07568359,-0.1484375
2486,24.875,6.5625,-23.0625,1.760254,-2.12793,0.2944336,-0.3041992,-0.06933594,-0.1508789
2490,69.3125,13.9375,-129.5625,1.26416,-1.638184,0.2675781,-0.3017578,-0.07568359,-0.1494141
2495,104.875,16.6875,-170.25,0.7138672,-1.144531,0.2329102,-0.3007813,-0.09570313,-0.1494141
2499,116.8125,11.8125,-178.4375,0.543457,-0.6669922,0.1713867,-0.2983398,-0.1108398,-0.1494141
2503,115.625,14.1875,-181.1875,0.543457,-0.4609375,0.1787109,-0.2924805,-0.1333008,-0.1494141
2507,132.375,35.8125,-182.8125,0.5126953,-0.4140625,0.2368164,-0.2866211,-0.1533203,-0.1469727
2511,165.4375,54.625,-181.125,0.3032227,-0.2509766,0.2250977,-0.2817383,-0.1694336,-0.1484375
2515,177.3125,43.75,-191.9375,0.07080078,0.1601563,0.05957031,-0.2734375,-0.1933594,-0.1469727
2519,150.5,22.375,-211.5,0.01660156,0.4868164,-0.07470703,-0.2626953,-0.2167969,-0.1416016
2523,101,10.6875,-229.4375,-0.01025391,0.6923828,-0.1245117,-0.253418,-0.2329102,-0.137207
2527,73.125,9.8125,-233.4375,-0.04101563,0.4321289,0.08642578,-0.2426758,-0.2529297,-0.1347656
2531,99.9375,20.375,-229.1875,-0.2583008,0.1953125,0.2709961,-0.2246094,-0.2744141,-0.1289063
2535,131.75,6.5,-231.1875,-0.5063477,0.4360352,0.1289063,-0.2128906,-0.2880859,-0.1279297
2539,140.0625,-28.25,-254.25,-0.5488281,0.6108398,0.08251953,-0.1972656,-0.3081055,-0.1142578
2543,117.375,-63.0625,-283.75,-0.7270508,0.8325195,-0.1513672,-0.1748047,-0.3291016,-0.1020508
2547,55.5625,-86.375,-305.125,-0.7504883,1.12793,-0.3051758,-0.1601563,-0.3408203,-0.09667969
2551,3.25,-80.625,-292.3125,-0.6455078,0.8867188,-0.2436523,-0.1352539,-0.3569336,-0.08691406
2555,-14.6875,-49.1875,-269.75,-0.5874023,0.5058594,-0.1669922,-0.109375,-0.3691406,-0.08691406
2559,-1.5,-16.75,-261.0625,-0.6806641,0.1484375,-0.112793,-0.09228516,-0.3745117,-0.08447266
2563,37.4375,-1.6875,-286.5,-0.9555664,-0.04541016,-0.09375,-0.06738281,-0.3833008,-0.08447266
2567,75.1875,-21.375,-337.875,-1.304199,0.1523438,-0.2436523,-0.03759766,-0.3881836,-0.07763672
2571,83.125,-49.5,-396.875,-1.490234,0.5410156,-0.4052734,-0.01416016,-0.3930664,-0.07177734
2575,57.5625,-67.125,-433.375,-1.831543,0.953125,-0.5976563,0.02587891,-0.3916016,-0.06640625
2579,6.875,-67.75,-407.25,-1.970703,1.193848,-0.59375,0.06884766,-0.3891602,-0.0625
2583,-35.1875,-35.625,-344.75,-1.788574,1.026855,-0.4555664,0.09277344,-0.3842773,-0.06396484
2587,-50.625,9.5625,-289.5625,-1.618164,0.7353516,-0.324707,0.1259766,-0.371582,-0.06787109
2591,-29.5625,38.375,-275.5,-1.603027,0.5488281,-0.1245117,0.1508789,-0.3569336,-0.07177734
2595,-8.5,39.1875,-290.5625,-1.70752,0.793457,-0.05908203,0.1699219,-0.3505859,-0.07177734
2599,1.25,28.6875,-290.5,-1.82373,0.9682617,0.07519531,0.1928711,-0.3320313,-0.07080078
2603,8.625,24.5,-257.0625,-1.866211,1.077148,0.1289063,0.2128906,-0.3129883,-0.06933594
2607,2.875,28.4375,-206,-1.691895,1.197754,0.08642578,0.2246094,-0.3007813,-0.06640625
2611,-22.5,36.5625,-167.5,-1.416992,1.225098,0.02490234,0.237793,-0.2866211,-0.06542969
2615,-52.5,43.875,-157.25,-1.230957,1.13916,0.09814453,0.2475586,-0.2744141,-0.06396484
2619,-68.0625,44.75,-163.25,-1.246094,1.04248,0.3173828,0.2543945,-0.2641602,-0.06396484
2624,-52.8125,36.5,-166.1875,-1.339355,0.9682617,0.5981445,0.2651367,-0.2519531,-0.06542969
2628,-12.1875,28.75,-151.0625,-1.501953,1.030762,0.8330078,0.2724609,-0.2358398,-0.06396484
2632,33.0625,12.1875,-123.25,-1.625977,1.244141,0.8369141,0.2773438,-0.2270508,-0.06542969
2636,57.8125,-11.6875,-89,-1.649414,1.46582,0.6557617,0.2832031,-0.2192383,-0.05957031
2640,57.625,-28.6875,-54.0625,-1.48291,1.632813,0.3637695,0.2880859,-0.2128906,-0.06103516
2644,42.625,-31.9375,-19.5625,-1.331543,1.644531,0.1713867,0.2890625,-0.2104492,-0.05957031
2648,37.875,-18.25,19.9375,-1.261719,1.52002,0.1787109,0.2880859,-0.2094727,-0.05957031
2652,41.5625,-3.375,62.9375,-1.370117,1.450195,0.144043,0.2866211,-0.2143555,-0.06103516
2656,39.3125,3.0625,100.9375,-1.416992,1.43457,0.1020508,0.2856445,-0.2192383,-0.05712891
2660,30.9375,-0.4375,130.0625,-1.471191,1.353027,0.05957031,0.2817383,-0.2294922,-0.05566406
2664,29.4375,-3.625,155.125,-1.509766,1.213379,0.1098633,0.2724609,-0.2392578,-0.05566406
2668,39.0625,-3.6875,178.8125,-1.521484,1.112305,0.125,0.2666016,-0.2495117,-0.05566406
2672,47.9375,1.9375,201.625,-1.603027,1.13916,0.08251953,0.2568359,-0.2670898,-0.05175781
2676,43.625,3.25,222.75,-1.727051,1.259766,-0.03222656,0.2436523,-0.2817383,-0.04882813
2680,24,3.8125,252.6875,-1.87793,1.349121,-0.1474609,0.234375,-0.2944336,-0.04638672
2684,-16.4375,3.625,288.5625,-1.967285,1.422852,-0.2861328,0.2163086,-0.3129883,-0.04492188
2688,-63.8125,0.6875,313.4375,-1.939941,1.225098,-0.324707,0.1928711,-0.3320313,-0.04736328
2692,-85.625,1,327.0625,-1.839355,0.8984375,-0.2592773,0.1738281,-0.3442383,-0.05029297
2696,-85.1875,5.5,326.6875,-1.661133,0.6811523,-0.1708984,0.1450195,-0.3603516,-0.06103516
2700,-77.4375,13,317.0625,-1.541016,0.6303711,-0.1323242,0.1176758,-0.371582,-0.06640625
2704,-79.6875,9.125,297.8125,-1.575684,0.7431641,-0.1860352,0.09765625,-0.3803711,-0.07080078
2708,-100.625,-4,287,-1.560059,0.8364258,-0.2475586,0.06640625,-0.3867188,-0.08007813
2712,-126.6875,-16.5625,284.625,-1.537109,0.8012695,-0.2744141,0.0390625,-0.3881836,-0.09082031
2716,-135.3125,-29.375,301.4375,-1.505859,0.6069336,-0.1821289,0.02001953,-0.3881836,-0.1005859
2720,-106.375,-21.25,322.3125,-1.215332,0.2651367,0.04052734,-0.01025391,-0.3867188,-0.1113281
2724,-64.625,-4.1875,324.625,-1.141602,0.2963867,0.01708984,-0.04394531,-0.3779297,-0.1210938
2728,-50.75,-0.375,321.1875,-1.033203,0.5292969,-0.07861328,-0.06396484,-0.3730469,-0.125
2732,-63.0625,-16.125,301.6875,-1.052734,0.5761719,-0.1206055,-0.09472656,-0.3618164,-0.1303711
2736,-55.375,-29.375,287.75,-0.9208984,0.4165039,0.005859375,-0.1220703,-0.3481445,-0.1347656
2740,-28.75,-19,301.1875,-0.8354492,0.4516602,-0.005371094,-0.1391602,-0.3393555,-0.137207
2744,-24.5,-1.875,321,-0.847168,0.6655273,-0.1513672,-0.1674805,-0.3232422,-0.137207
2748,-43.8125,-2.0625,328.6875,-0.7543945,0.6616211,-0.1977539,-0.1914063,-0.2993164,-0.1386719
2753,-59.375,-13.6875,314.9375,-0.7075195,0.5019531,-0.112793,-0.2055664,-0.2856445,-0.1425781
2757,-55.375,-26.1875,301.875,-0.5253906,0.3427734,-0.01318359,-0.2280273,-0.2617188,-0.144043
2761,-47.25,-19.875,307.375,-0.4208984,0.2885742,0.02099609,-0.2470703,-0.234375,-0.1455078
2765,-50.75,-7.5625,333.75,-0.4829102,0.3041992,-0.06298828,-0.2602539,-0.2167969,-0.1455078
2769,-73.9375,-0.875,358.9375,-0.2929688,0.105957,-0.06298828,-0.2734375,-0.1845703,-0.1469727
2773,-120.0625,-10.1875,340.75,0.01269531,-0.2744141,-0.05908203,-0.2875977,-0.1479492,-0.1494141
2777,-159.0625,-30.0625,266.875,0.4892578,-0.8066406,0.105957,-0.2949219,-0.1254883,-0.1508789
2781,-168.875,-44.0625,205,0.5668945,-1.342773,0.2329102,-0.3007813,-0.09570313,-0.1484375
2785,-127.875,-31.75,190.625,0.6870117,-2.205566,0.4174805,-0.3056641,-0.07080078,-0.1469727
2789,-68.9375,-10.125,176.5625,1.031738,-2.741699,0.425293,-0.3066406,-0.0546875,-0.1455078
2793,-14.4375,14.375,113.6875,1.48877,-3.013672,0.3945313,-0.3081055,-0.03466797,-0.1455078
2797,14.125,16.8125,-27.3125,1.589844,-2.547363,0.3710938,-0.3066406,-0.02929688,-0.1484375
2801,41.1875,0.625,-160.5625,1.202148,-2.007324,0.375,-0.3056641,-0.03564453,-0.1484375
2805,86,-2.3125,-220.6875,0.7451172,-1.677246,0.3945313,-0.3056641,-0.05566406,-0.1484375
2809,127.375,-6.125,-233.125,0.3925781,-1.094238,0.2094727,-0.3066406,-0.08056641,-0.1484375
2813,119,-22.625,-249.6875,0.3378906,-0.4570313,-0.09375,-0.3017578,-0.1005859,-0.1455078
2817,79.0625,-30,-275.6875,0.4038086,-0.2431641,-0.2055664,-0.2998047,-0.1308594,-0.1401367
2821,55.1875,-17.75,-299.9375,0.4541016,-0.4067383,-0.1054688,-0.2915039,-0.1591797,-0.1357422
2825,85.5625,21.125,-306.125,0.3847656,-0.6513672,0.06347656,-0.2827148,-0.1806641,-0.137207
2829,138.3125,60.9375,-298.875,0.0009765625,-0.5151367,0.01708984,-0.2685547,-0.2104492,-0.1333008
2833,165.875,61.5,-292.125,-0.4091797,-0.2163086,-0.1206055,-0.2485352,-0.2416992,-0.1318359
2837,174.375,50.4375,-297.9375,-0.5371094,0.02832031,-0.1899414,-0.2387695,-0.2617188,-0.1264648
2841,171.875,31.375,-313.3125,-0.7348633,0.2456055,-0.2475586,-0.2138672,-0.2895508,-0.1196289
2845,168.25,11.5,-327.875,-0.8974609,0.4516602,-0.2246094,-0.1914063,-0.3154297,-0.1098633
2849,176.75,1.8125,-336.5625,-1.005859,0.6108398,-0.2592773,-0.1723633,-0.3320313,-0.1020508
2853,146.125,-14.75,-341.75,-1.37793,1.399902,-0.6015625,-0.1425781,-0.3544922,-0.08691406
2857,47.5,-41.375,-328.1875,-1.413086,1.714355,-0.6899414,-0.112793,-0.3706055,-0.07470703
2861,-24.3125,-37.875,-304.8125,-1.168945,1.287109,-0.4477539,-0.09228516,-0.3769531,-0.07324219
2865,-26.375,-17.4375,-287.8125,-1.095215,0.6694336,-0.1474609,-0.06298828,-0.3857422,-0.07763672
2869,7.125,4.75,-281.4375,-1.137695,0.4125977,-0.06689453,-0.03515625,-0.3916016,-0.07617188
2873,80.625,8.125,-303.0625,-1.304199,0.1875,0.04052734,-0.01416016,-0.3930664,-0.07470703
2877,132.0625,-5.375,-328.8125,-1.633789,0.8051758,-0.2631836,0.01513672,-0.3930664,-0.06396484
2882,86.9375,-27.5625,-317.8125,-1.819824,1.461914,-0.5708008,0.04736328,-0.3916016,-0.05273438
2886,2.125,-36.125,-282.8125,-1.661133,1.407715,-0.5170898,0.06787109,-0.3881836,-0.05029297
2890,-44.125,-21,-247.4375,-1.362793,0.8598633,-0.3476563,0.09375,-0.3818359,-0.05175781
2894,-37.0625,6.0625,-240.8125,-1.180664,0.3623047,-0.1938477,0.1186523,-0.3730469,-0.05712891
2898,-10.375,27.9375,-258.25,-1.211426,0.1992188,-0.2016602,0.1342773,-0.3691406,-0.05712891
2902,2.4375,31.5,-297.6875,-1.405273,0.315918,-0.1977539,0.1606445,-0.3569336,-0.05712891
2906,3.625,22.25,-335.75,-1.649414,0.5488281,-0.1401367,0.184082,-0.3378906,-0.05273438
2910,-0.8125,9.125,-353.5625,-1.932129,0.7041016,-0.02050781,0.2045898,-0.3242188,-0.05419922
2914,3.8125,-2.25,-332.875,-2.125977,0.8671875,0.1098633,0.230957,-0.2993164,-0.05273438
2918,22.3125,-8.125,-287.625,-2.060059,1.073242,0.144043,0.2519531,-0.2768555,-0.05273438
2922,35.1875,-7.8125,-241.0625,-1.854492,1.32959,0.07128906,0.2602539,-0.2607422,-0.05175781
2926,41.3125,-8.75,-202.375,-1.657227,1.527832,0.005859375,0.2734375,-0.2431641,-0.05029297
2930,37.25,-3.875,-165.3125,-1.505859,1.675781,-0.02050781,0.2832031,-0.2255859,-0.05029297
2934,26.9375,6.0625,-116.625,-1.463379,1.690918,0.07128906,0.2866211,-0.2158203,-0.05175781
2938,16.875,15.3125,-63.4375,-1.416992,1.640625,0.1904297,0.2924805,-0.2080078,-0.04736328
2942,7.875,20.875,-18.5,-1.370117,1.590332,0.2866211,0.2924805,-0.2016602,-0.04638672
2946,2.5,15.6875,10.625,-1.370117,1.481445,0.3828125,0.2924805,-0.2016602,-0.04345703
2950,10.875,4.1875,31.0625,-1.358887,1.345215,0.4790039,0.2924805,-0.203125,-0.04199219
2954,35,-7.625,51.875,-1.381836,1.291016,0.4711914,0.2900391,-0.2070313,-0.04345703
2958,55.125,-14.4375,84.6875,-1.436035,1.364746,0.3251953,0.2890625,-0.2094727,-0.03808594
2962,59.5,-11.75,122.1875,-1.37793,1.407715,0.1557617,0.2856445,-0.2182617,-0.03955078
2966,51.3125,-7.625,149.8125,-1.358887,1.403809,0.02490234,0.2773438,-0.2319336,-0.03808594
2970,34.1875,-4.625,164.5,-1.397461,1.415039,-0.05908203,0.2749023,-0.2416992,-0.03515625
2974,12.0625,-8.375,172.8125,-1.560059,1.395996,-0.1166992,0.2651367,-0.2568359,-0.03369141
2978,1.3125,-13.5,189.0625,-1.703613,1.236328,-0.08203125,0.253418,-0.2705078,-0.03515625
2982,13.875,-8.25,225.875,-1.808105,1.038574,-0.01318359,0.2451172,-0.2807617,-0.03369141
2986,30.3125,5.75,269.75,-1.901367,1.04248,-0.09765625,0.230957,-0.2993164,-0.03515625
2990,18.75,6.4375,300.3125,-1.928223,1.174316,-0.3012695,0.2119141,-0.3217773,-0.03125
2994,-11.625,3.8125,313.5,-1.850586,1.09668,-0.3901367,0.1948242,-0.3330078,-0.03271484
2998,-40.625,0.5,315.5625,-1.773438,0.956543,-0.4555664,0.1689453,-0.3520508,-0.03271484
3002,-68.375,2.9375,308.375,-1.62207,0.9140625,-0.4824219,0.1401367,-0.3666992,-0.03808594
3006,-89.875,9.4375,303.6875,-1.65332,0.824707,-0.4248047,0.1201172,-0.3745117,-0.04199219
3011,-107.875,11.8125,304.125,-1.680176,0.8325195,-0.4130859,0.09277344,-0.3833008,-0.05175781
3015,-122.8125,9.9375,309.1875,-1.641602,0.6845703,-0.34375,0.06298828,-0.3891602,-0.0625
3019,-116.875,13.875,312.625,-1.501953,0.5566406,-0.2055664,0.04150391,-0.3930664,-0.07080078
3023,-110.6875,21.125,322.8125,-1.401367,0.5371094,-0.1669922,0.009277344,-0.390625,-0.08007813
3027,-116.8125,19.125,322.5625,-1.285156,0.5214844,-0.1669922,-0.02246094,-0.3891602,-0.09375
3031,-120.5,10.8125,316.6875,-1.165039,0.3935547,-0.09375,-0.04248047,-0.3842773,-0.1020508
3035,-108.1875,-0.125,302.125,-1.099121,0.3271484,-0.005371094,-0.07324219,-0.3754883,-0.1142578
3039,-97.6875,-15,287.75,-1.025391,0.4282227,-0.03613281,-0.1010742,-0.3603516,-0.1210938
3043,-82.4375,-15.75,278.4375,-0.8745117,0.4086914,0.06738281,-0.1201172,-0.3530273,-0.1279297
3047,-56.9375,-6.9375,283.8125,-0.878418,0.5488281,0.05566406,-0.1435547,-0.3378906,-0.1347656
3051,-54.25,0.6875,308.625,-0.7695313,0.6108398,-0.01318359,-0.1699219,-0.3217773,-0.1357422
3055,-51.3125,15.5625,307.625,-0.6923828,0.7666016,0.01708984,-0.1855469,-0.3066406,-0.1401367
3059,-62.25,7.625,314.4375,-0.9711914,0.875,-0.05517578,-0.206543,-0.2817383,-0.1455078
3063,-75,-11.625,333.3125,-0.796875,0.7353516,-0.04394531,-0.2270508,-0.2568359,-0.1494141
3067,-80.375,-10.9375,359.75,-0.5644531,0.4052734,-0.02441406,-0.2412109,-0.2382813,-0.1494141
3071,-74.25,-3,372.875,-0.3354492,0.04003906,0.06347656,-0.2626953,-0.2070313,-0.1523438
3075,-56.5,9.0625,370.8125,-0.1303711,-0.2084961,0.1787109,-0.2768555,-0.1704102,-0.15625
3079,-50.75,12.8125,361.9375,-0.05273438,-0.3754883,0.2211914,-0.2851563,-0.1455078,-0.15625
3083,-69,-8.5,318.75,0.03173828,-0.6708984,0.2636719,-0.2924805,-0.1108398,-0.1591797
3087,-100.4375,-33.125,274,0.1132813,-2.418945,0.2290039,-0.2983398,-0.078125,-0.1547852
3091,-103.8125,-39.8125,248.625,0.4658203,-1.917969,0.3789063,-0.3017578,-0.05810547,-0.1547852
3095,-94.0625,-48,214.8125,0.7138672,-2.769043,0.3364258,-0.3032227,-0.02929688,-0.1508789
3099,-68.0625,-45.4375,143.625,1.357422,-3.437012,0.3173828,-0.3041992,-0.009277344,-0.1425781
3103,-13.5,-28.9375,-12.625,1.895996,-3.165039,0.4404297,-0.3032227,-0.0004882813,-0.1416016
3107,42.375,-26,-175.3125,1.426758,-2.364746,0.3095703,-0.3081055,-0.006835938,-0.1401367
3111,91.4375,-28.3125,-248.75,0.6015625,-1.74707,0.2021484,-0.309082,-0.03076172,-0.1347656
3115,117.1875,-34.4375,-248.4375,0.1518555,-0.9814453,-0.01318359,-0.3105469,-0.046875,-0.1357422
3119,90.25,-46.5625,-254.1875,0.2451172,-0.371582,-0.2128906,-0.3105469,-0.07568359,-0.1318359
3123,35.4375,-48.9375,-286,0.3959961,-0.2124023,-0.2363281,-0.3105469,-0.1044922,-0.1279297
3127,-2.9375,-33.5625,-318.125,0.3769531,-0.3134766,-0.1245117,-0.3056641,-0.1254883,-0.125
3131,-4.0625,-8.8125,-337.3125,0.2993164,-0.4882813,0.02490234,-0.2958984,-0.1567383,-0.1210938
3135,41.6875,36.125,-332.5,0.1171875,-0.5927734,0.1787109,-0.2841797,-0.1879883,-0.1210938
3140,96.0625,78.625,-302.1875,-0.3745117,-0.3017578,0.09423828,-0.2724609,-0.2080078,-0.125
3144,110.25,83.8125,-272.5625,-0.5527344,0.3271484,-0.08984375,-0.2519531,-0.2368164,-0.1264648
3148,81.5,62.125,-284,-0.7348633,0.4399414,-0.2089844,-0.234375,-0.265625,-0.1264648
3152,69.625,16.4375,-340.1875,-0.7504883,0.2612305,0.07519531,-0.2211914,-0.2807617,-0.1279297
3156,119.25,-9.75,-385.6875,-0.8393555,0.121582,0.2983398,-0.1948242,-0.3081055,-0.1225586
3160,179.125,-1.1875,-376.25,-1.172852,0.4750977,0.07910156,-0.1640625,-0.3354492,-0.1074219
3164,144.375,-6.125,-349.8125,-1.533203,1.718262,-0.4975586,-0.1401367,-0.3530273,-0.09765625
3168,14.5,-24.4375,-302.375,-1.358887,1.943848,-0.6591797,-0.109375,-0.3681641,-0.08837891
3172,-85,-23.5,-287.125,-0.9946289,1.298828,-0.378418,-0.08203125,-0.3745117,-0.09228516
3176,-103,-23.6875,-321,-0.8198242,0.4013672,0.001953125,-0.06494141,-0.3803711,-0.09667969
3180,-42.6875,-1.9375,-358.3125,-0.7617188,-0.1152344,0.2636719,-0.03173828,-0.3842773,-0.105957
3184,32.8125,38.375,-373.1875,-1.195801,0.07861328,0.2441406,0.004394531,-0.3867188,-0.1074219
3188,49,38.5625,-344.6875,-1.947754,0.7587891,-0.03222656,0.02978516,-0.3867188,-0.1044922
3192,13.0625,23.5,-301.8125,-1.839355,1.057617,-0.1166992,0.06396484,-0.3833008,-0.09765625
3196,-1,28.0625,-293.75,-1.552246,0.6772461,-0.03222656,0.09130859,-0.3769531,-0.09667969
3200,22.4375,44.0625,-303.875,-1.552246,0.5292969,0.01708984,0.1103516,-0.3681641,-0.09667969
3204,40.875,48.75,-312.1875,-1.695801,0.6264648,-0.02050781,0.1401367,-0.3579102,-0.09082031
3208,51.875,46.6875,-317.4375,-1.804199,0.7197266,0.001953125,0.1699219,-0.3442383,-0.08691406
3212,58.9375,38.0625,-300.75,-1.994141,0.8828125,-0.01318359,0.1879883,-0.3330078,-0.08300781
3216,55.25,31.6875,-265.75,-1.932129,0.987793,-0.05908203,0.2104492,-0.3129883,-0.07177734
3220,48,27.8125,-235.875,-1.734375,1.015137,-0.1552734,0.230957,-0.2983398,-0.06787109
3224,29.9375,30.5,-219.3125,-1.537109,1.108398,-0.2436523,0.2402344,-0.2856445,-0.06542969
3228,2.125,28.9375,-215.1875,-1.467285,1.150879,-0.2167969,0.253418,-0.2680664,-0.0625
3232,-15.5625,26.125,-206.375,-1.475098,1.045898,-0.04003906,0.2651367,-0.2519531,-0.05957031
3236,-4.9375,30.25,-183.375,-1.521484,0.9492188,0.1748047,0.2749023,-0.2407227,-0.05859375
3240,17,26.5,-149.875,-1.603027,1.030762,0.2636719,0.2817383,-0.2255859,-0.05712891
3244,32.25,16.8125,-116.8125,-1.525391,1.178223,0.2519531,0.2866211,-0.2128906,-0.05273438
3248,39.5,13.75,-88.1875,-1.405273,1.333496,0.2060547,0.2900391,-0.2070313,-0.04882813
3252,33.625,12.1875,-63.625,-1.331543,1.516113,0.1479492,0.2949219,-0.1992188,-0.04736328
3256,18.8125,11.5,-32.75,-1.335449,1.55127,0.1748047,0.2973633,-0.1943359,-0.04638672
3260,5,14.625,11.625,-1.405273,1.527832,0.2402344,0.2963867,-0.1918945,-0.04638672
3264,-6.3125,9.3125,55.125,-1.443848,1.39209,0.3056641,0.2963867,-0.1958008,-0.04492188
3269,-7.875,1.6875,84.5,-1.347168,1.189941,0.375,0.2924805,-0.203125,-0.04345703
3273,3.75,-5.375,99.5,-1.312012,1.034668,0.3979492,0.2890625,-0.2055664,-0.04345703
3277,20,-15,106.6875,-1.308105,0.9838867,0.3251953,0.2856445,-0.2158203,-0.04345703
3281,30.875,-20.625,116.8125,-1.374023,1.015137,0.2133789,0.2792969,-0.2246094,-0.04492188
3285,37.125,-23,138.3125,-1.455566,1.053711,0.1210938,0.2783203,-0.234375,-0.04345703
3289,37.0625,-22.125,168.25,-1.541016,1.09668,0.02880859,0.2700195,-0.2456055,-0.04492188
3293,31.4375,-17.1875,193.875,-1.541016,1.124023,-0.05126953,0.2617188,-0.2617188,-0.04199219
3297,22.375,-16.75,208.6875,-1.65332,1.143066,-0.1015625,0.253418,-0.2729492,-0.04052734
3301,9.3125,-16.3125,225.5625,-1.70752,1.135742,-0.1630859,0.2402344,-0.2919922,-0.04345703
3305,-5.6875,-12.3125,240.4375,-1.777344,1.104492,-0.2475586,0.2236328,-0.3081055,-0.04492188
3309,-18.9375,-9.0625,258.75,-1.866211,1.045898,-0.3129883,0.2094727,-0.3193359,-0.04492188
3313,-32.375,-0.4375,279.875,-1.897461,1.053711,-0.3632813,0.1914063,-0.3354492,-0.04736328
3317,-56.5625,0.375,294.5625,-1.912598,1.100586,-0.4863281,0.1674805,-0.3520508,-0.05029297
3321,-92.125,1.125,299.75,-1.928223,1.12793,-0.5092773,0.1484375,-0.3632813,-0.05419922
3325,-119.125,-9.75,305.1875,-2.09082,0.953125,-0.4130859,0.1210938,-0.3706055,-0.06396484
3329,-127.25,-18.4375,327.4375,-2.005859,0.8051758,-0.3325195,0.09033203,-0.3803711,-0.07617188
3333,-128.5,-21.25,349.3125,-1.901367,0.6186523,-0.2363281,0.06884766,-0.3842773,-0.08544922
3337,-122.875,-25.875,361.4375,-1.57959,0.3857422,-0.09765625,0.03173828,-0.3867188,-0.09912109
3341,-111.8125,-31.25,349.9375,-1.428223,0.2456055,0.02099609,-0.0009765625,-0.3867188,-0.1098633
3345,-82.8125,-39.4375,327.3125,-1.203613,0.09814453,0.1865234,-0.02587891,-0.3842773,-0.1181641
3349,-55,-44.1875,310.6875,-1.351074,0.3896484,0.1210938,-0.05810547,-0.3745117,-0.1235352
3353,-39.0625,-38.5625,335.1875,-1.215332,0.4633789,0.1020508,-0.08789063,-0.3642578,-0.1264648
3357,-29.5,-19.9375,356.625,-1.129883,0.5761719,0.01367188,-0.1113281,-0.3554688,-0.1289063
3361,-30.4375,-12.5625,362.9375,-1.017578,0.5292969,0.02880859,-0.1450195,-0.3378906,-0.1303711
3365,-20.8125,-15.625,341.0625,-0.8666992,0.4633789,0.05566406,-0.1748047,-0.3193359,-0.1318359
3369,-9.3125,-3.4375,335.375,-0.8085938,0.5566406,0.009765625,-0.1923828,-0.3017578,-0.1318359
3373,-23.3125,0.875,347.1875,-0.8706055,0.6616211,-0.1474609,-0.21875,-0.2817383,-0.1303711
3377,-52.8125,7.3125,365.625,-0.6884766,0.4711914,-0.1782227,-0.2402344,-0.2543945,-0.1347656
3381,-80.625,2.875,363.125,-0.5332031,0.1333008,-0.1591797,-0.2543945,-0.2304688,-0.137207
3385,-97.5625,-9.8125,344.0625,-0.262207,-0.4296875,-0.04003906,-0.2724609,-0.1967773,-0.1386719
3389,-95.375,-11.3125,316.375,0.01269531,-0.7871094,0.125,-0.2866211,-0.1645508,-0.1416016
3393,-99.5,-15.6875,292.375,0.175293,-1.133301,0.159668,-0.2915039,-0.1420898,-0.1425781
3398,-111.0625,-23.3125,273.8125,0.3227539,-1.645996,0.1479492,-0.3007813,-0.109375,-0.144043
3402,-119.375,-39.3125,254.625,0.7216797,-2.418945,0.1098633,-0.3056641,-0.07958984,-0.1425781
3406,-105.5625,-27.1875,211.5,1.469727,-3.234863,0.159668,-0.3081055,-0.06201172,-0.1386719
3410,-50.375,-29.125,38.8125,2.097168,-3.409668,0.3598633,-0.3105469,-0.04199219,-0.137207
3414,48.5625,-18.0625,-150.125,1.907715,-2.877441,0.4907227,-0.3105469,-0.04443359,-0.1333008
3418,148.5,11.4375,-223.4375,0.8730469,-2.116211,0.3017578,-0.3125,-0.05810547,-0.1347656
3422,210.5625,14,-216.4375,0.3535156,-1.284668,0.05175781,-0.309082,-0.08691406,-0.1347656
3426,201.4375,-3.6875,-213.9375,0.3032227,-0.4648438,-0.2324219,-0.3056641,-0.1142578,-0.1333008
3430,145.75,-25.375,-246.4375,0.4194336,-0.09960938,-0.3286133,-0.3007813,-0.1342773,-0.1279297
3434,100,-29.375,-277.5625,0.3959961,-0.1655273,-0.2055664,-0.293457,-0.1630859,-0.1235352
3438,95.6875,-20.5625,-296.125,0.2646484,-0.3833008,-0.001464844,-0.2841797,-0.1918945,-0.1166992
3442,122.9375,-5.5,-309.0625,0.1015625,-0.3754883,0.05175781,-0.2758789,-0.2119141,-0.112793
3446,139.5,5.3125,-307,-0.2583008,-0.03759766,-0.09375,-0.2592773,-0.2456055,-0.1074219
3450,113.5,-0.4375,-294.1875,-0.5644531,0.5527344,-0.3398438,-0.2402344,-0.2744141,-0.1005859
3454,52.1875,3.1875,-265.875,-0.4907227,0.890625,-0.4477539,-0.2255859,-0.2866211,-0.09667969
3458,0.3125,10.4375,-259.125,-0.5141602,0.6225586,-0.1860352,-0.2080078,-0.3081055,-0.09375
3462,-7.8125,-12.125,-292.4375,-0.6650391,0.2416992,0.08642578,-0.184082,-0.3256836,-0.09375
3466,70.375,-16.875,-337.9375,-0.699707,-0.07617188,0.3979492,-0.1674805,-0.3369141,-0.09228516
3470,144.625,-13.25,-360,-1.172852,0.4790039,0.06738281,-0.1367188,-0.3569336,-0.08447266
3474,113.0625,-40.3125,-329,-1.633789,1.523926,-0.4628906,-0.1054688,-0.3730469,-0.07080078
3478,3.1875,-64.125,-281.375,-1.416992,1.706543,-0.5014648,-0.08544922,-0.3818359,-0.06542969
3482,-44.125,-43.1875,-244.75,-0.9208984,1.049805,-0.2167969,-0.05810547,-0.3867188,-0.06542969
3486,-20.5625,-5.375,-237.4375,-0.8935547,0.5019531,-0.01660156,-0.03515625,-0.3916016,-0.06933594
3490,33.8125,2,-275.75,-1.021484,0.4946289,-0.01318359,-0.02246094,-0.3945313,-0.06933594
3494,48.75,-4.1875,-302.75,-1.20752,0.7739258,-0.1938477,0.008300781,-0.3955078,-0.0625
3498,38.3125,-7.1875,-312.9375,-1.23877,0.8286133,-0.1938477,0.04150391,-0.3930664,-0.06103516
3502,15.5,-3.125,-300.6875,-1.339355,0.8286133,-0.1899414,0.06054688,-0.3916016,-0.05712891
3506,-10.4375,-3.0625,-275,-1.351074,0.6962891,-0.1435547,0.09033203,-0.3833008,-0.05566406
3510,-18.5,6.4375,-261.875,-1.234863,0.4555664,-0.0859375,0.1166992,-0.3754883,-0.05859375
3514,-10.0625,20.25,-271.3125,-1.265625,0.3310547,-0.06298828,0.1333008,-0.3681641,-0.05419922
3518,2.3125,18.9375,-303.1875,-1.40918,0.3544922,-0.05517578,0.1582031,-0.3554688,-0.05712891
3522,12.5,16.5,-340.6875,-1.537109,0.4868164,-0.01660156,0.184082,-0.3378906,-0.05566406
3527,25.75,15.3125,-339.9375,-1.970703,0.5566406,0.09423828,0.203125,-0.3208008,-0.05419922
3531,47.625,7,-286.9375,-2.242188,0.7392578,0.1635742,0.2285156,-0.3007813,-0.05029297
3535,46.75,-5.5625,-235.1875,-2.106445,1.09668,0.01708984,0.2475586,-0.2817383,-0.04736328
3539,25.8125,-21.4375,-209.25,-1.874023,1.251953,-0.1743164,0.2558594,-0.2680664,-0.04736328
3543,9.0625,-27.8125,-197.8125,-1.591309,1.321777,-0.2207031,0.2666016,-0.2529297,-0.04638672
3547,-2.5625,-8.8125,-169.0625,-1.459473,1.341309,-0.1708984,0.2758789,-0.2368164,-0.05175781
3551,-9.75,12.0625,-121.5,-1.490234,1.325684,-0.07470703,0.2817383,-0.2280273,-0.05029297
3555,-20.375,23.875,-72.1875,-1.459473,1.291016,0.05175781,0.2866211,-0.2167969,-0.05029297
3559,-23.3125,26.0625,-35.875,-1.362793,1.182129,0.1748047,0.2890625,-0.2104492,-0.04638672
3563,-22.8125,22.0625,-18.25,-1.269531,1.146973,0.2441406,0.2890625,-0.2094727,-0.04638672
3567,-15.5625,11.125,-17.5,-1.234863,1.112305,0.2983398,0.2924805,-0.2094727,-0.04492188
3571,5.9375,3.9375,-10.3125,-1.253906,1.069336,0.3710938,0.2900391,-0.2070313,-0.04492188
3575,28.0625,3.6875,19.3125,-1.405273,1.143066,0.3173828,0.2900391,-0.2055664,-0.04492188
3579,30.75,-1.4375,57.25,-1.436035,1.291016,0.159668,0.2890625,-0.2104492,-0.04345703
3583,17,-6.25,86,-1.37793,1.283203,0.02880859,0.2866211,-0.2167969,-0.04199219
3587,9.4375,-5.8125,107.5,-1.339355,1.193848,0.01367188,0.2841797,-0.2216797,-0.04199219
3591,19.6875,0.125,130.0625,-1.397461,1.081055,0.04443359,0.2792969,-0.2319336,-0.04345703
3595,36.75,10.125,154.875,-1.471191,1.100586,0.01708984,0.2709961,-0.2441406,-0.04052734
3599,47.9375,14.9375,185.5625,-1.606445,1.150879,-0.04003906,0.2666016,-0.2543945,-0.03662109
3603,40.875,20.25,220,-1.672363,1.255859,-0.1401367,0.2558594,-0.2695313,-0.03369141
3607,18.5625,17.5625,244.5,-1.738281,1.275391,-0.2055664,0.2392578,-0.2866211,-0.02832031
3611,-10.5,5.125,250.0625,-1.808105,1.232422,-0.2089844,0.2294922,-0.3017578,-0.02832031
3615,-33.75,-13.5,248.9375,-1.889648,1.108398,-0.1513672,0.2128906,-0.3193359,-0.03125
3619,-44.6875,-36.0625,250.4375,-1.959473,0.9453125,-0.09375,0.1914063,-0.3344727,-0.03515625
3623,-42.3125,-44.6875,262.6875,-1.827637,0.8286133,-0.09765625,0.1782227,-0.3457031,-0.03808594
3627,-29.8125,-27.5,287.75,-1.734375,0.8051758,-0.1323242,0.1547852,-0.3579102,-0.04638672
3631,-40.25,-9.0625,311.125,-1.695801,0.9453125,-0.2744141,0.128418,-0.3730469,-0.04736328
3635,-73.9375,-14,312.0625,-1.699707,0.9604492,-0.3554688,0.1069336,-0.3793945,-0.05273438
3639,-109.8125,-22.0625,302.0625,-1.541016,0.9023438,-0.3208008,0.07617188,-0.3881836,-0.06103516
3643,-139.6875,-27.625,293.3125,-1.459473,0.7548828,-0.2939453,0.04638672,-0.390625,-0.07470703
3647,-154.6875,-30.9375,284.0625,-1.385742,0.6069336,-0.2055664,0.02832031,-0.3891602,-0.08300781
3651,-142.125,-38.375,282.75,-1.393555,0.3935547,-0.05126953,-0.0009765625,-0.3881836,-0.1020508
3656,-106.25,-35.875,293.375,-1.223145,0.2768555,0.07128906,-0.03173828,-0.3833008,-0.112793
3660,-81.9375,-27.125,301.9375,-1.137695,0.3857422,0.01367188,-0.05224609,-0.3754883,-0.1196289
3664,-76.5625,-25.3125,301.9375,-1.033203,0.4672852,-0.001464844,-0.07958984,-0.3681641,-0.125
3668,-74.375,-23.625,303.75,-1.009766,0.4555664,-0.03613281,-0.1103516,-0.3544922,-0.1289063
3672,-70.875,-17.375,310.75,-0.8666992,0.3974609,-0.03222656,-0.128418,-0.3457031,-0.1347656
3676,-68.75,-8.5,318.75,-0.8164063,0.3466797,-0.01318359,-0.1567383,-0.328125,-0.1401367
3680,-69.8125,-10,328.5625,-0.7543945,0.3041992,-0.05517578,-0.1816406,-0.3081055,-0.1455078
3684,-70,-9.5,324.75,-0.6264648,0.1523438,-0.001464844,-0.199707,-0.2919922,-0.1469727
3688,-58.6875,-10.9375,305.75,-0.5683594,0.06298828,0.1132813,-0.222168,-0.2670898,-0.1508789
3692,-41.1875,-5.1875,319.375,-0.5834961,0.01660156,0.105957,-0.2412109,-0.2407227,-0.1508789
3696,-47.5,-9.125,340.625,-0.4633789,-0.02197266,0.02490234,-0.2519531,-0.2216797,-0.1538086
3700,-67.375,-20.8125,342.4375,-0.1884766,-0.2900391,0.02099609,-0.2700195,-0.1904297,-0.1547852
3704,-86.6875,-38.6875,319.375,0.01269531,-0.5966797,0.07128906,-0.2841797,-0.1582031,-0.1547852
3708,-105.125,-63.125,285.125,0.3457031,-1.300293,0.009765625,-0.2915039,-0.1367188,-0.1538086
3712,-108.625,-70.6875,236.6875,0.7993164,-1.486816,0.105957,-0.3017578,-0.1044922,-0.1469727
3716,-95,-71.8125,204.125,1.035645,-2.135742,0.04785156,-0.3066406,-0.078125,-0.1401367
3720,-51.8125,-46.125,173.9375,1.500488,-2.65625,0.1132813,-0.309082,-0.06591797,-0.1386719
3724,5.875,-18.6875,79.625,1.845703,-2.523926,0.2094727,-0.3105469,-0.04833984,-0.1333008
3728,61.75,-0.125,-66.8125,1.915039,-1.995605,0.2329102,-0.3115234,-0.04833984,-0.1318359
3732,105.75,22.125,-164.25,1.310547,-1.436035,0.1943359,-0.3115234,-0.05566406,-0.1333008
3736,138.5625,28.5,-198.1875,0.7373047,-0.9155273,0.1289063,-0.309082,-0.07568359,-0.137207
3740,147.5625,23.75,-198,0.5356445,-0.453125,0.02880859,-0.3041992,-0.1030273,-0.1386719
3744,123.6875,15.75,-197.6875,0.527832,-0.08789063,-0.08984375,-0.3017578,-0.1166992,-0.137207
3748,92.4375,15.5,-206.0625,0.5859375,-0.02197266,-0.1054688,-0.2949219,-0.1430664,-0.1347656
3752,74.8125,29.25,-213.5625,0.5512695,-0.08398438,-0.05126953,-0.2900391,-0.1655273,-0.1357422
3756,70.875,36.4375,-227.625,0.4038086,-0.1538086,-0.009277344,-0.2841797,-0.1806641,-0.137207
3760,70,47.3125,-243.0625,0.2875977,-0.08789063,-0.02832031,-0.2724609,-0.2055664,-0.1357422
3764,67,49.625,-257.875,0.04736328,-0.1113281,0.02099609,-0.2578125,-0.2280273,-0.1357422
3768,84.875,46.3125,-269.4375,-0.1459961,-0.1538086,0.09814453,-0.2446289,-0.2441406,-0.137207
3772,116.3125,48.0625,-274,-0.3242188,-0.04150391,0.1098633,-0.2280273,-0.2680664,-0.137207
3776,119.1875,38.9375,-286.3125,-0.5102539,0.3662109,-0.04394531,-0.206543,-0.2919922,-0.1303711
3780,92.125,14.375,-297.625,-0.7348633,0.4165039,-0.1669922,-0.1899414,-0.3066406,-0.1279297
3785,59.5625,-3.125,-314,-0.7890625,0.5605469,-0.1015625,-0.1640625,-0.328125,-0.1210938
3789,62.375,0.75,-304.1875,-0.8393555,0.5175781,-0.02441406,-0.1401367,-0.3457031,-0.1181641
3793,105.125,22.125,-283.625,-0.8857422,0.3505859,0.08251953,-0.1210938,-0.3554688,-0.112793
3797,137.25,38.75,-271.375,-1.083496,0.6962891,-0.1821289,-0.09472656,-0.3706055,-0.1020508
3801,113,14.8125,-294.8125,-1.211426,1.022949,-0.3862305,-0.06738281,-0.3803711,-0.09082031
3805,47.5,-12.75,-319.875,-1.253906,1.283203,-0.4707031,-0.04833984,-0.3867188,-0.08447266
3809,-8.875,-31.125,-326.6875,-1.234863,0.8481445,-0.2436523,-0.01513672,-0.390625,-0.08300781
3813,10.5625,-14.5,-317.1875,-1.180664,0.3857422,0.02490234,0.01513672,-0.390625,-0.08154297
3817,79.4375,10.8125,-312.125,-1.331543,0.21875,0.08251953,0.03662109,-0.3891602,-0.08007813
3821,134.625,20,-318.1875,-1.610352,0.6655273,-0.1782227,0.06884766,-0.3867188,-0.07177734
3825,109.0625,0.8125,-312.625,-1.839355,1.244141,-0.4438477,0.1010742,-0.3803711,-0.05859375
3829,37.5625,-24.5,-283.375,-1.835449,1.403809,-0.4248047,0.1176758,-0.3745117,-0.05175781
3833,-31,-34.9375,-236.25,-1.599121,1.158691,-0.3129883,0.1425781,-0.3618164,-0.05273438
3837,-65.125,-34.6875,-204.75,-1.331543,0.6694336,-0.2055664,0.1630859,-0.3520508,-0.05419922
3841,-62.6875,-17.25,-199.1875,-1.060547,0.3041992,-0.1401367,0.1757813,-0.3457031,-0.06103516
3845,-43.375,11,-222.3125,-0.9326172,0.1640625,-0.1015625,0.1904297,-0.3305664,-0.06787109
3849,-25.75,35.5625,-253.0625,-1.161133,0.1835938,-0.01318359,0.2094727,-0.3168945,-0.06933594
3853,-12.3125,41,-260.125,-1.645508,0.237793,0.08251953,0.222168,-0.3032227,-0.06787109
3857,-1.75,32.5,-247.25,-1.889648,0.3857422,0.1289063,0.2402344,-0.2841797,-0.06640625
3861,6.5,27.375,-243.0625,-1.82373,0.5488281,0.09423828,0.2558594,-0.2670898,-0.06396484
3865,6.5,19.6875,-260.4375,-1.730469,0.8828125,0.001953125,0.2651367,-0.2504883,-0.05957031
3869,-7.125,4.3125,-278.375,-1.808105,1.236328,-0.005371094,0.2792969,-0.2280273,-0.05957031
3873,-0.3125,1.125,-266.3125,-1.769531,1.461914,0.2402344,0.2915039,-0.203125,-0.05957031
3877,45.125,2.5,-183.875,-2.195801,1.597656,0.3212891,0.2983398,-0.1879883,-0.05957031
3881,62.5625,7.125,-50.25,-2.063965,2.063965,0.2172852,0.3032227,-0.1757813,-0.05859375
3885,22.9375,9.6875,46.75,-1.637695,2.037109,-0.07470703,0.3046875,-0.1757813,-0.05859375
3889,-34.375,6.625,76.9375,-1.289063,1.660156,-0.04736328,0.3007813,-0.1791992,-0.05419922
3893,-59.875,6.3125,75.875,-1.187988,1.166504,0.2441406,0.2983398,-0.1870117,-0.05712891
3897,-42.25,-0.9375,76.3125,-1.285156,0.8286133,0.4980469,0.2963867,-0.1933594,-0.05859375
3901,0.3125,-10.3125,84.1875,-1.315918,0.7197266,0.6098633,0.2939453,-0.1967773,-0.05859375
3905,47.8125,-16.3125,100.1875,-1.37793,0.777832,0.5556641,0.2900391,-0.2055664,-0.06103516
3909,73.625,-25.8125,122.4375,-1.498047,1.007324,0.3291016,0.2866211,-0.2192383,-0.05957031
3914,69.3125,-30.5625,147.3125,-1.498047,1.221191,0.1210938,0.2807617,-0.2270508,-0.05712891
3918,47.625,-27.1875,176.375,-1.509766,1.255859,-0.04003906,0.2749023,-0.2382813,-0.05712891
3922,25.5,-13.25,204.875,-1.486328,1.166504,-0.04394531,0.2626953,-0.2543945,-0.05712891
3926,11.6875,-1.1875,221.875,-1.556152,1.045898,0.001953125,0.2583008,-0.2680664,-0.05712891
3930,12.6875,5.75,235.0625,-1.668457,0.9257813,0.05957031,0.2436523,-0.2841797,-0.05419922
3934,13.8125,5.375,251.4375,-1.765625,0.921875,0.03271484,0.2270508,-0.3032227,-0.05175781
3938,5.4375,-1,261.375,-1.827637,0.921875,-0.02441406,0.2138672,-0.3154297,-0.05029297
3942,-6.1875,-10.5,272.25,-1.777344,0.90625,-0.08203125,0.1928711,-0.3320313,-0.05273438
3946,-23.375,-17.625,279.75,-1.723145,0.8984375,-0.2128906,0.1713867,-0.3481445,-0.05419922
3950,-46.9375,-19.8125,276.875,-1.591309,0.8945313,-0.2861328,0.1547852,-0.3579102,-0.05712891
3954,-62.375,-18.3125,272.25,-1.505859,0.7705078,-0.2861328,0.128418,-0.3706055,-0.06396484
3958,-66.5,-8.3125,271,-1.397461,0.7119141,-0.2631836,0.1035156,-0.3779297,-0.07177734
3962,-73.5,3.375,273.5625,-1.366211,0.7314453,-0.2670898,0.08544922,-0.3833008,-0.07470703
3966,-84.4375,9.25,274.5,-1.397461,0.7739258,-0.2514648,0.05810547,-0.3867188,-0.08300781
3970,-99.75,-1.75,278.25,-1.45166,0.7705078,-0.2822266,0.03173828,-0.3881836,-0.09228516
3974,-112.75,-16,276,-1.292969,0.6538086,-0.2553711,0.01171875,-0.3881836,-0.09912109
3978,-110.875,-18.4375,274.0625,-1.137695,0.5527344,-0.2016602,-0.01416016,-0.3842773,-0.1098633
3982,-107.75,-15.8125,276.4375,-1.075684,0.5722656,-0.1977539,-0.04394531,-0.3769531,-0.1196289
3986,-107.9375,-13.9375,292.625,-1.060547,0.5683594,-0.2128906,-0.05908203,-0.3706055,-0.1279297
3990,-114.875,-9.3125,319,-1.071777,0.6342773,-0.2397461,-0.08789063,-0.359375,-0.1386719
3994,-128.5625,-8.5625,337.5,-1.129883,0.7080078,-0.2553711,-0.1186523,-0.3442383,-0.1484375
3998,-134.4375,-19.1875,347.875,-1.125977,0.5913086,-0.1015625,-0.1376953,-0.3305664,-0.1547852
4002,-113.9375,-39.5625,343,-1.044922,0.4868164,-0.02050781,-0.1674805,-0.3081055,-0.1660156
4006,-82,-38.3125,353.5625,-0.8935547,0.4633789,0.1020508,-0.1923828,-0.2817383,-0.1699219
4010,-53.0625,-22.9375,377.4375,-0.8549805,0.4907227,0.04443359,-0.2128906,-0.2631836,-0.1713867
4014,-48.9375,-24.4375,383,-0.7348633,0.4790039,0.05175781,-0.2353516,-0.2329102,-0.168457
4018,-58.375,-33.625,383.5,-0.6147461,0.2924805,0.02880859,-0.2568359,-0.2006836,-0.1699219
4022,-82.8125,-44.5,368.125,-0.3393555,-0.1347656,0.02880859,-0.2675781,-0.1757813,-0.1699219
4026,-100.8125,-53.9375,343.8125,-0.07617188,-0.6708984,0.144043,-0.2841797,-0.1396484,-0.1645508
4030,-97.75,-57.875,302.875,0.1987305,-1.42041,0.2094727,-0.293457,-0.1044922,-0.1645508
4034,-74.8125,-41.5625,269.375,0.5239258,-1.704102,0.3212891,-0.2973633,-0.08300781,-0.1606445
4038,-68,-42.5625,233.1875,0.6054688,-2.135742,0.1865234,-0.3017578,-0.05322266,-0.1577148
4043,-65.9375,-46.125,197,0.9155273,-2.881348,0.105957,-0.3032227,-0.02929688,-0.1508789
4047,-29.875,-19.5625,125.625,1.59375,-3.297363,0.2133789,-0.3017578,-0.01806641,-0.1494141
4051,21.125,-9,-42.5625,1.958008,-2.924316,0.3134766,-0.3017578,-0.008300781,-0.1484375
4055,80.375,-0.3125,-190.75,1.380371,-2.166504,0.2675781,-0.3032227,-0.02050781,-0.1494141
4059,129.25,-1.125,-242.9375,0.543457,-1.541016,0.1865234,-0.3066406,-0.03808594,-0.1484375
4063,147.875,-8.75,-242.75,0.2568359,-0.8261719,0.02880859,-0.3041992,-0.06689453,-0.1484375
4067,119.625,-13.125,-244.9375,0.3188477,-0.3017578,-0.1054688,-0.3017578,-0.09570313,-0.1469727
4071,68.3125,-18.6875,-268.875,0.3457031,-0.1459961,-0.112793,-0.3007813,-0.1142578,-0.144043
4075,42.25,-17.6875,-289.6875,0.2797852,-0.3017578,0.02880859,-0.293457,-0.1430664,-0.1425781
4079,63.8125,4.625,-292.875,0.2138672,-0.484375,0.2021484,-0.2841797,-0.1743164,-0.1416016
4083,110.375,32.8125,-285.8125,-0.07226563,-0.3676758,0.2060547,-0.2768555,-0.1918945,-0.1386719
4087,130,36.25,-280.125,-0.3203125,0.04736328,0.02490234,-0.2626953,-0.2216797,-0.1357422
4091,124.8125,28,-289.5,-0.4208984,0.2070313,-0.02441406,-0.2460938,-0.2480469,-0.1303711
4095,118.875,16.8125,-310.4375,-0.5410156,0.3935547,-0.02832031,-0.2329102,-0.2680664,-0.1279297
4099,103.0625,-2.8125,-330.5625,-0.7504883,0.5800781,-0.04003906,-0.2089844,-0.2944336,-0.1225586
4103,88.5625,-23.5,-344,-0.8745117,0.7314453,-0.05908203,-0.1831055,-0.3178711,-0.1142578
4107,84.8125,-27.9375,-344.375,-0.8896484,0.6499023,-0.005371094,-0.1650391,-0.3330078,-0.1088867
4111,123.0625,-11.375,-328.8125,-1.052734,0.6147461,0.02490234,-0.1342773,-0.3520508,-0.1005859
4115,144.25,-1.4375,-309.0625,-1.219238,1.04248,-0.2900391,-0.1044922,-0.3681641,-0.08691406
4119,94.3125,-14.25,-299.375,-1.28125,1.531738,-0.5517578,-0.08398438,-0.3779297,-0.07861328
4123,26.625,-30.8125,-290.5,-1.215332,1.493164,-0.5014648,-0.05664063,-0.3867188,-0.07177734
4127,-17.875,-32.625,-271.25,-1.083496,1.108398,-0.3359375,-0.02929688,-0.390625,-0.07080078
4131,-5.1875,-10.8125,-254.75,-0.9555664,0.7548828,-0.1821289,-0.01171875,-0.3945313,-0.07177734
4135,11.875,8.75,-242.625,-0.9985352,0.7236328,-0.2128906,0.01269531,-0.3916016,-0.07177734
4139,26.625,19.8125,-244.125,-1.083496,0.7705078,-0.2246094,0.03662109,-0.3916016,-0.07080078
4143,16.125,22.875,-240.8125,-1.211426,1.015137,-0.309082,0.05566406,-0.3891602,-0.06787109
4147,-25.6875,23.8125,-223.5,-1.223145,1.131836,-0.3823242,0.07714844,-0.3857422,-0.06640625
4151,-67.3125,30.125,-208.375,-1.157227,0.8632813,-0.3051758,0.09863281,-0.3793945,-0.06933594
4155,-74.8125,43.6875,-205.375,-1.103027,0.4243164,-0.1743164,0.112793,-0.3745117,-0.07324219
4159,-49.3125,56.4375,-222.5625,-1.087402,0.1796875,-0.112793,0.1318359,-0.3657227,-0.07470703
4163,-20.125,66.125,-260,-1.184082,0.21875,-0.07861328,0.1547852,-0.3530273,-0.07763672
4167,-8,65.5625,-304.125,-1.471191,0.4165039,-0.04394531,0.1713867,-0.3432617,-0.07763672
4172,3.125,51.875,-336.375,-1.715332,0.5683594,0.05175781,0.1972656,-0.3266602,-0.07324219
4176,22.625,30.875,-335.375,-2.083496,0.7626953,0.1635742,0.222168,-0.3017578,-0.07177734
4180,45.8125,15.625,-294.6875,-2.040527,1.04248,0.1826172,0.2402344,-0.2856445,-0.06933594
4184,57.8125,22.25,-246.375,-1.800293,1.259766,0.04443359,0.2558594,-0.2631836,-0.06103516
4188,53.25,32.25,-213.5,-1.455566,1.426758,-0.09765625,0.269043,-0.2456055,-0.05859375
4192,29.25,48.375,-205.125,-1.149414,1.523926,-0.1860352,0.2783203,-0.234375,-0.05712891
4196,-6.625,72.8125,-206.375,-1.129883,1.52002,-0.1552734,0.2880859,-0.2143555,-0.04736328
4200,-34.3125,72.9375,-164.8125,-1.87793,1.388184,0.09033203,0.2973633,-0.1982422,-0.04052734
4204,-44.25,46.125,-60.3125,-2.114258,1.380371,0.4633789,0.2983398,-0.1904297,-0.03955078
4208,-36.1875,27.5,30.1875,-1.815918,1.143066,0.605957,0.2998047,-0.1855469,-0.03808594
4212,-13.5,9.6875,60.125,-1.459473,1.081055,0.5214844,0.2998047,-0.1918945,-0.03662109
4216,0.375,-6.375,54.5,-1.265625,1.124023,0.4482422,0.2973633,-0.1933594,-0.03808594
4220,13.25,-18.875,54.25,-1.397461,1.143066,0.4018555,0.2963867,-0.1982422,-0.03662109
4224,32.3125,-33.125,76.8125,-1.544922,1.092773,0.3598633,0.2900391,-0.2045898,-0.03808594
4228,52.4375,-36.0625,110.3125,-1.583496,1.143066,0.2675781,0.2880859,-0.2104492,-0.04052734
4232,60.125,-39.6875,146.4375,-1.629883,1.20166,0.07519531,0.2841797,-0.2216797,-0.03955078
4236,60.375,-39.3125,181.25,-1.606445,1.13916,-0.04394531,0.2758789,-0.2358398,-0.03955078
4240,57,-31.75,205.3125,-1.563965,1.131836,-0.109375,0.2700195,-0.2470703,-0.04052734
4244,51,-30.625,227.9375,-1.734375,1.084961,-0.1362305,0.2583008,-0.2670898,-0.03808594
4248,42.25,-29.5625,252,-1.765625,1.069336,-0.1166992,0.2436523,-0.2832031,-0.03808594
4252,29.6875,-32.375,270.0625,-1.850586,1.04248,-0.1513672,0.2319336,-0.2993164,-0.03955078
4256,16.1875,-34.5625,288.0625,-1.866211,0.9760742,-0.1899414,0.2128906,-0.3178711,-0.03808594
4260,-0.625,-32.5625,302.5625,-1.79248,0.9453125,-0.2514648,0.1914063,-0.3354492,-0.03808594
4264,-23.5,-30,306,-1.734375,0.921875,-0.34375,0.1713867,-0.3481445,-0.04052734
4268,-50.3125,-30.625,300.875,-1.75,0.9414063,-0.4169922,0.1459961,-0.3657227,-0.04736328
4272,-74.6875,-31.3125,296.9375,-1.699707,0.8671875,-0.4282227,0.1186523,-0.3769531,-0.05419922
4276,-92.6875,-29.5,299.6875,-1.777344,0.8598633,-0.4516602,0.09863281,-0.3818359,-0.05859375
4280,-106.3125,-27.625,318.4375,-1.719238,0.793457,-0.4399414,0.06787109,-0.3881836,-0.06933594
4284,-121,-21.5,337.0625,-1.668457,0.7509766,-0.5092773,0.03564453,-0.3891602,-0.08300781
4288,-130.5,-14.875,347.9375,-1.424316,0.5644531,-0.4516602,0.01074219,-0.3881836,-0.09082031
4292,-127.6875,-1.875,346.0625,-1.246094,0.4790039,-0.4013672,-0.02099609,-0.3857422,-0.1035156
4296,-124.125,2.25,336.1875,-1.184082,0.4243164,-0.3476563,-0.05566406,-0.3769531,-0.1142578
4301,-116.25,-2.125,324.25,-1.195801,0.4555664,-0.2631836,-0.07714844,-0.3681641,-0.1225586
4305,-107.125,-4.0625,326.8125,-1.125977,0.4946289,-0.1938477,-0.1079102,-0.3554688,-0.1333008
4309,-97.125,4.5625,336.25,-1.125977,0.5913086,-0.1899414,-0.1352539,-0.3378906,-0.1401367
4313,-101.75,8.5,366.5625,-1.118652,0.5800781,-0.2055664,-0.1567383,-0.3242188,-0.1469727
4317,-116.125,4.6875,377.5,-0.8857422,0.4204102,-0.1669922,-0.1831055,-0.3007813,-0.15625
4321,-132.4375,-8.625,362.75,-0.715332,0.237793,-0.1362305,-0.2104492,-0.2680664,-0.1630859
4325,-138.1875,-32.375,336.75,-0.5756836,-0.1113281,-0.02050781,-0.2270508,-0.2480469,-0.1699219
4329,-108.9375,-30.375,325.3125,-0.2734375,-0.4648438,0.2021484,-0.2460938,-0.2167969,-0.1713867
4333,-72.0625,-17.875,319.9375,-0.1923828,-0.5229492,0.2368164,-0.2617188,-0.1855469,-0.175293
4337,-55.5625,-15.5625,313.1875,-0.1069336,-0.503418,0.1865234,-0.2709961,-0.1630859,-0.1738281
4341,-53.5625,-18.9375,310.375,-0.002441406,-0.6005859,0.140625,-0.2792969,-0.1342773,-0.1738281
4345,-59.375,-28,298.4375,0.1870117,-0.7832031,0.140625,-0.2915039,-0.1020508,-0.1713867
4349,-81.125,-46.625,274.5625,0.3808594,-1.02832,0.08642578,-0.293457,-0.08203125,-0.1699219
4353,-106.6875,-52.125,232.8125,0.5976563,-1.300293,0.09814453,-0.2958984,-0.05322266,-0.1660156
4357,-105.1875,-48.625,191.75,0.9736328,-2.154785,0.1787109,-0.2983398,-0.02587891,-0.1616211
4361,-67.125,-16.875,116.0625,1.554688,-2.578613,0.3330078,-0.2983398,-0.01318359,-0.1577148
4365,2.9375,17.0625,0.0625,1.651855,-2.547363,0.4633789,-0.2998047,-0.001953125,-0.1577148
4369,54.8125,15,-115.25,1.109375,-1.886719,0.340332,-0.2983398,-0.01074219,-0.15625
4373,78.0625,-10.125,-188.125,0.7451172,-1.374023,0.2368164,-0.2983398,-0.01953125,-0.1606445
4377,90.1875,-10.0625,-218.9375,0.5976563,-1.02832,0.1518555,-0.2998047,-0.04052734,-0.1591797
4381,83.875,-6.4375,-233.75,0.4892578,-0.6708984,0.05175781,-0.2983398,-0.06835938,-0.1577148
4385,70.5625,-4,-251.5,0.4892578,-0.5776367,0.06738281,-0.2998047,-0.08544922,-0.1591797
4389,76.5625,10.4375,-267.875,0.5048828,-0.6162109,0.1171875,-0.293457,-0.1118164,-0.1577148
4393,108.3125,38.375,-277.375,0.3999023,-0.6513672,0.1826172,-0.2866211,-0.1430664,-0.1577148
4397,160.25,64.625,-277.8125,0.1054688,-0.6201172,0.2368164,-0.2807617,-0.1621094,-0.15625
4401,214.25,69.875,-275.875,-0.2041016,-0.3598633,0.1328125,-0.2675781,-0.1958008,-0.1577148
4405,236.25,52.0625,-273.4375,-0.5024414,0.07470703,-0.01660156,-0.2495117,-0.2280273,-0.1494141
4409,224.5625,25.3125,-276.1875,-0.6186523,0.4907227,-0.1782227,-0.237793,-0.2495117,-0.1455078
4413,195.375,-3.625,-298.125,-0.6069336,0.7119141,-0.2016602,-0.2197266,-0.2783203,-0.1333008
4417,174.875,-25.375,-313.1875,-0.765625,0.9257813,-0.2285156,-0.1962891,-0.3066406,-0.1196289
4421,123,-40.3125,-310,-0.9287109,1.353027,-0.4824219,-0.1816406,-0.3217773,-0.1113281
4425,68.4375,-41,-297.375,-0.7929688,1.294922,-0.4321289,-0.1567383,-0.3417969,-0.1005859
4430,23.25,-24.0625,-282.875,-0.7773438,1.236328,-0.4707031,-0.1318359,-0.3569336,-0.09521484
4434,-6.3125,-11.5,-272.6875,-0.796875,0.824707,-0.2900391,-0.1137695,-0.3681641,-0.09082031
4438,32.0625,11.3125,-266,-0.8745117,0.4594727,-0.08984375,-0.08886719,-0.3754883,-0.09082031
4442,59.6875,19.375,-259.9375,-1.063965,0.6186523,-0.2514648,-0.06396484,-0.3842773,-0.08691406
4446,62.4375,13.125,-272.6875,-1.145508,0.7314453,-0.34375,-0.04589844,-0.3881836,-0.08447266
4450,51.0625,3.5625,-288.4375,-1.234863,0.824707,-0.4208984,-0.01757813,-0.390625,-0.07617188
4454,29.5,-0.75,-298.1875,-1.308105,0.7739258,-0.4321289,0.01171875,-0.3930664,-0.07177734
4458,26.4375,1.5625,-301.5625,-1.374023,0.5913086,-0.3398438,0.03076172,-0.3930664,-0.07177734
4462,33.875,5,-307.4375,-1.479004,0.5410156,-0.3476563,0.06054688,-0.3891602,-0.06787109
4466,40.8125,1.125,-322.0625,-1.556152,0.5175781,-0.3476563,0.09033203,-0.3833008,-0.06542969
4470,48.75,-0.625,-340.3125,-1.637695,0.5488281,-0.3325195,0.1118164,-0.3769531,-0.0625
4474,54.75,-0.875,-353.625,-1.723145,0.6577148,-0.3286133,0.144043,-0.3632813,-0.05273438
4478,57.625,-5,-357.4375,-1.908691,0.840332,-0.3129883,0.1748047,-0.3466797,-0.05273438
4482,58.0625,-11.6875,-347.125,-1.936035,1.04248,-0.2705078,0.1938477,-0.3320313,-0.04882813
4486,59.625,-10.625,-322.75,-1.812012,1.251953,-0.2475586,0.222168,-0.3095703,-0.04345703
4490,59.125,1.3125,-289.1875,-1.719238,1.275391,-0.2861328,0.2436523,-0.2866211,-0.04052734
4494,53.875,5.125,-240.3125,-1.757813,1.321777,-0.2553711,0.253418,-0.2729492,-0.03955078
4498,43.75,13.9375,-184.5,-1.680176,1.345215,-0.1474609,0.2666016,-0.2529297,-0.03515625
4502,26.5,21.1875,-126.3125,-1.529297,1.380371,-0.09375,0.2749023,-0.2392578,-0.03125
4506,4,29.0625,-89.75,-1.308105,1.306641,-0.03222656,0.2783203,-0.2319336,-0.03125
4510,-16.5625,33.3125,-79.375,-1.118652,1.217285,0.105957,0.2832031,-0.2255859,-0.02978516
4514,-28.4375,35.6875,-84.5625,-1.087402,1.131836,0.2519531,0.2856445,-0.2167969,-0.02734375
4518,-26.0625,32.75,-93.375,-1.145508,1.09668,0.375,0.2890625,-0.2143555,-0.02587891
4522,-8.25,23.9375,-87.9375,-1.300781,1.053711,0.4633789,0.2924805,-0.2045898,-0.02441406
4526,20.0625,12.1875,-65.6875,-1.455566,1.081055,0.4633789,0.2963867,-0.1967773,-0.02050781
4530,45.3125,-1.625,-30.8125,-1.505859,1.205566,0.3095703,0.2963867,-0.1958008,-0.01904297
4534,52.875,-11.4375,5.1875,-1.439941,1.321777,0.05957031,0.2983398,-0.1933594,-0.02050781
4538,40.375,-15.1875,32.3125,-1.343262,1.376465,-0.1401367,0.2963867,-0.1918945,-0.01757813
4542,22.375,-11.0625,59.6875,-1.319824,1.291016,-0.1938477,0.2963867,-0.1958008,-0.02050781
4546,9.125,-2,92.125,-1.389648,1.166504,-0.1860352,0.2915039,-0.2016602,-0.01904297
4550,3.375,5.375,123.5625,-1.439941,1.045898,-0.1206055,0.2890625,-0.2119141,-0.01611328
4554,5.6875,8.125,146.5625,-1.533203,0.972168,-0.07080078,0.2856445,-0.2182617,-0.01757813
4559,11,3.1875,171.0625,-1.637695,0.9492188,-0.08203125,0.2792969,-0.2329102,-0.01464844
4563,8.5625,-3,198.25,-1.742188,0.9682617,-0.1245117,0.269043,-0.2480469,-0.01220703
4567,-3.8125,-11.5,220,-1.78125,0.9682617,-0.2016602,0.2617188,-0.2592773,-0.01220703
4571,-21.0625,-18,236.0625,-1.854492,0.9643555,-0.3012695,0.2485352,-0.2768555,-0.01611328
4575,-46.4375,-23.5,247.3125,-1.936035,0.953125,-0.4013672,0.234375,-0.296875,-0.02050781
4579,-69.3125,-31.125,260.4375,-2.052246,0.9453125,-0.4477539,0.2211914,-0.3105469,-0.02294922
4583,-95.75,-36.125,280.375,-2.036621,0.8984375,-0.5092773,0.203125,-0.3266602,-0.03271484
4587,-111.1875,-37.75,302,-2.087402,0.7041016,-0.4746094,0.1782227,-0.3457031,-0.04345703
4591,-88.125,-26.5625,334.4375,-1.874023,0.4243164,-0.2705078,0.1591797,-0.3554688,-0.05029297
4595,-61.4375,-0.875,354.25,-1.773438,0.5332031,-0.2978516,0.128418,-0.371582,-0.05859375
4599,-65.375,0.1875,350.625,-1.800293,0.7626953,-0.4130859,0.09521484,-0.3803711,-0.0625
4603,-99.9375,-29.375,338.1875,-1.847168,0.9101563,-0.5361328,0.07226563,-0.3867188,-0.06933594
4607,-141.4375,-51.5,326.375,-1.65332,0.9140625,-0.5898438,0.03808594,-0.3881836,-0.08154297
4611,-169.5625,-52.625,338.375,-1.529297,0.6303711,-0.5092773,0.005859375,-0.3867188,-0.09765625
4615,-154.875,-33.1875,361.375,-1.347168,0.3779297,-0.3286133,-0.01855469,-0.3842773,-0.1098633
4619,-126.625,-8.5625,375.5625,-1.234863,0.3701172,-0.2285156,-0.05566406,-0.3754883,-0.1235352
4623,-117.625,-4.5,371.875,-1.137695,0.4672852,-0.2324219,-0.09033203,-0.3603516,-0.1357422
4627,-128.6875,-20.4375,350.1875,-1.048828,0.4516602,-0.2475586,-0.1137695,-0.3481445,-0.1416016
4631,-135,-38.0625,319.25,-0.7929688,0.269043,-0.1362305,-0.1435547,-0.3305664,-0.1508789
4635,-127.6875,-39.875,304.375,-0.6303711,0.1098633,-0.08984375,-0.1708984,-0.3081055,-0.1591797
4639,-106.25,-37.3125,311.6875,-0.6806641,-0.07617188,0.03662109,-0.1875,-0.2929688,-0.1616211
4643,-82.3125,-38.5,317.1875,-0.5253906,-0.1850586,0.09033203,-0.2089844,-0.2670898,-0.168457
4647,-64.875,-39.1875,318.3125,-0.2773438,-0.1616211,0.08251953,-0.2304688,-0.2392578,-0.168457
4651,-62,-40.1875,296.5,-0.09130859,-0.2124023,0.07519531,-0.2460938,-0.2207031,-0.168457
4655,-61.875,-46.4375,266.4375,0.03564453,-0.3286133,0.09423828,-0.2602539,-0.1958008,-0.1660156
4659,-58.125,-46.5625,247.1875,0.1987305,-0.5,0.159668,-0.2744141,-0.171875,-0.1660156
4663,-46.6875,-34.75,237,0.3417969,-0.6435547,0.1904297,-0.2792969,-0.1542969,-0.1645508
4667,-51.25,-34.625,228.5,0.3574219,-0.9116211,0.1328125,-0.2875977,-0.1308594,-0.1630859
4671,-67.125,-44.3125,202.75,0.6362305,-1.055176,0.07128906,-0.2949219,-0.1054688,-0.1606445
4675,-80.0625,-53.0625,158.0625,0.9697266,-1.463379,0.08642578,-0.2983398,-0.09179688,-0.1577148
4679,-61.8125,-36.375,102.125,1.353516,-1.910156,0.2211914,-0.3007813,-0.07568359,-0.1538086
4683,-17.5,-4.5,36.125,1.481445,-2.030762,0.3095703,-0.3032227,-0.06591797,-0.1523438
4688,30.5,15.125,-42.6875,1.349609,-1.773926,0.3134766,-0.3032227,-0.06689453,-0.1523438
4692,61,13.875,-116.1875,1.101563,-1.385742,0.2441406,-0.3017578,-0.07177734,-0.1538086
4696,79.0625,14.1875,-169.375,0.9462891,-1.059082,0.1518555,-0.3017578,-0.08935547,-0.1538086
4700,86.6875,24.625,-201.25,0.7451172,-0.7753906,0.07519531,-0.2983398,-0.1020508,-0.1538086
4704,89.75,34.9375,-213.9375,0.5708008,-0.550293,0.04785156,-0.293457,-0.1279297,-0.1547852
4708,96,53,-215.125,0.5087891,-0.4570313,0.07128906,-0.2827148,-0.1533203,-0.15625
4712,112.9375,77.625,-210.375,0.3339844,-0.3208008,0.06347656,-0.2783203,-0.1679688,-0.1577148
4716,127.25,90.25,-204.5,0.1210938,-0.1381836,0.05175781,-0.2661133,-0.1918945,-0.1616211
4720,136.5,88.875,-204.75,-0.07617188,0.05126953,0.05957031,-0.253418,-0.2128906,-0.1630859
4724,139.25,69.9375,-209.9375,-0.3085938,0.4165039,0.009765625,-0.2426758,-0.2294922,-0.1630859
4728,108.1875,39.75,-228.875,-0.3862305,0.8945313,-0.1591797,-0.2280273,-0.2504883,-0.1591797
4732,48.1875,18.625,-242.0625,-0.3393555,1.045898,-0.2363281,-0.2138672,-0.2729492,-0.1577148
4736,9.0625,25.75,-249.125,-0.2734375,0.8671875,-0.0859375,-0.199707,-0.2856445,-0.1547852
4740,21.5,44.0625,-240.6875,-0.3901367,0.5136719,0.1479492,-0.1806641,-0.2993164,-0.1577148
4744,91.9375,64.5,-224.875,-0.5214844,0.3623047,0.2866211,-0.1616211,-0.3154297,-0.15625
4748,151.125,61.625,-218,-0.730957,0.7392578,0.07519531,-0.1474609,-0.3256836,-0.1523438
4752,132.875,35.5,-232.0625,-0.831543,1.213379,-0.2363281,-0.1269531,-0.3408203,-0.1425781
4756,66.75,4.625,-259.1875,-0.8085938,1.325684,-0.2900391,-0.1044922,-0.3569336,-0.1347656
4760,30.25,-7.875,-270.3125,-0.746582,0.8520508,-0.04394531,-0.08544922,-0.3642578,-0.1318359
4764,47.3125,3.5625,-264.625,-0.796875,0.4868164,0.06347656,-0.06298828,-0.371582,-0.1264648
4768,114.1875,14,-259.8125,-0.9013672,0.1484375,0.2250977,-0.03759766,-0.3769531,-0.1225586
4772,205.125,15.5625,-272.1875,-1.11084,0.4282227,0.01708984,-0.02001953,-0.3833008,-0.1113281
4776,217.6875,-3,-294.6875,-1.331543,1.045898,-0.3666992,0.006835938,-0.3891602,-0.08984375
4780,166.75,-32.4375,-315.875,-1.358887,1.454102,-0.5708008,0.03808594,-0.390625,-0.07080078
4784,98.4375,-39.875,-317.5625,-1.304199,1.225098,-0.5244141,0.05810547,-0.3891602,-0.0625
4788,59.125,-29.875,-287.625,-1.269531,0.8598633,-0.4013672,0.08886719,-0.3842773,-0.05273438
4792,52.75,-17.125,-247.5,-1.234863,0.5253906,-0.3168945,0.1142578,-0.3754883,-0.04882813
4796,59.3125,-8.375,-225.6875,-1.145508,0.3779297,-0.3286133,0.128418,-0.3706055,-0.04492188
4800,55.9375,-6.75,-235.6875,-1.07959,0.3544922,-0.3745117,0.1499023,-0.3603516,-0.04052734
4804,44,-6.5,-269.9375,-1.099121,0.3120117,-0.4052734,0.1713867,-0.3491211,-0.03515625
4808,35.6875,-7,-310.75,-1.261719,0.2495117,-0.3666992,0.1865234,-0.3378906,-0.03271484
4812,34.8125,-2.375,-339.1875,-1.45166,0.2573242,-0.2900391,0.2128906,-0.3168945,-0.02978516
4817,41.5,-0.4375,-350.1875,-1.808105,0.3081055,-0.2285156,0.2368164,-0.2919922,-0.02734375
4821,46.5,-12.3125,-351.625,-1.998047,0.5292969,-0.2089844,0.2519531,-0.2744141,-0.02587891
4825,51.75,-33.4375,-352.75,-2.052246,0.7548828,-0.1743164,0.2724609,-0.2441406,-0.02587891
4829,66.875,-49.0625,-348.75,-2.083496,0.9799805,-0.1245117,0.2880859,-0.2128906,-0.02734375
4833,89,-52.8125,-297.0625,-2.160645,1.057617,-0.1206055,0.2983398,-0.1918945,-0.02832031
4837,92.6875,-42.0625,-220.625,-2.094727,1.562988,-0.3325195,0.3071289,-0.1630859,-0.02832031
4841,47.4375,-21.4375,-123.3125,-1.897461,1.943848,-0.4594727,0.3139648,-0.1469727,-0.02832031
4845,-19.75,2.9375,-43.5625,-1.591309,1.943848,-0.4052734,0.3139648,-0.1420898,-0.03271484
4849,-68.5,30,6.6875,-1.455566,1.628906,-0.128418,0.3139648,-0.1381836,-0.03271484
4853,-85.5625,45.1875,35.4375,-1.517578,1.345215,0.2133789,0.3164063,-0.140625,-0.03125
4857,-77.375,45.4375,56.8125,-1.637695,1.17041,0.4560547,0.3129883,-0.1420898,-0.02734375
4861,-59.25,24.6875,71.1875,-1.785156,1.073242,0.5175781,0.3115234,-0.1479492,-0.02587891
4865,-26.8125,-6.6875,91.9375,-1.858398,0.9296875,0.5366211,0.3105469,-0.1567383,-0.02587891
4869,2.875,-24.375,118.875,-1.765625,0.9760742,0.3637695,0.3056641,-0.1630859,-0.02734375
4873,15.4375,-32.4375,142.5625,-1.761719,1.030762,0.1132813,0.3022461,-0.1743164,-0.02832031
4877,10.1875,-30.375,172.25,-1.70752,1.053711,-0.05517578,0.2983398,-0.1918945,-0.03125
4881,-4.4375,-21.4375,202.4375,-1.742188,0.9799805,-0.1435547,0.2939453,-0.2006836,-0.03271484
4885,-15.9375,-12.1875,231.9375,-1.835449,0.855957,-0.1054688,0.2856445,-0.2192383,-0.03515625
4889,-21.375,-11.125,260.375,-1.939941,0.7548828,-0.112793,0.2734375,-0.2416992,-0.03662109
4893,-25.3125,-17.375,282.8125,-2.021484,0.6264648,-0.09765625,0.2651367,-0.2583008,-0.03808594
4897,-27.25,-25.4375,298.25,-1.970703,0.4985352,-0.128418,0.2475586,-0.2832031,-0.03955078
4901,-21.75,-27.5,307.8125,-1.862305,0.3896484,-0.1782227,0.2270508,-0.3056641,-0.04492188
4905,-18.5,-23.875,308.6875,-1.746094,0.3662109,-0.2744141,0.2119141,-0.3208008,-0.04736328
4909,-22.875,-21.6875,299.5625,-1.684082,0.4594727,-0.3901367,0.1879883,-0.3393555,-0.04882813
4913,-42.3125,-17.4375,291.5,-1.657227,0.5722656,-0.4628906,0.1606445,-0.3544922,-0.05419922
4917,-62.375,-13.25,290.5,-1.715332,0.6147461,-0.4667969,0.1425781,-0.3632813,-0.05859375
4921,-83.0625,-12.4375,301.6875,-1.82373,0.6733398,-0.4516602,0.1166992,-0.3754883,-0.06542969
4925,-100.375,-17.375,325.1875,-1.847168,0.6108398,-0.4282227,0.08691406,-0.3833008,-0.07617188
4929,-114.1875,-20.25,341.9375,-1.703613,0.5722656,-0.4594727,0.06396484,-0.3842773,-0.08300781
4933,-133.1875,-20.375,353.25,-1.505859,0.5019531,-0.4746094,0.03076172,-0.3881836,-0.09521484
4937,-142.375,-13.0625,356.0625,-1.28125,0.3193359,-0.3823242,-0.004394531,-0.3842773,-0.1088867
4941,-132.6875,-3.1875,354.6875,-1.165039,0.269043,-0.2783203,-0.02832031,-0.3793945,-0.1181641
4946,-119.6875,3.875,348.25,-1.087402,0.3818359,-0.1552734,-0.06298828,-0.3706055,-0.1318359
4950,-111.9375,-3.8125,342.5,-1.099121,0.3544922,-0.1708984,-0.09375,-0.3579102,-0.1401367
4954,-114.125,-19.125,336.625,-0.9672852,0.4243164,-0.1474609,-0.1137695,-0.3457031,-0.1484375
4958,-124.8125,-30.5,339.625,-0.847168,0.3427734,-0.128418,-0.1450195,-0.3256836,-0.1577148
4962,-103,-27.5,333.125,-0.6069336,0.2338867,0.07910156,-0.1733398,-0.3032227,-0.1645508
4966,-73.6875,-15.5,332.875,-0.4013672,0.1333008,0.07519531,-0.1923828,-0.2856445,-0.1674805
4970,-59.25,-7.1875,312.3125,-0.2890625,0.2456055,0.06738281,-0.2138672,-0.2617188,-0.1699219
4974,-71.8125,-20.6875,286.1875,-0.28125,0.3427734,-0.009277344,-0.2304688,-0.2358398,-0.1728516
4978,-89.625,-37.3125,264.0625,-0.2231445,0.2495117,0.03662109,-0.2426758,-0.2192383,-0.1713867
4982,-82.9375,-43.6875,261,-0.1342773,-0.01025391,0.1943359,-0.2568359,-0.1958008,-0.1738281
4986,-57.625,-35.375,277.6875,-0.03320313,-0.1811523,0.2290039,-0.2700195,-0.1694336,-0.1713867
4990,-48.5,-31.875,280.375,0.1289063,-0.2084961,0.1865234,-0.2768555,-0.1494141,-0.1713867
4994,-57,-40.4375,266.0625,0.2758789,-0.3989258,0.1787109,-0.2866211,-0.1206055,-0.1699219
4998,-61.8125,-55.25,234.9375,0.5395508,-0.7602539,0.2172852,-0.293457,-0.09423828,-0.1660156
5002,-53.8125,-51.125,205.125,0.7021484,-1.37793,0.2827148,-0.2973633,-0.078125,-0.1645508
5006,-33.9375,-37,182.125,0.8959961,-1.389648,0.3251953,-0.2998047,-0.05566406,-0.1606445
5010,-18.0625,-32.75,146.1875,1.012207,-1.67334,0.3017578,-0.3032227,-0.04052734,-0.1547852
5014,1,-28.5,95.8125,1.186523,-1.90625,0.3134766,-0.3017578,-0.03173828,-0.1538086
5018,22.9375,-18.5,24.5625,1.361328,-1.914063,0.3212891,-0.3032227,-0.0234375,-0.1494141
5022,47.6875,-19,-65.5,1.361328,-1.773926,0.3173828,-0.3041992,-0.02587891,-0.1508789
5026,75.625,-17.3125,-141.25,1.140137,-1.533203,0.2788086,-0.3056641,-0.03173828,-0.1484375
5030,97.9375,-19.0625,-190.6875,0.8535156,-1.203125,0.2250977,-0.3081055,-0.05175781,-0.1484375
5034,106.25,-21.9375,-223.625,0.644043,-0.8647461,0.1367188,-0.3041992,-0.07714844,-0.144043
5038,98.9375,-23.3125,-247.0625,0.5161133,-0.6083984,0.06738281,-0.3041992,-0.09326172,-0.1425781
5042,79.625,-20.5625,-266.1875,0.4619141,-0.3989258,-0.005371094,-0.3007813,-0.1220703,-0.1386719
5046,59.375,-8.0625,-280.875,0.4116211,-0.340332,-0.02832031,-0.2949219,-0.1508789,-0.1357422
5050,42.875,11.9375,-292.5625,0.3378906,-0.3017578,-0.04394531,-0.2875977,-0.1694336,-0.1357422
5054,46.25,37.875,-299.3125,0.2104492,-0.4140625,0.06738281,-0.2744141,-0.1992188,-0.1357422
5058,80.1875,67,-300.6875,-0.06054688,-0.4882813,0.1748047,-0.2592773,-0.2270508,-0.1386719
5062,128.25,67.8125,-308.6875,-0.4555664,-0.3208008,0.1635742,-0.2426758,-0.2441406,-0.1401367
5066,144.6875,41.375,-320,-0.7734375,0.171875,-0.04003906,-0.2211914,-0.2753906,-0.1347656
5070,125.875,14.9375,-338.25,-0.8432617,0.4399414,-0.128418,-0.1982422,-0.3017578,-0.1264648
5075,87.5,3.8125,-350.1875,-0.9750977,0.7392578,-0.2285156,-0.1791992,-0.3178711,-0.1210938
5079,58.625,-4.25,-339.8125,-1.211426,0.7158203,-0.128418,-0.1508789,-0.3393555,-0.1157227
5083,72.1875,7.25,-316.5625,-1.25,0.6577148,-0.02441406,-0.1201172,-0.3569336,-0.112793
5087,56.625,-9.375,-315.8125,-1.459473,0.9140625,-0.2900391,-0.1020508,-0.3657227,-0.1074219
5091,30.25,-42.5625,-344,-1.335449,0.8012695,-0.2285156,-0.07226563,-0.3779297,-0.1035156
5095,15,-51,-370.0625,-1.292969,0.6225586,-0.1743164,-0.03759766,-0.3833008,-0.09912109
5099,34.875,-33.625,-375,-1.397461,0.315918,-0.05126953,-0.01416016,-0.3891602,-0.09667969
5103,71.3125,-8.1875,-356.875,-1.691895,0.3544922,-0.1474609,0.02001953,-0.3891602,-0.09228516
5107,78.3125,-4.25,-331.5625,-1.819824,0.5410156,-0.3325195,0.05566406,-0.3857422,-0.08691406
5111,68.3125,-1.375,-327.375,-1.715332,0.5878906,-0.394043,0.07861328,-0.3842773,-0.08007813
5115,52.6875,-2.3125,-339.5625,-1.800293,0.6069336,-0.4516602,0.1079102,-0.3769531,-0.07470703
5119,34.5625,-3.75,-350.9375,-1.82373,0.5952148,-0.4399414,0.1416016,-0.3642578,-0.06787109
5123,25.625,7.3125,-354.5,-1.862305,0.5761719,-0.359375,0.1616211,-0.3505859,-0.06787109
5127,19.375,15.3125,-342.1875,-2.021484,0.6459961,-0.3168945,0.1928711,-0.3320313,-0.06396484
5131,6.3125,18.375,-317.8125,-2.013672,0.7275391,-0.2592773,0.2177734,-0.3105469,-0.0625
5135,-4.75,21.0625,-290.4375,-1.959473,0.7275391,-0.1821289,0.2329102,-0.296875,-0.06103516
5139,-6.875,22.1875,-271.25,-1.796387,0.7626953,-0.1054688,0.253418,-0.2744141,-0.05712891
5143,-1.25,27.1875,-260.25,-1.661133,0.8632813,-0.06298828,0.2666016,-0.2519531,-0.05712891
5147,2.3125,37.25,-249.9375,-1.610352,1.030762,-0.04736328,0.2758789,-0.234375,-0.05566406
5151,1,41.875,-217.8125,-1.757813,0.9643555,-0.04003906,0.2880859,-0.2143555,-0.05273438
5155,-5.3125,47,-172.75,-1.839355,1.236328,0.05957031,0.2963867,-0.1943359,-0.04882813
5159,-15.6875,38.625,-114.75,-1.843262,1.279297,0.1289063,0.2983398,-0.1855469,-0.04638672
5163,-20.875,26.8125,-74,-1.695801,1.209473,0.2211914,0.3032227,-0.1757813,-0.04492188
5167,-15.0625,17.125,-50.0625,-1.517578,1.166504,0.2788086,0.3056641,-0.1694336,-0.04052734
5171,-7.8125,11.0625,-33.5,-1.459473,1.186035,0.3056641,0.3071289,-0.1679688,-0.04199219
5175,3.625,5.5,-9.8125,-1.45166,1.166504,0.3291016,0.3081055,-0.1645508,-0.04052734
5179,17,2.9375,16.5625,-1.436035,1.178223,0.3017578,0.3071289,-0.1645508,-0.04199219
5183,28.8125,1.0625,42.8125,-1.381836,1.240234,0.2172852,0.3046875,-0.1655273,-0.03808594
5187,30.125,0.4375,64.0625,-1.385742,1.337402,0.09033203,0.3046875,-0.171875,-0.03808594
5191,24,-3.4375,88.5625,-1.471191,1.36084,-0.01318359,0.3022461,-0.1791992,-0.03808594
5195,14.5625,-4.625,116.25,-1.509766,1.325684,-0.06689453,0.2998047,-0.1831055,-0.03662109
5199,9.25,-4.8125,145.125,-1.54834,1.228516,-0.1015625,0.2939453,-0.1958008,-0.03955078
5204,6.3125,-3.5625,171.9375,-1.633789,1.174316,-0.1166992,0.2890625,-0.2119141,-0.03662109
5208,1.5625,-4.5625,195.5625,-1.703613,1.166504,-0.1362305,0.2856445,-0.2216797,-0.03662109
5212,-6,-7.375,218,-1.804199,1.158691,-0.1513672,0.2749023,-0.2392578,-0.03955078
