Packet number,Gyroscope X (deg/s),Gyroscope Y (deg/s),Gyroscope Z (deg/s),Accelerometer X (g),Accelerometer Y (g),Accelerometer Z (g),Magnetometer X (G),Magnetometer Y (G),Magnetometer Z (G)
2,-0.6875,-1.5625,-2.0625,-0.9594727,0.1367188,0.009765625,0.2924805,-0.2045898,-0.06640625
7,2.125,0.5625,-0.25,-0.9750977,0.1523438,-0.009277344,0.2900391,-0.2055664,-0.06787109
11,3.875,1.6875,2.375,-0.9907227,0.1679688,-0.001464844,0.2900391,-0.2055664,-0.06640625
15,5.4375,2.5,3.0625,-0.9946289,0.1835938,0.001953125,0.2890625,-0.2070313,-0.06396484
19,5.6875,1.3125,3.1875,-1.009766,0.2148438,-0.01660156,0.2900391,-0.2070313,-0.06640625
23,5.9375,1.25,5.125,-1.033203,0.2416992,-0.01660156,0.2890625,-0.2055664,-0.06396484
27,9.1875,5.125,10.5,-1.048828,0.2768555,-0.005371094,0.2900391,-0.2070313,-0.06396484
31,10,9.4375,19,-1.087402,0.3193359,0.009765625,0.2890625,-0.2070313,-0.06103516
35,10.375,11.1875,29.5,-1.095215,0.3388672,0.05566406,0.2880859,-0.2104492,-0.06103516
39,13.875,10.625,36.25,-1.095215,0.3310547,0.08642578,0.2890625,-0.2119141,-0.0625
43,19.8125,9.6875,39.125,-1.12207,0.3505859,0.07910156,0.2866211,-0.2143555,-0.05859375
47,27.25,8.625,45.625,-1.114746,0.3857422,0.08251953,0.2841797,-0.2182617,-0.05712891
51,34,12,55.25,-1.125977,0.4360352,0.05175781,0.2841797,-0.2246094,-0.05712891
55,33.875,11.875,66.3125,-1.106934,0.4594727,0.001953125,0.2807617,-0.2294922,-0.05273438
59,32.5,10.9375,73.875,-1.083496,0.4790039,-0.01660156,0.2792969,-0.234375,-0.04736328
63,30.8125,9.9375,81.1875,-1.075684,0.4516602,0.005859375,0.2749023,-0.2392578,-0.04736328
67,29.125,9.1875,86,-1.071777,0.4829102,0.005859375,0.2709961,-0.2456055,-0.04638672
71,27.8125,6.5,92.3125,-1.114746,0.4790039,0.02490234,0.2651367,-0.2543945,-0.04492188
75,31.0625,3.0625,100.25,-1.099121,0.4868164,0.001953125,0.2626953,-0.2607422,-0.04052734
79,35.125,0.75,103.0625,-1.063965,0.4985352,-0.08203125,0.2583008,-0.2695313,-0.03808594
83,28.3125,0.9375,104.875,-1.033203,0.5371094,-0.09375,0.2475586,-0.2753906,-0.03808594
87,22.25,1.5625,107.4375,-1.056641,0.5488281,-0.1323242,0.2460938,-0.2832031,-0.03515625
91,16.3125,-3.0625,110.375,-1.021484,0.5488281,-0.1552734,0.237793,-0.2905273,-0.03515625
95,12.8125,-4.875,114.6875,-0.9633789,0.5410156,-0.128418,0.2319336,-0.2983398,-0.03271484
99,8.6875,-4.4375,112.4375,-0.9169922,0.5175781,-0.109375,0.2260742,-0.3032227,-0.03271484
103,3.8125,-7.25,111.1875,-0.9130859,0.4790039,-0.09375,0.2177734,-0.3105469,-0.03271484
107,0.5,-8.4375,108.3125,-0.8549805,0.4790039,-0.07861328,0.2094727,-0.3193359,-0.03271484
111,-6.1875,-7.1875,102.125,-0.8818359,0.5175781,-0.06298828,0.2055664,-0.3242188,-0.03515625
115,-4.625,-3.6875,98.1875,-0.9052734,0.5839844,-0.0859375,0.1948242,-0.3320313,-0.03515625
119,-13.3125,-1.5625,99.6875,-0.9208984,0.6772461,-0.1054688,0.1879883,-0.3378906,-0.03662109
123,-27.0625,-4.375,103.125,-0.9829102,0.7197266,-0.128418,0.1831055,-0.3408203,-0.03662109
127,-34.625,-10.0625,99.1875,-1.103027,0.8168945,-0.1054688,0.1757813,-0.3466797,-0.04052734
131,-36.6875,-17.625,112.625,-1.269531,0.9101563,-0.08984375,0.1674805,-0.3491211,-0.04492188
136,-29.5625,-21.1875,135.625,-1.32373,0.987793,-0.1054688,0.1582031,-0.3544922,-0.04492188
140,-19.375,-16.75,169.0625,-1.32373,1.026855,-0.1206055,0.1450195,-0.3618164,-0.04882813
144,-8.5625,-6.5,202.0625,-1.227051,1.04248,-0.112793,0.1269531,-0.371582,-0.05029297
148,0.75,2.1875,221.375,-1.157227,1.073242,-0.1206055,0.1152344,-0.3754883,-0.05175781
152,5.6875,7.4375,230.75,-1.172852,1.073242,-0.06689453,0.09521484,-0.3803711,-0.05029297
156,4.1875,0,236.6875,-1.106934,1.088867,-0.09375,0.06982422,-0.3881836,-0.05175781
160,0.875,-9.0625,239.5625,-1.067871,1.158691,-0.05908203,0.05566406,-0.3891602,-0.05029297
164,-11.4375,-18.5625,244.875,-1.025391,1.225098,-0.1245117,0.03173828,-0.3930664,-0.05175781
168,-26.0625,-15.5,256.0625,-0.9516602,1.162598,-0.08203125,0.006835938,-0.3916016,-0.05419922
172,-28.625,-9.8125,260.5,-1.017578,1.154785,0.01708984,-0.01171875,-0.3930664,-0.05419922
176,-32.875,0,271.9375,-0.9399414,1.255859,0.01708984,-0.03759766,-0.3891602,-0.05712891
180,-37.4375,9.5625,295.4375,-0.9711914,1.217285,-0.1206055,-0.06494141,-0.3842773,-0.05957031
184,-38.8125,17.375,317.875,-0.8276367,1.158691,-0.09765625,-0.08544922,-0.3793945,-0.06396484
188,-43.1875,18.375,332.9375,-0.7929688,0.953125,-0.1054688,-0.1152344,-0.3681641,-0.06933594
192,-56.875,7.25,329.0625,-0.6533203,0.809082,-0.1435547,-0.1474609,-0.3520508,-0.07177734
196,-64.375,-3.25,327.4375,-0.4750977,0.4360352,-0.04736328,-0.1674805,-0.3408203,-0.07470703
200,-47.0625,0,318.4375,-0.2504883,0.1333008,0.1171875,-0.1938477,-0.3217773,-0.07861328
204,-32.6875,5.375,314.625,-0.215332,0.08251953,0.08642578,-0.21875,-0.2983398,-0.08154297
208,-33.875,1,311.0625,-0.1611328,-0.02197266,0.08642578,-0.234375,-0.2817383,-0.08300781
212,-57.0625,-13.125,297.5625,-0.002441406,-0.1420898,0.02880859,-0.253418,-0.2568359,-0.08691406
216,-79.3125,-29.8125,279.4375,0.2529297,-0.5581055,0.09423828,-0.2709961,-0.2304688,-0.08837891
220,-93,-34.8125,241.8125,0.7529297,-0.2587891,0.2749023,-0.2792969,-0.2119141,-0.08837891
224,-89.6875,-32.5,233.6875,1.05127,-1.606934,0.09423828,-0.293457,-0.1870117,-0.08691406
228,-58.0625,-7,175.4375,1.535645,-2.019043,0.07519531,-0.3017578,-0.1645508,-0.09082031
232,-27.9375,19.5625,93.4375,1.674805,-1.886719,0.1904297,-0.3066406,-0.1557617,-0.08984375
236,2.875,11.1875,-33.3125,1.302734,-1.568359,0.2021484,-0.3081055,-0.1479492,-0.09228516
240,57.4375,-16.0625,-136.6875,1.035645,-1.098145,0.2519531,-0.3041992,-0.1557617,-0.09228516
244,78.9375,-18.4375,-167.5,0.7641602,-0.5073242,0.1904297,-0.3032227,-0.1669922,-0.08984375
248,69.75,-19.8125,-174.125,0.6791992,-0.1035156,0.04785156,-0.2949219,-0.1845703,-0.08447266
252,49.875,-17.625,-178.4375,0.6479492,-0.07226563,-0.01660156,-0.2875977,-0.203125,-0.08154297
256,51.125,-5,-175.0625,0.7373047,-0.04541016,-0.06298828,-0.2827148,-0.2143555,-0.07861328
260,44.625,3.0625,-212.6875,0.625,-0.04541016,0.105957,-0.2724609,-0.2304688,-0.07324219
265,57.1875,10.25,-223.375,0.4038086,-0.1928711,0.1132813,-0.2617188,-0.2519531,-0.07470703
269,66.4375,-4.3125,-247,0.1054688,0.1367188,0.02490234,-0.2519531,-0.2670898,-0.07177734
273,40.625,-30.4375,-271.8125,-0.01025391,0.3818359,-0.0859375,-0.234375,-0.2866211,-0.06640625
277,15.3125,-51.1875,-290.375,-0.1186523,0.2963867,-0.005371094,-0.215332,-0.3066406,-0.06396484
281,-2.6875,-65.5,-300.0625,-0.2348633,0.3310547,-0.009277344,-0.199707,-0.3208008,-0.05957031
285,-1.4375,-65.9375,-296.3125,-0.2851563,0.3120117,0.07519531,-0.1748047,-0.3393555,-0.05712891
289,-1.5625,-42.625,-273,-0.2734375,0.3857422,0.001953125,-0.1508789,-0.3544922,-0.05273438
293,23.0625,1.4375,-263.0625,-0.3320313,0.3388672,0.1518555,-0.1318359,-0.3618164,-0.05419922
297,40.1875,40.4375,-257.0625,-0.699707,0.4594727,-0.2167969,-0.1079102,-0.3730469,-0.05175781
301,37.6875,26.8125,-252.0625,-0.9248047,0.855957,-0.2246094,-0.08398438,-0.3803711,-0.05029297
305,-13.875,9.6875,-242.5625,-0.9829102,0.9296875,-0.324707,-0.06738281,-0.3867188,-0.05029297
309,-43.5,-9.125,-230.1875,-0.8745117,0.6420898,-0.1245117,-0.04248047,-0.390625,-0.05175781
313,-36.25,1.5,-232.625,-0.7617188,0.4399414,0.09814453,-0.02001953,-0.3930664,-0.05712891
317,-37.125,12.375,-255.125,-0.847168,0.5214844,-0.03222656,-0.003417969,-0.3945313,-0.05712891
321,0,15.8125,-265.8125,-1.044922,0.3544922,0.1635742,0.02246094,-0.3930664,-0.06103516
325,-4.875,7.4375,-274,-1.277344,0.6772461,-0.1054688,0.05224609,-0.3891602,-0.06103516
329,-36.125,19.625,-262.0625,-1.246094,0.7314453,-0.0859375,0.06787109,-0.3891602,-0.06396484
333,-63,54.5,-230.5625,-1.347168,0.6655273,-0.1054688,0.09277344,-0.3793945,-0.06396484
337,-76.875,74.4375,-218.8125,-1.35498,0.5527344,-0.09375,0.1142578,-0.3730469,-0.06933594
341,-39,79.5625,-238.125,-1.416992,0.3583984,0.02880859,0.1293945,-0.3657227,-0.07177734
345,9.3125,68.0625,-260.3125,-1.711426,0.6538086,-0.01318359,0.1508789,-0.3544922,-0.07177734
349,19.1875,42,-261.3125,-1.932129,1.09668,-0.04003906,0.1748047,-0.3408203,-0.06640625
353,14.125,23.625,-232.1875,-1.963379,1.057617,-0.01318359,0.1904297,-0.3305664,-0.06396484
357,32.125,29.25,-186.5,-1.78125,0.9101563,-0.005371094,0.2070313,-0.3168945,-0.05859375
361,55.375,45,-164.9375,-1.443848,0.9375,-0.1015625,0.2202148,-0.3041992,-0.05566406
365,49.4375,43.1875,-165.375,-1.366211,1.124023,-0.2553711,0.2294922,-0.2993164,-0.05175781
369,34.8125,24,-171.5625,-1.358887,1.158691,-0.2167969,0.2392578,-0.2866211,-0.04492188
373,32.1875,16.0625,-164.375,-1.331543,1.166504,-0.02441406,0.25,-0.2729492,-0.04052734
377,43.3125,14.375,-140.625,-1.37793,1.225098,0.09814453,0.2568359,-0.2670898,-0.03808594
381,53.25,12.5,-112.8125,-1.331543,1.317871,0.105957,0.2651367,-0.2543945,-0.03662109
385,54.375,11.3125,-82.875,-1.358887,1.430664,0.1479492,0.2709961,-0.2470703,-0.02978516
389,52.875,12.1875,-47.0625,-1.37793,1.411133,0.2368164,0.2724609,-0.2431641,-0.03125
394,54.5,14.1875,-3.625,-1.436035,1.333496,0.2709961,0.2758789,-0.2392578,-0.02734375
398,49.9375,8.75,32.3125,-1.339355,1.345215,0.2211914,0.2724609,-0.2407227,-0.02050781
402,44.5625,-3.375,49.8125,-1.261719,1.333496,0.1518555,0.2709961,-0.2416992,-0.01757813
406,44.125,-11.5625,65,-1.25,1.267578,0.1020508,0.2700195,-0.2470703,-0.01464844
410,43.25,-16.375,80.875,-1.28125,1.228516,0.02880859,0.2666016,-0.2529297,-0.01464844
414,40.75,-19.3125,95.4375,-1.296875,1.205566,-0.07080078,0.2617188,-0.2568359,-0.01464844
418,35.3125,-14.8125,108.25,-1.315918,1.205566,-0.1630859,0.2568359,-0.265625,-0.01464844
422,28.4375,-17.9375,124.6875,-1.505859,1.193848,-0.2324219,0.2485352,-0.2744141,-0.01220703
426,18.3125,-20.875,149.25,-1.575684,1.13916,-0.2670898,0.2436523,-0.2792969,-0.01074219
430,13.75,-24.3125,178.1875,-1.637695,1.007324,-0.2397461,0.234375,-0.2905273,-0.01220703
434,8.625,-17.9375,191.1875,-1.560059,0.9296875,-0.2436523,0.222168,-0.3041992,-0.01220703
438,1.625,-9.5625,197,-1.537109,0.8945313,-0.2705078,0.215332,-0.3144531,-0.01367188
442,-19.0625,-10.9375,187.3125,-1.657227,0.9140625,-0.3515625,0.2011719,-0.3266602,-0.01367188
446,-52.875,-42.1875,163.1875,-1.70752,0.9179688,-0.4667969,0.1855469,-0.3393555,-0.01904297
450,-69.1875,-66.9375,150.0625,-1.641602,0.5952148,-0.3862305,0.1772461,-0.3466797,-0.02294922
454,-43.5,-46.375,186.0625,-1.513672,0.3974609,-0.2089844,0.1630859,-0.3554688,-0.03271484
458,-21.75,-12.4375,224.875,-1.362793,0.4477539,-0.2475586,0.1450195,-0.3632813,-0.03808594
462,-29.5625,6.5,243.9375,-1.312012,0.5839844,-0.3208008,0.1308594,-0.3706055,-0.03955078
466,-49.125,-9.1875,240.75,-1.277344,0.4633789,-0.1938477,0.1069336,-0.3793945,-0.04199219
470,-43.125,-22.3125,230.5625,-1.044922,0.2495117,-0.04003906,0.08447266,-0.3881836,-0.04736328
474,-24.0625,-8.0625,228.5,-0.862793,0.2456055,0.03271484,0.06982422,-0.3891602,-0.04882813
478,-8.0625,7.75,230,-0.8818359,0.3544922,-0.005371094,0.04638672,-0.3916016,-0.05273438
482,-0.0625,1.75,234,-0.9829102,0.4013672,-0.02050781,0.02246094,-0.3945313,-0.05419922
486,-9.0625,-21.5,221.9375,-0.9868164,0.6342773,-0.0859375,0.008300781,-0.3945313,-0.05273438
490,-34.875,-63.4375,210.5,-0.9516602,0.6923828,-0.07470703,-0.01513672,-0.3916016,-0.05419922
494,-35.625,-66.1875,225.3125,-0.831543,0.4946289,0.07128906,-0.0390625,-0.3891602,-0.05859375
498,-5.5,-22.4375,266.5625,-0.7231445,0.4125977,0.2060547,-0.05566406,-0.3891602,-0.05566406
502,32.75,24.75,292.6875,-0.5952148,0.5371094,0.2060547,-0.08203125,-0.3803711,-0.05957031
506,49.1875,37.8125,278.75,-0.5292969,0.7197266,0.08642578,-0.109375,-0.371582,-0.05273438
510,46.4375,39.5625,272.875,-0.5175781,0.8168945,-0.009277344,-0.1269531,-0.3642578,-0.05175781
514,31.1875,36.625,272.625,-0.5410156,0.8867188,-0.08203125,-0.1518555,-0.3544922,-0.04736328
518,12,37.8125,285.625,-0.4633789,0.7626953,-0.08203125,-0.1782227,-0.3393555,-0.04882813
523,4.8125,44.0625,289.75,-0.2773438,0.5839844,-0.02441406,-0.1923828,-0.3266602,-0.04736328
527,0.6875,37.125,274.0625,-0.1572266,0.4555664,0.03662109,-0.215332,-0.3095703,-0.04882813
531,4.5625,43.3125,272.0625,-0.03320313,0.284668,0.09033203,-0.234375,-0.2895508,-0.05419922
535,-5.5625,39.625,287.375,0.04345703,0.07470703,0.001953125,-0.2470703,-0.2729492,-0.05419922
539,-42.3125,13.75,289.0625,0.3071289,-0.2587891,0.04052734,-0.2636719,-0.2480469,-0.05712891
543,-74.75,-16.875,271.375,0.8496094,-0.9619141,0.140625,-0.2792969,-0.2216797,-0.06396484
547,-97.3125,-48.125,227.0625,1.46582,-1.754883,0.2480469,-0.2866211,-0.2055664,-0.06103516
551,-82.9375,-46.5,151.8125,2.035156,-2.388184,0.4443359,-0.2998047,-0.1855469,-0.0625
555,-14.75,-17.125,23.1875,2.372559,-2.430664,0.7211914,-0.3066406,-0.1743164,-0.05957031
559,64.875,7.9375,-94.625,1.624512,-1.67334,0.5288086,-0.3041992,-0.1757813,-0.05859375
563,105.375,5.9375,-150.8125,0.9423828,-0.8803711,0.2094727,-0.3007813,-0.1855469,-0.05566406
567,97.75,-13.25,-165.9375,0.5473633,-0.1269531,-0.1899414,-0.2924805,-0.203125,-0.05419922
571,38.375,-37.25,-174.125,0.5009766,0.284668,-0.4282227,-0.2875977,-0.2158203,-0.04736328
575,-14.875,-45.1875,-183.4375,0.6518555,0.1254883,-0.2744141,-0.2792969,-0.2319336,-0.04492188
579,-24.5,-30.375,-201.25,0.7177734,-0.1347656,-0.01318359,-0.2675781,-0.2470703,-0.04199219
583,5.3125,-4.6875,-223.375,0.609375,-0.2587891,0.1635742,-0.2602539,-0.2592773,-0.04199219
587,49.375,21.6875,-233.75,0.3227539,-0.07226563,0.1289063,-0.2446289,-0.2783203,-0.04199219
591,66.9375,41.9375,-220.625,0.02050781,0.300293,-0.09765625,-0.2294922,-0.296875,-0.04052734
595,54.5,56.75,-195.625,-0.1381836,0.5605469,-0.2363281,-0.2163086,-0.3066406,-0.03955078
599,29.6875,52.5625,-191.0625,-0.328125,0.6499023,-0.1708984,-0.2021484,-0.3208008,-0.03955078
603,0.875,-4.4375,-232.4375,-0.4443359,0.7001953,-0.09765625,-0.1855469,-0.3330078,-0.03955078
607,-7.4375,-45.4375,-280.375,-0.28125,0.5449219,0.04443359,-0.1708984,-0.3432617,-0.04052734
611,19,-32.5,-294.4375,-0.3085938,0.3701172,0.1787109,-0.1450195,-0.3579102,-0.03955078
615,58,-1.6875,-282.8125,-0.5605469,0.5410156,0.06738281,-0.1186523,-0.371582,-0.03662109
619,55.875,11.5,-252.625,-0.8007813,0.9335938,-0.2055664,-0.09960938,-0.3793945,-0.02978516
623,9.625,-4.5,-240.1875,-0.9750977,1.09668,-0.3325195,-0.07568359,-0.3842773,-0.02734375
627,-45.8125,-54.5625,-250.125,-0.9711914,0.9643555,-0.2553711,-0.04980469,-0.3891602,-0.02587891
631,-74.4375,-84.5625,-263.6875,-0.715332,0.6538086,-0.09375,-0.03320313,-0.3945313,-0.03125
635,-64,-68.6875,-266.0625,-0.5488281,0.2456055,0.1328125,-0.0078125,-0.3945313,-0.04052734
639,-4.5,-27.6875,-274.6875,-0.6342773,0.03613281,0.2749023,0.02001953,-0.3945313,-0.04345703
643,42.75,2.25,-285.1875,-1.106934,0.5058594,-0.01660156,0.03808594,-0.3930664,-0.04345703
647,19.5,-6.75,-272.75,-1.475098,1.034668,-0.2978516,0.06542969,-0.390625,-0.03955078
652,-29.5,-28.8125,-249.8125,-1.509766,1.217285,-0.309082,0.09130859,-0.3842773,-0.04052734
656,-75.25,-31.25,-208,-1.315918,0.987793,-0.2089844,0.1069336,-0.3779297,-0.04199219
660,-102.5,-18.25,-177.6875,-1.044922,0.6030273,-0.1015625,0.1259766,-0.3730469,-0.05175781
664,-95.625,9.125,-172.8125,-0.8198242,0.1875,0.03271484,0.1425781,-0.3642578,-0.06103516
668,-51,44.9375,-202,-0.8276367,-0.08398438,0.1826172,0.1523438,-0.3554688,-0.06396484
672,-7.875,49.9375,-249.125,-1.28125,0.1098633,0.144043,0.1699219,-0.3457031,-0.06640625
676,3.4375,25.75,-282.75,-1.641602,0.4594727,0.08642578,0.1938477,-0.3291016,-0.0625
680,-6.25,-0.625,-281.4375,-1.901367,0.6420898,0.105957,0.2080078,-0.3168945,-0.06103516
684,-13.5625,-6.25,-245.1875,-1.815918,0.7001953,0.1171875,0.2270508,-0.296875,-0.06396484
688,-29.375,10.875,-203.9375,-1.65332,0.7314453,-0.005371094,0.2426758,-0.2792969,-0.06542969
692,-43.8125,18.875,-187.375,-1.509766,0.7080078,-0.06298828,0.2519531,-0.2695313,-0.06787109
696,-51.1875,18.4375,-196.25,-1.432129,0.7236328,0.01708984,0.2617188,-0.2529297,-0.06787109
700,-44.875,18.4375,-207.0625,-1.405273,0.7705078,0.09814453,0.2724609,-0.2358398,-0.06933594
704,-30.3125,21.5625,-189,-1.649414,0.8208008,0.2290039,0.2817383,-0.2246094,-0.06933594
708,-13.625,18.875,-141,-1.785156,0.9453125,0.3789063,0.2890625,-0.2070313,-0.06933594
712,-5.875,13.1875,-95.125,-1.723145,1.143066,0.3867188,0.2939453,-0.1967773,-0.06787109
716,-8.5,-2.375,-63.125,-1.62207,1.209473,0.3251953,0.2949219,-0.1918945,-0.06787109
720,-1.5,-8.8125,-37.5,-1.447754,1.150879,0.3598633,0.2998047,-0.1870117,-0.07080078
724,17.625,-0.5625,-6.125,-1.413086,1.077148,0.4213867,0.2973633,-0.1845703,-0.06787109
728,44.8125,7.6875,33.5,-1.443848,1.038574,0.4404297,0.2983398,-0.1845703,-0.06933594
732,60.75,15.875,67.8125,-1.447754,1.088867,0.355957,0.2973633,-0.1894531,-0.06396484
736,60.375,12.4375,93.875,-1.494141,1.100586,0.1826172,0.2949219,-0.1982422,-0.06103516
740,54.25,3.375,113.6875,-1.463379,1.026855,0.08251953,0.2900391,-0.203125,-0.05859375
744,57.25,2.1875,134.625,-1.447754,0.8710938,0.07519531,0.2866211,-0.2143555,-0.05419922
748,65.75,11.375,156.8125,-1.424316,0.8286133,0.03271484,0.2807617,-0.2270508,-0.05175781
752,62.9375,20,174.0625,-1.467285,0.8867188,-0.05908203,0.2749023,-0.2368164,-0.05029297
756,45.75,18.9375,186.0625,-1.537109,0.9140625,-0.1474609,0.2651367,-0.2543945,-0.04492188
760,21.5,12.125,197.0625,-1.649414,0.8789063,-0.1474609,0.2558594,-0.2705078,-0.04052734
764,8.5,6.8125,215.125,-1.641602,0.7587891,-0.07470703,0.2485352,-0.2817383,-0.03808594
768,-0.25,6.3125,232.25,-1.691895,0.7080078,-0.06689453,0.2319336,-0.296875,-0.03515625
772,-5.25,2,243.25,-1.746094,0.6694336,-0.05517578,0.2163086,-0.3144531,-0.03662109
776,-15.9375,-12.3125,248.5,-1.773438,0.7392578,-0.1552734,0.203125,-0.3256836,-0.03808594
781,-42.4375,-23.4375,253.8125,-1.672363,0.793457,-0.2592773,0.184082,-0.3417969,-0.04052734
785,-58.9375,-22.875,262.5,-1.486328,0.5800781,-0.2089844,0.1616211,-0.3544922,-0.04736328
789,-49.5625,-3.375,271.3125,-1.370117,0.4165039,-0.1401367,0.1450195,-0.3603516,-0.05175781
793,-39.875,15.4375,272.6875,-1.315918,0.5292969,-0.1474609,0.1186523,-0.3745117,-0.05566406
797,-47.875,19.4375,278.5625,-1.296875,0.5683594,-0.1669922,0.09277344,-0.3803711,-0.05957031
801,-62.0625,7.8125,273.375,-1.351074,0.5913086,-0.1166992,0.07714844,-0.3857422,-0.0625
805,-80.8125,-22.625,263.9375,-1.35498,0.6147461,-0.08984375,0.05078125,-0.3891602,-0.06933594
809,-77.5,-35.9375,263.3125,-1.172852,0.4594727,0.05957031,0.02490234,-0.3916016,-0.07763672
813,-58.6875,-31.125,266.625,-1.137695,0.5175781,0.04443359,0.004394531,-0.3881836,-0.08300781
817,-44.3125,-22.375,283.75,-1.141602,0.6108398,0.009765625,-0.02246094,-0.3867188,-0.08984375
821,-44.8125,-13.5625,301.6875,-1.12207,0.7158203,-0.009277344,-0.05224609,-0.3833008,-0.09228516
825,-50.375,-39.75,304.25,-1.114746,0.5371094,0.01708984,-0.07226563,-0.3779297,-0.09521484
829,-35.75,-55.8125,299.6875,-0.8276367,0.4086914,0.105957,-0.1030273,-0.3666992,-0.09667969
833,-20.75,-42.375,314.0625,-0.6767578,0.4204102,0.08251953,-0.1293945,-0.3554688,-0.09765625
837,-13.75,-21.1875,336.8125,-0.5371094,0.3427734,0.05957031,-0.1518555,-0.3466797,-0.09912109
841,-2.125,12.375,353.125,-0.3510742,0.2807617,0.09033203,-0.1816406,-0.3266602,-0.09765625
845,-3.8125,19.375,354.6875,-0.3125,0.1992188,0.07128906,-0.2089844,-0.3017578,-0.09765625
849,-8.6875,-0.9375,328.75,-0.09130859,0.03613281,0.08251953,-0.2270508,-0.2856445,-0.09765625
853,-0.4375,-9.875,293,0.1987305,-0.1928711,0.2133789,-0.2470703,-0.2592773,-0.09667969
857,23.25,2.5,272.125,0.2915039,-0.3442383,0.2519531,-0.2636719,-0.2382813,-0.09667969
861,26.4375,12.875,276.75,0.2646484,-0.2900391,0.1210938,-0.2734375,-0.2231445,-0.09521484
865,-6.625,0.125,275.25,0.4194336,-0.324707,0.03271484,-0.2866211,-0.1967773,-0.09375
869,-56.375,-23.4375,229.625,0.9775391,0.3466797,0.1171875,-0.2998047,-0.1704102,-0.09521484
873,-71.1875,-40.125,183.9375,1.411621,-1.572266,0.1098633,-0.3041992,-0.1557617,-0.09521484
877,-48.6875,-25.4375,108.875,1.787598,-2.108398,0.2827148,-0.3105469,-0.1367188,-0.09082031
881,7.75,5.875,24.6875,1.856934,-2.06543,0.3789063,-0.3125,-0.1279297,-0.09082031
885,44.5,17.875,-68.375,1.535645,-1.486816,0.2441406,-0.3139648,-0.1308594,-0.09228516
889,57.125,9.25,-134.375,1.105469,-0.9619141,0.1132813,-0.3115234,-0.1381836,-0.09082031
893,58.3125,9.375,-163.6875,0.8417969,-0.6240234,0.07128906,-0.3041992,-0.1557617,-0.09082031
897,52.1875,11.875,-174.5,0.6713867,-0.3173828,-0.03613281,-0.3017578,-0.1694336,-0.08984375
901,42.9375,20.75,-177.75,0.6518555,-0.2202148,-0.04394531,-0.2958984,-0.1845703,-0.09082031
905,41.625,40.75,-184.0625,0.543457,-0.1694336,-0.009277344,-0.2866211,-0.2055664,-0.09082031
910,41.5,44.125,-200,0.3339844,-0.08789063,0.005859375,-0.2792969,-0.2158203,-0.09375
914,44.6875,36.4375,-225.875,0.2451172,-0.04150391,0.07128906,-0.2675781,-0.2368164,-0.09375
918,53.1875,32.125,-246.75,0.05908203,0.01269531,0.07128906,-0.253418,-0.2583008,-0.09521484
922,75.625,38.4375,-247.4375,-0.1420898,0.1523438,0.03271484,-0.2402344,-0.2695313,-0.09228516
926,70.4375,41.75,-237.375,-0.362793,0.4946289,-0.1513672,-0.2211914,-0.2905273,-0.09228516
930,40.9375,23.75,-245.5625,-0.4829102,0.7197266,-0.2207031,-0.2045898,-0.3095703,-0.09082031
934,5.4375,-11.3125,-269.1875,-0.4985352,0.6108398,-0.1362305,-0.1914063,-0.3193359,-0.09082031
938,20.375,-11.5625,-292,-0.3935547,0.3271484,0.1367188,-0.1665039,-0.3369141,-0.08837891
942,70.5,6.0625,-297.1875,-0.7617188,0.4360352,0.09423828,-0.1411133,-0.3530273,-0.08544922
946,95.3125,9.9375,-273.1875,-1.009766,0.8286133,-0.07470703,-0.1235352,-0.3618164,-0.07861328
950,82.375,16.5625,-248.0625,-1.033203,1.104492,-0.309082,-0.09716797,-0.3730469,-0.07177734
954,27.8125,6.75,-238,-0.9750977,1.205566,-0.4555664,-0.07470703,-0.3833008,-0.06640625
958,-15.5625,-6.4375,-244.375,-0.8007813,0.7626953,-0.2246094,-0.05908203,-0.3842773,-0.06787109
962,11.75,0.125,-269.625,-0.6533203,0.2807617,0.07519531,-0.03515625,-0.390625,-0.06787109
966,82.5625,15.4375,-305,-0.8510742,0.2148438,0.1674805,-0.005859375,-0.3930664,-0.06542969
970,128.125,7.6875,-337.5625,-1.351074,0.8129883,-0.1591797,0.01660156,-0.3955078,-0.05712891
974,82.0625,-27.25,-327.625,-1.723145,1.523926,-0.4667969,0.04882813,-0.3916016,-0.04345703
978,-1.0625,-51.25,-284.125,-1.575684,1.430664,-0.3745117,0.08056641,-0.3857422,-0.04052734
982,-54.5,-36.75,-232.5625,-1.215332,0.9838867,-0.1552734,0.09619141,-0.3818359,-0.04345703
986,-45.375,-9.75,-210.1875,-0.9750977,0.3662109,0.1210938,0.1176758,-0.371582,-0.05029297
990,-1.625,15.6875,-225.125,-0.9711914,0.237793,0.1518555,0.1376953,-0.3657227,-0.05273438
994,32.125,10.5625,-264.875,-1.161133,0.4165039,0.1020508,0.1499023,-0.3579102,-0.05029297
998,45.1875,-10.4375,-300.8125,-1.471191,0.7158203,0.04443359,0.1748047,-0.3432617,-0.04638672
1002,36.6875,-32.75,-296.8125,-1.765625,0.8945313,0.03662109,0.2011719,-0.3266602,-0.04492188
1006,23.875,-35.25,-252.875,-1.703613,0.8828125,0.04785156,0.2163086,-0.3120117,-0.04492188
1010,11.6875,-19,-206,-1.494141,0.7895508,-0.08984375,0.2319336,-0.2954102,-0.04638672
1014,-3.4375,-9.1875,-193.9375,-1.319824,0.6772461,-0.2285156,0.2436523,-0.2832031,-0.04638672
1018,-19.75,-8.5,-211.125,-1.25,0.6186523,-0.2285156,0.253418,-0.2705078,-0.04736328
1022,-29.3125,-11.125,-229.5625,-1.405273,0.5800781,-0.07080078,0.2651367,-0.2519531,-0.05029297
1026,-19.75,-24.5,-226.125,-1.672363,0.5332031,0.140625,0.2773438,-0.2329102,-0.05419922
1030,1.8125,-31.4375,-206.6875,-1.668457,0.6459961,0.2675781,0.2832031,-0.2207031,-0.05419922
1034,30.875,-23.125,-182.875,-1.618164,0.9296875,0.2211914,0.2915039,-0.203125,-0.05712891
1039,47.875,-14.8125,-145.3125,-1.687988,1.279297,0.04052734,0.2998047,-0.1894531,-0.05859375
1043,39.3125,-3.375,-90.375,-1.687988,1.590332,-0.1323242,0.3022461,-0.1806641,-0.05566406
1047,19.75,4.75,-23.125,-1.727051,1.69873,-0.1821289,0.3032227,-0.1743164,-0.05566406
1051,3.0625,18.625,48.4375,-1.687988,1.590332,-0.05126953,0.3056641,-0.1743164,-0.05419922
1055,-1.9375,31.5625,107.9375,-1.715332,1.314453,0.125,0.3022461,-0.1791992,-0.05273438
1059,11.5625,30.4375,147.0625,-1.699707,1.100586,0.2636719,0.2983398,-0.1879883,-0.04882813
1063,32.125,22.9375,170.4375,-1.680176,0.9643555,0.3520508,0.2915039,-0.2045898,-0.04882813
1067,55.0625,19.625,185.125,-1.680176,0.9492188,0.3251953,0.2856445,-0.2143555,-0.04492188
1071,69.0625,17.0625,204.375,-1.788574,1.045898,0.1943359,0.2792969,-0.2319336,-0.04052734
1075,58.75,21.5,236.25,-1.847168,1.162598,0.01708984,0.269043,-0.2529297,-0.03369141
1079,28.1875,24.375,268.3125,-1.897461,1.135742,-0.112793,0.2592773,-0.265625,-0.03271484
1083,8.1875,17.1875,284.5625,-1.847168,0.9838867,-0.0859375,0.2412109,-0.2856445,-0.02734375
1087,-2.5,12.75,292.1875,-1.742188,0.8208008,-0.07470703,0.2236328,-0.3081055,-0.02587891
1091,-11.4375,12.75,289.3125,-1.645508,0.8051758,-0.1591797,0.2080078,-0.3217773,-0.02587891
1095,-29.5625,3.75,279.6875,-1.699707,0.8129883,-0.2285156,0.1855469,-0.3393555,-0.02587891
1099,-45.375,-11.6875,273.5625,-1.839355,0.7705078,-0.2475586,0.1616211,-0.3544922,-0.02978516
1103,-31.9375,-14.1875,289.375,-1.606445,0.5488281,-0.1401367,0.1450195,-0.3632813,-0.03271484
1107,-17.5625,6.0625,304.6875,-1.533203,0.5800781,-0.2475586,0.1186523,-0.3754883,-0.03662109
1111,-31.5625,13.6875,309.875,-1.591309,0.7739258,-0.4169922,0.09130859,-0.3857422,-0.03662109
1115,-70.8125,-10.1875,294.5,-1.595215,0.8051758,-0.4516602,0.06787109,-0.3881836,-0.03955078
1119,-97.8125,-33.5,277.375,-1.498047,0.5952148,-0.3515625,0.0390625,-0.3930664,-0.04882813
1123,-87,-29.0625,281.875,-1.285156,0.315918,-0.109375,0.01074219,-0.3955078,-0.05859375
1127,-60.5625,-2.1875,304,-1.227051,0.300293,-0.07861328,-0.006835938,-0.3916016,-0.06396484
1131,-57,9.0625,333.5625,-1.195801,0.3818359,-0.1821289,-0.04150391,-0.3891602,-0.07080078
1135,-59.3125,18.375,343.0625,-0.9790039,0.2768555,-0.109375,-0.07226563,-0.3803711,-0.07470703
1139,-58.125,15.9375,334.0625,-0.878418,0.2265625,-0.1015625,-0.09619141,-0.3730469,-0.08007813
1143,-67.0625,-4,315.1875,-0.6728516,0.1875,-0.1054688,-0.1259766,-0.359375,-0.08691406
1147,-74.0625,-10.125,303.375,-0.5952148,0.1953125,-0.06298828,-0.1542969,-0.3457031,-0.09082031
1151,-76,-8.4375,309.5,-0.5722656,0.1601563,-0.06298828,-0.1699219,-0.3344727,-0.09667969
1155,-71.125,6.375,328,-0.3974609,0.04394531,0.03662109,-0.1972656,-0.3129883,-0.09912109
1159,-62.1875,17.875,330.6875,-0.2348633,0.01269531,0.07128906,-0.222168,-0.2866211,-0.105957
1163,-60.1875,10.1875,304.625,0.0009765625,0.1293945,0.1674805,-0.237793,-0.2695313,-0.1088867
1168,-49.4375,-4.875,262.5,0.2104492,-0.08398438,0.2250977,-0.2543945,-0.2456055,-0.112793
1172,-33.8125,-13.5625,234.5,0.2104492,-0.1269531,0.2250977,-0.2709961,-0.2231445,-0.112793
1176,-23.8125,-10.9375,233.8125,0.2875977,-0.1733398,0.2211914,-0.2783203,-0.2070313,-0.112793
1180,-23,-7.75,238.8125,0.4116211,-0.3676758,0.1748047,-0.2890625,-0.1855469,-0.112793
1184,-31.375,-14.3125,229.25,0.6948242,-0.7094727,0.140625,-0.2973633,-0.1621094,-0.112793
1188,-36,-29.1875,190.4375,0.9389648,-1.284668,0.1171875,-0.3032227,-0.1469727,-0.1113281
1192,-23.5625,-25.125,131.375,1.399902,-1.432129,0.2441406,-0.3081055,-0.1269531,-0.1088867
1196,5.8125,-10.4375,69.25,1.504395,-1.599121,0.2983398,-0.3115234,-0.1181641,-0.1074219
1200,30.9375,-0.8125,0.625,1.477539,-1.401367,0.2368164,-0.3125,-0.1181641,-0.1074219
1204,43.75,-4.25,-72.6875,1.333984,-1.066895,0.1479492,-0.3105469,-0.1181641,-0.105957
1208,52,-6.375,-126.5,1.09375,-0.8066406,0.09423828,-0.3105469,-0.1269531,-0.1035156
1212,62,-4.9375,-155.5625,0.8999023,-0.6044922,0.04443359,-0.3081055,-0.1396484,-0.1035156
1216,65.6875,1.0625,-169.9375,0.7836914,-0.4140625,-0.03222656,-0.3032227,-0.1567383,-0.1020508
1220,63.9375,10.5625,-182.4375,0.7333984,-0.2783203,-0.08984375,-0.2958984,-0.1757813,-0.1005859
1224,60.25,23.6875,-198.0625,0.6791992,-0.2202148,-0.09375,-0.2924805,-0.1879883,-0.09765625
1228,62.0625,36.1875,-219.8125,0.4892578,-0.1694336,-0.03222656,-0.2807617,-0.2080078,-0.09765625
1232,63.4375,33,-236.3125,0.2607422,-0.01416016,-0.05517578,-0.2675781,-0.2304688,-0.1005859
1236,55,32.5625,-241.5,0.1054688,0.1640625,-0.1054688,-0.2578125,-0.2456055,-0.09912109
1240,44.125,39.375,-237.3125,0.02832031,0.2109375,-0.08984375,-0.2426758,-0.2641602,-0.09912109
1244,50.3125,54.0625,-232.125,0.004882813,0.1137695,0.03271484,-0.2280273,-0.2866211,-0.1020508
1248,82.1875,74.375,-238,-0.09130859,0.1601563,0.1171875,-0.2128906,-0.296875,-0.1005859
1252,85.5,62.5625,-257.8125,-0.4443359,0.4829102,0.001953125,-0.1923828,-0.3168945,-0.09912109
1256,69.25,18.8125,-279.375,-0.6225586,0.7431641,0.03662109,-0.1699219,-0.3344727,-0.09375
1260,67.25,-4.625,-281.125,-0.796875,0.8208008,0.04785156,-0.1518555,-0.3457031,-0.09228516
1264,77.8125,2.875,-259.25,-0.8354492,0.855957,0.09423828,-0.1293945,-0.359375,-0.08300781
1268,102.5,20.4375,-230.8125,-0.9326172,1.049805,-0.04736328,-0.1044922,-0.371582,-0.08007813
1272,90.625,23.75,-205.5625,-1.052734,1.49707,-0.3901367,-0.09130859,-0.3754883,-0.07080078
1276,32.625,10.9375,-184.125,-0.9790039,1.664063,-0.5629883,-0.07226563,-0.3833008,-0.06542969
1280,-3.625,14.6875,-177.0625,-0.699707,1.314453,-0.2861328,-0.05224609,-0.3867188,-0.0625
1284,5.5,23.125,-186.5,-0.715332,1.09668,-0.1362305,-0.04003906,-0.3891602,-0.06103516
1288,20.8125,13.8125,-198.5625,-0.831543,1.154785,-0.1401367,-0.02099609,-0.3916016,-0.06396484
1292,13.9375,-1.4375,-203.25,-0.847168,1.174316,-0.1821289,-0.001953125,-0.3930664,-0.05859375
1297,2.1875,-5.5625,-200.625,-0.7504883,0.9682617,-0.09765625,0.01171875,-0.3945313,-0.05957031
1301,-0.8125,-2.875,-194.9375,-0.7504883,0.7001953,-0.009277344,0.03173828,-0.3916016,-0.06103516
1305,5.75,-0.6875,-196.375,-0.6728516,0.4321289,0.06738281,0.04980469,-0.3916016,-0.05957031
1309,25.125,1.8125,-212.9375,-0.6533203,0.2416992,0.1098633,0.06298828,-0.3881836,-0.05712891
1313,49.5,-3.3125,-241.75,-0.7387695,0.1640625,0.1098633,0.08544922,-0.3833008,-0.05712891
1317,81.0625,-16.375,-286.6875,-0.8745117,0.253418,0.08642578,0.1103516,-0.3769531,-0.05029297
1321,98.625,-37.875,-326,-1.273438,0.4907227,-0.07080078,0.1293945,-0.3706055,-0.04736328
1325,84.8125,-58.4375,-329.25,-1.537109,0.6962891,-0.2207031,0.1582031,-0.3544922,-0.04052734
1329,53.6875,-55.75,-302.3125,-1.533203,0.7548828,-0.2783203,0.1831055,-0.3393555,-0.03808594
1333,25.0625,-35.5,-273.1875,-1.439941,0.6420898,-0.3012695,0.2011719,-0.3256836,-0.03515625
1337,7.0625,-18.875,-267.8125,-1.335449,0.5605469,-0.2939453,0.21875,-0.3081055,-0.03662109
1341,-1.8125,-9.6875,-294.25,-1.277344,0.6303711,-0.2861328,0.2392578,-0.2866211,-0.03808594
1345,-11.625,-12.0625,-321.5,-1.494141,0.8168945,-0.2822266,0.2509766,-0.2719727,-0.03955078
1349,-32.875,-17.8125,-311.75,-1.986328,0.9916992,-0.2436523,0.2709961,-0.2470703,-0.04052734
1353,-51.8125,-27.75,-213.6875,-2.304199,1.01123,-0.07861328,0.2856445,-0.2192383,-0.04492188
1357,-55.0625,-14.0625,-106.375,-1.982422,1.182129,0.09423828,0.2900391,-0.2094727,-0.04882813
1361,-30,10.25,-42.9375,-1.606445,1.12793,0.1904297,0.2939453,-0.203125,-0.05273438
1365,2.5625,25,-15.5625,-1.475098,1.154785,0.2519531,0.2949219,-0.1992188,-0.05175781
1369,18.25,23.25,9.75,-1.533203,1.236328,0.2172852,0.2963867,-0.1982422,-0.04736328
1373,19.375,15,39.6875,-1.479004,1.186035,0.2402344,0.2939453,-0.1992188,-0.04492188
1377,21.75,10.375,63.875,-1.358887,1.049805,0.2944336,0.2924805,-0.2045898,-0.04492188
1381,31.8125,3.5625,77.5625,-1.273438,0.9414063,0.3095703,0.2900391,-0.2094727,-0.04052734
1385,44.5,-4.875,83.4375,-1.246094,0.8867188,0.2944336,0.2866211,-0.2158203,-0.04052734
1389,57.0625,-12.1875,83,-1.223145,0.8789063,0.2133789,0.2832031,-0.2255859,-0.04052734
1393,68,-17.75,78.9375,-1.265625,0.9140625,0.1210938,0.2817383,-0.2280273,-0.03808594
1397,77.5,-20.125,85.6875,-1.471191,0.987793,-0.03222656,0.2758789,-0.2358398,-0.03515625
1401,74.375,-16.625,115.9375,-1.629883,1.116211,-0.1938477,0.2709961,-0.2416992,-0.03271484
1405,56.625,-9.625,157.4375,-1.723145,1.17041,-0.3286133,0.269043,-0.2519531,-0.02832031
1409,31.5,-0.875,194.3125,-1.82373,1.178223,-0.4399414,0.2568359,-0.265625,-0.02978516
1413,-0.4375,5,229.1875,-1.889648,1.143066,-0.4628906,0.2451172,-0.2817383,-0.02587891
1417,-43.3125,-4.0625,248.125,-2.071777,1.12793,-0.5053711,0.2368164,-0.2954102,-0.02832031
1421,-88,-38.5,261.1875,-2.168457,0.90625,-0.4746094,0.2177734,-0.3129883,-0.03271484
1426,-96.9375,-52.0625,286.9375,-1.92041,0.4477539,-0.2285156,0.1962891,-0.3305664,-0.04345703
1430,-66.4375,-30.875,298.5,-1.587402,0.2226563,-0.05517578,0.1806641,-0.3408203,-0.04882813
1434,-42.0625,-12.8125,286.625,-1.541016,0.3349609,-0.09765625,0.1533203,-0.3569336,-0.05566406
1438,-51.5,-18.625,277.25,-1.687988,0.5913086,-0.2475586,0.1293945,-0.3691406,-0.05957031
1442,-92.9375,-52.625,266.0625,-1.742188,0.6811523,-0.3325195,0.1118164,-0.3745117,-0.06542969
1446,-129.5625,-93.8125,244.6875,-1.665039,0.5800781,-0.2978516,0.08447266,-0.3818359,-0.07763672
1450,-124.625,-98.25,264.9375,-1.498047,0.2226563,-0.06298828,0.06054688,-0.3842773,-0.09375
1454,-66,-44.625,308.4375,-1.203613,0.0009765625,0.2133789,0.04052734,-0.3842773,-0.1005859
1458,-22.5625,-8.75,339.5,-1.114746,0.02050781,0.1020508,0.008300781,-0.3842773,-0.105957
1462,9.8125,16.8125,337.875,-0.7543945,0.08642578,0.1674805,-0.02685547,-0.3842773,-0.1088867
1466,22,29.3125,321.3125,-0.8354492,0.2651367,0.06347656,-0.04589844,-0.3793945,-0.1074219
1470,9.125,31.25,327.5625,-0.8588867,0.4672852,-0.009277344,-0.078125,-0.371582,-0.105957
1474,-13.5,36.1875,342.375,-0.7890625,0.5136719,0.009765625,-0.1079102,-0.3642578,-0.105957
1478,-24.1875,43.5625,350.8125,-0.78125,0.4594727,0.09423828,-0.128418,-0.3530273,-0.1088867
1482,-15.6875,51.5625,369.4375,-0.6416016,0.2963867,0.2329102,-0.1601563,-0.3369141,-0.1113281
1486,4.375,61.4375,377.375,-0.4365234,0.237793,0.2905273,-0.1875,-0.3144531,-0.112793
1490,12.375,52.3125,366.875,-0.3007813,0.21875,0.2636719,-0.2080078,-0.296875,-0.1142578
1494,2.125,24.5625,344.125,-0.1728516,0.203125,0.1826172,-0.2294922,-0.2729492,-0.1166992
1498,-25.75,-3.9375,322.125,-0.02197266,0.03613281,0.08642578,-0.2519531,-0.2456055,-0.1181641
1502,-54.125,-18.5,308.875,0.2333984,-0.371582,0.144043,-0.2651367,-0.2270508,-0.1196289
1506,-64.4375,-27.9375,286.875,0.5161133,-0.8647461,0.2172852,-0.2792969,-0.1992188,-0.1166992
1510,-62.9375,-29.25,255.1875,0.8110352,-1.323242,0.2519531,-0.2915039,-0.171875,-0.1181641
1514,-44.75,-30.3125,201.125,1.198242,-1.875,0.3481445,-0.2973633,-0.1533203,-0.1196289
1518,-19.4375,-26.6875,122.1875,1.550781,-2.069336,0.3598633,-0.3041992,-0.1381836,-0.1157227
1522,-1.3125,-21.4375,24.25,1.670898,-1.956543,0.2866211,-0.3066406,-0.1279297,-0.1142578
1526,18.625,-30.375,-89.75,1.539551,-1.630371,0.2788086,-0.3056641,-0.1293945,-0.1113281
1530,37.3125,-35.75,-170.25,1.132324,-1.276855,0.2368164,-0.3041992,-0.1420898,-0.1098633
1534,53.4375,-34.5625,-207.4375,0.7680664,-0.8574219,0.1748047,-0.2983398,-0.1591797,-0.1044922
1538,57.5625,-31.1875,-221.25,0.5859375,-0.519043,0.02099609,-0.2949219,-0.1767578,-0.1020508
1542,48.25,-16.5,-224.3125,0.578125,-0.2822266,-0.0859375,-0.2851563,-0.1992188,-0.09667969
1546,33.0625,3.4375,-232.9375,0.5009766,-0.1772461,-0.1054688,-0.2768555,-0.2192383,-0.09375
1550,28,9.1875,-259.0625,0.4038086,-0.1811523,-0.02050781,-0.2675781,-0.234375,-0.09228516
1555,40.3125,10.3125,-289.1875,0.159668,-0.1269531,0.05957031,-0.2509766,-0.2583008,-0.09375
1559,56.5625,-1,-292.6875,-0.2773438,0.15625,0.01367188,-0.2329102,-0.2817383,-0.09082031
1563,49,1.3125,-270.1875,-0.3242188,0.4516602,-0.07080078,-0.2172852,-0.2954102,-0.08837891
1567,44.9375,21.4375,-268.4375,-0.28125,0.4985352,-0.009277344,-0.1982422,-0.3168945,-0.08837891
1571,30.875,30.75,-272.625,-0.4091797,0.6459961,-0.03613281,-0.1733398,-0.3320313,-0.08447266
1575,20.3125,23,-294.75,-0.4287109,0.5371094,0.1943359,-0.1582031,-0.3442383,-0.08447266
1579,54.5,8.3125,-327.4375,-0.5756836,0.2768555,0.2441406,-0.1303711,-0.359375,-0.08300781
1583,130.5,12.6875,-349.0625,-0.7851563,0.4750977,0.09423828,-0.09960938,-0.3745117,-0.07617188
1587,142.5625,18.5625,-344.8125,-1.184082,1.236328,-0.3706055,-0.078125,-0.3818359,-0.06787109
1591,58.25,-9.875,-284.8125,-1.517578,1.671875,-0.6821289,-0.04394531,-0.390625,-0.05273438
1595,-45.375,-38.5,-233.1875,-1.257813,1.430664,-0.4628906,-0.01855469,-0.3930664,-0.05273438
1599,-94.0625,-38.9375,-212.875,-0.9013672,0.8481445,-0.05908203,-0.003417969,-0.3945313,-0.05859375
1603,-51.5,-21.5,-237.0625,-0.6923828,0.3193359,0.2558594,0.01757813,-0.3916016,-0.06787109
1607,32.0625,8.1875,-263.4375,-0.8974609,0.4086914,0.1171875,0.04248047,-0.390625,-0.06787109
1611,51.125,7.5625,-271.4375,-1.15332,0.6962891,-0.07080078,0.06054688,-0.3881836,-0.06542969
1615,30.625,-12.375,-261.9375,-1.385742,0.8364258,-0.1166992,0.08789063,-0.3842773,-0.05957031
1619,-7.125,-33.125,-237,-1.292969,0.7353516,-0.07470703,0.1103516,-0.3754883,-0.06103516
1623,-28,-32.875,-226.5625,-1.091309,0.4086914,0.01708984,0.1269531,-0.371582,-0.05957031
1627,-4,-17.25,-245.5,-0.9594727,0.08251953,0.1171875,0.1450195,-0.3603516,-0.06396484
1631,46.4375,-1.6875,-288.5625,-1.129883,0.1484375,0.03271484,0.1689453,-0.3466797,-0.0625
1635,52.1875,4.625,-323.9375,-1.358887,0.4516602,-0.1362305,0.1855469,-0.3369141,-0.06103516
1639,21.25,8.875,-333.1875,-1.614258,0.5292969,-0.2167969,0.2119141,-0.3154297,-0.05712891
1643,-2.625,16.3125,-308.625,-1.742188,0.4555664,-0.2167969,0.2329102,-0.2919922,-0.05273438
1647,3.1875,8.25,-270.625,-1.723145,0.4013672,-0.2324219,0.2485352,-0.2768555,-0.05566406
1651,6.0625,12.125,-238.5625,-1.610352,0.4282227,-0.1899414,0.2641602,-0.2558594,-0.05175781
1655,0.125,13.1875,-223.9375,-1.567871,0.4790039,-0.2207031,0.2749023,-0.2368164,-0.05029297
1659,-13.125,11.6875,-223.5625,-1.505859,0.5214844,-0.1513672,0.2832031,-0.2216797,-0.05029297
1663,-14.3125,16.75,-219.75,-1.513672,0.4633789,-0.009277344,0.2924805,-0.203125,-0.05175781
1667,-3.1875,22,-200,-1.695801,0.4633789,0.1098633,0.3007813,-0.1821289,-0.05029297
1671,11.3125,16.75,-161.5,-1.854492,0.6030273,0.1982422,0.3071289,-0.1704102,-0.04882813
1675,17.8125,8.875,-123.3125,-1.765625,0.8051758,0.1982422,0.3115234,-0.1557617,-0.05029297
1679,15.125,-3.625,-99.6875,-1.657227,0.956543,0.1171875,0.3129883,-0.1430664,-0.04492188
1684,14.4375,-12.25,-88.125,-1.603027,1.069336,0.1479492,0.3154297,-0.1396484,-0.04638672
1688,22.625,-14.9375,-55.9375,-1.79248,1.077148,0.2290039,0.3164063,-0.1308594,-0.04882813
1692,37.75,-13.625,5,-1.908691,1.104492,0.2597656,0.3198242,-0.1269531,-0.04736328
1696,36.5625,-6.4375,69.25,-1.92041,1.178223,0.1674805,0.3154297,-0.1293945,-0.04882813
1700,22.375,-5.375,118.8125,-1.897461,1.158691,0.05175781,0.3154297,-0.1381836,-0.05029297
1704,4.4375,-9.125,156.4375,-1.897461,1.04248,0.02099609,0.3105469,-0.1518555,-0.04736328
1708,-11.875,-17.625,187.9375,-1.943848,0.9375,0.01708984,0.3081055,-0.1630859,-0.04882813
1712,-18.4375,-25.1875,218,-1.908691,0.6772461,0.07128906,0.3007813,-0.1791992,-0.05273438
1716,-3.3125,-12.9375,240.9375,-1.788574,0.5019531,0.125,0.2939453,-0.2016602,-0.05419922
1720,11.875,1.6875,255.4375,-1.835449,0.4907227,0.05566406,0.2880859,-0.2158203,-0.05419922
1724,8.0625,1.3125,259.75,-1.908691,0.5878906,-0.08984375,0.2749023,-0.2407227,-0.05273438
1728,-14.75,-11.4375,261.3125,-1.990234,0.6225586,-0.2128906,0.2592773,-0.2631836,-0.05273438
1732,-41.9375,-29.5625,264.125,-1.970703,0.5136719,-0.3208008,0.25,-0.2768555,-0.05419922
1736,-58.8125,-40.3125,268.125,-1.812012,0.3818359,-0.2900391,0.230957,-0.296875,-0.06103516
1740,-51.25,-26.5,284.8125,-1.625977,0.1757813,-0.1323242,0.2128906,-0.3144531,-0.06933594
1744,-39.625,-5.375,297.9375,-1.509766,0.21875,-0.1591797,0.1962891,-0.328125,-0.07177734
1748,-49.6875,-0.125,300.8125,-1.486328,0.2963867,-0.1899414,0.1723633,-0.3442383,-0.07763672
1752,-66.875,-11.9375,293,-1.432129,0.284668,-0.1362305,0.1450195,-0.359375,-0.08154297
1756,-74,-26.6875,284,-1.32373,0.1333008,-0.02441406,0.1269531,-0.3642578,-0.08691406
1760,-58,-25.3125,275.25,-1.165039,0.06298828,0.1098633,0.1035156,-0.3745117,-0.09521484
1764,-40.6875,-16.375,275.3125,-1.087402,0.1679688,0.05175781,0.07470703,-0.3793945,-0.1005859
1768,-41.75,-12.5,276.75,-1.037109,0.2885742,-0.02441406,0.05712891,-0.3803711,-0.1035156
1772,-42.5625,-11.875,266.4375,-1.033203,0.3193359,0.02099609,0.02832031,-0.3833008,-0.1074219
1776,-39.875,-19.625,260.75,-1.091309,0.4013672,0.009765625,0.003417969,-0.3857422,-0.112793
1780,-42,-29,262.6875,-1.033203,0.4594727,-0.01660156,-0.01416016,-0.3818359,-0.1142578
1784,-42.125,-25,272,-0.8745117,0.4204102,0.01708984,-0.04150391,-0.3793945,-0.1196289
1788,-27.25,-16.3125,272.125,-0.7851563,0.3662109,0.07519531,-0.06738281,-0.371582,-0.1210938
1792,-14.5,-8.25,274.5,-0.7387695,0.4750977,0.04785156,-0.08300781,-0.3666992,-0.1210938
1796,-6.6875,-5.75,266.5,-0.7192383,0.5214844,0.105957,-0.1103516,-0.3579102,-0.1235352
1800,-1.6875,-3.8125,270.9375,-0.6069336,0.5332031,0.08251953,-0.1352539,-0.3466797,-0.1210938
1804,2.1875,1.875,268.375,-0.5292969,0.5292969,0.09033203,-0.1508789,-0.3378906,-0.1210938
1808,1.5625,4.4375,275.125,-0.4052734,0.4477539,0.1171875,-0.1723633,-0.3232422,-0.1210938
1813,-8.25,5.8125,272.25,-0.230957,0.3701172,0.1171875,-0.1962891,-0.3056641,-0.1196289
1817,-31.875,-10.625,263.4375,-0.06445313,0.04003906,0.2441406,-0.206543,-0.2929688,-0.1210938
1821,-68.875,-39.4375,236.375,0.3188477,-0.1230469,0.2368164,-0.2280273,-0.2753906,-0.1225586
1825,-57.25,-44.1875,206,0.8339844,-1.040039,0.4599609,-0.2436523,-0.2529297,-0.1225586
1829,-38.6875,-35.375,206.3125,1.481445,-1.432129,0.3134766,-0.253418,-0.2416992,-0.1235352
1833,-46.1875,-30,171.0625,2.108887,-2.034668,0.02490234,-0.2651367,-0.2255859,-0.1225586
1837,-59.3125,-27,62.5625,2.5625,-2.321777,0.005859375,-0.2724609,-0.2128906,-0.1235352
1841,-15.125,-21.125,-110.5625,2.372559,-2.131836,0.2944336,-0.2724609,-0.2104492,-0.1225586
1845,67.5,10.6875,-199.125,1.469727,-1.533203,0.3520508,-0.2661133,-0.2216797,-0.1225586
1849,113.375,38,-205.875,0.8417969,-0.7172852,-0.005371094,-0.253418,-0.2416992,-0.1181641
1853,79.9375,22.6875,-222.1875,0.4697266,-0.01025391,-0.3325195,-0.2446289,-0.2568359,-0.1166992
1857,19.375,-18.5,-242.5,0.2607422,0.1523438,-0.3012695,-0.2294922,-0.2753906,-0.112793
1861,-12.3125,-27.3125,-248.3125,0.3149414,-0.03759766,-0.0859375,-0.2138672,-0.2944336,-0.112793
1865,2.6875,0.5625,-238.875,0.2724609,-0.2509766,0.1132813,-0.2006836,-0.3041992,-0.112793
1869,33.0625,37.5625,-222.6875,0.05517578,-0.1420898,0.1098633,-0.1831055,-0.3193359,-0.112793
1873,52.25,63.25,-200.5,-0.1884766,0.05908203,0.05175781,-0.1625977,-0.3344727,-0.112793
1877,78.8125,86.4375,-171.5,-0.3432617,0.03613281,0.1171875,-0.1518555,-0.3432617,-0.1098633
1881,110.125,96.875,-161.4375,-0.5605469,0.2299805,0.09814453,-0.1342773,-0.3491211,-0.1074219
1885,104.125,77.625,-187.5625,-0.699707,0.4086914,-0.109375,-0.1152344,-0.3632813,-0.1005859
1889,25.6875,55.125,-252.4375,-0.7890625,0.7739258,-0.2436523,-0.1010742,-0.3666992,-0.09667969
1893,-4.3125,-12.5625,-290.75,-0.9633789,0.5058594,-0.06689453,-0.07568359,-0.3769531,-0.09765625
1897,45.4375,-8.875,-288,-0.7929688,0.1254883,0.3481445,-0.04736328,-0.3818359,-0.09667969
1901,119.75,34.3125,-295.6875,-0.9790039,0.3271484,0.144043,-0.02685547,-0.3857422,-0.09228516
1905,138.25,35.5625,-287.125,-1.471191,0.8945313,-0.2705078,0.002441406,-0.390625,-0.07861328
1909,84.75,-9.75,-270.875,-1.57959,1.411133,-0.6132813,0.02978516,-0.3930664,-0.06787109
1913,-29.0625,-46.5,-238.625,-1.370117,1.259766,-0.5361328,0.04882813,-0.390625,-0.06396484
1917,-75.5625,-46.1875,-211.875,-0.9907227,0.5800781,-0.1782227,0.07128906,-0.3857422,-0.06787109
1921,-50,-0.625,-204.1875,-0.8276367,0.05517578,0.05566406,0.08886719,-0.3793945,-0.07617188
1925,18.4375,40.5625,-231.375,-0.9829102,-0.1499023,0.1826172,0.1035156,-0.3754883,-0.08007813
1929,91.8125,43,-280.25,-1.436035,0.1835938,0.04052734,0.1259766,-0.3681641,-0.07177734
1933,91.6875,5.3125,-310.25,-1.850586,0.6772461,-0.1362305,0.1523438,-0.3554688,-0.0625
1937,54.75,-31.6875,-304.625,-2.052246,0.8051758,-0.08203125,0.1713867,-0.3491211,-0.05566406
1942,21.875,-40.1875,-266.5625,-1.819824,0.7431641,-0.06298828,0.1948242,-0.3291016,-0.05712891
1946,-1.4375,-20.8125,-240.6875,-1.498047,0.4985352,-0.109375,0.2138672,-0.3144531,-0.05712891
1950,4.875,-2.375,-246.4375,-1.374023,0.2963867,-0.1474609,0.2260742,-0.3007813,-0.05859375
1954,24.6875,27.875,-273.9375,-1.436035,0.4125977,-0.07861328,0.2426758,-0.2832031,-0.05712891
1958,47.9375,38.9375,-275.25,-1.932129,0.6577148,-0.1166992,0.2592773,-0.2607422,-0.05175781
1962,58.1875,18.3125,-225.8125,-2.137695,1.04248,-0.1323242,0.2709961,-0.2470703,-0.04492188
1966,34.4375,15.1875,-155,-1.916504,1.267578,-0.2592773,0.2807617,-0.2294922,-0.04199219
1970,-4.8125,25.1875,-107.8125,-1.606445,1.32959,-0.3051758,0.2856445,-0.2167969,-0.04052734
1974,-24.875,26.125,-83.125,-1.595215,1.259766,-0.2592773,0.2890625,-0.2104492,-0.03955078
1978,-33.5,24,-58.375,-1.599121,1.291016,-0.05517578,0.2939453,-0.203125,-0.03808594
1982,-24.5,23.625,-22.6875,-1.711426,1.225098,0.1367188,0.2939453,-0.1967773,-0.03662109
1986,-6.375,21.125,15.875,-1.738281,1.291016,0.2021484,0.2949219,-0.1992188,-0.03662109
1990,5.3125,17.0625,58.4375,-1.757813,1.291016,0.1132813,0.2963867,-0.2006836,-0.03515625
1994,13.5,13.5,101.1875,-1.719238,1.36084,0.04052734,0.2924805,-0.2070313,-0.03369141
1998,14,14.1875,134.625,-1.649414,1.356934,-0.05517578,0.2866211,-0.2158203,-0.03271484
2002,6.3125,10.125,159.6875,-1.637695,1.337402,-0.112793,0.2807617,-0.2280273,-0.03125
2006,-8.25,0.3125,180.4375,-1.680176,1.244141,-0.1206055,0.2734375,-0.2416992,-0.02978516
2010,-23.9375,-7.25,197.25,-1.645508,1.166504,-0.1513672,0.2651367,-0.2543945,-0.02832031
2014,-32.6875,-18.3125,214.5,-1.687988,0.9799805,-0.1401367,0.2568359,-0.2705078,-0.03125
2018,-33.4375,-21.1875,237.3125,-1.603027,0.8012695,-0.1015625,0.2412109,-0.2856445,-0.03369141
2022,-33.0625,-20.6875,247.9375,-1.560059,0.7587891,-0.1362305,0.2294922,-0.2993164,-0.03662109
2026,-39.9375,-29.375,244.3125,-1.567871,0.7314453,-0.1591797,0.2119141,-0.3154297,-0.04492188
2030,-42.5,-38.75,237.4375,-1.505859,0.6811523,-0.2167969,0.1928711,-0.3330078,-0.04736328
2034,-62.75,-42.25,231.4375,-1.40918,0.7119141,-0.2436523,0.1806641,-0.3408203,-0.05419922
2038,-96.8125,-55.1875,215.125,-1.335449,0.7275391,-0.3476563,0.1606445,-0.3530273,-0.06103516
2042,-128.3125,-49.5625,205.6875,-1.269531,0.5371094,-0.2246094,0.1416016,-0.3603516,-0.07470703
2046,-105,-47.875,213.6875,-1.331543,0.2573242,0.01367188,0.1269531,-0.3642578,-0.08447266
2050,-79.5625,-41.6875,223.625,-1.23877,0.269043,0.06738281,0.1069336,-0.3706055,-0.09375
2054,-58.25,-36.375,228.1875,-1.103027,0.3349609,0.04443359,0.08691406,-0.3745117,-0.1035156
2058,-46.375,-24.8125,240.3125,-1.071777,0.3623047,0.05175781,0.07128906,-0.3793945,-0.105957
2062,-38.5,-11.8125,253.125,-1.009766,0.4555664,-0.005371094,0.04492188,-0.3833008,-0.1113281
2066,-40.25,-8.625,256.4375,-0.9868164,0.4477539,-0.02832031,0.02148438,-0.3833008,-0.112793
2071,-27.5,-5.5625,256.1875,-0.8666992,0.4125977,0.05566406,0.003417969,-0.3818359,-0.1181641
2075,-21.9375,0.75,250.875,-0.8354492,0.5913086,-0.02441406,-0.02099609,-0.3803711,-0.1196289
2079,-36.625,-7.3125,251.3125,-0.8237305,0.6694336,-0.109375,-0.04589844,-0.3754883,-0.1225586
2083,-43.9375,-9.25,249,-0.7851563,0.5991211,-0.01660156,-0.06152344,-0.371582,-0.1235352
2087,-35.125,-11.9375,256.5625,-0.831543,0.6030273,0.005859375,-0.08544922,-0.3642578,-0.1279297
2091,-24.875,-9.1875,280.8125,-0.7270508,0.6420898,0.009765625,-0.1113281,-0.3530273,-0.1303711
2095,-16.625,-8.4375,292.6875,-0.6376953,0.6616211,-0.04736328,-0.1269531,-0.3442383,-0.1303711
2099,-15.75,-8.75,295.875,-0.5141602,0.6733398,-0.05126953,-0.1533203,-0.3305664,-0.1333008
2103,-47,-18.25,306,-0.5991211,0.8208008,-0.2167969,-0.1782227,-0.3129883,-0.1318359
2107,-100.125,-40.3125,308.4375,-0.4790039,0.7275391,-0.2475586,-0.1938477,-0.2993164,-0.1318359
2111,-132.6875,-52.0625,311.6875,-0.3354492,0.2924805,-0.01318359,-0.2197266,-0.2744141,-0.1416016
2115,-112.375,-45.875,312.75,0.06298828,-0.3676758,0.4213867,-0.2402344,-0.2456055,-0.1425781
2119,-50.4375,-23.875,298.75,0.4155273,-0.6860352,0.6635742,-0.2519531,-0.2270508,-0.144043
2123,0.375,0,273.3125,0.6674805,-0.7641602,0.6674805,-0.2685547,-0.203125,-0.1425781
2127,20.4375,1.4375,241.375,0.7021484,-0.8222656,0.5595703,-0.2792969,-0.1806641,-0.1455078
2131,13.1875,-12.4375,213.375,0.8222656,-0.9194336,0.3637695,-0.2851563,-0.1655273,-0.1401367
2135,-9.125,-27.75,170.0625,1.182617,-1.280762,0.1787109,-0.2924805,-0.1469727,-0.1401367
2139,-17.375,-26.6875,101.3125,1.659668,-1.645996,0.1132813,-0.2983398,-0.1308594,-0.1386719
2143,-11.1875,-12.1875,15.125,1.698242,-1.657715,0.08642578,-0.2983398,-0.1254883,-0.1357422
2147,0.6875,-8.625,-68.0625,1.46582,-1.424316,0.105957,-0.2983398,-0.1269531,-0.1357422
2151,23.9375,-2.375,-129.625,1.225586,-1.175781,0.144043,-0.2983398,-0.1357422,-0.1347656
2155,43.75,2.4375,-173.625,0.9501953,-0.8105469,0.07128906,-0.293457,-0.1469727,-0.1357422
2159,44.875,0.75,-198.75,0.659668,-0.4726563,0.04052734,-0.2915039,-0.1645508,-0.1333008
2163,33.875,2.5625,-217.3125,0.5898438,-0.2163086,0.009765625,-0.2807617,-0.1845703,-0.1318359
2167,25.75,17.125,-226.375,0.4389648,-0.1811523,0.06738281,-0.2758789,-0.2006836,-0.1318359
2171,31.9375,40,-225.8125,0.3535156,-0.1499023,0.105957,-0.2617188,-0.2207031,-0.1318359
2175,49.4375,60.9375,-230.0625,0.1987305,-0.1347656,0.1479492,-0.2485352,-0.2407227,-0.1357422
2179,76.9375,63.125,-239.0625,-0.08789063,-0.04882813,0.1982422,-0.2363281,-0.2543945,-0.137207
2183,89.5625,43.375,-251.625,-0.2583008,0.2338867,0.05566406,-0.21875,-0.2729492,-0.1357422
2187,75.0625,23.6875,-277.4375,-0.2348633,0.4125977,-0.01318359,-0.199707,-0.2983398,-0.1333008
2191,60.3125,12,-303.25,-0.3164063,0.4790039,0.04443359,-0.1855469,-0.3105469,-0.1318359
2195,79.625,26.4375,-293.75,-0.5332031,0.3120117,0.1635742,-0.1601563,-0.3305664,-0.1289063
2200,101.8125,43.5,-273.8125,-0.7617188,0.5488281,0.06738281,-0.1342773,-0.3466797,-0.1210938
2204,99.125,43.9375,-252.625,-0.878418,0.8208008,-0.06689453,-0.1162109,-0.3554688,-0.1157227
2208,73.375,32.6875,-251.8125,-0.9477539,1.007324,-0.1860352,-0.09375,-0.3681641,-0.1088867
2212,32.0625,1.3125,-267.125,-0.9946289,0.9916992,-0.1821289,-0.06884766,-0.3779297,-0.1020508
2216,8.375,-19.8125,-282.0625,-0.8857422,0.6264648,0.01708984,-0.05224609,-0.3818359,-0.1035156
2220,52.3125,-5.9375,-290.4375,-0.9287109,0.2456055,0.2480469,-0.0234375,-0.3867188,-0.09912109
2224,131.625,14.1875,-290.0625,-1.137695,0.2612305,0.2172852,0.005859375,-0.3891602,-0.09228516
2228,183.25,14.8125,-287.125,-1.537109,0.8710938,-0.2285156,0.02587891,-0.3881836,-0.08154297
2232,136.0625,-19.25,-288.5,-1.765625,1.776367,-0.7592773,0.0546875,-0.3881836,-0.06542969
2236,15.5625,-58.5,-265.0625,-1.680176,1.900879,-0.7670898,0.08056641,-0.3857422,-0.05712891
2240,-68.0625,-56.375,-217.1875,-1.253906,1.197754,-0.4052734,0.09619141,-0.3803711,-0.05859375
2244,-74.875,-23.0625,-188.3125,-0.9633789,0.4052734,-0.04736328,0.1152344,-0.3730469,-0.06640625
2248,-37.5625,8.75,-186.5625,-0.8510742,0.07080078,0.07519531,0.1318359,-0.3632813,-0.07324219
2252,-6.5,18.25,-218.5625,-0.9711914,0.06689453,0.05566406,0.1450195,-0.3603516,-0.07470703
2256,5.6875,3.0625,-261.125,-1.215332,0.2109375,0.02490234,0.1665039,-0.3481445,-0.07470703
2260,11.5625,-12.1875,-284.5625,-1.463379,0.2768555,0.08642578,0.1889648,-0.3305664,-0.07324219
2264,19.9375,-15.0625,-278.1875,-1.629883,0.3544922,0.144043,0.2021484,-0.3193359,-0.07324219
2268,28.4375,-10.8125,-256.4375,-1.719238,0.4243164,0.1020508,0.2236328,-0.3041992,-0.07177734
2272,32.4375,-5.1875,-240.1875,-1.665039,0.5019531,-0.02441406,0.237793,-0.2856445,-0.07080078
2276,27,-5.0625,-237.5625,-1.625977,0.6225586,-0.1206055,0.2485352,-0.2729492,-0.06933594
2280,15.875,-6.375,-237.5,-1.625977,0.8325195,-0.0859375,0.2641602,-0.2519531,-0.06787109
2284,7.375,-10.3125,-229.875,-1.65332,1.034668,0.02099609,0.2749023,-0.2329102,-0.06933594
2288,20.5,-14.5,-201.4375,-1.835449,1.104492,0.1518555,0.2817383,-0.2192383,-0.06933594
2292,48.75,-9,-131.75,-1.924316,1.446289,0.2558594,0.2890625,-0.2016602,-0.06933594
2296,56.75,9.3125,-51.75,-1.773438,1.757324,0.05957031,0.2915039,-0.1967773,-0.06787109
2300,40.25,18.1875,2.375,-1.533203,1.936035,-0.09765625,0.2949219,-0.1933594,-0.06640625
2304,15.8125,19.6875,35.4375,-1.463379,1.900879,-0.0859375,0.2949219,-0.1958008,-0.0625
2308,1.6875,16.6875,65.25,-1.475098,1.745605,0.02490234,0.2924805,-0.1992188,-0.06103516
2312,13,20,100.8125,-1.541016,1.59375,0.1865234,0.2900391,-0.2045898,-0.05859375
2316,33.4375,19,137.0625,-1.629883,1.55127,0.1713867,0.2856445,-0.2158203,-0.05566406
2320,43.8125,13.75,164.25,-1.711426,1.652344,0.009765625,0.2792969,-0.2294922,-0.05419922
2324,39.6875,4.375,185.75,-1.87793,1.749512,-0.1782227,0.2749023,-0.2382813,-0.05029297
2329,29.0625,5,217.125,-1.959473,1.694824,-0.2822266,0.2641602,-0.2568359,-0.04736328
2333,17.1875,23.75,269.25,-2.013672,1.430664,-0.3129883,0.25,-0.2753906,-0.04638672
2337,9.5,48,320.25,-1.924316,1.146973,-0.2705078,0.237793,-0.2905273,-0.04052734
2341,-8.25,54.0625,333.125,-1.901367,1.022949,-0.2553711,0.215332,-0.3129883,-0.03808594
2345,-35.75,32.1875,319.5625,-1.827637,0.8325195,-0.2324219,0.1904297,-0.3354492,-0.03808594
2349,-54.25,15.125,295.375,-1.730469,0.6616211,-0.1899414,0.1723633,-0.3466797,-0.03808594
2353,-72.375,8.75,287.0625,-1.723145,0.6069336,-0.2055664,0.1484375,-0.3603516,-0.04345703
2357,-94.8125,2.125,292.8125,-1.757813,0.5644531,-0.2207031,0.1201172,-0.3730469,-0.05175781
2361,-107.25,-0.0625,309.4375,-1.67627,0.4086914,-0.1708984,0.1010742,-0.3779297,-0.05712891
2365,-108.6875,3,315.8125,-1.541016,0.2729492,-0.09375,0.07226563,-0.3842773,-0.06787109
2369,-110.75,-4.625,309.0625,-1.471191,0.284668,-0.08203125,0.04052734,-0.3891602,-0.07763672
2373,-120.125,-27.4375,287.9375,-1.459473,0.284668,-0.1015625,0.02148438,-0.3891602,-0.08544922
2377,-97.375,-29.125,288.6875,-1.161133,-0.06054688,0.1518555,-0.0078125,-0.3857422,-0.09765625
2381,-45.1875,1,296.9375,-0.9868164,-0.09960938,0.2558594,-0.03662109,-0.3833008,-0.105957
2385,-13.5625,22.625,303.3125,-1.071777,0.2807617,0.04443359,-0.05810547,-0.3803711,-0.1088867
2389,-36.75,12.6875,301.8125,-1.033203,0.5371094,-0.1708984,-0.08398438,-0.3691406,-0.1074219
2393,-71.625,-8.25,280.375,-0.8432617,0.4633789,-0.1708984,-0.1137695,-0.359375,-0.112793
2397,-78.0625,-15.1875,255.0625,-0.6533203,0.3544922,-0.01660156,-0.1293945,-0.3491211,-0.1196289
2401,-74.9375,-11.5625,253.375,-0.7114258,0.4204102,-0.06689453,-0.1518555,-0.3354492,-0.1235352
2405,-59.6875,-6.125,275,-0.4790039,0.121582,0.1171875,-0.1748047,-0.3178711,-0.1289063
2409,-2.75,25.25,280.5,-0.1572266,-0.02978516,0.355957,-0.1875,-0.3056641,-0.1303711
2413,47.25,45.9375,280,-0.215332,0.2416992,0.2133789,-0.2080078,-0.2866211,-0.1318359
2417,41.375,34.375,262.6875,-0.1303711,0.5722656,0.03271484,-0.2255859,-0.2705078,-0.1289063
2421,5.5625,8.3125,231.3125,-0.002441406,0.6030273,0.001953125,-0.2353516,-0.2592773,-0.1303711
2425,-14.25,0.4375,208.6875,0.09765625,0.5292969,0.1020508,-0.2495117,-0.2416992,-0.1303711
2429,-30.375,-3.75,211.8125,0.02441406,0.4594727,0.1557617,-0.2602539,-0.2231445,-0.1303711
2433,-44.625,-20.5625,229.625,0.1171875,0.08251953,0.2290039,-0.2685547,-0.2080078,-0.1318359
2437,-38.8125,-34.875,233.3125,0.5009766,-0.5581055,0.3979492,-0.2783203,-0.1894531,-0.1303711
2441,-12.1875,-32.25,211.6875,1.121094,-1.125488,0.5751953,-0.2915039,-0.1655273,-0.1303711
2445,-3.1875,-28.75,158.25,1.357422,-1.471191,0.4750977,-0.2958984,-0.1518555,-0.1279297
2449,-10.5,-40.5625,109.25,1.42334,-2.053711,0.3598633,-0.2998047,-0.140625,-0.125
2453,-18.5,-54.375,25.25,1.853027,-2.298828,0.3291016,-0.3056641,-0.1308594,-0.1196289
2458,7.875,-54.875,-105.0625,1.98877,-2.197754,0.4482422,-0.3041992,-0.1333008,-0.1157227
2462,67.0625,-39.1875,-196.0625,1.306641,-1.848145,0.4174805,-0.3041992,-0.1445313,-0.1113281
2466,116.5625,-29.125,-229.875,0.7680664,-1.233887,0.1748047,-0.2983398,-0.1694336,-0.1044922
2470,108.5,-27.1875,-248.125,0.5087891,-0.46875,-0.1860352,-0.2924805,-0.1855469,-0.1005859
2474,69.9375,-17.5625,-250.1875,0.2836914,-0.08007813,-0.2978516,-0.2792969,-0.2119141,-0.09667969
2478,35.625,6.25,-233.375,0.2255859,0.02441406,-0.2016602,-0.2685547,-0.2358398,-0.09228516
2482,18.125,18.75,-236.25,-0.006347656,0.09814453,-0.128418,-0.2592773,-0.2470703,-0.09082031
2486,-1.75,1.75,-259.4375,-0.09521484,0.2729492,-0.08984375,-0.2436523,-0.2680664,-0.09228516
2490,-24.3125,-20.625,-282.8125,-0.2348633,0.2885742,-0.02050781,-0.2246094,-0.2880859,-0.09375
2494,-15.9375,-22.25,-290,-0.2851563,0.2148438,0.1479492,-0.2128906,-0.3017578,-0.09228516
2498,6.4375,-4.8125,-271.4375,-0.3901367,0.1640625,0.2172852,-0.1899414,-0.3208008,-0.09521484
2502,50.75,34.5625,-247.9375,-0.4985352,0.2226563,0.2402344,-0.168457,-0.3354492,-0.09228516
2506,67.8125,38.75,-246.75,-0.8588867,0.6577148,-0.001464844,-0.1542969,-0.3466797,-0.09082031
2510,17,-38.75,-306.6875,-1.044922,1.112305,-0.324707,-0.1293945,-0.3579102,-0.08544922
2514,-52.4375,-88.4375,-355.8125,-0.8046875,1.034668,-0.2592773,-0.09960938,-0.371582,-0.08544922
2518,-68.5625,-69.5625,-361.4375,-0.7929688,0.4360352,0.09033203,-0.07714844,-0.3793945,-0.08691406
2522,5.5625,-18.0625,-346.0625,-0.8745117,-0.1420898,0.4980469,-0.04248047,-0.3842773,-0.09375
2526,154.5,44.1875,-342.8125,-1.176758,-0.2124023,0.5405273,-0.009277344,-0.3916016,-0.08544922
2530,253.0625,58.25,-333.25,-1.812012,0.6733398,-0.2055664,0.01416016,-0.3916016,-0.07324219
2534,223.875,16.125,-327.1875,-2.191895,1.741699,-0.878418,0.04736328,-0.3930664,-0.04638672
2538,91.625,-40.75,-298.375,-2.164551,2.371094,-1.163086,0.07714844,-0.3881836,-0.02832031
2542,-54.25,-62.5625,-227.4375,-1.703613,2.033203,-0.9746094,0.09765625,-0.3803711,-0.02832031
2546,-144.5625,-45.75,-160.5,-1.176758,1.364746,-0.6401367,0.1166992,-0.3754883,-0.03955078
2550,-159.75,-9.4375,-125.625,-0.7075195,0.3935547,-0.2514648,0.1308594,-0.3681641,-0.05175781
2554,-116,43.375,-133.8125,-0.4946289,-0.05273438,0.07128906,0.1367188,-0.3642578,-0.0625
2558,-57.6875,69.5625,-178.25,-0.7617188,-0.08398438,0.2133789,0.1499023,-0.3569336,-0.07080078
2562,-18.6875,55.8125,-223.4375,-1.141602,0.121582,0.2329102,0.1665039,-0.3442383,-0.06787109
2566,-4.3125,26.75,-250.5625,-1.405273,0.2299805,0.2866211,0.1821289,-0.3369141,-0.06933594
2570,14,9.875,-250.8125,-1.521484,0.1953125,0.3520508,0.2011719,-0.3217773,-0.06787109
2574,45.4375,8.0625,-246,-1.544922,0.1679688,0.3291016,0.2211914,-0.3056641,-0.06396484
2578,81.9375,4.5,-251.5625,-1.610352,0.3041992,0.1557617,0.234375,-0.2954102,-0.0625
2582,94.375,-5.8125,-262.375,-1.661133,0.6499023,-0.1054688,0.2485352,-0.2753906,-0.05566406
2587,82.75,-26.3125,-265.5625,-1.82373,1.049805,-0.2705078,0.2651367,-0.2543945,-0.05175781
2591,68.1875,-38.875,-251.1875,-1.835449,1.422852,-0.2670898,0.2734375,-0.2392578,-0.05029297
2595,61.0625,-16.8125,-185.6875,-1.963379,1.850586,-0.2397461,0.2841797,-0.2207031,-0.04882813
2599,43.25,22.3125,-71.0625,-2.067871,2.382813,-0.3208008,0.2900391,-0.2070313,-0.05029297
2603,-2.9375,50.1875,37.3125,-1.955566,2.584961,-0.3823242,0.2915039,-0.2055664,-0.04492188
2607,-37.5,55.4375,105.0625,-1.847168,2.273926,-0.1206055,0.2890625,-0.2104492,-0.03955078
2611,-38.3125,61.5,155.75,-1.765625,1.928223,0.1865234,0.2841797,-0.2216797,-0.03808594
2615,-24,57.5625,192.5,-1.719238,1.671875,0.3134766,0.2792969,-0.2319336,-0.03662109
2619,-7.0625,40.875,208.625,-1.67627,1.527832,0.3330078,0.2675781,-0.2495117,-0.03271484
2623,9.375,17,214.9375,-1.637695,1.461914,0.2368164,0.2568359,-0.265625,-0.02832031
2627,13.8125,-0.375,221,-1.603027,1.458008,0.01367188,0.2485352,-0.2792969,-0.02832031
2631,-2.1875,-12.0625,232.125,-1.583496,1.411133,-0.2285156,0.234375,-0.2954102,-0.02832031
2635,-19.5,-7.625,244.875,-1.45166,1.154785,-0.2900391,0.2177734,-0.3105469,-0.02734375
2639,-34.6875,4.6875,254.875,-1.505859,1.073242,-0.3974609,0.2045898,-0.3232422,-0.03125
2643,-64.1875,4.1875,251.9375,-1.544922,1.003418,-0.4321289,0.1831055,-0.3378906,-0.03271484
2647,-97.4375,-11.5,237.9375,-1.695801,0.8671875,-0.4130859,0.1630859,-0.3530273,-0.03955078
2651,-113.375,-34.125,229.25,-1.691895,0.5488281,-0.2475586,0.1499023,-0.359375,-0.04736328
2655,-92.1875,-36.0625,238.125,-1.595215,0.3623047,-0.128418,0.1269531,-0.3691406,-0.05957031
2659,-69.3125,-14.125,263.375,-1.525391,0.4052734,-0.1323242,0.105957,-0.3779297,-0.06787109
2663,-64.1875,-3.6875,289,-1.583496,0.4633789,-0.2167969,0.08789063,-0.3818359,-0.07177734
2667,-72.375,-11.3125,287.625,-1.432129,0.5136719,-0.2436523,0.06152344,-0.3867188,-0.07763672
2671,-88.9375,-30.75,263.6875,-1.35498,0.5410156,-0.3012695,0.03076172,-0.3891602,-0.08691406
2675,-99.6875,-37.75,255.625,-1.265625,0.4672852,-0.2631836,0.01513672,-0.3867188,-0.09521484
2679,-90.25,-23.875,257.5625,-1.106934,0.3818359,-0.1474609,-0.009277344,-0.3867188,-0.1005859
2683,-77.6875,-6.3125,269.625,-1.129883,0.4477539,-0.1860352,-0.03759766,-0.3793945,-0.112793
2687,-69.125,-4.6875,291.5,-1.20752,0.3857422,-0.07470703,-0.05566406,-0.3730469,-0.1157227
2691,-65.4375,-11.75,295.375,-1.056641,0.4790039,-0.128418,-0.08300781,-0.3657227,-0.1225586
2695,-64.375,-12.75,291.8125,-0.7695313,0.3857422,-0.06689453,-0.1103516,-0.3530273,-0.1264648
2699,-60.6875,-12.4375,291.3125,-0.6845703,0.269043,-0.05517578,-0.1269531,-0.3466797,-0.1289063
2703,-54.375,-11.8125,290.75,-0.4482422,0.171875,0.04785156,-0.1533203,-0.3291016,-0.1357422
2707,-45.375,-7.5,283.875,-0.3046875,0.1367188,0.07519531,-0.1782227,-0.3105469,-0.1386719
2711,-41.625,-14.9375,276.1875,-0.3085938,0.1367188,0.07519531,-0.1923828,-0.2993164,-0.1386719
2716,-43.9375,-23.9375,260.0625,-0.04882813,0.1333008,0.1713867,-0.2114258,-0.2807617,-0.1416016
2720,-34.0625,-27.8125,237,0.03955078,0.03613281,0.2709961,-0.2304688,-0.2607422,-0.1425781
2724,-6.5,-23.0625,226.1875,0.2373047,-0.09570313,0.4174805,-0.2387695,-0.2470703,-0.1416016
2728,19.125,-17.25,212.4375,0.3378906,-0.08789063,0.409668,-0.2543945,-0.2280273,-0.1386719
2732,30,-22.125,197.5,0.4038086,-0.07617188,0.3442383,-0.2661133,-0.2104492,-0.1357422
2736,23.625,-32.625,184.25,0.4619141,-0.1113281,0.2329102,-0.2724609,-0.203125,-0.1318359
2740,3.3125,-59.8125,163.5625,0.6870117,-0.402832,0.140625,-0.2792969,-0.1855469,-0.1289063
2744,-8.3125,-59.6875,141.6875,1.147949,-0.8647461,0.1674805,-0.2915039,-0.1704102,-0.1225586
2748,-10.625,-43.125,109.9375,1.407715,-1.21875,0.2558594,-0.2949219,-0.1645508,-0.1210938
2752,7.4375,-37.5625,54.5625,1.566406,-1.653809,0.375,-0.3007813,-0.1542969,-0.1142578
2756,45.625,-28.25,-25.75,1.768066,-1.71582,0.4750977,-0.2998047,-0.1533203,-0.1142578
2760,72.75,-21.625,-113.6875,1.48877,-1.401367,0.3056641,-0.3007813,-0.1582031,-0.1098633
2764,77.4375,-29.8125,-179.375,1.070313,-0.9814453,0.1171875,-0.2983398,-0.171875,-0.1044922
2768,64.4375,-33.3125,-208.4375,0.7412109,-0.6240234,-0.04003906,-0.2900391,-0.1933594,-0.09765625
2772,40,-23.25,-214.3125,0.6479492,-0.371582,-0.1743164,-0.2841797,-0.2055664,-0.09375
2776,13.75,3.8125,-217.6875,0.6328125,-0.2314453,-0.2128906,-0.2724609,-0.2246094,-0.09375
2780,3.6875,27.0625,-233.125,0.5009766,-0.2900391,-0.1166992,-0.2592773,-0.2456055,-0.09521484
2784,24.3125,45.125,-259.4375,0.4116211,-0.3325195,0.03662109,-0.2470703,-0.2583008,-0.09521484
2788,67.375,62.125,-280.6875,0.09765625,-0.1538086,0.02490234,-0.2294922,-0.2807617,-0.09765625
2792,81.6875,69.1875,-279.75,-0.4091797,0.4711914,-0.2055664,-0.2089844,-0.3032227,-0.09521484
2796,45.5,60.125,-253.3125,-0.6611328,0.9799805,-0.3168945,-0.1923828,-0.3154297,-0.09375
2800,-12.6875,41,-234.75,-0.8198242,1.077148,-0.2363281,-0.1723633,-0.3305664,-0.09667969
2804,-62.625,-33.8125,-278.1875,-0.7192383,0.8671875,0.02099609,-0.1518555,-0.3417969,-0.1005859
2808,-1.375,-39.4375,-328.1875,-0.1884766,0.1601563,0.6943359,-0.1342773,-0.3530273,-0.1035156
2812,112,7.9375,-322.0625,-1.095215,0.5253906,0.4521484,-0.1044922,-0.3642578,-0.1005859
2816,120.25,3.1875,-243.125,-1.641602,1.710449,-0.2397461,-0.07568359,-0.3769531,-0.08984375
2820,-8.1875,-29.0625,-177.1875,-1.393555,2.21582,-0.6821289,-0.06298828,-0.3818359,-0.08300781
2824,-133.5,-81.75,-186.8125,-0.7348633,1.411133,-0.3476563,-0.04589844,-0.3857422,-0.08544922
2828,-118.5625,-64,-217.625,-0.09130859,-0.002441406,0.4057617,-0.02832031,-0.3842773,-0.1005859
2832,21.75,9.625,-237.375,-0.262207,-0.4726563,0.6982422,-0.01416016,-0.3833008,-0.1044922
2836,128.125,38.5,-255.8125,-0.9477539,0.2226563,0.2060547,0.01171875,-0.3867188,-0.09667969
2840,126.875,28.5625,-246.4375,-1.436035,1.197754,-0.324707,0.03564453,-0.3867188,-0.08447266
2845,46.3125,19,-200.375,-1.439941,1.49707,-0.4902344,0.05078125,-0.3881836,-0.07763672
2849,-22.5625,15.75,-174,-1.07959,0.9916992,-0.3325195,0.07128906,-0.3842773,-0.07617188
2853,-48.5625,25.1875,-189.0625,-0.8549805,0.5253906,-0.1743164,0.08691406,-0.3803711,-0.07861328
2857,-48.1875,14.5625,-235.125,-0.862793,0.121582,-0.01660156,0.09960938,-0.3745117,-0.08007813
2861,-22.4375,17.6875,-275.3125,-0.9672852,-0.06835938,0.1132813,0.125,-0.3657227,-0.08300781
2865,4.8125,26.3125,-297.375,-1.242188,-0.04150391,0.1132813,0.1499023,-0.3530273,-0.08447266
2869,23,30.4375,-308.375,-1.471191,0.02441406,0.08251953,0.1665039,-0.3432617,-0.08007813
2873,36.125,34.375,-313,-1.703613,0.105957,0.05957031,0.1928711,-0.3256836,-0.07763672
2877,46.375,32.5,-314.0625,-1.827637,0.2070313,-0.05517578,0.215332,-0.3066406,-0.07177734
2881,44.8125,30.3125,-319.125,-1.804199,0.4477539,-0.2436523,0.2329102,-0.2905273,-0.07080078
2885,22.125,20.6875,-327.875,-1.885742,0.7431641,-0.4013672,0.2543945,-0.2680664,-0.06396484
2889,-11.25,5.5,-318.375,-1.970703,1.053711,-0.3398438,0.2724609,-0.2392578,-0.06396484
2893,-22.5625,4.875,-277.0625,-1.994141,1.205566,-0.1552734,0.2832031,-0.2216797,-0.06542969
2897,-11,22.6875,-207.875,-1.897461,1.388184,0.03271484,0.2924805,-0.1967773,-0.06396484
2901,-5.4375,31.75,-129.375,-2.044434,1.702637,0.04443359,0.3007813,-0.1791992,-0.06103516
2905,-25.5625,21.625,-58.1875,-2.005859,1.924316,0.1132813,0.3032227,-0.1743164,-0.06103516
2909,-45.875,9.9375,-1.5625,-1.753906,1.788086,0.375,0.3046875,-0.1704102,-0.06103516
2913,-30,15.3125,44.75,-1.625977,1.493164,0.7099609,0.3046875,-0.1733398,-0.06103516
2917,4.375,16.25,80.0625,-1.603027,1.384277,0.8173828,0.3022461,-0.1743164,-0.06103516
2921,36.3125,2.375,106.375,-1.641602,1.345215,0.7290039,0.2998047,-0.1845703,-0.05859375
2925,57.1875,-14.75,125.9375,-1.649414,1.317871,0.5175781,0.2963867,-0.1967773,-0.05566406
2929,73.3125,-25.4375,149.25,-1.614258,1.240234,0.2866211,0.2924805,-0.203125,-0.05566406
2933,79.3125,-22.875,176.375,-1.65332,1.209473,0.04785156,0.2841797,-0.2182617,-0.05566406
2937,74.5625,-14.6875,207.6875,-1.672363,1.146973,-0.1166992,0.2758789,-0.2368164,-0.05175781
2941,50.6875,-9.3125,235,-1.70752,1.112305,-0.2436523,0.2675781,-0.2480469,-0.04882813
2945,17.3125,-12.5625,249.5625,-1.738281,0.9492188,-0.2900391,0.2543945,-0.2680664,-0.04736328
2949,-10,-23.6875,249.375,-1.695801,0.7353516,-0.2475586,0.2402344,-0.2866211,-0.04882813
2953,-18.4375,-29.375,248.9375,-1.661133,0.4516602,-0.1166992,0.2285156,-0.3007813,-0.05029297
2957,-10.8125,-22.1875,255.9375,-1.684082,0.3271484,-0.08203125,0.2094727,-0.3168945,-0.05273438
2961,-4.8125,-16.1875,270.8125,-1.703613,0.3818359,-0.1474609,0.1904297,-0.3330078,-0.05566406
2965,-11.25,-6.9375,285.875,-1.70752,0.4399414,-0.2744141,0.1738281,-0.3457031,-0.05419922
2969,-19.6875,-0.4375,293.375,-1.742188,0.4868164,-0.3325195,0.1484375,-0.3603516,-0.05566406
2974,-34.75,-5.125,293.3125,-1.753906,0.5488281,-0.3359375,0.1225586,-0.3706055,-0.05957031
2978,-52.1875,-22.6875,281.3125,-1.75,0.5952148,-0.4052734,0.1020508,-0.3793945,-0.06396484
2982,-80.0625,-25.8125,286.0625,-1.645508,0.6845703,-0.4360352,0.07617188,-0.3833008,-0.06933594
2986,-110.125,-28.125,300.0625,-1.48291,0.5991211,-0.4091797,0.04638672,-0.3891602,-0.07763672
2990,-113.625,-26.5,306.5625,-1.335449,0.284668,-0.1899414,0.02734375,-0.3881836,-0.08691406
2994,-82.875,-13,309,-1.118652,0.2070313,0.03271484,-0.004394531,-0.3857422,-0.1005859
2998,-56.5,-13.0625,297.0625,-1.168945,0.4555664,-0.03222656,-0.03417969,-0.3818359,-0.1044922
3002,-60.125,-18.5625,299,-1.11084,0.6845703,-0.1054688,-0.05322266,-0.3779297,-0.105957
3006,-75.75,-17.4375,310.1875,-0.9829102,0.6845703,-0.1435547,-0.08300781,-0.3666992,-0.1157227
3010,-86.625,-16.0625,315.875,-0.7617188,0.4750977,0.005859375,-0.1137695,-0.3544922,-0.1196289
3014,-68.5625,-9.25,313.125,-0.5566406,0.1875,0.1479492,-0.1318359,-0.3457031,-0.1264648
3018,-48.0625,-7.875,296.4375,-0.4052734,0.171875,0.2329102,-0.1582031,-0.328125,-0.1303711
3022,-28.875,-18.1875,272.8125,-0.2929688,0.1098633,0.2827148,-0.1831055,-0.3095703,-0.1318359
3026,-5.1875,-22.625,254.5,-0.1499023,0.03613281,0.3364258,-0.1962891,-0.3007813,-0.1333008
3030,14.8125,-6.4375,258.6875,-0.01806641,0.105957,0.3056641,-0.2163086,-0.2807617,-0.1318359
3034,20.875,11,262,0.01660156,0.1333008,0.2558594,-0.234375,-0.2617188,-0.1289063
3038,13.125,23.8125,255.3125,0.2490234,0.1484375,0.1943359,-0.2446289,-0.2504883,-0.1279297
3042,-11.625,14.375,227.3125,0.3847656,0.05126953,0.06738281,-0.2592773,-0.2294922,-0.1318359
3046,-42.875,-9.6875,178.625,0.6328125,-0.2084961,0.03662109,-0.2675781,-0.2119141,-0.1318359
3050,-52.6875,-25.5,152.625,0.6948242,-0.8378906,0.2094727,-0.2734375,-0.1992188,-0.1318359
3054,-44.5625,-24.3125,150.125,1.047363,-1.210938,0.2441406,-0.2817383,-0.1845703,-0.1318359
3058,-55.3125,-24.5625,110.5625,1.380371,-1.459473,0.125,-0.2866211,-0.1704102,-0.1318359
3062,-52.5,-34.5,35.3125,1.73291,-1.878906,0.2749023,-0.2915039,-0.1645508,-0.1303711
3066,-15.3125,-26.625,-55.0625,1.806641,-1.875,0.3637695,-0.2915039,-0.1606445,-0.1289063
3070,26.6875,-19.375,-128.375,1.357422,-1.529297,0.3134766,-0.2890625,-0.1704102,-0.1264648
3074,48.125,-13.3125,-165.9375,1.039551,-0.9697266,0.1328125,-0.2875977,-0.1791992,-0.1235352
3078,34.4375,-11.125,-193.8125,0.7836914,-0.4335938,-0.07080078,-0.2783203,-0.1982422,-0.1225586
3082,13.375,-2.0625,-197.25,0.59375,-0.2353516,-0.0859375,-0.2700195,-0.2167969,-0.1210938
3086,8.4375,8.875,-203.5625,0.4311523,-0.2392578,0.03271484,-0.2651367,-0.2270508,-0.1196289
3090,22,8.875,-229.75,0.4038086,-0.2202148,0.125,-0.2519531,-0.2441406,-0.1210938
3094,46.125,21.875,-237.25,0.1791992,-0.07617188,0.1289063,-0.2363281,-0.2641602,-0.1210938
3098,67.5625,49,-223.0625,0.07470703,0.01660156,0.1098633,-0.2255859,-0.2768555,-0.1196289
3103,91.5,85.0625,-200.8125,-0.09130859,0.1640625,0.05957031,-0.2089844,-0.2944336,-0.1210938
3107,91.875,80.75,-192.8125,-0.5371094,0.3232422,0.09423828,-0.1914063,-0.3129883,-0.1181641
3111,84.5,3.25,-250.125,-0.5024414,0.4243164,0.1787109,-0.1782227,-0.3208008,-0.1157227
3115,104,-22.9375,-305.4375,-0.4672852,0.4516602,0.2329102,-0.1567383,-0.3369141,-0.1088867
3119,113.25,-18.3125,-289.375,-0.9013672,0.8867188,-0.001464844,-0.1303711,-0.3554688,-0.09667969
3123,63.5,-19.3125,-245.5,-1.087402,1.384277,-0.378418,-0.1152344,-0.3642578,-0.08984375
3127,6.5625,1.875,-200.75,-0.7231445,1.084961,-0.2553711,-0.09130859,-0.3730469,-0.08837891
3131,10.3125,32.375,-188.1875,-0.8354492,0.6577148,-0.03613281,-0.07470703,-0.3779297,-0.08691406
3135,20.6875,-16.0625,-234.3125,-1.033203,0.6845703,-0.0859375,-0.06054688,-0.3818359,-0.08544922
3139,48.5,-32.875,-287.0625,-0.6533203,0.4750977,0.1020508,-0.03662109,-0.3867188,-0.08300781
3143,73.5,-16.5625,-293.0625,-1.227051,0.8598633,-0.2089844,-0.006835938,-0.3891602,-0.07617188
3147,12.0625,-24.8125,-256.1875,-1.405273,1.302734,-0.5283203,0.01171875,-0.3916016,-0.07324219
3151,-55.5625,-16.75,-230.6875,-0.9907227,0.7973633,-0.3666992,0.03662109,-0.390625,-0.07324219
3155,-60,19.9375,-233.375,-0.730957,0.1601563,-0.1474609,0.05957031,-0.3857422,-0.08007813
3159,-31.3125,55.3125,-254.0625,-0.9287109,-0.07226563,-0.112793,0.07373047,-0.3833008,-0.08300781
3163,-17.3125,59.25,-290.0625,-1.246094,0.04736328,-0.1977539,0.1010742,-0.3745117,-0.08447266
3167,-18.3125,43.5625,-335.8125,-1.475098,0.1835938,-0.1362305,0.1308594,-0.3642578,-0.08300781
3171,-21.75,34.5625,-376.25,-1.765625,0.4125977,-0.005371094,0.1523438,-0.3520508,-0.08154297
3175,-24.0625,26.75,-372.375,-2.288574,0.4829102,0.1518555,0.1855469,-0.3344727,-0.08154297
3179,-13.625,14.6875,-313.3125,-2.532715,0.7158203,0.2290039,0.2128906,-0.3105469,-0.08300781
3183,-5.0625,12.4375,-250.375,-2.141602,0.7626953,0.1210938,0.2260742,-0.2954102,-0.08300781
3187,3.5625,14.625,-229,-1.703613,0.7895508,-0.07861328,0.2402344,-0.2783203,-0.08154297
3191,-3.5625,13.625,-232.5,-1.513672,0.90625,-0.1591797,0.2558594,-0.2607422,-0.08154297
3195,-15,20.4375,-230,-1.436035,0.9101563,-0.06298828,0.2641602,-0.2470703,-0.08007813
3199,-11.75,25.9375,-209.9375,-1.595215,0.8520508,0.1132813,0.2758789,-0.2255859,-0.08300781
3203,1.0625,23.4375,-172.1875,-1.742188,0.9414063,0.2211914,0.2841797,-0.2104492,-0.08007813
3207,5.9375,21,-124.6875,-1.657227,1.104492,0.2441406,0.2900391,-0.2006836,-0.08007813
3211,0.875,17.25,-91.125,-1.432129,1.213379,0.1982422,0.2973633,-0.1904297,-0.07617188
3215,-10.8125,16.25,-71.25,-1.335449,1.283203,0.2021484,0.2983398,-0.1821289,-0.07470703
3219,-22.1875,10.4375,-50.1875,-1.389648,1.275391,0.2944336,0.2983398,-0.1782227,-0.07617188
3223,-21.75,4.125,-20.625,-1.397461,1.20166,0.3945313,0.3007813,-0.1743164,-0.07470703
3227,-7.0625,4.4375,14.5625,-1.374023,1.092773,0.4790039,0.3007813,-0.1733398,-0.07470703
3232,12.875,8.1875,50.3125,-1.319824,1.061523,0.4599609,0.2998047,-0.1743164,-0.07324219
3236,22.625,3,71.3125,-1.292969,1.04248,0.355957,0.2983398,-0.1791992,-0.07470703
3240,29.5625,-8.3125,79.875,-1.28125,0.9956055,0.2983398,0.2973633,-0.1879883,-0.07177734
3244,37.6875,-18.1875,88.1875,-1.300781,0.9760742,0.2368164,0.2963867,-0.1933594,-0.07080078
3248,43.5625,-23.625,102.9375,-1.370117,0.9838867,0.144043,0.2900391,-0.203125,-0.07080078
3252,41.9375,-24.1875,126.375,-1.447754,1.045898,0.03271484,0.2856445,-0.2143555,-0.07177734
3256,34.6875,-21.25,153.1875,-1.486328,0.9995117,-0.02832031,0.2832031,-0.2216797,-0.07080078
3260,32.8125,-15.6875,177.9375,-1.517578,0.9453125,-0.02832031,0.2734375,-0.2368164,-0.07080078
3264,30.9375,-14.6875,191.6875,-1.614258,0.9643555,-0.03222656,0.2641602,-0.2519531,-0.06933594
3268,26.9375,-20.1875,206.6875,-1.761719,0.9335938,-0.03613281,0.2568359,-0.2617188,-0.07080078
3272,16.75,-21,232,-1.835449,0.9453125,-0.1015625,0.2451172,-0.2792969,-0.06933594
3276,-9.1875,-24.3125,260.3125,-1.92041,0.972168,-0.2285156,0.2270508,-0.2993164,-0.07080078
3280,-44.375,-30.8125,281.6875,-1.827637,0.8945313,-0.2900391,0.215332,-0.3120117,-0.07324219
3284,-74.3125,-34.625,285.9375,-1.777344,0.8286133,-0.2705078,0.1928711,-0.3305664,-0.08007813
3288,-84.125,-40.6875,285.8125,-1.723145,0.6420898,-0.1630859,0.1674805,-0.3417969,-0.08691406
3292,-72.4375,-30.25,296.1875,-1.727051,0.5214844,-0.04394531,0.1499023,-0.3530273,-0.09521484
3296,-57.25,-20.625,313.8125,-1.785156,0.5878906,-0.01660156,0.1225586,-0.3632813,-0.1035156
3300,-50.6875,-18.25,329.75,-1.75,0.5839844,-0.001464844,0.09375,-0.371582,-0.1074219
3304,-43.9375,-16.1875,337.875,-1.498047,0.4985352,0.06347656,0.07226563,-0.3779297,-0.1098633
3308,-42.3125,-14.6875,331.9375,-1.366211,0.4985352,0.02490234,0.0390625,-0.3803711,-0.1142578
3312,-48.75,-18.6875,317.9375,-1.234863,0.5136719,0.02099609,0.005859375,-0.3803711,-0.1210938
3316,-44.375,-22.4375,309.9375,-1.203613,0.4360352,0.09814453,-0.01269531,-0.3793945,-0.1235352
3320,-33.9375,-23.875,305.5625,-1.103027,0.4555664,0.1020508,-0.04248047,-0.3730469,-0.1264648
3324,-26.4375,-20.3125,309.625,-1.161133,0.5878906,0.07519531,-0.07226563,-0.3666992,-0.1279297
3328,-34.625,-21.6875,322,-1.20752,0.7509766,0.01367188,-0.09228516,-0.359375,-0.1303711
3332,-57.4375,-32.3125,331.5625,-1.063965,0.7353516,-0.07861328,-0.1245117,-0.3466797,-0.1333008
3336,-91.25,-46.5625,329,-0.9750977,0.6538086,-0.1166992,-0.1533203,-0.328125,-0.1357422
3340,-115.125,-77.8125,321.8125,-1.017578,0.4594727,-0.05126953,-0.1723633,-0.3129883,-0.1401367
3344,-98.75,-105.6875,320.375,-0.8432617,0.02441406,0.159668,-0.2006836,-0.2905273,-0.1425781
3348,-19.875,-81.125,348.1875,-0.3164063,-0.4414063,0.4750977,-0.2270508,-0.2641602,-0.1425781
3352,57.4375,-24.25,367.0625,-0.04492188,-0.2900391,0.2749023,-0.2426758,-0.2480469,-0.137207
3356,53.125,-22.4375,343.75,0.06298828,-0.03369141,-0.112793,-0.2636719,-0.2192383,-0.1303711
3361,13.5625,-39.5,294.9375,0.3071289,-0.2353516,-0.07080078,-0.2807617,-0.1918945,-0.1264648
3365,-7.1875,-42.5,262.9375,0.3378906,-0.5893555,0.1098633,-0.2900391,-0.1733398,-0.1264648
3369,-5.4375,-40.6875,239.3125,0.4736328,-0.8803711,0.1943359,-0.2998047,-0.1479492,-0.1196289
3373,22.875,-25.5625,212.4375,0.8300781,-1.362305,0.4213867,-0.3066406,-0.1254883,-0.1157227
3377,40.75,-18.5625,167.1875,1.008301,-1.412598,0.3173828,-0.3105469,-0.1132813,-0.112793
3381,36.3125,-26.25,100.125,1.202148,-1.393555,0.1635742,-0.3139648,-0.1005859,-0.1098633
3385,15.875,-29,33.1875,1.271973,-1.374023,0.05566406,-0.3149414,-0.09326172,-0.1088867
3389,-0.875,-23.75,-27.625,1.361328,-1.327148,-0.04394531,-0.3164063,-0.09326172,-0.1044922
3393,-4.5625,-9.875,-79,1.26416,-1.222656,-0.05517578,-0.3149414,-0.09814453,-0.105957
3397,3.5625,2.6875,-122.1875,1.151855,-1.032227,-0.04394531,-0.3125,-0.1054688,-0.1044922
3401,9.3125,7.5625,-163.5,0.9619141,-0.7988281,-0.06298828,-0.3125,-0.1166992,-0.1035156
3405,4.1875,6.3125,-201.375,0.8071289,-0.565918,-0.05908203,-0.3081055,-0.1357422,-0.1044922
3409,-2.6875,7.625,-226.6875,0.6362305,-0.402832,-0.02050781,-0.3007813,-0.1542969,-0.1035156
3413,-1.1875,20.9375,-235.25,0.5551758,-0.3442383,0.09033203,-0.2973633,-0.1704102,-0.105957
3417,16.75,50.5,-231.3125,0.4311523,-0.2666016,0.1865234,-0.2866211,-0.1933594,-0.1098633
3421,26.9375,63.1875,-231.5,0.1132813,-0.06445313,0.2060547,-0.2744141,-0.2128906,-0.1142578
3425,10,5.8125,-273.875,-0.01025391,0.1293945,0.1674805,-0.2661133,-0.2280273,-0.1157227
3429,14.5625,-3.8125,-307.5625,0.01660156,0.04736328,0.3710938,-0.2495117,-0.2504883,-0.1166992
3433,48.5,12.25,-290.5,-0.296875,0.1333008,0.3867188,-0.2270508,-0.2768555,-0.1157227
3437,80.9375,43.1875,-255.5625,-0.328125,0.1914063,0.2983398,-0.2163086,-0.2905273,-0.1142578
3441,125.8125,68.25,-242.3125,-0.6264648,0.4204102,0.2402344,-0.1948242,-0.3105469,-0.1088867
3445,99.125,5.0625,-276.9375,-0.8393555,0.9375,-0.1782227,-0.1733398,-0.3291016,-0.1020508
3449,40.75,-45.5625,-333.5,-0.6494141,0.9956055,-0.2900391,-0.1567383,-0.3408203,-0.09765625
3453,-1.3125,-43.9375,-327.1875,-0.9013672,0.824707,-0.1708984,-0.1269531,-0.3569336,-0.09521484
3457,12.375,-0.8125,-282.5,-0.8164063,0.5058594,0.07519531,-0.09960938,-0.3691406,-0.09375
3461,40.5,43.0625,-256.625,-0.9208984,0.4985352,-0.112793,-0.08056641,-0.3769531,-0.09228516
3465,69.75,55.9375,-264.5,-1.037109,0.4985352,-0.1245117,-0.05419922,-0.3833008,-0.08691406
3469,62.875,32.8125,-292.6875,-1.347168,0.9023438,-0.3862305,-0.02832031,-0.3881836,-0.07861328
3473,10.625,-0.4375,-324.375,-1.315918,0.9604492,-0.3862305,-0.005859375,-0.390625,-0.07861328
3477,-25.4375,-4.6875,-328,-1.385742,0.7080078,-0.2167969,0.02490234,-0.390625,-0.07861328
3481,-19.0625,10.6875,-316.625,-1.37793,0.3505859,0.02099609,0.05566406,-0.3842773,-0.08300781
3485,13.875,31.0625,-313.3125,-1.556152,0.3857422,0.04785156,0.07861328,-0.3803711,-0.08154297
3490,26.3125,29.5625,-313,-1.777344,0.6342773,-0.05908203,0.1069336,-0.371582,-0.08007813
3494,28.75,20.875,-311.875,-1.847168,0.8286133,-0.07080078,0.1376953,-0.3632813,-0.07324219
3498,25.5625,13.1875,-297.875,-1.87793,1.030762,-0.112793,0.1547852,-0.3520508,-0.07470703
3502,6.6875,13.0625,-272.25,-1.839355,1.12793,-0.1938477,0.1796875,-0.3369141,-0.07080078
3506,-21.375,14.5,-246.375,-1.703613,1.150879,-0.2324219,0.2011719,-0.3208008,-0.07080078
3510,-36.4375,22.1875,-227.625,-1.467285,1.088867,-0.1435547,0.2138672,-0.3095703,-0.07080078
3514,-39.25,30.625,-211.875,-1.486328,1.053711,-0.01318359,0.2294922,-0.2944336,-0.07080078
3518,-35.125,30.125,-193,-1.505859,1.081055,0.1210938,0.2426758,-0.2768555,-0.07080078
3522,-21.875,21.6875,-173.875,-1.486328,1.143066,0.2250977,0.2509766,-0.2680664,-0.07324219
3526,-8.875,16.6875,-149.9375,-1.40918,1.255859,0.2519531,0.2617188,-0.2529297,-0.07324219
3530,-3.375,16.4375,-120.9375,-1.304199,1.36084,0.2211914,0.2709961,-0.2416992,-0.07177734
3534,4.1875,20.875,-91.125,-1.246094,1.450195,0.2480469,0.2734375,-0.2358398,-0.07080078
3538,-0.625,15.8125,-66.9375,-1.28125,1.566895,0.1982422,0.2773438,-0.2270508,-0.06933594
3542,-12.1875,6.625,-41.3125,-1.25,1.574707,0.2368164,0.2817383,-0.2231445,-0.07080078
3546,-17.375,2.0625,-15.6875,-1.246094,1.473633,0.2983398,0.2817383,-0.2216797,-0.06933594
3550,-9.5,-0.75,11.25,-1.261719,1.356934,0.355957,0.2832031,-0.2192383,-0.07080078
3554,3.75,-4.625,39.9375,-1.343262,1.255859,0.375,0.2807617,-0.2207031,-0.07080078
3558,20.875,-9.625,68.4375,-1.327637,1.209473,0.3789063,0.2783203,-0.2255859,-0.07080078
3562,39,-15.1875,89.875,-1.335449,1.217285,0.3212891,0.2749023,-0.2319336,-0.06933594
3566,47.25,-23.8125,106.5625,-1.420898,1.275391,0.2290039,0.2709961,-0.2431641,-0.06933594
3570,49.625,-30.75,128.8125,-1.529297,1.271484,0.125,0.2651367,-0.2470703,-0.06933594
3574,45.9375,-28.5625,164.1875,-1.610352,1.248047,0.02490234,0.2592773,-0.2617188,-0.06787109
3578,38.4375,-15.6875,204.125,-1.645508,1.217285,-0.04736328,0.2460938,-0.2744141,-0.06640625
3582,22.9375,-10.3125,232.125,-1.723145,1.221191,-0.109375,0.2368164,-0.2841797,-0.06640625
3586,1.3125,-15.25,246.125,-1.800293,1.189941,-0.1401367,0.2211914,-0.3056641,-0.06542969
3590,-13.75,-17.8125,254.5625,-1.78125,1.084961,-0.1362305,0.2021484,-0.3193359,-0.06787109
3594,-28.125,-14.4375,262.1875,-1.959473,1.081055,-0.1899414,0.1914063,-0.3320313,-0.06787109
3598,-44.8125,-26.875,291.125,-2.21875,0.9140625,-0.1977539,0.1699219,-0.3481445,-0.07177734
3602,-34.125,-17.6875,328.75,-1.901367,0.7041016,-0.112793,0.1401367,-0.359375,-0.07763672
3606,-35.3125,4.9375,350.375,-1.765625,0.7314453,-0.2514648,0.1225586,-0.3691406,-0.07861328
3610,-58.1875,8.3125,343.6875,-1.65332,0.7705078,-0.3325195,0.08691406,-0.3793945,-0.08154297
3614,-90.75,2,321.5625,-1.603027,0.824707,-0.4052734,0.05566406,-0.3857422,-0.09082031
3619,-131.125,-0.3125,308.6875,-1.563965,0.840332,-0.4438477,0.03417969,-0.3842773,-0.09765625
3623,-140.9375,6.5625,326.0625,-1.625977,0.5058594,-0.2705078,0.003417969,-0.3857422,-0.1113281
3627,-126.5625,24.0625,366.25,-1.486328,0.3271484,-0.1821289,-0.02832031,-0.3779297,-0.125
3631,-109.3125,44.0625,384.875,-1.203613,0.2963867,-0.1245117,-0.05224609,-0.371582,-0.1318359
3635,-111.25,36.375,369,-1.129883,0.3310547,-0.1474609,-0.08642578,-0.3579102,-0.1425781
3639,-117.9375,-8,318.75,-0.9711914,0.3041992,-0.08203125,-0.1152344,-0.3408203,-0.1538086
3643,-117.4375,-38.875,279.25,-0.8354492,0.2885742,-0.04003906,-0.1328125,-0.3291016,-0.1606445
3647,-104.625,-39.25,273.375,-0.699707,0.2148438,0.09033203,-0.1591797,-0.3105469,-0.1660156
3651,-82.5,-24.25,281.1875,-0.7851563,0.269043,0.08642578,-0.1806641,-0.2919922,-0.1738281
3655,-72.0625,-30.1875,288.25,-0.7270508,0.3349609,0.09814453,-0.1948242,-0.2768555,-0.1738281
3659,-69.625,-43.75,280.1875,-0.5952148,0.4013672,0.105957,-0.2128906,-0.2543945,-0.175293
3663,-74.4375,-70.125,261.8125,-0.5332031,0.300293,0.04443359,-0.2329102,-0.2294922,-0.175293
3667,-75.1875,-91,258.1875,-0.3125,-0.04150391,0.09423828,-0.2436523,-0.2143555,-0.1728516
3671,-53.125,-77.25,271.375,-0.02197266,-0.5073242,0.2060547,-0.2617188,-0.1894531,-0.1699219
3675,-22.5625,-59.9375,282,0.2451172,-0.9194336,0.2211914,-0.2758789,-0.1630859,-0.1645508
3679,-7.25,-47.0625,269.1875,0.6132813,-1.040039,0.1674805,-0.2827148,-0.1430664,-0.1630859
3683,-11.875,-42.875,224.6875,0.9892578,-1.370117,0.105957,-0.2924805,-0.1220703,-0.1577148
3687,-18.5,-38.625,161.75,1.326172,-1.754883,0.09033203,-0.2998047,-0.1030273,-0.1547852
3691,-21.6875,-31.625,99.0625,1.442383,-2.158691,0.05957031,-0.2998047,-0.09179688,-0.1523438
3695,-10.875,-16.9375,23.375,1.775879,-2.248047,0.140625,-0.3017578,-0.08300781,-0.1494141
3699,22.4375,-0.75,-84.75,1.837891,-1.917969,0.2211914,-0.3032227,-0.08544922,-0.1469727
3703,57,1.5625,-175.3125,1.306641,-1.463379,0.1635742,-0.3007813,-0.09423828,-0.1455078
3707,85.3125,5.625,-213.75,0.8417969,-1.059082,0.1132813,-0.2973633,-0.1157227,-0.1469727
3711,94.4375,17.4375,-220.875,0.5898438,-0.5893555,0.001953125,-0.2924805,-0.1396484,-0.144043
3715,80.375,28.4375,-220.125,0.4467773,-0.2470703,-0.1054688,-0.2866211,-0.1567383,-0.1469727
3719,61.3125,44.9375,-216.1875,0.3959961,-0.1499023,-0.1054688,-0.2792969,-0.1791992,-0.1484375
3723,64.375,74.5625,-211.1875,0.3305664,-0.2163086,0.05566406,-0.2651367,-0.2006836,-0.1508789
3727,93.9375,88.9375,-217.25,0.125,-0.2314453,0.1557617,-0.2578125,-0.2158203,-0.1523438
3731,118.3125,83.375,-236.1875,-0.08398438,0.01660156,0.03662109,-0.2412109,-0.2368164,-0.1508789
3735,116.125,64.3125,-257.6875,-0.2890625,0.2768555,-0.07470703,-0.2255859,-0.2607422,-0.1538086
3739,86,42.8125,-276.1875,-0.4790039,0.5527344,-0.2089844,-0.2128906,-0.2753906,-0.1494141
3743,43.6875,27.875,-285.875,-0.5834961,0.5952148,-0.1552734,-0.1899414,-0.296875,-0.1494141
3748,35.25,37.125,-281.0625,-0.6030273,0.5058594,-0.005371094,-0.1674805,-0.3144531,-0.1484375
3752,66.9375,55,-273.375,-0.6572266,0.284668,0.2329102,-0.1494141,-0.3266602,-0.144043
3756,108,53.5,-281.6875,-0.9516602,0.5566406,0.03662109,-0.1259766,-0.3408203,-0.144043
3760,103.5625,16.5,-294.9375,-1.180664,0.8481445,-0.1552734,-0.09716797,-0.3569336,-0.1347656
3764,63.375,-14.6875,-313.75,-1.168945,1.022949,-0.2744141,-0.07958984,-0.3666992,-0.1303711
3768,17.5625,-23.9375,-311,-1.137695,0.8598633,-0.2397461,-0.05078125,-0.371582,-0.1225586
3772,17.25,-12.9375,-298.375,-1.025391,0.3896484,0.02490234,-0.02099609,-0.3793945,-0.1225586
3776,66.625,17.4375,-292.1875,-1.052734,0.2456055,0.03662109,-0.003417969,-0.3803711,-0.1181641
3780,105,26.625,-296.125,-1.300781,0.4672852,-0.1782227,0.02587891,-0.3833008,-0.112793
3784,103.75,14.6875,-301.3125,-1.587402,0.8364258,-0.3823242,0.05566406,-0.3793945,-0.1035156
3788,77.75,0.3125,-290.125,-1.62207,1.04248,-0.3706055,0.07470703,-0.3793945,-0.09667969
3792,54.4375,6.0625,-271,-1.614258,0.90625,-0.3129883,0.1010742,-0.371582,-0.08984375
3796,39.9375,13.625,-254.6875,-1.54834,0.7739258,-0.2822266,0.125,-0.3642578,-0.08300781
3800,38.6875,14.875,-257.8125,-1.459473,0.5488281,-0.2055664,0.1416016,-0.3579102,-0.08007813
3804,56.5625,16.6875,-275.125,-1.40918,0.4555664,-0.1401367,0.1640625,-0.3466797,-0.07617188
3808,72.0625,14.0625,-293.3125,-1.637695,0.6303711,-0.1860352,0.1879883,-0.3330078,-0.07080078
3812,70.0625,4.6875,-288.75,-1.819824,0.9023438,-0.2055664,0.2021484,-0.3217773,-0.06542969
3816,59.8125,7.25,-259.875,-1.912598,1.069336,-0.1669922,0.2246094,-0.3017578,-0.05957031
3820,54,13.5625,-215.5625,-1.827637,1.162598,-0.1401367,0.2426758,-0.2866211,-0.05859375
3824,48,18.1875,-182.6875,-1.603027,1.244141,-0.109375,0.2485352,-0.2744141,-0.05273438
3828,37.75,21,-164.8125,-1.428223,1.325684,-0.1054688,0.2583008,-0.2592773,-0.04736328
3832,21.8125,18.4375,-152.8125,-1.397461,1.36084,-0.05908203,0.269043,-0.2470703,-0.04492188
3836,7.375,8.375,-133.4375,-1.513672,1.314453,-0.001464844,0.2749023,-0.2368164,-0.04492188
3840,4.1875,5.375,-99.375,-1.447754,1.294922,0.1518555,0.2807617,-0.2255859,-0.04199219
3844,10.0625,5.125,-61.1875,-1.405273,1.298828,0.2172852,0.2841797,-0.2192383,-0.04345703
3848,18.5625,2.75,-31.625,-1.331543,1.376465,0.2441406,0.2866211,-0.2158203,-0.04199219
3852,28.125,-5.1875,-3.25,-1.32373,1.388184,0.2368164,0.2880859,-0.2158203,-0.04345703
3856,35,-9.5,24.0625,-1.300781,1.418945,0.1865234,0.2856445,-0.2158203,-0.03955078
3860,40.3125,-18.3125,48.5625,-1.319824,1.399902,0.1367188,0.2866211,-0.2182617,-0.04052734
3864,40.3125,-24.375,72.9375,-1.315918,1.380371,0.07519531,0.2832031,-0.2231445,-0.04052734
3868,34.75,-28.375,94.8125,-1.351074,1.32959,0.02490234,0.2783203,-0.2304688,-0.04052734
3872,32.6875,-33.4375,116.8125,-1.362793,1.251953,0.005859375,0.2773438,-0.2358398,-0.03955078
3877,31.25,-36,136.375,-1.393555,1.17041,0.005859375,0.269043,-0.2480469,-0.03955078
3881,30.8125,-43.75,148.5,-1.517578,1.146973,0.04443359,0.2617188,-0.2592773,-0.04199219
3885,35.375,-59.125,159.4375,-1.641602,1.178223,0.07128906,0.253418,-0.2670898,-0.04492188
3889,40.4375,-72.1875,171.5625,-1.808105,1.112305,0.04052734,0.2451172,-0.2792969,-0.04638672
3893,43.5,-69.125,207.125,-1.885742,1.240234,-0.09765625,0.234375,-0.2954102,-0.04736328
3897,33.4375,-49.8125,250.5,-1.893555,1.124023,-0.2246094,0.2211914,-0.3066406,-0.04882813
3901,16.4375,-26.25,292.8125,-1.889648,1.120117,-0.2939453,0.2021484,-0.3232422,-0.04882813
3905,-9.8125,-8,317.875,-1.839355,1.084961,-0.3286133,0.1772461,-0.3432617,-0.04882813
3909,-39.625,-7.9375,319.625,-1.82373,1.030762,-0.3666992,0.1606445,-0.3544922,-0.05175781
3913,-74.125,-10.75,312.8125,-1.765625,0.956543,-0.3359375,0.1318359,-0.3691406,-0.05712891
3917,-94.25,-21.6875,295,-1.908691,0.9414063,-0.2631836,0.1010742,-0.3779297,-0.06396484
3921,-103.4375,-44.625,298.25,-2.184082,0.9257813,-0.2285156,0.08300781,-0.3833008,-0.07470703
3925,-100.9375,-53.375,328.8125,-2.152832,0.8012695,-0.1977539,0.05078125,-0.3881836,-0.08447266
3929,-99.875,-37.375,368.9375,-1.967285,0.7236328,-0.2324219,0.01660156,-0.3891602,-0.09521484
3933,-93.5625,-18.1875,398.75,-1.65332,0.5019531,-0.1401367,-0.0078125,-0.3867188,-0.1035156
3937,-82.1875,-15.5,387.8125,-1.665039,0.4711914,-0.1552734,-0.04833984,-0.3793945,-0.1098633
3941,-90.9375,-38.75,379.0625,-1.541016,0.3779297,-0.1743164,-0.08544922,-0.3681641,-0.1166992
3945,-92,-49.8125,363.875,-1.327637,0.2265625,-0.09765625,-0.1103516,-0.3579102,-0.1225586
3949,-72.9375,-49.125,364.625,-1.327637,0.02441406,0.06347656,-0.1435547,-0.3378906,-0.1289063
3953,-47.25,-35.9375,394.9375,-1.137695,-0.1347656,0.05566406,-0.1782227,-0.3168945,-0.1279297
3957,-41.4375,-28.625,407.5,-0.8164063,-0.2431641,-0.06689453,-0.1982422,-0.2993164,-0.1289063
3961,-45.3125,-29.75,385.6875,-0.5063477,-0.46875,-0.06298828,-0.2280273,-0.2705078,-0.1303711
3965,-48.25,-46.6875,341.25,-0.1459961,-0.7094727,-0.02050781,-0.2519531,-0.2368164,-0.1303711
3969,-33.9375,-44.375,289.625,0.2993164,-0.9970703,0.1098633,-0.2651367,-0.2207031,-0.1279297
3973,-1.25,-16.9375,248.9375,0.4853516,-0.9736328,0.1748047,-0.2783203,-0.1933594,-0.1264648
3977,21.1875,0.875,224.75,0.5512695,-0.8842773,0.1328125,-0.2875977,-0.1743164,-0.125
3981,22.3125,6.5,195.125,0.6635742,-0.7563477,0.02490234,-0.2949219,-0.1606445,-0.125
3985,-0.0625,2.5,159.6875,0.8222656,-0.7016602,-0.05908203,-0.3007813,-0.1420898,-0.125
3989,-29.4375,-11.25,105.375,1.05127,-0.7753906,-0.1054688,-0.3041992,-0.1308594,-0.1235352
3993,-49.9375,-10.25,58.0625,1.182617,-0.9350586,0.001953125,-0.3066406,-0.1206055,-0.125
3997,-40.5625,3.25,19.625,1.194336,-1.152344,0.1904297,-0.3081055,-0.1142578,-0.1210938
4001,-10.25,27,-5.4375,1.101563,-1.140625,0.2827148,-0.3081055,-0.1132813,-0.1264648
4006,13.6875,37.375,-26.625,0.9736328,-0.9697266,0.2905273,-0.3066406,-0.1132813,-0.1279297
4010,28.125,34.625,-52.0625,0.9658203,-0.8261719,0.3056641,-0.3041992,-0.1181641,-0.1303711
4014,39.0625,29.0625,-82.9375,1.031738,-0.7133789,0.2905273,-0.3032227,-0.1254883,-0.1347656
4018,49.5,21.625,-121.8125,1.047363,-0.6240234,0.3056641,-0.2983398,-0.1308594,-0.1318359
4022,64.5,12.8125,-158.3125,0.9697266,-0.6083984,0.3134766,-0.2949219,-0.1469727,-0.1333008
4026,84.125,12.9375,-188.6875,0.9038086,-0.565918,0.2827148,-0.2890625,-0.1655273,-0.1333008
4030,98.1875,18.3125,-217.3125,0.7177734,-0.4921875,0.1943359,-0.2817383,-0.1821289,-0.1318359
4034,118.375,28.5,-235.1875,0.5395508,-0.46875,0.1674805,-0.2724609,-0.2045898,-0.1303711
4038,150.125,49.4375,-239.6875,0.3266602,-0.4453125,0.1748047,-0.2592773,-0.2280273,-0.1279297
4042,176.5,62.1875,-244.1875,0.1210938,-0.2202148,0.01367188,-0.2485352,-0.2470703,-0.1235352
4046,163.25,56.875,-261.4375,-0.1069336,0.1875,-0.2363281,-0.2319336,-0.2729492,-0.1196289
4050,89.6875,18.5625,-295.9375,-0.378418,0.5761719,-0.4282227,-0.2089844,-0.2954102,-0.1113281
4054,23.125,-25.25,-328.375,-0.3862305,0.2456055,-0.06689453,-0.1962891,-0.3105469,-0.1098633
4058,54.9375,-11.125,-348.25,-0.3862305,-0.2705078,0.3637695,-0.168457,-0.3320313,-0.1074219
4062,139.875,23,-353.75,-0.7929688,-0.2470703,0.3520508,-0.1391602,-0.3505859,-0.1005859
4066,167.4375,20.0625,-351,-1.428223,0.5332031,-0.2285156,-0.1162109,-0.3632813,-0.09228516
4070,87.9375,-42,-357.1875,-1.769531,1.193848,-0.6323242,-0.08300781,-0.3779297,-0.07470703
4074,26.6875,-77.625,-350.6875,-1.436035,0.7666016,-0.2670898,-0.04833984,-0.3881836,-0.07080078
4078,58.1875,-42.4375,-336.8125,-1.319824,0.2924805,0.04785156,-0.02587891,-0.3916016,-0.06640625
4082,104.375,-13.3125,-321.375,-1.665039,0.5371094,-0.2397461,0.006835938,-0.3945313,-0.06103516
4086,81,-33.3125,-312.25,-1.800293,0.9335938,-0.5898438,0.03808594,-0.3930664,-0.05029297
4090,27.125,-58.5,-313.8125,-1.591309,0.8051758,-0.5825195,0.06054688,-0.3916016,-0.04638672
4094,8.625,-52.75,-308,-1.439941,0.3935547,-0.34375,0.08789063,-0.3833008,-0.04638672
4098,18.375,-30.3125,-293.375,-1.459473,0.1835938,-0.2631836,0.1186523,-0.3754883,-0.04638672
4102,24.3125,-13.875,-288,-1.529297,0.1333008,-0.2670898,0.1367188,-0.3666992,-0.04492188
4106,32.1875,-10.6875,-309.875,-1.571777,0.1445313,-0.2705078,0.1616211,-0.3530273,-0.04345703
4110,43.875,-14.5625,-346.8125,-1.695801,0.3310547,-0.3012695,0.1904297,-0.3354492,-0.03955078
4114,53.125,-16.375,-368.625,-1.95166,0.6108398,-0.2900391,0.2094727,-0.3217773,-0.03955078
4118,50.9375,-13.75,-337.8125,-2.246094,0.8364258,-0.2783203,0.234375,-0.2954102,-0.03662109
4122,33.4375,-8.875,-270,-2.272949,1.116211,-0.3012695,0.253418,-0.2719727,-0.03271484
4126,-1,-8.5,-211.8125,-2.013672,1.209473,-0.3666992,0.2651367,-0.2592773,-0.03271484
4130,-36.375,-7.6875,-183.75,-1.657227,1.120117,-0.3325195,0.2749023,-0.2416992,-0.03515625
4135,-56.75,-1.5625,-177.9375,-1.428223,0.9838867,-0.1938477,0.2841797,-0.2255859,-0.03955078
4139,-56.125,9,-177.8125,-1.351074,0.8867188,-0.02441406,0.2890625,-0.2143555,-0.04052734
4143,-38.75,25.0625,-164,-1.413086,0.8051758,0.1518555,0.2949219,-0.1967773,-0.04052734
4147,-15.75,32.8125,-131.6875,-1.521484,0.824707,0.2441406,0.3022461,-0.1821289,-0.03955078
4151,-2.9375,23.4375,-97.125,-1.603027,0.8598633,0.2402344,0.3046875,-0.1743164,-0.03662109
4155,1.625,3,-76.375,-1.513672,0.890625,0.2172852,0.3056641,-0.1645508,-0.03808594
4159,7.375,-10.3125,-66.1875,-1.370117,0.855957,0.1943359,0.309082,-0.1582031,-0.03808594
4163,17.125,-10.0625,-56.125,-1.335449,0.824707,0.1674805,0.309082,-0.1533203,-0.03808594
4167,27.5,-6.4375,-38.9375,-1.393555,0.8789063,0.1098633,0.3105469,-0.1494141,-0.03808594
4171,27.5625,-6.75,-15.5,-1.498047,0.953125,0.03662109,0.3115234,-0.1445313,-0.03662109
4175,22.9375,-8.6875,12.3125,-1.529297,0.9995117,-0.009277344,0.3115234,-0.1455078,-0.03955078
4179,16.9375,-8.4375,43.9375,-1.54834,0.987793,-0.04394531,0.3129883,-0.1455078,-0.03662109
4183,16.3125,-1.625,79.1875,-1.509766,0.9179688,-0.02441406,0.309082,-0.1557617,-0.03808594
4187,22.5,5.1875,103.875,-1.54834,0.8984375,-0.009277344,0.309082,-0.1591797,-0.03662109
4191,27.1875,5.125,126.5,-1.699707,0.953125,-0.05517578,0.3056641,-0.171875,-0.03271484
4195,22.375,6.4375,152.3125,-1.796387,1.022949,-0.0859375,0.3007813,-0.1845703,-0.03369141
4199,10.9375,-2.3125,175.5625,-2.133789,1.088867,-0.128418,0.2973633,-0.1943359,-0.03271484
4203,-6.3125,-18.875,217.0625,-2.412598,1.108398,-0.2016602,0.2915039,-0.2104492,-0.03369141
4207,-29.75,-24,274.5,-2.498047,1.088867,-0.2900391,0.2807617,-0.2319336,-0.03515625
4211,-54.625,-21.6875,325.4375,-2.563965,0.8598633,-0.3359375,0.2675781,-0.2504883,-0.03808594
4215,-71.75,-20.625,356.4375,-2.563965,0.6655273,-0.2939453,0.25,-0.2783203,-0.04638672
4219,-75.5625,-17,381.9375,-2.528809,0.3974609,-0.2285156,0.2260742,-0.3056641,-0.05175781
4223,-69.75,-10.375,392,-2.486328,0.4282227,-0.2016602,0.2055664,-0.3232422,-0.05273438
4227,-89.9375,-19,397.9375,-2.59082,0.5605469,-0.3398438,0.1748047,-0.3457031,-0.0625
4231,-119.0625,-38.3125,407.0625,-2.486328,0.3740234,-0.324707,0.1391602,-0.3618164,-0.07324219
4235,-117.5,-39.5625,414.375,-2.184082,0.203125,-0.1860352,0.112793,-0.3730469,-0.08154297
4239,-116.125,-31.8125,427.875,-2.114258,0.203125,-0.2592773,0.07226563,-0.3803711,-0.09521484
4243,-115.1875,-33.9375,438.4375,-1.974609,0.1176758,-0.2436523,0.02832031,-0.3833008,-0.1074219
4247,-114.3125,-43.3125,434.875,-1.866211,0.06298828,-0.2783203,-0.0009765625,-0.3857422,-0.1157227
4251,-95.875,-44.5,422.6875,-1.533203,-0.06054688,-0.112793,-0.04394531,-0.3754883,-0.1235352
4255,-73.4375,-35.5,419.5625,-1.381836,-0.1035156,-0.1591797,-0.08544922,-0.3632813,-0.1318359
4259,-65.9375,-28.25,417,-1.176758,-0.1459961,-0.2016602,-0.1113281,-0.3520508,-0.1347656
4264,-77.75,-30.6875,403.5,-0.9594727,-0.2084961,-0.2397461,-0.1484375,-0.3320313,-0.1386719
4268,-95.6875,-53.5625,372.875,-0.730957,-0.4414063,-0.1977539,-0.1831055,-0.3066406,-0.1416016
4272,-90.9375,-67,332.875,-0.2583008,-0.7792969,0.01708984,-0.2006836,-0.2880859,-0.1455078
4276,-60.5,-49.5625,287.875,0.05908203,-0.8959961,0.1289063,-0.2255859,-0.2641602,-0.1455078
4280,-32.5,-29.5,248.4375,0.09375,-0.7832031,0.1635742,-0.2446289,-0.2382813,-0.1455078
4284,-14.25,-26,231.875,0.08642578,-0.6708984,0.1098633,-0.253418,-0.2270508,-0.144043
4288,-13.375,-23.5,232.8125,0.2490234,-0.6787109,0.005859375,-0.2651367,-0.2055664,-0.144043
4292,-22.375,-24.125,217.625,0.7255859,-0.7949219,-0.03613281,-0.2783203,-0.1855469,-0.1401367
4296,-34.125,-14.1875,170.1875,1.124512,-0.9736328,-0.009277344,-0.2817383,-0.1733398,-0.1401367
4300,-43.25,-17.0625,114.125,1.244629,-1.171875,0.009765625,-0.2890625,-0.1567383,-0.1401367
4304,-41.375,-20.5,62.5625,1.430664,-1.447754,0.06347656,-0.293457,-0.1469727,-0.1386719
4308,-14.6875,-1.3125,21.4375,1.655762,-1.634277,0.2172852,-0.2949219,-0.1420898,-0.1401367
4312,23.375,25.9375,-34,1.651855,-1.486816,0.2983398,-0.2949219,-0.1430664,-0.1416016
4316,50.75,30.9375,-100.6875,1.364746,-1.109863,0.2519531,-0.293457,-0.1479492,-0.1425781
4320,61.875,23.875,-156.4375,1.089844,-0.8417969,0.2368164,-0.2890625,-0.1582031,-0.1425781
4324,68.375,20.875,-194.5,0.8769531,-0.6357422,0.2290039,-0.2841797,-0.1757813,-0.1425781
4328,73,22.3125,-213.125,0.59375,-0.4570313,0.1943359,-0.2709961,-0.1967773,-0.1416016
4332,79.625,25,-218.375,0.4541016,-0.3134766,0.140625,-0.2651367,-0.2104492,-0.1401367
4336,82.5625,39.6875,-218.375,0.3652344,-0.2124023,0.07910156,-0.2519531,-0.2319336,-0.1386719
4340,89.375,59,-217.6875,0.206543,-0.1420898,0.04052734,-0.2387695,-0.2529297,-0.1401367
4344,95.4375,61.875,-227.625,0.01269531,-0.09570313,0.01367188,-0.2270508,-0.265625,-0.1386719
4348,110.3125,57.4375,-241.5,-0.1689453,-0.05664063,0.04785156,-0.206543,-0.2895508,-0.1357422
4352,110.75,45.4375,-257.5,-0.362793,0.1020508,-0.08203125,-0.1889648,-0.3081055,-0.1303711
4356,96.4375,27.4375,-278.1875,-0.5214844,0.2768555,-0.1513672,-0.1733398,-0.3208008,-0.1279297
4360,75.3125,5.6875,-291.5,-0.7348633,0.2338867,-0.08984375,-0.1484375,-0.3393555,-0.1225586
4364,94.75,2.125,-298.875,-0.7773438,0.03613281,0.1098633,-0.1235352,-0.3530273,-0.1157227
4368,135.625,16.3125,-305.875,-0.9326172,0.09033203,0.06738281,-0.1044922,-0.3666992,-0.1088867
4372,152.6875,9.8125,-320.6875,-1.261719,0.4907227,-0.2167969,-0.07568359,-0.3769531,-0.09667969
4376,118.9375,-22.3125,-331.75,-1.501953,0.855957,-0.4399414,-0.04248047,-0.3881836,-0.08300781
4380,66.375,-49.5625,-330.625,-1.501953,0.6772461,-0.3901367,-0.0234375,-0.3916016,-0.07470703
4384,50.625,-49.5,-328.5625,-1.370117,0.3779297,-0.2167969,0.01074219,-0.3930664,-0.06933594
4388,81.4375,-28.3125,-333.1875,-1.37793,0.1137695,-0.09765625,0.04248047,-0.390625,-0.0625
4393,127.8125,-10,-347.5,-1.65332,0.2495117,-0.2397461,0.06542969,-0.390625,-0.05566406
4397,126.3125,-23.8125,-362.5,-1.92041,0.6186523,-0.5053711,0.09765625,-0.3818359,-0.04345703
4401,82.3125,-49.8125,-363.0625,-2.044434,0.840332,-0.5864258,0.1308594,-0.3706055,-0.03369141
4405,30.4375,-68,-343.125,-1.982422,0.7041016,-0.4746094,0.1547852,-0.3569336,-0.03271484
4409,-7,-62.0625,-311.3125,-1.742188,0.4633789,-0.3515625,0.184082,-0.3393555,-0.03515625
4413,-24.375,-43.25,-295.75,-1.625977,0.1601563,-0.2900391,0.2080078,-0.3217773,-0.03955078
4417,-20.3125,-24.25,-308.3125,-1.541016,0.0009765625,-0.2285156,0.222168,-0.3081055,-0.04052734
4421,-11.9375,-7.375,-336.5,-1.665039,-0.02587891,-0.1591797,0.2426758,-0.2832031,-0.04199219
4425,-6.375,-0.875,-356.0625,-1.932129,0.04394531,-0.09375,0.2626953,-0.2543945,-0.04492188
4429,1.5,-2,-356.0625,-2.195801,0.15625,0.03271484,0.2773438,-0.2358398,-0.04638672
4433,16,-8.5,-333.6875,-2.315918,0.3310547,0.05175781,0.2939453,-0.2045898,-0.04345703
4437,29.0625,-4.875,-296.9375,-2.226563,0.5644531,0.02880859,0.3046875,-0.1733398,-0.04345703
4441,32.875,-1.1875,-260.625,-2.12207,0.875,-0.1435547,0.3105469,-0.1533203,-0.04638672
4445,25.375,2.375,-222.375,-1.932129,1.189941,-0.1782227,0.3164063,-0.1279297,-0.04638672
4449,17.125,16.8125,-174.5625,-1.939941,1.221191,-0.1743164,0.3188477,-0.1108398,-0.04492188
4453,9.625,20.9375,-99.9375,-2.071777,1.294922,-0.1015625,0.3212891,-0.09960938,-0.04199219
4457,-13.25,20.75,-24.8125,-1.92041,1.317871,-0.05908203,0.3212891,-0.09082031,-0.03955078
4461,-33.4375,16.875,17.75,-1.67627,1.146973,-0.001464844,0.3212891,-0.09082031,-0.03808594
4465,-40.125,10.375,34.5625,-1.494141,0.956543,0.1020508,0.3198242,-0.09179688,-0.03808594
4469,-30,10.5625,44.0625,-1.436035,0.7973633,0.2329102,0.3198242,-0.09570313,-0.03515625
4473,-4.625,12.5625,57.8125,-1.501953,0.7236328,0.3017578,0.3188477,-0.09960938,-0.03808594
4477,15.875,9,77.625,-1.591309,0.793457,0.2172852,0.3173828,-0.1030273,-0.03662109
4481,20.125,2.5,100.75,-1.641602,0.840332,0.09814453,0.3173828,-0.1132813,-0.03515625
4485,19.8125,-6.25,123,-1.687988,0.875,0.001953125,0.3154297,-0.1254883,-0.03515625
4489,13.5625,-11.125,148.4375,-1.719238,0.8481445,-0.05517578,0.3154297,-0.1333008,-0.03369141
4493,7.75,-8.25,177.6875,-1.769531,0.7739258,-0.05908203,0.309082,-0.1494141,-0.03662109
4497,3.375,-7.9375,203.625,-1.812012,0.7236328,-0.05517578,0.3056641,-0.1669922,-0.03662109
4501,-1.125,-12.1875,221.5,-1.908691,0.6420898,-0.02832031,0.3022461,-0.1806641,-0.03662109
4505,-2.125,-16.125,238.3125,-1.994141,0.6030273,-0.01318359,0.2949219,-0.2045898,-0.03662109
4509,-7.4375,-15.1875,256.3125,-2.098633,0.6538086,-0.05908203,0.2841797,-0.2246094,-0.03808594
4513,-20.4375,-16,282.3125,-2.284668,0.6811523,-0.1669922,0.2758789,-0.2407227,-0.04052734
4517,-42.1875,-24.875,319.9375,-2.37793,0.6342773,-0.2705078,0.2592773,-0.265625,-0.04052734
4522,-58.125,-24.1875,351.125,-2.25,0.4399414,-0.2670898,0.2392578,-0.2929688,-0.04638672
4526,-55.75,-17.5625,363.8125,-2.106445,0.3232422,-0.2436523,0.2202148,-0.3095703,-0.05273438
4530,-56.1875,-6,365.625,-2.052246,0.3896484,-0.2363281,0.1914063,-0.3330078,-0.05712891
4534,-65.75,-6,370.5625,-2.087402,0.3896484,-0.2861328,0.1630859,-0.3530273,-0.06396484
4538,-75.125,-10.375,373.0625,-1.924316,0.315918,-0.2670898,0.1391602,-0.3632813,-0.06640625
4542,-70.4375,-3.8125,366.375,-1.78125,0.2807617,-0.1708984,0.1044922,-0.3754883,-0.07763672
4546,-74,-0.8125,379.6875,-1.75,0.3818359,-0.2246094,0.06982422,-0.3842773,-0.08300781
4550,-89.1875,-4.8125,379.25,-1.746094,0.4165039,-0.2553711,0.04394531,-0.3867188,-0.08691406
4554,-100.1875,-20.6875,366.6875,-1.691895,0.4321289,-0.2246094,0.006835938,-0.3881836,-0.09765625
4558,-98.1875,-34.875,360.875,-1.591309,0.3349609,-0.128418,-0.02832031,-0.3833008,-0.1074219
4562,-87.3125,-35.6875,365.75,-1.54834,0.3583984,-0.1474609,-0.05419922,-0.3779297,-0.1142578
4566,-83.8125,-31.3125,381.375,-1.54834,0.4282227,-0.1362305,-0.09033203,-0.3681641,-0.1196289
4570,-81.125,-26.375,410,-1.475098,0.2963867,-0.1591797,-0.1269531,-0.3491211,-0.125
4574,-71.375,-19.4375,418.0625,-1.219238,0.1835938,-0.06689453,-0.1518555,-0.3354492,-0.1279297
4578,-67.1875,-18.375,423.75,-1.075684,0.02441406,-0.109375,-0.1875,-0.3081055,-0.1333008
4582,-66.125,-31.75,408.4375,-0.8510742,-0.1616211,-0.09765625,-0.2197266,-0.2783203,-0.1357422
4586,-67.875,-41.4375,386.25,-0.5449219,-0.324707,-0.05126953,-0.2353516,-0.2568359,-0.137207
4590,-73.375,-35.4375,362.9375,-0.2543945,-0.5424805,-0.02832031,-0.2592773,-0.2246094,-0.1357422
4594,-84.25,-33.3125,315.5625,0.1328125,0.315918,0.159668,-0.2792969,-0.1879883,-0.137207
4598,-68.625,-46.4375,283.125,0.3613281,-1.175781,0.2094727,-0.2875977,-0.1679688,-0.1357422
4602,-27.375,-28.125,235.6875,0.8691406,-1.556641,0.3671875,-0.2983398,-0.140625,-0.1333008
4606,9.25,2.5,213.8125,0.9350586,-1.603027,0.1904297,-0.3032227,-0.1181641,-0.1303711
4610,-20.75,-6.9375,194.0625,1.016113,-1.564453,-0.2900391,-0.3066406,-0.1044922,-0.1318359
4614,-85.6875,-17.125,158.3125,1.585938,-2.124023,-0.34375,-0.3105469,-0.08544922,-0.1303711
4618,-72,11.1875,60.0625,2.229004,-2.660156,0.2480469,-0.3105469,-0.06933594,-0.1318359
4622,0.5625,9,-115.0625,2.074219,-2.108398,0.3251953,-0.3115234,-0.06835938,-0.1318359
4626,90.5625,28.125,-194.5,1.302734,-1.591309,0.4018555,-0.3081055,-0.08056641,-0.1333008
4630,145.125,35.875,-208.625,0.5708008,-0.9506836,0.125,-0.3056641,-0.1083984,-0.1357422
4634,126.5625,22,-199.1875,0.3457031,-0.1811523,-0.1435547,-0.3007813,-0.1230469,-0.137207
4638,66.9375,0.75,-208.0625,0.4233398,0.09033203,-0.2016602,-0.293457,-0.1455078,-0.1333008
4642,24.75,-7.4375,-224.4375,0.5161133,-0.06054688,-0.04736328,-0.2900391,-0.1679688,-0.1333008
4646,31.125,14.3125,-237.5,0.559082,-0.2900391,0.1557617,-0.2841797,-0.1855469,-0.1347656
4651,67.3125,47.25,-242.4375,0.3227539,-0.3095703,0.1982422,-0.2709961,-0.2070313,-0.1347656
4655,104.1875,58.25,-243.125,-0.02587891,-0.1499023,0.1289063,-0.2553711,-0.2319336,-0.1347656
4659,117.0625,58.3125,-245.0625,-0.1884766,0.2299805,-0.02832031,-0.2470703,-0.2456055,-0.1318359
4663,92.0625,44.9375,-251.4375,-0.3510742,0.4711914,-0.1743164,-0.2280273,-0.2705078,-0.1303711
4667,51.4375,26.6875,-266.5625,-0.3706055,0.6030273,-0.1362305,-0.2080078,-0.2895508,-0.1279297
4671,11.5625,15.25,-280.5625,-0.3901367,0.5175781,-0.07470703,-0.1948242,-0.3017578,-0.1279297
4675,-3.25,17.3125,-289.1875,-0.3901367,0.2148438,0.09423828,-0.1733398,-0.3178711,-0.1289063
4679,21.0625,31.125,-296.125,-0.5527344,0.01269531,0.2060547,-0.1484375,-0.3354492,-0.1289063
4683,62.5,36.3125,-300.4375,-0.7543945,-0.01806641,0.2060547,-0.1293945,-0.3466797,-0.1279297
4687,91.4375,39.0625,-307.25,-0.9750977,0.2109375,0.05957031,-0.1020508,-0.3579102,-0.125
4691,81.3125,22.5625,-305.625,-1.184082,0.3974609,-0.1552734,-0.07226563,-0.371582,-0.1166992
4695,65.9375,10.4375,-315.5625,-1.149414,0.4399414,-0.1015625,-0.05078125,-0.3793945,-0.1113281
4699,79.375,23.0625,-320.6875,-1.184082,0.3662109,-0.05126953,-0.02001953,-0.3833008,-0.1044922
4703,109.9375,37.875,-327.25,-1.335449,0.3583984,-0.04003906,0.01171875,-0.3857422,-0.09765625
4707,131.5,40.0625,-331,-1.610352,0.6459961,-0.2246094,0.03564453,-0.3881836,-0.08691406
4711,109.4375,12.6875,-328.4375,-1.827637,0.8945313,-0.4248047,0.06640625,-0.3857422,-0.07470703
4715,62.3125,-17.6875,-317.4375,-1.684082,0.9995117,-0.4936523,0.09863281,-0.3793945,-0.06542969
4719,16.1875,-21.625,-308.5625,-1.471191,0.8632813,-0.3823242,0.1186523,-0.3730469,-0.06542969
4723,-7.8125,-11.0625,-303.375,-1.432129,0.5839844,-0.2553711,0.1459961,-0.359375,-0.06542969
4727,-4.125,2.125,-307.5,-1.479004,0.4165039,-0.1245117,0.1723633,-0.3442383,-0.06396484
4731,3.5625,12.25,-319,-1.595215,0.4594727,-0.1166992,0.1889648,-0.3330078,-0.06396484
4735,-0.625,5.375,-328.3125,-1.79248,0.5722656,-0.1401367,0.2138672,-0.3120117,-0.06103516
4739,-15.5625,-2.375,-318.5,-1.974609,0.5913086,-0.05908203,0.2368164,-0.2880859,-0.0625
4743,-18.5,-3.875,-289.4375,-1.994141,0.4790039,0.03271484,0.2519531,-0.2719727,-0.06396484
4747,-10.5625,5.25,-261,-1.874023,0.4907227,0.07128906,0.2666016,-0.2495117,-0.06542969
4751,-7,7.1875,-250.0625,-1.858398,0.5991211,0.01708984,0.2783203,-0.2270508,-0.06542969
4755,-12,1.25,-244.1875,-1.827637,0.793457,0.001953125,0.2880859,-0.2104492,-0.06396484
4759,-18.25,-5.1875,-230.3125,-1.847168,0.8598633,0.04443359,0.2963867,-0.1870117,-0.06542969
4763,-6,-5.3125,-193.4375,-1.847168,0.9023438,0.2094727,0.3056641,-0.1679688,-0.06640625
4767,20.1875,5.625,-136.5,-1.866211,0.953125,0.2866211,0.309082,-0.1557617,-0.06787109
4771,38.75,14.0625,-75.875,-1.785156,1.131836,0.1748047,0.3129883,-0.1445313,-0.06640625
4775,25.25,13.1875,-30.125,-1.67627,1.291016,0.01367188,0.3129883,-0.1381836,-0.06542969
4780,-8.9375,4.9375,0.9375,-1.563965,1.255859,-0.01660156,0.3115234,-0.1367188,-0.06396484
4784,-36.125,-1,22.3125,-1.463379,1.061523,0.08251953,0.3129883,-0.140625,-0.06103516
4788,-39.0625,0.0625,44.8125,-1.459473,0.875,0.2519531,0.3115234,-0.140625,-0.06396484
4792,-27.9375,1.5625,66.25,-1.490234,0.7895508,0.355957,0.3115234,-0.1445313,-0.06542969
4796,-6.875,-4.375,86.375,-1.537109,0.7197266,0.409668,0.3081055,-0.1518555,-0.06542969
4800,16.375,-8.375,104.5,-1.537109,0.7856445,0.3828125,0.3071289,-0.1591797,-0.06542969
4804,25.875,-14.6875,124,-1.603027,0.8789063,0.2329102,0.3046875,-0.1669922,-0.06542969
4808,23.9375,-20.3125,146.5625,-1.649414,0.9335938,0.125,0.2998047,-0.1791992,-0.06396484
4812,18.375,-21.4375,174.4375,-1.691895,0.9296875,0.05957031,0.2949219,-0.1967773,-0.06787109
4816,7.75,-18.0625,204.125,-1.788574,0.9101563,0.005859375,0.2890625,-0.2070313,-0.06787109
4820,-2.8125,-18.875,230.1875,-1.889648,0.8364258,0.001953125,0.2807617,-0.2270508,-0.06933594
4824,-11.875,-24.25,252.5,-1.947754,0.7431641,0.009765625,0.2666016,-0.2470703,-0.07177734
4828,-7.9375,-24.875,271.625,-1.916504,0.6030273,0.07519531,0.2592773,-0.2617188,-0.07080078
4832,0,-20.6875,289.9375,-1.959473,0.5644531,0.03271484,0.2412109,-0.2841797,-0.07324219
4836,-1.75,-19.4375,304.625,-1.955566,0.6069336,-0.02050781,0.2211914,-0.3056641,-0.07617188
4840,-10.5625,-25.5,312.0625,-2.021484,0.6147461,-0.1054688,0.2045898,-0.3208008,-0.07861328
4844,-21.0625,-32,325.625,-1.92041,0.6264648,-0.1782227,0.1806641,-0.3393555,-0.08154297
4848,-33.8125,-22.8125,337.75,-1.773438,0.5722656,-0.1899414,0.1484375,-0.3544922,-0.08691406
4852,-47.5,-26.4375,337.4375,-1.870117,0.6225586,-0.2670898,0.1293945,-0.3642578,-0.08837891
4856,-72.8125,-34.25,343.75,-1.719238,0.6538086,-0.2705078,0.09765625,-0.3730469,-0.09375
4860,-83.3125,-34.8125,339.1875,-1.637695,0.5214844,-0.1782227,0.06298828,-0.3803711,-0.1044922
4864,-81,-42.1875,344.375,-1.703613,0.4711914,-0.1474609,0.04248047,-0.3818359,-0.1098633
4868,-71.75,-36.5,355.1875,-1.556152,0.4711914,-0.07080078,0.005859375,-0.3818359,-0.1166992
4872,-71.0625,-38.125,368.9375,-1.544922,0.4946289,-0.1630859,-0.02832031,-0.3754883,-0.1235352
4876,-79.1875,-38,376.9375,-1.362793,0.4477539,-0.2128906,-0.05322266,-0.371582,-0.1279297
4880,-91.625,-38,376.5625,-1.195801,0.3271484,-0.1708984,-0.09033203,-0.3579102,-0.1333008
4884,-85.3125,-40.4375,365.5,-1.044922,0.1293945,-0.04003906,-0.1235352,-0.3432617,-0.1401367
4888,-60.25,-42.625,351.0625,-1.033203,0.121582,0.07910156,-0.1459961,-0.3291016,-0.1455078
4892,-42.125,-46.25,352.6875,-0.9750977,0.171875,0.03662109,-0.1782227,-0.3095703,-0.1469727
4896,-18.1875,-40.125,357.6875,-0.7348633,0.05517578,0.1748047,-0.2045898,-0.2841797,-0.1455078
4900,-2.125,-29.75,367.0625,-0.746582,0.1757813,0.04785156,-0.222168,-0.2680664,-0.1455078
4904,-16.3125,-28.1875,376.9375,-0.6069336,0.1757813,-0.06689453,-0.2470703,-0.2368164,-0.1401367
4909,-40.1875,-34.8125,376.9375,-0.4326172,-0.08398438,-0.06689453,-0.2675781,-0.2070313,-0.137207
4913,-48.8125,-51.4375,368.6875,-0.28125,-0.4648438,0.03271484,-0.2792969,-0.1821289,-0.1357422
4917,-39.5625,-61.75,354.9375,-0.01806641,-0.8535156,0.1518555,-0.2949219,-0.1479492,-0.1333008
4921,-24.75,-56.8125,356.375,0.206543,-0.9580078,0.1635742,-0.3041992,-0.1108398,-0.1289063
4925,-29.125,-49.0625,354.25,0.3535156,-1.350586,0.1020508,-0.3115234,-0.08691406,-0.125
4929,-38.75,-44.75,336.375,0.9155273,-1.960449,0.03271484,-0.3173828,-0.05078125,-0.1210938
4933,-61.9375,-25.1875,265,1.620605,-2.772461,-0.07080078,-0.3149414,-0.01806641,-0.1157227
4937,-58.875,-6.3125,109.5625,2.341309,-3.145508,0.06347656,-0.3139648,-0.001953125,-0.112793
4941,-14.6875,-13.8125,-90.1875,2.023926,-2.714355,0.1904297,-0.3149414,0.004882813,-0.112793
4945,41.5625,-34.5,-206.125,1.144043,-1.953125,0.1826172,-0.3149414,-0.009277344,-0.1098633
4949,87.75,-14.875,-224.1875,0.6328125,-1.280762,0.1020508,-0.3198242,-0.02587891,-0.1098633
4953,87.0625,-0.0625,-210.625,0.4233398,-0.5541992,-0.1435547,-0.3198242,-0.05078125,-0.1088867
4957,53.8125,-1.625,-223.75,0.6015625,-0.2978516,-0.1743164,-0.3188477,-0.07421875,-0.1088867
4961,31.875,10.5625,-250.1875,0.5820313,-0.355957,-0.02832031,-0.3164063,-0.09082031,-0.1088867
4965,48.5625,13.125,-276,0.4350586,-0.484375,0.1826172,-0.3115234,-0.1166992,-0.1074219
4969,79.8125,14.5,-295.0625,0.1870117,-0.3325195,0.1479492,-0.3032227,-0.1469727,-0.1098633
4973,80.5,11.25,-294.375,-0.05664063,0.07080078,-0.05908203,-0.2973633,-0.1694336,-0.1088867
4977,24.5625,10.4375,-282,-0.1572266,0.4633789,-0.3632813,-0.2841797,-0.1992188,-0.1044922
4981,-47.9375,24.75,-268,0.05126953,0.4477539,-0.3208008,-0.2724609,-0.2216797,-0.1098633
4985,-72.4375,55.5,-263.3125,0.07470703,-0.1035156,-0.005371094,-0.2602539,-0.2368164,-0.1142578
4989,-29.125,81.75,-278.8125,-0.08789063,-0.4609375,0.3481445,-0.2412109,-0.2568359,-0.1235352
4993,41.25,70.5,-320.125,-0.3393555,-0.4726563,0.4404297,-0.2211914,-0.2783203,-0.1303711
4997,100.8125,50.875,-360.875,-0.7231445,-0.01025391,0.2250977,-0.203125,-0.296875,-0.1279297
5001,92.625,25.1875,-366.4375,-1.091309,0.5058594,-0.03613281,-0.1733398,-0.3217773,-0.1235352
5005,76.8125,32.25,-346.375,-1.041016,0.6772461,0.001953125,-0.1425781,-0.3417969,-0.1181641
5009,73.625,49.5625,-319.875,-1.149414,0.6303711,0.04052734,-0.1210938,-0.3544922,-0.1157227
5013,73.375,56.5625,-312.4375,-1.227051,0.6733398,-0.07861328,-0.08886719,-0.3681641,-0.1088867
5017,94.3125,44.5625,-332.5625,-1.223145,0.4829102,0.04052734,-0.05810547,-0.3793945,-0.1044922
5021,109.1875,26.0625,-362.9375,-1.40918,0.7080078,-0.2285156,-0.03662109,-0.3842773,-0.09912109
5025,65.125,0.25,-374.5,-1.583496,0.7548828,-0.4824219,0,-0.390625,-0.08984375
5029,12,-14.6875,-373.5625,-1.521484,0.7158203,-0.3974609,0.03662109,-0.3857422,-0.08544922
5033,-11,-2.875,-368.6875,-1.45166,0.3232422,-0.2285156,0.06054688,-0.3833008,-0.08300781
5038,-3.375,19.125,-377.5,-1.48291,0.04736328,-0.1435547,0.09863281,-0.3745117,-0.08544922
5042,32.75,45.4375,-414.375,-1.583496,0.06689453,-0.1206055,0.1333008,-0.3632813,-0.08154297
5046,56.4375,62.5625,-453.125,-1.897461,0.5527344,-0.3398438,0.1606445,-0.3505859,-0.07861328
5050,42.3125,71.875,-458.375,-2.226563,0.9414063,-0.5014648,0.1987305,-0.3266602,-0.06933594
5054,12.125,74.25,-408,-2.707031,1.17041,-0.5439453,0.2319336,-0.2954102,-0.06103516
5058,-19.125,61.125,-299.8125,-2.680176,1.174316,-0.4824219,0.25,-0.2744141,-0.05859375
