Packet number,Gyroscope X (deg/s),Gyroscope Y (deg/s),Gyroscope Z (deg/s),Accelerometer X (g),Accelerometer Y (g),Accelerometer Z (g),Magnetometer X (G),Magnetometer Y (G),Magnetometer Z (G)
3,25.8125,-5.25,7.125,-0.862793,0.3120117,0.125,0.2509766,-0.2119141,-0.1699219
7,18.25,-4.8125,5.75,-0.8706055,0.3041992,0.1171875,0.253418,-0.2128906,-0.1699219
11,12.9375,-3.875,4.375,-0.878418,0.2651367,0.144043,0.253418,-0.2128906,-0.1699219
16,13.75,-1.5625,4.4375,-0.8706055,0.2416992,0.1518555,0.2519531,-0.2143555,-0.1674805
20,17.5,-1,5,-0.8896484,0.2338867,0.1826172,0.2519531,-0.2158203,-0.1660156
24,20.875,-0.6875,3.8125,-0.8857422,0.2226563,0.1943359,0.2509766,-0.2182617,-0.1660156
28,22.9375,0.1875,2,-0.8935547,0.2338867,0.1787109,0.253418,-0.2167969,-0.1660156
32,21.5625,0,0.25,-0.9013672,0.2651367,0.1713867,0.2509766,-0.2192383,-0.1660156
36,17.125,0.375,-2.0625,-0.8935547,0.2885742,0.1479492,0.2519531,-0.2207031,-0.1645508
40,10.875,0.875,-5.1875,-0.8935547,0.2924805,0.159668,0.2519531,-0.2207031,-0.1645508
44,4.375,1.3125,-8.1875,-0.8974609,0.284668,0.1713867,0.2519531,-0.2207031,-0.1645508
48,0.75,1.625,-10.125,-0.9013672,0.2612305,0.2133789,0.2509766,-0.2192383,-0.1616211
52,1.0625,1.5,-12,-0.8935547,0.2416992,0.2402344,0.2519531,-0.2182617,-0.1616211
56,3.0625,1,-14.5625,-0.9091797,0.2265625,0.2597656,0.2509766,-0.2167969,-0.1616211
60,5.5625,0.75,-15.5,-0.9130859,0.2338867,0.2519531,0.2543945,-0.2167969,-0.1630859
64,2.5625,0.6875,-22.8125,-0.8237305,0.3427734,0.1635742,0.2519531,-0.2167969,-0.1630859
68,15.875,5.4375,-11.375,-0.9438477,0.1953125,0.3173828,0.2558594,-0.2158203,-0.1616211
72,18.75,4.75,-9.5625,-0.9208984,0.2070313,0.2519531,0.2568359,-0.2143555,-0.1616211
76,28.4375,7.0625,-5.8125,-0.9326172,0.2265625,0.2675781,0.2568359,-0.2128906,-0.1606445
80,36.0625,7.375,-2.75,-0.9091797,0.2265625,0.2558594,0.2583008,-0.2158203,-0.1591797
84,41.4375,7.8125,-0.875,-0.9248047,0.2456055,0.2368164,0.2568359,-0.2167969,-0.1547852
88,43.875,6.75,0,-0.9130859,0.2729492,0.2021484,0.2568359,-0.2167969,-0.1538086
92,43.375,5.875,0.875,-0.9208984,0.300293,0.1826172,0.2592773,-0.2207031,-0.1494141
96,38.9375,3.9375,1.375,-0.9091797,0.315918,0.1518555,0.2583008,-0.2216797,-0.1494141
100,33,0.6875,2,-0.9208984,0.3193359,0.144043,0.2568359,-0.2231445,-0.1484375
104,28.0625,0.0625,2.75,-0.8974609,0.3120117,0.1367188,0.2583008,-0.2246094,-0.1455078
108,23.3125,-0.8125,2.75,-0.9208984,0.3120117,0.1289063,0.2592773,-0.2255859,-0.144043
112,21.75,-2.5,4,-0.9130859,0.2807617,0.144043,0.2583008,-0.2255859,-0.144043
116,24.125,-1.25,5.875,-0.9248047,0.2885742,0.140625,0.2583008,-0.2270508,-0.144043
120,22.9375,-1.375,7,-0.9208984,0.3193359,0.1171875,0.2558594,-0.2280273,-0.1401367
124,20.875,-2.75,8.75,-0.9208984,0.284668,0.1367188,0.2583008,-0.2304688,-0.1416016
128,23.375,-1.3125,8.625,-0.9013672,0.269043,0.144043,0.2568359,-0.2304688,-0.1386719
132,24.0625,-1.25,8.125,-0.9052734,0.284668,0.1289063,0.2558594,-0.2329102,-0.1401367
136,21.0625,-1.9375,6.75,-0.9052734,0.2963867,0.105957,0.2543945,-0.234375,-0.137207
140,16.3125,-1.75,6.5,-0.9013672,0.3041992,0.1020508,0.2543945,-0.2358398,-0.1386719
145,11.3125,-1,5.75,-0.8935547,0.3041992,0.09814453,0.2543945,-0.234375,-0.1357422
149,6.4375,0,4.9375,-0.9013672,0.300293,0.1020508,0.2558594,-0.2358398,-0.137207
153,5.75,0.125,5.625,-0.9013672,0.2573242,0.1518555,0.2558594,-0.2382813,-0.1357422
157,10.5,-0.25,5.4375,-0.9130859,0.2338867,0.1713867,0.2558594,-0.2368164,-0.1357422
161,17.5625,-1.25,4.5625,-0.9130859,0.2651367,0.1787109,0.2543945,-0.2382813,-0.1347656
165,23.875,-1.5,3.5625,-0.9091797,0.3081055,0.1748047,0.253418,-0.2392578,-0.1347656
169,31.9375,-0.5,4.3125,-0.9516602,0.4013672,0.2094727,0.253418,-0.2407227,-0.1347656
173,39.1875,-3.1875,9.5,-1.021484,0.5019531,0.2480469,0.2519531,-0.2407227,-0.1318359
177,46.3125,-5.5625,22.375,-1.056641,0.5566406,0.2480469,0.253418,-0.2431641,-0.1289063
181,47.8125,-8.1875,36.625,-1.037109,0.6108398,0.2060547,0.2509766,-0.2470703,-0.1289063
185,42.3125,-10.5625,47.25,-1.013672,0.6186523,0.1943359,0.2475586,-0.2519531,-0.1264648
189,36.375,-13.5625,53.0625,-0.9868164,0.6147461,0.2133789,0.2451172,-0.2568359,-0.125
193,35.9375,-15.9375,55.5625,-0.9829102,0.6225586,0.2480469,0.2426758,-0.2583008,-0.1210938
197,39.8125,-20.1875,58.875,-1.037109,0.6694336,0.2866211,0.237793,-0.265625,-0.1235352
201,52.125,-25.6875,68.5,-1.095215,0.6962891,0.3330078,0.2368164,-0.2680664,-0.1225586
205,68.8125,-28.375,82,-1.106934,0.7705078,0.3173828,0.2319336,-0.2768555,-0.1181641
209,80,-31.125,95.875,-1.145508,0.8632813,0.2788086,0.2246094,-0.2841797,-0.1196289
213,87.6875,-35.375,110.25,-1.195801,0.9838867,0.2441406,0.2202148,-0.2929688,-0.1157227
217,87.5,-39.3125,127.9375,-1.20752,1.108398,0.1748047,0.2104492,-0.3017578,-0.1113281
221,77.25,-44.1875,146.9375,-1.28125,1.271484,0.140625,0.199707,-0.3144531,-0.105957
225,60.0625,-45.4375,170.0625,-1.253906,1.349121,0.08251953,0.1914063,-0.3232422,-0.105957
229,41.5625,-40.5,192.375,-1.277344,1.337402,0.04443359,0.1748047,-0.3320313,-0.1035156
233,30.3125,-37.1875,219,-1.343262,1.291016,0.08642578,0.1591797,-0.3457031,-0.1020508
237,36.875,-30.0625,237.3125,-1.246094,1.221191,0.1289063,0.144043,-0.3530273,-0.1020508
241,39.1875,-16.5625,253.3125,-1.129883,1.298828,0.07128906,0.1225586,-0.3632813,-0.09912109
245,20.5,-9.1875,264,-1.172852,1.302734,0.04052734,0.09863281,-0.371582,-0.09521484
249,3.625,-12.4375,277.625,-1.157227,1.143066,0.09033203,0.08056641,-0.3754883,-0.09667969
253,-0.1875,-15.3125,283.4375,-1.067871,1.003418,0.1289063,0.0546875,-0.3818359,-0.09521484
257,0.375,-16.6875,279.3125,-0.9516602,0.9799805,0.1328125,0.02587891,-0.3867188,-0.09765625
261,-1.5,-17.1875,275.375,-0.9091797,0.987793,0.09814453,0.006835938,-0.3867188,-0.09521484
265,-5.3125,-14.75,276.5625,-0.8085938,0.9956055,0.08251953,-0.02001953,-0.3857422,-0.09521484
269,-12.625,-5.3125,283,-0.746582,0.921875,0.02880859,-0.04589844,-0.3818359,-0.09912109
274,-15.125,3.1875,285.5625,-0.7231445,0.8520508,0.07128906,-0.06640625,-0.3793945,-0.09765625
278,-20.3125,0.9375,280.125,-0.6728516,0.777832,0.07519531,-0.09130859,-0.3691406,-0.09912109
282,-24.875,0.75,273.0625,-0.5527344,0.6962891,0.06347656,-0.1162109,-0.3579102,-0.1020508
286,-22,3.25,260.0625,-0.5141602,0.7041016,0.105957,-0.1342773,-0.3520508,-0.1020508
290,-21.4375,0.8125,260.0625,-0.5175781,0.7353516,0.09033203,-0.1582031,-0.3378906,-0.1044922
294,-25.375,-0.6875,259.25,-0.4208984,0.7431641,0.04785156,-0.1791992,-0.3232422,-0.105957
298,-30.6875,5.3125,261.1875,-0.3432617,0.7158203,0.03271484,-0.1923828,-0.3120117,-0.1074219
302,-29.875,7.4375,259.875,-0.3549805,0.7041016,0.07910156,-0.2138672,-0.2944336,-0.1113281
306,-19.625,9.875,264.4375,-0.2700195,0.6923828,0.1171875,-0.2319336,-0.2729492,-0.1113281
310,-18.4375,11.4375,268.0625,-0.2192383,0.7041016,0.05957031,-0.2387695,-0.2583008,-0.112793
314,-29.1875,9.375,271.25,-0.1381836,0.5991211,0.06347656,-0.2578125,-0.2358398,-0.1166992
318,-38,6.6875,266.875,-0.07226563,0.5292969,0.08642578,-0.2724609,-0.2128906,-0.1157227
322,-60.3125,3.5,269.0625,0.03564453,0.3740234,0.001953125,-0.2792969,-0.1958008,-0.1210938
326,-83.6875,5.0625,263.125,0.1948242,-0.01416016,0.01708984,-0.2924805,-0.1694336,-0.1196289
330,-90.3125,5.1875,250.9375,0.3378906,-0.4648438,0.07128906,-0.2983398,-0.140625,-0.1235352
334,-86.875,10.75,236.6875,0.4580078,-0.7753906,0.1328125,-0.3032227,-0.1230469,-0.1279297
338,-95.4375,13.375,221.25,0.5976563,-0.9736328,0.005859375,-0.3066406,-0.09814453,-0.1279297
342,-98.125,15.375,188.5,0.7060547,-1.37793,0.07910156,-0.3105469,-0.07568359,-0.1318359
346,-68.1875,9.75,135.9375,0.8574219,-1.67334,0.2597656,-0.3115234,-0.05957031,-0.1333008
350,-10.75,5.375,61.375,1.016113,-1.599121,0.3945313,-0.3105469,-0.04589844,-0.1333008
354,41.25,2.875,-13.75,0.9580078,-1.140625,0.355957,-0.3115234,-0.04443359,-0.1347656
358,63.875,-8.125,-66.5625,0.7680664,-0.6005859,0.2749023,-0.3115234,-0.04833984,-0.1333008
362,65.125,-15.75,-93.625,0.7060547,-0.1850586,0.2172852,-0.309082,-0.05810547,-0.1333008
366,58.9375,-20.5625,-106.625,0.644043,0.121582,0.1787109,-0.3105469,-0.06933594,-0.1318359
370,50.8125,-26,-105.75,0.625,0.2416992,0.1557617,-0.3105469,-0.078125,-0.1289063
374,42.1875,-25.4375,-103.125,0.7294922,0.2963867,0.125,-0.309082,-0.08935547,-0.1264648
378,32.1875,-23.6875,-102.9375,0.7451172,0.21875,0.1171875,-0.309082,-0.1005859,-0.1235352
382,30.3125,-21.6875,-105.75,0.7333984,0.121582,0.1748047,-0.3105469,-0.1083984,-0.1225586
386,40.1875,-20.75,-113.4375,0.7177734,0.09423828,0.2402344,-0.3081055,-0.1181641,-0.1210938
390,49.3125,-23.625,-124.9375,0.6479492,0.2265625,0.2250977,-0.3041992,-0.1318359,-0.1157227
394,50.3125,-29.25,-129.875,0.5820313,0.3583984,0.1713867,-0.3017578,-0.1430664,-0.1142578
398,44.5625,-28.4375,-129.5,0.5898438,0.4672852,0.1132813,-0.2998047,-0.1591797,-0.1088867
403,42.625,-22.125,-124.4375,0.5668945,0.5175781,0.1132813,-0.2949219,-0.1704102,-0.1044922
407,51.375,-14.3125,-117.25,0.5629883,0.5761719,0.125,-0.293457,-0.1782227,-0.1044922
411,54.3125,-6.4375,-106.75,0.5395508,0.6616211,0.04785156,-0.2900391,-0.1904297,-0.1005859
415,47.125,0.3125,-103.4375,0.574707,0.6733398,0.01708984,-0.2851563,-0.203125,-0.09765625
419,37.9375,1,-110.375,0.5087891,0.7041016,0.05175781,-0.2817383,-0.2070313,-0.09667969
423,29.3125,-6.0625,-116.1875,0.4541016,0.7509766,0.09814453,-0.2744141,-0.2192383,-0.09667969
427,28.25,-9.3125,-118.4375,0.4116211,0.809082,0.08642578,-0.2685547,-0.2319336,-0.09375
431,30.5625,-7.3125,-110.75,0.4272461,0.8481445,0.07519531,-0.2651367,-0.2368164,-0.09375
435,34.25,0,-103.5625,0.4038086,0.90625,0.02880859,-0.2578125,-0.2470703,-0.08837891
439,31.5625,5.4375,-96.125,0.3925781,0.9179688,0.01367188,-0.253418,-0.2583008,-0.08544922
443,20.375,4.625,-94.3125,0.3339844,0.956543,-0.02050781,-0.2485352,-0.2631836,-0.08544922
447,6.5,-3.0625,-98.875,0.3339844,0.8442383,0.04443359,-0.2426758,-0.2705078,-0.08544922
451,10.5,-7.4375,-101.3125,0.3110352,0.7431641,0.07910156,-0.2353516,-0.2783203,-0.08447266
455,16,-7.75,-100.0625,0.2724609,0.7353516,0.06347656,-0.2304688,-0.2856445,-0.08447266
459,20.8125,-6.3125,-95.1875,0.2412109,0.7314453,0.05957031,-0.2255859,-0.2919922,-0.08300781
463,19.9375,-0.125,-92.0625,0.206543,0.7817383,-0.001464844,-0.2172852,-0.2983398,-0.07861328
467,15.625,5.125,-86.6875,0.1713867,0.7197266,0.001953125,-0.2114258,-0.3032227,-0.08154297
471,21.125,5.375,-89.875,0.1132813,0.6655273,0.03271484,-0.2055664,-0.3105469,-0.07861328
475,34.3125,0.75,-102.125,0.09033203,0.6538086,0.05957031,-0.1972656,-0.3168945,-0.07763672
479,30.125,-4.8125,-120,0.05517578,0.7626953,-0.02050781,-0.1923828,-0.3208008,-0.07470703
483,18.125,-13.5625,-137.5,-0.002441406,0.777832,-0.005371094,-0.1831055,-0.3291016,-0.07324219
487,7.125,-18.1875,-146.1875,-0.07617188,0.793457,0.005859375,-0.1723633,-0.3378906,-0.07080078
491,5.0625,-18.125,-149.125,-0.1264648,0.7626953,0.05175781,-0.1616211,-0.3432617,-0.07080078
495,12.5,-16.75,-150.25,-0.1845703,0.777832,0.05957031,-0.1484375,-0.3520508,-0.06787109
499,12.3125,-18.1875,-150.75,-0.246582,0.7856445,0.03271484,-0.1367188,-0.359375,-0.06542969
503,25.5625,-22.625,-163,-0.262207,0.7314453,0.09033203,-0.1259766,-0.3618164,-0.0625
507,37.6875,-32.25,-178.8125,-0.3745117,0.8051758,0.06347656,-0.1103516,-0.3706055,-0.05859375
511,28.8125,-42.6875,-197.25,-0.3974609,1.104492,-0.07470703,-0.09375,-0.3769531,-0.05712891
515,-1.875,-38.375,-194.9375,-0.4365234,1.120117,-0.1206055,-0.08056641,-0.3818359,-0.05273438
519,-27,-22.1875,-178.8125,-0.4555664,1.026855,-0.109375,-0.06298828,-0.3833008,-0.05273438
523,-31.4375,-0.5625,-167.6875,-0.4907227,0.7856445,-0.04736328,-0.04589844,-0.3867188,-0.05566406
527,-19.875,9.125,-176.3125,-0.5874023,0.6108398,0.03662109,-0.03515625,-0.3891602,-0.05859375
532,2.3125,-2.125,-212.5625,-0.6962891,0.6772461,0.1210938,-0.01611328,-0.390625,-0.06103516
536,9.3125,-34.75,-263.25,-0.8818359,1.146973,0.08642578,0.004394531,-0.390625,-0.05859375
540,-18.8125,-61.1875,-279.9375,-1.037109,1.52002,0.02490234,0.02490234,-0.3891602,-0.05957031
544,-29.125,-58.0625,-253.25,-1.071777,1.55127,0.09033203,0.04980469,-0.3881836,-0.0625
548,-14.4375,-30.625,-199.1875,-1.009766,1.500488,0.03271484,0.07373047,-0.3842773,-0.06640625
552,-6.6875,-6,-164.9375,-0.9287109,1.477539,-0.08984375,0.08300781,-0.3803711,-0.06640625
556,-18.875,0.5625,-159.875,-0.8198242,1.485352,-0.1323242,0.1010742,-0.3754883,-0.06933594
560,-32.4375,0.75,-162.9375,-0.7695313,1.46582,-0.04003906,0.1142578,-0.3706055,-0.06933594
564,-28.9375,-0.5,-146.125,-0.862793,1.49707,0.125,0.125,-0.3642578,-0.07177734
568,-7.25,-4,-113.375,-0.8237305,1.489258,0.2709961,0.1367188,-0.359375,-0.07617188
572,21,-9.9375,-78.1875,-0.7192383,1.516113,0.2749023,0.1459961,-0.3544922,-0.07763672
576,32.0625,-14.75,-49.0625,-0.6030273,1.578613,0.1787109,0.1508789,-0.3530273,-0.07470703
580,27.9375,-14.375,-26.6875,-0.4790039,1.59375,0.1020508,0.1533203,-0.3505859,-0.07324219
584,15.125,-4.125,-7.0625,-0.4633789,1.535645,0.03662109,0.1567383,-0.3505859,-0.06933594
588,5,-2.25,8.5,-0.4404297,1.473633,0.09423828,0.1557617,-0.3505859,-0.07080078
592,3.0625,2.25,26.8125,-0.4750977,1.353027,0.105957,0.1547852,-0.3520508,-0.07080078
596,6.4375,8.25,41.875,-0.5102539,1.255859,0.1020508,0.1508789,-0.3505859,-0.07080078
600,18,-2.625,51,-0.5175781,1.154785,0.1518555,0.1484375,-0.3544922,-0.06933594
604,23.0625,-6.3125,51.4375,-0.4829102,1.166504,0.1328125,0.144043,-0.3569336,-0.06640625
608,16,-16.125,48.125,-0.5332031,1.205566,0.07910156,0.1376953,-0.359375,-0.06542969
612,15.5,-22.1875,51.8125,-0.5722656,1.197754,0.09814453,0.1357422,-0.3632813,-0.06542969
616,27.75,-22.0625,63.8125,-0.6030273,1.251953,0.07519531,0.1318359,-0.3666992,-0.06542969
620,36.1875,-12.1875,86.375,-0.5683594,1.388184,-0.005371094,0.1235352,-0.3691406,-0.0625
624,29.0625,-0.1875,103.5,-0.5913086,1.321777,-0.08984375,0.1176758,-0.3706055,-0.05859375
628,9.25,-10.4375,145,-0.6108398,1.477539,0.07128906,0.1069336,-0.3754883,-0.05712891
632,11.5,-9.8125,135.25,-0.6533203,1.225098,0.001953125,0.09521484,-0.3793945,-0.05566406
636,17.125,-17.375,148.375,-0.7578125,1.317871,0.105957,0.08544922,-0.3818359,-0.05419922
640,21.4375,-28.375,168.9375,-0.7543945,1.372559,0.1098633,0.06884766,-0.3857422,-0.05419922
644,31.3125,-3.9375,184.9375,-0.5795898,1.36084,0.07128906,0.05322266,-0.3857422,-0.05273438
648,44,2.75,205.8125,-0.5991211,1.310547,-0.005371094,0.04052734,-0.3930664,-0.05029297
652,42.875,15,215,-0.5141602,1.395996,-0.06689453,0.02001953,-0.3916016,-0.04638672
656,24.1875,33.5625,215.625,-0.4750977,1.39209,-0.1166992,-0.001953125,-0.3955078,-0.04199219
661,2.4375,32.5625,206.1875,-0.4868164,1.36084,-0.1323242,-0.01611328,-0.3945313,-0.03955078
665,-6,40,203.8125,-0.4248047,1.384277,-0.05517578,-0.03515625,-0.390625,-0.03955078
669,-5,27.4375,208.125,-0.5722656,1.450195,-0.07861328,-0.05664063,-0.3881836,-0.04052734
673,2.5625,28.4375,226.0625,-0.4052734,1.512207,-0.05517578,-0.07324219,-0.3842773,-0.04052734
677,-8.3125,38.8125,241,-0.4287109,1.55127,-0.1474609,-0.09375,-0.3779297,-0.04199219
681,-23.4375,43.0625,250.25,-0.378418,1.364746,-0.112793,-0.1162109,-0.3706055,-0.04492188
685,-24.3125,43.125,249.8125,-0.262207,1.174316,-0.04736328,-0.1328125,-0.3603516,-0.04736328
689,-18.6875,43.125,245.375,-0.2929688,1.116211,-0.04394531,-0.1542969,-0.3491211,-0.05175781
693,-14,37.5,238.375,-0.2119141,1.120117,0.001953125,-0.1757813,-0.3354492,-0.05712891
697,-13.0625,29.0625,234.875,-0.2231445,1.100586,-0.04003906,-0.1889648,-0.3266602,-0.05712891
701,-18.5625,34.4375,238.5,-0.1147461,1.030762,-0.02832031,-0.206543,-0.3129883,-0.06103516
705,-28.5625,39.4375,237.9375,-0.09130859,0.8632813,-0.01318359,-0.2236328,-0.2929688,-0.06396484
709,-33.4375,33.625,225.4375,-0.1030273,0.7275391,-0.001464844,-0.2353516,-0.2817383,-0.06542969
713,-23.5625,30.4375,215.375,0.02050781,0.6030273,0.1020508,-0.2495117,-0.2641602,-0.07177734
717,-16.875,26.75,203.8125,0.07861328,0.5566406,0.06347656,-0.2617188,-0.2470703,-0.07470703
721,-17.625,25.3125,192.6875,0.1171875,0.5761719,0.03662109,-0.2685547,-0.2358398,-0.07617188
725,-21.1875,25.8125,187.125,0.1557617,0.5991211,0.04443359,-0.2792969,-0.2167969,-0.08154297
729,-30.9375,34.4375,187.1875,0.2685547,0.5878906,0.009765625,-0.2875977,-0.2016602,-0.08447266
733,-42.8125,37.125,178.8125,0.2607422,0.4516602,0.05566406,-0.2949219,-0.1870117,-0.08544922
737,-35.8125,29.875,165.25,0.3188477,0.2573242,0.1479492,-0.3007813,-0.1704102,-0.09228516
741,-9.8125,15.5,151,0.3110352,0.3388672,0.1713867,-0.3056641,-0.1542969,-0.09521484
745,-1,10.1875,147.125,0.4311523,0.5097656,0.1289063,-0.3081055,-0.1420898,-0.09667969
749,-8.1875,16.25,149.125,0.4931641,0.6577148,0.07128906,-0.3115234,-0.1293945,-0.09667969
753,-18.25,24.5,157.4375,0.5161133,0.7236328,-0.005371094,-0.3149414,-0.1132813,-0.09912109
757,-34.8125,29,160.4375,0.5317383,0.7158203,0.02490234,-0.3164063,-0.1020508,-0.1005859
761,-40.0625,22.5625,158.1875,0.5239258,0.5371094,0.1367188,-0.3173828,-0.08544922,-0.1044922
765,-23.6875,17.8125,160.5,0.5512695,0.3818359,0.2021484,-0.3188477,-0.06835938,-0.1074219
769,-15.5625,14.9375,159.375,0.5976563,0.3544922,0.1904297,-0.3188477,-0.05712891,-0.1074219
773,-17.5625,8.4375,142.875,0.644043,0.315918,0.1479492,-0.3173828,-0.04052734,-0.1098633
777,-15.6875,18.0625,161.625,0.6054688,0.08642578,0.355957,-0.3173828,-0.02441406,-0.1113281
781,8.3125,65.8125,240.625,0.7797852,-0.1381836,0.1020508,-0.3173828,-0.01074219,-0.1113281
785,6.875,62,189.75,0.5551758,-0.01416016,0.1132813,-0.3105469,0.008789063,-0.1196289
790,-34.3125,17.875,138.625,0.5200195,-0.4648438,0.1289063,-0.3056641,0.02880859,-0.1235352
794,-40.8125,-7.625,92.625,0.3496094,-1.323242,-0.009277344,-0.3056641,0.03613281,-0.1235352
798,-43.5625,5.5,83.3125,0.7490234,-0.9077148,0.1826172,-0.3032227,0.04736328,-0.1210938
802,-46.25,1.375,51.8125,0.609375,-1.020508,0.1479492,-0.3007813,0.05517578,-0.1210938
806,-34.8125,-23.5625,-8.5,0.5859375,-1.148438,0.2402344,-0.2998047,0.05761719,-0.1181641
810,-8.8125,-28.8125,-35.8125,0.8261719,-1.226563,0.2983398,-0.3007813,0.05761719,-0.1157227
814,-1.6875,-17,-62.25,0.8339844,-0.9697266,0.2597656,-0.3032227,0.05371094,-0.1142578
818,1.9375,-24.9375,-96.375,0.7294922,-0.8183594,0.2597656,-0.3056641,0.04882813,-0.1113281
822,13.0625,-34.6875,-118.9375,0.6518555,-0.5893555,0.2709961,-0.3081055,0.03759766,-0.1088867
826,10.625,-42.3125,-136.4375,0.6982422,-0.3325195,0.1479492,-0.3115234,0.02490234,-0.1088867
830,-3.625,-44.125,-151.3125,0.7060547,-0.2392578,0.1367188,-0.3164063,0.01513672,-0.1044922
834,-14.5625,-47.6875,-173.0625,0.7021484,-0.1616211,0.144043,-0.3164063,0,-0.09765625
838,-24.9375,-47.1875,-183.25,0.6362305,-0.1347656,0.144043,-0.3188477,-0.01708984,-0.09375
842,-26.1875,-38.375,-159.8125,0.5859375,-0.1113281,0.2329102,-0.3222656,-0.02929688,-0.08984375
846,17.6875,-20.8125,-121.75,0.8183594,0.1601563,0.2060547,-0.324707,-0.04052734,-0.08837891
850,40.6875,-9.9375,-188.375,0.675293,-0.04150391,0.2172852,-0.324707,-0.05957031,-0.08544922
854,48.75,17.0625,-165.25,0.7099609,0.3271484,0.06738281,-0.3232422,-0.07324219,-0.08544922
858,10.5625,7.8125,-178.5625,0.6171875,0.4516602,-0.02441406,-0.3222656,-0.08935547,-0.08837891
862,-24.4375,-15.25,-186.3125,0.543457,0.3388672,0.1674805,-0.3188477,-0.109375,-0.08837891
866,-13.8125,-36.875,-194.3125,0.4853516,0.3349609,0.1748047,-0.3149414,-0.1220703,-0.08691406
870,18,-46.8125,-185.3125,0.4467773,0.5136719,0.1132813,-0.3125,-0.140625,-0.08300781
874,29.8125,-46.4375,-166.3125,0.4853516,0.6420898,0.04052734,-0.3081055,-0.1582031,-0.07861328
878,32.3125,-28,-156.125,0.5239258,0.6962891,0.04785156,-0.3032227,-0.1694336,-0.07324219
882,13.6875,-17.1875,-166.375,0.5087891,0.6923828,-0.01660156,-0.2973633,-0.1845703,-0.07177734
886,-7.875,-19.5625,-185.25,0.4233398,0.4633789,0.2021484,-0.2900391,-0.203125,-0.07080078
890,37,-23.4375,-195.625,0.2915039,0.3583984,0.2172852,-0.2841797,-0.2143555,-0.06933594
894,65.625,-40.5625,-193.9375,0.1484375,0.6845703,0.08251953,-0.2744141,-0.2329102,-0.06542969
898,49.5625,-38,-183.125,0.206543,0.8828125,-0.009277344,-0.2626953,-0.2504883,-0.05859375
902,37.3125,-0.625,-155.9375,0.2138672,0.921875,-0.06298828,-0.2568359,-0.2592773,-0.05419922
906,14.3125,14.5625,-138.4375,0.1557617,0.7392578,-0.07470703,-0.2460938,-0.2719727,-0.05175781
910,23.625,13.4375,-152.75,0.1328125,0.5488281,0.01708984,-0.237793,-0.2832031,-0.05273438
914,44.0625,5.4375,-180.75,0.06689453,0.6381836,0.009765625,-0.2294922,-0.2905273,-0.04882813
919,32.625,-4.9375,-212.5,-0.01806641,0.90625,-0.112793,-0.215332,-0.3081055,-0.04882813
923,7.125,-12.1875,-232.125,-0.05273438,1.007324,-0.1669922,-0.1982422,-0.3232422,-0.04638672
927,-23.25,-13.25,-233.1875,-0.1767578,1.04248,-0.1669922,-0.1855469,-0.3305664,-0.04736328
931,-26.25,-13.875,-218.0625,-0.246582,0.8442383,-0.005371094,-0.1665039,-0.3442383,-0.04882813
935,-3.875,-7.4375,-206.375,-0.3007813,0.7973633,0.03662109,-0.1474609,-0.3554688,-0.04882813
939,11.5,-6.5625,-206.25,-0.328125,0.8208008,-0.009277344,-0.1328125,-0.3618164,-0.05029297
943,15.75,-12.375,-222.5,-0.3935547,0.9604492,-0.0859375,-0.1137695,-0.3706055,-0.04736328
947,6.125,-24,-239.25,-0.4907227,1.073242,-0.05908203,-0.09375,-0.3779297,-0.04492188
951,-1.625,-29.1875,-246.25,-0.5371094,1.182129,-0.03613281,-0.07568359,-0.3833008,-0.04345703
955,-16.8125,-19.1875,-231.3125,-0.6147461,1.255859,-0.04003906,-0.05224609,-0.3867188,-0.04492188
959,-35.4375,-9.5625,-218.5625,-0.6728516,1.150879,-0.05517578,-0.02929688,-0.390625,-0.04736328
963,-38.5,-1.8125,-214.875,-0.6806641,0.9375,0.02490234,-0.01513672,-0.390625,-0.05175781
967,-28.25,0.75,-228.4375,-0.78125,0.890625,0.06738281,0.005859375,-0.3930664,-0.05566406
971,-21.75,-10.5625,-248.375,-0.8666992,1.019043,0.09423828,0.02978516,-0.390625,-0.05566406
975,-26.3125,-24.4375,-265.3125,-1.001953,1.166504,0.1098633,0.04638672,-0.390625,-0.05712891
979,-30.625,-36.0625,-268.6875,-1.041016,1.263672,0.1635742,0.07373047,-0.3833008,-0.06103516
983,-27.25,-37.875,-255.9375,-1.114746,1.259766,0.1713867,0.09765625,-0.3769531,-0.06396484
987,-14.5,-29.3125,-230.0625,-1.041016,1.287109,0.1171875,0.1142578,-0.371582,-0.06933594
991,-8.4375,-17.625,-205.3125,-1.017578,1.337402,0.02880859,0.1308594,-0.3642578,-0.06933594
995,-10.3125,-12.1875,-186,-0.9672852,1.411133,0.02880859,0.1499023,-0.3544922,-0.07177734
999,-11.875,-13.3125,-162.375,-0.9633789,1.376465,0.09814453,0.1591797,-0.3481445,-0.07324219
1003,-0.8125,-11.25,-130.9375,-0.9208984,1.349121,0.1826172,0.1723633,-0.3393555,-0.07617188
1007,9.9375,-7.875,-96.125,-0.878418,1.384277,0.1748047,0.184082,-0.3344727,-0.07617188
1011,14.75,-3.4375,-62.8125,-0.796875,1.36084,0.1328125,0.1879883,-0.3320313,-0.07617188
1015,14.75,4.625,-34.125,-0.7387695,1.345215,0.1020508,0.1914063,-0.328125,-0.07324219
1019,10.3125,10.0625,-10.6875,-0.7192383,1.294922,0.07519531,0.1914063,-0.3242188,-0.07324219
1023,6,13.5,6.5625,-0.6767578,1.205566,0.1132813,0.1938477,-0.3256836,-0.07080078
1027,6.25,15.3125,21.6875,-0.6923828,1.092773,0.1787109,0.1928711,-0.3256836,-0.07080078
1031,11.5625,13.9375,31.125,-0.6728516,1.01123,0.1904297,0.1904297,-0.3266602,-0.06933594
1035,13.1875,9.4375,32.125,-0.6611328,0.9760742,0.1865234,0.1889648,-0.328125,-0.06787109
1039,10.75,1.5,27,-0.6767578,0.9492188,0.1748047,0.1879883,-0.3320313,-0.06640625
1043,11.3125,-7.5625,25.0625,-0.7231445,0.890625,0.1865234,0.184082,-0.3330078,-0.06542969
1048,17.25,-11.5625,29.8125,-0.7114258,0.8789063,0.159668,0.1831055,-0.3344727,-0.06640625
1052,19.625,-12,34.625,-0.6923828,0.8789063,0.09033203,0.1831055,-0.3369141,-0.06396484
1056,17.8125,-11.1875,37.1875,-0.699707,0.875,0.04785156,0.1782227,-0.3378906,-0.06396484
1060,18.1875,-7.5625,40.6875,-0.7036133,0.824707,0.04052734,0.1757813,-0.3393555,-0.0625
1064,21.875,-3.5,45.375,-0.7192383,0.8129883,0.01708984,0.1713867,-0.3442383,-0.0625
1068,19.5,-1.125,50.3125,-0.7617188,0.8208008,-0.005371094,0.1689453,-0.3457031,-0.06103516
1072,15.375,-1.3125,56.5,-0.7578125,0.7739258,0.005859375,0.1640625,-0.3457031,-0.05957031
1076,17.6875,-1.5625,59.4375,-0.7543945,0.7001953,0.009765625,0.1591797,-0.3505859,-0.05566406
1080,19.3125,-1.9375,58.8125,-0.7348633,0.7392578,0.009765625,0.1557617,-0.3544922,-0.05566406
1084,16.8125,-8,53.375,-0.765625,0.8168945,-0.001464844,0.1523438,-0.3544922,-0.05273438
1088,20.6875,-10.5,58.0625,-0.7734375,0.8364258,0.001953125,0.1474609,-0.3569336,-0.05566406
1092,27.5,-1.625,75.0625,-0.7504883,0.953125,-0.04003906,0.1416016,-0.3603516,-0.05273438
1096,20.375,7.1875,91.125,-0.7348633,1.092773,-0.08984375,0.1367188,-0.3618164,-0.04736328
1100,7,10.8125,100.6875,-0.7114258,1.143066,-0.04003906,0.128418,-0.3657227,-0.04736328
1104,3.0625,10.5,107.0625,-0.746582,1.06543,0.01367188,0.1176758,-0.3691406,-0.04638672
1108,10,10.25,116.25,-0.7192383,1.053711,0.03662109,0.1118164,-0.3745117,-0.04882813
1112,15.875,15.375,128.125,-0.6728516,1.045898,0.04052734,0.1020508,-0.3779297,-0.04492188
1116,16.5,20.625,136.8125,-0.6186523,1.053711,-0.005371094,0.08789063,-0.3833008,-0.04199219
1120,15.6875,25.125,139.0625,-0.5644531,1.06543,0.005859375,0.07861328,-0.3842773,-0.03955078
1124,7.8125,21.1875,131.5625,-0.5488281,1.12793,-0.01318359,0.06787109,-0.3881836,-0.03662109
1128,1.5625,14.9375,127.8125,-0.5371094,1.131836,-0.009277344,0.05322266,-0.3891602,-0.03808594
1132,2.125,16.3125,134.875,-0.5063477,1.092773,0.01708984,0.04492188,-0.390625,-0.03662109
1136,4.875,20.375,144.1875,-0.4907227,1.088867,0.02099609,0.03076172,-0.3945313,-0.03662109
1140,7.8125,27.5,151.625,-0.4208984,1.116211,-0.01660156,0.01513672,-0.3945313,-0.03515625
1144,-4.375,27.375,149,-0.4287109,1.135742,-0.02441406,0.005859375,-0.3930664,-0.03515625
1148,-15.5625,20.4375,137,-0.362793,1.045898,0.03271484,-0.009277344,-0.3945313,-0.03808594
1152,-6.1875,14.0625,132,-0.4013672,0.987793,0.08251953,-0.02246094,-0.3930664,-0.03662109
1156,2.5625,15.625,138.375,-0.3745117,1.057617,0.03662109,-0.02929688,-0.3916016,-0.03808594
1160,5.75,15.625,141.625,-0.3432617,1.088867,-0.005371094,-0.04394531,-0.390625,-0.03808594
1164,6.5625,17,143.0625,-0.2734375,1.13916,-0.02441406,-0.05908203,-0.3881836,-0.03515625
1168,-7.25,15.1875,137.1875,-0.2543945,1.205566,-0.1054688,-0.06884766,-0.3867188,-0.03808594
1172,-23.8125,8.5,125.6875,-0.1923828,1.084961,-0.07861328,-0.08056641,-0.3818359,-0.03955078
1177,-18.6875,7.25,124,-0.2192383,0.9682617,0.001953125,-0.09228516,-0.3793945,-0.04199219
1181,-3.6875,12,134.3125,-0.2119141,1.022949,0.009765625,-0.1010742,-0.3745117,-0.04199219
1185,-4.9375,18.4375,144.875,-0.1459961,1.084961,-0.04394531,-0.1152344,-0.3706055,-0.04345703
1189,-12.1875,16.5,143.4375,-0.1186523,1.034668,-0.02832031,-0.128418,-0.3657227,-0.04345703
1193,-14,13,140.3125,-0.09521484,0.9453125,0.009765625,-0.1367188,-0.3603516,-0.04638672
1197,-6.125,11.875,138.125,-0.06835938,0.9335938,0.03662109,-0.1494141,-0.3544922,-0.04736328
1201,-3.1875,11.75,137.875,0.004882813,0.9492188,0.01367188,-0.1625977,-0.3457031,-0.04882813
1205,-5.0625,10.625,133.75,0.02441406,0.9604492,-0.02441406,-0.1699219,-0.3408203,-0.04736328
1209,-7.25,14.8125,132.625,0.07470703,0.9604492,-0.02441406,-0.1806641,-0.3330078,-0.05175781
1213,-4.875,18.5625,135.3125,0.09033203,0.9375,-0.02832031,-0.1914063,-0.3242188,-0.05175781
1217,-9.8125,19.625,136.25,0.1289063,0.9799805,-0.05517578,-0.199707,-0.3178711,-0.05273438
1221,-16.0625,16.5,127.625,0.1948242,0.9179688,-0.01318359,-0.2089844,-0.3105469,-0.05419922
1225,-11.875,12.75,125.625,0.1635742,0.8598633,0.01708984,-0.21875,-0.2993164,-0.05566406
1229,-4.125,15.875,126.625,0.2294922,0.8867188,0.05566406,-0.2255859,-0.2944336,-0.05859375
1233,-5.5625,17.3125,128.75,0.2568359,0.9375,0.02490234,-0.234375,-0.2841797,-0.05859375
1237,-10.6875,20.375,133.3125,0.2915039,0.875,0.02880859,-0.2436523,-0.2753906,-0.06103516
1241,-2.375,19.8125,132.125,0.3613281,0.8129883,0.05566406,-0.2485352,-0.2680664,-0.06396484
1245,4.4375,24.4375,133.5,0.3886719,0.8632813,0.04443359,-0.2568359,-0.2568359,-0.06396484
1249,5.75,26.5,134.125,0.4038086,0.9414063,-0.005371094,-0.2636719,-0.2441406,-0.06542969
1253,-3.625,38.0625,139.125,0.4619141,0.9140625,-0.02050781,-0.2709961,-0.2368164,-0.06640625
1257,-7.3125,49.9375,135.25,0.4814453,0.9414063,-0.005371094,-0.2768555,-0.2255859,-0.07177734
1261,-14.375,52.3125,144.75,0.4311523,0.8481445,0.001953125,-0.2827148,-0.2119141,-0.07617188
1265,-8.375,45.875,145.375,0.4311523,0.8481445,0.1020508,-0.2875977,-0.2045898,-0.08007813
1269,-8.6875,32.125,146.9375,0.3959961,0.8325195,0.1210938,-0.2924805,-0.1904297,-0.08300781
1273,-2.125,23.8125,161.125,0.3999023,0.8129883,0.2211914,-0.2983398,-0.1767578,-0.08447266
1277,-0.5,22.875,172.5625,0.4116211,0.9023438,0.1713867,-0.3017578,-0.1655273,-0.08544922
1281,-22.4375,12.125,171.5,0.4350586,0.9335938,0.1518555,-0.3056641,-0.1479492,-0.08837891
1285,-32.5625,2.9375,173.875,0.4311523,0.7080078,0.2709961,-0.3105469,-0.1293945,-0.08837891
1289,-24.6875,3.6875,186.6875,0.4116211,0.6655273,0.2060547,-0.3149414,-0.1166992,-0.09082031
1293,-42.9375,15,202.375,0.4814453,0.6342773,0.1020508,-0.3173828,-0.09814453,-0.09228516
1297,-73.4375,12.8125,212.5625,0.4311523,0.2612305,0.05566406,-0.3208008,-0.07421875,-0.09375
1301,-102.125,21.0625,216.3125,0.5087891,-0.3325195,0.02880859,-0.3232422,-0.05957031,-0.09667969
1306,-118.6875,23.5625,199.8125,0.609375,-0.5112305,-0.1245117,-0.3222656,-0.03320313,-0.09667969
1310,-103.5,30.9375,187.125,0.6401367,-1.80127,0.1098633,-0.3198242,-0.01074219,-0.09912109
1314,-62.8125,23.75,120.3125,0.7954102,-2.131836,0.1943359,-0.3173828,0.002441406,-0.09912109
1318,-18.5,-1.9375,5.4375,0.9155273,-1.995605,0.2597656,-0.3164063,0.01269531,-0.1005859
1322,32,-25.5,-82.0625,0.7333984,-1.552734,0.3017578,-0.3173828,0.01025391,-0.1005859
1326,71.125,-36.75,-124.1875,0.690918,-0.8881836,0.2290039,-0.3173828,0.001464844,-0.09765625
1330,72.125,-49.0625,-148.8125,0.574707,-0.2548828,0.07910156,-0.3198242,-0.01074219,-0.09521484
1334,56.0625,-59.6875,-152,0.659668,-0.01806641,-0.001464844,-0.3232422,-0.02929688,-0.08984375
1338,47.625,-45.125,-150.6875,0.7758789,0.02441406,-0.05126953,-0.3222656,-0.04052734,-0.08447266
1342,41.375,-34.6875,-154.8125,0.7021484,0.04003906,-0.03613281,-0.324707,-0.05810547,-0.08447266
1346,45,-27.3125,-160.75,0.6982422,0.03613281,0.03662109,-0.3232422,-0.07421875,-0.07861328
1350,52.6875,-20.75,-165.375,0.6171875,0.1484375,0.07128906,-0.3232422,-0.08691406,-0.07763672
1354,53.4375,-17.5,-161.3125,0.5551758,0.253418,0.04052734,-0.3208008,-0.1054688,-0.07470703
1358,46.25,-9.9375,-155.125,0.5898438,0.2807617,-0.005371094,-0.3164063,-0.1206055,-0.07324219
1362,41.875,5.125,-150.875,0.6171875,0.2226563,0.005859375,-0.3149414,-0.1357422,-0.07177734
1366,43.5625,15.8125,-152.1875,0.5395508,0.2612305,-0.01660156,-0.3115234,-0.1479492,-0.07080078
1370,36.25,10.9375,-162.375,0.4233398,0.315918,-0.02441406,-0.3066406,-0.1645508,-0.07080078
1374,30.375,0.6875,-180.5,0.3886719,0.3818359,-0.001464844,-0.3017578,-0.1782227,-0.07177734
1378,45.5,-6.5,-193.5625,0.2993164,0.4086914,0.09033203,-0.2924805,-0.1943359,-0.07080078
1382,59.0625,-13,-196.1875,0.1674805,0.5097656,-0.005371094,-0.2851563,-0.2143555,-0.06640625
1386,46.125,-22.0625,-210.0625,0.206543,1.150879,-0.01318359,-0.2783203,-0.2270508,-0.0625
1390,23.375,-29.875,-204.5625,0.1445313,1.120117,-0.05126953,-0.2675781,-0.2456055,-0.05957031
1394,16.0625,-29.5625,-192.4375,0.159668,1.084961,-0.02441406,-0.2553711,-0.2641602,-0.05566406
1398,24.625,-24.4375,-177.6875,0.1635742,1.022949,-0.005371094,-0.2470703,-0.2705078,-0.05419922
1402,27.375,-21.875,-171.8125,0.1831055,1.166504,-0.1166992,-0.234375,-0.2856445,-0.05175781
1406,3.75,-22.5,-172.375,0.1557617,1.228516,-0.109375,-0.2211914,-0.2983398,-0.04736328
1410,-12.375,-29,-182.25,0.1328125,1.174316,-0.02832031,-0.2128906,-0.3081055,-0.04736328
1414,-12.375,-34.375,-185.75,0.02832031,1.150879,0.01708984,-0.1982422,-0.3193359,-0.04638672
1418,-9.75,-34.75,-177.5,0.03955078,1.158691,0.005859375,-0.1855469,-0.3320313,-0.04736328
1422,-3.9375,-29.0625,-162.4375,0.08251953,1.100586,-0.05517578,-0.1748047,-0.3393555,-0.04638672
1426,0.625,-18.4375,-151.375,0.07470703,1.081055,-0.06298828,-0.1616211,-0.3481445,-0.04345703
1430,10.875,-17.5625,-146.875,0.01660156,1.04248,-0.009277344,-0.1484375,-0.3554688,-0.04199219
1435,18.875,-13.8125,-142.0625,-0.01025391,1.13916,-0.009277344,-0.1391602,-0.3603516,-0.04199219
1439,1.5,-13,-135.5,-0.08789063,1.310547,-0.09375,-0.1245117,-0.3666992,-0.03955078
1443,-33.875,-7.5,-117.4375,-0.07226563,1.217285,-0.03613281,-0.112793,-0.3706055,-0.04052734
1447,-47.375,-3.3125,-101.8125,-0.09130859,0.840332,0.08642578,-0.1069336,-0.3745117,-0.04345703
1451,-8.75,5.125,-103.5625,-0.08007813,0.5410156,0.1982422,-0.09716797,-0.3779297,-0.04736328
1455,33.4375,-2.75,-124.625,-0.2041016,0.7197266,0.09033203,-0.08544922,-0.3818359,-0.04638672
1459,25.5,-23.875,-154.25,-0.2661133,1.084961,-0.1015625,-0.078125,-0.3818359,-0.04199219
1463,-10.25,-24.9375,-162.75,-0.262207,1.124023,-0.1206055,-0.06152344,-0.3881836,-0.04052734
1467,-29.6875,-13.1875,-143.1875,-0.3588867,0.9956055,-0.04394531,-0.04736328,-0.3891602,-0.04345703
1471,-31.1875,-2.125,-116.4375,-0.4091797,0.7817383,0.03271484,-0.03759766,-0.3891602,-0.04638672
1475,-6.875,8.5625,-108.5625,-0.3823242,0.5878906,0.08642578,-0.02587891,-0.3916016,-0.04736328
1479,29.6875,3.5625,-132.75,-0.5063477,0.6538086,0.04785156,-0.01416016,-0.3930664,-0.04736328
1483,31.4375,-20.4375,-171.6875,-0.6108398,1.026855,-0.1015625,-0.003417969,-0.3945313,-0.04492188
1487,2.6875,-32.5625,-179.625,-0.6650391,1.186035,-0.112793,0.01171875,-0.3945313,-0.03955078
1491,-13.6875,-20.125,-157,-0.7231445,1.104492,-0.009277344,0.02978516,-0.3930664,-0.04199219
1495,-18.8125,-2.5,-131.5,-0.6806641,0.9296875,-0.07470703,0.0390625,-0.3930664,-0.04492188
1499,-23.0625,3.75,-122,-0.6650391,0.8325195,-0.1166992,0.0546875,-0.390625,-0.04638672
1503,-26.4375,3.8125,-133.8125,-0.6572266,0.7119141,-0.1362305,0.06640625,-0.390625,-0.04736328
1507,-30.375,5.9375,-157.5625,-0.6342773,0.6772461,-0.1206055,0.07373047,-0.3857422,-0.04882813
1511,-31.4375,5.1875,-183.6875,-0.7890625,0.6499023,-0.02441406,0.09033203,-0.3803711,-0.05419922
1515,-26.1875,1.25,-197.25,-0.9399414,0.6923828,0.03662109,0.1079102,-0.3769531,-0.05419922
1519,-20.5625,3.3125,-202.875,-0.9790039,0.7817383,0.02880859,0.1186523,-0.3691406,-0.05712891
1523,-19.875,4.4375,-212.25,-0.9985352,0.8789063,-0.01318359,0.1391602,-0.3618164,-0.05957031
1527,-20.9375,-1.875,-223.4375,-1.067871,0.9682617,-0.02441406,0.1582031,-0.3520508,-0.06103516
1531,-30.3125,-10,-227.75,-1.091309,1.120117,-0.01660156,0.1689453,-0.3417969,-0.06396484
1535,-36.1875,-15,-218.875,-1.091309,1.12793,0.04443359,0.1904297,-0.3305664,-0.06640625
1539,-19.375,-22.625,-183.875,-1.149414,1.228516,0.1132813,0.203125,-0.3168945,-0.07080078
1543,-10.625,-15.8125,-154.3125,-0.9326172,1.458008,0.1826172,0.215332,-0.3095703,-0.07177734
1547,-14.8125,12.375,-169.5,-0.78125,1.240234,0.105957,0.2270508,-0.2954102,-0.07470703
1551,-20,12.375,-120.75,-1.12207,1.077148,-0.02050781,0.2353516,-0.2856445,-0.07470703
1555,-31.125,10.0625,-58.8125,-1.075684,1.158691,0.1289063,0.2402344,-0.2807617,-0.07470703
1559,-29.375,9.25,-16.25,-1.033203,0.9414063,0.2441406,0.2436523,-0.2753906,-0.07470703
1564,-15.25,10.4375,13.6875,-0.9672852,0.793457,0.2944336,0.2426758,-0.2768555,-0.07861328
1568,-0.5625,6.125,25.3125,-0.9091797,0.7509766,0.2905273,0.2436523,-0.2768555,-0.07617188
1572,12.125,-0.25,29.3125,-0.8745117,0.6772461,0.2788086,0.2426758,-0.2783203,-0.07861328
1576,22.4375,-6.5,28.1875,-0.8666992,0.6772461,0.2597656,0.2412109,-0.2807617,-0.07763672
1580,27.375,-13.1875,24.375,-0.8085938,0.6694336,0.2172852,0.2368164,-0.2817383,-0.07324219
1584,30.4375,-11.5,24.75,-0.8198242,0.6884766,0.1748047,0.2368164,-0.2866211,-0.07617188
1588,28.75,-10.5625,28.3125,-0.847168,0.7509766,0.1020508,0.2368164,-0.2866211,-0.07324219
1592,26.75,-11.0625,34.625,-0.8666992,0.7626953,0.07519531,0.2329102,-0.2895508,-0.07177734
1596,26.4375,-12.8125,40.375,-0.8745117,0.8208008,0.06347656,0.2294922,-0.2919922,-0.06933594
1600,24.125,-16.6875,45.0625,-0.9091797,0.8481445,0.08251953,0.2285156,-0.2983398,-0.07080078
1604,23.125,-18.875,52.5625,-0.8896484,0.8710938,0.04785156,0.2246094,-0.296875,-0.06933594
1608,23.5625,-17,61.9375,-0.9169922,0.875,0.04052734,0.2211914,-0.2993164,-0.06787109
1612,22.0625,-12.125,75.6875,-0.9091797,0.9179688,0.02099609,0.215332,-0.3056641,-0.06542969
1616,18.25,-7.8125,90.375,-0.9790039,0.9643555,0.03271484,0.2138672,-0.3120117,-0.06933594
1620,22.3125,-4.4375,105.6875,-0.9907227,0.9760742,0.06738281,0.2070313,-0.3193359,-0.06787109
1624,26.0625,-2.3125,121.5625,-1.056641,1.022949,0.04052734,0.1972656,-0.3256836,-0.06396484
1628,19.5625,-0.8125,136.5,-1.017578,1.026855,0.01367188,0.1904297,-0.3305664,-0.06103516
1632,10.9375,4.375,147.1875,-0.9790039,0.972168,0.005859375,0.1806641,-0.3393555,-0.06103516
1636,9.875,9.9375,154.4375,-0.9208984,0.8789063,0.02880859,0.1674805,-0.3481445,-0.05957031
1640,5.75,11.0625,154.3125,-0.9169922,0.8828125,0.03271484,0.1591797,-0.3544922,-0.05712891
1644,1.8125,5.5625,146.75,-0.8974609,0.855957,0.06738281,0.1450195,-0.359375,-0.05712891
1648,2.125,4.25,147.6875,-0.8706055,0.8442383,0.07128906,0.1308594,-0.3681641,-0.05859375
1652,2.0625,5.875,154.0625,-0.8666992,0.8789063,0.03271484,0.1225586,-0.3691406,-0.05712891
1656,-2.6875,3.0625,158.1875,-0.8354492,0.9257813,0.001953125,0.1069336,-0.3769531,-0.05712891
1660,-14.25,0.4375,156.25,-0.7890625,0.9604492,-0.01318359,0.09277344,-0.3818359,-0.05859375
1664,-20.625,-0.0625,152.4375,-0.7426758,0.875,0.02490234,0.08300781,-0.3833008,-0.05859375
1668,-13.5625,-2.0625,145.8125,-0.715332,0.7895508,0.06738281,0.06787109,-0.3867188,-0.05957031
1672,-5.4375,2.5,143.875,-0.7036133,0.8867188,0.06347656,0.0546875,-0.390625,-0.06103516
1676,-11.75,-0.375,148.8125,-0.7695313,1.030762,-0.01318359,0.04638672,-0.390625,-0.0625
1680,-23.375,6.3125,158.25,-0.6533203,1.116211,-0.02832031,0.02832031,-0.3916016,-0.06396484
1684,-27,8.3125,166.5625,-0.7270508,0.9916992,0.005859375,0.01416016,-0.390625,-0.06640625
1688,-17.625,10.5625,170.8125,-0.6533203,1.01123,0.03662109,0.0009765625,-0.3930664,-0.06640625
1693,-20.1875,7.9375,170.5625,-0.6225586,1.038574,-0.001464844,-0.01513672,-0.390625,-0.07080078
1697,-17.3125,8,170.25,-0.5102539,0.9492188,0.04443359,-0.03320313,-0.3891602,-0.07177734
1701,-10.5625,12.875,168.9375,-0.5371094,1.003418,0.08642578,-0.04394531,-0.3891602,-0.07470703
1705,-12.625,14.6875,175.5625,-0.4907227,1.116211,0.02490234,-0.06054688,-0.3867188,-0.07470703
1709,-20.9375,16.625,174.25,-0.4521484,1.108398,0.04785156,-0.078125,-0.3803711,-0.07763672
1713,-23,7.1875,170.9375,-0.5175781,1.108398,0.09423828,-0.08642578,-0.3793945,-0.07763672
1717,-14,5.25,175.125,-0.4287109,1.146973,0.1132813,-0.1030273,-0.3706055,-0.08007813
1721,-15.9375,7.5625,190.5,-0.3432617,1.186035,0.03271484,-0.1210938,-0.3603516,-0.08300781
1725,-31.5625,10.9375,201.0625,-0.2851563,1.154785,0.001953125,-0.1328125,-0.3569336,-0.08300781
1729,-39.75,6.9375,205.5625,-0.2270508,0.9995117,0.09033203,-0.1518555,-0.3457031,-0.08691406
1733,-36.3125,6.625,202.3125,-0.1533203,0.8984375,0.1479492,-0.1699219,-0.3369141,-0.08984375
1737,-33.625,1.5625,196.875,-0.08789063,0.890625,0.09814453,-0.1806641,-0.3266602,-0.09228516
1741,-27.9375,0.8125,191.9375,-0.06835938,0.8598633,0.1518555,-0.1962891,-0.3120117,-0.09667969
1745,-27.125,3.5,205,0.004882813,0.8325195,0.1098633,-0.2104492,-0.2993164,-0.09912109
1749,-33.0625,9.0625,214,0.02441406,0.7895508,0.06738281,-0.2197266,-0.2905273,-0.1005859
1753,-47.8125,8.5,211.625,0.07470703,0.7509766,0.02880859,-0.2353516,-0.2705078,-0.1020508
1757,-62.3125,0.0625,203,0.109375,0.5605469,0.09423828,-0.2485352,-0.2543945,-0.105957
1761,-53.25,-3.9375,198.25,0.2026367,0.4052734,0.1518555,-0.2578125,-0.2431641,-0.1074219
1765,-26.0625,2.5625,197.125,0.190918,0.3896484,0.2402344,-0.2675781,-0.2255859,-0.1088867
1769,-12,3.25,198,0.2138672,0.5878906,0.1865234,-0.2792969,-0.2080078,-0.1098633
1773,-19.875,-0.375,199,0.1948242,0.7587891,0.1328125,-0.2841797,-0.1958008,-0.1098633
1777,-23,-1.8125,208.8125,0.2026367,0.7041016,0.144043,-0.2915039,-0.1743164,-0.1113281
1781,-27.125,-2.8125,221.5625,0.2333984,0.6381836,0.1289063,-0.3007813,-0.1542969,-0.1113281
1785,-41.125,-7.25,224.1875,0.3457031,0.4282227,0.1098633,-0.3032227,-0.140625,-0.112793
1789,-49.1875,-10,224.875,0.3925781,0.1020508,0.144043,-0.3105469,-0.1142578,-0.1113281
1793,-62.625,-9.8125,221.8125,0.5356445,-0.1928711,0.105957,-0.3149414,-0.08935547,-0.1113281
1797,-79.5625,-3.9375,213.9375,0.6210938,-0.7133789,0.1171875,-0.3149414,-0.07568359,-0.1098633
1801,-89.4375,-1.5,193.5,0.8149414,-1.37793,0.1328125,-0.3164063,-0.04931641,-0.1113281
1805,-73.8125,8.5625,151.375,1.012207,-1.828613,0.2021484,-0.3173828,-0.03076172,-0.1113281
1809,-37.5625,1.5625,67.8125,1.13623,-2.022949,0.2866211,-0.3164063,-0.02050781,-0.1098633
1813,8.4375,-13.0625,-31.1875,1.124512,-1.723633,0.2558594,-0.3164063,-0.015625,-0.1113281
1817,50.625,-20.5625,-93.375,0.9155273,-1.214844,0.1904297,-0.3164063,-0.02441406,-0.1088867
1822,72.1875,-17.625,-122.5,0.7719727,-0.6240234,0.03271484,-0.3208008,-0.03076172,-0.1074219
1826,55.1875,-19.375,-136.0625,0.6791992,-0.1230469,-0.1630859,-0.3208008,-0.04589844,-0.1088867
1830,19.3125,-14.3125,-145.375,0.7451172,-0.02587891,-0.1938477,-0.3173828,-0.06054688,-0.1035156
1834,5.25,-5.8125,-159.0625,0.6948242,-0.1308594,-0.01318359,-0.3188477,-0.06933594,-0.1035156
1838,22.625,1.5,-170.875,0.644043,-0.1191406,0.1210938,-0.3164063,-0.08935547,-0.1035156
1842,44.6875,6.875,-178.0625,0.5512695,0.03222656,0.1518555,-0.3149414,-0.1069336,-0.1044922
1846,58.75,4.75,-181.3125,0.4311523,0.2495117,0.1518555,-0.3115234,-0.1196289,-0.1044922
1850,56.0625,7.8125,-171.25,0.4038086,0.4555664,0.08251953,-0.3066406,-0.1381836,-0.1044922
1854,56.125,20.4375,-154.5,0.4389648,0.5175781,0.08251953,-0.3017578,-0.1567383,-0.1044922
1858,51.5625,33,-140.1875,0.3886719,0.6147461,0.1132813,-0.2983398,-0.1669922,-0.1035156
1862,41.75,29.3125,-149.0625,0.4116211,0.6811523,0.1132813,-0.2915039,-0.1845703,-0.1044922
1866,32.375,22.0625,-165.625,0.4272461,0.6616211,0.159668,-0.2827148,-0.1967773,-0.1044922
1870,40.375,18.125,-171.5625,0.3457031,0.6655273,0.2060547,-0.2792969,-0.2104492,-0.1074219
1874,49.3125,17.875,-161.375,0.2451172,0.7739258,0.1982422,-0.2685547,-0.2255859,-0.1074219
1878,52.75,25.125,-144.125,0.3032227,0.953125,0.125,-0.2602539,-0.2392578,-0.105957
1882,30.5625,30.5625,-131.4375,0.2412109,1.073242,0.07128906,-0.2553711,-0.2480469,-0.1044922
1886,7.3125,27.8125,-129.5,0.2451172,1.045898,0.1171875,-0.2446289,-0.2607422,-0.1074219
1890,-10.3125,16.4375,-138.5625,0.1987305,0.8828125,0.2290039,-0.2353516,-0.2695313,-0.1074219
1894,3.375,1.4375,-152.25,0.1831055,0.7158203,0.3789063,-0.2294922,-0.2783203,-0.1088867
1898,30.6875,-13.0625,-160.8125,0.08642578,0.7548828,0.3671875,-0.21875,-0.2880859,-0.105957
1902,44,-23.25,-154.5,0.03173828,0.9995117,0.2094727,-0.206543,-0.3017578,-0.1035156
1906,18,-17,-136.3125,0.1367188,1.209473,0.009765625,-0.199707,-0.3095703,-0.1020508
1910,-10.375,2.5,-118.625,0.1870117,1.116211,0.02490234,-0.1899414,-0.3168945,-0.09912109
1914,-12.6875,17.6875,-106.875,0.1367188,0.8364258,0.1713867,-0.1816406,-0.3232422,-0.1044922
1918,22.1875,24.25,-107,0.08642578,0.7509766,0.2290039,-0.1723633,-0.328125,-0.1035156
1922,42.25,17.1875,-120.125,0.02832031,0.9296875,0.1479492,-0.1640625,-0.3344727,-0.1020508
1926,25.4375,4.875,-138.375,-0.002441406,1.146973,-0.02050781,-0.1518555,-0.3417969,-0.09912109
1930,-18,-2.125,-134.8125,-0.08007813,1.236328,-0.05908203,-0.1450195,-0.3481445,-0.09765625
1934,-48.1875,13,-116.6875,0.004882813,1.026855,0.02880859,-0.1328125,-0.3520508,-0.1005859
1938,-16.1875,29.4375,-104.4375,-0.07226563,0.5878906,0.2983398,-0.1235352,-0.3544922,-0.105957
1942,54.875,39.4375,-101.5,-0.1186523,0.7158203,0.2866211,-0.1162109,-0.359375,-0.105957
1946,66.1875,30.625,-113.9375,-0.1806641,1.240234,-0.005371094,-0.1054688,-0.3657227,-0.1020508
1951,16.125,12.6875,-133.125,-0.1923828,1.438477,-0.128418,-0.09130859,-0.3706055,-0.09667969
1955,-35.5625,4.0625,-136.3125,-0.246582,1.236328,-0.05908203,-0.08642578,-0.3730469,-0.09765625
1959,-51.5625,18.875,-119,-0.215332,0.8168945,0.09033203,-0.07128906,-0.3754883,-0.1005859
1963,-15.8125,37.4375,-104.875,-0.246582,0.4555664,0.2675781,-0.06054688,-0.3779297,-0.1044922
1967,40.625,40.4375,-110.875,-0.3393555,0.4907227,0.2636719,-0.05224609,-0.3779297,-0.1074219
1971,57.75,25.625,-134.625,-0.4052734,0.8325195,0.09814453,-0.04150391,-0.3833008,-0.1005859
1975,32.9375,2.9375,-162.5,-0.4985352,0.972168,0.009765625,-0.02490234,-0.3857422,-0.09765625
1979,13.5625,-10.625,-175.625,-0.5527344,0.8129883,0.03271484,-0.01513672,-0.3857422,-0.09375
1983,20.125,1.125,-170.8125,-0.6186523,0.6420898,0.1098633,0.002441406,-0.3881836,-0.09521484
1987,35.625,9.875,-167.125,-0.7504883,0.5878906,0.1020508,0.01757813,-0.3867188,-0.09228516
1991,44.25,5.1875,-179.0625,-0.8432617,0.5952148,0.06738281,0.03173828,-0.3867188,-0.08691406
1995,52.125,-6.8125,-200.625,-0.9013672,0.5761719,0.02099609,0.04882813,-0.3867188,-0.08447266
1999,62.8125,-11.125,-213.5,-0.9868164,0.6303711,-0.02832031,0.06884766,-0.3842773,-0.07617188
2003,64.5,-6.5625,-218.5625,-1.025391,0.7895508,-0.09375,0.08300781,-0.3818359,-0.07470703
2007,53.6875,-4.625,-224,-1.114746,0.921875,-0.1323242,0.1035156,-0.3754883,-0.06933594
2011,39.0625,-5.875,-227.875,-1.125977,0.9916992,-0.1513672,0.125,-0.3691406,-0.06396484
2015,26.4375,-3,-225.5625,-1.141602,1.019043,-0.1435547,0.1391602,-0.3632813,-0.0625
2019,13.4375,-1.375,-215.875,-1.176758,1.12793,-0.1401367,0.1582031,-0.3520508,-0.06103516
2023,4.125,-6.3125,-198.9375,-1.180664,1.13916,-0.04394531,0.1757813,-0.3408203,-0.05859375
2027,3.75,-11.625,-182.125,-1.099121,1.143066,0.05957031,0.1855469,-0.3344727,-0.06103516
2031,15.3125,-17.1875,-163,-1.067871,1.131836,0.1210938,0.1987305,-0.3217773,-0.06103516
2035,27.75,-16.625,-139.3125,-1.005859,1.217285,0.1098633,0.2128906,-0.3120117,-0.0625
2039,27.4375,-15.5625,-112,-0.9326172,1.353027,0.05175781,0.2177734,-0.3066406,-0.06103516
2043,18.9375,-13.375,-86.6875,-0.8818359,1.337402,0.03662109,0.2246094,-0.2993164,-0.05859375
2047,8.25,-8.3125,-61.6875,-0.8588867,1.321777,0.05566406,0.2285156,-0.2954102,-0.05957031
2051,1.5625,-6.5625,-40.0625,-0.8432617,1.225098,0.125,0.230957,-0.2919922,-0.06103516
2055,-0.6875,-5.9375,-25.4375,-0.8164063,1.135742,0.1748047,0.2329102,-0.2880859,-0.06103516
2059,3.0625,-10,-15.6875,-0.862793,1.026855,0.2094727,0.2353516,-0.2880859,-0.05957031
2063,17.5,-9,2.3125,-0.8666992,0.9916992,0.2290039,0.2353516,-0.2856445,-0.05957031
2067,25.4375,-8.9375,18.8125,-0.862793,1.003418,0.1713867,0.2353516,-0.2866211,-0.0625
2071,26.5625,-11.625,27.0625,-0.831543,1.01123,0.1098633,0.2329102,-0.2905273,-0.05859375
2075,22.25,-13.1875,33.625,-0.8198242,0.9956055,0.06738281,0.2319336,-0.2929688,-0.05712891
2080,15.5,-13,41.0625,-0.8393555,0.9643555,0.05957031,0.2319336,-0.2929688,-0.05859375
2084,18.8125,-14.3125,51.125,-0.878418,0.8671875,0.1171875,0.2270508,-0.2983398,-0.05859375
2088,27.5625,-13.75,63.6875,-0.9052734,0.7705078,0.159668,0.222168,-0.3007813,-0.05712891
2092,39.375,-14.3125,74.25,-0.9130859,0.7275391,0.1635742,0.2202148,-0.3056641,-0.05712891
2096,44.6875,-18.6875,78.25,-0.9013672,0.7041016,0.125,0.2128906,-0.3129883,-0.05273438
2100,42.375,-22.5,75.875,-0.862793,0.6845703,0.09033203,0.2094727,-0.3144531,-0.05175781
2104,39.375,-24.4375,73.0625,-0.831543,0.6420898,0.04785156,0.203125,-0.3193359,-0.05029297
2108,38,-20.625,71.25,-0.7890625,0.6616211,0.001953125,0.1987305,-0.3266602,-0.04736328
2112,30.125,-18.1875,67.4375,-0.7617188,0.7197266,-0.03222656,0.1962891,-0.328125,-0.04736328
2116,21.875,-18.4375,59.625,-0.7543945,0.7856445,-0.07861328,0.1889648,-0.3344727,-0.04736328
2120,16.75,-20.0625,56.9375,-0.7929688,0.8364258,-0.0859375,0.184082,-0.3369141,-0.04638672
2124,13.9375,-17.5,65.4375,-0.8549805,0.8945313,-0.07861328,0.1831055,-0.3378906,-0.04492188
2128,12.3125,-14.25,82.125,-0.8666992,0.8945313,-0.112793,0.1748047,-0.3432617,-0.04345703
2132,16.0625,-1.9375,98.25,-0.7773438,0.890625,-0.109375,0.1674805,-0.3466797,-0.04492188
2136,11.625,3.875,103.5625,-0.8164063,0.9453125,-0.1513672,0.1630859,-0.3530273,-0.04199219
2140,3.8125,5.4375,105.8125,-0.8237305,0.9682617,-0.1474609,0.1533203,-0.3579102,-0.04199219
2144,-1.125,8.6875,111.4375,-0.8393555,0.9643555,-0.112793,0.1450195,-0.3618164,-0.04345703
2148,-5.6875,10.3125,119.5,-0.8588867,0.956543,-0.09375,0.1367188,-0.3642578,-0.04199219
2152,-11.3125,12.5625,124.8125,-0.847168,1.003418,-0.05908203,0.1269531,-0.371582,-0.04199219
2156,-17.9375,9.875,121.5625,-0.8745117,1.092773,-0.04394531,0.1142578,-0.3754883,-0.04345703
2160,-15.0625,6.1875,123.0625,-0.9013672,1.053711,-0.005371094,0.1079102,-0.3779297,-0.04345703
2164,1.375,8.0625,141,-0.9326172,1.069336,0.03271484,0.09521484,-0.3842773,-0.04492188
2168,5.875,13.625,158.625,-0.9013672,1.197754,-0.01660156,0.08203125,-0.3881836,-0.04638672
2172,-6.375,11.5625,169.875,-0.8974609,1.267578,-0.0859375,0.07128906,-0.3881836,-0.04199219
2176,-22,13.0625,175.5625,-0.8085938,1.248047,-0.05126953,0.05224609,-0.390625,-0.04492188
2180,-33.1875,8.5,172.25,-0.746582,1.13916,-0.02050781,0.03564453,-0.3945313,-0.04492188
2184,-33.1875,13.5625,165.4375,-0.6455078,1.073242,0.05175781,0.02587891,-0.3945313,-0.04882813
2188,-24.3125,15.1875,168.4375,-0.6533203,1.007324,0.09033203,0.006835938,-0.3930664,-0.05273438
2192,-10.9375,22.0625,186.6875,-0.6303711,0.987793,0.1328125,-0.01171875,-0.3930664,-0.05273438
2196,-14.0625,22.8125,200.4375,-0.6069336,1.09668,0.03662109,-0.0234375,-0.3930664,-0.05419922
2200,-26.0625,22.75,204.625,-0.4633789,1.01123,0.04785156,-0.04394531,-0.390625,-0.05712891
2204,-38.5625,20.8125,187.5625,-0.3549805,0.9760742,0.03271484,-0.06298828,-0.3867188,-0.05957031
2209,-46.875,8.6875,155.375,-0.3125,0.9023438,0.04443359,-0.07568359,-0.3842773,-0.06542969
2213,-40.25,1.25,142.875,-0.4287109,0.890625,0.07128906,-0.08886719,-0.3793945,-0.06933594
2217,-25.9375,1.6875,159.5,-0.378418,0.9101563,0.09814453,-0.1030273,-0.3730469,-0.07324219
2221,-15.1875,13.6875,179.3125,-0.3242188,0.9643555,0.02490234,-0.1152344,-0.3681641,-0.07177734
2225,-9.6875,21.625,190.375,-0.3164063,0.9760742,0.04785156,-0.1318359,-0.3603516,-0.07470703
2229,-21,12.3125,185.0625,-0.2583008,0.9956055,-0.03613281,-0.1484375,-0.3505859,-0.07763672
2233,-33.6875,5.75,171.1875,-0.1147461,0.8710938,-0.01660156,-0.1582031,-0.3457031,-0.08007813
2237,-37.8125,5.4375,175.5625,-0.1806641,0.8129883,-0.01660156,-0.1733398,-0.3344727,-0.08300781
2241,-33.75,11.1875,191.0625,-0.1186523,0.8286133,-0.01660156,-0.1875,-0.3217773,-0.08447266
2245,-36.8125,19.75,213.5625,-0.1806641,0.8710938,0.03271484,-0.1972656,-0.3144531,-0.08691406
2249,-46.875,8.625,217.4375,-0.1225586,0.7705078,0.08251953,-0.215332,-0.296875,-0.09375
2253,-49.5625,-4.0625,189.9375,0.2177734,0.5136719,0.1787109,-0.2294922,-0.2817383,-0.09521484
2257,-23.5625,-6.625,160.8125,0.2026367,0.4282227,0.3095703,-0.2387695,-0.2719727,-0.09765625
2261,15,-2.375,162.1875,0.1713867,0.5839844,0.3173828,-0.2485352,-0.2607422,-0.09667969
2265,29.4375,9.5625,184.1875,0.1484375,0.9140625,0.144043,-0.2592773,-0.2470703,-0.09521484
2269,9.6875,14,194.5625,0.2177734,1.053711,0.07128906,-0.2661133,-0.234375,-0.09375
2273,-2.5,3.3125,185,0.1948242,1.030762,0.1132813,-0.2768555,-0.2167969,-0.09521484
2277,-11.8125,-3.9375,185.1875,0.2685547,0.987793,0.07128906,-0.2851563,-0.2016602,-0.09521484
2281,-3.8125,3.125,193.4375,0.3227539,0.8325195,0.1289063,-0.2924805,-0.1894531,-0.09521484
2285,7.625,11.0625,211,0.1987305,0.8789063,0.04052734,-0.2998047,-0.1704102,-0.09667969
2289,-7.9375,23.4375,240.1875,0.3227539,0.7353516,-0.001464844,-0.3066406,-0.1479492,-0.09765625
2293,-34.1875,24.625,246.25,0.3652344,0.3662109,0.06738281,-0.3105469,-0.1318359,-0.09765625
2297,-50.9375,26.6875,238.625,0.4931641,-0.06835938,0.1865234,-0.3149414,-0.1069336,-0.1020508
2301,-58,22.8125,225.1875,0.4814453,-0.4140625,0.2983398,-0.3188477,-0.08203125,-0.1044922
2305,-72.375,18.9375,221.0625,0.5473633,-0.7832031,0.2133789,-0.3198242,-0.06591797,-0.1044922
2309,-105.8125,22.125,210.4375,0.7255859,-1.1875,0.05957031,-0.3173828,-0.04199219,-0.1088867
2313,-118.0625,36.6875,179.6875,0.8730469,-1.9375,0.1518555,-0.3188477,-0.01708984,-0.1088867
2317,-85.25,27.625,89.0625,1.124512,-2.287109,0.3789063,-0.3164063,-0.004394531,-0.1113281
2321,-9.6875,0,-38.6875,1.16748,-2.057617,0.4633789,-0.3139648,0.001464844,-0.1113281
2325,54.125,-12.75,-112.0625,0.8417969,-1.327148,0.3291016,-0.3149414,-0.004394531,-0.1113281
2329,85.5,-16.5625,-135.6875,0.6362305,-0.6669922,0.1518555,-0.3164063,-0.015625,-0.1113281
2333,69,-19.375,-140.75,0.6015625,-0.07226563,-0.07861328,-0.3198242,-0.03173828,-0.1113281
2338,21.3125,-21.75,-143.5,0.6557617,0.07861328,-0.1630859,-0.3198242,-0.046875,-0.1088867
2342,-11.6875,-14.75,-152.8125,0.7333984,-0.09179688,-0.04394531,-0.3198242,-0.05810547,-0.1074219
2346,-9.6875,-9.1875,-169.4375,0.7021484,-0.2783203,0.1210938,-0.3188477,-0.07324219,-0.1088867
2350,20.3125,-5.0625,-186.5,0.6362305,-0.3208008,0.2133789,-0.3173828,-0.09082031,-0.105957
2354,52.6875,-2.5,-202.375,0.543457,-0.2006836,0.2021484,-0.3164063,-0.1044922,-0.105957
2358,69.875,-4,-210.25,0.3730469,0.07080078,0.1289063,-0.3105469,-0.1269531,-0.1044922
2362,68.625,0,-199.9375,0.3110352,0.3271484,0.03271484,-0.3032227,-0.1494141,-0.1020508
2366,55.5625,13,-179.875,0.3071289,0.4477539,0.005859375,-0.2998047,-0.1621094,-0.1020508
2370,46.0625,27.375,-169.6875,0.2797852,0.5097656,0.06738281,-0.293457,-0.1806641,-0.1020508
2374,27.0625,14.9375,-187.5625,0.2685547,0.5800781,0.04785156,-0.2841797,-0.1982422,-0.1005859
2378,21.5,1.1875,-221.25,0.3071289,0.4985352,0.1674805,-0.2783203,-0.2119141,-0.1035156
2382,27.875,-4.4375,-236,0.06689453,0.6499023,0.1748047,-0.2661133,-0.2319336,-0.1020508
2386,35.875,-6.125,-215.9375,0.0009765625,0.8481445,0.1674805,-0.2519531,-0.2519531,-0.09912109
2390,45.1875,8,-186.5625,0.02441406,0.953125,0.144043,-0.2446289,-0.2631836,-0.09765625
2394,50.5625,21.5625,-165,0.01660156,1.124023,0.07128906,-0.2329102,-0.2807617,-0.09521484
2398,26.8125,15.1875,-164.6875,0.0009765625,1.217285,0.02490234,-0.21875,-0.2929688,-0.09521484
2402,11,-1.8125,-188.25,0.03955078,1.143066,0.09033203,-0.2128906,-0.3017578,-0.09375
2406,-1.625,-10.0625,-197.1875,-0.02978516,1.084961,0.1098633,-0.1972656,-0.3154297,-0.09375
2410,18.375,-10.4375,-185.5625,-0.1225586,0.9956055,0.2060547,-0.1816406,-0.3256836,-0.09228516
2414,31.75,-2,-161.375,-0.1420898,1.178223,0.06738281,-0.1708984,-0.3330078,-0.08837891
2418,23.8125,1.4375,-146.875,-0.1264648,1.193848,0.009765625,-0.1591797,-0.3432617,-0.08837891
2422,12.4375,5.4375,-143.375,-0.1108398,1.174316,-0.01660156,-0.1450195,-0.3491211,-0.08447266
2426,14.75,5.75,-149.9375,-0.09912109,0.9838867,0.08642578,-0.1376953,-0.3520508,-0.08544922
2430,29,5.6875,-154.5,-0.2192383,1.053711,0.05175781,-0.1220703,-0.3632813,-0.08447266
2434,16.9375,0,-152,-0.262207,1.186035,-0.02050781,-0.109375,-0.3681641,-0.08154297
2438,3.9375,-0.25,-145,-0.2734375,1.162598,-0.005371094,-0.09863281,-0.371582,-0.08154297
2442,3.1875,8.5625,-131.625,-0.262207,1.088867,0.05175781,-0.08544922,-0.3769531,-0.08154297
2446,10.9375,17.25,-124.75,-0.262207,1.057617,0.04443359,-0.07128906,-0.3779297,-0.08154297
2450,17,19.25,-128.875,-0.3046875,1.053711,0.08251953,-0.06494141,-0.3833008,-0.08154297
2454,16,13.4375,-135.25,-0.378418,1.104492,0.07128906,-0.05078125,-0.3842773,-0.08007813
2458,2.75,7.9375,-135.5,-0.4013672,1.077148,0.06738281,-0.03662109,-0.3867188,-0.08007813
2462,-9,7.125,-130.5625,-0.4169922,0.9335938,0.09423828,-0.02685547,-0.3891602,-0.07861328
2467,-3.5,10.8125,-126.625,-0.3974609,0.6884766,0.1713867,-0.01513672,-0.390625,-0.08007813
2471,25,15.8125,-137.3125,-0.4013672,0.6030273,0.2021484,-0.0009765625,-0.3891602,-0.07763672
2475,39.5,9,-159.25,-0.5292969,0.8208008,0.09033203,0.008300781,-0.3930664,-0.07763672
2479,27.25,-6.6875,-182.5625,-0.6069336,1.007324,0.005859375,0.0234375,-0.390625,-0.07177734
2483,9.5,-13.8125,-188.9375,-0.6923828,1.073242,0.02880859,0.04150391,-0.390625,-0.07080078
2487,-2.25,-7.875,-171.875,-0.765625,1.04248,0.05566406,0.05322266,-0.3881836,-0.06787109
2491,-6.625,-0.0625,-150.1875,-0.7578125,0.9140625,0.07910156,0.06982422,-0.3857422,-0.07080078
2495,-4.375,5.5,-142.75,-0.7348633,0.7666016,0.09423828,0.08447266,-0.3793945,-0.07177734
2499,2.0625,3.75,-149.875,-0.7617188,0.6811523,0.08642578,0.09375,-0.3779297,-0.07080078
2503,9.625,-3.0625,-165,-0.8007813,0.6616211,0.07910156,0.109375,-0.3754883,-0.06933594
2507,15.25,-9.0625,-177.25,-0.8857422,0.7080078,0.05566406,0.125,-0.3681641,-0.07324219
2511,17.5,-10.625,-178.3125,-0.9672852,0.7739258,0.04052734,0.1342773,-0.3618164,-0.06933594
2515,16.5,-8.0625,-172.125,-1.013672,0.8632813,0.02880859,0.1523438,-0.3544922,-0.06933594
2519,15.75,-7.9375,-163.875,-1.025391,0.890625,0.01708984,0.1650391,-0.3466797,-0.06787109
2523,13.0625,-7.125,-159.8125,-0.9907227,0.956543,-0.01660156,0.1757813,-0.3408203,-0.06787109
2527,6.625,-7.625,-156.6875,-0.9985352,1.019043,-0.03222656,0.1889648,-0.3305664,-0.06542969
2531,2.625,-4.1875,-145.25,-1.005859,1.045898,0.001953125,0.199707,-0.3232422,-0.06933594
2535,4.3125,-2.25,-124.8125,-1.07959,1.061523,0.07128906,0.2070313,-0.3168945,-0.06542969
2539,10.625,-5.0625,-96.1875,-1.083496,1.108398,0.1171875,0.2138672,-0.3095703,-0.06787109
2543,18.875,-3.625,-65.5,-1.001953,1.081055,0.125,0.222168,-0.3041992,-0.06640625
2547,25,1.0625,-41.3125,-0.8857422,1.116211,0.09033203,0.2236328,-0.3007813,-0.06640625
2551,15.125,1.375,-28.75,-0.8549805,1.143066,0.03662109,0.2270508,-0.2993164,-0.06396484
2555,2,0.0625,-20.5625,-0.8432617,1.084961,0.07128906,0.2285156,-0.296875,-0.06396484
2559,-2.375,0.75,-7.875,-0.847168,0.9956055,0.144043,0.2285156,-0.2944336,-0.06103516
2563,-1.0625,0,1.75,-0.847168,0.9375,0.1557617,0.230957,-0.2954102,-0.06542969
2567,3.125,-3.375,8.6875,-0.8549805,0.840332,0.1982422,0.2285156,-0.2954102,-0.0625
2571,15.75,-7.3125,14.6875,-0.847168,0.7973633,0.2172852,0.2285156,-0.296875,-0.06396484
2575,20.75,-13.0625,18.125,-0.8354492,0.8325195,0.1518555,0.2270508,-0.296875,-0.06103516
2579,22,-16,21.4375,-0.8237305,0.8208008,0.09033203,0.2236328,-0.2983398,-0.06103516
2583,18.125,-14.9375,26.375,-0.831543,0.840332,0.02880859,0.2246094,-0.3007813,-0.05859375
2587,12.1875,-10.8125,35.125,-0.8276367,0.8286133,-0.005371094,0.2236328,-0.3032227,-0.06542969
2591,4.375,-5.375,43.6875,-0.8393555,0.8051758,-0.009277344,0.2211914,-0.3041992,-0.06103516
2596,-4.0625,-3.3125,47.5,-0.8354492,0.7626953,0.001953125,0.21875,-0.3105469,-0.06103516
2600,-9.5,-2.9375,48.5625,-0.8393555,0.7080078,0.01708984,0.215332,-0.3105469,-0.0625
2604,-7,-5.125,47.9375,-0.831543,0.6772461,0.05175781,0.2104492,-0.3144531,-0.0625
2608,-0.0625,-8.375,49.9375,-0.8706055,0.7119141,0.06347656,0.2070313,-0.3154297,-0.0625
2612,7.375,-10,57.8125,-0.8857422,0.7509766,0.05566406,0.2045898,-0.3232422,-0.06542969
2616,11.5,-8.75,67.1875,-0.8818359,0.824707,0.02099609,0.2011719,-0.3232422,-0.06103516
2620,12.4375,-7.3125,77.5,-0.862793,0.8671875,-0.005371094,0.1948242,-0.3256836,-0.0625
2624,11.375,-2.25,88.5625,-0.8588867,0.9023438,0.01708984,0.1904297,-0.3320313,-0.06103516
2628,8.8125,-0.6875,96.625,-0.8896484,0.9375,0.02880859,0.1831055,-0.3378906,-0.05957031
2632,6.5625,-2.3125,104.0625,-0.9052734,0.956543,0.03271484,0.1772461,-0.3408203,-0.06103516
2636,6.9375,-0.875,114.9375,-0.9091797,0.953125,0.05175781,0.1665039,-0.3481445,-0.05712891
2640,7.5625,0.25,126.75,-0.9287109,0.953125,0.06738281,0.1582031,-0.3530273,-0.06103516
2644,6.875,0.625,136,-0.8857422,0.9643555,0.06347656,0.1508789,-0.3569336,-0.05859375
2648,6.25,2.625,138.875,-0.8510742,0.9414063,0.07519531,0.1376953,-0.3642578,-0.05712891
2652,6.875,0.375,138.6875,-0.8818359,0.9682617,0.09033203,0.125,-0.3691406,-0.05859375
2656,9.1875,-2.9375,142.1875,-0.847168,0.9760742,0.09423828,0.1166992,-0.371582,-0.05712891
2660,11.0625,-2.1875,147.3125,-0.8085938,0.9916992,0.08642578,0.1035156,-0.3793945,-0.05566406
2664,12.4375,-1.625,151.5,-0.7695313,1.01123,0.05175781,0.08886719,-0.3857422,-0.05273438
2668,10.125,1.375,153.6875,-0.7114258,1.069336,-0.005371094,0.07861328,-0.3857422,-0.05273438
2672,-0.3125,6.0625,153.8125,-0.699707,1.124023,-0.02441406,0.06298828,-0.3891602,-0.05566406
2676,-6.5625,7.375,153.3125,-0.6767578,1.092773,0.005859375,0.04736328,-0.3930664,-0.05419922
2680,-9.125,7.75,159.375,-0.7036133,1.092773,-0.005371094,0.03564453,-0.3930664,-0.05419922
2684,-13.9375,9.3125,168.8125,-0.6572266,1.081055,0.001953125,0.02148438,-0.3930664,-0.05566406
2688,-15.0625,12.625,175.75,-0.5756836,1.015137,0.01367188,0.002441406,-0.3945313,-0.05712891
2692,-16.0625,13,176.5625,-0.5449219,0.9838867,0.009765625,-0.01025391,-0.3916016,-0.05859375
2696,-15.8125,10.8125,172.0625,-0.4750977,0.9604492,0.04052734,-0.02587891,-0.3930664,-0.06103516
2700,-14,7.8125,166.75,-0.4750977,0.9453125,0.05566406,-0.04394531,-0.3891602,-0.06103516
2704,-9.9375,6,164.9375,-0.4326172,0.9838867,0.04052734,-0.05322266,-0.3881836,-0.06103516
2708,-10.3125,5.8125,166.1875,-0.4404297,1.053711,-0.005371094,-0.06982422,-0.3833008,-0.06103516
2712,-15.6875,5.125,175.4375,-0.4169922,1.081055,-0.04736328,-0.08544922,-0.3803711,-0.06542969
2716,-18,9.375,182.875,-0.3242188,1.04248,-0.04736328,-0.09863281,-0.3769531,-0.06542969
2720,-17.9375,13.375,184,-0.2734375,0.9838867,-0.02441406,-0.1137695,-0.3691406,-0.06933594
2725,-19.3125,12.25,184.25,-0.2231445,0.953125,-0.02832031,-0.1328125,-0.3603516,-0.06787109
2729,-18.875,15.5625,176.9375,-0.1030273,0.8867188,-0.005371094,-0.1425781,-0.3554688,-0.07177734
2733,-15.3125,16.5625,172.5625,-0.1147461,0.875,0.005859375,-0.1591797,-0.3466797,-0.07177734
2737,-10.125,19.625,170.25,-0.07617188,0.9023438,0.001953125,-0.1723633,-0.3354492,-0.07763672
2741,-11.5625,23.25,176.4375,-0.08789063,0.9492188,0.01367188,-0.1831055,-0.328125,-0.07617188
2745,-12.6875,22.375,183.4375,-0.09130859,0.9643555,0.02490234,-0.1972656,-0.3178711,-0.07861328
2749,-20.1875,19.5,186.375,-0.01025391,0.956543,0.03662109,-0.2114258,-0.3041992,-0.08154297
2753,-25.0625,14.1875,182.25,0.03955078,0.9296875,0.04443359,-0.2211914,-0.2954102,-0.08447266
2757,-28.1875,10.625,173.9375,0.1328125,0.90625,0.1210938,-0.2329102,-0.2817383,-0.08447266
2761,-26.1875,4.1875,170.9375,0.07470703,0.8984375,0.09033203,-0.2436523,-0.2680664,-0.08837891
2765,-19.8125,7.875,184.8125,0.1484375,0.8598633,0.1328125,-0.2495117,-0.2583008,-0.09082031
2769,-9.3125,11.625,202.125,0.1518555,0.8984375,0.1171875,-0.2626953,-0.2407227,-0.09082031
2773,-10.1875,16.75,215.75,0.1367188,1.073242,0.04443359,-0.2744141,-0.2231445,-0.09082031
2777,-30.125,15.1875,225.0625,0.140625,1.162598,0.009765625,-0.2792969,-0.2104492,-0.09228516
2781,-42.875,4.5,225.625,0.1713867,1.019043,0.105957,-0.2924805,-0.1879883,-0.09667969
2785,-32.875,-1.875,233.375,0.1171875,0.9023438,0.144043,-0.2998047,-0.1655273,-0.09521484
2789,-23.6875,1.5625,257.375,0.09765625,0.8168945,0.1132813,-0.3056641,-0.1479492,-0.09667969
2793,-46.4375,1.8125,287.8125,0.125,0.5991211,-0.001464844,-0.3139648,-0.1230469,-0.09912109
2797,-100,3.8125,293.6875,0.2685547,0.140625,-0.05908203,-0.3188477,-0.09179688,-0.09912109
2801,-152.125,-3.25,274.3125,0.3613281,-0.6474609,-0.02832031,-0.3188477,-0.06835938,-0.09912109
2805,-178.9375,-13.6875,246.1875,0.4467773,-1.509766,0.04785156,-0.3222656,-0.03808594,-0.1005859
2809,-161.625,-8.375,215.1875,0.6791992,-2.477539,0.1479492,-0.3198242,-0.009277344,-0.09765625
2813,-94.75,6.375,147.4375,1.117188,-3.11084,0.3442383,-0.3188477,0.006347656,-0.09375
2817,-13.9375,11.6875,16.625,1.310547,-2.722168,0.3979492,-0.3164063,0.01855469,-0.09375
2821,48.5625,-10.8125,-100,0.9038086,-1.855957,0.2788086,-0.3188477,0.01513672,-0.09375
2825,97.25,-20.375,-145.0625,0.6328125,-1.012695,0.1479492,-0.3188477,0.006347656,-0.09521484
2829,107.1875,-17.8125,-145.375,0.5356445,-0.2548828,-0.08203125,-0.3208008,-0.009277344,-0.09375
2833,67,-16.875,-140.125,0.5708008,0.1796875,-0.2861328,-0.3222656,-0.02587891,-0.09375
2837,13.0625,-12.6875,-143.75,0.7060547,0.1757813,-0.2631836,-0.3222656,-0.03808594,-0.09228516
2841,-7.4375,-0.625,-150.0625,0.7294922,-0.04541016,-0.08203125,-0.324707,-0.05322266,-0.09375
2845,10.25,8.375,-161.6875,0.6948242,-0.1694336,0.1098633,-0.3222656,-0.06933594,-0.09082031
2849,35.3125,9.9375,-170.625,0.5859375,-0.08398438,0.1557617,-0.3222656,-0.08056641,-0.09375
2854,60.75,13.625,-176.25,0.5317383,0.04394531,0.159668,-0.3173828,-0.09960938,-0.09521484
2858,71.5,17.875,-175,0.4350586,0.2651367,0.1020508,-0.3164063,-0.1181641,-0.09375
2862,63.6875,24.25,-169.3125,0.3999023,0.4243164,0.04785156,-0.3115234,-0.1333008,-0.09375
2866,50.625,29.6875,-160.125,0.3691406,0.5019531,0.02490234,-0.3066406,-0.1508789,-0.09765625
2870,45.3125,37.5,-158.9375,0.3847656,0.4516602,0.1210938,-0.3017578,-0.1669922,-0.09667969
2874,46.625,35.875,-167.625,0.3535156,0.5605469,0.1171875,-0.2958984,-0.1791992,-0.09912109
2878,33.4375,23.75,-186.875,0.2915039,0.6923828,0.09814453,-0.2866211,-0.1958008,-0.09912109
2882,16.875,11.6875,-201.4375,0.2646484,0.7739258,0.125,-0.2783203,-0.2128906,-0.1005859
2886,23.3125,11.9375,-201,0.2216797,0.7392578,0.2133789,-0.2685547,-0.2270508,-0.1020508
2890,40.6875,16.0625,-181.625,0.09765625,0.8945313,0.1865234,-0.2568359,-0.2431641,-0.09912109
2894,42.9375,22.5625,-158,0.1367188,1.030762,0.1171875,-0.2485352,-0.2583008,-0.09912109
2898,33.4375,26.9375,-148.25,0.140625,1.116211,0.06347656,-0.2412109,-0.2695313,-0.09765625
2902,11.3125,21.5625,-152.5625,0.1674805,1.124023,0.04785156,-0.2294922,-0.2792969,-0.09912109
2906,-4.5625,16.5625,-165.1875,0.1870117,0.9995117,0.1328125,-0.2172852,-0.2919922,-0.1005859
2910,2.25,13.4375,-172.625,0.1328125,0.8208008,0.2402344,-0.2104492,-0.2993164,-0.1005859
2914,42.0625,6.25,-173.8125,-0.01025391,0.7973633,0.3291016,-0.1962891,-0.3120117,-0.1020508
2918,68.875,-0.8125,-162.375,-0.1147461,1.13916,0.1635742,-0.1816406,-0.3242188,-0.09765625
2922,58,-4.4375,-147,-0.02978516,1.438477,-0.02050781,-0.1733398,-0.3320313,-0.09375
2926,3.875,1.5625,-136.3125,0.04345703,1.574707,-0.1782227,-0.1640625,-0.3408203,-0.09082031
2930,-55.5,8.5,-131.5625,0.09765625,1.279297,-0.09765625,-0.1494141,-0.3457031,-0.09228516
2934,-59.9375,18.6875,-131.125,0.1015625,0.7587891,0.1865234,-0.1435547,-0.3505859,-0.09912109
2938,3.625,26.8125,-130.5,-0.02587891,0.4516602,0.3979492,-0.1303711,-0.3530273,-0.1005859
2942,76.6875,19.8125,-137,-0.1420898,0.6381836,0.3671875,-0.1176758,-0.3618164,-0.1005859
2946,102.5,2.5,-148.9375,-0.2348633,1.146973,0.1132813,-0.1079102,-0.3657227,-0.09375
2950,55.1875,-12.9375,-154.8125,-0.2700195,1.601563,-0.1630859,-0.09375,-0.3730469,-0.08544922
2954,-18.625,-13.8125,-141.25,-0.2543945,1.55127,-0.1630859,-0.078125,-0.3769531,-0.08447266
2958,-62.6875,0,-121.875,-0.1611328,1.112305,-0.03613281,-0.07226563,-0.3793945,-0.08544922
2962,-34.4375,16.9375,-112.6875,-0.1611328,0.5800781,0.2250977,-0.06054688,-0.3818359,-0.08984375
2966,27.5,27.8125,-115.1875,-0.2426758,0.6108398,0.2172852,-0.04736328,-0.3833008,-0.09228516
2970,53.8125,17.5625,-128.8125,-0.3510742,0.9023438,0.09423828,-0.04003906,-0.3842773,-0.08984375
2974,46.875,3.0625,-145.125,-0.4052734,1.104492,0.009765625,-0.02587891,-0.3867188,-0.08447266
2978,24.375,-3.4375,-149.9375,-0.4555664,1.166504,-0.02441406,-0.01025391,-0.3891602,-0.08154297
2983,-3.875,-0.6875,-135.375,-0.5371094,1.12793,-0.04003906,-0.001953125,-0.3891602,-0.08007813
2987,-28.5625,12.1875,-118.9375,-0.4672852,0.9375,-0.009277344,0.01074219,-0.3916016,-0.08007813
2991,-36.125,20.75,-115.9375,-0.4711914,0.6303711,0.02490234,0.0234375,-0.3891602,-0.08447266
2995,-20.3125,25.5,-126.6875,-0.4711914,0.3896484,0.07910156,0.03173828,-0.3891602,-0.08447266
2999,-1.1875,27.8125,-149.9375,-0.5371094,0.3818359,0.07128906,0.04638672,-0.3867188,-0.08691406
3003,7.75,20.75,-176,-0.7270508,0.4243164,0.08251953,0.06054688,-0.3867188,-0.08544922
3007,13.25,12.9375,-197.4375,-0.8588867,0.4555664,0.1328125,0.07470703,-0.3803711,-0.08544922
3011,29.4375,6.375,-211.5,-1.021484,0.4282227,0.1635742,0.09277344,-0.3779297,-0.08300781
3015,51.6875,3.6875,-217.9375,-1.149414,0.4868164,0.1479492,0.112793,-0.3730469,-0.08007813
3019,67,-5.6875,-224.75,-1.246094,0.6303711,0.07519531,0.1259766,-0.3657227,-0.07617188
3023,73,-18.1875,-228.0625,-1.28125,0.7509766,0.01367188,0.1474609,-0.3579102,-0.07177734
3027,72.8125,-27.4375,-226.5,-1.312012,0.8710938,-0.04003906,0.1665039,-0.3466797,-0.0625
3031,65.875,-37.25,-216,-1.277344,1.015137,-0.1245117,0.1782227,-0.3417969,-0.06103516
3035,51.1875,-36.5625,-201.5625,-1.176758,1.100586,-0.1743164,0.1948242,-0.3266602,-0.05859375
3039,36.8125,-26.1875,-178.1875,-1.106934,1.146973,-0.1552734,0.2094727,-0.3154297,-0.05859375
3043,20.25,-9.75,-148.3125,-1.067871,1.236328,-0.1591797,0.21875,-0.3095703,-0.05566406
3047,1,-0.9375,-119.5,-1.067871,1.251953,-0.09765625,0.2270508,-0.296875,-0.05859375
3051,-13.625,4.1875,-95.9375,-1.005859,1.213379,-0.005371094,0.2329102,-0.2905273,-0.05859375
3055,-19.6875,4.5,-75.75,-0.9672852,1.150879,0.07519531,0.2392578,-0.2856445,-0.05712891
3059,-19,5.125,-58.5625,-0.9365234,1.104492,0.140625,0.2436523,-0.2807617,-0.05957031
3063,-14.625,2.875,-43.375,-0.9438477,1.053711,0.2060547,0.2475586,-0.2753906,-0.06103516
3067,-2.875,-1.25,-28.75,-0.9208984,0.9995117,0.2441406,0.2475586,-0.2744141,-0.05957031
3071,6.25,-4.3125,-14.5,-0.9287109,1.019043,0.2133789,0.2475586,-0.2719727,-0.06103516
3075,9.6875,-8.5625,-1.75,-0.9091797,1.022949,0.1674805,0.25,-0.2729492,-0.06103516
3079,12.5625,-11,10.9375,-0.9130859,0.9916992,0.1328125,0.2509766,-0.2705078,-0.06103516
3083,13.125,-9.375,23.8125,-0.878418,0.987793,0.06738281,0.25,-0.2729492,-0.05957031
3087,5.0625,-8.6875,31.25,-0.8818359,1.007324,0.005859375,0.2460938,-0.2729492,-0.05957031
3091,-5.9375,-9.5625,37.875,-0.9052734,0.9838867,-0.02441406,0.2475586,-0.2753906,-0.06103516
3095,-14.9375,-6.5625,48,-0.9052734,0.9414063,-0.009277344,0.2436523,-0.2807617,-0.06396484
3099,-14.75,-6.5625,59.625,-0.9633789,0.8671875,0.04785156,0.237793,-0.2832031,-0.06542969
3103,-5.5625,-4.5,76.125,-0.9633789,0.8129883,0.07910156,0.2353516,-0.2856445,-0.06396484
3107,7.8125,-1.5,92.875,-0.9750977,0.7666016,0.08251953,0.2319336,-0.2905273,-0.0625
3112,13.3125,-1.4375,104.0625,-0.9829102,0.7509766,0.05175781,0.2260742,-0.2983398,-0.06542969
3116,13.3125,-2,109.8125,-0.9248047,0.7353516,0.009765625,0.2211914,-0.3056641,-0.06396484
3120,6.625,-0.625,110.0625,-0.9013672,0.7080078,-0.01318359,0.2138672,-0.3129883,-0.06103516
3124,-1.375,-0.125,106.4375,-0.8666992,0.6655273,-0.009277344,0.2045898,-0.3193359,-0.05957031
3128,-8.8125,0.5,99.5,-0.8510742,0.6694336,-0.005371094,0.1987305,-0.3256836,-0.06103516
3132,-15.3125,-1.6875,94.125,-0.9130859,0.7119141,0.03271484,0.1914063,-0.3305664,-0.0625
3136,-16.625,-5.75,95.5,-0.9555664,0.7119141,0.08251953,0.184082,-0.3344727,-0.06396484
3140,-6.4375,-6,102.1875,-0.9169922,0.7236328,0.1328125,0.1772461,-0.3393555,-0.06396484
3144,1.5,-7.4375,104.125,-0.9594727,0.8481445,0.1020508,0.1674805,-0.3457031,-0.06640625
3148,2.5,-11.9375,107.625,-0.9790039,0.9799805,0.08251953,0.1616211,-0.3530273,-0.06640625
3152,-1.75,-11.4375,115.625,-0.9868164,1.073242,0.05175781,0.1557617,-0.3530273,-0.06542969
3156,-6.125,-12.625,130.625,-1.063965,1.124023,0.009765625,0.144043,-0.359375,-0.06542969
3160,-1.8125,-5.25,155.625,-0.9633789,1.073242,0.01367188,0.1308594,-0.3681641,-0.07080078
3164,4.875,10.125,177,-0.9130859,1.092773,-0.001464844,0.1210938,-0.3706055,-0.06787109
3168,2.625,14.6875,182.625,-0.878418,1.124023,-0.01660156,0.1044922,-0.3779297,-0.06933594
3172,-8.375,12.4375,179.75,-0.8974609,1.178223,0.001953125,0.08789063,-0.3833008,-0.06640625
3176,-18.0625,5.5625,177.875,-0.8818359,1.154785,0.009765625,0.07373047,-0.3842773,-0.06787109
3180,-19.6875,4.875,182,-0.8745117,1.135742,0.04443359,0.05957031,-0.3881836,-0.07080078
3184,-15.3125,0.5625,194.25,-0.8935547,1.135742,0.07910156,0.03808594,-0.390625,-0.07080078
3188,-5.3125,-0.125,206.75,-0.8818359,1.20166,0.05566406,0.02587891,-0.3916016,-0.07177734
3192,3.125,6.375,223.75,-0.7890625,1.205566,0.04052734,0.005859375,-0.3930664,-0.07324219
3196,4.375,11.375,232.875,-0.7387695,1.221191,-0.02441406,-0.01855469,-0.390625,-0.07324219
3200,-4.625,13.875,232.25,-0.6689453,1.228516,-0.08984375,-0.03320313,-0.390625,-0.07080078
3204,-23.4375,15.625,232.5625,-0.6225586,1.205566,-0.1362305,-0.05664063,-0.3857422,-0.07470703
3208,-34.875,13.5625,231.4375,-0.6225586,1.088867,-0.07861328,-0.07958984,-0.3793945,-0.07617188
3212,-33,11.25,235,-0.5644531,0.9643555,-0.009277344,-0.09472656,-0.371582,-0.07861328
3216,-23.1875,20.5,242,-0.4404297,0.9179688,0.009765625,-0.1137695,-0.3642578,-0.08154297
3220,-25.5625,27.8125,243.4375,-0.3935547,0.956543,-0.02050781,-0.1391602,-0.3530273,-0.08447266
3224,-42.6875,23.875,235.0625,-0.3862305,0.9335938,-0.02832031,-0.1508789,-0.3466797,-0.08984375
3228,-53.5,13.6875,223.75,-0.2890625,0.7431641,0.05566406,-0.1723633,-0.3354492,-0.09228516
3232,-40.5,15.25,217.625,-0.215332,0.6303711,0.1132813,-0.1889648,-0.3208008,-0.09667969
3236,-23.0625,20.625,222.4375,-0.2041016,0.6225586,0.1171875,-0.199707,-0.3081055,-0.1020508
3241,-16.875,24.625,226.875,-0.1342773,0.6694336,0.1020508,-0.2163086,-0.2929688,-0.1035156
3245,-26.75,23.375,224.0625,-0.1303711,0.7587891,0.009765625,-0.2304688,-0.2753906,-0.1044922
3249,-46.4375,22,214.375,-0.02978516,0.7353516,0.07128906,-0.2412109,-0.2641602,-0.1074219
3253,-57.75,14.5625,207.625,-0.02978516,0.6499023,0.07128906,-0.253418,-0.2456055,-0.1113281
3257,-59.25,10.875,205.0625,0.02441406,0.5214844,0.125,-0.2661133,-0.2255859,-0.1166992
3261,-39.125,13.0625,210.6875,0.07080078,0.4477539,0.2094727,-0.2709961,-0.2128906,-0.1181641
3265,-17.625,20.0625,221.3125,0.06689453,0.5605469,0.2021484,-0.2827148,-0.1933594,-0.1210938
3269,-12.375,18.8125,228.3125,0.08642578,0.6733398,0.1674805,-0.2900391,-0.171875,-0.1235352
3273,-23.375,12.875,223.4375,0.1674805,0.7392578,0.1904297,-0.2949219,-0.1567383,-0.1235352
3277,-32.625,0.6875,217.375,0.1015625,0.7158203,0.2519531,-0.3017578,-0.1342773,-0.1264648
3281,-33.5,-9.625,230.6875,0.1289063,0.5683594,0.2402344,-0.3066406,-0.1108398,-0.125
3285,-35.4375,-0.875,259.625,0.2412109,0.3388672,0.1713867,-0.3105469,-0.09570313,-0.1264648
3289,-71.625,6.375,283.125,0.2685547,0.05908203,0.01367188,-0.3125,-0.06835938,-0.1235352
3293,-149.1875,2.625,284.375,0.4038086,-0.6821289,-0.1166992,-0.3115234,-0.03466797,-0.1264648
3297,-221.625,-7,255.4375,0.5473633,-1.855957,-0.09765625,-0.3139648,-0.01464844,-0.125
3301,-189.125,4,177.8125,1.140137,-3.347656,0.2749023,-0.3105469,0.01855469,-0.1210938
3305,-52.75,22.25,49.5,1.52002,-3.378906,0.7172852,-0.3066406,0.03515625,-0.1196289
3309,76,-4,-97.0625,1.05127,-2.376465,0.605957,-0.3041992,0.03613281,-0.1196289
3313,151.25,-29,-162,0.625,-1.129395,0.3364258,-0.309082,0.02246094,-0.1225586
3317,162.9375,-30.5625,-158.1875,0.4428711,0.02832031,-0.06298828,-0.3139648,0,-0.1225586
3321,110.9375,-32.3125,-129.625,0.4580078,0.6420898,-0.34375,-0.3125,-0.01171875,-0.1196289
3325,44.6875,-29.8125,-112.75,0.7099609,0.6108398,-0.309082,-0.3164063,-0.02685547,-0.1181641
3329,9.5625,-15.9375,-105.1875,0.8652344,0.253418,-0.1401367,-0.3188477,-0.04199219,-0.1157227
3333,13.5625,0.875,-100.375,0.8535156,-0.04150391,0.05957031,-0.3164063,-0.04833984,-0.1142578
3337,28.6875,4.5625,-106.8125,0.7797852,-0.1420898,0.1748047,-0.3173828,-0.05957031,-0.1157227
3341,36.625,0.6875,-126.75,0.7490234,-0.1230469,0.2290039,-0.3164063,-0.07177734,-0.1142578
3345,35.8125,-5.375,-149.25,0.6635742,-0.05273438,0.2172852,-0.3149414,-0.08056641,-0.1157227
3349,27.6875,-5.5,-161.3125,0.59375,0.01269531,0.2060547,-0.3125,-0.09716797,-0.112793
3353,27.5625,-0.875,-164.5,0.4931641,0.01660156,0.2172852,-0.309082,-0.1132813,-0.1142578
3357,40.125,6.9375,-157.375,0.4697266,0.05126953,0.2060547,-0.3081055,-0.1269531,-0.1142578
3361,52.5625,15.9375,-156.375,0.4428711,0.07470703,0.1826172,-0.3032227,-0.1420898,-0.1157227
3365,56.5,14.6875,-170.625,0.4038086,0.2338867,0.09423828,-0.2983398,-0.1621094,-0.1142578
3370,38.5625,4.6875,-196.6875,0.3808594,0.3662109,0.03271484,-0.293457,-0.1733398,-0.1142578
3374,8.25,3.75,-211.6875,0.3110352,0.5292969,-0.04394531,-0.2851563,-0.1918945,-0.1142578
3378,4.8125,10.3125,-211,0.2373047,0.3583984,0.1367188,-0.2744141,-0.2128906,-0.1157227
3382,40,30.5625,-195.9375,0.1831055,0.3583984,0.2211914,-0.2661133,-0.2231445,-0.1142578
3386,73.9375,42.5,-185.375,0.05517578,0.5136719,0.1865234,-0.2553711,-0.2407227,-0.1166992
3390,67,29.125,-200.0625,-0.01416016,0.9140625,0.001953125,-0.2426758,-0.2607422,-0.1142578
3394,5.625,-1.5625,-229.9375,-0.04882813,1.112305,-0.1015625,-0.2353516,-0.2719727,-0.1088867
3398,-21.25,-14,-245.75,-0.05664063,0.8168945,0.1518555,-0.2172852,-0.2856445,-0.1113281
3402,17.875,-2.875,-229.375,-0.1533203,0.7001953,0.2597656,-0.199707,-0.3056641,-0.1098633
3406,65.125,11.6875,-204.9375,-0.2192383,0.7587891,0.2211914,-0.1865234,-0.3154297,-0.112793
3410,86.5,12.3125,-195.1875,-0.2734375,1.019043,0.04052734,-0.1723633,-0.3291016,-0.1044922
3414,64.4375,2.1875,-200.0625,-0.3046875,1.232422,-0.08203125,-0.1542969,-0.3417969,-0.09912109
3418,24.25,-9.6875,-210.25,-0.347168,1.302734,-0.08203125,-0.1425781,-0.3491211,-0.09667969
3422,8.8125,-12.75,-204.8125,-0.4013672,1.213379,0.01367188,-0.1235352,-0.359375,-0.09228516
3426,22.5,-3.6875,-183.375,-0.4169922,1.158691,0.03271484,-0.1069336,-0.3666992,-0.09375
3430,26.875,5.75,-164.875,-0.4013672,1.217285,-0.05908203,-0.09472656,-0.3706055,-0.09228516
3434,21.875,10.6875,-160.875,-0.3588867,1.186035,-0.04736328,-0.07958984,-0.3745117,-0.08984375
3438,8.0625,13.6875,-165.875,-0.3745117,1.12793,-0.06298828,-0.06396484,-0.3803711,-0.08984375
3442,1.5,13.1875,-175.1875,-0.4248047,0.9760742,0.009765625,-0.05322266,-0.3833008,-0.08837891
3446,1.0625,11.5625,-183.8125,-0.4555664,0.8632813,0.05566406,-0.03417969,-0.3881836,-0.08837891
3450,23.0625,7.0625,-199.1875,-0.5683594,0.7236328,0.1826172,-0.01611328,-0.3891602,-0.08691406
3454,55.25,-0.875,-207.625,-0.6728516,0.8671875,0.140625,-0.001953125,-0.3891602,-0.08447266
3458,59.5,-8.875,-210.4375,-0.7929688,1.100586,0.03271484,0.01757813,-0.3891602,-0.07617188
3462,40.1875,-19.3125,-201.5625,-0.8857422,1.209473,-0.03222656,0.0390625,-0.3891602,-0.07324219
3466,15.625,-24,-184.6875,-0.878418,1.124023,-0.06689453,0.05224609,-0.3867188,-0.07177734
3470,1.5625,-14.1875,-175,-0.7695313,0.9296875,-0.07080078,0.06787109,-0.3842773,-0.06933594
3474,-1.1875,-5.75,-177.25,-0.78125,0.7626953,-0.08984375,0.08691406,-0.3818359,-0.06933594
3478,-3.5625,0.0625,-188.8125,-0.8164063,0.6811523,-0.0859375,0.09619141,-0.3779297,-0.06933594
3482,3.6875,4.9375,-199.5625,-0.9208984,0.6225586,-0.02050781,0.1166992,-0.3730469,-0.07080078
3486,9.4375,5.4375,-206.5625,-1.067871,0.6616211,0.04785156,0.1342773,-0.3618164,-0.06933594
3490,19.3125,1.3125,-209.0625,-1.129883,0.6772461,0.09423828,0.1459961,-0.3579102,-0.06542969
3494,28.1875,-2.4375,-209.875,-1.195801,0.7392578,0.08642578,0.1650391,-0.3481445,-0.06787109
3499,33.8125,-10.6875,-208.25,-1.219238,0.8325195,0.03662109,0.1821289,-0.3354492,-0.06640625
3503,33.0625,-16.375,-204.625,-1.223145,0.921875,-0.01318359,0.1928711,-0.3291016,-0.06396484
3507,31.0625,-16.875,-193.3125,-1.242188,0.9916992,-0.01660156,0.2094727,-0.3144531,-0.0625
3511,36.6875,-16.9375,-172.5625,-1.234863,1.030762,0.03271484,0.2236328,-0.3041992,-0.06103516
3515,55.875,-17.75,-146.8125,-1.230957,1.143066,0.03662109,0.2285156,-0.2954102,-0.06103516
3519,73.75,-15.0625,-104.9375,-1.149414,1.337402,-0.06689453,0.237793,-0.2866211,-0.05712891
3523,54.6875,5.6875,-51.6875,-1.037109,1.539551,-0.2167969,0.2412109,-0.2807617,-0.05273438
3527,3.4375,21.25,-15.6875,-0.8974609,1.493164,-0.2285156,0.2436523,-0.2783203,-0.05175781
3531,-41.375,23.0625,-4.1875,-0.8745117,1.174316,-0.109375,0.2460938,-0.2768555,-0.05175781
3535,-51.0625,22.625,-4.125,-0.7695313,0.875,0.1098633,0.2475586,-0.2768555,-0.05273438
3539,-31.25,23.0625,-6.5625,-0.8046875,0.7275391,0.2788086,0.2451172,-0.2753906,-0.05419922
3543,-1.6875,16.375,-5.875,-0.9248047,0.7548828,0.3598633,0.2475586,-0.2744141,-0.05175781
3547,19.5625,-1.75,-4.5,-0.9985352,0.921875,0.3056641,0.2460938,-0.2753906,-0.05029297
3551,23.25,-22.4375,0,-0.9790039,1.053711,0.1479492,0.2485352,-0.2744141,-0.05175781
3555,23.1875,-27.5,12.875,-0.9248047,1.077148,0.02099609,0.2475586,-0.2753906,-0.05175781
3559,21.375,-17.4375,34.5625,-0.8857422,1.104492,-0.07470703,0.2460938,-0.2783203,-0.05273438
3563,16.4375,-3.9375,58.6875,-0.9365234,1.120117,-0.09375,0.2451172,-0.2807617,-0.05175781
3567,6.5,0.125,77.6875,-0.9946289,1.108398,-0.08203125,0.2412109,-0.2856445,-0.05029297
3571,-1.5625,-0.5625,90.3125,-1.001953,1.053711,-0.06298828,0.2353516,-0.2919922,-0.05029297
3575,-6.6875,0.125,102.25,-1.013672,1.030762,-0.05517578,0.230957,-0.296875,-0.05029297
3579,-5.125,0.9375,116.9375,-1.048828,0.9414063,-0.005371094,0.2236328,-0.3041992,-0.04882813
3583,-1.5625,3.1875,130.3125,-1.060547,0.9140625,-0.001464844,0.215332,-0.3120117,-0.05029297
3587,2.4375,4.625,140.3125,-1.048828,0.9375,-0.001464844,0.2070313,-0.3154297,-0.05175781
3591,-1.4375,4.5625,145.9375,-1.060547,1.026855,-0.04003906,0.1972656,-0.328125,-0.04736328
3595,-14,4.75,149.625,-1.083496,1.084961,-0.05126953,0.1855469,-0.3378906,-0.04882813
3599,-29.375,2.6875,155.25,-1.137695,1.104492,-0.09375,0.1772461,-0.3417969,-0.05029297
3603,-45.625,3.5625,167.625,-1.149414,1.030762,-0.08984375,0.1640625,-0.3481445,-0.05273438
3607,-38.625,8.5625,184.5,-1.106934,0.855957,0.02099609,0.1474609,-0.3569336,-0.05859375
3611,-22.5,11.75,192.625,-1.133789,0.8598633,0.05566406,0.1376953,-0.3618164,-0.05859375
3615,-11.5625,4.375,197.4375,-1.12207,0.9179688,0.04443359,0.1186523,-0.371582,-0.05957031
3619,-14.5625,-1.0625,197.375,-1.029297,0.9995117,-0.04003906,0.09960938,-0.3793945,-0.06103516
3623,-31.375,0.5,195.5,-0.9208984,1.053711,-0.1206055,0.08886719,-0.3803711,-0.0625
3628,-47.8125,2.8125,193.8125,-0.8935547,0.987793,-0.112793,0.06982422,-0.3881836,-0.06640625
3632,-44.8125,9.0625,197.125,-0.831543,0.8520508,-0.001464844,0.05078125,-0.390625,-0.07324219
3636,-28.875,11.875,203.375,-0.878418,0.8129883,0.03662109,0.03662109,-0.390625,-0.07324219
3640,-19.1875,6.5625,211.25,-0.8237305,0.8520508,0.04052734,0.01660156,-0.390625,-0.07470703
3644,-22.8125,1.875,210,-0.6611328,0.8710938,0.001953125,-0.003417969,-0.3916016,-0.07861328
3648,-31.5625,0.4375,201.9375,-0.6186523,0.8710938,-0.03222656,-0.01757813,-0.3891602,-0.08007813
3652,-42.1875,-4.875,194.5,-0.5214844,0.8051758,-0.001464844,-0.03759766,-0.3857422,-0.08300781
3656,-35.6875,-8.1875,183.875,-0.4633789,0.7001953,0.05175781,-0.05664063,-0.3818359,-0.08837891
3660,-12.6875,-3.125,179.4375,-0.4326172,0.7041016,0.09033203,-0.06738281,-0.3779297,-0.08837891
3664,1.125,-2.4375,180.5625,-0.4208984,0.8208008,0.03662109,-0.08398438,-0.3730469,-0.09082031
3668,1.6875,-5.5,177.75,-0.347168,0.9335938,-0.001464844,-0.1030273,-0.3691406,-0.09082031
3672,-7.5,-7,176.125,-0.3320313,1.003418,-0.05517578,-0.1152344,-0.3657227,-0.08837891
3676,-22.125,-3.5,178,-0.230957,0.987793,-0.05126953,-0.1293945,-0.3569336,-0.08984375
3680,-36.1875,0.5625,172.5625,-0.1499023,0.9140625,-0.005371094,-0.1459961,-0.3481445,-0.09375
3684,-34.875,-3.25,165.0625,-0.2270508,0.840332,0.04785156,-0.1567383,-0.3417969,-0.09521484
3688,-12.875,-1.625,168.625,-0.1499023,0.824707,0.1367188,-0.168457,-0.3330078,-0.09765625
3692,1.6875,0.0625,171.125,-0.2080078,1.06543,0.04443359,-0.184082,-0.3242188,-0.09521484
3696,-13,-3.6875,177.125,-0.1650391,1.244141,-0.02050781,-0.1923828,-0.3154297,-0.09765625
3700,-31.1875,0.625,189.3125,-0.1147461,1.255859,-0.05517578,-0.2089844,-0.3056641,-0.09765625
3704,-40.5,8.0625,210.6875,-0.08007813,1.146973,-0.009277344,-0.2236328,-0.2880859,-0.1035156
3708,-43.5625,11.875,221.5625,-0.006347656,0.9916992,0.05566406,-0.2329102,-0.2753906,-0.1035156
3712,-29.0625,10.8125,227.625,-0.04882813,0.921875,0.09423828,-0.2470703,-0.2568359,-0.105957
3716,-20.9375,13.5625,238.5,-0.002441406,0.9956055,0.05175781,-0.2602539,-0.2368164,-0.1098633
3720,-27,14.625,251.875,0.02441406,1.026855,0.02880859,-0.2685547,-0.2231445,-0.1113281
3724,-34.8125,13.3125,261.25,0.004882813,1.030762,0.001953125,-0.2807617,-0.2006836,-0.1113281
3728,-44.9375,17.1875,280.0625,-0.07617188,1.112305,0.01708984,-0.2924805,-0.1733398,-0.1157227
3732,-59.25,9.4375,308.0625,-0.230957,0.9023438,0.08251953,-0.2973633,-0.1533203,-0.1181641
3736,-77.6875,-2.1875,327.5625,-0.09521484,0.5097656,0.1713867,-0.3056641,-0.1220703,-0.1196289
3740,-96.625,-11.3125,327.125,0.09765625,-0.1538086,0.2441406,-0.3125,-0.08544922,-0.1196289
3744,-104.25,-14.8125,324.875,0.1171875,-1.024414,0.2675781,-0.3149414,-0.06201172,-0.1181641
3748,-130,-24.125,336.4375,0.1015625,-2.116211,0.03271484,-0.3164063,-0.02832031,-0.1157227
3752,-126.4375,-12.8125,282.8125,0.8803711,-3.375,0.02880859,-0.3139648,0.008789063,-0.1142578
3757,-65.875,17,113.75,1.744629,-3.887695,0.375,-0.3115234,0.02880859,-0.1113281
3761,-0.75,-4.1875,-105,1.182617,-2.788086,0.4482422,-0.309082,0.03613281,-0.112793
3765,69.375,-30.5,-197.625,0.5473633,-1.618652,0.4560547,-0.3139648,0.01855469,-0.1098633
3769,120.875,-34.9375,-190.6875,0.1870117,-0.4335938,0.159668,-0.3173828,0.004882813,-0.1098633
3773,92.625,-36.3125,-150.6875,0.3110352,0.4165039,-0.2324219,-0.3188477,-0.015625,-0.105957
3777,23.3125,-30,-136.1875,0.6791992,0.5332031,-0.3554688,-0.3208008,-0.03320313,-0.1044922
3781,-16.9375,-16.8125,-147.625,0.7993164,0.1679688,-0.1782227,-0.3208008,-0.04199219,-0.1020508
3785,-2.625,0.5625,-155.1875,0.7373047,-0.09960938,0.05957031,-0.3198242,-0.05712891,-0.1020508
3789,31.6875,5.9375,-166.125,0.6831055,-0.1772461,0.159668,-0.3198242,-0.07324219,-0.1020508
3793,58.75,6.4375,-182.4375,0.6362305,-0.04882813,0.1479492,-0.3164063,-0.08544922,-0.1035156
3797,58.5,2.75,-187.9375,0.4619141,0.2265625,0.04443359,-0.3139648,-0.1054688,-0.1020508
3801,37.125,8.0625,-179,0.5239258,0.3310547,0.01708984,-0.3105469,-0.1245117,-0.1020508
3805,21.8125,29.625,-172.1875,0.5551758,0.2416992,0.05175781,-0.3081055,-0.1381836,-0.1020508
3809,21.3125,41.5625,-171.8125,0.4116211,0.1367188,0.159668,-0.3007813,-0.1567383,-0.105957
3813,31.1875,30.5,-193.9375,0.3496094,0.07470703,0.2749023,-0.2924805,-0.1743164,-0.1088867
3817,53.625,9.75,-224.125,0.2529297,0.1757813,0.2905273,-0.2890625,-0.1894531,-0.1098633
3821,52.4375,-2.5625,-232.6875,0.07861328,0.6186523,0.09423828,-0.2783203,-0.2104492,-0.1074219
3825,33.625,3.4375,-212.625,0.1445313,0.8520508,0.001953125,-0.2651367,-0.2319336,-0.1044922
3829,8.25,25.1875,-189.6875,0.1445313,0.8364258,-0.001464844,-0.2578125,-0.2441406,-0.1044922
3833,6.25,33.25,-190.1875,0.09765625,0.7470703,0.1328125,-0.2446289,-0.2607422,-0.105957
3837,10.625,18.0625,-212.5,0.02832031,0.6069336,0.2519531,-0.2329102,-0.2753906,-0.1074219
3841,42.1875,-3.625,-242.25,-0.08398438,0.6264648,0.2866211,-0.2211914,-0.2856445,-0.1088867
3845,51.9375,-15.8125,-250.25,-0.2387695,1.022949,0.1098633,-0.2045898,-0.3041992,-0.1044922
3849,15.3125,-17.1875,-226.8125,-0.262207,1.399902,-0.1015625,-0.1855469,-0.3217773,-0.09912109
3853,-15.875,-4.625,-201.5625,-0.1689453,1.154785,0.01708984,-0.1723633,-0.3266602,-0.09765625
3857,-16.9375,11.3125,-192.3125,-0.1572266,0.8945313,0.1020508,-0.1542969,-0.3393555,-0.1035156
3861,27.5,15,-203,-0.215332,0.5761719,0.3056641,-0.1376953,-0.3481445,-0.1035156
3865,83.25,12.625,-219.8125,-0.3510742,0.6962891,0.2133789,-0.1259766,-0.3569336,-0.1005859
3869,107.8125,-2.75,-233.3125,-0.5913086,1.057617,0.06347656,-0.1044922,-0.3657227,-0.09228516
3873,68.125,-16.9375,-219.25,-0.6147461,1.609375,-0.2128906,-0.08300781,-0.3754883,-0.08300781
3877,-21.4375,-17.375,-191.5625,-0.5102539,1.55127,-0.2631836,-0.07128906,-0.3818359,-0.07861328
3881,-65.0625,-7,-178.6875,-0.3666992,0.9296875,-0.02832031,-0.05224609,-0.3857422,-0.08300781
3886,-17.25,10.625,-178.3125,-0.3588867,0.3081055,0.2709961,-0.03417969,-0.3867188,-0.08837891
3890,67.625,23.8125,-188.8125,-0.5488281,0.4086914,0.2402344,-0.02099609,-0.3867188,-0.08691406
3894,94.4375,12.5625,-201.8125,-0.7695313,0.9335938,-0.05517578,-0.003417969,-0.3916016,-0.08154297
3898,63.375,-3.25,-211.4375,-0.78125,1.259766,-0.2397461,0.01660156,-0.3916016,-0.07177734
3902,22.6875,1.5625,-196.625,-0.8007813,1.162598,-0.2324219,0.02978516,-0.3916016,-0.06640625
3906,5.6875,16.6875,-178.125,-0.7543945,0.9335938,-0.1630859,0.05078125,-0.3867188,-0.06640625
3910,-4.375,28.125,-180,-0.7695313,0.8325195,-0.1323242,0.06884766,-0.3857422,-0.06542969
3914,-22.9375,30.875,-230.75,-0.7734375,0.4711914,-0.2285156,0.08056641,-0.3833008,-0.06640625
3918,-28.25,21.25,-263.75,-0.9208984,0.3818359,-0.1245117,0.1044922,-0.3769531,-0.06787109
3922,-19.75,11.6875,-273.375,-1.029297,0.2573242,-0.06298828,0.1293945,-0.3657227,-0.06640625
3926,-6.25,19.625,-281.125,-1.099121,0.3935547,0.001953125,0.1450195,-0.3569336,-0.06787109
3930,2,27.875,-271.125,-1.289063,0.5175781,-0.005371094,0.1713867,-0.3432617,-0.06933594
3934,6.125,25.5625,-265.0625,-1.479004,0.4946289,0.005859375,0.1914063,-0.328125,-0.06640625
3938,10.8125,14.75,-255.25,-1.525391,0.5175781,0.01367188,0.2070313,-0.3168945,-0.06542969
3942,12.9375,4.0625,-242.125,-1.513672,0.7197266,0.005859375,0.2260742,-0.2993164,-0.06396484
3946,9.4375,-3.9375,-234.9375,-1.498047,0.8051758,0.05566406,0.2426758,-0.2817383,-0.06396484
3950,15,-6.75,-214.6875,-1.494141,0.855957,0.08251953,0.2509766,-0.2705078,-0.06396484
3954,25.5625,-9.0625,-182.6875,-1.498047,0.9453125,0.09814453,0.2626953,-0.2543945,-0.06396484
3958,30.5625,-4.9375,-146.125,-1.37793,1.038574,0.09814453,0.2724609,-0.2368164,-0.06396484
3962,28.4375,0.375,-112.125,-1.335449,1.088867,0.06347656,0.2758789,-0.2304688,-0.06103516
3966,15.0625,3.75,-83.9375,-1.253906,1.131836,0.05566406,0.2792969,-0.2207031,-0.06103516
3970,-1.875,3,-60.375,-1.234863,1.057617,0.1132813,0.2841797,-0.2167969,-0.05859375
3974,-5.3125,3.375,-34.375,-1.168945,0.9257813,0.2329102,0.2856445,-0.2119141,-0.05957031
3978,2.0625,3.3125,-18.6875,-1.129883,0.855957,0.2905273,0.2856445,-0.2104492,-0.05957031
3982,13.75,-2.875,-8.6875,-1.12207,0.8325195,0.3056641,0.2880859,-0.2094727,-0.05712891
3986,27.1875,-8.875,2.25,-1.103027,0.8325195,0.2480469,0.2880859,-0.2080078,-0.05957031
3990,38.25,-10.75,17.125,-1.103027,0.8632813,0.1518555,0.2866211,-0.2080078,-0.05859375
3994,33.6875,-13.375,31.25,-1.118652,0.9296875,0.009765625,0.2856445,-0.2104492,-0.05859375
3998,17.4375,-16.25,44.25,-1.087402,0.9140625,-0.08984375,0.2856445,-0.2128906,-0.05712891
4002,5.5625,-14.375,55.75,-1.044922,0.8208008,-0.08984375,0.2832031,-0.2182617,-0.05859375
4006,-3.5625,-10.25,65.4375,-1.025391,0.7314453,-0.08203125,0.2792969,-0.2231445,-0.05712891
4010,-9.25,-7.6875,73.375,-1.033203,0.6616211,-0.04394531,0.2773438,-0.2280273,-0.05957031
4015,-10.875,-8.75,83.75,-1.07959,0.5991211,-0.009277344,0.2749023,-0.234375,-0.06103516
4019,-9.6875,-9.6875,91.8125,-1.044922,0.5566406,-0.005371094,0.2700195,-0.2416992,-0.0625
4023,-12.375,-7.3125,91.6875,-1.060547,0.5878906,-0.05517578,0.2666016,-0.2495117,-0.0625
4027,-21.5,-11.8125,90.25,-1.180664,0.6538086,-0.07080078,0.2626953,-0.2558594,-0.06396484
4031,-31.9375,-14.5,97.5625,-1.223145,0.6655273,-0.04736328,0.2568359,-0.2631836,-0.06640625
4035,-35.5,-13.5625,107.1875,-1.242188,0.6694336,-0.01660156,0.2509766,-0.2670898,-0.06787109
4039,-30.5,-10.875,121.125,-1.261719,0.6303711,0.05957031,0.2460938,-0.2768555,-0.07080078
4043,-13.75,-2.9375,137,-1.269531,0.6694336,0.1171875,0.237793,-0.2856445,-0.07324219
4047,-5.8125,-3.8125,153.5625,-1.358887,0.8012695,0.09033203,0.2319336,-0.2919922,-0.07470703
4051,-9.75,-8.6875,170.3125,-1.358887,0.8598633,0.05957031,0.21875,-0.3041992,-0.07763672
4055,-13.9375,-12.5,183.1875,-1.32373,0.8520508,0.02880859,0.2045898,-0.3154297,-0.07617188
4059,-16.1875,-13.4375,193.4375,-1.285156,0.8364258,0.009765625,0.1972656,-0.3242188,-0.07861328
4063,-14.0625,-9.0625,206.5625,-1.246094,0.809082,0.001953125,0.1821289,-0.3354492,-0.08007813
4067,-12.75,-1.3125,216.3125,-1.203613,0.793457,0.02099609,0.1640625,-0.3442383,-0.07861328
4071,-12.4375,-2.5,220.8125,-1.176758,0.7548828,-0.01660156,0.1508789,-0.3544922,-0.08007813
4075,-8.0625,6.9375,225.4375,-1.044922,0.7275391,0.04785156,0.1308594,-0.3657227,-0.08544922
4079,-9.75,11.0625,228,-1.001953,0.7666016,0.01367188,0.1118164,-0.371582,-0.08300781
4083,-20.3125,9.1875,222.0625,-0.9594727,0.8051758,0.02490234,0.09619141,-0.3769531,-0.08447266
4087,-29.125,-0.8125,214,-0.9711914,0.824707,0.04443359,0.07617188,-0.3818359,-0.08691406
4091,-25.8125,-5.8125,217.3125,-0.9169922,0.7431641,0.1210938,0.0546875,-0.3857422,-0.09082031
4095,-7.6875,-0.6875,226.4375,-0.8393555,0.7275391,0.1328125,0.0390625,-0.3857422,-0.09228516
4099,-5.3125,3.625,228,-0.7543945,0.8208008,0.03662109,0.01757813,-0.3867188,-0.09375
4103,-16.1875,-0.375,221,-0.7231445,0.8632813,-0.02832031,-0.004394531,-0.3881836,-0.09521484
4107,-26.125,-2.875,212,-0.6030273,0.777832,0.005859375,-0.01855469,-0.3842773,-0.09375
4111,-12.125,2.3125,200.25,-0.5756836,0.7666016,0.04443359,-0.0390625,-0.3833008,-0.09667969
4115,-3.25,8.1875,201.375,-0.5102539,0.8051758,0.02490234,-0.05908203,-0.3769531,-0.09765625
4119,-2.625,10.9375,197.625,-0.5214844,0.90625,0.005859375,-0.06982422,-0.3754883,-0.09912109
4123,-7.625,11.25,198.75,-0.4482422,0.9296875,0.02490234,-0.08886719,-0.3691406,-0.1005859
4127,-11.8125,12.8125,200.125,-0.4248047,0.9296875,0.02099609,-0.1069336,-0.3632813,-0.1020508
4131,-16.875,14.25,204.25,-0.3862305,0.9296875,0.03271484,-0.1210938,-0.3579102,-0.1020508
4135,-19.625,14.3125,210.0625,-0.3320313,0.8520508,0.04052734,-0.1376953,-0.3505859,-0.1035156
4139,-4.875,19.5625,214.3125,-0.2890625,0.7705078,0.1289063,-0.1557617,-0.3369141,-0.105957
4144,6,20.625,222.1875,-0.2426758,0.8208008,0.08642578,-0.1708984,-0.3320313,-0.105957
4148,4.6875,23.0625,224.0625,-0.2192383,0.9375,0.009765625,-0.1865234,-0.3193359,-0.105957
4152,-6.75,22.125,224.8125,-0.2119141,1.034668,-0.03613281,-0.203125,-0.3032227,-0.1088867
4156,-28.9375,21.8125,231.1875,-0.1264648,1.01123,-0.04736328,-0.2128906,-0.2929688,-0.1074219
4160,-42.8125,16.8125,230.9375,-0.1650391,0.9492188,-0.03613281,-0.2294922,-0.2768555,-0.1113281
4164,-52.25,6.8125,232,-0.06054688,0.809082,0.05175781,-0.2446289,-0.2543945,-0.1166992
4168,-46.625,7.0625,234.1875,0.0009765625,0.7197266,0.144043,-0.2553711,-0.2441406,-0.1196289
4172,-37.5625,10.125,248.875,-0.02587891,0.6962891,0.1171875,-0.2651367,-0.2216797,-0.1181641
4176,-32,12.3125,264.9375,0.03955078,0.5913086,0.1210938,-0.2783203,-0.1982422,-0.1225586
4180,-26.4375,14.875,274.1875,0.1210938,0.4282227,0.125,-0.2851563,-0.1782227,-0.1264648
4184,-35.125,0.9375,267.6875,0.1831055,0.237793,0.144043,-0.2949219,-0.1533203,-0.1264648
4188,-43.0625,-15.5625,252.75,0.3032227,-0.04882813,0.1479492,-0.3032227,-0.1254883,-0.1264648
4192,-74.5625,-20.4375,255.5,0.2875977,-0.402832,0.06738281,-0.3081055,-0.109375,-0.125
4196,-130.5625,-32.5,251.1875,0.574707,0.5136719,0.09033203,-0.3115234,-0.07958984,-0.125
4200,-171.5,-52.75,237.375,0.8110352,-2.197754,0.144043,-0.3149414,-0.04931641,-0.1181641
4204,-130.75,-46,134.625,1.798828,-3.099121,0.4482422,-0.3164063,-0.03320313,-0.1181641
4208,-15.875,4.9375,-20.375,2.03125,-2.908691,0.675293,-0.3164063,-0.01953125,-0.112793
4212,85.3125,22.375,-130.8125,1.097656,-1.83252,0.4941406,-0.3164063,-0.02685547,-0.1142578
4216,120.4375,11,-173.5,0.5859375,-0.7290039,0.1904297,-0.3164063,-0.03808594,-0.1181641
4220,104.5625,-2.375,-171.3125,0.3110352,0.0009765625,-0.06298828,-0.3164063,-0.06054688,-0.1166992
4224,51.125,-24.625,-152.5625,0.3535156,0.3310547,-0.2089844,-0.3149414,-0.07958984,-0.1166992
4228,-1.0625,-28.9375,-152,0.6635742,0.15625,-0.1245117,-0.3139648,-0.08935547,-0.112793
4232,-17.4375,-22.5625,-165.6875,0.7373047,-0.09960938,0.03271484,-0.3125,-0.1054688,-0.1098633
4236,-5.125,-18.625,-191.0625,0.6948242,-0.2202148,0.1865234,-0.3115234,-0.1206055,-0.1098633
4240,17.5625,-16.6875,-210.625,0.5200195,-0.1655273,0.2329102,-0.3056641,-0.1367188,-0.1074219
4244,36.375,-15.25,-218.5625,0.4038086,0.02050781,0.2094727,-0.3007813,-0.1567383,-0.1088867
4248,51.1875,-6.25,-213.25,0.3417969,0.2338867,0.140625,-0.2924805,-0.1791992,-0.105957
4252,51.8125,13.4375,-196.75,0.2954102,0.4243164,0.07128906,-0.2866211,-0.1943359,-0.1035156
4256,47.625,26.1875,-185.5625,0.1870117,0.5332031,0.06347656,-0.2744141,-0.2128906,-0.1044922
4260,37.6875,13.8125,-191.8125,0.05517578,0.6499023,0.09423828,-0.2651367,-0.2294922,-0.1020508
4264,36.3125,-1.125,-204,0.1054688,0.8012695,0.07910156,-0.2578125,-0.2431641,-0.1020508
4268,31.625,-1.25,-202.3125,-0.01025391,1.061523,0.009765625,-0.2470703,-0.2592773,-0.1005859
4273,2.625,-4.4375,-180.125,-0.1264648,1.368652,-0.112793,-0.2329102,-0.2753906,-0.09765625
4277,-31.0625,-6.375,-154.9375,-0.05664063,1.353027,-0.08203125,-0.2255859,-0.2856445,-0.09912109
4281,-65.75,-6.6875,-147,-0.01416016,1.356934,-0.06689453,-0.2163086,-0.2929688,-0.1020508
4285,-100.125,-22.0625,-160.125,0.02441406,1.228516,-0.04736328,-0.2045898,-0.3017578,-0.1074219
4289,-70.375,-16.125,-160.1875,0.140625,0.6845703,0.3671875,-0.1972656,-0.3081055,-0.1098633
4293,16.8125,17,-143.5,0.08251953,0.6225586,0.4482422,-0.184082,-0.3154297,-0.1157227
4297,54.4375,26.0625,-124.4375,-0.09130859,1.034668,0.1557617,-0.1733398,-0.3256836,-0.112793
4301,25.875,24.4375,-114,-0.02197266,1.283203,-0.06689453,-0.1650391,-0.3320313,-0.1074219
4305,-18.125,23.9375,-118.5625,0.03955078,1.069336,0.02880859,-0.1557617,-0.3369141,-0.1113281
4309,-13.6875,17.5625,-137.4375,-0.002441406,0.6845703,0.3212891,-0.1435547,-0.3408203,-0.112793
4313,28.6875,9.5625,-158.9375,-0.04101563,0.5991211,0.3945313,-0.1342773,-0.3466797,-0.1113281
4317,63.875,7.3125,-168.125,-0.1728516,0.8442383,0.2558594,-0.1201172,-0.3544922,-0.1098633
4321,54.8125,2.8125,-159.625,-0.328125,1.236328,0.03271484,-0.1030273,-0.3632813,-0.1044922
4325,25.5,4.375,-137.25,-0.2426758,1.162598,0.04052734,-0.09619141,-0.3681641,-0.1035156
4329,24.6875,22.1875,-125.0625,-0.1381836,0.9101563,0.1210938,-0.08203125,-0.3730469,-0.09912109
4333,45.4375,38.5625,-122.5625,-0.2119141,0.8168945,0.1328125,-0.07128906,-0.3745117,-0.09765625
4337,74.375,36.1875,-132.1875,-0.362793,0.875,0.1635742,-0.06152344,-0.3793945,-0.09521484
4341,77.0625,15.125,-149.625,-0.4711914,1.081055,0.05175781,-0.04833984,-0.3842773,-0.08837891
4345,67.125,-1.875,-162.5,-0.4985352,1.178223,0.02099609,-0.03173828,-0.3891602,-0.08007813
4349,39.25,-14.25,-155,-0.6186523,1.267578,-0.04736328,-0.0234375,-0.3891602,-0.07617188
4353,14.3125,-12.25,-133.25,-0.5253906,1.092773,-0.01660156,-0.005859375,-0.3891602,-0.07324219
4357,10.1875,-2.25,-123,-0.4287109,0.8051758,0.04052734,0.003417969,-0.390625,-0.07324219
4361,21.25,8.5,-127.3125,-0.4091797,0.6655273,0.01708984,0.01269531,-0.3916016,-0.07080078
4365,29.875,10.9375,-145.6875,-0.4555664,0.6538086,-0.02832031,0.02490234,-0.390625,-0.06787109
4369,28.8125,5.9375,-169.1875,-0.5722656,0.7158203,-0.07470703,0.04248047,-0.3891602,-0.06396484
4373,28.625,1.5625,-180.1875,-0.6806641,0.6923828,-0.05908203,0.0546875,-0.3867188,-0.0625
4377,31.375,18.625,-171.1875,-0.7348633,0.7587891,-0.112793,0.07128906,-0.3842773,-0.06103516
4381,17.75,33.9375,-160.5625,-0.847168,0.8168945,-0.1938477,0.08691406,-0.3803711,-0.05566406
4385,-1.125,32.625,-164.625,-0.9013672,0.7392578,-0.1899414,0.09765625,-0.3793945,-0.05419922
4389,-3.625,22.0625,-178,-0.9868164,0.5761719,-0.1591797,0.1152344,-0.371582,-0.05419922
4393,-1.5625,13.6875,-197.625,-0.9907227,0.5683594,-0.1860352,0.1318359,-0.3657227,-0.05273438
4397,1.5,10.1875,-213.6875,-1.063965,0.6108398,-0.2016602,0.1450195,-0.3618164,-0.05273438
4402,2.125,10.875,-213.9375,-1.203613,0.7041016,-0.1782227,0.1630859,-0.3520508,-0.05419922
4406,4.5,11.1875,-200.0625,-1.265625,0.7817383,-0.1435547,0.1821289,-0.3378906,-0.05175781
4410,11,10.5,-182.5,-1.211426,0.8481445,-0.1245117,0.1904297,-0.3330078,-0.05175781
4414,12.375,13.5,-168,-1.157227,0.9453125,-0.1362305,0.2055664,-0.3208008,-0.05175781
4418,4.375,11.8125,-154.75,-1.15332,1.073242,-0.1435547,0.2163086,-0.3095703,-0.04882813
4422,-6.5625,4.5,-137.5625,-1.180664,1.092773,-0.04003906,0.2246094,-0.3017578,-0.04882813
4426,-2.75,1.25,-114.75,-1.133789,1.04248,0.06738281,0.2329102,-0.2929688,-0.04882813
4430,10.125,0.0625,-91.375,-1.103027,0.987793,0.1171875,0.2392578,-0.2856445,-0.04882813
4434,19.75,-2.25,-73.375,-1.060547,1.026855,0.1171875,0.2451172,-0.2792969,-0.05029297
4438,14.0625,-6.8125,-62.6875,-1.009766,1.081055,0.05957031,0.2485352,-0.2744141,-0.04736328
4442,9.0625,-10.3125,-51.5625,-0.9633789,0.9956055,0.105957,0.253418,-0.2695313,-0.04736328
4446,16.6875,-5.8125,-37.25,-0.9287109,0.9760742,0.159668,0.2558594,-0.265625,-0.04638672
4450,18.5,0.25,-20.625,-0.9477539,1.081055,0.144043,0.2558594,-0.2641602,-0.04736328
4454,8.4375,-3.125,-7.875,-0.9633789,1.09668,0.125,0.2558594,-0.2641602,-0.04736328
4458,6.125,-6.25,4.875,-0.9516602,1.015137,0.140625,0.2568359,-0.2617188,-0.04736328
4462,7.25,-8.0625,18.5625,-1.001953,0.9956055,0.1328125,0.2583008,-0.2641602,-0.04638672
4466,9.5625,-12.5,33.4375,-1.017578,0.9453125,0.09033203,0.2558594,-0.2680664,-0.04736328
4470,11.0625,-15.0625,46,-1.001953,0.8945313,0.02099609,0.2543945,-0.2680664,-0.04638672
4474,15.625,-15.9375,57.25,-0.9946289,0.8598633,0.001953125,0.2509766,-0.2719727,-0.04736328
4478,14.9375,-14.6875,67.0625,-0.9946289,0.875,-0.04736328,0.2460938,-0.2768555,-0.04736328
4482,11.3125,-16.25,74.9375,-1.017578,0.8789063,-0.07470703,0.2412109,-0.2807617,-0.04638672
4486,6.25,-15.9375,82.625,-0.9907227,0.8984375,-0.07861328,0.237793,-0.2866211,-0.04882813
4490,5,-14.4375,87.25,-1.063965,0.9492188,-0.05517578,0.2329102,-0.2944336,-0.04736328
4494,8.375,-17,98.25,-1.141602,1.034668,-0.05517578,0.2294922,-0.2993164,-0.04882813
4498,10.875,-16,119.625,-1.261719,1.108398,-0.07861328,0.2202148,-0.3066406,-0.04882813
4502,14.1875,-10.25,153.75,-1.285156,1.131836,-0.128418,0.2104492,-0.3154297,-0.04882813
4506,12.1875,7.5625,185.6875,-1.23877,1.116211,-0.1708984,0.203125,-0.3217773,-0.04882813
4510,2.8125,14.5625,203.6875,-1.261719,1.12793,-0.2055664,0.1879883,-0.3344727,-0.04638672
4514,-12.5625,15.5625,208.9375,-1.227051,1.108398,-0.1782227,0.1723633,-0.3457031,-0.04638672
4518,-23.3125,14.9375,210.5,-1.23877,1.069336,-0.1245117,0.1591797,-0.3520508,-0.04638672
4522,-31.375,14.9375,215.1875,-1.223145,1.022949,-0.1206055,0.1401367,-0.3632813,-0.04882813
4526,-28.0625,14.5625,225.4375,-1.191895,0.875,-0.05517578,0.1210938,-0.3691406,-0.05029297
4531,-19.5625,19.6875,234.6875,-1.114746,0.8828125,-0.02441406,0.1069336,-0.3779297,-0.05175781
4535,-16.1875,21.375,239,-1.037109,0.8789063,-0.03222656,0.08300781,-0.3833008,-0.05273438
4539,-22.0625,21.375,236.5,-0.9399414,0.8867188,-0.04736328,0.06152344,-0.3891602,-0.05566406
4543,-29.9375,19,228.9375,-0.8432617,0.8286133,-0.04003906,0.04492188,-0.390625,-0.05712891
4547,-26.125,17.0625,212.5625,-0.765625,0.7856445,-0.02832031,0.0234375,-0.3930664,-0.05859375
4551,-22.8125,19.5,201,-0.7387695,0.8129883,-0.03222656,0.0009765625,-0.3930664,-0.05957031
4555,-13.5625,10.3125,204.625,-0.8510742,0.8325195,-0.04394531,-0.01171875,-0.3930664,-0.0625
4559,-5.3125,12.0625,217.4375,-0.6767578,0.8325195,-0.05517578,-0.02929688,-0.3891602,-0.06542969
4563,-9.8125,23.5,224,-0.5527344,0.9023438,-0.1474609,-0.05224609,-0.3857422,-0.06640625
4567,-33,25.125,215.1875,-0.5024414,0.921875,-0.2016602,-0.06494141,-0.3833008,-0.06787109
4571,-52.375,18.9375,200.875,-0.4443359,0.8012695,-0.1206055,-0.08642578,-0.3745117,-0.07177734
4575,-46.75,15,188.3125,-0.4287109,0.6923828,-0.03613281,-0.1044922,-0.3691406,-0.07617188
4579,-28.5,13.375,188.625,-0.4130859,0.6538086,0.04785156,-0.1152344,-0.3642578,-0.08007813
4583,-9.25,12.1875,192.25,-0.3393555,0.7431641,-0.01660156,-0.1328125,-0.3569336,-0.08300781
4587,-7.25,19.75,193.1875,-0.2192383,0.8789063,-0.06298828,-0.1508789,-0.3457031,-0.08300781
4591,-24.1875,15.5,182.75,-0.2661133,0.9956055,-0.1323242,-0.1616211,-0.3417969,-0.08447266
4595,-47.9375,2.125,165.5625,-0.2231445,0.9838867,-0.07470703,-0.1748047,-0.3291016,-0.08837891
4599,-48.75,-7.4375,152.3125,-0.230957,0.8984375,0.09814453,-0.1889648,-0.3178711,-0.09228516
4603,-21.5625,-15.625,161.625,-0.3203125,0.9023438,0.05957031,-0.1982422,-0.3120117,-0.09375
4607,8.125,7.1875,201.5625,-0.1420898,1.084961,-0.01318359,-0.2114258,-0.3007813,-0.09521484
4611,3.6875,31.8125,234.6875,-0.1420898,1.255859,-0.1821289,-0.2280273,-0.2856445,-0.09521484
4615,-33.375,26.8125,243.75,-0.1420898,1.232422,-0.2514648,-0.2363281,-0.2744141,-0.09521484
4619,-68.0625,20.9375,239.3125,-0.006347656,0.9956055,-0.2016602,-0.2519531,-0.2519531,-0.1005859
4623,-69.4375,22.375,238.1875,0.05517578,0.6845703,-0.02050781,-0.2651367,-0.2304688,-0.1044922
4627,-35.6875,32.75,237.125,0.1132813,0.5214844,0.1479492,-0.2734375,-0.2128906,-0.1074219
4631,6.125,47.8125,260.125,-0.02587891,0.6420898,0.1748047,-0.2851563,-0.1904297,-0.112793
4635,-3.375,51.9375,286.125,-0.01416016,0.7080078,0.08251953,-0.293457,-0.1679688,-0.1166992
4639,-69.125,38.125,295.5,0.004882813,0.4516602,0.04443359,-0.2983398,-0.1494141,-0.1196289
4643,-148.1875,6.0625,279.5,0.1171875,-0.2822266,0.1826172,-0.3056641,-0.1166992,-0.1225586
4647,-198.9375,-22.875,251.875,0.3378906,-2.197754,0.3598633,-0.3105469,-0.08447266,-0.1264648
4651,-165.0625,-30.875,263.5625,0.7954102,-3.033203,0.5214844,-0.3139648,-0.06445313,-0.125
4655,-83.5625,29.75,214.25,1.856934,-3.712891,0.9404297,-0.3139648,-0.03320313,-0.1235352
4660,9.5,20.375,6.1875,1.826172,-3.168945,0.6328125,-0.3115234,-0.015625,-0.1264648
4664,127.5,-15.5,-159.0625,1.155762,-2.279297,0.6020508,-0.3139648,-0.02197266,-0.1279297
4668,216.4375,-6.0625,-184.4375,0.5317383,-1.144531,0.2519531,-0.3125,-0.04589844,-0.1264648
4672,228.3125,-6.8125,-159.375,0.2758789,0.09814453,-0.2397461,-0.3125,-0.07080078,-0.1264648
4676,147.9375,-28.625,-142.4375,0.3496094,0.6845703,-0.5517578,-0.3125,-0.08300781,-0.1225586
4680,40.125,-48.3125,-155.125,0.574707,0.6381836,-0.4936523,-0.3115234,-0.1020508,-0.1196289
4684,-11,-43.5,-167.25,0.7177734,0.1992188,-0.1938477,-0.309082,-0.1196289,-0.1157227
4688,-0.125,-29.625,-178.5,0.6674805,-0.08789063,0.05957031,-0.3066406,-0.1293945,-0.1142578
4692,40.4375,-18.75,-187.6875,0.5629883,-0.06054688,0.1367188,-0.3032227,-0.1494141,-0.1088867
4696,63.4375,-8.9375,-191.25,0.4428711,0.2338867,0.01708984,-0.2958984,-0.1679688,-0.1074219
4700,47.125,-12.9375,-190.8125,0.2490234,0.5683594,-0.1206055,-0.2924805,-0.1831055,-0.1035156
4704,9.375,-20.0625,-186.5625,0.2915039,0.6030273,-0.07861328,-0.2851563,-0.2016602,-0.1020508
4708,-2.6875,-10.9375,-181.0625,0.2915039,0.4516602,0.04443359,-0.2758789,-0.2158203,-0.1005859
4712,10.75,-3.875,-182.625,0.2915039,0.3388672,0.140625,-0.2700195,-0.2280273,-0.1005859
4716,34.75,0.6875,-191.1875,0.2294922,0.3896484,0.1210938,-0.2592773,-0.2456055,-0.09912109
4720,43.1875,-2.5625,-201.75,0.09765625,0.6108398,0.005859375,-0.2470703,-0.2607422,-0.09765625
4724,25.8125,-13,-210.75,0.01660156,0.8364258,-0.05517578,-0.2387695,-0.2719727,-0.09375
4728,11.875,-14.0625,-209.125,-0.03710938,0.8984375,-0.02050781,-0.2246094,-0.2895508,-0.09228516
4732,14.75,-5.125,-196.5,-0.09130859,0.8789063,0.04785156,-0.2104492,-0.3017578,-0.09228516
4736,50.3125,4.375,-181.4375,-0.1303711,0.7856445,0.1674805,-0.199707,-0.3120117,-0.08984375
4740,72.25,2.6875,-181.5625,-0.1884766,1.069336,-0.009277344,-0.1855469,-0.3242188,-0.08691406
4744,33.375,-20.375,-196,-0.2504883,1.388184,-0.2246094,-0.1708984,-0.3369141,-0.08154297
4748,-21.4375,-39.5,-206.625,-0.2041016,1.232422,-0.1054688,-0.1567383,-0.3432617,-0.08007813
4752,-20.0625,-31.875,-201.375,-0.1728516,0.9257813,0.09423828,-0.1401367,-0.3530273,-0.08007813
4756,23.875,-18.5,-183.375,-0.28125,0.7470703,0.1943359,-0.1245117,-0.3618164,-0.07861328
4760,67.8125,-6.5,-168.4375,-0.3354492,0.987793,0.01367188,-0.1113281,-0.3681641,-0.07617188
4764,52.5,-13.5,-166.625,-0.3901367,1.306641,-0.2055664,-0.09716797,-0.3730469,-0.06933594
4768,11.5625,-27.6875,-171.5625,-0.3862305,1.271484,-0.1743164,-0.08203125,-0.3793945,-0.06787109
4772,-13.625,-31.6875,-171.5,-0.3549805,1.015137,-0.03613281,-0.06884766,-0.3833008,-0.06542969
4776,1.0625,-27.3125,-171.5,-0.362793,0.7353516,0.1020508,-0.05224609,-0.3857422,-0.06640625
4780,38,-18.625,-172.1875,-0.4248047,0.7080078,0.09423828,-0.03662109,-0.3891602,-0.06396484
4784,74.8125,-18.1875,-178.5625,-0.5449219,0.8481445,0.02099609,-0.02587891,-0.390625,-0.06103516
4789,77.75,-21.5625,-183.6875,-0.6923828,1.306641,-0.2246094,-0.006835938,-0.3930664,-0.05273438
4793,20.875,-36.125,-173.3125,-0.78125,1.613281,-0.3745117,0.01074219,-0.3955078,-0.04736328
4797,-39.75,-39.125,-151.375,-0.6611328,1.356934,-0.2744141,0.01904297,-0.3945313,-0.04736328
4801,-68.8125,-27.625,-136,-0.5566406,0.956543,-0.1323242,0.03564453,-0.3916016,-0.05273438
4805,-52.0625,-10.3125,-133.125,-0.4711914,0.5097656,0.05566406,0.04638672,-0.3916016,-0.05957031
4809,4.25,4.5625,-150.375,-0.5371094,0.3857422,0.1635742,0.05712891,-0.3891602,-0.05859375
4813,54.0625,-0.5625,-174.3125,-0.7929688,0.6694336,0.08251953,0.07128906,-0.3867188,-0.05859375
4817,64.0625,-20,-188.375,-0.9711914,1.092773,-0.03222656,0.08691406,-0.3833008,-0.05175781
4821,39.3125,-32.5625,-183.9375,-1.071777,1.291016,-0.1015625,0.1010742,-0.3779297,-0.04882813
4825,12.375,-36.375,-156.4375,-1.060547,1.209473,-0.09765625,0.1166992,-0.371582,-0.04736328
4829,-2.125,-27.625,-125.6875,-0.9130859,1.003418,-0.112793,0.1308594,-0.3666992,-0.04736328
4833,-12.625,-19.3125,-115.625,-0.8046875,0.8364258,-0.1782227,0.1391602,-0.3632813,-0.05029297
4837,-25.5,-14.3125,-124,-0.6962891,0.7158203,-0.1938477,0.1474609,-0.3569336,-0.05029297
4841,-33.375,-6.625,-140.5625,-0.6767578,0.6030273,-0.1513672,0.1591797,-0.3520508,-0.05273438
4845,-37.0625,2.625,-156.375,-0.7773438,0.5683594,-0.07080078,0.1689453,-0.3466797,-0.05712891
4849,-34.0625,9.3125,-164.1875,-0.9248047,0.4985352,0.04443359,0.1821289,-0.3369141,-0.05859375
4853,-13.9375,10.3125,-163,-1.106934,0.4052734,0.1674805,0.1948242,-0.328125,-0.06103516
4857,15.25,0.1875,-153.1875,-1.187988,0.4360352,0.1713867,0.203125,-0.3217773,-0.0625
4861,27.875,-11.625,-151.4375,-1.187988,0.5683594,0.08642578,0.215332,-0.3105469,-0.0625
4865,31.375,-20.0625,-153.5,-1.133789,0.6577148,0.005859375,0.2260742,-0.2993164,-0.05712891
4869,29.875,-24.375,-154.125,-1.125977,0.7275391,-0.07470703,0.2319336,-0.2929688,-0.05712891
4873,25.1875,-21.875,-148.3125,-1.11084,0.8364258,-0.1166992,0.2412109,-0.2832031,-0.05859375
4877,18.75,-13.4375,-130,-1.12207,0.9453125,-0.1206055,0.2509766,-0.2719727,-0.05712891
4881,11.6875,-5.75,-102.0625,-1.15332,1.030762,-0.08984375,0.2543945,-0.2631836,-0.05859375
4885,2.5625,-0.625,-71.6875,-1.137695,1.061523,-0.04003906,0.2602539,-0.2558594,-0.05859375
4889,-1.8125,0.0625,-46,-1.118652,1.007324,0.009765625,0.2641602,-0.2519531,-0.05859375
4893,1.9375,1.0625,-24.0625,-1.044922,0.9492188,0.03271484,0.2651367,-0.2495117,-0.05859375
4897,3.375,5,-6.75,-1.009766,0.9296875,0.03271484,0.2666016,-0.2470703,-0.05712891
4901,-1.0625,3.5625,7.375,-1.021484,0.890625,0.01367188,0.2666016,-0.2456055,-0.05859375
4905,-5,3.0625,20.1875,-0.9946289,0.8168945,0.03271484,0.2666016,-0.2495117,-0.05566406
4909,-10.1875,3.6875,26.9375,-0.9555664,0.7895508,0.03271484,0.2666016,-0.2495117,-0.05859375
4913,-15.75,0.6875,25.8125,-0.9672852,0.7666016,0.04785156,0.2626953,-0.2519531,-0.05712891
4918,-13.875,-4.3125,26.1875,-1.017578,0.7236328,0.09423828,0.2641602,-0.2543945,-0.05957031
4922,-0.3125,-5.9375,36.5625,-1.044922,0.7158203,0.1328125,0.2617188,-0.2558594,-0.05957031
4926,16.25,-5.1875,50.3125,-1.071777,0.7626953,0.1210938,0.2602539,-0.2592773,-0.05957031
4930,28.1875,-8.1875,63.9375,-1.106934,0.8286133,0.09033203,0.2568359,-0.2641602,-0.05957031
4934,36.4375,-10.125,77.8125,-1.099121,0.90625,0.04785156,0.253418,-0.2695313,-0.05859375
4938,37,-10,91.375,-1.12207,0.9760742,-0.02050781,0.2485352,-0.2768555,-0.05566406
4942,28.625,-7.5,107.375,-1.133789,1.034668,-0.08203125,0.2402344,-0.2792969,-0.05566406
4946,14.4375,-3.875,125.25,-1.157227,1.038574,-0.1323242,0.2368164,-0.2895508,-0.05419922
4950,-0.5625,1.5625,142.9375,-1.165039,1.019043,-0.1166992,0.2285156,-0.2983398,-0.05273438
4954,-9.6875,6.5625,157.5625,-1.172852,0.9799805,-0.0859375,0.2202148,-0.3081055,-0.05273438
4958,-13.5,9.1875,169.6875,-1.20752,0.9335938,-0.04394531,0.2094727,-0.3168945,-0.05419922
4962,-15.4375,10.5,179.25,-1.199707,0.90625,-0.02050781,0.1948242,-0.328125,-0.05419922
4966,-17.3125,10.8125,186.875,-1.172852,0.8710938,-0.03222656,0.1879883,-0.3369141,-0.05566406
4970,-17.75,11.125,194.875,-1.165039,0.8442383,-0.02050781,0.1699219,-0.3457031,-0.05566406
4974,-19.75,9,195,-1.141602,0.8481445,-0.02832031,0.1523438,-0.3569336,-0.05859375
4978,-18.625,3.125,191.75,-1.087402,0.8520508,-0.01660156,0.1425781,-0.3603516,-0.05712891
4982,-13.5625,5.9375,192,-1.056641,0.8481445,-0.001464844,0.125,-0.3691406,-0.05859375
4986,-8.4375,11,195.125,-1.025391,0.9140625,-0.02832031,0.1069336,-0.3754883,-0.06103516
4990,-11.75,10.625,198.5625,-1.106934,1.01123,-0.06689453,0.09375,-0.3803711,-0.05957031
4994,-21.1875,8.9375,209.3125,-1.041016,1.030762,-0.0859375,0.07617188,-0.3842773,-0.0625
4998,-30.8125,12.5625,219.5625,-0.9907227,0.9799805,-0.08984375,0.05322266,-0.3881836,-0.06542969
5002,-35.4375,12.625,220.5625,-0.9130859,0.9257813,-0.04003906,0.04052734,-0.3891602,-0.06640625
5006,-33.1875,9,214.3125,-0.8745117,0.8598633,0.005859375,0.01660156,-0.3916016,-0.07177734
5010,-24.8125,6.1875,211.25,-0.8085938,0.824707,0.01708984,-0.003417969,-0.390625,-0.07324219
5014,-23.0625,3.4375,209.5625,-0.7348633,0.8671875,-0.05126953,-0.01855469,-0.3881836,-0.07470703
5018,-31.8125,2.6875,209.1875,-0.6884766,0.9179688,-0.09375,-0.0390625,-0.3867188,-0.07763672
5022,-48.5625,3.6875,215.9375,-0.6108398,0.890625,-0.128418,-0.05908203,-0.3833008,-0.08154297
5026,-56.75,5.9375,216.25,-0.5024414,0.7470703,-0.1015625,-0.07226563,-0.3793945,-0.08544922
5030,-50.4375,8.75,210.9375,-0.4130859,0.5952148,-0.02441406,-0.09375,-0.371582,-0.09082031
5034,-34.25,8.3125,199.6875,-0.3164063,0.5136719,0.04443359,-0.1113281,-0.3632813,-0.09375
5038,-21.5625,10.375,186.4375,-0.2543945,0.5644531,0.03662109,-0.1245117,-0.3569336,-0.09667969
5042,-19.25,14.5625,177.6875,-0.2192383,0.6811523,0.001953125,-0.1411133,-0.3505859,-0.09912109
5047,-31.125,17,177.4375,-0.2119141,0.777832,-0.02441406,-0.1542969,-0.3408203,-0.1020508
5051,-39,18,182.3125,-0.2119141,0.7275391,0.05175781,-0.1665039,-0.3354492,-0.1044922
5055,-38.4375,19.1875,193.4375,-0.1303711,0.6845703,0.05566406,-0.1816406,-0.3232422,-0.1088867
5059,-33.4375,26.9375,193.25,-0.006347656,0.6303711,0.09423828,-0.1962891,-0.3105469,-0.1142578
5063,-27.8125,27.6875,183.8125,0.07470703,0.6186523,0.159668,-0.203125,-0.2993164,-0.1157227
5067,-17.5625,22.5,173.4375,0.05517578,0.6772461,0.1557617,-0.2163086,-0.2866211,-0.1181641
5071,-9.125,18.1875,167.375,0.02441406,0.7739258,0.159668,-0.2294922,-0.2705078,-0.1210938
5075,6.8125,21,172.5,-0.01416016,0.972168,0.1674805,-0.2353516,-0.2641602,-0.1210938
5079,11.375,23.6875,197.125,-0.1381836,1.221191,0.06347656,-0.2436523,-0.2519531,-0.1225586
5083,3.8125,22.6875,219.75,-0.1030273,1.321777,0.04785156,-0.2578125,-0.2329102,-0.1225586
5087,-29.6875,0.9375,231.375,-0.1499023,1.325684,-0.04003906,-0.2651367,-0.2216797,-0.1235352
5091,-75.75,-40.625,225.3125,-0.06835938,1.007324,-0.04736328,-0.2758789,-0.2016602,-0.125
5095,-116.5625,-72.5,216.0625,0.175293,0.4750977,0.05175781,-0.2866211,-0.1767578,-0.1235352
5099,-117.9375,-71.6875,222.4375,0.3457031,-0.1889648,0.2983398,-0.2949219,-0.1621094,-0.1210938
5103,-116.125,-70.75,242.0625,0.3496094,-0.7641602,0.3017578,-0.3032227,-0.1342773,-0.1196289
5107,-137.6875,-99.5,229.1875,0.5126953,-1.591309,0.1328125,-0.3115234,-0.1054688,-0.1142578
5111,-161.8125,-129.6875,189.4375,1.241211,-2.182129,0.001953125,-0.3173828,-0.08935547,-0.1074219
5115,-146.8125,-113.0625,72.5,2.225098,-2.788086,0.105957,-0.3208008,-0.06933594,-0.09667969
5119,-39.3125,-34.3125,-76.6875,2.23291,-2.714355,0.3442383,-0.3232422,-0.06445313,-0.08691406
5123,78.6875,27.8125,-138.9375,1.19043,-1.762695,0.375,-0.3232422,-0.07080078,-0.08691406
5127,149.5,30.3125,-157.0625,0.5629883,-0.5737305,-0.001464844,-0.3208008,-0.08837891,-0.08837891
5131,113.1875,12.125,-144.8125,0.3378906,0.4907227,-0.5053711,-0.3198242,-0.1069336,-0.08984375
5135,17.5625,-20.9375,-136.125,0.5668945,0.8671875,-0.5014648,-0.3164063,-0.1166992,-0.08691406
5139,-39.125,-14.5625,-134.0625,0.7993164,0.2612305,-0.2016602,-0.3149414,-0.1308594,-0.08837891
5143,-29.4375,4.3125,-149,0.7993164,-0.06054688,0.1289063,-0.3081055,-0.1455078,-0.08837891
5147,24.0625,24.5625,-156.875,0.6210938,-0.08007813,0.3056641,-0.3056641,-0.1542969,-0.08984375
5151,67.625,32,-157.0625,0.4658203,0.1679688,0.2402344,-0.2998047,-0.1704102,-0.08984375
5155,78.8125,34.375,-151.5,0.3730469,0.4438477,0.1132813,-0.2924805,-0.1870117,-0.08837891
5159,66.25,40.3125,-132.8125,0.3305664,0.6186523,0.01367188,-0.2866211,-0.2006836,-0.09082031
5163,53.25,57.5,-104,0.3378906,0.5913086,0.06347656,-0.2807617,-0.2128906,-0.09375
5167,35.25,52.875,-105,0.3149414,0.5800781,0.04443359,-0.2734375,-0.2231445,-0.09667969
5171,4.9375,22,-144.0625,0.2797852,0.5566406,0.1098633,-0.2685547,-0.2294922,-0.09667969
5176,-9.25,-8.75,-192.875,0.3730469,0.3974609,0.1982422,-0.2617188,-0.2441406,-0.09765625
5180,20.1875,-5.75,-212.4375,0.2177734,0.3427734,0.2636719,-0.2485352,-0.2617188,-0.09912109
5184,67.5,6.5,-194.6875,0.04345703,0.5488281,0.2211914,-0.2387695,-0.2695313,-0.09667969
5188,73.8125,22.125,-165.4375,0.01269531,0.9335938,-0.05126953,-0.2270508,-0.2880859,-0.09228516
5192,28.6875,30.8125,-144.5625,0.008789063,1.146973,-0.2397461,-0.2138672,-0.2993164,-0.08984375
5196,-19.6875,29.0625,-146.25,0.05517578,0.9140625,-0.112793,-0.2080078,-0.3056641,-0.08984375
5200,-27,23.25,-166.6875,0.07470703,0.5952148,0.09423828,-0.1948242,-0.3154297,-0.09521484
5204,23.875,21.125,-193.9375,0.02050781,0.2885742,0.3017578,-0.1791992,-0.328125,-0.09667969
5208,92.0625,23.625,-210.1875,-0.1767578,0.5449219,0.1982422,-0.1665039,-0.3330078,-0.09521484
5212,93.375,17.375,-211.9375,-0.3862305,1.193848,-0.1669922,-0.1484375,-0.3481445,-0.08837891
5216,12.9375,0.4375,-192.125,-0.5253906,1.679688,-0.3554688,-0.1293945,-0.3579102,-0.08300781
