Packet number,Gyroscope X (deg/s),Gyroscope Y (deg/s),Gyroscope Z (deg/s),Accelerometer X (g),Accelerometer Y (g),Accelerometer Z (g),Magnetometer X (G),Magnetometer Y (G),Magnetometer Z (G)
0,-0.375,1.75,4.1875,-0.8706055,0.4086914,0.05566406,0.2426758,-0.2792969,-0.08300781
4,-0.875,1.125,3.6875,-0.8666992,0.3896484,0.06738281,0.237793,-0.2792969,-0.08300781
8,0.3125,1.8125,2.5625,-0.862793,0.3701172,0.07128906,0.2402344,-0.2792969,-0.08300781
12,0.875,1.1875,0.4375,-0.8510742,0.3818359,0.06738281,0.2402344,-0.2792969,-0.08154297
16,0.5,0.75,-1.3125,-0.8588867,0.3935547,0.06347656,0.2412109,-0.2792969,-0.08154297
20,-0.625,1,-1.5625,-0.8706055,0.4086914,0.07519531,0.2402344,-0.2792969,-0.08007813
24,-1.125,1.625,-1.125,-0.878418,0.4204102,0.06347656,0.2392578,-0.2807617,-0.08154297
28,-2.5625,1.5,-0.375,-0.878418,0.4165039,0.05566406,0.2402344,-0.2807617,-0.08300781
33,-2.375,1.5,-0.4375,-0.8745117,0.4013672,0.07128906,0.2412109,-0.2783203,-0.08300781
37,-0.3125,1.1875,0,-0.878418,0.3896484,0.08251953,0.2412109,-0.2783203,-0.08447266
41,3,1.25,0.25,-0.878418,0.4013672,0.09033203,0.2412109,-0.2807617,-0.08154297
45,3.75,1.4375,0.125,-0.8818359,0.4165039,0.06738281,0.2402344,-0.2807617,-0.08447266
49,2,1.4375,0.3125,-0.8857422,0.4321289,0.05175781,0.2402344,-0.2792969,-0.08300781
53,0.6875,1.5,1,-0.878418,0.4204102,0.06738281,0.2392578,-0.2807617,-0.08154297
57,-0.375,2.3125,1.625,-0.8857422,0.4321289,0.07519531,0.2402344,-0.2807617,-0.08007813
61,-0.5625,1.625,1.6875,-0.8896484,0.4165039,0.07519531,0.2412109,-0.2792969,-0.08007813
65,1.6875,1.25,1.875,-0.878418,0.4052734,0.09033203,0.2402344,-0.2792969,-0.08154297
69,3.6875,1.75,1.9375,-0.8745117,0.4165039,0.07910156,0.2402344,-0.2807617,-0.08007813
73,3.0625,2,1.8125,-0.8745117,0.4282227,0.06738281,0.237793,-0.2807617,-0.08300781
77,0.0625,1.375,2.25,-0.8745117,0.4399414,0.06347656,0.2392578,-0.2807617,-0.08007813
81,-1.4375,0.625,2.5625,-0.8706055,0.4360352,0.07519531,0.2392578,-0.2817383,-0.07763672
85,-1.75,1.0625,2.1875,-0.8706055,0.4282227,0.09033203,0.2392578,-0.2807617,-0.08007813
89,-1.8125,0.5625,1.8125,-0.8857422,0.4360352,0.105957,0.2402344,-0.2807617,-0.07861328
93,-0.5625,-0.6875,2.5,-0.8857422,0.4594727,0.09423828,0.2402344,-0.2807617,-0.07861328
97,3.5,0,4,-0.8974609,0.5097656,0.105957,0.2392578,-0.2807617,-0.08007813
101,7.6875,0.25,6.8125,-0.9169922,0.5878906,0.1171875,0.237793,-0.2817383,-0.08007813
105,12.125,0.125,12.5625,-0.9594727,0.6420898,0.140625,0.2392578,-0.2832031,-0.08007813
109,21.1875,0.625,24.5,-0.9868164,0.6694336,0.1098633,0.2368164,-0.2832031,-0.07617188
113,24.1875,3.8125,36.875,-0.9672852,0.7041016,0.06738281,0.237793,-0.2866211,-0.07617188
117,19,3.1875,46.5625,-0.9672852,0.7001953,0.02490234,0.2329102,-0.2895508,-0.07324219
121,13.1875,1.5,51.25,-0.8974609,0.6381836,0.04443359,0.2294922,-0.2919922,-0.07470703
125,10.5,3.0625,51.625,-0.8588867,0.5839844,0.05175781,0.2294922,-0.2944336,-0.07177734
129,9.875,2.9375,50.625,-0.8510742,0.5605469,0.04785156,0.2236328,-0.2993164,-0.07324219
133,7.375,1.0625,48.6875,-0.8276367,0.5449219,0.04052734,0.2202148,-0.3017578,-0.07080078
137,6.5,1.0625,47,-0.8164063,0.5292969,0.05175781,0.2202148,-0.3066406,-0.07080078
141,5.75,0.9375,46.0625,-0.8237305,0.5332031,0.06347656,0.2128906,-0.3081055,-0.06787109
145,3.9375,-1.1875,43.6875,-0.8237305,0.5566406,0.04052734,0.2119141,-0.3129883,-0.06933594
149,1.9375,-2.5,40.5,-0.8276367,0.5952148,0.04443359,0.2094727,-0.3144531,-0.07080078
153,1.0625,-3.5,40.4375,-0.8666992,0.6499023,0.04052734,0.2070313,-0.3154297,-0.06933594
157,-1.0625,-4.125,40.375,-0.9091797,0.7392578,0.07128906,0.2021484,-0.3178711,-0.06787109
162,-1.3125,-5.5625,44.3125,-1.009766,0.8286133,0.09033203,0.203125,-0.3208008,-0.06787109
166,4.4375,-7.625,60.1875,-1.07959,0.921875,0.06738281,0.1987305,-0.3242188,-0.06933594
170,9.3125,-7.125,83.6875,-1.056641,0.9643555,0.01367188,0.1938477,-0.3266602,-0.07177734
174,6.75,0.75,101.8125,-0.9829102,0.972168,-0.005371094,0.1889648,-0.3330078,-0.06933594
178,0.0625,5.875,108.125,-0.9672852,0.9956055,0.02490234,0.1796875,-0.3378906,-0.06787109
182,-5.375,5,110.75,-0.9907227,1.034668,0.02099609,0.1713867,-0.3457031,-0.06933594
186,-6.75,2.9375,118.5,-0.9985352,1.073242,0.02490234,0.1640625,-0.3491211,-0.06787109
190,-7,6.8125,131.9375,-1.013672,1.120117,0.03662109,0.1523438,-0.3544922,-0.06933594
194,-8.9375,5.75,152.9375,-1.048828,1.09668,0.05175781,0.1401367,-0.3618164,-0.07080078
198,-1.9375,4.375,165.4375,-0.9555664,1.049805,0.06738281,0.1318359,-0.3657227,-0.06787109
202,7.5,8.3125,168.625,-0.9052734,1.073242,0.06738281,0.1142578,-0.3706055,-0.07080078
206,10.6875,9.9375,174.5,-0.8896484,1.112305,0.04443359,0.09960938,-0.3779297,-0.06787109
210,6.3125,6.6875,183.5625,-0.8974609,1.154785,-0.009277344,0.08886719,-0.3803711,-0.06640625
214,-7.375,2,188.25,-0.8432617,1.135742,0.009765625,0.07128906,-0.3857422,-0.06640625
218,-10.625,-2.125,190.1875,-0.847168,1.092773,-0.001464844,0.05224609,-0.3881836,-0.06933594
222,-1.5625,-2.25,190.25,-0.7890625,1.077148,0.03271484,0.0390625,-0.390625,-0.06933594
226,12.125,2.125,190.9375,-0.7773438,1.104492,-0.01318359,0.02246094,-0.3916016,-0.06933594
230,11.25,5.625,193.9375,-0.7036133,1.182129,-0.109375,0.003417969,-0.3916016,-0.06787109
234,-8.5625,5.0625,205.375,-0.7192383,1.186035,-0.1743164,-0.009277344,-0.390625,-0.06787109
238,-23.125,7.0625,213.6875,-0.6303711,1.073242,-0.1552734,-0.02929688,-0.3881836,-0.07080078
242,-27.1875,14.8125,215.8125,-0.5488281,0.9760742,-0.109375,-0.05078125,-0.3857422,-0.07177734
246,-27.625,21.5,216.625,-0.4868164,0.8984375,-0.1054688,-0.06640625,-0.3833008,-0.07324219
250,-24.4375,24.25,208.875,-0.4594727,0.8442383,-0.009277344,-0.08789063,-0.3769531,-0.07324219
254,-16.9375,22.1875,211.875,-0.4946289,0.890625,-0.02050781,-0.1054688,-0.3691406,-0.08007813
258,-21.875,25.25,220.6875,-0.4091797,0.890625,-0.04003906,-0.1186523,-0.3632813,-0.07861328
262,-29.4375,33.875,228.3125,-0.3666992,0.8598633,-0.04003906,-0.1391602,-0.3544922,-0.08447266
266,-40.25,34.0625,233.6875,-0.362793,0.8168945,-0.05517578,-0.1601563,-0.3432617,-0.08984375
270,-51.875,32.125,232,-0.2543945,0.7197266,0.03662109,-0.1708984,-0.3330078,-0.09228516
274,-48.125,30.625,228.625,-0.1728516,0.6030273,0.1020508,-0.1899414,-0.3168945,-0.09765625
278,-40.5,30.125,215.5625,-0.1381836,0.6186523,0.1557617,-0.2080078,-0.3007813,-0.1035156
282,-31.8125,29.125,211.5,-0.2231445,0.7275391,0.1557617,-0.2163086,-0.2919922,-0.105957
286,-33,25.25,220.75,-0.1420898,0.7314453,0.1367188,-0.2294922,-0.2729492,-0.1113281
291,-35.5625,33.5,228.875,-0.04101563,0.7119141,0.125,-0.2436523,-0.2543945,-0.1142578
295,-44.9375,35.75,238.3125,-0.06445313,0.6772461,0.07519531,-0.253418,-0.2441406,-0.1166992
299,-57.625,21.9375,238,0.05126953,0.5253906,0.1020508,-0.2661133,-0.2216797,-0.1210938
303,-68.875,7.9375,226.75,0.1674805,0.3271484,0.1171875,-0.2768555,-0.1992188,-0.1279297
307,-74.875,-5.6875,214.375,0.2797852,0.04736328,0.159668,-0.2841797,-0.1831055,-0.1289063
311,-84.4375,-15,204.625,0.4658203,-0.2470703,0.125,-0.2900391,-0.1621094,-0.1289063
315,-94.875,-17.375,195.9375,0.609375,-0.6860352,0.07519531,-0.2973633,-0.1396484,-0.1303711
319,-107.625,-16.6875,182.25,0.8110352,-1.26123,0.05957031,-0.3017578,-0.1230469,-0.1303711
323,-101.9375,-10.875,143.3125,1.105469,-1.630371,0.1865234,-0.3066406,-0.1030273,-0.1333008
327,-66.5,26.75,87.4375,1.419434,-1.797363,0.3520508,-0.309082,-0.08837891,-0.1333008
331,-24.875,2.875,-41.3125,1.085938,-1.669434,0.5136719,-0.3056641,-0.08300781,-0.1333008
335,42.4375,-7.25,-104.625,0.9736328,-1.241699,0.4482422,-0.3056641,-0.08837891,-0.1347656
339,81.0625,-2.0625,-133.125,0.7177734,-0.6591797,0.3251953,-0.3056641,-0.1044922,-0.1333008
343,85.0625,-9.75,-149.75,0.5708008,-0.1347656,0.1674805,-0.3032227,-0.1142578,-0.1303711
347,57.875,-20.5,-158.3125,0.543457,0.1137695,0.1098633,-0.2998047,-0.1333008,-0.1303711
351,32.25,-23.9375,-166.0625,0.5708008,0.1484375,0.140625,-0.2958984,-0.1494141,-0.1235352
355,24.625,-23.4375,-174.4375,0.5473633,0.1020508,0.2368164,-0.2949219,-0.1606445,-0.125
359,39.125,-19.5625,-178.9375,0.4775391,0.1098633,0.2827148,-0.2875977,-0.1791992,-0.1225586
363,65.75,-15.4375,-171.8125,0.3959961,0.1523438,0.2675781,-0.2792969,-0.1982422,-0.1181641
367,91.375,-10.3125,-161.9375,0.3457031,0.2612305,0.2021484,-0.2758789,-0.2094727,-0.1166992
371,93.8125,-7.6875,-153.125,0.2451172,0.4594727,0.08251953,-0.2675781,-0.2246094,-0.1113281
375,84.25,-5.4375,-150.625,0.2177734,0.5371094,-0.01660156,-0.2578125,-0.2407227,-0.1044922
379,68,-2.125,-147.25,0.2255859,0.5952148,-0.02050781,-0.2543945,-0.2504883,-0.1020508
383,64.125,3.875,-153.1875,0.2333984,0.5488281,0.04052734,-0.2446289,-0.2631836,-0.09765625
387,75.25,7,-169.0625,0.159668,0.5991211,-0.01318359,-0.2353516,-0.2783203,-0.09375
391,64.4375,-2.125,-186.1875,0.01660156,0.7666016,-0.07861328,-0.2246094,-0.2866211,-0.08984375
395,36.3125,-21.125,-200.0625,-0.06054688,0.8598633,-0.1362305,-0.2114258,-0.3032227,-0.08691406
399,17.6875,-30.25,-209.0625,-0.07617188,0.7509766,0.02099609,-0.1972656,-0.3154297,-0.08300781
403,34.6875,-28.125,-218.4375,-0.1499023,0.7119141,0.07128906,-0.1855469,-0.3242188,-0.08007813
407,59.75,-27.0625,-224.25,-0.28125,0.8710938,0.04785156,-0.168457,-0.3369141,-0.07470703
411,68.4375,-32.5625,-226.625,-0.4443359,1.221191,-0.1245117,-0.1494141,-0.3530273,-0.06787109
415,40.875,-39.875,-215.125,-0.4946289,1.430664,-0.2363281,-0.1342773,-0.359375,-0.06396484
420,2.9375,-42.25,-193.4375,-0.4829102,1.43457,-0.2553711,-0.1162109,-0.3706055,-0.06103516
424,-20.375,-33.625,-174.4375,-0.3745117,1.189941,-0.1054688,-0.09863281,-0.3745117,-0.06103516
428,-5.875,-21.1875,-167.1875,-0.378418,0.9604492,0.04785156,-0.08886719,-0.3779297,-0.05859375
432,32.4375,-17.625,-171.25,-0.4287109,0.8710938,0.08251953,-0.07470703,-0.3833008,-0.05712891
436,67.6875,-19.75,-182.375,-0.5024414,1.057617,-0.03613281,-0.05664063,-0.3881836,-0.05273438
440,50.8125,-27.875,-182.625,-0.6147461,1.36084,-0.2363281,-0.04150391,-0.390625,-0.05029297
444,0.25,-39.5625,-165.8125,-0.6264648,1.364746,-0.2514648,-0.02587891,-0.3930664,-0.04492188
448,-35.8125,-34.0625,-145.6875,-0.5063477,1.069336,-0.08984375,-0.01025391,-0.3930664,-0.04345703
452,-25.375,-22.375,-136.5625,-0.4946289,0.7119141,0.06738281,-0.001953125,-0.3945313,-0.04882813
456,16.3125,-12.9375,-142.625,-0.5024414,0.5913086,0.1210938,0.01269531,-0.3945313,-0.05175781
460,63.625,-13.1875,-167.625,-0.5991211,0.7548828,0.04785156,0.02734375,-0.3945313,-0.04882813
464,68.5625,-22,-183,-0.7387695,1.146973,-0.1743164,0.04150391,-0.3916016,-0.04052734
468,26.3125,-27.625,-178.5,-0.8276367,1.310547,-0.2631836,0.05810547,-0.390625,-0.03662109
472,-12.5625,-26.625,-148.875,-0.8276367,1.189941,-0.2089844,0.07373047,-0.3867188,-0.03662109
476,-31.9375,-10.125,-116.8125,-0.7192383,0.875,-0.07861328,0.08300781,-0.3857422,-0.03808594
480,-27.75,4.6875,-102.375,-0.6650391,0.5449219,-0.009277344,0.09375,-0.3803711,-0.04052734
484,-6.8125,11.9375,-115.5625,-0.6225586,0.3701172,0.03662109,0.1044922,-0.3769531,-0.04199219
488,15.6875,7.25,-150.8125,-0.730957,0.4243164,0.03271484,0.1118164,-0.3754883,-0.04052734
492,24,-9.8125,-193.1875,-0.9091797,0.6884766,-0.001464844,0.1269531,-0.3706055,-0.04199219
496,11.5625,-25.875,-214.75,-1.075684,0.8984375,-0.05126953,0.1474609,-0.359375,-0.03808594
500,-4,-32.6875,-206.375,-1.246094,0.9916992,-0.05517578,0.1582031,-0.3544922,-0.04052734
504,0.1875,-28.5,-172.6875,-1.246094,0.9453125,-0.05908203,0.1748047,-0.3442383,-0.04199219
508,6.3125,-7.9375,-132.625,-1.099121,0.9023438,-0.1362305,0.1879883,-0.3354492,-0.04345703
512,-1.1875,6.375,-114.6875,-1.013672,0.8789063,-0.2324219,0.1938477,-0.3291016,-0.04345703
516,-15.5,4.75,-118.125,-0.9672852,0.8481445,-0.2016602,0.2045898,-0.3232422,-0.04492188
520,-27.8125,1.6875,-124.25,-0.9516602,0.8129883,-0.109375,0.2119141,-0.3154297,-0.04199219
524,-33.3125,1.5,-125.1875,-0.9985352,0.793457,0.001953125,0.2202148,-0.3095703,-0.04638672
528,-31.625,-3.0625,-119.1875,-1.052734,0.7895508,0.08251953,0.2270508,-0.2983398,-0.04882813
532,-25,-4.875,-113.0625,-1.029297,0.8129883,0.2094727,0.234375,-0.2905273,-0.05029297
536,-13.375,-4,-100.125,-1.063965,0.7509766,0.09423828,0.2392578,-0.2832031,-0.05175781
540,3.9375,-9.1875,-88.8125,-1.037109,0.809082,0.07519531,0.2460938,-0.2768555,-0.05273438
544,10.1875,-13.6875,-77.3125,-1.017578,0.8828125,-0.005371094,0.2509766,-0.2705078,-0.05566406
549,10,-13.4375,-61.875,-0.9985352,0.9335938,-0.001464844,0.253418,-0.2670898,-0.05419922
553,6.3125,-10.1875,-42.8125,-1.041016,0.9604492,-0.009277344,0.2583008,-0.2631836,-0.05273438
557,6.4375,-7.5625,-18.6875,-1.063965,0.9101563,0.05957031,0.2592773,-0.2568359,-0.05566406
561,8.625,-4.1875,-1.3125,-1.005859,0.8671875,0.1098633,0.2602539,-0.2607422,-0.05419922
565,11.8125,-3.4375,12.5,-1.013672,0.8208008,0.08642578,0.2592773,-0.2568359,-0.05566406
569,10.8125,-4.125,22.0625,-0.9946289,0.7973633,0.04785156,0.2602539,-0.2592773,-0.05566406
573,6,-2.625,34,-0.9711914,0.7509766,0.01367188,0.2568359,-0.2641602,-0.05419922
577,-1,-0.0625,39.375,-0.9594727,0.7587891,0.04443359,0.2568359,-0.2641602,-0.05273438
581,-10.875,-21.375,30.8125,-0.9326172,0.7119141,-0.03613281,0.2519531,-0.2680664,-0.05419922
585,-10.25,-25.125,33.3125,-0.9711914,0.6923828,0.04052734,0.2509766,-0.2695313,-0.05859375
589,-5.1875,-29.125,40.0625,-0.9790039,0.6923828,0.07519531,0.25,-0.2719727,-0.05957031
593,9.5625,-28,55.625,-1.044922,0.6733398,0.1210938,0.2460938,-0.2744141,-0.0625
597,28.4375,-15.5625,86.0625,-1.041016,0.7314453,0.1098633,0.2436523,-0.2783203,-0.0625
601,37,-0.25,108.125,-0.9946289,0.7973633,0.06347656,0.237793,-0.2895508,-0.05957031
605,36.625,4.5625,116.4375,-1.021484,0.8945313,-0.01660156,0.230957,-0.2954102,-0.05712891
609,30.0625,3.25,123.3125,-1.033203,0.9916992,-0.04736328,0.2246094,-0.3017578,-0.05566406
613,24.9375,7.25,135.1875,-1.07959,1.015137,-0.04736328,0.2177734,-0.3105469,-0.05566406
617,27.3125,12.1875,151.8125,-1.087402,1.154785,-0.05517578,0.2045898,-0.3208008,-0.05175781
621,26.3125,21,169.125,-1.060547,1.069336,-0.07470703,0.1972656,-0.328125,-0.04882813
625,16.9375,28.25,177.125,-1.075684,1.081055,-0.109375,0.1821289,-0.3378906,-0.04492188
629,5.0625,24.8125,177.5625,-1.037109,1.026855,-0.1323242,0.1699219,-0.3491211,-0.04345703
633,-4.25,25.4375,182.125,-1.001953,1.022949,-0.1591797,0.1582031,-0.3544922,-0.04052734
637,-18.6875,31.4375,187.9375,-0.8745117,0.9956055,-0.1860352,0.1416016,-0.3642578,-0.03808594
641,-34.0625,31.6875,187.625,-0.9248047,0.9140625,-0.08984375,0.125,-0.3706055,-0.04199219
645,-32,24.8125,186.1875,-0.878418,0.8520508,0.02880859,0.112793,-0.3754883,-0.04345703
649,-23.25,20.8125,180.0625,-0.9013672,0.956543,0.01708984,0.09521484,-0.3793945,-0.04492188
653,-29.4375,12.0625,174.5,-0.8818359,1.04248,-0.04003906,0.07958984,-0.3857422,-0.04882813
657,-31.375,13.25,174.5,-0.796875,0.9296875,-0.01318359,0.06884766,-0.3867188,-0.04882813
661,-28.0625,17.8125,179.375,-0.7504883,0.9375,-0.0859375,0.05078125,-0.390625,-0.05029297
665,-35.9375,25.75,186.125,-0.6884766,0.9916992,-0.1323242,0.03076172,-0.3945313,-0.05419922
669,-47,21.1875,179.125,-0.7036133,0.8945313,-0.04003906,0.02001953,-0.3916016,-0.05566406
673,-44.4375,13.5625,169.25,-0.6416016,0.7739258,0.06738281,0.002441406,-0.3945313,-0.0625
678,-31.9375,10.5625,165.4375,-0.5644531,0.7197266,0.09814453,-0.01269531,-0.3916016,-0.06542969
682,-27.5,14.125,171.9375,-0.4907227,0.793457,0.03271484,-0.0234375,-0.390625,-0.06787109
686,-35.3125,21.875,176.125,-0.4208984,0.8012695,-0.001464844,-0.04150391,-0.3891602,-0.07324219
690,-35.875,19.75,169.6875,-0.4248047,0.7548828,0.05175781,-0.05908203,-0.3842773,-0.07617188
694,-34.9375,14.0625,161.25,-0.3549805,0.7817383,0.03271484,-0.06982422,-0.3818359,-0.07763672
698,-38.5625,8.75,148,-0.362793,0.8208008,0.05175781,-0.08544922,-0.3779297,-0.08154297
702,-39.875,8.6875,151.25,-0.3125,0.8364258,0.04052734,-0.09716797,-0.371582,-0.08691406
706,-40.4375,13.0625,157.4375,-0.2001953,0.7626953,0.05566406,-0.109375,-0.3666992,-0.08984375
710,-45.5,15.375,153.5,-0.1650391,0.7548828,0.02099609,-0.1210938,-0.3603516,-0.09228516
714,-45.375,11.9375,145.9375,-0.1420898,0.7705078,0.06347656,-0.1352539,-0.3530273,-0.09765625
718,-46.1875,2,134.25,-0.1225586,0.7431641,0.105957,-0.1425781,-0.3466797,-0.1005859
722,-30.5625,-0.0625,129.0625,-0.1108398,0.7509766,0.1865234,-0.1557617,-0.3408203,-0.105957
726,-15.3125,5.375,138.25,-0.06835938,0.8945313,0.1132813,-0.1665039,-0.3320313,-0.105957
730,-26.4375,7.1875,142.5625,-0.04882813,1.06543,-0.02441406,-0.1733398,-0.3256836,-0.1074219
734,-42.375,7,143.4375,0.03173828,0.9453125,0.009765625,-0.1865234,-0.3154297,-0.1113281
738,-43.625,7.8125,139.0625,0.109375,0.8129883,0.04785156,-0.1948242,-0.3056641,-0.1157227
742,-38.3125,8.625,134.625,0.1674805,0.7431641,0.07910156,-0.203125,-0.3007813,-0.1166992
746,-20.125,14.25,133.3125,0.1635742,0.8129883,0.1557617,-0.2114258,-0.2905273,-0.1210938
750,-19.375,17.3125,138.9375,0.1367188,1.069336,0.08642578,-0.222168,-0.2807617,-0.1235352
754,-28.9375,21.625,145.5,0.1210938,1.17041,0.08642578,-0.2280273,-0.2729492,-0.125
758,-37.875,21.8125,153.4375,0.1132813,1.162598,0.1171875,-0.2363281,-0.2617188,-0.1264648
762,-37.5625,23.25,166.1875,0.1445313,1.084961,0.1982422,-0.2436523,-0.2456055,-0.1289063
766,-33.75,26.875,180.6875,0.1791992,0.953125,0.2368164,-0.2495117,-0.2358398,-0.1318359
770,-32.25,23.75,192.6875,0.159668,0.9838867,0.1674805,-0.2602539,-0.2192383,-0.137207
774,-48.25,18.875,201.125,0.2915039,0.7158203,0.1748047,-0.2700195,-0.203125,-0.1401367
778,-57.25,18.25,202.1875,0.3769531,0.3740234,0.2094727,-0.2768555,-0.1879883,-0.1416016
782,-56.125,14.0625,188.0625,0.5048828,0.02832031,0.2636719,-0.2827148,-0.1679688,-0.1455078
786,-50.4375,10.625,166.5,0.6054688,-0.2587891,0.3710938,-0.2890625,-0.1494141,-0.1494141
790,-28.5,9,146.75,0.6635742,-0.503418,0.4404297,-0.2915039,-0.1396484,-0.1484375
794,-12,1.9375,128,0.7373047,-0.6357422,0.409668,-0.2958984,-0.1245117,-0.1523438
798,-9.125,-3.1875,94.0625,0.8842773,-0.7753906,0.3828125,-0.2958984,-0.1132813,-0.1508789
802,-14.75,-10.3125,56.9375,0.8881836,-0.8144531,0.3979492,-0.2983398,-0.1069336,-0.1508789
807,-10.375,-3.625,33.0625,1.000488,-0.7871094,0.425293,-0.2998047,-0.1005859,-0.1494141
811,-8.75,-1.25,-2.25,0.8881836,-0.7792969,0.2866211,-0.2983398,-0.09960938,-0.1494141
815,2.625,-4.5,-31.4375,0.8959961,-0.6938477,0.3520508,-0.3007813,-0.09960938,-0.1484375
819,23.9375,-4.375,-61.75,0.8496094,-0.5698242,0.3212891,-0.2998047,-0.1044922,-0.1494141
823,39.1875,-11.125,-91.4375,0.7719727,-0.3793945,0.2480469,-0.2973633,-0.1132813,-0.1484375
827,42.0625,-20.125,-115.25,0.6870117,-0.2431641,0.2094727,-0.2973633,-0.1196289,-0.1484375
831,43.3125,-27.6875,-136.9375,0.6479492,-0.1850586,0.1748047,-0.293457,-0.1318359,-0.144043
835,50.1875,-35.125,-161.4375,0.574707,-0.1616211,0.1904297,-0.293457,-0.1469727,-0.1401367
839,64.4375,-40.6875,-179.5,0.4736328,-0.09960938,0.1904297,-0.2890625,-0.1591797,-0.1386719
843,75.875,-41.8125,-190.25,0.3730469,0.03613281,0.1479492,-0.2841797,-0.1806641,-0.1303711
847,71.0625,-37.0625,-187.125,0.2138672,0.2768555,0.06347656,-0.2758789,-0.1992188,-0.125
851,57.625,-26.9375,-176.5625,0.2451172,0.3041992,0.07910156,-0.2709961,-0.2104492,-0.1196289
855,40.0625,-10.375,-170.1875,0.1987305,0.3544922,0.09814453,-0.2636719,-0.2294922,-0.1166992
859,45.5625,2,-171.75,0.1635742,0.300293,0.2094727,-0.253418,-0.2441406,-0.1142578
863,56.6875,1,-178.6875,0.04345703,0.4399414,0.1479492,-0.2460938,-0.2529297,-0.112793
867,43.3125,-5.25,-200.1875,0.02050781,0.6538086,0.04443359,-0.2353516,-0.2719727,-0.1088867
871,1.8125,-16.75,-216.8125,-0.07226563,0.7158203,-0.02441406,-0.21875,-0.2866211,-0.1044922
875,-7.875,-23.5,-221.625,-0.1225586,0.5214844,0.1713867,-0.2128906,-0.296875,-0.1088867
879,29.625,-13.375,-223.875,-0.1884766,0.4711914,0.3056641,-0.1948242,-0.3120117,-0.1044922
883,80.125,-0.375,-234.125,-0.2661133,0.6616211,0.2172852,-0.1757813,-0.3266602,-0.1005859
887,86.75,-11.625,-247.1875,-0.4672852,1.045898,-0.0859375,-0.1625977,-0.3369141,-0.09521484
891,36.1875,-30.6875,-252.8125,-0.5214844,1.271484,-0.2128906,-0.1411133,-0.3505859,-0.08984375
895,-21.375,-44.3125,-249,-0.5644531,1.205566,-0.1552734,-0.1186523,-0.3632813,-0.08691406
899,-28,-42.125,-245.8125,-0.5214844,0.9375,0.06347656,-0.1044922,-0.3681641,-0.08691406
903,7,-26.6875,-232.125,-0.5795898,0.7314453,0.1943359,-0.08056641,-0.3769531,-0.08837891
907,56.3125,-16.0625,-236.25,-0.6494141,0.8632813,0.08251953,-0.06152344,-0.3833008,-0.08544922
911,52.6875,-20.25,-240.1875,-0.7773438,1.174316,-0.1206055,-0.04589844,-0.3867188,-0.08154297
915,10.0625,-28.625,-244.8125,-0.8046875,1.310547,-0.2128906,-0.02001953,-0.390625,-0.07617188
919,-49.75,-30.3125,-231.4375,-0.8354492,1.178223,-0.1708984,0.0009765625,-0.390625,-0.07763672
923,-81.5625,-17.0625,-208.5625,-0.7695313,0.7431641,-0.03613281,0.01660156,-0.390625,-0.08300781
927,-62.3125,9.8125,-198.8125,-0.6923828,0.3120117,0.105957,0.03808594,-0.3857422,-0.08984375
931,-13.8125,35.3125,-216.125,-0.796875,0.253418,0.1132813,0.05712891,-0.3833008,-0.09228516
936,13.625,33.125,-250.6875,-1.11084,0.5332031,-0.001464844,0.07226563,-0.3818359,-0.09228516
940,5.1875,7.625,-279.75,-1.339355,0.8867188,-0.02832031,0.09765625,-0.3745117,-0.09228516
944,-19.5625,-11.4375,-284.625,-1.471191,0.9492188,0.04443359,0.1235352,-0.3642578,-0.09082031
948,-25.625,-14.625,-268.125,-1.490234,0.8012695,0.1826172,0.1416016,-0.3579102,-0.09375
952,-11.1875,-8,-252.875,-1.455566,0.6733398,0.1787109,0.1630859,-0.3442383,-0.09667969
956,3.25,-4.125,-250,-1.413086,0.6655273,0.105957,0.1855469,-0.3291016,-0.09765625
960,2.6875,-5.4375,-259.1875,-1.358887,0.7895508,0.03662109,0.1972656,-0.3193359,-0.09667969
964,-9.9375,-8.8125,-271.5,-1.331543,0.8867188,0.03271484,0.2163086,-0.3007813,-0.09765625
968,-15.875,-17.375,-271.5,-1.463379,0.9140625,0.1713867,0.234375,-0.2832031,-0.09912109
972,1.9375,-20.4375,-236.5625,-1.57959,0.9179688,0.3364258,0.2451172,-0.2680664,-0.1005859
976,37.5,-5.4375,-167.625,-1.48291,0.9916992,0.3710938,0.2583008,-0.2519531,-0.1020508
980,59.9375,13.5625,-101.75,-1.327637,1.150879,0.140625,0.2651367,-0.2407227,-0.09912109
984,40.5,24.1875,-63.125,-1.161133,1.287109,-0.05908203,0.2666016,-0.2358398,-0.09375
988,6.3125,23.375,-47.6875,-1.07959,1.205566,-0.05126953,0.2700195,-0.2319336,-0.09228516
992,-13.625,25.1875,-34.25,-1.029297,0.9995117,0.1020508,0.2724609,-0.2280273,-0.09082031
996,-14.6875,29.625,-17.8125,-1.060547,0.8520508,0.2094727,0.2749023,-0.2255859,-0.09082031
1000,-4.1875,25.4375,-1.3125,-1.095215,0.7314453,0.3212891,0.2758789,-0.2246094,-0.08984375
1004,13.25,21.4375,9.6875,-1.025391,0.6616211,0.3637695,0.2773438,-0.2246094,-0.08691406
1008,27.3125,15.3125,12.4375,-1.009766,0.6616211,0.3330078,0.2749023,-0.2270508,-0.08300781
1012,36.0625,4.375,11.125,-1.021484,0.6499023,0.2788086,0.2758789,-0.2280273,-0.08300781
1016,40.8125,-2.3125,14.5625,-0.9711914,0.6733398,0.2211914,0.2758789,-0.2294922,-0.07861328
1020,40.5,-2.75,20.4375,-0.9594727,0.6655273,0.1713867,0.2734375,-0.2319336,-0.07861328
1024,33.9375,-2.5,28.25,-0.9829102,0.6772461,0.1098633,0.2724609,-0.2368164,-0.07617188
1028,20,0.1875,37,-0.9399414,0.6577148,0.05566406,0.2724609,-0.2368164,-0.07177734
1032,1.875,2.625,42.25,-0.9208984,0.5878906,0.05175781,0.269043,-0.2407227,-0.07177734
1036,-10.5,3,44,-0.9091797,0.4633789,0.09814453,0.2666016,-0.2431641,-0.07470703
1040,-11.3125,4.6875,43.125,-0.9091797,0.3544922,0.1479492,0.2641602,-0.2470703,-0.07470703
1044,-0.75,4.75,41.125,-0.9365234,0.2885742,0.1982422,0.2641602,-0.2495117,-0.07324219
1048,14.375,1.3125,41.0625,-0.9672852,0.2768555,0.1943359,0.2602539,-0.2519531,-0.07470703
1052,20.625,-4.1875,40.8125,-0.9829102,0.3505859,0.1132813,0.2602539,-0.2558594,-0.07324219
1056,17.3125,-11.1875,38.875,-0.9790039,0.4165039,0.06738281,0.2568359,-0.2583008,-0.07324219
1060,13.75,-14.75,37.1875,-0.9633789,0.4594727,0.09033203,0.2558594,-0.2607422,-0.07177734
1065,22.25,-13.8125,40.5,-0.9985352,0.4829102,0.1367188,0.253418,-0.2631836,-0.07177734
1069,38.25,-11.25,49.375,-1.056641,0.5605469,0.1367188,0.253418,-0.2680664,-0.07177734
1073,47.0625,-8.375,62,-1.106934,0.6694336,0.09033203,0.2475586,-0.2729492,-0.07177734
1077,47.375,-6.9375,80.875,-1.137695,0.7353516,0.02880859,0.2460938,-0.2768555,-0.06640625
1081,31.625,-3.3125,104.8125,-1.12207,0.7973633,-0.05908203,0.2402344,-0.2832031,-0.06542969
1085,9.375,-3.3125,119.75,-1.037109,0.7119141,-0.04003906,0.2329102,-0.2929688,-0.06103516
1089,-2.0625,-5.9375,120.3125,-0.9594727,0.6030273,0.001953125,0.2260742,-0.3007813,-0.06396484
1093,-4.0625,-3.3125,117.125,-0.878418,0.5449219,0.04052734,0.2202148,-0.3056641,-0.06542969
1097,0.6875,2.875,116.125,-0.8432617,0.5605469,0.07128906,0.2119141,-0.3144531,-0.06542969
1101,8.375,12.875,118.625,-0.862793,0.6303711,0.1171875,0.2021484,-0.3232422,-0.06396484
1105,10.6875,13.4375,116.4375,-0.9594727,0.7739258,0.08251953,0.1948242,-0.3266602,-0.06103516
1109,6,5.625,116.625,-0.9946289,0.8671875,0.06738281,0.1865234,-0.3369141,-0.0625
1113,4.75,-3.4375,117.6875,-0.9711914,0.8481445,0.03271484,0.1782227,-0.3408203,-0.05957031
1117,1.9375,4.8125,123.875,-0.8237305,0.8442383,-0.01318359,0.1713867,-0.3457031,-0.06103516
1121,2.3125,16.25,129.5625,-0.7773438,0.7973633,-0.03222656,0.1591797,-0.3505859,-0.05957031
1125,-7.9375,26.5625,118.3125,-0.7036133,0.8710938,-0.04003906,0.1499023,-0.3554688,-0.05957031
1129,-23.125,12.125,115.5,-0.9829102,0.953125,0.001953125,0.144043,-0.3618164,-0.05859375
1133,-25.875,2.1875,116.625,-0.8818359,0.921875,0.07519531,0.1333008,-0.3666992,-0.06103516
1137,-25.25,12.3125,133.5625,-0.796875,0.9023438,0.02099609,0.1210938,-0.3706055,-0.0625
1141,-34.5625,16.75,144.4375,-0.7270508,0.8442383,0.02490234,0.1118164,-0.3754883,-0.06396484
1145,-37.0625,10.6875,137.625,-0.7036133,0.7626953,0.1328125,0.09863281,-0.3793945,-0.06787109
1149,-32.875,-6.5625,121.5625,-0.7114258,0.7587891,0.1748047,0.08544922,-0.3818359,-0.07177734
1153,-15.75,-9.3125,119.1875,-0.6650391,0.7353516,0.2709961,0.07714844,-0.3818359,-0.07177734
1157,-0.375,-4.8125,130,-0.6845703,0.8325195,0.1787109,0.06542969,-0.3867188,-0.07324219
1161,-6.0625,-4.6875,136.375,-0.6376953,0.9335938,0.07128906,0.05224609,-0.3891602,-0.07617188
1165,-8.5,-6.9375,139.6875,-0.6264648,0.8867188,0.06347656,0.04248047,-0.3891602,-0.07617188
1169,-10.375,-9.8125,138.9375,-0.6147461,0.9643555,0.01367188,0.02978516,-0.3930664,-0.07617188
1173,-15.5,-13.25,138.4375,-0.6108398,0.987793,0.01708984,0.01513672,-0.3916016,-0.07617188
1177,-16.125,-11,145.875,-0.5292969,0.9414063,0.01367188,0.005859375,-0.3891602,-0.08007813
1181,-20.875,-3.5625,151.25,-0.4521484,0.9643555,-0.02832031,-0.0078125,-0.390625,-0.08007813
1185,-33.5,-0.0625,149.75,-0.4052734,0.9414063,-0.01660156,-0.02490234,-0.3881836,-0.08447266
1189,-33.375,1.4375,143.8125,-0.4169922,0.8598633,0.05957031,-0.03173828,-0.3881836,-0.08544922
1194,-20.6875,2.5,139.125,-0.3823242,0.824707,0.1479492,-0.04833984,-0.3867188,-0.08984375
1198,-9.9375,2.1875,136.0625,-0.4482422,0.9604492,0.105957,-0.06152344,-0.3818359,-0.08984375
1202,-5.125,5.5625,145.875,-0.4091797,1.049805,0.08251953,-0.06982422,-0.3803711,-0.09082031
1206,-12.8125,8.0625,154.5,-0.3393555,1.12793,-0.03613281,-0.08300781,-0.3754883,-0.09082031
1210,-31.0625,7.3125,152.125,-0.2661133,1.077148,-0.05517578,-0.09863281,-0.3691406,-0.09375
1214,-43.4375,4.1875,148.4375,-0.1767578,0.890625,0.02880859,-0.1079102,-0.3681641,-0.09667969
1218,-35.25,5.4375,143.5625,-0.1303711,0.7973633,0.1171875,-0.1210938,-0.3569336,-0.09912109
1222,-24.5,8.625,140.5625,-0.1069336,0.8632813,0.105957,-0.1352539,-0.3530273,-0.1044922
1226,-23.5,8.5,138.9375,-0.1342773,0.9838867,0.07128906,-0.1411133,-0.3481445,-0.1044922
1230,-40,9.9375,142.5,-0.06835938,1.045898,0.001953125,-0.1533203,-0.3393555,-0.1074219
1234,-48.625,8.8125,141.375,-0.04492188,0.8168945,0.1367188,-0.168457,-0.3305664,-0.1113281
1238,-39.9375,7.0625,137.9375,0.03564453,0.6884766,0.1943359,-0.1748047,-0.3256836,-0.1142578
1242,-16.125,11.25,141.9375,0.1674805,0.6303711,0.2519531,-0.184082,-0.3154297,-0.1181641
1246,-8.375,16.8125,139.25,0.2451172,0.7080078,0.1674805,-0.1972656,-0.3066406,-0.1196289
1250,-3.3125,19.8125,142.0625,0.190918,0.7236328,0.1904297,-0.203125,-0.3007813,-0.1196289
1254,-5.4375,25.625,146,0.2529297,0.8789063,0.1098633,-0.2114258,-0.2905273,-0.1210938
1258,-26.6875,23.3125,143.75,0.2138672,0.8671875,0.1328125,-0.2211914,-0.2768555,-0.125
1262,-33,19,143.875,0.2255859,0.809082,0.2211914,-0.2294922,-0.2719727,-0.1279297
1266,-26.125,19.4375,149.75,0.1635742,0.8520508,0.2944336,-0.2363281,-0.2592773,-0.1289063
1270,-23.375,16.125,157.0625,0.125,1.007324,0.2749023,-0.2446289,-0.2456055,-0.1347656
1274,-20.5,13.8125,168.0625,0.1054688,1.150879,0.2519531,-0.253418,-0.2382813,-0.1347656
1278,-33,13.8125,185.5625,0.190918,1.069336,0.1748047,-0.2617188,-0.2216797,-0.1357422
1282,-45.0625,14.0625,191.9375,0.2685547,0.8325195,0.1748047,-0.2685547,-0.2055664,-0.137207
1286,-48.4375,8,191.1875,0.3071289,0.6616211,0.1943359,-0.2744141,-0.1904297,-0.1401367
1290,-51,9.5625,189.9375,0.3959961,0.4360352,0.2402344,-0.2827148,-0.1733398,-0.1416016
1294,-46.375,6.625,180.9375,0.5356445,0.2573242,0.1674805,-0.2875977,-0.1533203,-0.1455078
1298,-41.75,10.6875,170.8125,0.6132813,-0.05664063,0.2172852,-0.2924805,-0.1420898,-0.144043
1302,-37.625,12.875,153.5,0.7060547,-0.3286133,0.2402344,-0.2958984,-0.1230469,-0.1469727
1306,-36.375,16.25,134,0.7836914,-0.5268555,0.2749023,-0.2983398,-0.1054688,-0.1484375
1310,-37.9375,16.25,112.25,0.8300781,-0.8378906,0.3828125,-0.2973633,-0.09960938,-0.1494141
1314,-36.4375,9.4375,83.6875,0.9350586,-1.090332,0.4521484,-0.2983398,-0.08691406,-0.1523438
1318,-23.25,15.3125,63.3125,0.9892578,-1.094238,0.5712891,-0.2998047,-0.078125,-0.1547852
1323,-1,1.0625,2.875,0.8613281,-1.059082,0.409668,-0.3017578,-0.07421875,-0.1547852
1327,10.3125,-9.5625,-43.0625,0.9814453,-0.8686523,0.4829102,-0.3007813,-0.07714844,-0.15625
1331,29.5,-11.375,-75.4375,0.8574219,-0.6787109,0.390625,-0.3007813,-0.08203125,-0.1538086
1335,36.625,-11.75,-99.125,0.8300781,-0.4453125,0.2944336,-0.3017578,-0.09082031,-0.1538086
1339,42.0625,-12.25,-120.3125,0.7680664,-0.3481445,0.2329102,-0.3007813,-0.1005859,-0.1494141
1343,53.5625,-12.5625,-133.625,0.6713867,-0.2587891,0.2250977,-0.2973633,-0.1157227,-0.1469727
1347,62.5625,-8.75,-143.6875,0.6557617,-0.1269531,0.1826172,-0.2949219,-0.1230469,-0.1484375
1351,63.3125,-10.75,-161.0625,0.543457,-0.006347656,0.1674805,-0.293457,-0.1420898,-0.144043
1355,62.1875,-12.5,-171.0625,0.4580078,0.07861328,0.1865234,-0.2890625,-0.1606445,-0.1455078
1359,58.125,-9.3125,-171.3125,0.3808594,0.1293945,0.1865234,-0.2827148,-0.1733398,-0.1401367
1363,64.75,0,-165.375,0.3496094,0.1293945,0.2133789,-0.2768555,-0.1894531,-0.137207
1367,81.5,5.75,-161.625,0.190918,0.2265625,0.1674805,-0.2685547,-0.2070313,-0.1347656
1371,95.4375,-0.5625,-168.625,0.1635742,0.3779297,0.1098633,-0.2636719,-0.2182617,-0.1347656
1375,85.6875,-12.1875,-196.5,0.1557617,0.6069336,-0.001464844,-0.253418,-0.2368164,-0.125
1379,28.375,-42.625,-227.875,0.03564453,0.7739258,-0.0859375,-0.2426758,-0.2558594,-0.1235352
1383,0.9375,-60.5625,-241.875,0.02050781,0.6030273,0.125,-0.234375,-0.2695313,-0.1210938
1387,23.4375,-46.5625,-241.875,-0.04882813,0.5527344,0.2094727,-0.21875,-0.2856445,-0.1157227
1391,59.4375,-25.5,-230.375,-0.1806641,0.7197266,0.1367188,-0.203125,-0.3032227,-0.1098633
1395,60.6875,-21.1875,-210.875,-0.230957,0.9101563,-0.1166992,-0.1914063,-0.3154297,-0.1044922
1399,14.75,-20,-197.3125,-0.2734375,1.038574,-0.109375,-0.1757813,-0.3305664,-0.1020508
1403,-27.5,-18.75,-194.4375,-0.2192383,0.7314453,0.08642578,-0.1591797,-0.3378906,-0.1005859
1407,0.25,-10.1875,-212.6875,-0.2348633,0.4516602,0.2866211,-0.1484375,-0.3457031,-0.1020508
1411,73,-5.0625,-233.3125,-0.4013672,0.4594727,0.2749023,-0.1293945,-0.3569336,-0.1005859
1415,111.9375,-18.6875,-249.875,-0.6186523,0.9799805,-0.07861328,-0.1069336,-0.3681641,-0.09082031
1419,45,-38.5625,-246.25,-0.699707,1.349121,-0.2744141,-0.09228516,-0.3745117,-0.08447266
1423,-53.0625,-45.6875,-227.125,-0.6342773,1.182129,-0.1938477,-0.06884766,-0.3818359,-0.08154297
1427,-89.4375,-31.375,-216.5625,-0.5253906,0.6069336,0.06738281,-0.04980469,-0.3833008,-0.08837891
1431,-33.125,-1.1875,-223,-0.4868164,0.09814453,0.3979492,-0.03320313,-0.3857422,-0.09082031
1435,76.625,22.3125,-248.1875,-0.7578125,0.2573242,0.2558594,-0.01025391,-0.3857422,-0.09375
1439,104.6875,13.75,-276.125,-0.9985352,0.8286133,-0.07861328,0.01513672,-0.3891602,-0.08154297
1443,59,-2.4375,-292.6875,-1.091309,1.131836,-0.2705078,0.03564453,-0.3891602,-0.07617188
1447,-4.75,-2.5625,-277.3125,-1.20752,1.104492,-0.1938477,0.06298828,-0.3857422,-0.07177734
1452,-37.0625,7.6875,-247.75,-1.215332,0.8671875,-0.08203125,0.08886719,-0.3779297,-0.07470703
1456,-43.125,22.375,-232.1875,-1.199707,0.5913086,0.009765625,0.1044922,-0.3745117,-0.07861328
1460,-20.625,31.6875,-240.8125,-1.20752,0.3701172,0.1210938,0.128418,-0.3666992,-0.08007813
1464,13.5625,29.875,-270.3125,-1.335449,0.4868164,0.07910156,0.1499023,-0.3554688,-0.07861328
1468,21.0625,11.875,-291.3125,-1.560059,0.7739258,0.05175781,0.1665039,-0.3457031,-0.07763672
1472,14.3125,-4,-286.6875,-1.738281,0.9101563,0.1674805,0.1914063,-0.328125,-0.07324219
1476,21.6875,-14.6875,-253.5625,-1.785156,0.921875,0.1826172,0.2119141,-0.3129883,-0.07324219
1480,25.9375,-8.625,-212.375,-1.610352,0.9995117,0.1328125,0.2236328,-0.3017578,-0.07177734
1484,14.625,-4.625,-186.75,-1.463379,1.061523,-0.01318359,0.2368164,-0.2880859,-0.07177734
1488,-3.1875,-3.625,-175,-1.327637,1.061523,-0.005371094,0.2451172,-0.2729492,-0.07324219
1492,-18.5,-0.3125,-165.0625,-1.273438,1.049805,0.03662109,0.253418,-0.2631836,-0.07177734
1496,-19.875,1.75,-146,-1.296875,0.9492188,0.1904297,0.2626953,-0.2504883,-0.07617188
1500,0.6875,3.1875,-116.375,-1.308105,0.8598633,0.3291016,0.269043,-0.2392578,-0.07470703
1504,22.9375,5.375,-85.8125,-1.285156,0.8984375,0.3291016,0.2734375,-0.2319336,-0.07470703
1508,29.0625,1.625,-58.5,-1.265625,0.9296875,0.2519531,0.2783203,-0.2255859,-0.07324219
1512,24,-0.625,-36.0625,-1.165039,0.9453125,0.1904297,0.2792969,-0.2207031,-0.07177734
1516,9.625,0.75,-19.4375,-1.103027,0.8632813,0.1713867,0.2817383,-0.2207031,-0.07324219
1520,6.0625,2.875,-6.25,-1.048828,0.7314453,0.2021484,0.2807617,-0.2192383,-0.06933594
1524,8,5.1875,1.6875,-0.9985352,0.6884766,0.1904297,0.2807617,-0.2182617,-0.07080078
1528,0.875,3.1875,5.375,-0.9985352,0.6845703,0.1328125,0.2832031,-0.2207031,-0.06933594
1532,-1.9375,-4.375,11.125,-1.017578,0.6030273,0.1787109,0.2817383,-0.2192383,-0.06933594
1536,7.5625,-6.75,19.5625,-0.9868164,0.5410156,0.2211914,0.2817383,-0.2207031,-0.07177734
1540,17.25,-7.9375,24.5,-0.9477539,0.5253906,0.1713867,0.2807617,-0.2231445,-0.07080078
1544,23.3125,-9.4375,24.3125,-0.9326172,0.5449219,0.1020508,0.2783203,-0.2246094,-0.07080078
1548,21.0625,-9.875,26.4375,-0.9365234,0.5800781,0.05175781,0.2792969,-0.2280273,-0.06787109
1552,15.5625,-9,31.125,-0.9477539,0.5527344,0.05957031,0.2749023,-0.2294922,-0.06787109
1556,17.1875,-6.25,36.125,-0.9750977,0.5136719,0.05566406,0.2749023,-0.2319336,-0.06933594
1560,16.75,-6.625,40.875,-0.9907227,0.5097656,0.02490234,0.2724609,-0.2358398,-0.06933594
1564,11.9375,-5.75,44.5,-0.9711914,0.5019531,-0.001464844,0.2724609,-0.2382813,-0.06787109
1568,5.125,-2.8125,46.0625,-0.9555664,0.4790039,-0.01318359,0.2700195,-0.2416992,-0.06787109
1572,3.6875,3.25,49.125,-0.9130859,0.3935547,0.001953125,0.2651367,-0.2456055,-0.06787109
1576,8,15.5625,49.3125,-0.831543,0.3583984,-0.005371094,0.2651367,-0.2504883,-0.06640625
1581,5.1875,26.5,45,-0.8818359,0.3935547,-0.02050781,0.2641602,-0.2543945,-0.06640625
1585,-5.1875,21.8125,44.625,-1.056641,0.4086914,0.009765625,0.2592773,-0.2568359,-0.06396484
1589,-10.3125,3.0625,52.875,-1.133789,0.3779297,0.1132813,0.2602539,-0.2592773,-0.0625
1593,-8.8125,-11.5625,55,-1.009766,0.315918,0.1674805,0.2558594,-0.2641602,-0.0625
1597,2.125,-14,49.0625,-0.9169922,0.2495117,0.1518555,0.253418,-0.2670898,-0.06542969
1601,23.1875,-9.5,48.625,-0.9013672,0.2885742,0.105957,0.25,-0.2705078,-0.06640625
1605,33,0.9375,55.375,-0.9052734,0.4555664,0.009765625,0.2485352,-0.2753906,-0.06396484
1609,20.875,7.875,65.375,-0.9985352,0.6108398,-0.04394531,0.2460938,-0.2792969,-0.06103516
1613,-1.9375,2.3125,78.75,-1.075684,0.6733398,-0.03222656,0.2402344,-0.2841797,-0.0625
1617,-12.625,-3.875,89.625,-1.037109,0.6186523,0.06738281,0.2368164,-0.2895508,-0.06103516
1621,-12.5,-10,90.4375,-0.9985352,0.5761719,0.1328125,0.2285156,-0.296875,-0.0625
1625,-4.9375,-19.125,79.6875,-0.9477539,0.5644531,0.159668,0.2246094,-0.3007813,-0.06103516
1629,0.9375,-23.625,74.0625,-1.017578,0.7548828,0.1171875,0.2202148,-0.3056641,-0.06542969
1633,-10.5625,-24.3125,92.25,-1.129883,0.9492188,0.009765625,0.2138672,-0.3129883,-0.06640625
1637,-25.5625,-19.5,124.4375,-1.149414,0.9023438,-0.03222656,0.2104492,-0.3168945,-0.06933594
1641,-26.4375,-14.4375,152,-1.056641,0.6962891,0.04785156,0.1987305,-0.3256836,-0.07177734
1645,-12.5625,-3.9375,153.75,-0.8588867,0.6342773,0.125,0.1879883,-0.3320313,-0.07324219
1649,-12.3125,-2.9375,133.3125,-0.8818359,0.6538086,0.1289063,0.1796875,-0.3393555,-0.07470703
1653,-6,-17.8125,117.0625,-0.9438477,0.7119141,0.2094727,0.1689453,-0.3481445,-0.07470703
1657,6.4375,-17.625,119.625,-0.8745117,0.7001953,0.2133789,0.1567383,-0.3530273,-0.07617188
1661,20.5625,1.3125,133.4375,-0.8549805,0.8632813,0.1328125,0.1508789,-0.3569336,-0.07763672
1665,16.5,8.5,144.25,-0.8588867,0.9643555,0.03271484,0.1376953,-0.3632813,-0.07324219
1669,0.3125,9.3125,139.75,-0.78125,0.9916992,0.01708984,0.125,-0.3691406,-0.07324219
1673,-15.5,2.4375,127.4375,-0.7929688,0.9375,0.04785156,0.1142578,-0.3730469,-0.07177734
1677,-15.875,-2.0625,128.25,-0.8046875,0.875,0.1289063,0.1044922,-0.3779297,-0.07470703
1681,-0.3125,0.625,138.3125,-0.7617188,0.8442383,0.1674805,0.09033203,-0.3793945,-0.07617188
1685,3.3125,9.9375,147.6875,-0.6767578,0.9643555,0.1132813,0.08300781,-0.3833008,-0.07763672
1689,-3.6875,12.25,149.0625,-0.6728516,0.9492188,0.1098633,0.06640625,-0.3857422,-0.07470703
1693,-6.0625,7.6875,144.6875,-0.6416016,0.9375,0.105957,0.05322266,-0.3867188,-0.07617188
1697,-2.75,3.3125,147.3125,-0.6303711,0.9643555,0.09814453,0.04394531,-0.3891602,-0.07617188
1701,-9.4375,3.0625,155.375,-0.5683594,1.003418,0.009765625,0.03076172,-0.390625,-0.07763672
1705,-22.0625,4,162.75,-0.5605469,0.9760742,0.02880859,0.01416016,-0.390625,-0.08007813
1710,-26.25,2.8125,168.8125,-0.5991211,0.9179688,0.07519531,0.002441406,-0.3916016,-0.08007813
1714,-26.375,-8.5,171.8125,-0.5795898,0.8828125,0.06347656,-0.01416016,-0.3891602,-0.08300781
1718,-23.25,-14.25,164.1875,-0.4169922,0.855957,0.1098633,-0.03173828,-0.3881836,-0.08544922
1722,-12.125,-11.25,156.75,-0.378418,0.8867188,0.1289063,-0.04248047,-0.3881836,-0.08691406
1726,-9.75,-2.875,154.5625,-0.3125,1.015137,0.02099609,-0.05664063,-0.3803711,-0.08984375
1730,-21.8125,3,147.5625,-0.3125,1.06543,-0.01660156,-0.07324219,-0.3793945,-0.08837891
1734,-32.6875,0.75,147.5625,-0.3242188,0.8984375,-0.005371094,-0.08300781,-0.3779297,-0.09082031
1738,-25.1875,0.1875,147.1875,-0.2734375,0.8632813,0.105957,-0.09472656,-0.3706055,-0.09228516
1742,-23.125,6.1875,154.1875,-0.230957,0.9296875,0.04785156,-0.1113281,-0.3657227,-0.09667969
1746,-33.3125,9.0625,154.6875,-0.215332,1.01123,0.01367188,-0.1201172,-0.3603516,-0.09912109
1750,-35,11.25,156.1875,-0.2001953,0.8789063,0.1098633,-0.1342773,-0.3520508,-0.1005859
1754,-31.8125,14.5,161.5,-0.1845703,0.8945313,0.1557617,-0.1484375,-0.3457031,-0.105957
1758,-28.9375,8.375,162.4375,-0.2192383,0.8867188,0.1826172,-0.1582031,-0.3393555,-0.1044922
1762,-24.0625,4.1875,165.5,-0.1533203,0.921875,0.2094727,-0.1699219,-0.3291016,-0.1088867
1766,-28,3.3125,169.25,-0.08789063,0.9375,0.159668,-0.184082,-0.3178711,-0.1113281
1770,-36,6.5,173.6875,-0.01025391,0.875,0.1289063,-0.1938477,-0.3105469,-0.112793
1774,-36.4375,10.3125,175.125,-0.002441406,0.7973633,0.1674805,-0.2045898,-0.296875,-0.1166992
1778,-38.625,8.625,171.1875,0.09375,0.6616211,0.2133789,-0.2172852,-0.2856445,-0.1196289
1782,-27.625,7.625,165,0.1328125,0.6499023,0.2329102,-0.2270508,-0.2768555,-0.1225586
1786,-23.625,10.875,169.9375,0.1015625,0.7470703,0.1982422,-0.2387695,-0.2617188,-0.1235352
1790,-28.9375,12.125,176.5,0.1210938,0.8208008,0.1635742,-0.2485352,-0.2456055,-0.1279297
1794,-40.5,10.25,179.3125,0.1171875,0.840332,0.1748047,-0.2553711,-0.2368164,-0.1279297
1798,-47.25,6.9375,182.625,0.1713867,0.7666016,0.2290039,-0.2626953,-0.2192383,-0.1303711
1802,-58.4375,4.3125,185.0625,0.159668,0.7666016,0.2021484,-0.2734375,-0.2006836,-0.1333008
1806,-53,-3.0625,187.125,0.2255859,0.6147461,0.2983398,-0.2792969,-0.1904297,-0.1347656
1810,-36.6875,2.25,199.3125,0.2177734,0.5371094,0.340332,-0.2851563,-0.1704102,-0.1347656
1814,-34.875,4.25,212.25,0.2373047,0.6884766,0.2021484,-0.293457,-0.1494141,-0.137207
1818,-67.75,2.75,223.875,0.3535156,0.5839844,0.03662109,-0.2958984,-0.1357422,-0.1386719
1822,-97.6875,3.3125,219.875,0.4580078,0.300293,0.04443359,-0.3017578,-0.1108398,-0.1386719
1826,-111.875,1,220.75,0.4970703,-0.1772461,0.1171875,-0.3081055,-0.08544922,-0.1401367
1830,-97.125,5.375,224.8125,0.6132813,-0.6977539,0.2133789,-0.3081055,-0.06933594,-0.1416016
1834,-79.3125,5.6875,225.1875,0.7021484,-1.556641,0.1787109,-0.3056641,-0.04296875,-0.144043
1839,-62.0625,0.3125,185.4375,1.004395,-1.797363,0.4057617,-0.3066406,-0.02050781,-0.1401367
1843,-31.3125,-0.8125,111.9375,1.337891,-2.04248,0.4633789,-0.3081055,-0.006835938,-0.1401367
1847,-2,-2.3125,1.75,1.310547,-1.766602,0.4633789,-0.3056641,0,-0.1416016
1851,25.1875,-22.25,-73.6875,0.9194336,-1.199219,0.355957,-0.3066406,0,-0.1401367
1855,54.8125,-19.0625,-102.6875,0.9038086,-0.8647461,0.4018555,-0.3081055,-0.006835938,-0.1401367
1859,90.8125,-6.75,-121.5625,0.7797852,-0.5581055,0.3056641,-0.3105469,-0.01953125,-0.137207
1863,89.1875,-16.3125,-137.1875,0.6401367,-0.1152344,0.009765625,-0.3115234,-0.03564453,-0.1357422
1867,48.0625,-22.375,-147.75,0.7138672,-0.03369141,-0.1206055,-0.309082,-0.04833984,-0.1347656
1871,17.375,-22.4375,-161.25,0.7836914,-0.2470703,0.001953125,-0.309082,-0.06591797,-0.1347656
1875,15.9375,-21.5,-182.625,0.7529297,-0.3989258,0.159668,-0.3105469,-0.08056641,-0.1333008
1879,33.1875,-16.1875,-198.125,0.690918,-0.402832,0.2402344,-0.3066406,-0.09423828,-0.1318359
1883,50.25,-15.6875,-211.75,0.5239258,-0.2202148,0.2094727,-0.3041992,-0.1166992,-0.1289063
1887,52.9375,-18.0625,-216.25,0.3999023,0.03613281,0.09033203,-0.3007813,-0.1381836,-0.1279297
1891,39.4375,-2.875,-210.6875,0.4077148,0.1484375,-0.005371094,-0.2958984,-0.1542969,-0.1235352
1895,29.8125,21.875,-198.6875,0.3808594,0.1254883,0.04785156,-0.2875977,-0.1743164,-0.125
1899,37.625,48.0625,-203,0.3305664,0.04736328,0.2021484,-0.2792969,-0.1943359,-0.125
1903,58.375,41.8125,-234.875,0.1831055,0.08251953,0.2480469,-0.2724609,-0.2080078,-0.1289063
1907,62.9375,25.75,-263.125,-0.07617188,0.4829102,0.1098633,-0.2578125,-0.2304688,-0.1289063
1911,31.8125,4.9375,-262.4375,-0.08007813,1.287109,0.02880859,-0.2412109,-0.2529297,-0.1279297
1915,18.5,17.0625,-229.6875,-0.1728516,0.6459961,0.1787109,-0.2329102,-0.2680664,-0.1279297
1919,48.25,47.5625,-203.5625,-0.215332,0.5761719,0.1982422,-0.215332,-0.2841797,-0.1289063
1923,74.5625,63.75,-190.5625,-0.2773438,0.6733398,0.1787109,-0.1982422,-0.3017578,-0.1264648
1927,64.1875,54.625,-200.5625,-0.4443359,1.081055,-0.05126953,-0.1899414,-0.3105469,-0.1264648
1931,-5.4375,29.0625,-197.8125,-0.5527344,1.209473,-0.2207031,-0.1708984,-0.3256836,-0.1225586
1935,-52.5,26.625,-186.4375,-0.3745117,0.9023438,-0.04736328,-0.1533203,-0.3344727,-0.1289063
1939,-59.3125,51,-173.3125,-0.3901367,0.4985352,0.07910156,-0.1411133,-0.3393555,-0.1333008
1943,-10.9375,74.6875,-169.875,-0.4482422,0.2226563,0.3134766,-0.1259766,-0.3417969,-0.1401367
1947,68.625,74,-197.75,-0.7231445,0.4086914,0.3945313,-0.1069336,-0.3505859,-0.1401367
1951,114.5625,34.375,-228.8125,-0.9326172,0.9375,0.1865234,-0.09033203,-0.359375,-0.1347656
1955,96.625,-3.0625,-249.625,-0.9287109,1.380371,-0.04003906,-0.06738281,-0.3681641,-0.1279297
1959,37.6875,-13.5625,-247.625,-0.9326172,1.399902,-0.1591797,-0.04589844,-0.3779297,-0.1196289
1963,-4.5,-4,-236.6875,-0.8237305,0.9956055,-0.05126953,-0.03076172,-0.3793945,-0.1166992
1968,2.4375,19.375,-233.25,-0.8125,0.6069336,0.07519531,-0.006835938,-0.3818359,-0.1157227
1972,35,33.5,-238.9375,-0.8974609,0.3857422,0.125,0.01660156,-0.3818359,-0.1166992
1976,67.75,34.8125,-262.0625,-0.9868164,0.3857422,0.125,0.03320313,-0.3803711,-0.112793
1980,73.8125,22.75,-297.0625,-1.157227,0.5913086,-0.009277344,0.06054688,-0.3803711,-0.1044922
1984,55.0625,6.3125,-330.625,-1.343262,0.7080078,0.009765625,0.09033203,-0.3745117,-0.09667969
1988,47.8125,-6.375,-349.4375,-1.567871,0.7817383,0.08251953,0.109375,-0.3706055,-0.09521484
1992,50.9375,-5.875,-336.6875,-1.695801,0.8671875,0.1171875,0.1425781,-0.3579102,-0.09082031
1996,52.625,4.9375,-311.125,-1.715332,1.04248,0.09033203,0.1723633,-0.3417969,-0.08691406
2000,37.5,7.6875,-288.8125,-1.691895,1.232422,-0.005371094,0.1865234,-0.3320313,-0.08447266
2004,21.375,3.9375,-269.3125,-1.583496,1.287109,-0.02441406,0.2094727,-0.3120117,-0.08007813
2008,4.5625,3.1875,-242,-1.54834,1.364746,-0.06298828,0.2270508,-0.2944336,-0.07861328
2012,-1.1875,10.8125,-195,-1.509766,1.376465,0.05957031,0.2368164,-0.2817383,-0.08007813
2016,-1.875,24.5625,-136.4375,-1.45166,1.403809,0.1328125,0.25,-0.2695313,-0.08007813
2020,1.25,31.875,-87.5,-1.335449,1.267578,0.2597656,0.2558594,-0.2607422,-0.07470703
2024,5.75,35.9375,-56.6875,-1.195801,1.255859,0.2597656,0.2602539,-0.2558594,-0.07470703
2028,1.4375,26.75,-37.1875,-1.176758,1.13916,0.2827148,0.2617188,-0.2519531,-0.07177734
2032,7.375,20.3125,-20.375,-1.067871,0.9916992,0.3251953,0.2651367,-0.2495117,-0.06933594
2036,19.4375,18.4375,-7.25,-1.001953,0.9101563,0.3056641,0.2651367,-0.2480469,-0.06933594
2040,21.125,14.9375,0.25,-0.9750977,0.921875,0.2441406,0.2641602,-0.2495117,-0.06542969
2044,18.0625,6,7.4375,-0.9985352,0.8481445,0.2290039,0.2651367,-0.2495117,-0.06542969
2048,21.3125,1.9375,13.5,-0.9130859,0.7856445,0.2133789,0.2666016,-0.2480469,-0.0625
2052,27,1.9375,17.0625,-0.9052734,0.7314453,0.1748047,0.2666016,-0.2504883,-0.06103516
2056,28.5,0.1875,17.4375,-0.9130859,0.7353516,0.1132813,0.2626953,-0.2529297,-0.05957031
2060,22.4375,-0.25,15.125,-0.8896484,0.7353516,0.03271484,0.2641602,-0.2529297,-0.05566406
2064,15.5625,1.3125,14.9375,-0.9052734,0.6845703,-0.001464844,0.2617188,-0.2568359,-0.05712891
2068,13.4375,1,20.625,-1.041016,0.6225586,-0.005371094,0.2617188,-0.2568359,-0.05566406
2072,16.0625,-4.0625,31.625,-1.071777,0.5800781,-0.01660156,0.2617188,-0.2583008,-0.05419922
2076,15.75,-6.9375,36.625,-1.009766,0.5097656,-0.03613281,0.2592773,-0.2607422,-0.05419922
2080,22.375,-6.3125,36.1875,-0.9438477,0.4360352,-0.02832031,0.2543945,-0.265625,-0.05419922
2084,26.375,-5.6875,32.75,-0.9169922,0.4399414,-0.04736328,0.2543945,-0.2670898,-0.05419922
2088,20.375,-7.375,24.8125,-0.8666992,0.4672852,-0.08203125,0.2519531,-0.2695313,-0.05273438
2092,10.5625,-9.0625,19.125,-0.862793,0.4594727,-0.1015625,0.253418,-0.2705078,-0.05175781
2097,0.3125,-11,22.375,-0.9052734,0.4165039,-0.08984375,0.2509766,-0.2719727,-0.05419922
2101,-4.875,-11.8125,29.8125,-0.8510742,0.4013672,-0.07080078,0.2485352,-0.2729492,-0.05273438
2105,-6.6875,-6.25,34,-0.8085938,0.3818359,-0.04736328,0.2475586,-0.2768555,-0.05566406
2109,-5.3125,-3.1875,34.0625,-0.847168,0.4052734,-0.02050781,0.2460938,-0.2792969,-0.05419922
2113,2.375,-0.6875,35.25,-0.8276367,0.3974609,0.04052734,0.2436523,-0.2807617,-0.05566406
2117,2.8125,0.8125,34.3125,-0.8745117,0.4790039,0.01367188,0.2426758,-0.2832031,-0.05566406
2121,2.875,-2.625,38.25,-0.9169922,0.4750977,0.03662109,0.2402344,-0.2856445,-0.05566406
2125,3.875,-2.4375,45.3125,-0.9248047,0.4790039,0.05566406,0.2392578,-0.2895508,-0.05419922
2129,4.25,-1,50.5625,-0.9208984,0.5136719,0.05957031,0.234375,-0.2929688,-0.05419922
2133,2.6875,-0.125,52.3125,-0.9287109,0.5683594,0.07128906,0.230957,-0.2944336,-0.05419922
2137,1.5625,-3,52.3125,-0.9516602,0.6108398,0.09033203,0.2285156,-0.2983398,-0.05273438
2141,6,-6.5625,57.3125,-1.005859,0.6186523,0.1479492,0.2246094,-0.3032227,-0.05419922
2145,14.875,-6.75,67.5625,-1.029297,0.6616211,0.159668,0.2211914,-0.3041992,-0.05419922
2149,19.9375,-8.625,81.25,-1.009766,0.7197266,0.1171875,0.2163086,-0.3120117,-0.05175781
2153,19.875,-7.5625,92.1875,-0.9516602,0.7626953,0.1020508,0.2094727,-0.3154297,-0.05029297
2157,20.6875,-7.8125,96.0625,-0.9594727,0.809082,0.07128906,0.2055664,-0.3208008,-0.05029297
2161,19.75,-11.875,95.25,-1.001953,0.921875,0.06738281,0.1972656,-0.3266602,-0.05029297
2165,14.9375,-18,100.4375,-1.067871,1.01123,0.02490234,0.1914063,-0.3330078,-0.05029297
2169,5.9375,-16.3125,119.125,-1.11084,1.069336,-0.03222656,0.1855469,-0.3378906,-0.04882813
2173,-2.6875,-10.125,144.9375,-1.056641,1.04248,-0.02832031,0.1748047,-0.3457031,-0.05029297
2177,-6.0625,0.4375,157.9375,-1.013672,1.038574,0.009765625,0.1616211,-0.3544922,-0.05175781
2181,-11.0625,0.1875,159.4375,-0.9985352,1.100586,-0.03222656,0.1508789,-0.3603516,-0.05175781
2185,-30.25,-5.4375,148.875,-1.029297,1.240234,-0.1015625,0.1367188,-0.3666992,-0.05419922
2189,-53.0625,-15.125,150.5625,-1.095215,1.244141,-0.1513672,0.1235352,-0.3706055,-0.05712891
2193,-42.3125,-11.125,180,-1.075684,0.9140625,0.04785156,0.1142578,-0.3754883,-0.06103516
2197,2,19.375,217.5625,-0.878418,0.9335938,0.07910156,0.09619141,-0.3803711,-0.06396484
2201,13.75,33,227.625,-0.847168,1.13916,-0.02050781,0.07373047,-0.3881836,-0.06103516
2205,-19.75,14.8125,209.375,-0.8432617,1.263672,-0.1054688,0.06054688,-0.390625,-0.06103516
2209,-56.3125,-10.75,185.75,-0.7348633,1.131836,-0.07080078,0.03808594,-0.3916016,-0.0625
2213,-46.75,-17.625,183.0625,-0.7114258,0.793457,0.159668,0.02148438,-0.3916016,-0.07080078
2217,-15.9375,-2.8125,201.9375,-0.6342773,0.824707,0.1328125,0.008300781,-0.3916016,-0.07324219
2221,-7,11.9375,222,-0.5449219,0.90625,0.005859375,-0.01269531,-0.3891602,-0.07617188
2226,-20.875,18,215.9375,-0.4555664,0.9101563,-0.01660156,-0.03515625,-0.3881836,-0.07617188
2230,-27.8125,5.8125,187.625,-0.4443359,0.7739258,0.06738281,-0.04980469,-0.3867188,-0.07763672
2234,-17.1875,-5.0625,174.25,-0.4907227,0.7973633,0.09423828,-0.06640625,-0.3818359,-0.07763672
2238,-10.5625,-2.5,184.25,-0.4052734,0.8481445,0.05957031,-0.08398438,-0.3779297,-0.08154297
2242,-0.5,11.3125,197.0625,-0.328125,0.8012695,0.09033203,-0.09716797,-0.3745117,-0.08300781
2246,-0.4375,21.625,202.5,-0.3085938,0.9414063,-0.03613281,-0.1152344,-0.3681641,-0.08300781
2250,-33.5625,13.6875,191.1875,-0.2890625,0.9643555,-0.07861328,-0.1318359,-0.359375,-0.08447266
2254,-52,-1.8125,172.0625,-0.1962891,0.7353516,0.05175781,-0.1450195,-0.3520508,-0.08691406
2258,-37.875,-5.0625,171.0625,-0.1533203,0.5800781,0.1289063,-0.1591797,-0.3408203,-0.09082031
2262,-24.5625,6.25,180.625,-0.06054688,0.6616211,0.09033203,-0.1748047,-0.3320313,-0.09375
2266,-30.375,11.625,181.25,-0.06835938,0.7895508,-0.009277344,-0.1831055,-0.3232422,-0.09228516
2270,-51.0625,6.1875,175.9375,0.0009765625,0.7392578,0.04443359,-0.199707,-0.3105469,-0.09521484
2274,-54.8125,1.0625,162.6875,0.05908203,0.6108398,0.1328125,-0.2114258,-0.2983398,-0.1020508
2278,-34.5,1.6875,163.1875,0.04345703,0.4868164,0.2675781,-0.21875,-0.2895508,-0.1044922
2282,-8.9375,9.375,169.1875,0.09033203,0.6069336,0.2597656,-0.2280273,-0.2768555,-0.105957
2286,-12.6875,10.25,172.625,0.1015625,0.7739258,0.1635742,-0.2412109,-0.2617188,-0.1074219
2290,-13.375,1.375,165.125,0.03955078,0.8442383,0.2290039,-0.2485352,-0.2558594,-0.1088867
2294,-26.5625,-5.25,168.9375,0.109375,0.8598633,0.1982422,-0.2568359,-0.2407227,-0.1098633
2298,-28.8125,-0.0625,178.5,0.1518555,0.8632813,0.2021484,-0.2675781,-0.2255859,-0.1098633
2302,-43,-2,182,0.1367188,0.8789063,0.159668,-0.2744141,-0.2128906,-0.1088867
2306,-47.75,-5.875,190.375,0.1328125,0.8520508,0.1787109,-0.2841797,-0.1958008,-0.1113281
2310,-64.25,-10.75,197.1875,0.2177734,0.777832,0.1132813,-0.2915039,-0.1743164,-0.1166992
2314,-56.8125,-15.8125,200.8125,0.3149414,0.4282227,0.2441406,-0.2973633,-0.1606445,-0.112793
2318,-40.5,-10.9375,206,0.3925781,0.2729492,0.2675781,-0.3041992,-0.140625,-0.1166992
2322,-46.5625,-5,211.875,0.4931641,0.2612305,0.07519531,-0.309082,-0.1166992,-0.1157227
2326,-74.1875,-7.8125,205.9375,0.5551758,-0.04150391,0.04443359,-0.3105469,-0.1020508,-0.1157227
2330,-105,-10.25,192.125,0.7021484,-0.2900391,0.04443359,-0.3164063,-0.07958984,-0.112793
2334,-132.125,-18.8125,169.0625,0.8071289,-0.9853516,0.07910156,-0.3173828,-0.05566406,-0.112793
2338,-99.625,-15.5625,142.75,1.171387,-1.731445,0.2944336,-0.3173828,-0.04589844,-0.112793
2342,-48.5,6.0625,98.0625,1.337891,-1.855957,0.2250977,-0.3188477,-0.03076172,-0.1098633
2346,-23.9375,1.5,20.5625,1.333984,-1.638184,0.09814453,-0.3173828,-0.02050781,-0.1098633
2350,-3.4375,-7.75,-57.5625,1.198242,-1.439941,0.2094727,-0.3173828,-0.02050781,-0.1074219
2355,39.4375,-5.875,-98.6875,0.9814453,-1.15625,0.2827148,-0.3173828,-0.02832031,-0.1088867
2359,69.5625,-3.8125,-121.0625,0.7758789,-0.7211914,0.1713867,-0.3188477,-0.04199219,-0.1088867
2363,64.6875,-7.1875,-135.875,0.7412109,-0.3520508,-0.005371094,-0.3188477,-0.05175781,-0.1098633
2367,37.625,-4.8125,-150.9375,0.7529297,-0.2431641,-0.04394531,-0.3198242,-0.06591797,-0.1098633
2371,30.5625,2.875,-164.625,0.7490234,-0.3442383,0.07910156,-0.3173828,-0.08300781,-0.1088867
2375,46.3125,11.3125,-179.5625,0.6328125,-0.340332,0.1826172,-0.3149414,-0.09423828,-0.1074219
2379,76,12.125,-191.0625,0.527832,-0.324707,0.2636719,-0.3125,-0.1166992,-0.1098633
2383,95.375,18.5,-199.9375,0.4580078,-0.1074219,0.1289063,-0.3066406,-0.1367188,-0.1088867
2387,94.75,23.625,-207.1875,0.3535156,0.01660156,0.07910156,-0.3017578,-0.1533203,-0.1074219
2391,100.375,26.375,-210.125,0.2026367,0.05908203,0.08251953,-0.2924805,-0.1767578,-0.1074219
2395,130.0625,33.6875,-208.25,0.1557617,-0.01025391,0.1713867,-0.2841797,-0.1982422,-0.1074219
2399,139.625,32.5625,-219.3125,0.01660156,0.3544922,-0.04003906,-0.2768555,-0.2158203,-0.1044922
2403,92.75,9.5625,-238,-0.1108398,0.3193359,-0.2089844,-0.2617188,-0.2368164,-0.09667969
2407,17.75,-19.6875,-270.875,-0.1420898,0.6186523,-0.1708984,-0.2485352,-0.2592773,-0.09521484
2411,31.375,-11.375,-280.625,-0.1499023,0.3120117,0.1826172,-0.2363281,-0.2729492,-0.09521484
2415,82.25,8.6875,-265,-0.3935547,0.4052734,0.1367188,-0.2163086,-0.296875,-0.09082031
2419,100.125,20.4375,-249.9375,-0.4907227,0.8945313,-0.1708984,-0.1962891,-0.3154297,-0.08691406
2423,40.0625,7.75,-248.5625,-0.5991211,1.271484,-0.4321289,-0.1831055,-0.328125,-0.08154297
2427,-28.125,-7.1875,-256.0625,-0.5024414,1.069336,-0.2744141,-0.1625977,-0.3432617,-0.08154297
2431,-46.75,-2.0625,-255.25,-0.5292969,0.5839844,0.04785156,-0.1401367,-0.3554688,-0.08300781
2435,12,17.5625,-253.25,-0.5991211,0.3310547,0.2749023,-0.1259766,-0.3618164,-0.08544922
2439,53.375,21.8125,-252.5,-0.8510742,0.6420898,0.04443359,-0.09960938,-0.3745117,-0.08300781
2443,51,8,-265.25,-0.9248047,0.921875,-0.09765625,-0.07470703,-0.3818359,-0.07861328
2447,4.8125,-6.125,-272.9375,-1.033203,1.12793,-0.2363281,-0.05566406,-0.3842773,-0.07617188
2451,-42.1875,-7.6875,-267.625,-0.9594727,0.8984375,-0.1362305,-0.02929688,-0.3891602,-0.07763672
2455,-47.375,6.9375,-262.1875,-0.9790039,0.4516602,0.05957031,-0.004394531,-0.390625,-0.08544922
2459,12.6875,28.6875,-272.875,-1.009766,0.1333008,0.2441406,0.01513672,-0.3891602,-0.08544922
2463,74.875,31.5,-303.5625,-1.32373,0.4516602,0.1098633,0.04248047,-0.3881836,-0.08154297
2467,80.4375,7.0625,-334.875,-1.649414,0.956543,-0.04736328,0.07373047,-0.3857422,-0.07177734
2471,51.875,-20.75,-331.875,-1.819824,1.209473,-0.05908203,0.09619141,-0.3769531,-0.06787109
2475,26.25,-26.25,-295.5625,-1.765625,1.124023,-0.04394531,0.1269531,-0.3666992,-0.06542969
2479,18.125,-8.875,-256.1875,-1.591309,0.9296875,-0.06298828,0.1523438,-0.3569336,-0.06103516
2484,11,2.25,-243.75,-1.467285,0.8325195,-0.1630859,0.1674805,-0.3491211,-0.0625
2488,-0.4375,4.25,-250.375,-1.370117,0.7626953,-0.1474609,0.1879883,-0.3344727,-0.06103516
2492,-12.125,9.875,-261.875,-1.37793,0.7817383,-0.07861328,0.2045898,-0.3178711,-0.0625
2496,-19,16.0625,-267.4375,-1.405273,0.7856445,0.01367188,0.2202148,-0.3066406,-0.06103516
2500,-19.625,10.1875,-262.0625,-1.641602,0.824707,0.1713867,0.237793,-0.2866211,-0.06103516
2504,-8.6875,-4.1875,-233.875,-1.657227,0.9140625,0.2329102,0.253418,-0.265625,-0.0625
2508,-5.125,-9.25,-197.625,-1.575684,1.073242,0.1943359,0.2617188,-0.2558594,-0.06396484
2512,-12.0625,-11.25,-168.75,-1.424316,1.197754,0.07519531,0.2724609,-0.2392578,-0.06542969
2516,-20.125,-6.6875,-140,-1.347168,1.182129,0.1020508,0.2792969,-0.2246094,-0.06787109
2520,-11.4375,8.8125,-102.9375,-1.261719,1.061523,0.2211914,0.2841797,-0.2158203,-0.06640625
2524,13.8125,19.625,-58.125,-1.374023,0.9916992,0.3017578,0.2856445,-0.2070313,-0.06787109
2528,36.5625,18.4375,-16.5,-1.300781,1.003418,0.2905273,0.2890625,-0.2055664,-0.06396484
2532,37.875,12,7.5625,-1.211426,1.003418,0.1904297,0.2915039,-0.2055664,-0.0625
2536,29.5,3.0625,17.8125,-1.106934,0.9179688,0.1210938,0.2880859,-0.2055664,-0.06103516
2540,22.625,-1.6875,23.25,-1.044922,0.7895508,0.1020508,0.2880859,-0.2080078,-0.05859375
2544,24.5625,-2.375,29.4375,-1.013672,0.7041016,0.09814453,0.2890625,-0.2094727,-0.05957031
2548,26.6875,-1.375,34.3125,-0.9907227,0.6655273,0.05175781,0.2841797,-0.2119141,-0.05566406
2552,21.125,-1.5625,35.5,-0.9907227,0.6772461,-0.02050781,0.2841797,-0.2158203,-0.05712891
2556,5.625,-5.125,35.875,-1.001953,0.6772461,-0.1015625,0.2832031,-0.2192383,-0.05419922
2560,-6.5,-6.5625,41.25,-0.9477539,0.5527344,-0.05517578,0.2832031,-0.2231445,-0.05712891
2564,-3.375,1.375,48.375,-0.9013672,0.4985352,-0.04003906,0.2792969,-0.2255859,-0.05712891
2568,-10.9375,6.3125,55.25,-0.8974609,0.4516602,-0.08984375,0.2783203,-0.2280273,-0.05712891
2572,-18.125,11.0625,59.25,-0.8198242,0.315918,-0.08984375,0.2749023,-0.234375,-0.05712891
2576,-28.6875,16.875,55.3125,-0.78125,0.237793,-0.1015625,0.2734375,-0.2368164,-0.05712891
2580,-41.9375,17.5625,43.9375,-0.8164063,0.1333008,-0.05126953,0.2709961,-0.2407227,-0.05566406
2584,-41.6875,16.0625,29.375,-0.8666992,0.01269531,0.07128906,0.269043,-0.2456055,-0.05712891
2588,-29.625,10.9375,13.375,-0.9672852,-0.002441406,0.1479492,0.2700195,-0.2470703,-0.05957031
2592,-7.5,-0.1875,0.3125,-1.029297,0.01269531,0.1943359,0.2666016,-0.2470703,-0.05859375
2596,15.6875,-13.25,-8.5625,-1.087402,0.1137695,0.1518555,0.2666016,-0.2470703,-0.05712891
2600,29.375,-19.4375,-9.4375,-1.071777,0.2573242,0.04052734,0.269043,-0.2456055,-0.05859375
2604,26.9375,-20.5,-7.0625,-1.001953,0.4052734,-0.06689453,0.269043,-0.2441406,-0.05957031
2608,14.1875,-18.8125,-3.25,-0.9711914,0.4985352,-0.1166992,0.2675781,-0.2441406,-0.06103516
2613,8.1875,-15.25,6.1875,-0.9868164,0.4829102,-0.02441406,0.269043,-0.2441406,-0.06103516
2617,21.4375,-10.75,23.5625,-1.025391,0.4907227,0.04443359,0.2700195,-0.2456055,-0.0625
2621,32.375,-6.1875,40.5,-1.013672,0.5878906,0.02880859,0.2666016,-0.2495117,-0.05957031
2625,33.625,-4.6875,52.9375,-1.025391,0.6420898,-0.005371094,0.2641602,-0.2519531,-0.05859375
2629,29.1875,-3.6875,62.6875,-1.056641,0.6962891,-0.03613281,0.2617188,-0.2558594,-0.05712891
2633,19.9375,-2.1875,73.375,-1.029297,0.7158203,-0.04394531,0.2592773,-0.2617188,-0.05712891
2637,6.6875,3,82.125,-1.025391,0.7470703,-0.04394531,0.2543945,-0.2680664,-0.05712891
2641,-8.4375,2.8125,88.25,-1.071777,0.7470703,-0.01318359,0.25,-0.2729492,-0.05712891
2645,-11.6875,1.5,95.6875,-1.056641,0.6538086,0.09033203,0.2436523,-0.2807617,-0.05419922
2649,-0.625,4.625,102.5625,-1.07959,0.6459961,0.1713867,0.2392578,-0.2866211,-0.05566406
2653,11.75,1.75,110.125,-1.133789,0.6962891,0.1982422,0.234375,-0.2929688,-0.05566406
2657,20.0625,-4.5,116.875,-1.157227,0.7626953,0.1635742,0.2270508,-0.3007813,-0.05419922
2661,20.75,-9.75,121.8125,-1.133789,0.8632813,0.1098633,0.21875,-0.3095703,-0.05419922
2665,12.875,-10.375,127.875,-1.125977,0.921875,0.01367188,0.2128906,-0.3154297,-0.05029297
2669,-2.5,-7.3125,134.5625,-1.087402,0.9799805,-0.04394531,0.2021484,-0.3217773,-0.05273438
2673,-22.9375,-3.6875,139.75,-1.106934,0.9916992,-0.06298828,0.1904297,-0.3320313,-0.05419922
2677,-30.8125,-0.875,148.4375,-1.095215,0.8520508,0.04443359,0.1821289,-0.3378906,-0.05566406
2681,-16.4375,6.4375,152.1875,-1.083496,0.7856445,0.1132813,0.1738281,-0.3457031,-0.05712891
2685,-4.6875,3.3125,158.375,-1.145508,0.8520508,0.1020508,0.1582031,-0.3544922,-0.05712891
2689,-11.25,-1.5,167.1875,-1.141602,0.9296875,0.04052734,0.1474609,-0.359375,-0.05859375
2693,-26.0625,-6.5625,174.875,-1.083496,0.921875,0.03662109,0.1333008,-0.3666992,-0.05957031
2697,-35.5,-9.875,182.0625,-0.9985352,0.8598633,0.04052734,0.1166992,-0.3754883,-0.06542969
2701,-37.4375,-4.5625,182.8125,-0.8896484,0.8208008,0.03662109,0.1044922,-0.3779297,-0.06640625
2705,-34.125,-1,179.25,-0.9052734,0.824707,0.04785156,0.08691406,-0.3842773,-0.07177734
2709,-30.5625,-2.5,176.3125,-0.8549805,0.8286133,0.05957031,0.06982422,-0.3867188,-0.07324219
2713,-26.875,-6.375,181.75,-0.8857422,0.8710938,0.03662109,0.05810547,-0.3881836,-0.07617188
2717,-35.6875,-6.5625,191.1875,-0.7578125,0.9179688,-0.005371094,0.0390625,-0.390625,-0.08154297
2721,-46.75,-1.1875,196.0625,-0.6962891,0.855957,-0.01318359,0.01904297,-0.390625,-0.08544922
2725,-46.875,-0.6875,197.3125,-0.7036133,0.793457,0.005859375,0.008300781,-0.3891602,-0.08837891
2729,-44.8125,-3.9375,196.9375,-0.6147461,0.7587891,0.05566406,-0.01269531,-0.3881836,-0.09228516
2733,-39,-4,190.5,-0.5292969,0.6962891,0.09814453,-0.03173828,-0.3867188,-0.09521484
2737,-34.8125,-9.9375,182.5625,-0.5063477,0.6845703,0.09033203,-0.04492188,-0.3842773,-0.09912109
2742,-24.6875,-15.6875,176.375,-0.4326172,0.6577148,0.1171875,-0.06152344,-0.3793945,-0.1005859
2746,-12.125,-13.375,171.5,-0.3974609,0.7431641,0.08251953,-0.07958984,-0.3745117,-0.1035156
2750,-7.3125,-9.75,176.25,-0.3974609,0.8442383,0.01367188,-0.08886719,-0.3681641,-0.1035156
2754,-9.5,-2.25,177.125,-0.347168,0.921875,0.02099609,-0.1079102,-0.3642578,-0.1035156
2758,-16.5,-3,171.3125,-0.347168,0.9492188,0.03271484,-0.1220703,-0.3569336,-0.1044922
2762,-18.625,-10.3125,169.5625,-0.3549805,0.956543,0.02880859,-0.1352539,-0.3520508,-0.1074219
2766,-21.0625,-14.625,175.5625,-0.3203125,0.9604492,0.04052734,-0.1484375,-0.3442383,-0.1074219
2770,-21.3125,-16.625,183.4375,-0.296875,0.9414063,0.03662109,-0.1665039,-0.3344727,-0.105957
2774,-23.8125,-8.25,201.9375,-0.2041016,0.9760742,-0.06689453,-0.1757813,-0.3266602,-0.1074219
2778,-34.75,7.5625,213.8125,-0.1572266,0.890625,0.005859375,-0.1938477,-0.3105469,-0.1088867
2782,-37.75,8.25,213.9375,-0.1381836,0.8129883,0.07128906,-0.2089844,-0.2983398,-0.1142578
2786,-34,-0.4375,211.5625,-0.1650391,0.7548828,0.09423828,-0.2172852,-0.2856445,-0.112793
2790,-27.25,0.9375,218.1875,-0.1030273,0.8129883,0.09814453,-0.2329102,-0.2680664,-0.1166992
2794,-30.5625,-3.8125,217.25,-0.1264648,0.7817383,0.1557617,-0.2470703,-0.2519531,-0.1181641
2798,-36.875,-19.4375,214.4375,-0.1459961,0.7739258,0.1982422,-0.2568359,-0.2382813,-0.1181641
2802,-49.5,-43.3125,212.125,-0.07617188,0.6616211,0.2021484,-0.2675781,-0.2192383,-0.1166992
2806,-54.5625,-47.8125,217.75,0.109375,0.4321289,0.2636719,-0.2827148,-0.1967773,-0.1157227
2810,-63.5625,-50.1875,219.4375,0.2177734,0.1757813,0.2133789,-0.2875977,-0.1855469,-0.112793
2814,-69.75,-57.375,209.375,0.3886719,-0.1850586,0.2558594,-0.2998047,-0.1621094,-0.1113281
2818,-77.6875,-59.6875,188.6875,0.6635742,-0.5229492,0.2402344,-0.3066406,-0.1381836,-0.1074219
2822,-76.625,-59,162.25,0.9501953,-0.9467773,0.1826172,-0.3115234,-0.1254883,-0.1044922
2826,-94.6875,-56.875,137.5625,1.171387,-1.241699,0.005859375,-0.3149414,-0.109375,-0.1005859
2830,-95.4375,-44.3125,109.5625,1.558594,-1.902344,-0.01660156,-0.3188477,-0.09326172,-0.09667969
2834,-51.1875,-19.125,40.375,1.880371,-2.162598,0.07519531,-0.3198242,-0.08300781,-0.09375
2838,19.375,2.5,-51.5625,1.608887,-1.739258,0.159668,-0.3222656,-0.08056641,-0.09521484
2842,66.6875,11.6875,-116.25,1.229492,-1.008789,0.05957031,-0.3208008,-0.09082031,-0.09375
2846,90.0625,24.3125,-136.1875,0.8652344,-0.3950195,-0.005371094,-0.3173828,-0.1020508,-0.09375
2850,80.875,22.5,-130.375,0.6635742,0.07470703,-0.07861328,-0.3149414,-0.1166992,-0.09667969
2854,46.625,12.1875,-133.8125,0.7490234,0.21875,-0.1245117,-0.3115234,-0.1308594,-0.09521484
2858,15.1875,9.125,-143.0625,0.7602539,0.1176758,0.005859375,-0.3081055,-0.140625,-0.09667969
2862,15.3125,11.5625,-149.875,0.7373047,-0.07226563,0.2060547,-0.3032227,-0.1557617,-0.09667969
2866,31.5,14.25,-160.75,0.6401367,-0.08789063,0.2749023,-0.2973633,-0.1733398,-0.09765625
2871,44.75,14.375,-169.875,0.5629883,0.0009765625,0.2675781,-0.2949219,-0.1831055,-0.09912109
2875,59.8125,18.625,-170.4375,0.4892578,0.03222656,0.2441406,-0.2851563,-0.2016602,-0.09765625
2879,73.25,34.625,-159.8125,0.4350586,0.1333008,0.1479492,-0.2758789,-0.2182617,-0.09912109
2883,85.8125,58.4375,-139.5625,0.3613281,0.1601563,0.09814453,-0.2709961,-0.2280273,-0.09667969
2887,89.4375,73.125,-136.1875,0.2177734,0.2729492,0.01708984,-0.2617188,-0.2416992,-0.09667969
2891,77.6875,60.25,-156,0.1015625,0.2729492,0.02490234,-0.2519531,-0.2558594,-0.09765625
2895,62.9375,36.625,-194.3125,-0.02587891,0.3896484,0.01708984,-0.2426758,-0.2670898,-0.09521484
2899,35.0625,8.125,-232.375,-0.1499023,0.5566406,-0.07080078,-0.2280273,-0.2841797,-0.09667969
2903,6.1875,-7.625,-253.3125,-0.1884766,0.6303711,-0.02050781,-0.2128906,-0.3007813,-0.09228516
2907,9.75,5.8125,-248.0625,-0.2890625,0.3544922,0.1171875,-0.1982422,-0.3120117,-0.09521484
2911,39.4375,26.6875,-237.4375,-0.4169922,0.2729492,0.1518555,-0.1782227,-0.3266602,-0.09521484
2915,89.75,45.3125,-233.5625,-0.5795898,0.3232422,0.1635742,-0.1567383,-0.3432617,-0.09228516
2919,117.5,38.3125,-242.4375,-0.8237305,0.6381836,-0.02050781,-0.1435547,-0.3520508,-0.08544922
2923,86.3125,5.25,-264.125,-0.9208984,1.077148,-0.2978516,-0.1186523,-0.3666992,-0.07763672
2927,8.125,-29.375,-279,-0.9594727,1.069336,-0.2475586,-0.09375,-0.3754883,-0.07470703
2931,-14.5,-33.4375,-278.75,-0.9130859,0.7392578,0.001953125,-0.07568359,-0.3803711,-0.07470703
2935,3.625,-17.6875,-268.5,-1.021484,0.5371094,0.09423828,-0.04736328,-0.3867188,-0.07177734
2939,39,-9.8125,-259.25,-1.12207,0.4633789,0.09814453,-0.02001953,-0.3916016,-0.07177734
2943,88.9375,-11.125,-265.25,-1.257813,0.5175781,0.04052734,-0.005859375,-0.3930664,-0.06787109
2947,100.6875,-23.375,-265.5,-1.331543,0.9179688,-0.2744141,0.02246094,-0.3945313,-0.05859375
2951,60.8125,-32.625,-263.6875,-1.25,1.120117,-0.4399414,0.04638672,-0.3916016,-0.04882813
2955,22.125,-22.9375,-258.875,-1.168945,1.162598,-0.4555664,0.06542969,-0.3916016,-0.04736328
2959,-24.375,-7,-242.9375,-1.230957,1.20166,-0.4902344,0.08886719,-0.3818359,-0.04638672
2963,-79.5,5.5,-226.5625,-1.215332,1.034668,-0.3901367,0.1118164,-0.3769531,-0.05029297
2967,-109.625,12.6875,-217.4375,-1.187988,0.6577148,-0.1860352,0.125,-0.3706055,-0.05273438
2971,-104.25,28.75,-228.4375,-1.07959,0.3388672,0.05566406,0.1459961,-0.3579102,-0.06396484
2975,-72.4375,45.5625,-256.1875,-1.277344,0.253418,0.2558594,0.1674805,-0.3457031,-0.07080078
2979,-36.75,35.9375,-284.0625,-1.57959,0.3623047,0.3637695,0.1821289,-0.3354492,-0.07177734
2983,9.125,8.3125,-288.625,-1.79248,0.5371094,0.4750977,0.2045898,-0.3178711,-0.07080078
2987,45,-7.1875,-272.6875,-1.815918,0.8598633,0.4057617,0.2246094,-0.296875,-0.07177734
2991,54.875,-18.75,-245.0625,-1.804199,1.17041,0.2133789,0.237793,-0.2856445,-0.06933594
2995,42.125,-26.375,-211.8125,-1.633789,1.395996,0.01367188,0.253418,-0.2680664,-0.06933594
3000,17.875,-17.0625,-177.4375,-1.45166,1.508301,-0.08203125,0.2641602,-0.2519531,-0.06787109
3004,-2.8125,-5.3125,-138.75,-1.436035,1.442383,-0.009277344,0.2700195,-0.2441406,-0.06787109
3008,-7.8125,9.875,-93.125,-1.405273,1.333496,0.1713867,0.2758789,-0.2319336,-0.06933594
3012,-3.6875,21,-45.5,-1.416992,1.174316,0.2944336,0.2807617,-0.2270508,-0.06933594
3016,4.75,18.375,-9.125,-1.358887,1.04248,0.340332,0.2807617,-0.2246094,-0.06640625
3020,8.875,11.75,9.9375,-1.215332,0.956543,0.2905273,0.2817383,-0.2255859,-0.06787109
3024,7.3125,4.1875,18.375,-1.103027,0.840332,0.2250977,0.2792969,-0.2255859,-0.0625
3028,8.125,0.125,24.375,-1.017578,0.7080078,0.2021484,0.2792969,-0.2255859,-0.0625
3032,15,0.375,28.3125,-0.9555664,0.6147461,0.1674805,0.2783203,-0.2294922,-0.0625
3036,16.875,-0.75,27.1875,-0.9326172,0.5800781,0.08642578,0.2749023,-0.2319336,-0.0625
3040,13.125,-3.1875,25.5,-0.8974609,0.5722656,0.01367188,0.2758789,-0.2319336,-0.06103516
3044,9,-0.9375,25.0625,-0.8706055,0.5332031,0.001953125,0.2734375,-0.2358398,-0.06103516
3048,2.25,1.125,24.625,-0.8745117,0.5371094,-0.03613281,0.2724609,-0.2382813,-0.05957031
3052,-10.375,0.75,23.0625,-0.862793,0.5332031,-0.07470703,0.2709961,-0.2382813,-0.06103516
3056,-17.25,-1.1875,24.25,-0.8935547,0.4360352,0.01367188,0.2724609,-0.2392578,-0.0625
3060,-12.6875,-5.125,27.5625,-0.9516602,0.3779297,0.04785156,0.269043,-0.2416992,-0.0625
3064,-0.125,-8.1875,29.125,-0.9130859,0.3041992,0.105957,0.2700195,-0.2456055,-0.06396484
3068,21.625,-3.75,28.0625,-0.9248047,0.3120117,0.08251953,0.2675781,-0.2456055,-0.06396484
3072,28.6875,-5.25,25.0625,-0.9477539,0.4438477,-0.009277344,0.2651367,-0.2480469,-0.06396484
3076,19.5625,-9,22.75,-0.9711914,0.5527344,-0.05126953,0.2651367,-0.2504883,-0.0625
3080,8.9375,-10.875,26.8125,-1.001953,0.5878906,-0.06689453,0.2651367,-0.2519531,-0.06103516
3084,3.8125,-8.3125,39.375,-1.013672,0.5878906,-0.02832031,0.2626953,-0.2558594,-0.06396484
3088,2.9375,0.1875,56.75,-1.017578,0.5761719,0.005859375,0.2602539,-0.2568359,-0.0625
3092,4.75,4.9375,69.375,-1.029297,0.5449219,0.07910156,0.2568359,-0.2631836,-0.0625
3096,9.6875,2.625,75.1875,-1.033203,0.5371094,0.1289063,0.2519531,-0.2695313,-0.05859375
3100,14,-2.5,74.75,-1.005859,0.5683594,0.125,0.2485352,-0.2729492,-0.06103516
3104,17.3125,-5.75,74.4375,-1.013672,0.6420898,0.1020508,0.2451172,-0.2783203,-0.05957031
3108,18.875,-5.6875,83.125,-1.095215,0.7158203,0.09814453,0.237793,-0.2856445,-0.05859375
3112,24.625,-1,106.9375,-1.106934,0.8129883,0.08642578,0.2368164,-0.2895508,-0.05712891
3116,22.5625,10.6875,133.75,-1.099121,0.8867188,0.04052734,0.2285156,-0.2993164,-0.05566406
3120,14.1875,14.0625,145.3125,-1.103027,0.9375,-0.005371094,0.21875,-0.3081055,-0.05419922
3124,2.6875,3.375,143.5,-1.15332,0.9414063,-0.01318359,0.2128906,-0.3144531,-0.05175781
3129,-2.75,-9.3125,141.4375,-1.15332,0.8828125,0.03271484,0.2011719,-0.3232422,-0.05175781
3133,4,-10.6875,150.5,-1.157227,0.840332,0.08642578,0.1914063,-0.3320313,-0.05273438
3137,17.3125,-4.6875,170.8125,-1.11084,0.8520508,0.06347656,0.1821289,-0.3417969,-0.05175781
3141,21.1875,9.6875,186.1875,-1.021484,0.9335938,0.001953125,0.1665039,-0.3491211,-0.05029297
3145,15.1875,8.3125,181.5625,-1.056641,0.972168,-0.02441406,0.1499023,-0.3603516,-0.05029297
3149,2.9375,-12.8125,165.3125,-1.07959,1.019043,-0.05908203,0.1401367,-0.3657227,-0.04882813
3153,-7.0625,-16.3125,163.75,-0.9672852,0.9682617,-0.01318359,0.125,-0.3730469,-0.04882813
3157,3.4375,-5.75,177.5625,-0.8935547,0.840332,-0.01318359,0.1069336,-0.3793945,-0.04882813
3161,8.0625,20.75,198.3125,-0.7270508,0.9257813,-0.08984375,0.09619141,-0.3818359,-0.05029297
3165,-5.625,34.9375,201,-0.7543945,0.9375,-0.112793,0.07861328,-0.3867188,-0.04882813
3169,-27.5,17.9375,191.375,-0.8432617,0.8671875,-0.09765625,0.05712891,-0.3916016,-0.04882813
3173,-37.3125,3,172.25,-0.6147461,0.6923828,0.02880859,0.04638672,-0.3916016,-0.05175781
3177,-16,4.125,168.4375,-0.6147461,0.6577148,0.09033203,0.02734375,-0.3930664,-0.05273438
3181,-3.9375,12.1875,178.6875,-0.6186523,0.8945313,-0.005371094,0.009277344,-0.3955078,-0.05566406
3185,-21.9375,18.875,188.1875,-0.5795898,1.06543,-0.1166992,-0.0009765625,-0.3945313,-0.05419922
3189,-34.125,16.125,188.4375,-0.5566406,0.8520508,-0.04394531,-0.02001953,-0.3916016,-0.05859375
3193,-31.3125,12.0625,182.625,-0.4404297,0.8051758,-0.01318359,-0.04003906,-0.3891602,-0.06396484
3197,-30.5,10.375,162.875,-0.3901367,0.8012695,0.02880859,-0.05224609,-0.3891602,-0.06542969
3201,-21.0625,14.4375,169.8125,-0.4208984,0.8129883,0.001953125,-0.06494141,-0.3857422,-0.06933594
3205,-17.25,21.3125,177.125,-0.328125,0.8828125,-0.03222656,-0.08203125,-0.3818359,-0.07177734
3209,-32.1875,22.625,175.9375,-0.2773438,0.9023438,-0.07080078,-0.09472656,-0.3745117,-0.07080078
3213,-44.125,16.0625,162.625,-0.2543945,0.7548828,0.07519531,-0.1103516,-0.3691406,-0.07617188
3217,-25.1875,9.5625,152.3125,-0.1767578,0.6772461,0.1479492,-0.1245117,-0.3618164,-0.08007813
3221,-10.875,15.6875,156.5,-0.1533203,0.8325195,0.03271484,-0.1328125,-0.3554688,-0.08154297
3225,-21.0625,21.4375,160.9375,-0.1186523,0.8671875,0.005859375,-0.1494141,-0.3491211,-0.08300781
3229,-25.25,22.125,160.875,-0.05273438,0.824707,0.001953125,-0.1616211,-0.3408203,-0.08691406
3233,-32.0625,23.625,154.8125,-0.04101563,0.9179688,0.03271484,-0.1708984,-0.3330078,-0.08544922
3237,-44.3125,21.625,154.125,-0.05273438,0.8325195,-0.009277344,-0.1831055,-0.3242188,-0.09375
3241,-46.875,13.4375,148.9375,0.03955078,0.6845703,0.1020508,-0.1938477,-0.3154297,-0.09667969
3245,-41.625,15.5625,148.25,0.1132813,0.6459961,0.144043,-0.2006836,-0.3066406,-0.1005859
3249,-37.3125,18.6875,147.4375,0.1367188,0.5761719,0.1865234,-0.2114258,-0.2954102,-0.1044922
3253,-29.125,15.5625,140.1875,0.1445313,0.6420898,0.2133789,-0.222168,-0.2832031,-0.1088867
3258,-26.375,13.5,138.1875,0.1171875,0.7856445,0.1713867,-0.2280273,-0.2768555,-0.1074219
3262,-35.3125,12.4375,141.0625,0.175293,0.890625,0.1098633,-0.237793,-0.2670898,-0.1113281
3266,-41.625,11.5,141.125,0.109375,0.9916992,0.140625,-0.2470703,-0.2543945,-0.1142578
3270,-25.875,15.1875,159.75,0.1557617,0.8671875,0.2250977,-0.2543945,-0.2441406,-0.1181641
3274,-15.5625,20.4375,171.0625,0.2294922,0.953125,0.144043,-0.2617188,-0.2319336,-0.1210938
3278,-19.4375,16.5,175,0.2216797,0.9492188,0.140625,-0.2700195,-0.2143555,-0.1225586
3282,-37.75,15.625,181.125,0.3032227,0.9257813,0.1479492,-0.2758789,-0.2045898,-0.1210938
3286,-56.6875,8.4375,180.25,0.2568359,0.840332,0.159668,-0.2841797,-0.1870117,-0.1289063
3290,-69.8125,0.5625,189.5625,0.3305664,0.5175781,0.2749023,-0.2915039,-0.1679688,-0.1289063
3294,-34.5625,5.5,193.1875,0.5126953,0.1953125,0.4711914,-0.2924805,-0.1542969,-0.1303711
3298,-14.5,10.25,188.9375,0.5473633,0.237793,0.3671875,-0.3007813,-0.1333008,-0.1303711
3302,-23.75,5.75,173.5625,0.6362305,0.1757813,0.2597656,-0.3041992,-0.1157227,-0.1318359
3306,-43.625,5.5625,151,0.7099609,0.02832031,0.2094727,-0.3041992,-0.1044922,-0.1303711
3310,-59.6875,-2.5,132.1875,0.5820313,-0.2822266,0.3481445,-0.3081055,-0.08691406,-0.1333008
3314,-33.125,-11.1875,126.875,0.7602539,-0.7368164,0.4018555,-0.3081055,-0.07324219,-0.1318359
3318,-8.875,-2.75,100.5625,0.9619141,0.1445313,0.2749023,-0.309082,-0.06445313,-0.1318359
3322,4.75,4.8125,90.4375,1.113281,-1.043945,0.144043,-0.3115234,-0.05322266,-0.1333008
3326,-12.75,4.125,48.25,1.147949,-1.125488,0.1171875,-0.3105469,-0.04589844,-0.1333008
3330,-21.1875,0.875,-3.25,1.19043,-1.253418,0.1557617,-0.3125,-0.04199219,-0.1333008
3334,-2.6875,-1.125,-56.5,1.198242,-1.276855,0.2519531,-0.3115234,-0.04443359,-0.1333008
3338,23.0625,-2.5625,-98.6875,1.027832,-1.05127,0.2519531,-0.3105469,-0.05322266,-0.1318359
3342,31.375,-6.6875,-127.9375,0.8574219,-0.7680664,0.2250977,-0.3125,-0.06054688,-0.1333008
3346,26.8125,-10.5625,-147.25,0.7641602,-0.5737305,0.2441406,-0.309082,-0.07324219,-0.1333008
3350,20.5625,-7.4375,-164.5,0.7216797,-0.4296875,0.2441406,-0.3105469,-0.08935547,-0.1303711
3354,19.125,-1.375,-175,0.5708008,-0.3989258,0.340332,-0.3056641,-0.1005859,-0.1318359
3358,43.75,5.3125,-186.0625,0.5356445,-0.4140625,0.4018555,-0.3032227,-0.1196289,-0.1289063
3362,81,13.625,-204.6875,0.4389648,-0.324707,0.3481445,-0.2973633,-0.1396484,-0.1289063
3366,111.8125,12,-228,0.2915039,-0.1347656,0.2094727,-0.293457,-0.1582031,-0.1289063
3370,118.875,-0.8125,-255.4375,0.1445313,0.1367188,0.1171875,-0.2841797,-0.1855469,-0.1264648
3374,106.1875,-17.25,-280.4375,-0.002441406,0.3388672,0.1020508,-0.2709961,-0.2119141,-0.1210938
3378,103.875,-31.0625,-291.375,-0.2080078,0.6303711,0.03271484,-0.2636719,-0.2294922,-0.1142578
3382,68.625,-43.0625,-273.4375,-0.2851563,0.8867188,-0.1362305,-0.2470703,-0.2568359,-0.1098633
3387,25.1875,-33.0625,-258.6875,-0.2504883,0.9179688,-0.02441406,-0.2304688,-0.2792969,-0.09912109
3391,9.4375,-12.3125,-241,-0.246582,0.7666016,0.05175781,-0.2197266,-0.2905273,-0.1005859
3395,32.625,-3.875,-236.4375,-0.3666992,0.6733398,0.04443359,-0.2006836,-0.3081055,-0.09765625
3399,54.8125,-5.3125,-240.3125,-0.4326172,0.793457,-0.009277344,-0.1831055,-0.3242188,-0.09765625
3403,42.8125,-14.375,-245,-0.5410156,1.057617,-0.2324219,-0.1708984,-0.3354492,-0.09375
3407,-12.0625,-20.625,-248.125,-0.4868164,1.09668,-0.2939453,-0.1494141,-0.3491211,-0.08837891
3411,-49.5,-13.375,-247.4375,-0.5024414,0.7739258,-0.08984375,-0.128418,-0.359375,-0.09082031
3415,-8.8125,3.375,-249.0625,-0.5834961,0.5097656,0.09033203,-0.1113281,-0.3632813,-0.09375
3419,27.9375,9.75,-250.4375,-0.7695313,0.7158203,-0.02441406,-0.08886719,-0.3745117,-0.09521484
3423,29.8125,1,-260.9375,-0.8666992,0.9140625,-0.1166992,-0.06494141,-0.3818359,-0.09082031
3427,3.5625,-9.625,-266.625,-0.9477539,1.019043,-0.1513672,-0.04736328,-0.3842773,-0.08837891
3431,-17.9375,-11.75,-261.125,-0.9438477,0.8051758,0.01708984,-0.02099609,-0.3881836,-0.08984375
3435,-7.9375,-2.625,-254.625,-1.005859,0.6342773,0.1098633,0.003417969,-0.3881836,-0.09082031
3439,17,1.9375,-252.4375,-1.083496,0.5214844,0.1367188,0.02246094,-0.3891602,-0.09228516
3443,50.75,0.0625,-264,-1.157227,0.5722656,0.1020508,0.04638672,-0.3867188,-0.08984375
3447,66.0625,-9.75,-273.6875,-1.300781,0.7666016,-0.01660156,0.07226563,-0.3833008,-0.08300781
3451,53.0625,-15.6875,-278.1875,-1.331543,0.9335938,-0.1166992,0.09130859,-0.3793945,-0.08007813
3455,26.25,-18.125,-273.0625,-1.413086,0.9023438,-0.1401367,0.1166992,-0.371582,-0.07470703
3459,10.375,-17.1875,-258,-1.428223,0.7548828,-0.05126953,0.1425781,-0.3618164,-0.07177734
3463,5.3125,-10.3125,-245.5,-1.405273,0.6499023,-0.02050781,0.1567383,-0.3544922,-0.07324219
3467,3.125,-5.6875,-244.5,-1.362793,0.5952148,0.001953125,0.1772461,-0.3393555,-0.07177734
3471,-2.625,-5.1875,-253.75,-1.374023,0.6381836,-0.005371094,0.1972656,-0.3256836,-0.07324219
3475,-18.25,-8.1875,-263.25,-1.428223,0.7392578,0.02880859,0.2094727,-0.3154297,-0.07177734
3479,-24.3125,-14.3125,-257.875,-1.517578,0.7001953,0.1865234,0.2294922,-0.296875,-0.07861328
3483,-11.375,-13.75,-236.8125,-1.54834,0.7119141,0.2749023,0.2436523,-0.2768555,-0.07861328
3487,8.375,-10.1875,-208.625,-1.501953,0.8012695,0.3056641,0.253418,-0.2641602,-0.08154297
3491,19.4375,-6.0625,-184.125,-1.439941,0.9140625,0.2480469,0.2666016,-0.2470703,-0.08154297
3495,16.3125,-5.75,-159.6875,-1.401367,0.9838867,0.1635742,0.2724609,-0.2319336,-0.08154297
3499,8.75,-8.4375,-140.1875,-1.335449,1.01123,0.1518555,0.2773438,-0.2246094,-0.08007813
3503,3.4375,-9.25,-121.5,-1.289063,0.9916992,0.1787109,0.2832031,-0.2104492,-0.08007813
3507,14.875,-8.4375,-92.875,-1.285156,0.9101563,0.2709961,0.2866211,-0.203125,-0.07861328
3511,32.8125,1.4375,-61.0625,-1.25,0.9296875,0.2709961,0.2900391,-0.1982422,-0.08154297
3516,33.75,9.1875,-31.0625,-1.203613,0.9916992,0.1635742,0.2924805,-0.1933594,-0.08007813
3520,22.5625,10.125,-10.5625,-1.133789,0.9682617,0.09033203,0.2924805,-0.1904297,-0.07861328
3524,10.5,13.125,1.625,-1.071777,0.8789063,0.105957,0.2949219,-0.1904297,-0.07617188
3528,6.4375,15.3125,9.625,-1.041016,0.7705078,0.1171875,0.2949219,-0.1933594,-0.07470703
3532,7.9375,19.625,14.5625,-1.005859,0.6884766,0.1289063,0.2939453,-0.1933594,-0.07470703
3536,9.0625,22.1875,15.875,-1.037109,0.6420898,0.1020508,0.2924805,-0.1943359,-0.07080078
3540,9.75,19.75,22.375,-1.114746,0.6069336,0.1098633,0.2939453,-0.1967773,-0.06933594
3544,5.875,15.6875,35.875,-1.11084,0.6030273,0.08642578,0.2924805,-0.1967773,-0.06787109
3548,-0.6875,16.125,45.5,-0.9985352,0.5253906,0.05566406,0.2915039,-0.203125,-0.06542969
3552,-2.5,23.5,44.8125,-0.9091797,0.3935547,0.02880859,0.2880859,-0.2055664,-0.0625
3556,4.5625,31.75,39.5,-0.9555664,0.3120117,0.04052734,0.2880859,-0.2094727,-0.0625
3560,12.75,36,40.125,-1.001953,0.3271484,0.06738281,0.2866211,-0.2119141,-0.05957031
3564,13,30.25,45.625,-1.106934,0.3935547,0.04052734,0.2856445,-0.2128906,-0.05566406
3568,8.125,15.0625,50.9375,-1.091309,0.3857422,0.02490234,0.2841797,-0.2207031,-0.05273438
3572,2.4375,4.75,53.0625,-1.037109,0.3466797,0.03271484,0.2817383,-0.2231445,-0.05029297
3576,0.1875,3.125,51.4375,-0.9248047,0.2729492,0.001953125,0.2792969,-0.2280273,-0.05029297
3580,3.25,5.5,46.1875,-0.9399414,0.253418,0.01708984,0.2749023,-0.2319336,-0.05029297
3584,2.75,0.75,44.375,-0.9946289,0.300293,-0.001464844,0.2773438,-0.2329102,-0.05029297
3588,-5.25,-7.1875,47.625,-1.048828,0.3466797,-0.005371094,0.2749023,-0.2382813,-0.05175781
3592,-8.3125,-11.75,54.75,-1.001953,0.3544922,0.001953125,0.2724609,-0.2431641,-0.05273438
3596,-7.6875,-10.375,57.6875,-0.9907227,0.3974609,-0.009277344,0.2700195,-0.2470703,-0.05029297
3600,-9.625,-7.5,59.4375,-1.009766,0.4282227,0.009765625,0.2675781,-0.2504883,-0.05419922
3604,-10,-5.875,63.4375,-1.067871,0.4282227,0.02099609,0.2641602,-0.2558594,-0.05419922
3608,-3.9375,-8.25,71,-1.103027,0.4282227,0.04785156,0.2592773,-0.2592773,-0.05419922
3612,1.75,-8.375,84.8125,-1.103027,0.4516602,0.04443359,0.2583008,-0.265625,-0.05712891
3616,-0.3125,-8.25,92.375,-1.071777,0.5527344,0.02099609,0.2509766,-0.2729492,-0.05712891
3620,-2.875,-9.125,93.1875,-1.106934,0.5991211,0.02099609,0.2475586,-0.2768555,-0.05566406
3624,-0.8125,-10.375,98.375,-1.129883,0.6069336,0.03271484,0.2412109,-0.2841797,-0.05859375
3628,5.4375,-3.8125,105.9375,-1.118652,0.6694336,0.02880859,0.2353516,-0.2929688,-0.05859375
3632,12.75,1.875,119.6875,-1.172852,0.7158203,0.03271484,0.2294922,-0.3007813,-0.05712891
3636,15.8125,7.125,136.5,-1.165039,0.8012695,0.01708984,0.2202148,-0.3066406,-0.05566406
3640,13.8125,6.75,150.6875,-1.25,0.8442383,0.005859375,0.2094727,-0.3178711,-0.05566406
3645,13.875,-2.875,166.6875,-1.257813,0.8710938,0.02490234,0.2045898,-0.3242188,-0.05175781
3649,7.875,-5.875,178.1875,-1.176758,0.8984375,-0.02441406,0.1889648,-0.3354492,-0.05273438
3653,-0.75,-7,191.0625,-1.12207,0.8828125,-0.03613281,0.1738281,-0.3466797,-0.05419922
3657,-7.25,-0.75,193.3125,-0.9985352,0.8129883,0.001953125,0.1640625,-0.3520508,-0.05419922
3661,-1.75,2.3125,192.4375,-1.037109,0.7895508,0.04443359,0.1474609,-0.3642578,-0.05419922
3665,0.5,0.25,193.9375,-0.9946289,0.8481445,0.02490234,0.1269531,-0.3706055,-0.05566406
3669,-3.0625,3.6875,195.5625,-0.8935547,0.8168945,0.02880859,0.1152344,-0.3745117,-0.05419922
3673,-3.125,20.75,189.3125,-0.6806641,0.7705078,0.001953125,0.09863281,-0.3818359,-0.05712891
3677,5.8125,41.9375,165.9375,-0.7231445,0.7973633,0.04443359,0.08056641,-0.3867188,-0.05566406
3681,23.1875,47.5,154.875,-0.862793,0.824707,0.07128906,0.06982422,-0.3916016,-0.05273438
3685,30.0625,52.625,147.1875,-0.8588867,0.987793,-0.01318359,0.0546875,-0.3916016,-0.04882813
3689,19.625,37.9375,150.4375,-0.9711914,1.030762,-0.07861328,0.04052734,-0.3945313,-0.04736328
3693,-3.0625,29.875,159.5625,-0.8549805,1.038574,-0.06298828,0.02978516,-0.3945313,-0.04492188
3697,-16.125,18.375,173.9375,-0.8745117,0.90625,-0.01660156,0.01171875,-0.3955078,-0.04882813
3701,-21.625,11.5625,184.625,-0.7387695,0.8710938,-0.01660156,-0.004394531,-0.3945313,-0.04638672
3705,-27.8125,11.4375,186.125,-0.6069336,0.793457,-0.01660156,-0.01611328,-0.3945313,-0.05175781
3709,-20.0625,11.75,180.3125,-0.5175781,0.7158203,0.005859375,-0.03515625,-0.3916016,-0.05175781
3713,-16.75,10.1875,170.625,-0.4594727,0.7353516,-0.04003906,-0.05078125,-0.3891602,-0.05566406
3717,-19.6875,5.375,165.5625,-0.3974609,0.7817383,-0.09375,-0.06298828,-0.3867188,-0.05566406
3721,-24.625,0.8125,161.6875,-0.3666992,0.809082,-0.09765625,-0.08056641,-0.3818359,-0.05566406
3725,-28.125,7.3125,171,-0.2270508,0.7431641,-0.07470703,-0.09716797,-0.3769531,-0.06103516
3729,-26.375,22.875,176.25,-0.1650391,0.6962891,-0.07080078,-0.1069336,-0.3730469,-0.0625
3733,-25.4375,29.5,175.875,-0.1611328,0.7509766,-0.08203125,-0.1245117,-0.3657227,-0.06640625
3737,-32.125,25,172.5625,-0.2231445,0.7236328,-0.005371094,-0.1376953,-0.3579102,-0.07080078
3741,-28.6875,21.8125,174.1875,-0.1420898,0.7236328,0.02880859,-0.1484375,-0.3520508,-0.07177734
3745,-26.75,24.4375,173.8125,-0.1459961,0.8129883,-0.001464844,-0.1650391,-0.3442383,-0.07617188
3749,-34.3125,22.625,182.625,-0.1420898,0.8945313,-0.03613281,-0.1791992,-0.3320313,-0.07763672
3753,-48.375,21.875,191,-0.09521484,0.8710938,-0.04003906,-0.1889648,-0.3217773,-0.08154297
3757,-49.5,19.5,189,-0.1303711,0.8442383,0.02099609,-0.2045898,-0.3105469,-0.08691406
3761,-46.6875,14.125,191.625,-0.06835938,0.7895508,0.02490234,-0.21875,-0.2954102,-0.09082031
3765,-38.375,14.875,193.5,-0.02978516,0.8168945,0.04443359,-0.2255859,-0.2856445,-0.09521484
3769,-36.125,14.25,200.875,-0.06445313,0.8364258,0.02099609,-0.2387695,-0.2680664,-0.09667969
3774,-31.875,13.125,218,-0.04101563,0.824707,0.03271484,-0.2519531,-0.2519531,-0.09912109
3778,-37,20.6875,240.4375,-0.01025391,0.8168945,0.04443359,-0.2626953,-0.2382813,-0.1020508
3782,-61.125,26,258.1875,0.1054688,0.8012695,-0.02050781,-0.2724609,-0.2167969,-0.1074219
3786,-97.6875,13.4375,267.75,0.06689453,0.5097656,0.04052734,-0.2866211,-0.1904297,-0.1113281
3790,-145.3125,-3.75,276.0625,0.2836914,0.1601563,0.05175781,-0.2949219,-0.171875,-0.1142578
3794,-180.75,-17.375,273.375,0.5976563,-0.6748047,0.1289063,-0.3032227,-0.140625,-0.1181641
3798,-192.9375,-1.9375,267.25,0.9892578,-1.059082,0.1098633,-0.3105469,-0.1069336,-0.1196289
3802,-161.8125,18.375,228.4375,1.275879,-2.197754,0.4672852,-0.3125,-0.08447266,-0.1235352
3806,-87.8125,12.75,117,1.608887,-2.493164,0.5249023,-0.3139648,-0.06201172,-0.1235352
3810,20.5625,5.5,-15.0625,1.523926,-2.251953,0.6289063,-0.3125,-0.0546875,-0.1264648
3814,111,-0.625,-94.5625,1.128418,-1.525391,0.4672852,-0.3139648,-0.05810547,-0.1264648
3818,144.875,-1.75,-136.75,0.8920898,-0.7172852,0.1674805,-0.3125,-0.07177734,-0.1225586
3822,117.3125,-8.4375,-161.5625,0.6831055,-0.1347656,-0.02832031,-0.3115234,-0.09179688,-0.1235352
3826,64.5,-26.25,-176.25,0.5976563,0.07080078,-0.04394531,-0.3105469,-0.1054688,-0.1235352
3830,28.75,-40.6875,-187.625,0.6210938,-0.08007813,0.105957,-0.3081055,-0.1254883,-0.1181641
3834,26.625,-41.25,-200.75,0.659668,-0.2314453,0.2368164,-0.3032227,-0.1455078,-0.1142578
3838,48.25,-38.0625,-218.125,0.5976563,-0.2666016,0.2788086,-0.2983398,-0.1582031,-0.1113281
3842,78.5625,-32.3125,-232.25,0.4814453,-0.1928711,0.2709961,-0.2924805,-0.1821289,-0.1074219
3846,96.0625,-25.625,-242.1875,0.3339844,0.03613281,0.1635742,-0.2827148,-0.2055664,-0.1005859
3850,96.625,-23.9375,-243.625,0.1484375,0.2612305,0.07128906,-0.2758789,-0.2216797,-0.09521484
3854,94.4375,-17.625,-235.5,0.08251953,0.4399414,0.01708984,-0.2626953,-0.2470703,-0.08984375
3858,85.9375,-3.125,-224.375,0.03564453,0.6499023,-0.06298828,-0.2485352,-0.2670898,-0.08300781
3862,58.375,8.4375,-206.25,-0.07617188,0.7236328,-0.1938477,-0.2387695,-0.2783203,-0.07763672
3866,24.6875,-10.1875,-200.9375,-0.1342773,0.7856445,-0.1977539,-0.2246094,-0.2954102,-0.07617188
3870,-21.1875,-31.1875,-210.375,-0.1342773,0.7431641,-0.1513672,-0.2104492,-0.3105469,-0.07617188
3874,-44.5625,-36.1875,-223.875,-0.1186523,0.4750977,0.06738281,-0.1972656,-0.3193359,-0.07324219
3878,-20.9375,-23.875,-239.9375,-0.1459961,0.2807617,0.1479492,-0.1791992,-0.3330078,-0.07763672
3882,29.5625,-1.875,-253.375,-0.2734375,0.2495117,0.1865234,-0.1582031,-0.3457031,-0.07617188
3886,61.375,4.125,-264.5,-0.5527344,0.6694336,-0.1015625,-0.1411133,-0.3530273,-0.07324219
3890,15.5625,-12.5,-264.8125,-0.7114258,0.953125,-0.2670898,-0.1201172,-0.3666992,-0.06933594
3894,-37.6875,-24.5625,-260.1875,-0.6962891,0.7817383,-0.1015625,-0.09619141,-0.3769531,-0.06933594
3898,-31.9375,-13.625,-262.75,-0.6923828,0.4125977,0.144043,-0.078125,-0.3803711,-0.07080078
3903,29.125,2,-273.9375,-0.8588867,0.3081055,0.1904297,-0.04833984,-0.3891602,-0.07470703
3907,77.75,0.75,-291.875,-1.11084,0.6884766,-0.07080078,-0.0234375,-0.3930664,-0.06787109
3911,47.4375,-18.25,-297.1875,-1.315918,1.13916,-0.3129883,-0.003417969,-0.3945313,-0.06396484
3915,-25.875,-33.375,-272.5,-1.304199,1.154785,-0.2016602,0.02832031,-0.3955078,-0.05957031
3919,-71,-28.25,-237.5,-1.191895,0.7856445,0.01708984,0.05224609,-0.3916016,-0.06640625
3923,-70.75,-13,-215.125,-1.12207,0.3388672,0.1289063,0.06542969,-0.3867188,-0.07080078
3927,-34.75,2.25,-226.125,-1.091309,0.06298828,0.140625,0.08691406,-0.3818359,-0.07617188
3931,23.6875,12.0625,-277.125,-1.161133,0.02050781,0.1713867,0.1118164,-0.3754883,-0.07763672
3935,80.5,-3.9375,-346.5,-1.57959,0.4516602,0.02490234,0.1293945,-0.3666992,-0.07324219
3939,74.5625,-25.25,-363.9375,-1.916504,0.953125,-0.005371094,0.1616211,-0.3505859,-0.06640625
3943,41.75,-40.6875,-315.3125,-2.114258,1.131836,0.03271484,0.1914063,-0.3320313,-0.0625
3947,14.9375,-33.5,-228.125,-1.87793,1.061523,0.001953125,0.2055664,-0.3208008,-0.06396484
3951,-12.875,-11.75,-172.125,-1.517578,0.90625,-0.1669922,0.2211914,-0.3041992,-0.06542969
3955,-44.25,0,-169,-1.215332,0.7392578,-0.3286133,0.234375,-0.2944336,-0.06640625
3959,-73.375,14.75,-192.5,-1.056641,0.5952148,-0.2744141,0.2436523,-0.2856445,-0.06787109
3963,-81.75,36,-209.75,-1.12207,0.5136719,-0.08984375,0.2543945,-0.2680664,-0.07177734
3967,-71.75,52.625,-197.5625,-1.420898,0.4946289,0.1367188,0.2666016,-0.2480469,-0.07470703
3971,-39.75,52.6875,-167.0625,-1.567871,0.5371094,0.3520508,0.2724609,-0.2368164,-0.07324219
3975,-11.8125,40.375,-140.375,-1.567871,0.7431641,0.355957,0.2807617,-0.2255859,-0.07177734
3979,-5.125,20.8125,-126.625,-1.475098,0.8710938,0.2749023,0.2880859,-0.2094727,-0.06787109
3983,-4.375,6.125,-115.9375,-1.366211,0.9179688,0.1904297,0.2915039,-0.2045898,-0.06787109
3987,-3.875,5.0625,-94.375,-1.327637,0.8520508,0.1904297,0.2949219,-0.1933594,-0.06787109
3991,5.4375,12.625,-63.75,-1.335449,0.7666016,0.1865234,0.2983398,-0.1855469,-0.06787109
3995,16.625,16.125,-28,-1.362793,0.7236328,0.2094727,0.2973633,-0.1831055,-0.06640625
3999,21,16.0625,-1.5,-1.304199,0.7001953,0.1943359,0.2998047,-0.1806641,-0.06542969
4003,16.75,13.0625,12.4375,-1.227051,0.6694336,0.1557617,0.2963867,-0.1821289,-0.0625
4007,5.375,7.75,17.75,-1.165039,0.6342773,0.1479492,0.2998047,-0.1831055,-0.06103516
4011,-2.8125,2.9375,19.6875,-1.114746,0.5605469,0.1635742,0.2973633,-0.1845703,-0.05859375
4015,-0.4375,0,20.5,-1.037109,0.4516602,0.1982422,0.2973633,-0.1855469,-0.05957031
4019,11.875,1.5,20.3125,-0.9868164,0.4052734,0.2133789,0.2973633,-0.1855469,-0.05859375
4023,20.875,2.75,19.5,-1.009766,0.4594727,0.1713867,0.2973633,-0.1894531,-0.05859375
4027,16,-1.875,18.25,-1.029297,0.5175781,0.105957,0.2949219,-0.1904297,-0.05859375
4032,7.1875,-6.6875,20.4375,-1.044922,0.4946289,0.09423828,0.2949219,-0.1933594,-0.05859375
4036,12.625,-8.0625,29.375,-1.056641,0.4125977,0.140625,0.2939453,-0.1958008,-0.05712891
4040,19.875,-7.5625,36.375,-1.037109,0.4399414,0.07128906,0.2949219,-0.1982422,-0.05859375
4044,17.125,-10.25,39.5625,-1.033203,0.4672852,0.001953125,0.2939453,-0.203125,-0.05859375
4048,14.5,-11.5,44.9375,-1.029297,0.4516602,-0.009277344,0.2915039,-0.2045898,-0.05957031
4052,8.5625,-10.6875,52.3125,-1.033203,0.4711914,-0.04394531,0.2900391,-0.2094727,-0.05859375
4056,3,-5.9375,62,-1.041016,0.4125977,-0.01318359,0.2866211,-0.2143555,-0.05859375
4060,6.5,-5.625,71.6875,-1.075684,0.3740234,-0.009277344,0.2832031,-0.2192383,-0.05957031
4064,10.75,-8.6875,77.1875,-1.044922,0.3857422,0.02490234,0.2817383,-0.2255859,-0.05957031
4068,15.3125,-10.0625,79.0625,-1.067871,0.3818359,0.05566406,0.2773438,-0.2304688,-0.05957031
4072,24.25,-13.875,81,-1.087402,0.4086914,0.04052734,0.2709961,-0.2382813,-0.05957031
4076,33.6875,-16.5,90.25,-1.095215,0.4790039,0.01708984,0.2700195,-0.2441406,-0.05957031
4080,35.875,-8.6875,104.8125,-1.044922,0.5371094,-0.02050781,0.2675781,-0.2470703,-0.05712891
4084,35.0625,0,116.3125,-1.056641,0.5839844,-0.02050781,0.2592773,-0.2583008,-0.05712891
4088,36.9375,1.6875,121.5,-1.106934,0.6264648,-0.001464844,0.2519531,-0.2705078,-0.05419922
4092,40,0.625,129,-1.172852,0.6811523,0.02880859,0.25,-0.2768555,-0.05273438
4096,37.3125,-0.125,139.1875,-1.176758,0.7119141,-0.001464844,0.2426758,-0.2866211,-0.05029297
4100,26.4375,-3.5,148.8125,-1.145508,0.7158203,-0.05517578,0.2319336,-0.2983398,-0.04736328
4104,12.375,4.0625,154.0625,-1.001953,0.6811523,-0.04394531,0.222168,-0.3056641,-0.04736328
4108,2.6875,20.5,161,-0.9516602,0.6499023,-0.04394531,0.2104492,-0.3168945,-0.04638672
4112,1.4375,33.3125,166.375,-0.9477539,0.6225586,0.02099609,0.199707,-0.3266602,-0.04345703
4116,4.9375,33,169.4375,-1.005859,0.7080078,0.04052734,0.1904297,-0.3369141,-0.04199219
4120,-1.875,28.75,169.0625,-1.037109,0.7856445,0.06347656,0.1772461,-0.3442383,-0.03955078
4124,-10.0625,18,159.875,-1.017578,0.7895508,0.07910156,0.1616211,-0.3530273,-0.03955078
4128,-8.625,8.75,154.875,-0.9790039,0.7739258,0.06347656,0.1533203,-0.3579102,-0.03808594
4132,-7.1875,12.5625,160.3125,-0.9477539,0.8598633,0.05566406,0.1391602,-0.3666992,-0.03808594
4136,-9.75,19,169.9375,-0.9130859,0.875,0.005859375,0.1235352,-0.3730469,-0.03808594
4140,-12.125,25.1875,176.6875,-0.8588867,0.9140625,-0.02050781,0.1142578,-0.3745117,-0.04199219
4144,-20.125,27.6875,175.375,-0.8354492,0.90625,-0.03222656,0.09619141,-0.3793945,-0.03955078
4148,-24.875,22.0625,172.5625,-0.8237305,0.921875,-0.07470703,0.07958984,-0.3881836,-0.04199219
4152,-31.6875,18.0625,169.6875,-0.8007813,0.956543,-0.05908203,0.06884766,-0.3891602,-0.04199219
4156,-40.5,15.6875,174,-0.7851563,1.01123,-0.109375,0.05224609,-0.3916016,-0.04638672
4161,-51,18.5625,180.125,-0.7231445,0.9375,-0.07470703,0.03564453,-0.3945313,-0.05029297
4165,-49.25,17.3125,182.8125,-0.699707,0.8632813,-0.02441406,0.02246094,-0.3930664,-0.05419922
4169,-40.9375,17.3125,178.6875,-0.5644531,0.7895508,0.02880859,0.004394531,-0.3930664,-0.05957031
4173,-34.5,16.625,169,-0.5795898,0.8520508,-0.001464844,-0.01171875,-0.3916016,-0.06396484
4177,-35.1875,7.3125,166.4375,-0.5410156,0.824707,0.005859375,-0.02490234,-0.3916016,-0.06640625
4181,-27.5,8.4375,163.125,-0.4868164,0.8286133,0.05957031,-0.04248047,-0.3891602,-0.06933594
4185,-20.3125,9.9375,163.9375,-0.4907227,0.9414063,0.01367188,-0.05908203,-0.3857422,-0.07324219
4189,-25.125,10.875,166.125,-0.5024414,1.030762,-0.05517578,-0.06884766,-0.3833008,-0.07177734
4193,-33.5,9.3125,165.9375,-0.4750977,1.069336,-0.08984375,-0.08300781,-0.3769531,-0.07617188
4197,-41.5,8.3125,172.375,-0.4248047,0.987793,-0.08203125,-0.09960938,-0.3730469,-0.08154297
4201,-36.25,11.8125,173.5,-0.362793,0.9604492,0.001953125,-0.109375,-0.3691406,-0.08300781
4205,-28.5,15.6875,181.4375,-0.3354492,0.9296875,0.02880859,-0.1269531,-0.359375,-0.08691406
4209,-23.625,22.9375,191.5,-0.3046875,1.003418,-0.009277344,-0.1411133,-0.3505859,-0.08984375
4213,-34.9375,17.8125,188.375,-0.28125,1.030762,0.02099609,-0.1533203,-0.3442383,-0.09228516
4217,-43.125,8.625,186.5625,-0.2851563,1.053711,-0.009277344,-0.1699219,-0.3344727,-0.09521484
4221,-49,13.5,204.5625,-0.1962891,0.987793,0.04052734,-0.1865234,-0.3193359,-0.1005859
4225,-44.5625,22.25,216.625,-0.1459961,0.921875,0.1098633,-0.1972656,-0.3105469,-0.1035156
4229,-33.625,24.625,225.5625,-0.09912109,0.8364258,0.1865234,-0.2128906,-0.2954102,-0.1088867
4233,-35.4375,27.8125,228.6875,0.02050781,0.8828125,0.09814453,-0.2270508,-0.2768555,-0.112793
4237,-48.6875,20.625,225.6875,-0.05664063,0.9257813,0.1020508,-0.2363281,-0.2670898,-0.1142578
4241,-52.375,17.375,227.5,-0.01416016,0.8632813,0.2133789,-0.253418,-0.2456055,-0.1166992
4245,-62.5625,16.1875,237.125,-0.01416016,0.8442383,0.1748047,-0.2636719,-0.2270508,-0.1235352
4249,-72.4375,8.0625,242.0625,0.01660156,0.6884766,0.2250977,-0.2709961,-0.2104492,-0.125
4253,-61.125,8.0625,246.375,0.08251953,0.5136719,0.2905273,-0.2827148,-0.1845703,-0.1264648
4257,-53.375,6.25,253.8125,0.125,0.3701172,0.2441406,-0.2915039,-0.1582031,-0.1318359
4261,-53.375,5,249.9375,0.2915039,0.1176758,0.2519531,-0.2983398,-0.1430664,-0.1318359
4265,-56.0625,0.4375,238.875,0.3769531,-0.1269531,0.1674805,-0.3017578,-0.1181641,-0.1303711
4269,-59.375,-1.1875,224.25,0.5087891,-0.4375,0.1748047,-0.3081055,-0.09179688,-0.1347656
4273,-61.9375,-2.6875,203.125,0.675293,-0.8647461,0.1865234,-0.309082,-0.07714844,-0.1333008
4277,-63.0625,-6,177.6875,0.8222656,-1.288574,0.2329102,-0.3105469,-0.05322266,-0.1347656
4281,-48.5,0,142.3125,1.023926,-1.74707,0.2905273,-0.3105469,-0.03564453,-0.1333008
4285,-27.375,0.0625,88.3125,1.128418,-1.983887,0.3134766,-0.3115234,-0.02685547,-0.1333008
4290,-4.6875,-3.125,15.75,1.217773,-1.941406,0.340332,-0.3105469,-0.01953125,-0.1333008
4294,26.875,-18.6875,-67.6875,1.128418,-1.68457,0.3828125,-0.3105469,-0.02197266,-0.1333008
4298,62.8125,-27.8125,-122.8125,0.9462891,-1.312012,0.3095703,-0.3115234,-0.02832031,-0.1318359
4302,78.9375,-29.5625,-155.8125,0.8110352,-0.8574219,0.144043,-0.3139648,-0.04443359,-0.1279297
4306,64.6875,-32.1875,-178.6875,0.6948242,-0.5112305,0.009765625,-0.3139648,-0.06054688,-0.1264648
4310,38.9375,-33.125,-197.5,0.6557617,-0.3442383,-0.009277344,-0.3125,-0.07714844,-0.1225586
4314,23,-24.9375,-209.4375,0.6132813,-0.3364258,0.02880859,-0.3115234,-0.09423828,-0.1196289
4318,34.4375,-4.9375,-210.375,0.5200195,-0.3833008,0.1557617,-0.309082,-0.1196289,-0.1181641
4322,57.875,7.5625,-217.25,0.4155273,-0.2705078,0.1479492,-0.3056641,-0.1342773,-0.1166992
4326,69.625,11.125,-233.3125,0.3339844,-0.09570313,0.07519531,-0.2958984,-0.1557617,-0.1181641
4330,68,13.875,-247.5,0.1713867,0.1176758,0.001953125,-0.2890625,-0.1831055,-0.1166992
4334,61.9375,7.125,-258.125,0.01269531,0.2495117,0.04052734,-0.2792969,-0.1992188,-0.112793
4338,68.8125,3.25,-262.375,-0.1147461,0.3466797,0.07128906,-0.2661133,-0.2231445,-0.1142578
4342,72.6875,3,-266.9375,-0.2041016,0.5371094,0.04052734,-0.253418,-0.2470703,-0.1113281
4346,73.1875,2.625,-268.875,-0.3203125,0.6577148,0.06738281,-0.2412109,-0.2641602,-0.1074219
4350,73.4375,1.875,-272.5,-0.378418,0.855957,-0.001464844,-0.2211914,-0.2880859,-0.1020508
4354,65.1875,0.3125,-277.125,-0.4711914,0.9023438,0.001953125,-0.2021484,-0.3066406,-0.09667969
4358,61.75,-5.375,-272.75,-0.6494141,0.987793,0.02490234,-0.1889648,-0.3217773,-0.09521484
4362,71.0625,-12.3125,-257.9375,-0.6845703,0.956543,0.06347656,-0.1665039,-0.3378906,-0.08984375
4366,92.125,-12.8125,-243.375,-0.7426758,0.9296875,0.09814453,-0.1459961,-0.3520508,-0.08154297
4370,113.875,-14.6875,-233.9375,-0.7773438,1.112305,-0.009277344,-0.128418,-0.359375,-0.07617188
4374,71.0625,-30.375,-227.9375,-0.8588867,1.450195,-0.3051758,-0.1079102,-0.371582,-0.06542969
4378,12.9375,-52.1875,-207.5,-0.8125,1.248047,-0.2475586,-0.08789063,-0.3803711,-0.05859375
4382,-13.8125,-49.25,-192.8125,-0.5913086,0.9956055,-0.1015625,-0.07568359,-0.3818359,-0.05859375
4386,0.6875,-31.1875,-197.1875,-0.4790039,0.5839844,0.04052734,-0.05566406,-0.3881836,-0.05859375
4390,27.5625,-20.6875,-217.3125,-0.6186523,0.6108398,-0.005371094,-0.03515625,-0.3891602,-0.05859375
4394,29.3125,-27.75,-237.9375,-0.796875,0.6420898,-0.07861328,-0.02001953,-0.3930664,-0.05566406
4398,40.625,-32.75,-254.375,-0.8745117,0.7275391,-0.04003906,0.002441406,-0.3930664,-0.05029297
4402,34.1875,-28.25,-251.8125,-1.025391,0.8710938,-0.1435547,0.02734375,-0.3930664,-0.04736328
4406,9.875,-23.875,-243.3125,-1.067871,0.8828125,-0.1552734,0.04492188,-0.3930664,-0.04638672
4410,-10.75,-22.8125,-243.4375,-1.099121,0.6733398,-0.1206055,0.06982422,-0.3881836,-0.04638672
4414,-17.5625,-20.1875,-252.4375,-1.118652,0.4594727,-0.0859375,0.09277344,-0.3842773,-0.04736328
4419,-3.875,-13.25,-271.5625,-1.157227,0.2963867,-0.07470703,0.109375,-0.3779297,-0.04736328
4423,11.5,-10.0625,-296.0625,-1.358887,0.4165039,-0.0859375,0.1357422,-0.3666992,-0.04882813
4427,16.625,-18.9375,-313.9375,-1.595215,0.6694336,-0.04736328,0.1630859,-0.3530273,-0.04638672
4431,14.3125,-30.4375,-315.1875,-1.753906,0.9414063,-0.03222656,0.1796875,-0.3417969,-0.04736328
4435,10.375,-31.9375,-284.375,-1.82373,1.100586,0.04052734,0.2055664,-0.3232422,-0.04736328
4439,7.5625,-25.25,-236.25,-1.70752,1.193848,0.001953125,0.2246094,-0.3056641,-0.05029297
4443,4,-15.9375,-195.8125,-1.513672,1.20166,-0.0859375,0.234375,-0.2929688,-0.05029297
4447,-3.9375,-5.4375,-169.6875,-1.331543,1.213379,-0.1206055,0.2451172,-0.2783203,-0.05273438
4451,-8.3125,0.75,-147.8125,-1.319824,1.154785,-0.05126953,0.2543945,-0.2641602,-0.05273438
4455,2.375,6.5625,-113.6875,-1.347168,1.09668,0.06347656,0.2617188,-0.2568359,-0.05029297
4459,14.5625,10.625,-74.125,-1.358887,1.049805,0.1171875,0.2666016,-0.2480469,-0.05273438
4463,25.125,11.5625,-39.375,-1.265625,1.007324,0.140625,0.269043,-0.2456055,-0.05029297
4467,24.0625,9.125,-23.6875,-1.137695,0.9995117,0.06347656,0.2700195,-0.2416992,-0.04736328
4471,15.9375,4.25,-20.8125,-1.041016,0.9375,0.01708984,0.2724609,-0.2407227,-0.04638672
4475,11.9375,4.9375,-19.75,-0.9477539,0.8828125,0.001953125,0.2734375,-0.2382813,-0.04638672
4479,6.1875,9.3125,-17.875,-0.9052734,0.8710938,-0.01660156,0.2749023,-0.2368164,-0.04638672
4483,1.6875,11.875,-13.625,-0.9438477,0.855957,0.01708984,0.2749023,-0.2358398,-0.04492188
4487,3.5,7.5,-3,-1.021484,0.7817383,0.1132813,0.2773438,-0.2368164,-0.04345703
4491,15.75,5.25,12.3125,-1.029297,0.7119141,0.1479492,0.2758789,-0.2358398,-0.04345703
4495,27.125,2.6875,20.6875,-1.001953,0.7236328,0.07519531,0.2773438,-0.2392578,-0.04199219
4499,27.375,0.625,21.3125,-0.9750977,0.7431641,-0.02832031,0.2724609,-0.2392578,-0.03955078
4503,27.5,0.75,24.4375,-0.9946289,0.6923828,-0.04003906,0.2724609,-0.2416992,-0.03662109
4507,24.375,6.6875,32.5,-0.9946289,0.7197266,-0.08203125,0.2724609,-0.2441406,-0.03662109
4511,15.6875,8.125,38.9375,-1.009766,0.7197266,-0.109375,0.2700195,-0.2470703,-0.03369141
4515,4.6875,6.6875,44.4375,-1.017578,0.6694336,-0.09375,0.2666016,-0.2480469,-0.03369141
4519,5,8.25,54.1875,-0.9946289,0.5722656,-0.02441406,0.2651367,-0.2529297,-0.03271484
4523,15.9375,13.5625,68.25,-1.005859,0.4829102,0.05175781,0.2626953,-0.2583008,-0.03271484
4527,19.9375,15.9375,76.9375,-0.9633789,0.4946289,-0.001464844,0.2583008,-0.2607422,-0.02978516
4531,11.6875,13.25,76.25,-0.9208984,0.4711914,-0.05517578,0.2543945,-0.2695313,-0.02734375
4535,-0.625,9.25,68.375,-0.8818359,0.4321289,-0.09375,0.25,-0.2744141,-0.02587891
4539,-11,4.625,60.125,-0.8857422,0.3740234,-0.06298828,0.2485352,-0.2753906,-0.02587891
4543,-9.125,2.5,56.25,-0.9248047,0.315918,-0.001464844,0.2451172,-0.2817383,-0.02734375
4548,1.375,-1.3125,51.1875,-0.9130859,0.2963867,0.005859375,0.2412109,-0.2856445,-0.02587891
4552,13.875,-1.5625,43.3125,-0.8745117,0.3505859,-0.02832031,0.237793,-0.2866211,-0.02587891
4556,18.0625,-1.25,41.125,-0.8935547,0.4750977,-0.109375,0.237793,-0.2919922,-0.02441406
4560,9.25,1.5,47.1875,-0.9130859,0.5332031,-0.1245117,0.2353516,-0.2954102,-0.02441406
4564,3.875,2.9375,53.0625,-0.8706055,0.5449219,-0.112793,0.230957,-0.296875,-0.02294922
4568,-6,4.875,51.9375,-0.8666992,0.5683594,-0.128418,0.2285156,-0.3017578,-0.02441406
4572,-11.125,4,50.4375,-0.878418,0.5410156,-0.112793,0.2236328,-0.3041992,-0.02294922
4576,-5.375,7.25,54.75,-0.8935547,0.4985352,-0.03222656,0.2202148,-0.3081055,-0.02050781
4580,5.25,10.8125,62,-0.9052734,0.5566406,-0.02050781,0.2163086,-0.3105469,-0.02294922
4584,5.875,8.8125,62.5,-0.8974609,0.6342773,-0.03222656,0.2128906,-0.3144531,-0.02148438
4588,4.8125,7.125,62.375,-0.8935547,0.6577148,-0.03613281,0.2119141,-0.3168945,-0.02050781
4592,9.8125,8.3125,65.875,-0.8857422,0.6694336,-0.02441406,0.2055664,-0.3232422,-0.02148438
4596,11.875,11.75,68.25,-0.9013672,0.7856445,-0.04003906,0.1987305,-0.3266602,-0.01904297
4600,7.125,8,69.375,-0.9711914,0.9101563,-0.08203125,0.1972656,-0.3291016,-0.01757813
4604,-1.625,6.375,79.625,-0.9868164,0.9956055,-0.128418,0.1914063,-0.3354492,-0.01611328
4608,-15.25,10.5,96.875,-0.9750977,1.022949,-0.1474609,0.1831055,-0.3393555,-0.01464844
4612,-24.9375,14.9375,113.8125,-0.9750977,0.9375,-0.0859375,0.1782227,-0.3432617,-0.01464844
4616,-17.25,16.5,126.0625,-0.9633789,0.875,-0.01318359,0.1699219,-0.3505859,-0.01757813
4620,-9.75,19.875,133.3125,-0.9169922,0.9257813,-0.01318359,0.1582031,-0.3569336,-0.01757813
4624,-10.75,18.625,134.125,-0.9399414,1.015137,-0.04736328,0.1484375,-0.3632813,-0.01611328
4628,-22.625,11.8125,134.0625,-0.9326172,1.116211,-0.1015625,0.1342773,-0.3666992,-0.01757813
4632,-42.625,6.375,136,-0.9091797,1.162598,-0.1474609,0.125,-0.3730469,-0.02148438
4636,-59.3125,6.25,142.5,-0.9208984,1.077148,-0.109375,0.1152344,-0.3769531,-0.02441406
4640,-42.125,12.875,156.6875,-0.8588867,0.9760742,-0.001464844,0.09863281,-0.3803711,-0.02978516
4644,-31.4375,22.5625,169.5625,-0.8666992,1.084961,-0.06298828,0.08691406,-0.3867188,-0.03125
4648,-40.3125,24.125,178.4375,-0.862793,1.166504,-0.1054688,0.07470703,-0.3891602,-0.03515625
4652,-51.0625,19.125,181.625,-0.8706055,1.104492,-0.06689453,0.05566406,-0.390625,-0.03955078
4656,-53.25,14,182.0625,-0.8085938,1.049805,-0.04736328,0.0390625,-0.3930664,-0.04492188
4660,-51.875,12.625,182.5,-0.78125,1.06543,-0.07470703,0.02587891,-0.3955078,-0.04736328
4664,-49.9375,7.9375,188.6875,-0.8198242,1.019043,-0.03613281,0.008300781,-0.3945313,-0.05419922
4668,-36.1875,7.1875,198.3125,-0.730957,1.01123,-0.04394531,-0.01171875,-0.3930664,-0.05712891
4672,-31.5625,14.875,210.5625,-0.6342773,1.022949,-0.09375,-0.02490234,-0.3916016,-0.05957031
4677,-27.6875,25.5625,219.625,-0.5332031,1.007324,-0.09375,-0.04736328,-0.3881836,-0.0625
4681,-36.8125,27.0625,219.25,-0.4829102,1.049805,-0.1591797,-0.06640625,-0.3818359,-0.06787109
4685,-53.1875,27.9375,207.0625,-0.4287109,1.022949,-0.1401367,-0.08056641,-0.3803711,-0.07324219
4689,-53.75,19.0625,195.6875,-0.4985352,0.9296875,-0.02441406,-0.09960938,-0.371582,-0.07861328
4693,-42.625,15.8125,201.0625,-0.4365234,0.921875,0.02099609,-0.1201172,-0.3632813,-0.08154297
4697,-28.8125,17.625,205.4375,-0.4326172,1.015137,0.009765625,-0.1318359,-0.359375,-0.08154297
4701,-36.75,23.75,212,-0.4052734,1.213379,-0.05908203,-0.1508789,-0.3481445,-0.08837891
4705,-54.5,21.6875,223.0625,-0.4555664,1.248047,-0.07470703,-0.1674805,-0.3354492,-0.09375
4709,-67.0625,23,225.3125,-0.4907227,1.291016,-0.03613281,-0.1806641,-0.3256836,-0.09667969
4713,-83.625,15.875,245.4375,-0.4946289,1.267578,-0.05517578,-0.2006836,-0.3095703,-0.1035156
4717,-95.5,11.4375,266.0625,-0.4365234,0.9995117,0.02490234,-0.215332,-0.2895508,-0.1088867
4721,-78.5625,15.8125,285.9375,-0.3203125,0.7587891,0.144043,-0.2280273,-0.2729492,-0.1157227
4725,-69.0625,23.5,301.9375,-0.2192383,0.7001953,0.1132813,-0.2460938,-0.2495117,-0.1210938
4729,-82.4375,22.5625,305.6875,-0.1884766,0.7080078,0.01708984,-0.2626953,-0.2216797,-0.1264648
4733,-103.3125,17.4375,293.25,-0.1728516,0.4790039,0.144043,-0.2734375,-0.2045898,-0.1303711
4737,-107.125,-4.5,282.25,-0.1303711,0.1953125,0.2133789,-0.2841797,-0.171875,-0.1357422
4741,-86.125,-10.25,270.9375,0.06689453,-0.08007813,0.3481445,-0.293457,-0.1420898,-0.1357422
4745,-56.1875,-7.3125,267.3125,0.05126953,-0.1074219,0.3251953,-0.3017578,-0.1245117,-0.1386719
4749,-50.3125,-7.625,264.875,0.159668,-0.1269531,0.1865234,-0.3056641,-0.09423828,-0.1386719
4753,-70.8125,0,256.8125,0.3417969,-0.2626953,0.01708984,-0.3081055,-0.06835938,-0.1401367
4757,-86.875,17.75,252.75,0.4619141,-0.6474609,0.001953125,-0.3105469,-0.04833984,-0.137207
4761,-102.5,28.5625,238.5,0.574707,-1.125488,-0.07080078,-0.3066406,-0.02050781,-0.1416016
4765,-97.75,26.875,202.1875,0.8261719,-1.953125,0.09423828,-0.3056641,0.006347656,-0.1401367
4769,-56.8125,19.375,151.625,0.9814453,-2.613281,0.2402344,-0.2998047,0.02148438,-0.137207
4773,-0.8125,21.875,61.5625,1.326172,-2.823242,0.3637695,-0.2983398,0.03271484,-0.1416016
4777,41.4375,-1.375,-75.875,1.233398,-2.275391,0.3212891,-0.2973633,0.03271484,-0.144043
4781,70.375,-24.125,-160.6875,0.8222656,-1.634277,0.2709961,-0.2998047,0.02392578,-0.144043
4785,96.25,-25.375,-182.9375,0.574707,-1.094238,0.2172852,-0.3041992,0.007324219,-0.1425781
4789,91.9375,-25.5,-193.9375,0.5317383,-0.534668,0.02880859,-0.3056641,-0.01708984,-0.1425781
4793,54.875,-33.875,-212.5,0.5126953,-0.2626953,-0.04003906,-0.3081055,-0.03173828,-0.1425781
4797,29.4375,-32.375,-227.5,0.5395508,-0.2587891,0.04785156,-0.309082,-0.0546875,-0.1386719
4801,32,-14.375,-236.5625,0.5087891,-0.3173828,0.1865234,-0.3081055,-0.07714844,-0.137207
4806,58.0625,1.9375,-237.6875,0.3652344,-0.3056641,0.2788086,-0.3066406,-0.09423828,-0.1347656
4810,89.5,5.125,-239.75,0.1870117,-0.1538086,0.2636719,-0.2998047,-0.1196289,-0.1357422
4814,100.625,1.25,-236.6875,0.03955078,0.171875,0.144043,-0.2949219,-0.1494141,-0.1347656
4818,87.6875,-3.625,-230.1875,-0.03320313,0.3349609,0.1020508,-0.2915039,-0.1655273,-0.1318359
4822,103.8125,-4.5625,-224.3125,-0.08398438,0.140625,0.3134766,-0.2827148,-0.1894531,-0.1289063
4826,136.75,-2.0625,-223.6875,-0.1108398,0.3193359,0.2329102,-0.2709961,-0.2143555,-0.1225586
4830,144.25,-15.8125,-246.375,-0.1845703,0.5566406,0.05175781,-0.2626953,-0.2294922,-0.1166992
4834,108.9375,-37.875,-269.9375,-0.3203125,0.9375,-0.1669922,-0.2495117,-0.2543945,-0.1074219
4838,67.5,-56.1875,-277.9375,-0.3432617,0.840332,-0.109375,-0.2329102,-0.2783203,-0.09912109
4842,52.9375,-45.4375,-271.8125,-0.3085938,0.7119141,-0.05908203,-0.21875,-0.2919922,-0.09228516
4846,80.5,-26.5625,-266.6875,-0.3510742,0.5839844,-0.005371094,-0.199707,-0.3105469,-0.08837891
4850,89.8125,-16.9375,-270,-0.5024414,0.8364258,-0.2167969,-0.1806641,-0.3305664,-0.07763672
4854,73.8125,-24.0625,-281.25,-0.5913086,1.01123,-0.309082,-0.1640625,-0.3417969,-0.07177734
4858,26.9375,-30.9375,-282.75,-0.7075195,1.12793,-0.3862305,-0.1401367,-0.3569336,-0.06640625
4862,-17.5,-28,-269.5625,-0.6225586,0.987793,-0.2978516,-0.1137695,-0.3681641,-0.06542969
4866,-29.4375,-7.1875,-258.375,-0.6303711,0.5644531,-0.04394531,-0.09716797,-0.3779297,-0.06396484
4870,28.8125,11.5,-263.625,-0.7734375,0.3388672,0.1020508,-0.07226563,-0.3842773,-0.06640625
4874,70.875,16,-278.3125,-1.009766,0.6962891,-0.04736328,-0.04589844,-0.390625,-0.06396484
4878,68.1875,-8,-300.1875,-1.300781,1.135742,-0.2128906,-0.02587891,-0.3930664,-0.05712891
4882,24.75,-34.125,-295.125,-1.381836,1.39209,-0.2436523,0.003417969,-0.3955078,-0.05273438
4886,-21.4375,-31.4375,-261.1875,-1.261719,1.248047,-0.1245117,0.03173828,-0.3916016,-0.05175781
4890,-41.5,-17.25,-229.125,-1.184082,0.8828125,-0.05126953,0.04638672,-0.3916016,-0.05419922
4894,-39.3125,-7.3125,-218.0625,-1.106934,0.5566406,-0.05126953,0.06982422,-0.3881836,-0.05859375
4898,-18.125,-0.9375,-233.4375,-1.099121,0.2573242,-0.04003906,0.09130859,-0.3818359,-0.06103516
4902,14.375,1.25,-269.0625,-1.145508,0.315918,-0.06298828,0.1079102,-0.3754883,-0.0625
4906,24.5,-5.5,-301.4375,-1.401367,0.5566406,-0.1245117,0.1333008,-0.3666992,-0.05957031
4910,13.5625,-13.75,-309.1875,-1.610352,0.7158203,-0.06689453,0.1606445,-0.3520508,-0.05712891
4914,9.1875,-14.875,-294.25,-1.730469,0.7041016,0.02099609,0.1772461,-0.3408203,-0.05566406
4918,23.4375,-10,-270.125,-1.719238,0.6694336,0.04785156,0.199707,-0.3232422,-0.05859375
4922,31.6875,-7.6875,-258.4375,-1.625977,0.8208008,-0.1015625,0.2202148,-0.3041992,-0.05712891
4926,19.25,-8.4375,-258.8125,-1.505859,1.04248,-0.2055664,0.2319336,-0.2944336,-0.05566406
4930,-0.8125,-10.9375,-255.6875,-1.552246,1.17041,-0.1206055,0.2485352,-0.2729492,-0.05566406
4935,-0.1875,-13.875,-231.5,-1.603027,1.287109,0.01367188,0.2641602,-0.2543945,-0.05859375
4939,8.1875,-14.4375,-181.75,-1.668457,1.407715,0.07519531,0.2709961,-0.2416992,-0.05859375
4943,21.25,-6.4375,-114.9375,-1.541016,1.469727,0.04785156,0.2792969,-0.2270508,-0.05957031
4947,19.25,8.6875,-55.1875,-1.312012,1.504395,-0.02832031,0.2832031,-0.2192383,-0.05712891
4951,14.5,24.8125,-15.3125,-1.161133,1.345215,0.01708984,0.2832031,-0.2192383,-0.05419922
4955,11.625,34.1875,9.0625,-1.095215,1.221191,0.1367188,0.2841797,-0.2182617,-0.05273438
4959,13.75,32.75,24.25,-1.114746,1.112305,0.2480469,0.2841797,-0.2167969,-0.05029297
4963,15.4375,24.9375,34.75,-1.091309,1.026855,0.2827148,0.2832031,-0.2192383,-0.04882813
4967,20.625,15.625,39.6875,-1.029297,0.9101563,0.2480469,0.2832031,-0.2231445,-0.04492188
4971,27.3125,8.4375,44.6875,-1.037109,0.8012695,0.1635742,0.2792969,-0.2280273,-0.04052734
4975,34.1875,4.8125,50.5625,-0.9907227,0.7856445,0.06347656,0.2773438,-0.2304688,-0.03955078
4979,24,4,54.5,-0.9790039,0.7666016,-0.0859375,0.2734375,-0.2358398,-0.03662109
4983,10.5625,8.5,61.8125,-0.9208984,0.6616211,-0.1206055,0.2724609,-0.2392578,-0.03808594
4987,-5.125,14.5,67.5625,-0.878418,0.5566406,-0.1435547,0.2700195,-0.2431641,-0.03662109
4991,-18.5625,15.75,67.8125,-0.8666992,0.4125977,-0.1054688,0.2666016,-0.2504883,-0.03662109
4995,-22.375,9.5,60.5625,-0.8896484,0.237793,0.02880859,0.2641602,-0.2558594,-0.03515625
4999,-13.25,1.0625,46.1875,-0.8549805,0.1523438,0.1020508,0.2602539,-0.2568359,-0.03662109
5003,5.875,-6.375,32.6875,-0.8510742,0.08642578,0.1289063,0.2583008,-0.2617188,-0.03662109
5007,26.1875,-7.6875,26.9375,-0.8549805,0.1484375,0.1020508,0.2568359,-0.2631836,-0.03808594
5011,32.4375,-9.1875,24.625,-0.9013672,0.2495117,0.03271484,0.2568359,-0.2670898,-0.03369141
5015,29.75,-13.1875,24.25,-0.9594727,0.2729492,-0.02441406,0.2543945,-0.2680664,-0.03515625
5019,29.1875,-10.9375,23.75,-0.9438477,0.2495117,-0.04003906,0.2543945,-0.2705078,-0.03125
5023,22.5,-6.0625,21.5625,-0.9750977,0.3232422,-0.1054688,0.2509766,-0.2705078,-0.03271484
5027,4.375,-6.75,14.875,-1.005859,0.3427734,-0.1474609,0.25,-0.2719727,-0.03271484
5031,-5.75,-6.125,15.1875,-1.033203,0.2456055,-0.06689453,0.25,-0.2729492,-0.03369141
5035,-1.625,1.5,21.8125,-1.013672,0.1875,-0.02441406,0.25,-0.2744141,-0.03271484
5039,-3.25,3.25,22.6875,-0.9907227,0.21875,-0.07080078,0.2475586,-0.2768555,-0.03369141
5043,-12.6875,0.5625,19.0625,-0.9326172,0.2573242,-0.09375,0.2460938,-0.2753906,-0.02978516
5047,-20.5,-1.5,15,-0.8896484,0.21875,-0.05517578,0.2460938,-0.2792969,-0.03369141
5051,-15.875,-2.875,10.875,-0.8510742,0.2109375,0.005859375,0.2460938,-0.2783203,-0.03515625
5055,-2.25,-5.5625,0.75,-0.8085938,0.315918,0.001953125,0.2451172,-0.2807617,-0.03662109
5059,9.0625,-8.375,-8.875,-0.8818359,0.4907227,-0.005371094,0.2451172,-0.2792969,-0.03808594
5064,29.625,-11,-4.125,-0.9868164,0.5952148,0.02490234,0.2460938,-0.2792969,-0.03515625
5068,54.9375,-5.9375,16.5,-1.025391,0.7587891,-0.005371094,0.2460938,-0.2807617,-0.03515625
5072,68.1875,-2.375,39.25,-1.033203,0.9414063,-0.128418,0.2436523,-0.2807617,-0.03125
5076,62.125,1.1875,56.6875,-0.9711914,1.088867,-0.2246094,0.2402344,-0.2856445,-0.02832031
5080,46.0625,6.5,69.375,-0.9130859,1.154785,-0.2397461,0.2392578,-0.2880859,-0.02148438
5084,33.125,12.125,79.625,-0.8935547,1.158691,-0.1708984,0.2329102,-0.2929688,-0.02050781
5088,27.5,17.375,89.1875,-0.9248047,1.182129,-0.05908203,0.2270508,-0.2993164,-0.01757813
5092,24.9375,18.6875,104.875,-1.037109,1.20166,-0.009277344,0.2211914,-0.3056641,-0.01074219
5096,22.625,16.75,126.5625,-1.044922,1.217285,-0.01318359,0.2163086,-0.3120117,-0.01220703
5100,9.8125,20.1875,141.3125,-0.9829102,1.232422,-0.05126953,0.2070313,-0.3178711,-0.009277344
5104,-7.4375,19,146.25,-1.033203,1.236328,-0.09765625,0.1962891,-0.3291016,-0.008300781
5108,-24.5,16.625,150.5625,-1.048828,1.228516,-0.1015625,0.1889648,-0.3344727,-0.005371094
5112,-34.0625,11.3125,157.25,-1.149414,1.186035,-0.07080078,0.1748047,-0.3442383,-0.009277344
5116,-34.6875,10.125,171.625,-1.149414,1.135742,-0.06689453,0.1606445,-0.3520508,-0.01220703
5120,-33.4375,14.875,187.8125,-1.106934,1.104492,-0.09375,0.1508789,-0.3579102,-0.01367188
5124,-43.5,17.9375,198.5,-1.087402,1.088867,-0.1860352,0.1357422,-0.3666992,-0.01464844
5128,-62.5,19.75,203.875,-1.005859,1.026855,-0.1977539,0.1166992,-0.3745117,-0.01757813
5132,-82.875,21.1875,201.6875,-0.9477539,0.9375,-0.2128906,0.1035156,-0.3818359,-0.02441406
5136,-100.25,16.3125,194.25,-0.9248047,0.8364258,-0.1782227,0.08300781,-0.3857422,-0.02832031
5140,-95.625,11.4375,188.875,-0.9052734,0.5952148,-0.01660156,0.06396484,-0.3891602,-0.04052734
5144,-49.125,20.375,193.1875,-0.796875,0.4790039,0.1171875,0.04980469,-0.390625,-0.04638672
5148,-10.6875,25.625,194.8125,-0.847168,0.6733398,0.07128906,0.03320313,-0.3930664,-0.05029297
5152,-4.75,21,194.5625,-0.8432617,0.8984375,-0.06298828,0.01269531,-0.3955078,-0.04882813
5156,-18.3125,14.625,194.875,-0.8198242,0.972168,-0.128418,0.0009765625,-0.3945313,-0.04882813
5160,-39.75,16.8125,199.1875,-0.6767578,0.9179688,-0.1938477,-0.01855469,-0.3930664,-0.05419922
5164,-44.1875,23.1875,197.1875,-0.5952148,0.7353516,-0.1245117,-0.0390625,-0.390625,-0.05566406
5168,-33.6875,26,192.125,-0.5795898,0.7080078,-0.08984375,-0.05224609,-0.3881836,-0.0625
5172,-22.125,25.9375,184.8125,-0.5834961,0.809082,-0.08984375,-0.06982422,-0.3833008,-0.06396484
5176,-12.875,23.1875,182.9375,-0.5488281,0.855957,-0.03222656,-0.08886719,-0.3779297,-0.06542969
5180,-6.8125,21.4375,183.25,-0.5991211,0.9916992,-0.07861328,-0.09863281,-0.3745117,-0.06933594
5184,-19.0625,21,198.4375,-0.4985352,1.053711,-0.1860352,-0.1162109,-0.3666992,-0.07080078
5188,-45,29.75,211.625,-0.3203125,0.9682617,-0.2631836,-0.1352539,-0.3569336,-0.07177734
5193,-59.375,36.25,206.875,-0.2348633,0.8129883,-0.2128906,-0.1484375,-0.3520508,-0.07617188
5197,-65.75,37.125,198.75,-0.1611328,0.7548828,-0.1782227,-0.1640625,-0.3393555,-0.08544922
5201,-55,36.625,187.625,-0.1303711,0.7587891,-0.1591797,-0.1791992,-0.3266602,-0.09228516
5205,-55.75,27.9375,177.625,-0.1030273,0.8710938,-0.1899414,-0.1899414,-0.3178711,-0.09765625
5209,-56.4375,31.5625,182.25,0.07861328,0.7739258,-0.09375,-0.2045898,-0.3056641,-0.1020508
5213,-34.125,50.125,181.0625,0.1367188,0.7626953,0.02880859,-0.2172852,-0.2905273,-0.1088867
5217,-20.8125,53.625,187,0.03955078,0.890625,0.09814453,-0.222168,-0.2832031,-0.1142578
5221,-20.125,48.625,192.9375,0.02441406,1.069336,0.125,-0.2353516,-0.2680664,-0.1157227
5225,-35.25,43.9375,203.0625,0.07861328,0.987793,0.2329102,-0.2446289,-0.2504883,-0.1210938
5229,-36,31.4375,203.875,0.09375,0.8598633,0.4057617,-0.2519531,-0.2392578,-0.1235352
5233,-23.8125,15.75,203.875,0.1171875,0.8364258,0.4404297,-0.2626953,-0.2207031,-0.1279297
