Packet number,Gyroscope X (deg/s),Gyroscope Y (deg/s),Gyroscope Z (deg/s),Accelerometer X (g),Accelerometer Y (g),Accelerometer Z (g),Magnetometer X (G),Magnetometer Y (G),Magnetometer Z (G)
1,1.75,-2.5625,-3.75,-0.8818359,0.3857422,0.04785156,0.2475586,-0.2705078,-0.07763672
5,3.75,-2.6875,-5.0625,-0.8896484,0.3740234,0.05175781,0.2485352,-0.2719727,-0.07861328
9,6.25,-1.5,-4.625,-0.8745117,0.3896484,0.04785156,0.2475586,-0.2719727,-0.07861328
13,4.25,-0.6875,-4.6875,-0.8818359,0.4086914,0.005859375,0.2475586,-0.2705078,-0.07861328
17,0,-0.9375,-5.0625,-0.8974609,0.4125977,0.009765625,0.2475586,-0.2719727,-0.07763672
21,-2.375,-0.3125,-4,-0.9052734,0.4052734,0.02099609,0.25,-0.2719727,-0.07861328
25,-0.625,-0.4375,-1.8125,-0.9052734,0.3740234,0.05175781,0.2485352,-0.2695313,-0.07763672
29,2.125,0.625,-0.8125,-0.8896484,0.3779297,0.05175781,0.2485352,-0.2695313,-0.08154297
33,3.25,0.75,-0.5625,-0.8857422,0.3974609,0.04785156,0.2485352,-0.2695313,-0.07861328
37,2.75,1.5625,-1,-0.8896484,0.3935547,0.04052734,0.2475586,-0.2680664,-0.07470703
41,1.5625,1.5,0.9375,-0.8974609,0.3974609,0.04052734,0.2485352,-0.2695313,-0.07763672
45,0.625,3.25,3.8125,-0.8974609,0.3935547,0.04443359,0.2475586,-0.2695313,-0.07617188
50,-1.25,3.6875,4.4375,-0.8935547,0.3857422,0.05566406,0.2485352,-0.2705078,-0.07617188
54,0.5,5.4375,6.5625,-0.8857422,0.3623047,0.05957031,0.2475586,-0.2705078,-0.07861328
58,2.5625,5.9375,7.0625,-0.9013672,0.3701172,0.06738281,0.2485352,-0.2695313,-0.07617188
62,3.9375,4.375,6.25,-0.9013672,0.3701172,0.06347656,0.2460938,-0.2705078,-0.07617188
66,6.5625,3.3125,6.125,-0.9013672,0.3740234,0.07128906,0.2485352,-0.2729492,-0.07470703
70,6.4375,3,8.3125,-0.9091797,0.3935547,0.04785156,0.2475586,-0.2719727,-0.07617188
74,5.375,3.6875,10.25,-0.8935547,0.3935547,0.03271484,0.2460938,-0.2753906,-0.07470703
78,4.625,4.5625,13.4375,-0.9052734,0.3974609,0.03271484,0.2460938,-0.2744141,-0.07470703
82,3.25,5.75,15.625,-0.8818359,0.4243164,0.03271484,0.2451172,-0.2768555,-0.07324219
86,1,4.875,16.9375,-0.9091797,0.4204102,0.02490234,0.2460938,-0.2753906,-0.07177734
90,-3.6875,-0.5625,16.75,-0.9477539,0.4399414,0.03662109,0.2426758,-0.2783203,-0.07177734
94,-3.6875,-7,19.5,-0.9594727,0.4516602,0.09033203,0.2412109,-0.2783203,-0.07324219
98,5.3125,-12.9375,24.375,-0.9946289,0.4711914,0.105957,0.2392578,-0.2807617,-0.07177734
102,12.3125,-15.3125,29.125,-0.9946289,0.5175781,0.05957031,0.237793,-0.2817383,-0.07470703
106,13.5,-14.3125,30.4375,-0.8510742,0.5913086,0.04443359,0.2368164,-0.2841797,-0.07324219
110,12.375,-12.1875,36.125,-0.8896484,0.5991211,0.05566406,0.234375,-0.2866211,-0.07470703
114,8.8125,-13.25,32.4375,-0.9091797,0.5800781,0.04785156,0.2329102,-0.2895508,-0.07470703
118,14.5,-10.4375,35.5,-0.9287109,0.5722656,0.08251953,0.2294922,-0.2905273,-0.07617188
122,25.5,-5.5,40.375,-0.9052734,0.6225586,0.1132813,0.2260742,-0.2929688,-0.07470703
126,31.75,-4.1875,47.0625,-0.9326172,0.7158203,0.06738281,0.2260742,-0.296875,-0.07177734
130,29.5625,-1.8125,51.75,-0.9013672,0.7587891,0.04785156,0.2236328,-0.3007813,-0.07080078
134,26.875,1.125,58.8125,-0.9091797,0.7705078,0.03662109,0.21875,-0.3056641,-0.06933594
138,22.5625,4.25,66.125,-0.878418,0.8051758,0.01367188,0.2177734,-0.3081055,-0.06787109
142,22.4375,5,71,-0.9555664,0.7973633,0.05566406,0.2104492,-0.3129883,-0.06396484
146,31.3125,2.5,84.8125,-0.9790039,0.840332,0.06347656,0.2055664,-0.3178711,-0.06103516
150,31.5,2,97.4375,-0.9790039,0.9335938,0.01367188,0.199707,-0.3232422,-0.05957031
154,27.375,-0.5,106.375,-0.9477539,0.921875,-0.005371094,0.1914063,-0.3291016,-0.05712891
158,28.125,1.1875,113.0625,-0.9091797,0.7158203,0.03662109,0.184082,-0.3354492,-0.05419922
162,26.5,1.5625,121.3125,-0.9208984,0.9956055,-0.05126953,0.1782227,-0.3408203,-0.05419922
166,19.125,3.6875,128.625,-0.9052734,0.9643555,-0.07080078,0.1665039,-0.3466797,-0.05175781
170,20.625,5.9375,133.9375,-0.8935547,0.9179688,-0.03222656,0.1557617,-0.3554688,-0.05175781
174,23.0625,5.4375,138.4375,-0.8818359,0.9492188,-0.005371094,0.1484375,-0.3579102,-0.04638672
179,22.0625,3.0625,143.1875,-0.8666992,0.972168,-0.02441406,0.1357422,-0.3642578,-0.04638672
183,22.1875,2.3125,149.4375,-0.8549805,0.9643555,-0.02441406,0.1201172,-0.3706055,-0.04492188
187,20.25,2.4375,154.375,-0.8046875,0.9916992,-0.04736328,0.112793,-0.3745117,-0.04052734
191,12.125,4.3125,157.5625,-0.7695313,1.007324,-0.07861328,0.09765625,-0.3793945,-0.04052734
195,1.9375,4.5,161.6875,-0.7426758,0.9760742,-0.08984375,0.08300781,-0.3842773,-0.04052734
199,-2.8125,7.1875,160.8125,-0.6962891,0.9453125,-0.04736328,0.07226563,-0.3881836,-0.03955078
203,0.125,7.8125,160.3125,-0.7075195,0.9375,-0.02441406,0.05566406,-0.3916016,-0.03955078
207,-0.8125,10.1875,164.25,-0.6806641,1.04248,-0.05126953,0.04052734,-0.390625,-0.03955078
211,-7.6875,12.4375,164.9375,-0.6689453,1.061523,-0.05908203,0.02978516,-0.3930664,-0.03808594
215,-13.1875,14.9375,162.9375,-0.5834961,1.04248,-0.05517578,0.01269531,-0.3955078,-0.03955078
219,-19.4375,22.875,168.875,-0.6342773,0.9453125,-0.08984375,-0.001953125,-0.3930664,-0.04199219
223,-27.9375,17.875,170.375,-0.6342773,1.069336,-0.1401367,-0.01416016,-0.3930664,-0.04199219
227,-30.9375,17.25,166.0625,-0.4750977,0.9916992,-0.02832031,-0.03173828,-0.3916016,-0.04492188
231,-19.3125,17.375,163.875,-0.4404297,0.8442383,0.04443359,-0.04833984,-0.3891602,-0.04736328
235,-18.75,19.125,162.9375,-0.3935547,0.9492188,0.001953125,-0.05810547,-0.3857422,-0.05029297
239,-24.75,18.0625,164.4375,-0.347168,0.9682617,-0.01660156,-0.07470703,-0.3803711,-0.05175781
243,-34.625,20.3125,168.75,-0.2890625,0.9257813,-0.03613281,-0.09033203,-0.3769531,-0.05712891
247,-26.375,22,175.8125,-0.1962891,0.6884766,0.05957031,-0.1010742,-0.3730469,-0.05859375
251,-15.9375,22.3125,164.9375,-0.1611328,0.6694336,0.07910156,-0.1162109,-0.3657227,-0.06103516
255,-10.375,17.5625,155.25,-0.08398438,0.7666016,0.09423828,-0.1318359,-0.359375,-0.06396484
259,-7.25,15.8125,150.125,-0.04492188,0.6845703,0.09814453,-0.1411133,-0.3554688,-0.06542969
263,0.6875,17.25,152.5625,-0.006347656,0.7587891,0.05957031,-0.1542969,-0.3491211,-0.06396484
267,-3.3125,14.875,158.8125,-0.05664063,0.7392578,0.03662109,-0.168457,-0.3408203,-0.06542969
271,-11.875,12.625,160.4375,0.1054688,0.8364258,0.02490234,-0.1772461,-0.3330078,-0.06933594
275,-13.5,17.25,153.9375,0.1210938,0.6147461,0.02099609,-0.1889648,-0.3256836,-0.06933594
279,-12.125,13.625,149.875,0.1831055,0.5839844,0.07910156,-0.2021484,-0.3144531,-0.07080078
283,-6.8125,11.75,142.875,0.2138672,0.6923828,0.08251953,-0.2089844,-0.3066406,-0.07080078
287,-10.1875,10.6875,139.3125,0.2138672,0.8325195,0.07519531,-0.2211914,-0.296875,-0.07080078
291,-16.125,3.75,144.3125,0.206543,0.890625,0.04443359,-0.2304688,-0.2866211,-0.07177734
295,-14.5625,1.875,145.5625,0.2490234,0.9335938,0.06738281,-0.2353516,-0.2783203,-0.07177734
299,-15.375,3.25,156,0.3188477,0.9453125,0.01708984,-0.2460938,-0.2680664,-0.07763672
303,-19.0625,10.5625,156.625,0.4155273,0.809082,0.02880859,-0.2568359,-0.2543945,-0.07470703
308,-16.4375,5.75,153.4375,0.4038086,0.6845703,0.1098633,-0.2636719,-0.2456055,-0.07861328
312,-11,3.9375,153.4375,0.4467773,0.6577148,0.08642578,-0.2709961,-0.2329102,-0.08007813
316,-7.5625,5.25,153.8125,0.4389648,0.7470703,0.09814453,-0.2768555,-0.2167969,-0.07861328
320,-20.9375,0.5,153.9375,0.4814453,0.8168945,0.09033203,-0.2866211,-0.2070313,-0.08154297
324,-25.8125,-2.8125,156,0.5629883,0.5952148,0.1635742,-0.2915039,-0.1918945,-0.08154297
328,-14.5,0.125,158.5625,0.59375,0.5058594,0.1479492,-0.3007813,-0.1791992,-0.08154297
332,-23.3125,-1.75,154,0.6713867,0.5058594,0.08251953,-0.3032227,-0.1669922,-0.08007813
336,-48,-8.4375,147.3125,0.7294922,0.3544922,0.02490234,-0.309082,-0.1518555,-0.08300781
340,-60.5,-8.0625,136,0.7758789,0.01269531,0.07910156,-0.3139648,-0.1357422,-0.08300781
344,-59.625,-9.3125,122.375,0.8222656,-0.2900391,0.1367188,-0.3149414,-0.1254883,-0.08447266
348,-45.625,-6.5625,103.8125,0.8730469,-0.534668,0.1713867,-0.3188477,-0.1132813,-0.08300781
352,-20.875,-2.4375,81.75,0.9116211,-0.355957,0.1713867,-0.3208008,-0.1005859,-0.08300781
356,-17.625,-3,51.3125,0.8881836,-0.3481445,0.09033203,-0.3188477,-0.09716797,-0.08300781
360,-19.5625,-7.1875,23.875,0.8613281,-0.2202148,0.05957031,-0.3208008,-0.09179688,-0.08300781
364,-8.8125,-7.4375,4,0.8881836,-0.1616211,0.07128906,-0.3208008,-0.08935547,-0.08447266
368,0.875,-6.9375,-13.3125,0.8535156,-0.02978516,0.02490234,-0.3232422,-0.09082031,-0.08300781
372,5.25,-4.75,-24.9375,0.8652344,0.008789063,-0.005371094,-0.3208008,-0.09179688,-0.08007813
376,8.4375,-0.3125,-32.25,0.8417969,-0.01025391,-0.01660156,-0.3208008,-0.09570313,-0.08154297
380,10.875,2.875,-41.5,0.8496094,-0.01806641,0.01367188,-0.3208008,-0.09960938,-0.08007813
384,17.875,6,-53,0.8339844,-0.1577148,0.08642578,-0.3208008,-0.1044922,-0.08154297
388,31.6875,0.25,-75.125,0.7758789,-0.09960938,0.159668,-0.3188477,-0.1108398,-0.08154297
392,40.6875,-4.125,-88.625,0.6982422,0.08251953,0.1367188,-0.3173828,-0.1142578,-0.08154297
396,43.3125,-3.875,-91.4375,0.6557617,0.1953125,0.08642578,-0.3164063,-0.1254883,-0.07763672
400,40.875,4.75,-84.3125,0.6557617,0.2807617,0.001953125,-0.3139648,-0.1367188,-0.08154297
404,26.3125,7.9375,-85.8125,0.609375,0.3349609,-0.04736328,-0.3125,-0.1430664,-0.07861328
408,11.5,-3.125,-107.75,0.659668,0.203125,0.04785156,-0.309082,-0.1508789,-0.07861328
412,20.0625,-4.5,-124.5,0.5976563,0.1835938,0.1098633,-0.3066406,-0.1630859,-0.07763672
416,28.1875,-2.375,-129.625,0.4970703,0.2612305,0.07128906,-0.3007813,-0.171875,-0.07763672
420,37.1875,5.75,-127.875,0.4697266,0.3544922,0.07128906,-0.2973633,-0.1845703,-0.07617188
424,45.25,21.1875,-114.1875,0.4389648,0.4360352,0.02490234,-0.2890625,-0.1967773,-0.07617188
428,25.375,13,-126.9375,0.2797852,0.5952148,-0.05126953,-0.2875977,-0.203125,-0.07324219
432,-5.3125,-11.875,-166.5625,0.3769531,0.4438477,0.105957,-0.2807617,-0.2167969,-0.07470703
437,6.0625,-13.5625,-174.25,0.2138672,0.4750977,0.1479492,-0.2709961,-0.2304688,-0.07470703
441,23.9375,-8.25,-166.8125,0.2294922,0.5332031,0.1132813,-0.2636719,-0.2431641,-0.07470703
445,33.375,2.375,-159.125,0.1674805,0.6655273,0.02099609,-0.253418,-0.2558594,-0.07177734
449,51.3125,17.5,-147.3125,0.1870117,0.7001953,0.04785156,-0.2446289,-0.2705078,-0.06933594
453,24.5,9.0625,-157.1875,0.04736328,0.9453125,-0.109375,-0.2402344,-0.2792969,-0.06787109
457,-13.25,-2.125,-184.0625,0.1328125,0.7158203,-0.02441406,-0.2270508,-0.2929688,-0.06933594
461,-17.625,-16.3125,-208.4375,-0.01806641,0.5605469,0.125,-0.2128906,-0.3066406,-0.07080078
465,7.625,-11.8125,-198.875,-0.1147461,0.6147461,0.1787109,-0.203125,-0.3129883,-0.06933594
469,34.0625,-0.125,-188.9375,-0.1611328,0.7817383,0.07910156,-0.1865234,-0.328125,-0.06640625
473,41.8125,5.4375,-183.5625,-0.2929688,1.034668,-0.02832031,-0.1708984,-0.3408203,-0.06542969
477,22.375,-9.375,-197.375,-0.2700195,1.12793,-0.02441406,-0.1601563,-0.3442383,-0.0625
481,6.4375,-21.0625,-211.125,-0.3320313,1.20166,-0.02441406,-0.1401367,-0.3554688,-0.05957031
485,-10.8125,-21.6875,-213.9375,-0.3432617,1.263672,-0.03222656,-0.1220703,-0.3642578,-0.05957031
489,-27.1875,-21.25,-209,-0.4052734,1.081055,0.02099609,-0.109375,-0.3706055,-0.05712891
493,-9.0625,-11.6875,-201.625,-0.4287109,1.026855,0.1132813,-0.09033203,-0.3754883,-0.06396484
497,-7.375,-3.625,-194,-0.4711914,1.146973,0.01708984,-0.06982422,-0.3833008,-0.06103516
501,-8.25,0.375,-193.4375,-0.5527344,1.131836,0.05957031,-0.05810547,-0.3857422,-0.0625
505,-9.1875,2.5,-199.375,-0.5683594,1.143066,0.03271484,-0.0390625,-0.3867188,-0.0625
509,-16.375,16.625,-203.5,-0.5952148,1.120117,0.01367188,-0.01855469,-0.3891602,-0.06542969
513,-17.625,33.125,-206.8125,-0.7578125,0.9799805,-0.04394531,-0.004394531,-0.3930664,-0.06640625
517,-14.0625,30.9375,-199.9375,-0.8085938,0.9453125,0.03271484,0.01513672,-0.3891602,-0.06396484
521,-1.5625,35.0625,-201.75,-0.8935547,0.9916992,0.1171875,0.03564453,-0.3881836,-0.07080078
525,7.875,16.875,-203.4375,-1.118652,1.372559,-0.009277344,0.04980469,-0.3867188,-0.06933594
529,10.8125,-2,-198.1875,-0.9594727,1.601563,0.09033203,0.06884766,-0.3857422,-0.06787109
533,12.9375,-16.375,-184.875,-0.8974609,1.776367,-0.03613281,0.08691406,-0.3793945,-0.06542969
537,10.0625,-14.8125,-153.625,-0.7036133,1.932129,-0.08203125,0.09863281,-0.3745117,-0.06396484
541,2.75,1.5,-117.875,-0.5991211,1.962891,-0.1435547,0.112793,-0.3706055,-0.06640625
545,-2.1875,10.375,-79.1875,-0.5683594,1.893066,-0.05908203,0.1210938,-0.3691406,-0.06640625
549,-3.4375,10.0625,-43.75,-0.5566406,1.741699,0.05175781,0.125,-0.3657227,-0.06640625
553,12.8125,4.4375,-11.5,-0.5371094,1.574707,0.1943359,0.1308594,-0.3632813,-0.06542969
557,20.0625,-2.4375,9.125,-0.5292969,1.504395,0.2250977,0.1308594,-0.3618164,-0.06640625
561,24.875,-13.125,22.875,-0.5102539,1.333496,0.1982422,0.1308594,-0.3657227,-0.0625
566,25.4375,-21.5,32.0625,-0.4907227,1.271484,0.1518555,0.125,-0.3642578,-0.0625
570,24.9375,-26.0625,39.125,-0.4443359,1.298828,0.07519531,0.1225586,-0.3681641,-0.06103516
574,15.25,-19.5625,51.4375,-0.4521484,1.287109,0.005859375,0.1201172,-0.3681641,-0.05859375
578,15.375,-12.8125,61.9375,-0.4672852,1.232422,0.04443359,0.1152344,-0.3706055,-0.05859375
582,19.375,-7.4375,68.25,-0.4326172,1.255859,-0.005371094,0.1103516,-0.3730469,-0.05712891
586,0.4375,-17.875,62.375,-0.5214844,1.248047,-0.05908203,0.1044922,-0.3754883,-0.05712891
590,14.9375,-15.75,73.875,-0.5449219,1.240234,-0.005371094,0.09863281,-0.3769531,-0.05712891
594,29.8125,-7,96,-0.5722656,1.275391,-0.03613281,0.09033203,-0.3803711,-0.05712891
598,39.75,5.5625,111.8125,-0.5410156,1.314453,-0.02832031,0.08447266,-0.3833008,-0.05029297
602,34.125,1.875,120.1875,-0.6225586,1.325684,-0.04736328,0.07470703,-0.3857422,-0.04882813
606,20.9375,-6,125.8125,-0.6494141,1.32959,-0.04003906,0.06054688,-0.3881836,-0.04345703
610,16.875,-7.3125,142.0625,-0.6416016,1.306641,-0.05908203,0.05322266,-0.3881836,-0.04345703
614,11.6875,-4.3125,157.4375,-0.6303711,1.388184,-0.1513672,0.03808594,-0.390625,-0.04199219
618,6,0,169.625,-0.6108398,1.333496,-0.1708984,0.02246094,-0.3930664,-0.03955078
622,-2.625,-7.9375,160.9375,-0.4985352,1.306641,-0.0859375,0.01171875,-0.3945313,-0.04199219
626,-4.5,-12.1875,156.625,-0.4672852,1.221191,0.001953125,-0.004394531,-0.3916016,-0.04199219
630,-10.125,-6.25,145.875,-0.4868164,1.244141,-0.03222656,-0.02001953,-0.3916016,-0.04345703
634,-8.6875,0.1875,154.4375,-0.4750977,1.209473,-0.04003906,-0.02832031,-0.390625,-0.04199219
638,-15.1875,4.5625,154.875,-0.4169922,1.267578,-0.1054688,-0.04492188,-0.3881836,-0.04345703
642,-21.125,9.25,150.3125,-0.3706055,1.131836,-0.04394531,-0.06152344,-0.3857422,-0.04638672
646,-20.9375,12.0625,149.8125,-0.3823242,1.135742,-0.04736328,-0.07226563,-0.3833008,-0.04638672
650,-26.125,17.5625,160.5,-0.6494141,0.6923828,-0.2514648,-0.08544922,-0.3818359,-0.05029297
654,-24.375,7.75,171.6875,-0.1884766,1.182129,0.1479492,-0.09960938,-0.3745117,-0.05273438
658,-17.625,15.5625,181.4375,-0.3862305,1.088867,-0.03613281,-0.1137695,-0.371582,-0.05273438
662,-21.3125,12.5,197.3125,-0.2851563,1.092773,-0.02441406,-0.1318359,-0.3618164,-0.05566406
666,-18.5,20.375,198.625,-0.09130859,1.069336,-0.03222656,-0.1474609,-0.3544922,-0.05859375
670,-24.0625,20.25,199.25,-0.1611328,1.003418,-0.04394531,-0.1591797,-0.3457031,-0.05957031
674,-25.6875,14.625,204.5,-0.08789063,0.8325195,-0.01318359,-0.1772461,-0.3330078,-0.0625
678,-23.5,16.1875,200.3125,-0.02197266,0.8671875,-0.04003906,-0.1948242,-0.3217773,-0.06542969
682,-25.75,17.375,201.125,0.02832031,0.8710938,-0.01318359,-0.2045898,-0.3129883,-0.06640625
686,-20.25,21.8125,197.375,0.1328125,0.7548828,0.03662109,-0.21875,-0.2983398,-0.07177734
690,-18.3125,23,182.9375,0.1484375,0.7705078,0.06738281,-0.2319336,-0.2841797,-0.07470703
695,-11.4375,15.9375,183.9375,0.1518555,0.5371094,0.1020508,-0.2387695,-0.2744141,-0.07617188
699,-7.3125,17,180.625,0.2451172,0.7001953,0.08251953,-0.2509766,-0.2592773,-0.07861328
703,-10.0625,15.0625,169.9375,0.3071289,0.6342773,0.07519531,-0.2617188,-0.2431641,-0.08007813
707,-11.0625,14.125,166,0.3417969,0.6225586,0.08642578,-0.2700195,-0.234375,-0.08154297
711,-8.6875,17.75,162.75,0.3496094,0.7431641,0.04443359,-0.2783203,-0.2207031,-0.08300781
715,-10,17,156.5625,0.3496094,0.6577148,0.125,-0.2866211,-0.2055664,-0.08154297
719,-3.25,18.375,157.625,0.4233398,0.8828125,0.1132813,-0.2900391,-0.1967773,-0.08691406
723,1.125,23.9375,170.375,0.4389648,0.9838867,0.009765625,-0.2983398,-0.1791992,-0.08691406
727,-17.5625,28.3125,183.125,0.4697266,0.9995117,-0.1362305,-0.3017578,-0.1630859,-0.08837891
731,-32.8125,38.5625,186.125,0.4931641,0.793457,-0.05126953,-0.3066406,-0.1508789,-0.09082031
735,-40,30.375,180.625,0.4970703,0.4086914,0.07910156,-0.309082,-0.1293945,-0.09521484
739,-19.6875,24.4375,168.9375,0.4775391,0.2226563,0.1787109,-0.3139648,-0.1118164,-0.09912109
743,2.125,20.0625,165.375,0.4697266,0.1293945,0.2558594,-0.3164063,-0.1020508,-0.1005859
747,1.625,23.3125,166.25,0.5161133,0.2299805,0.2172852,-0.3164063,-0.08447266,-0.1020508
751,-23.25,22.5625,155.625,0.5976563,0.2148438,0.2094727,-0.3173828,-0.06689453,-0.1044922
755,-55.1875,21.6875,141.0625,0.6054688,0.03222656,0.1674805,-0.3188477,-0.05810547,-0.1074219
759,-53.1875,11.9375,129.3125,0.5859375,-0.581543,0.3364258,-0.3188477,-0.04199219,-0.1098633
763,-28.875,10.125,102.8125,0.7451172,-0.006347656,0.3173828,-0.3164063,-0.02929688,-0.1088867
767,-23.8125,4.9375,83.3125,0.7138672,-0.9155273,0.2094727,-0.3188477,-0.01953125,-0.1098633
771,-23.125,6.625,51.5,0.7255859,-1.004883,0.2021484,-0.3164063,-0.01074219,-0.1098633
775,-13.25,-0.4375,11.6875,0.7412109,-1.109863,0.2558594,-0.3164063,-0.009277344,-0.1113281
779,5.375,-5.6875,-24.3125,0.7255859,-0.9428711,0.2133789,-0.3164063,-0.006835938,-0.1074219
783,14.6875,-11.5,-51.4375,0.7138672,-0.6899414,0.1479492,-0.3173828,-0.01074219,-0.1088867
787,10.75,-16.3125,-77.6875,0.7255859,-0.421875,0.08642578,-0.3188477,-0.01806641,-0.105957
791,7,-18.5625,-95,0.7099609,-0.3017578,0.06738281,-0.3188477,-0.0234375,-0.105957
795,12.8125,-17.1875,-108.0625,0.7060547,-0.1035156,0.09033203,-0.3208008,-0.03466797,-0.1044922
799,18.4375,-15.625,-112.5625,0.6674805,-0.2006836,0.08642578,-0.3208008,-0.046875,-0.1035156
803,24.8125,-12.0625,-115.3125,0.6791992,-0.1113281,0.07910156,-0.3198242,-0.05322266,-0.1035156
807,28.5625,-4.5625,-119.4375,0.6982422,0.04003906,0.07128906,-0.3208008,-0.06591797,-0.1020508
811,20.5,-14.25,-137.5,0.644043,0.1601563,0.08251953,-0.3198242,-0.078125,-0.1020508
815,15.375,-24.875,-155.375,0.6132813,0.2768555,0.140625,-0.3173828,-0.08935547,-0.09765625
819,11.6875,-33.75,-166,0.578125,0.3701172,0.1367188,-0.3139648,-0.1069336,-0.09667969
824,15.9375,-27.9375,-162.5,0.5629883,0.4321289,0.1557617,-0.3149414,-0.1220703,-0.09375
828,20.5625,-23.375,-152.6875,0.5512695,0.5332031,0.05957031,-0.3105469,-0.1357422,-0.09082031
832,18.875,-13,-148.9375,0.5317383,0.5175781,0.07910156,-0.3066406,-0.1494141,-0.08984375
836,18.0625,-22.875,-166.25,0.4580078,0.4555664,0.1020508,-0.3007813,-0.1655273,-0.08447266
840,30.125,-31,-186.875,0.4580078,0.3271484,0.1479492,-0.3007813,-0.1791992,-0.08447266
844,53.375,-34.0625,-195,0.2993164,0.5722656,0.07128906,-0.2915039,-0.1967773,-0.08007813
848,38.6875,-18.75,-179.375,0.3535156,0.972168,-0.2055664,-0.2817383,-0.2143555,-0.07617188
852,11.5,2.625,-161.5,0.3808594,0.921875,-0.1938477,-0.2768555,-0.2255859,-0.07470703
856,-14.0625,9.3125,-172.5,0.2954102,0.7856445,-0.07470703,-0.2675781,-0.2392578,-0.07470703
860,-15.5,3.5625,-200.3125,0.2451172,0.5410156,0.09423828,-0.2578125,-0.2558594,-0.07617188
864,20.5625,-9.125,-214.8125,0.04736328,0.5253906,0.1713867,-0.2460938,-0.265625,-0.07617188
868,37.75,-19.4375,-211.9375,-0.03710938,0.9453125,0.06738281,-0.2329102,-0.2856445,-0.07470703
872,21.5625,-11.9375,-193.125,0.07470703,1.17041,-0.05908203,-0.2197266,-0.2983398,-0.06933594
876,-3.3125,3,-180.75,0.02441406,1.084961,-0.06298828,-0.2089844,-0.3066406,-0.07177734
880,-9.75,8.1875,-184.25,-0.02978516,0.7895508,0.08642578,-0.1938477,-0.3193359,-0.07080078
884,12.5625,6.1875,-199.1875,-0.2080078,0.7080078,0.1982422,-0.1816406,-0.3305664,-0.07080078
888,26.125,-19.0625,-222.5625,-0.2583008,0.840332,0.1289063,-0.1699219,-0.3378906,-0.07177734
892,22.75,-20,-224.375,-0.3007813,1.019043,0.05566406,-0.1484375,-0.3505859,-0.06787109
896,4.3125,-15.8125,-209.6875,-0.3666992,1.17041,-0.04736328,-0.1293945,-0.3603516,-0.06542969
900,-11.8125,7.0625,-188.375,-0.2890625,1.019043,-0.07861328,-0.1162109,-0.3666992,-0.06396484
904,-10.875,25.625,-183.625,-0.3393555,0.7705078,-0.05908203,-0.09716797,-0.371582,-0.06542969
908,-2.1875,35.5,-198.3125,-0.4404297,0.6884766,-0.04394531,-0.07958984,-0.3803711,-0.06933594
912,0.1875,35.5,-225.3125,-0.6069336,0.6655273,0.001953125,-0.06494141,-0.3833008,-0.06933594
916,7.3125,30,-249.375,-0.8085938,0.6577148,0.07910156,-0.04394531,-0.3867188,-0.06933594
920,20.375,19.875,-259.9375,-1.029297,0.8632813,0.09814453,-0.01757813,-0.3916016,-0.06933594
924,21.125,19.75,-257.0625,-1.071777,1.217285,0.03662109,-0.001953125,-0.390625,-0.06542969
928,12,16.0625,-251.25,-1.125977,1.333496,-0.03613281,0.02587891,-0.390625,-0.06542969
932,7.0625,15.375,-248.875,-1.091309,1.314453,-0.04394531,0.05078125,-0.3867188,-0.06396484
936,3.9375,12,-249.3125,-1.11084,1.345215,-0.05126953,0.06640625,-0.3833008,-0.06542969
940,0.9375,5.5625,-246.6875,-1.103027,1.341309,-0.01660156,0.09033203,-0.3769531,-0.06396484
944,4.625,1.0625,-232.875,-1.11084,1.446289,-0.03613281,0.1142578,-0.371582,-0.06542969
948,2.5625,-2.25,-204.4375,-0.9907227,1.543457,-0.01660156,0.128418,-0.3632813,-0.0625
953,3.375,-1.6875,-176.0625,-0.9013672,1.570801,-0.009277344,0.1450195,-0.3569336,-0.06542969
957,-1.625,-2.9375,-150.6875,-0.7617188,1.636719,0.001953125,0.1606445,-0.3481445,-0.06542969
961,-1.125,-0.0625,-120.5,-0.7114258,1.570801,0.07910156,0.1674805,-0.3442383,-0.06542969
965,6.375,4.25,-85.3125,-0.7192383,1.55127,0.1289063,0.1757813,-0.3378906,-0.06640625
969,11.25,6.0625,-52.25,-0.6494141,1.543457,0.140625,0.1831055,-0.3330078,-0.06396484
973,10.875,3.75,-27,-0.6186523,1.46582,0.140625,0.1855469,-0.3320313,-0.0625
977,13,2.8125,-9.625,-0.5756836,1.372559,0.144043,0.1879883,-0.3320313,-0.06396484
981,17.8125,0.9375,7.75,-0.5756836,1.310547,0.1713867,0.1879883,-0.3305664,-0.05957031
985,18.4375,-3.5625,17.5625,-0.5605469,1.279297,0.1518555,0.1855469,-0.3330078,-0.05957031
989,17,-7.8125,22.375,-0.5834961,1.236328,0.1098633,0.1855469,-0.3330078,-0.05859375
993,18.75,-13.375,33,-0.6303711,1.221191,0.1171875,0.184082,-0.3354492,-0.05712891
997,23.8125,-19.5,45.5,-0.6650391,1.217285,0.07910156,0.1821289,-0.3354492,-0.05712891
1001,32.3125,-24.1875,59.125,-0.6494141,1.217285,0.07128906,0.1748047,-0.3393555,-0.05712891
1005,36.5625,-22.875,77,-0.6611328,1.302734,-0.009277344,0.1713867,-0.3417969,-0.05566406
1009,30.125,-19.0625,92.8125,-0.6533203,1.349121,-0.07861328,0.1665039,-0.3466797,-0.05175781
1013,24.1875,-16.375,102.875,-0.6689453,1.399902,-0.08984375,0.1567383,-0.3520508,-0.05029297
1017,21.8125,-12.625,119.3125,-0.746582,1.438477,-0.07470703,0.1474609,-0.3554688,-0.05175781
1021,21.125,-9.25,141.75,-0.8164063,1.485352,-0.07470703,0.1416016,-0.3603516,-0.04882813
1025,17.4375,-6.75,163.9375,-0.862793,1.489258,-0.07080078,0.1269531,-0.3666992,-0.04638672
1029,16,-5.25,180.75,-0.8588867,1.418945,-0.05908203,0.1118164,-0.3745117,-0.04492188
1033,14.25,-0.3125,194.25,-0.862793,1.407715,-0.09375,0.09863281,-0.3769531,-0.04199219
1037,3.625,-2.9375,199.3125,-0.9287109,1.388184,-0.08984375,0.08203125,-0.3842773,-0.04199219
1041,11.625,-0.3125,206.625,-0.8666992,1.225098,0.02490234,0.06396484,-0.3867188,-0.04345703
1045,26.5,3.5625,219.5625,-0.9013672,1.321777,0.01367188,0.04736328,-0.3891602,-0.03955078
1049,21.5,9.125,231.8125,-0.8393555,1.469727,-0.1054688,0.02734375,-0.3945313,-0.03808594
1053,6.5,17.5,238.75,-0.796875,1.493164,-0.1743164,0.004394531,-0.3930664,-0.03515625
1057,-8.9375,24.375,244.875,-0.7773438,1.43457,-0.1899414,-0.01416016,-0.3916016,-0.03515625
1061,-23.3125,30.5,246.375,-0.730957,1.32959,-0.1591797,-0.0390625,-0.3916016,-0.03369141
1065,-28.625,34.25,243.125,-0.7231445,1.228516,-0.1206055,-0.06152344,-0.3867188,-0.03955078
1069,-25.25,34.5,246.9375,-0.6689453,1.131836,-0.03613281,-0.08056641,-0.3818359,-0.04199219
1073,-30.875,27.6875,242,-0.7114258,1.108398,-0.07861328,-0.1020508,-0.3730469,-0.04638672
1077,-23.75,25.0625,242.5625,-0.5722656,0.9453125,0.02490234,-0.1259766,-0.3632813,-0.04882813
1082,-16.25,20.375,234.875,-0.4711914,0.953125,-0.04736328,-0.1376953,-0.3579102,-0.05029297
1086,-17.0625,18.75,227.9375,-0.3745117,0.9296875,-0.08203125,-0.1601563,-0.3457031,-0.05419922
1090,-17.875,21.9375,225.1875,-0.3203125,0.8520508,-0.07470703,-0.1791992,-0.3320313,-0.05566406
1094,-13.25,26.8125,229.4375,-0.262207,0.9023438,-0.08203125,-0.1914063,-0.3232422,-0.05957031
1098,-19.5,30,232.6875,-0.215332,0.8286133,-0.06689453,-0.2089844,-0.3081055,-0.06103516
1102,-9.4375,28.75,225.5625,-0.1381836,0.7666016,0.02099609,-0.2255859,-0.2905273,-0.06542969
1106,-1.5625,24.25,220.375,-0.07226563,0.7275391,0.04443359,-0.237793,-0.2817383,-0.06542969
1110,3.4375,20.9375,210.875,0.008789063,0.8051758,0.005859375,-0.2495117,-0.2631836,-0.06787109
1114,3.375,22.5,207,0.01660156,0.8789063,0.03271484,-0.2636719,-0.2470703,-0.06933594
1118,6.625,23.125,225.8125,-0.1030273,0.987793,0.01708984,-0.2724609,-0.234375,-0.06787109
1122,9.5625,23.375,240,-0.01416016,0.9179688,0.08251953,-0.2827148,-0.2119141,-0.06933594
1126,9.4375,20.9375,246.3125,0.09033203,0.9375,0.05566406,-0.2958984,-0.1904297,-0.07324219
1130,-5.875,10.9375,236.9375,0.1484375,0.8789063,0.009765625,-0.3007813,-0.1757813,-0.07470703
1134,-18.3125,12.3125,238.1875,0.2026367,0.7080078,0.02490234,-0.3081055,-0.1508789,-0.07324219
1138,-19.5,18.75,243.9375,0.2451172,0.4282227,0.140625,-0.3164063,-0.1254883,-0.07617188
1142,-17.9375,20.5,245.8125,0.2451172,0.2226563,0.159668,-0.3198242,-0.1108398,-0.07763672
1146,-23.5,19.25,240.3125,0.2915039,0.06689453,0.1479492,-0.3222656,-0.08300781,-0.08007813
1150,-31.875,17.4375,224.1875,0.3691406,-0.2392578,0.2060547,-0.3232422,-0.05810547,-0.08154297
1154,-43.625,8.875,198.875,0.4194336,-0.4414063,0.1518555,-0.324707,-0.04296875,-0.08300781
1158,-52.1875,8.6875,179.0625,0.4736328,-0.6938477,0.1098633,-0.324707,-0.02441406,-0.08447266
1162,-67.3125,12.875,165.1875,0.543457,-0.9970703,0.06347656,-0.3222656,-0.005859375,-0.08300781
1166,-69.125,15.6875,135.1875,0.6713867,-1.447754,0.06738281,-0.3208008,0.008789063,-0.08300781
1170,-59.5625,15.875,80.375,0.7060547,-1.743164,0.07910156,-0.3198242,0.02246094,-0.08300781
1174,-37.5625,5,7.9375,0.7797852,-1.735352,0.1479492,-0.3188477,0.02734375,-0.08300781
1178,-4.6875,-6.75,-50.1875,0.7138672,-1.459473,0.144043,-0.3173828,0.02734375,-0.08447266
1182,15,-13.9375,-87.5,0.6713867,-0.9428711,0.07128906,-0.3188477,0.02148438,-0.08154297
1186,21.1875,-18.25,-110.5625,0.6791992,-0.6162109,0.06347656,-0.3208008,0.01025391,-0.07861328
1190,21.875,-20,-127.6875,0.659668,-0.402832,0.02490234,-0.3222656,0.00390625,-0.08007813
1194,20.875,-19.125,-136.4375,0.6479492,-0.2822266,0.02490234,-0.3232422,-0.01171875,-0.07763672
1198,18.625,-20.5,-151.5625,0.6831055,-0.2392578,0.04443359,-0.3256836,-0.02441406,-0.07763672
1202,24.8125,-25.1875,-169.5625,0.6362305,-0.1928711,0.08642578,-0.3256836,-0.03808594,-0.07617188
1206,40.1875,-23.6875,-170.625,0.5898438,-0.01806641,0.07128906,-0.324707,-0.05566406,-0.07177734
1211,37.6875,-15.8125,-163.0625,0.578125,0.2963867,-0.05517578,-0.3271484,-0.07324219,-0.07080078
1215,20.875,-1.625,-154.9375,0.5820313,0.3701172,-0.04003906,-0.3256836,-0.08544922,-0.07080078
1219,-7,-7.9375,-175.25,0.59375,0.3310547,-0.01660156,-0.3222656,-0.1020508,-0.07080078
1223,-3.8125,-11.75,-201.6875,0.5629883,0.1020508,0.1289063,-0.3188477,-0.1196289,-0.06933594
1227,24.375,-14.375,-210.0625,0.4038086,0.2070313,0.1210938,-0.3173828,-0.1342773,-0.06933594
1231,48.125,-15.0625,-201.1875,0.3188477,0.4790039,0.05566406,-0.3115234,-0.1557617,-0.06640625
1235,36.75,-6.0625,-189.375,0.3808594,1.015137,-0.1743164,-0.3041992,-0.1757813,-0.0625
1239,-29.5625,-8.25,-198.875,0.3769531,1.038574,-0.2514648,-0.2983398,-0.1904297,-0.0625
1243,-51.6875,6,-206.1875,0.4155273,0.6186523,0.02880859,-0.2851563,-0.2080078,-0.06542969
1247,-27.25,2.1875,-215.6875,0.206543,0.5991211,0.125,-0.2783203,-0.2246094,-0.06933594
1251,-13.4375,-5.5,-209.625,0.1445313,0.8945313,0.05566406,-0.2685547,-0.2368164,-0.06787109
1255,-29.75,-2.3125,-198.3125,0.1674805,1.17041,-0.07080078,-0.2568359,-0.2558594,-0.06933594
1259,-67.9375,7,-193.9375,0.2177734,1.244141,-0.128418,-0.2446289,-0.2705078,-0.07324219
1263,-104.5,14.5,-202.1875,0.2104492,1.061523,-0.05517578,-0.2329102,-0.2792969,-0.07861328
1267,-83.8125,23.125,-198.125,0.09033203,0.6499023,0.2172852,-0.2211914,-0.2944336,-0.08544922
1271,-27.625,24.3125,-187,-0.06835938,0.7236328,0.2905273,-0.2055664,-0.3041992,-0.09082031
1275,7.4375,27.3125,-172.0625,-0.03320313,0.9604492,0.2172852,-0.1962891,-0.3144531,-0.09375
1279,12.625,29.75,-168.125,-0.05664063,1.135742,0.1635742,-0.1816406,-0.3242188,-0.09521484
1283,3.25,24.625,-173.5,-0.1069336,1.015137,0.2060547,-0.1665039,-0.3344727,-0.09521484
1287,24.4375,17.6875,-182.875,-0.1420898,0.7509766,0.3598633,-0.1557617,-0.3432617,-0.09521484
1291,48.3125,3.875,-192.6875,-0.2700195,0.824707,0.2944336,-0.1376953,-0.3505859,-0.09375
1295,53.625,-10.0625,-185.125,-0.3588867,1.057617,0.1635742,-0.1220703,-0.359375,-0.08837891
1299,54.5,1,-163.625,-0.2504883,1.116211,0.06347656,-0.1113281,-0.3657227,-0.08544922
1303,48.75,16.4375,-149.5,-0.2700195,1.092773,-0.05126953,-0.09716797,-0.3745117,-0.08300781
1307,32.3125,16.5625,-168.875,-0.3164063,1.06543,-0.06298828,-0.08056641,-0.3769531,-0.07763672
1311,20,6.25,-199.0625,-0.4013672,0.9296875,0.02880859,-0.06982422,-0.3818359,-0.07470703
1315,17.25,-5.375,-210.125,-0.6494141,1.003418,0.03662109,-0.05078125,-0.3857422,-0.07324219
1319,9.4375,4.8125,-194.5,-0.6030273,1.034668,0.01367188,-0.02832031,-0.3891602,-0.07177734
1323,3.875,15.75,-187.625,-0.6962891,1.003418,-0.07861328,-0.01611328,-0.3891602,-0.07080078
1327,-1.5,16.8125,-203.1875,-0.7192383,1.073242,-0.1015625,0.002441406,-0.3891602,-0.07177734
1331,-2.8125,10.8125,-214.625,-0.8085938,1.186035,-0.05517578,0.0234375,-0.3891602,-0.06933594
1335,0.5625,9.625,-204.875,-0.9208984,1.251953,0.06347656,0.03808594,-0.3881836,-0.07080078
1340,16.375,2.625,-189.5,-0.9750977,1.182129,0.2060547,0.05810547,-0.3842773,-0.06933594
1344,37.75,-9.0625,-172.6875,-0.9946289,1.166504,0.2329102,0.07470703,-0.3803711,-0.07080078
1348,54.3125,-20.5,-158.9375,-0.8974609,1.17041,0.1479492,0.08691406,-0.3793945,-0.06787109
1352,57.0625,-25.4375,-151.5625,-0.7851563,1.228516,-0.001464844,0.1010742,-0.3754883,-0.06396484
1356,44.125,-25,-147.1875,-0.6923828,1.287109,-0.08984375,0.1142578,-0.3706055,-0.05859375
1360,28.8125,-18.375,-137.3125,-0.6728516,1.317871,-0.06689453,0.1235352,-0.3691406,-0.05712891
1364,11.6875,-12.875,-124,-0.6845703,1.317871,-0.05908203,0.1357422,-0.3632813,-0.05566406
1368,-1.25,-8.4375,-112.5625,-0.6264648,1.314453,-0.05126953,0.1474609,-0.3579102,-0.05566406
1372,-14.0625,-6.25,-100.875,-0.6455078,1.368652,-0.05517578,0.1508789,-0.3554688,-0.05419922
1376,-20.375,-2.4375,-80.3125,-0.6376953,1.380371,-0.04394531,0.1591797,-0.3491211,-0.05712891
1380,-26,7.0625,-58.5625,-0.6030273,1.376465,-0.02050781,0.1665039,-0.3466797,-0.05957031
1384,-23.8125,12.5625,-36.9375,-0.6264648,1.32959,0.05175781,0.1699219,-0.3408203,-0.0625
1388,-13.875,15.6875,-13.4375,-0.6108398,1.275391,0.1132813,0.1723633,-0.3417969,-0.0625
1392,-8.1875,11.5625,3.375,-0.6611328,1.205566,0.125,0.1723633,-0.3408203,-0.06396484
1396,-1.75,5.375,13.4375,-0.6186523,1.12793,0.1289063,0.1713867,-0.3417969,-0.0625
1400,7.9375,0.5625,22.1875,-0.6376953,1.158691,0.1098633,0.1713867,-0.3417969,-0.0625
1404,11.8125,-1.8125,35.1875,-0.6264648,1.251953,0.05566406,0.1699219,-0.3432617,-0.06103516
1408,15.75,-3.1875,50.875,-0.6264648,1.298828,0.04785156,0.1674805,-0.3457031,-0.06103516
1412,21.6875,-1.5,74.375,-0.6455078,1.395996,-0.005371094,0.1616211,-0.3481445,-0.05957031
1416,19.4375,2.5,99.125,-0.6728516,1.469727,-0.01660156,0.1557617,-0.3505859,-0.05859375
1420,22.4375,-0.5625,116.125,-0.6845703,1.438477,-0.009277344,0.1484375,-0.3569336,-0.05712891
1424,33.125,-2.0625,136.75,-0.7036133,1.473633,0.01708984,0.1391602,-0.3632813,-0.05419922
1428,35,-1.5,159.0625,-0.7387695,1.562988,-0.02441406,0.125,-0.3681641,-0.04882813
1432,32.8125,-0.625,178.75,-0.7348633,1.55127,-0.06298828,0.1142578,-0.3745117,-0.04736328
1436,26.375,7.6875,194.5,-0.7114258,1.566895,-0.1166992,0.09619141,-0.3793945,-0.04638672
1440,14.75,10.25,206.3125,-0.765625,1.473633,-0.0859375,0.07714844,-0.3842773,-0.04199219
1444,10.0625,15.25,213.25,-0.7192383,1.384277,-0.009277344,0.06298828,-0.3881836,-0.04199219
1448,6.125,13.375,215.375,-0.7192383,1.36084,-0.009277344,0.04248047,-0.3891602,-0.04052734
1452,0.125,12.25,214.5625,-0.715332,1.263672,0.001953125,0.02148438,-0.3930664,-0.03662109
1456,3.625,18,221.5625,-0.7192383,1.209473,0.005859375,0.006835938,-0.3916016,-0.03808594
1460,3.375,22.375,229.5625,-0.6494141,1.162598,0.02099609,-0.01513672,-0.390625,-0.03955078
1464,-2,24.375,227.5,-0.6455078,1.150879,0.005859375,-0.03759766,-0.3881836,-0.03662109
1469,-3.625,12.8125,213.8125,-0.5214844,1.061523,-0.009277344,-0.05224609,-0.3891602,-0.03955078
1473,-10.25,11.5625,201.8125,-0.5214844,1.182129,-0.0859375,-0.07226563,-0.3842773,-0.03955078
1477,-17.3125,12.5,208.6875,-0.4946289,1.104492,-0.05126953,-0.09228516,-0.3779297,-0.04199219
1481,-7.125,16.25,215.6875,-0.4555664,1.057617,-0.05908203,-0.1054688,-0.3745117,-0.04052734
1485,-4.625,17.5,214.625,-0.3393555,1.022949,-0.07470703,-0.1259766,-0.3657227,-0.04052734
1489,-8.6875,19.5625,206.0625,-0.2929688,1.06543,-0.1362305,-0.1459961,-0.3544922,-0.04492188
1493,-15.375,19.625,195.125,-0.2119141,0.9799805,-0.109375,-0.1582031,-0.3491211,-0.04492188
1497,-22.6875,17.75,193,-0.1962891,0.921875,-0.09765625,-0.1757813,-0.3378906,-0.04638672
1501,-20,23.3125,195.5625,-0.1499023,0.8012695,-0.04003906,-0.1899414,-0.3266602,-0.05029297
1505,-17.6875,23.1875,189.9375,-0.08789063,0.8632813,-0.05517578,-0.2006836,-0.3168945,-0.05175781
1509,-18.5,15.375,179.75,-0.07226563,0.8325195,0.03271484,-0.2138672,-0.3041992,-0.05566406
1513,-14.75,8.6875,166.125,-0.002441406,0.9023438,0.009765625,-0.2304688,-0.2929688,-0.05712891
1517,-18.5625,7.5,164.0625,0.03955078,0.9760742,-0.02441406,-0.2363281,-0.2832031,-0.05859375
1521,-17.25,14.375,172.8125,0.1210938,0.9682617,-0.05908203,-0.2470703,-0.2705078,-0.06103516
1525,-12.4375,27.6875,186.9375,0.08642578,1.007324,-0.02050781,-0.2592773,-0.2543945,-0.06103516
1529,-15.875,23.6875,192.6875,0.125,1.116211,-0.05517578,-0.2661133,-0.2441406,-0.06542969
1533,-17.625,21.25,195.75,0.175293,1.003418,0.05566406,-0.2768555,-0.2270508,-0.06787109
1537,-22.625,21.625,195.75,0.2685547,1.034668,0.01367188,-0.2866211,-0.2094727,-0.06933594
1541,-36.6875,15,199.5,0.1367188,0.9257813,0.07128906,-0.2924805,-0.1982422,-0.07177734
1545,-34.25,17.1875,212.9375,0.1948242,0.777832,0.1479492,-0.3007813,-0.1767578,-0.07470703
1549,-25.3125,15.75,224.8125,0.1870117,0.6499023,0.1674805,-0.309082,-0.1542969,-0.07617188
1553,-15.5,3.3125,224.375,0.2373047,0.5800781,0.1367188,-0.3125,-0.1381836,-0.07763672
1557,-17,1.6875,223.125,0.3339844,0.5253906,0.04785156,-0.3208008,-0.1157227,-0.07861328
1561,-32,-1.625,215.875,0.3613281,0.315918,0.009765625,-0.3232422,-0.09326172,-0.07617188
1565,-40.875,4.375,217.75,0.3652344,-0.04150391,-0.001464844,-0.324707,-0.07568359,-0.08007813
1569,-46.5625,9.3125,210.9375,0.3691406,-0.421875,0.05175781,-0.3271484,-0.05175781,-0.07617188
1573,-44.875,7.25,194.125,0.4970703,-0.6435547,0.08642578,-0.324707,-0.03173828,-0.07861328
1577,-55.875,3.4375,165.0625,0.5820313,-0.8183594,0.02490234,-0.3232422,-0.01806641,-0.07861328
1581,-75,1.75,125,0.6674805,-1.140625,-0.01318359,-0.3232422,-0.0004882813,-0.08007813
1585,-88.875,9.5625,93.875,0.7138672,-1.517578,-0.005371094,-0.3208008,0.01123047,-0.07861328
1589,-57.5,16.75,49.875,0.8613281,-1.999512,0.2060547,-0.3188477,0.01855469,-0.07763672
1593,-3.4375,12.375,-14.9375,0.7954102,-1.645996,0.2290039,-0.3188477,0.02246094,-0.07861328
1598,21.5,-12.75,-79.3125,0.7758789,-1.090332,0.159668,-0.3188477,0.01855469,-0.08007813
1602,41.25,-20.3125,-111.9375,0.7216797,-0.6435547,0.1328125,-0.3222656,0.01025391,-0.08007813
1606,44.75,-25.5625,-123.9375,0.6518555,-0.1811523,0.1020508,-0.3222656,-0.003417969,-0.07861328
1610,40.875,-33.4375,-119.6875,0.6328125,0.07470703,0.1020508,-0.3256836,-0.015625,-0.07617188
1614,36.375,-34.5625,-117.5625,0.7294922,0.09814453,0.1098633,-0.3256836,-0.02197266,-0.07177734
1618,44.25,-39.9375,-124.1875,0.7177734,0.1640625,0.08251953,-0.3271484,-0.03710938,-0.06933594
1622,48,-44.375,-118.0625,0.6982422,0.2612305,0.001953125,-0.328125,-0.05175781,-0.06542969
1626,38.25,-42.75,-116.5625,0.7529297,0.3081055,-0.09765625,-0.3271484,-0.05712891,-0.0625
1630,22.8125,-35.125,-110.3125,0.7490234,0.2495117,-0.1630859,-0.3295898,-0.06933594,-0.05712891
1634,22.4375,-10.3125,-93.4375,0.7875977,0.02050781,-0.1015625,-0.3295898,-0.08203125,-0.05419922
1638,32.5,9.75,-85.9375,0.6362305,-0.01416016,-0.08203125,-0.3256836,-0.08935547,-0.05566406
1642,9.25,-6.0625,-119.4375,0.6831055,0.02832031,-0.1015625,-0.3232422,-0.09716797,-0.05566406
1646,3.4375,-14.875,-169.125,0.7177734,-0.1381836,-0.009277344,-0.3232422,-0.1132813,-0.05419922
1650,18,-13.625,-184.25,0.4506836,-0.02978516,0.005859375,-0.3198242,-0.1269531,-0.05273438
1654,45.625,-4.5625,-179.125,0.4389648,0.1020508,-0.01318359,-0.3139648,-0.1445313,-0.05029297
1658,63.25,15.1875,-170.5625,0.3808594,0.4711914,-0.1552734,-0.3081055,-0.1630859,-0.05029297
1662,3.6875,6.25,-188.75,0.3266602,1.236328,-0.4516602,-0.3056641,-0.1757813,-0.05029297
1666,-62.4375,0.6875,-224.5,0.5087891,0.6577148,-0.1708984,-0.2958984,-0.1943359,-0.05273438
1670,-34.8125,12,-230.5625,0.2568359,0.203125,0.1826172,-0.2851563,-0.2143555,-0.05419922
1674,26,3.8125,-233.3125,0.08251953,0.3349609,0.2133789,-0.2783203,-0.2304688,-0.05859375
1678,46.8125,-7.75,-225.5625,0.06298828,0.9023438,-0.009277344,-0.2636719,-0.2495117,-0.05419922
1682,-3.125,-5.125,-222.4375,0.06689453,1.422852,-0.2861328,-0.2495117,-0.2695313,-0.05175781
1686,-65.375,-7.0625,-227.25,0.159668,1.17041,-0.1860352,-0.2402344,-0.2817383,-0.05175781
1690,-67.375,9.75,-219.1875,-0.002441406,0.7856445,0.04785156,-0.2246094,-0.2983398,-0.05957031
1694,-17.6875,9.125,-214.625,-0.09130859,0.5722656,0.2290039,-0.2089844,-0.3120117,-0.06103516
1698,41.125,3.625,-219.5625,-0.1650391,0.809082,0.2094727,-0.1962891,-0.3208008,-0.0625
1702,36.1875,-11.5,-232.75,-0.2387695,1.306641,0.01708984,-0.1791992,-0.3354492,-0.05957031
1706,8.6875,-16.25,-232,-0.28125,1.384277,0.03271484,-0.1582031,-0.3481445,-0.05712891
1710,-13.5,-7.125,-204.6875,-0.3007813,1.314453,-0.01318359,-0.1450195,-0.3544922,-0.05419922
1714,-27,8.4375,-188.9375,-0.2543945,1.003418,0.02099609,-0.1245117,-0.3642578,-0.05859375
1718,-14.6875,10.625,-196.4375,-0.328125,0.6962891,0.08642578,-0.1069336,-0.371582,-0.06103516
1722,0,9.3125,-214.5,-0.4633789,0.6577148,0.1171875,-0.09228516,-0.3754883,-0.06103516
1727,18.9375,-8.1875,-243.0625,-0.6303711,0.6420898,0.2060547,-0.07324219,-0.3803711,-0.06103516
1731,41,-22.25,-250.0625,-0.8237305,0.9682617,0.1635742,-0.04736328,-0.3867188,-0.05712891
1735,36.5,-21.375,-231,-0.8974609,1.403809,0.02099609,-0.03173828,-0.390625,-0.05566406
1739,12.5625,-7.25,-206.8125,-0.8198242,1.477539,-0.09765625,-0.009277344,-0.3916016,-0.05273438
1743,-3.875,6.1875,-191.5625,-0.78125,1.279297,-0.112793,0.009277344,-0.3930664,-0.05175781
1747,-5.1875,17.25,-189.25,-0.7851563,1.17041,-0.112793,0.02148438,-0.3930664,-0.05273438
1751,-19.1875,14.9375,-196.9375,-0.8164063,1.232422,-0.09765625,0.04150391,-0.3916016,-0.05273438
1755,-27,11.8125,-201.3125,-0.878418,1.100586,0.02099609,0.06298828,-0.3881836,-0.05566406
1759,-19.0625,13.375,-194.375,-0.9326172,1.120117,0.07519531,0.07470703,-0.3842773,-0.05712891
1763,-13.5,12.75,-182.375,-0.9516602,1.186035,0.07128906,0.09277344,-0.3779297,-0.05859375
1767,-8.9375,15.375,-168.3125,-0.9013672,1.259766,0.005859375,0.1118164,-0.3745117,-0.05859375
1771,-6.8125,19,-151.5,-0.8818359,1.314453,-0.005371094,0.1201172,-0.3691406,-0.06103516
1775,-6.625,21.3125,-133.875,-0.8007813,1.372559,-0.01318359,0.1357422,-0.3632813,-0.06103516
1779,-10.6875,17.75,-117.75,-0.7695313,1.407715,-0.02050781,0.1459961,-0.359375,-0.06103516
1783,-13.25,11.8125,-101.0625,-0.7617188,1.39209,0.04052734,0.1523438,-0.3520508,-0.05957031
1787,-5.0625,6.75,-81.375,-0.746582,1.321777,0.1210938,0.1616211,-0.3481445,-0.06103516
1791,8.1875,-0.5,-56.625,-0.7929688,1.302734,0.1210938,0.1665039,-0.3432617,-0.0625
1795,14.6875,-5.8125,-34.3125,-0.7270508,1.275391,0.04785156,0.1674805,-0.3432617,-0.06103516
1799,16.6875,-2.375,-13.8125,-0.5952148,1.225098,-0.05126953,0.1738281,-0.3408203,-0.05957031
1803,5.75,4.4375,-5,-0.5332031,1.197754,-0.112793,0.1723633,-0.3378906,-0.05859375
1807,-4.375,9.3125,0.75,-0.5332031,1.112305,-0.04003906,0.1723633,-0.3442383,-0.05957031
1811,-4.875,10.5,5.4375,-0.5756836,1.026855,0.04443359,0.1738281,-0.3408203,-0.05957031
1815,1.25,4.875,6.6875,-0.6186523,0.9760742,0.1132813,0.1723633,-0.3417969,-0.05859375
1819,7.8125,0.625,10.75,-0.5874023,1.038574,0.09033203,0.1713867,-0.3432617,-0.05859375
1823,5.3125,-4.0625,15.5,-0.5913086,1.108398,0.04785156,0.1713867,-0.3442383,-0.05859375
1827,6.25,-6,20.6875,-0.6108398,1.108398,0.05957031,0.1689453,-0.3442383,-0.05712891
1831,9.375,-6.5625,32.375,-0.6650391,1.158691,0.06347656,0.1665039,-0.3457031,-0.05859375
1835,18.4375,-3.875,54.375,-0.6962891,1.182129,0.08251953,0.1650391,-0.3466797,-0.05566406
1839,24.625,-2.375,72.125,-0.6611328,1.271484,0.04785156,0.1591797,-0.3491211,-0.05273438
1843,22.0625,-8.125,81.3125,-0.6650391,1.314453,0.01708984,0.1533203,-0.3530273,-0.05175781
1847,21.9375,-11.875,94.5625,-0.7036133,1.376465,-0.009277344,0.1459961,-0.3569336,-0.05175781
1851,20.5625,-9.25,114.8125,-0.7387695,1.454102,0.01367188,0.1401367,-0.3632813,-0.05029297
1856,24.125,-6.125,140.875,-0.765625,1.446289,-0.01660156,0.1308594,-0.3642578,-0.04638672
1860,25,4.0625,166.5,-0.7695313,1.489258,-0.03222656,0.1186523,-0.3706055,-0.04638672
1864,15.1875,5.6875,182.6875,-0.7890625,1.547363,-0.07470703,0.1020508,-0.3769531,-0.04345703
1868,-0.0625,2.5625,188.6875,-0.7890625,1.539551,-0.07861328,0.09033203,-0.3818359,-0.04199219
1872,-13.875,-5.5625,191.9375,-0.8745117,1.485352,-0.04394531,0.07226563,-0.3867188,-0.04199219
1876,-15.5,-11.0625,199.375,-0.831543,1.422852,-0.02050781,0.0546875,-0.3891602,-0.04345703
1880,-3,-2.5,223.3125,-0.8237305,1.380371,-0.04003906,0.0390625,-0.3916016,-0.04492188
1884,2.875,9.25,249.3125,-0.7851563,1.341309,-0.07080078,0.01513672,-0.3930664,-0.04638672
1888,-1.1875,17.3125,251.25,-0.6611328,1.321777,-0.09765625,-0.0078125,-0.3930664,-0.04345703
1892,-6.75,10.5,241.3125,-0.699707,1.182129,-0.03613281,-0.02685547,-0.390625,-0.04345703
1896,-2.75,1.5625,227.4375,-0.5795898,1.038574,0.009765625,-0.05224609,-0.3881836,-0.04492188
1900,13.875,5.375,223,-0.5024414,0.9453125,0.001953125,-0.07128906,-0.3842773,-0.04492188
1904,29.5625,25.5625,236.1875,-0.4672852,1.135742,-0.07861328,-0.08642578,-0.3779297,-0.04345703
1908,21.625,34.5625,252.5,-0.5371094,1.294922,-0.1552734,-0.109375,-0.3706055,-0.04345703
1912,6.5625,33.125,252.75,-0.4907227,1.20166,-0.1435547,-0.1328125,-0.3618164,-0.04199219
1916,0.625,30.5,244.875,-0.3823242,1.081055,-0.09375,-0.1474609,-0.3544922,-0.04199219
1920,-3.0625,22,229.4375,-0.347168,0.9604492,-0.06689453,-0.1674805,-0.3417969,-0.04345703
1924,7.0625,24.375,224.25,-0.262207,0.972168,-0.07080078,-0.1875,-0.3266602,-0.04345703
1928,1.25,21.625,216.25,-0.1806641,1.053711,-0.1323242,-0.199707,-0.3178711,-0.04492188
1932,-8.6875,22.1875,206.3125,-0.1186523,1.019043,-0.1708984,-0.215332,-0.3041992,-0.04638672
1936,-25.1875,31.375,202.6875,-0.02978516,0.972168,-0.1630859,-0.2319336,-0.2895508,-0.05029297
1940,-25.5625,28.5,194.375,-0.1108398,0.9799805,-0.1245117,-0.2426758,-0.2792969,-0.05175781
1944,-17.8125,26,200.0625,-0.1420898,1.162598,-0.1630859,-0.2519531,-0.2631836,-0.05419922
1948,-38.5625,30.3125,206.1875,-0.02197266,1.302734,-0.2055664,-0.2661133,-0.2431641,-0.05859375
1952,-54.4375,30.3125,214.0625,-0.1225586,1.306641,-0.1899414,-0.2744141,-0.234375,-0.0625
1956,-83.6875,40.25,232.375,-0.04882813,1.232422,-0.1743164,-0.2841797,-0.2119141,-0.06787109
1960,-116.0625,36.5625,245.6875,-0.1572266,1.251953,-0.2363281,-0.2958984,-0.1879883,-0.07763672
1964,-156.625,20,251.75,-0.2119141,0.840332,-0.07861328,-0.2998047,-0.1704102,-0.08007813
1968,-139.5625,0.4375,253.5625,-0.09130859,0.3081055,0.2211914,-0.3105469,-0.140625,-0.08691406
1972,-90.6875,-7.5625,258.875,-0.08398438,0.04736328,0.3789063,-0.3149414,-0.1132813,-0.08984375
1976,-49.25,-2.125,277.8125,0.004882813,0.03613281,0.3095703,-0.3198242,-0.09423828,-0.08984375
1980,-52.3125,0.125,283.5625,0.09375,-0.1772461,0.1943359,-0.3232422,-0.06591797,-0.08984375
1985,-84.25,-5.4375,258.1875,0.140625,-0.4960938,0.09033203,-0.3232422,-0.03466797,-0.08984375
1989,-114.875,-14.25,229.9375,0.05517578,-1.657715,-0.07470703,-0.3222656,-0.01708984,-0.08984375
1993,-132.6875,-9.25,179.9375,0.3925781,-1.910156,-0.1552734,-0.3198242,0.006347656,-0.08544922
1997,-108.3125,-11.5,132.9375,0.7099609,-2.621094,-0.09375,-0.3164063,0.02734375,-0.08007813
2001,-42.6875,4.3125,54,0.9970703,-2.936035,-0.06298828,-0.3173828,0.03515625,-0.08007813
2005,4.4375,-3.6875,-49.3125,0.9580078,-2.186035,-0.1591797,-0.3149414,0.03857422,-0.07763672
2009,27.5625,-9,-119.9375,0.8222656,-1.331055,-0.1015625,-0.3198242,0.02880859,-0.08007813
2013,44.25,-8.875,-139.8125,0.6362305,-0.6357422,-0.03613281,-0.3208008,0.02148438,-0.07763672
2017,44.875,-6.3125,-139.8125,0.6791992,-0.09960938,-0.03613281,-0.3222656,0.004882813,-0.07763672
2021,43.875,-2.5,-134.1875,0.6982422,-0.1035156,0.09423828,-0.3256836,-0.009277344,-0.08007813
2025,58.625,3.8125,-130.625,0.7177734,-0.1191406,0.1367188,-0.3256836,-0.01806641,-0.07861328
2029,53.125,-17.9375,-159.0625,0.6713867,-0.1035156,0.1826172,-0.324707,-0.03466797,-0.08154297
2033,54.4375,-39.8125,-188.5625,0.59375,-0.002441406,0.1982422,-0.3256836,-0.0546875,-0.07861328
2037,50.875,-35.625,-181.625,0.6982422,0.2573242,0.02880859,-0.324707,-0.06835938,-0.07470703
2041,23.0625,-21.9375,-163.125,0.6635742,0.5371094,-0.1513672,-0.3222656,-0.08447266,-0.07080078
2045,0.125,-6,-179.9375,0.7294922,0.2456055,0.02880859,-0.3208008,-0.1030273,-0.07080078
2049,11.9375,0.0625,-192.9375,0.675293,0.06689453,0.1557617,-0.3188477,-0.1166992,-0.07080078
2053,37.4375,5.6875,-212.0625,0.5126953,0.1367188,0.2211914,-0.3139648,-0.1367188,-0.06933594
2057,48.25,4.8125,-206.625,0.3378906,0.4204102,0.04785156,-0.3066406,-0.1591797,-0.06787109
2061,25.75,8.0625,-202.0625,0.4194336,0.7470703,-0.07861328,-0.3032227,-0.1743164,-0.06787109
2065,-1.0625,36.0625,-199.1875,0.5356445,0.6108398,-0.03222656,-0.293457,-0.1943359,-0.07080078
2069,-18.25,19.625,-217.3125,0.125,0.4399414,-0.01318359,-0.2851563,-0.2128906,-0.07177734
2073,11.25,-0.25,-230.6875,0.3417969,0.1875,0.3671875,-0.2758789,-0.2280273,-0.07324219
2077,76.375,4.1875,-234.5,0.06298828,0.315918,0.3330078,-0.2636719,-0.2456055,-0.07177734
2081,93.5625,8.5,-230.0625,0.1484375,1.088867,0.1098633,-0.2485352,-0.2670898,-0.06640625
2085,50.75,27.0625,-213.125,-0.1420898,1.248047,-0.4863281,-0.237793,-0.2807617,-0.06542969
2089,-7.625,33.3125,-175.875,-0.09130859,1.09668,-0.309082,-0.222168,-0.296875,-0.06396484
2093,-31.25,22.875,-169.75,-0.04101563,0.5371094,-0.02832031,-0.2104492,-0.3081055,-0.07080078
2097,13.375,16.625,-192.625,-0.06445313,0.09423828,0.3979492,-0.2006836,-0.3154297,-0.07177734
2101,75.1875,14.8125,-209.6875,-0.2348633,0.4790039,0.2094727,-0.1831055,-0.3266602,-0.07080078
2105,55.6875,-5.375,-208,-0.5605469,1.426758,-0.2436523,-0.1650391,-0.3417969,-0.06396484
2109,-30.1875,2.4375,-181.625,-0.3862305,1.690918,-0.4248047,-0.1542969,-0.3481445,-0.0625
2114,-78.125,13.0625,-168.5,-0.246582,0.9492188,-0.1552734,-0.1376953,-0.3554688,-0.06933594
2118,-57.25,3.5625,-201.875,-0.4052734,0.3818359,0.1904297,-0.1201172,-0.3618164,-0.07617188
2122,21,9.625,-208.0625,-0.4404297,0.7705078,0.3251953,-0.109375,-0.3691406,-0.07617188
2126,39.1875,10.4375,-205.375,-0.699707,0.9257813,0.105957,-0.09033203,-0.3769531,-0.07177734
2130,35.8125,-5.9375,-212.5,-0.7270508,1.158691,0.009765625,-0.06982422,-0.3818359,-0.06933594
2134,23.875,-3.25,-202.25,-0.6303711,0.8945313,0.009765625,-0.05566406,-0.3867188,-0.06640625
2138,12.875,5.625,-192.0625,-0.699707,0.7158203,-0.01660156,-0.03515625,-0.3881836,-0.06542969
2142,-1,18.375,-202.375,-0.6845703,0.7587891,-0.09375,-0.01611328,-0.390625,-0.06542969
2146,-14.8125,20.1875,-226.125,-0.8007813,0.7001953,-0.07861328,-0.001953125,-0.3916016,-0.06542969
2150,-8.5,22.5625,-245.8125,-0.9790039,0.6147461,0.02099609,0.02148438,-0.3930664,-0.06787109
2154,-3.75,11.375,-267.75,-1.277344,0.824707,0.07519531,0.04736328,-0.3891602,-0.06640625
2158,11,-0.0625,-271.625,-1.455566,0.956543,0.1904297,0.06396484,-0.3857422,-0.06787109
2162,27.25,-9.5625,-260.3125,-1.479004,1.20166,0.144043,0.09033203,-0.3793945,-0.06542969
2166,28.625,-16.1875,-247.6875,-1.401367,1.353027,0.02880859,0.1152344,-0.3730469,-0.06396484
2170,21.5,-16.625,-228,-1.339355,1.535645,-0.09375,0.1293945,-0.3657227,-0.0625
2174,4.9375,-10.25,-207.75,-1.106934,1.59375,-0.1938477,0.1484375,-0.3554688,-0.06396484
2178,-16.3125,1.375,-193,-0.9868164,1.617188,-0.1708984,0.1665039,-0.3457031,-0.06396484
2182,-26.1875,5.6875,-170.125,-1.001953,1.508301,-0.01660156,0.1782227,-0.3378906,-0.06542969
2186,-11.375,6.375,-140.75,-0.9633789,1.418945,0.2094727,0.1879883,-0.3291016,-0.06787109
2190,7.1875,-1,-115.8125,-0.9052734,1.43457,0.2597656,0.2011719,-0.3217773,-0.06640625
2194,22.5,-9.8125,-95.0625,-0.7695313,1.469727,0.2060547,0.2055664,-0.3154297,-0.06787109
2198,25.25,-12.1875,-77.375,-0.6728516,1.55127,0.09033203,0.2119141,-0.3120117,-0.06640625
2202,23.5625,-9.6875,-59.875,-0.6611328,1.543457,0.05957031,0.2177734,-0.3066406,-0.06640625
2206,21.6875,-10,-35.4375,-0.7231445,1.559082,0.09814453,0.2202148,-0.3056641,-0.0625
2210,17.625,-6.625,-5.8125,-0.699707,1.566895,0.07128906,0.2202148,-0.3017578,-0.06103516
2214,12.0625,-6.1875,18.0625,-0.7036133,1.566895,0.05566406,0.2211914,-0.3041992,-0.06103516
2218,11.0625,-7.4375,41.875,-0.730957,1.52002,0.05566406,0.2202148,-0.3032227,-0.06396484
2222,14.125,-6.125,66.4375,-0.7387695,1.512207,0.04443359,0.2163086,-0.3095703,-0.06103516
2226,20.5,-5.9375,90.0625,-0.796875,1.55127,0.06347656,0.2104492,-0.3129883,-0.05957031
2230,28.875,-5.5625,118.625,-0.9091797,1.625,0.03271484,0.2045898,-0.3168945,-0.05957031
2234,30.3125,-3.1875,160.625,-0.9672852,1.69873,-0.01660156,0.1962891,-0.3242188,-0.05712891
2238,25.375,6.8125,197.1875,-0.9868164,1.636719,-0.1166992,0.1806641,-0.3369141,-0.05419922
2243,11,15.1875,217.4375,-1.013672,1.527832,-0.1166992,0.1713867,-0.3442383,-0.05273438
2247,5.1875,17.5625,229.25,-1.095215,1.317871,0.001953125,0.1523438,-0.3554688,-0.05175781
2251,12.375,15,237.625,-1.184082,1.217285,0.07128906,0.1308594,-0.3642578,-0.04882813
2255,26.375,11.3125,246.375,-1.172852,1.158691,0.09423828,0.1166992,-0.3730469,-0.04882813
2259,29.5625,14.3125,260.6875,-1.103027,1.251953,0.01367188,0.09521484,-0.3803711,-0.04492188
2263,14.0625,27.25,268.375,-0.9829102,1.251953,-0.08203125,0.06787109,-0.3867188,-0.04052734
2267,-9.875,31.3125,257.8125,-0.9555664,1.150879,-0.1708984,0.04980469,-0.3916016,-0.04052734
2271,-26.375,30.3125,241.5625,-0.8666992,0.987793,-0.09765625,0.02734375,-0.3945313,-0.04199219
2275,-26.25,26.625,229.6875,-0.9169922,0.90625,-0.04003906,0.002441406,-0.3945313,-0.04492188
2279,-22.1875,24.375,228.6875,-0.8432617,0.9838867,-0.01660156,-0.01513672,-0.3916016,-0.04492188
2283,-34.4375,18.8125,217.875,-0.715332,1.186035,-0.1401367,-0.03515625,-0.3916016,-0.04736328
2287,-48.1875,20,217.0625,-0.6533203,1.12793,-0.112793,-0.05810547,-0.3881836,-0.05029297
2291,-64,16.5,202.25,-0.6767578,0.9375,-0.07080078,-0.07128906,-0.3833008,-0.05419922
2295,-44.6875,11,190.4375,-0.6494141,0.8598633,0.02880859,-0.09033203,-0.3745117,-0.06103516
2299,-29.0625,-0.75,189.3125,-0.6689453,1.057617,-0.02832031,-0.1079102,-0.3706055,-0.06640625
2303,-19.25,6.5625,200.875,-0.5449219,1.166504,-0.04736328,-0.1201172,-0.3642578,-0.06640625
2307,-25.6875,15.25,206.0625,-0.4594727,1.353027,-0.128418,-0.1376953,-0.3554688,-0.06933594
2311,-53.125,23.5,212.5625,-0.5175781,1.485352,-0.1899414,-0.1557617,-0.3457031,-0.07470703
2315,-87.25,22,223.375,-0.4326172,1.251953,-0.1362305,-0.168457,-0.3369141,-0.07763672
2319,-67.1875,26.0625,234.0625,-0.4091797,0.7197266,0.105957,-0.1865234,-0.3217773,-0.08837891
2323,-28,27.25,246.125,-0.2773438,0.7548828,0.08251953,-0.206543,-0.3056641,-0.09228516
2327,-40.6875,18.375,237.6875,-0.2387695,0.8945313,-0.005371094,-0.21875,-0.2929688,-0.09521484
2331,-53.625,15.3125,234.9375,-0.1342773,0.7470703,0.105957,-0.234375,-0.2729492,-0.09667969
2335,-55.6875,24.375,232.8125,-0.07617188,0.7314453,0.1098633,-0.2495117,-0.2543945,-0.1035156
2339,-71,19.625,236,-0.1767578,0.7197266,0.1479492,-0.2592773,-0.2407227,-0.1074219
2343,-62.625,17.875,239.8125,-0.01416016,0.5605469,0.2636719,-0.2685547,-0.2182617,-0.112793
2347,-47.1875,14.8125,243.125,-0.02978516,0.5761719,0.2558594,-0.2841797,-0.1967773,-0.1166992
2351,-53.375,10.3125,237.5,0.1054688,0.5761719,0.1943359,-0.2875977,-0.1782227,-0.1166992
2355,-59.875,8.4375,230.625,0.03564453,0.5019531,0.144043,-0.2958984,-0.1567383,-0.1196289
2359,-69.625,0.125,221.4375,0.140625,0.5605469,0.1635742,-0.3017578,-0.1293945,-0.1225586
2363,-87.25,-7.9375,215.875,0.1210938,0.5175781,0.125,-0.3066406,-0.1157227,-0.1235352
2367,-98,-16.8125,222.875,0.1713867,0.1992188,0.09814453,-0.3105469,-0.08935547,-0.1235352
2372,-73.0625,-19.625,227.875,0.2875977,-0.3833008,0.1210938,-0.3139648,-0.06445313,-0.1225586
2376,-57.75,-20.3125,211.375,0.4775391,-0.6821289,0.02490234,-0.3164063,-0.04931641,-0.1196289
2380,-70.5625,-21.75,184.4375,0.6210938,-1.117676,-0.0859375,-0.3149414,-0.02685547,-0.1181641
2384,-76.5,-14.625,146.875,0.6210938,-1.929688,-0.112793,-0.3149414,-0.006835938,-0.1157227
2388,-60.5625,-7.375,96.6875,0.8535156,-2.555176,-0.04003906,-0.3164063,0.002441406,-0.1157227
2392,-16.5,4.3125,16.5,1.023926,-2.543457,0.06347656,-0.3125,0.01123047,-0.1142578
2396,16.625,-3.4375,-78.75,0.8032227,-1.820801,0.06347656,-0.3115234,0.01025391,-0.1157227
2400,50.1875,-9.1875,-125.125,0.6982422,-1.29248,0.1635742,-0.3149414,0.00390625,-0.1142578
2404,75,-10.625,-150.875,0.559082,-0.5893555,0.09814453,-0.3164063,-0.01171875,-0.1142578
2408,65.3125,-13.25,-152.375,0.6132813,-0.04541016,-0.02832031,-0.3188477,-0.02929688,-0.1113281
2412,43,-4.5625,-151.125,0.644043,0.06298828,-0.06689453,-0.3188477,-0.04199219,-0.1113281
2416,33.625,-1.3125,-156.1875,0.5629883,-0.03369141,0.1020508,-0.3173828,-0.05957031,-0.112793
2420,50.5625,-12.375,-170,0.5239258,-0.09960938,0.2636719,-0.3173828,-0.07568359,-0.1113281
2424,80.8125,-20.625,-171.5,0.4775391,0.1333008,0.2597656,-0.3149414,-0.08837891,-0.1113281
2428,81.875,-22.125,-168.3125,0.5009766,0.4868164,0.1367188,-0.3125,-0.1054688,-0.105957
2432,59.25,-18.625,-171.4375,0.5820313,0.6733398,0.125,-0.3105469,-0.1269531,-0.1035156
2436,49.9375,-9.75,-158.5625,0.4775391,0.6264648,0.1674805,-0.309082,-0.1396484,-0.1005859
2440,42.625,-8.25,-166.125,0.4814453,0.6186523,0.1787109,-0.3007813,-0.1557617,-0.09912109
2444,33.625,-15.6875,-186.9375,0.4658203,0.7080078,0.125,-0.2958984,-0.1733398,-0.09765625
2448,26.375,-15.5625,-186.4375,0.4619141,0.8945313,0.04443359,-0.2924805,-0.1855469,-0.09667969
2452,16.3125,-0.5,-180.5,0.4619141,0.8945313,0.01708984,-0.2841797,-0.2070313,-0.09375
2456,20.4375,7.5625,-169.1875,0.3496094,0.824707,0.07519531,-0.2744141,-0.2207031,-0.09521484
2460,33.1875,11.3125,-155.25,0.2333984,0.8789063,0.1210938,-0.2700195,-0.2319336,-0.09375
2464,35.5,-1.0625,-159.625,0.2333984,0.9956055,0.1020508,-0.2617188,-0.2456055,-0.09228516
2468,18.75,-8.9375,-161.8125,0.2216797,1.146973,-0.001464844,-0.2509766,-0.2583008,-0.08984375
2472,-7.75,-2.375,-158.3125,0.2993164,1.12793,-0.02441406,-0.2436523,-0.265625,-0.08984375
2476,-25.375,8.5625,-148.4375,0.2255859,0.840332,0.08251953,-0.2329102,-0.2807617,-0.08984375
2480,16.4375,21.0625,-136.4375,0.2177734,0.4052734,0.3251953,-0.2246094,-0.2895508,-0.09228516
2484,71.9375,21.75,-144.375,0.07080078,0.5800781,0.2441406,-0.2163086,-0.296875,-0.09375
2488,67.5625,3.5,-172.875,0.08642578,0.9179688,0.03271484,-0.203125,-0.3081055,-0.08837891
2492,34.5,-2.375,-189,-0.02197266,1.04248,-0.04736328,-0.1899414,-0.3217773,-0.08300781
2496,-6.0625,-6.0625,-173.625,-0.08398438,0.9838867,-0.02441406,-0.1782227,-0.3266602,-0.08154297
2501,-35.9375,2,-164.625,0.01660156,0.6811523,0.005859375,-0.1640625,-0.3393555,-0.08300781
2505,-39.375,12.625,-171.8125,-0.02587891,0.2612305,0.06347656,-0.1508789,-0.3466797,-0.08691406
2509,-15.4375,20.75,-191.25,-0.1572266,-0.006347656,0.1210938,-0.1376953,-0.3530273,-0.09082031
2513,9.5625,16.0625,-218.5,-0.3549805,0.01269531,0.1210938,-0.1210938,-0.3603516,-0.09082031
2517,28.6875,14,-248,-0.5102539,0.1137695,0.1171875,-0.09960938,-0.3706055,-0.08984375
2521,37.5625,17.75,-265.5625,-0.7543945,0.2495117,0.02880859,-0.08398438,-0.3769531,-0.08837891
2525,38.375,25.6875,-273.25,-0.9287109,0.3232422,-0.04394531,-0.05664063,-0.3833008,-0.08544922
2529,38.125,33.5,-280.5625,-1.099121,0.4052734,-0.112793,-0.02832031,-0.3857422,-0.08154297
2533,23.9375,43.25,-298.4375,-1.289063,0.5371094,-0.2016602,-0.009277344,-0.390625,-0.07861328
2537,0.0625,42.75,-331.3125,-1.517578,0.5913086,-0.2167969,0.02148438,-0.3881836,-0.07763672
2541,-8.625,41.375,-364.5,-1.75,0.5527344,-0.1245117,0.05566406,-0.3881836,-0.07861328
2545,-3,43,-385.375,-1.974609,0.6655273,-0.02832031,0.07958984,-0.3769531,-0.07617188
2549,10.625,38.125,-385.1875,-2.300293,0.855957,0.06738281,0.1166992,-0.3681641,-0.07617188
2553,20.9375,18.5625,-362.5625,-2.358398,1.12793,0.05175781,0.1523438,-0.3520508,-0.07324219
2557,23.125,7.8125,-332.5625,-2.052246,1.368652,-0.04394531,0.1713867,-0.3393555,-0.07324219
2561,17.875,5.75,-305.25,-1.753906,1.523926,-0.1323242,0.1987305,-0.3217773,-0.07080078
2565,14.0625,9.875,-265.125,-1.57959,1.640625,-0.1054688,0.2202148,-0.3032227,-0.07177734
2569,17,9.5,-207.1875,-1.447754,1.694824,-0.109375,0.230957,-0.2895508,-0.06933594
2573,23.0625,16.875,-148.9375,-1.343262,1.652344,-0.02050781,0.2436523,-0.2753906,-0.06933594
2577,23.6875,21.0625,-103.9375,-1.056641,1.617188,-0.01660156,0.2509766,-0.2680664,-0.06542969
2581,10.4375,22.9375,-89,-0.9399414,1.547363,-0.04736328,0.2568359,-0.2607422,-0.06396484
2585,-5.1875,22.375,-80.1875,-0.9248047,1.411133,0.09814453,0.2617188,-0.2558594,-0.06103516
2589,3.875,19.125,-61.0625,-0.9594727,1.255859,0.2983398,0.2641602,-0.2495117,-0.05957031
2593,27.875,12.625,-41.9375,-0.9287109,1.283203,0.3945313,0.2675781,-0.2470703,-0.05859375
2597,40.25,4,-25.25,-0.8706055,1.500488,0.3291016,0.2700195,-0.2431641,-0.05712891
2601,36.5625,-3.9375,-6.5,-0.8237305,1.632813,0.2636719,0.2700195,-0.2416992,-0.05273438
2605,24.875,-6.5625,16.4375,-0.8666992,1.65625,0.2133789,0.2700195,-0.2416992,-0.05175781
2609,13.25,-10.125,42.4375,-0.9248047,1.586426,0.1674805,0.269043,-0.2456055,-0.05273438
2613,16.1875,-14.1875,71.1875,-0.9633789,1.418945,0.1826172,0.2651367,-0.2480469,-0.05273438
2617,24,-16.25,95.125,-1.037109,1.337402,0.1674805,0.2626953,-0.2529297,-0.05175781
2621,32.0625,-20.3125,118.125,-1.067871,1.267578,0.159668,0.2558594,-0.2607422,-0.05175781
2625,33.4375,-21.5,137.125,-1.099121,1.232422,0.09814453,0.2485352,-0.2719727,-0.05273438
2630,33.3125,-21.5,154.375,-1.129883,1.150879,0.07910156,0.2436523,-0.2792969,-0.05029297
2634,37.4375,-21.1875,170.375,-1.15332,1.112305,0.08251953,0.2329102,-0.2905273,-0.04882813
2638,34.875,-22.1875,181.125,-1.253906,1.186035,0.05957031,0.2211914,-0.3032227,-0.04882813
2642,26,-24.25,192.125,-1.32373,1.228516,0.02099609,0.2128906,-0.3129883,-0.04736328
2646,17.5625,-21.8125,207.9375,-1.37793,1.291016,-0.06689453,0.1987305,-0.3266602,-0.04736328
2650,-1.625,-14.0625,230.125,-1.463379,1.36084,-0.1323242,0.1806641,-0.3393555,-0.04638672
2654,-26.6875,-8.6875,250.625,-1.505859,1.376465,-0.1743164,0.1665039,-0.3481445,-0.04638672
2658,-38.5625,-8,265.375,-1.587402,1.143066,-0.06689453,0.144043,-0.359375,-0.04882813
2662,-40.75,-11,266.75,-1.560059,1.084961,-0.05517578,0.1186523,-0.371582,-0.05273438
2666,-51.1875,-14.625,264.625,-1.479004,1.045898,-0.09375,0.1035156,-0.3769531,-0.05566406
2670,-51.8125,-8.6875,263.8125,-1.343262,0.8828125,-0.07470703,0.07861328,-0.3833008,-0.05859375
2674,-47.125,0.8125,270.1875,-1.370117,0.9414063,-0.128418,0.05078125,-0.3881836,-0.06787109
2678,-59.5,6.0625,283.25,-1.261719,0.9335938,-0.1206055,0.03417969,-0.3891602,-0.07080078
2682,-68.0625,6.3125,274.9375,-1.133789,0.7509766,-0.04394531,0.005859375,-0.390625,-0.07763672
2686,-59,3.9375,266.75,-1.071777,0.6733398,-0.001464844,-0.02099609,-0.3881836,-0.08154297
2690,-36.9375,2.9375,253.75,-0.8432617,0.5527344,0.07519531,-0.03515625,-0.3842773,-0.08691406
2694,-13.5,6.625,243.6875,-0.9013672,0.6655273,0.02880859,-0.06152344,-0.3779297,-0.09375
2698,-10.5625,1.1875,255,-0.8276367,0.8984375,-0.04394531,-0.08544922,-0.371582,-0.09228516
2702,-28.75,7.0625,257.625,-0.6689453,0.9414063,-0.112793,-0.1010742,-0.3681641,-0.09228516
2706,-37.25,9.9375,256.25,-0.6069336,0.7666016,-0.03613281,-0.1259766,-0.3569336,-0.09667969
2710,-15,16.375,256.25,-0.4868164,0.6108398,0.07910156,-0.1484375,-0.3442383,-0.09912109
2714,9.5625,21.875,251.9375,-0.4287109,0.6264648,0.08251953,-0.1650391,-0.3354492,-0.09912109
2718,52.5625,32.875,263.6875,-0.3935547,0.6381836,0.1674805,-0.1855469,-0.3208008,-0.09765625
2722,52.5,39.1875,267.5,-0.3588867,1.193848,-0.06298828,-0.2045898,-0.3056641,-0.09667969
2726,-12.5625,32.5,258.1875,-0.362793,1.450195,-0.1977539,-0.21875,-0.2944336,-0.09521484
2730,-72.375,28.4375,257.125,-0.4404297,1.193848,-0.05517578,-0.234375,-0.2753906,-0.1005859
2734,-85,15.375,264.5,-0.3510742,0.7666016,0.1479492,-0.2509766,-0.2529297,-0.1074219
2738,-51.1875,9.5625,264.5625,-0.1572266,0.4013672,0.2905273,-0.2602539,-0.2368164,-0.1088867
2742,-15.75,9.75,262.875,-0.04492188,0.4282227,0.2480469,-0.2744141,-0.2104492,-0.112793
2746,3.8125,10.1875,260.625,0.004882813,0.5527344,0.1713867,-0.2875977,-0.1870117,-0.1142578
2750,-4.5,14.75,262.5,0.1445313,0.5488281,0.05957031,-0.2915039,-0.1694336,-0.1142578
2754,-22.4375,24.0625,257,0.206543,0.4711914,-0.05908203,-0.3007813,-0.1445313,-0.1166992
2759,-36,16,241.6875,0.1870117,0.2226563,0.005859375,-0.309082,-0.1196289,-0.1166992
2763,-32.9375,22.5,236.875,0.2915039,0.04003906,0.09033203,-0.3115234,-0.1044922,-0.1196289
2767,-38,21.5625,236.4375,0.3071289,-0.1733398,0.1289063,-0.3125,-0.078125,-0.1235352
2771,-63.6875,29.125,231.3125,0.4580078,-0.7250977,0.1518555,-0.3139648,-0.0546875,-0.1235352
2775,-94.5,32.8125,214.9375,0.5200195,-1.606934,0.125,-0.3139648,-0.03710938,-0.1279297
2779,-83.0625,57.9375,183.875,0.6518555,-2.710449,0.3095703,-0.3115234,-0.01464844,-0.1303711
2783,-53.5,36.6875,67.5625,0.7875977,-3.083496,0.5791016,-0.3081055,0.00390625,-0.1333008
2787,18.625,-7.875,-62.8125,0.7412109,-2.586426,0.675293,-0.3066406,0.004882813,-0.1347656
2791,86.25,-27.375,-117,0.6171875,-1.42041,0.3979492,-0.3081055,-0.003417969,-0.1333008
2795,96.375,-46.125,-138.375,0.527832,-0.3134766,0.07128906,-0.3125,-0.01953125,-0.1318359
2799,62.3125,-47.5625,-146.3125,0.7099609,0.253418,-0.1552734,-0.3115234,-0.02929688,-0.1303711
2803,18.625,-42.625,-155.5,0.7954102,0.2612305,-0.1206055,-0.3149414,-0.046875,-0.125
2807,1.75,-37.25,-165.375,0.7993164,-0.02197266,0.001953125,-0.3149414,-0.06298828,-0.1210938
2811,12.3125,-30,-176.9375,0.7568359,-0.1850586,0.1289063,-0.3139648,-0.07568359,-0.1181641
2815,29.375,-38.25,-195.5,0.6210938,-0.2275391,0.2368164,-0.3125,-0.09326172,-0.1166992
2819,41.0625,-47.0625,-204.1875,0.4658203,0.04736328,0.159668,-0.3105469,-0.1142578,-0.1113281
2823,21.5,-42.0625,-207.1875,0.4736328,0.2456055,0.03662109,-0.3081055,-0.1293945,-0.1088867
2827,3.125,-30.625,-206.1875,0.4541016,0.171875,0.07910156,-0.3032227,-0.1508789,-0.1044922
2831,12.9375,-9.25,-202.25,0.3847656,0.04003906,0.1748047,-0.2973633,-0.1694336,-0.1005859
2835,37.625,-4.9375,-205.4375,0.2104492,0.06298828,0.1904297,-0.2915039,-0.1831055,-0.1020508
2839,53,-8.8125,-216.875,0.09765625,0.3193359,0.07128906,-0.2827148,-0.2055664,-0.09912109
2843,30.375,-29.5,-249.875,0.01269531,0.6845703,-0.05517578,-0.2724609,-0.2255859,-0.09521484
2847,-2.75,-34.25,-256.0625,-0.05273438,0.8286133,-0.01318359,-0.2636719,-0.2392578,-0.09082031
2851,-21.4375,-14.25,-229.8125,0.02832031,0.8481445,-0.01660156,-0.2495117,-0.2607422,-0.09228516
2855,-0.8125,7.9375,-216.5625,-0.01416016,0.4907227,0.159668,-0.234375,-0.2783203,-0.09228516
2859,52.625,24,-211.5625,-0.2583008,0.6577148,0.1635742,-0.2211914,-0.2880859,-0.09082031
2863,36.1875,-7.3125,-242,-0.2851563,0.9604492,-0.001464844,-0.2089844,-0.3056641,-0.09082031
2867,14.25,-11.75,-260.3125,-0.28125,0.9838867,-0.01660156,-0.1865234,-0.3232422,-0.08691406
2871,-0.3125,-6.1875,-252.75,-0.4404297,0.9296875,0.02880859,-0.1733398,-0.3330078,-0.08691406
2875,6.75,6.125,-232.125,-0.4750977,0.793457,0.04443359,-0.1518555,-0.3466797,-0.08691406
2879,36.9375,21.625,-214.125,-0.4711914,0.6577148,0.04052734,-0.1303711,-0.3569336,-0.08447266
2883,54.6875,35.6875,-206.0625,-0.5795898,0.987793,-0.2016602,-0.1176758,-0.3618164,-0.08300781
2888,6.5625,27.3125,-215.4375,-0.715332,1.287109,-0.3286133,-0.09716797,-0.3691406,-0.07861328
2892,-27.25,26.5625,-225.875,-0.6376953,0.9643555,-0.1206055,-0.078125,-0.3769531,-0.08300781
2896,-9.4375,43,-220,-0.8085938,0.8208008,0.02099609,-0.06054688,-0.3803711,-0.08447266
2900,11.25,49.875,-210.8125,-0.9091797,0.9492188,0.04052734,-0.04003906,-0.3857422,-0.08447266
2904,21.4375,44,-216.0625,-1.005859,1.150879,0.03271484,-0.01611328,-0.3867188,-0.08447266
2908,14.375,26.75,-224.375,-1.048828,1.248047,0.04443359,-0.003417969,-0.390625,-0.08300781
2912,13.9375,15.125,-231.875,-0.9946289,1.158691,0.09814453,0.02148438,-0.3891602,-0.08154297
2916,20.375,10.5,-227.4375,-1.087402,1.166504,0.07128906,0.04492188,-0.3881836,-0.07861328
2920,25.1875,7.5,-215.25,-1.052734,1.143066,0.05566406,0.05712891,-0.3881836,-0.08007813
2924,23.875,4.25,-208.4375,-1.037109,1.09668,0.001953125,0.07861328,-0.3818359,-0.07470703
2928,20.25,2.8125,-207.3125,-0.9711914,1.06543,-0.02441406,0.09863281,-0.3769531,-0.07324219
2932,13.125,0.125,-209.6875,-0.9946289,1.049805,-0.01318359,0.1103516,-0.371582,-0.07470703
2936,7.1875,2.1875,-205.8125,-1.005859,1.057617,0.03662109,0.1308594,-0.3632813,-0.07177734
2940,5.6875,4.125,-195,-1.052734,1.088867,0.06738281,0.1474609,-0.3569336,-0.07080078
2944,10.0625,4.875,-175.75,-1.025391,1.112305,0.08642578,0.1606445,-0.3481445,-0.07080078
2948,11.625,8.8125,-157.9375,-0.9829102,1.174316,0.05566406,0.1723633,-0.3408203,-0.06933594
2952,8.25,11.0625,-145.1875,-0.9208984,1.232422,0.03271484,0.1879883,-0.3320313,-0.06787109
2956,6.8125,9.125,-135.5,-0.9052734,1.317871,0.05957031,0.1948242,-0.3256836,-0.06787109
2960,12.9375,8.5,-118.3125,-0.9287109,1.403809,0.1132813,0.203125,-0.3154297,-0.06640625
2964,23.9375,7.5625,-88.4375,-0.9633789,1.516113,0.1367188,0.2119141,-0.3105469,-0.06542969
2968,28.4375,5.5625,-52.875,-0.9365234,1.590332,0.09814453,0.215332,-0.3066406,-0.06396484
2972,24.3125,6.375,-24.1875,-0.8237305,1.609375,0.05566406,0.2202148,-0.3056641,-0.06103516
2976,9.125,6.0625,-7.5625,-0.7773438,1.621094,0.03662109,0.2202148,-0.3032227,-0.05957031
2980,-1.75,6.3125,5.375,-0.7075195,1.504395,0.105957,0.2202148,-0.3056641,-0.05859375
2984,1.875,5.25,22.375,-0.7929688,1.438477,0.2021484,0.2211914,-0.3041992,-0.05859375
2988,12.0625,-1.1875,42.3125,-0.8198242,1.430664,0.2519531,0.21875,-0.3066406,-0.05859375
2992,19.125,-6.5625,63.4375,-0.8198242,1.489258,0.2094727,0.2128906,-0.3105469,-0.05712891
2996,21.0625,-12,81.75,-0.8125,1.52002,0.1479492,0.2104492,-0.3154297,-0.05566406
3000,23.5625,-16.125,102.6875,-0.8588867,1.535645,0.1171875,0.2045898,-0.3193359,-0.05566406
3004,24,-14.5625,125.375,-0.8857422,1.543457,0.06738281,0.1987305,-0.3217773,-0.05566406
3008,22.5,-12.6875,148.5625,-0.9399414,1.516113,0.009765625,0.1889648,-0.3320313,-0.05419922
3012,17.6875,-13.5,170.5625,-1.001953,1.493164,-0.01660156,0.1748047,-0.3393555,-0.05029297
3017,8.1875,-13.5625,186,-1.056641,1.442383,-0.03613281,0.1650391,-0.3466797,-0.05029297
3021,0.5625,-14.6875,196.125,-1.048828,1.372559,-0.01318359,0.1474609,-0.3569336,-0.05175781
3025,-8.6875,-17.4375,204.875,-1.114746,1.325684,-0.03222656,0.1308594,-0.3657227,-0.05175781
3029,-10.125,-13.3125,219.5,-1.099121,1.186035,-0.009277344,0.1166992,-0.371582,-0.05566406
3033,-6.375,-5.75,232.75,-1.103027,1.166504,-0.01318359,0.09619141,-0.3779297,-0.05273438
3037,-10.4375,-4.375,239.8125,-1.114746,1.17041,-0.05908203,0.07470703,-0.3867188,-0.05419922
3041,-17.375,-4.4375,242.3125,-1.063965,1.158691,-0.07861328,0.05957031,-0.3891602,-0.05419922
3045,-27.0625,-4.8125,239.75,-1.025391,1.081055,-0.07861328,0.03564453,-0.390625,-0.05712891
3049,-18.3125,2.375,243.6875,-0.9594727,0.9995117,-0.0859375,0.009277344,-0.3916016,-0.05957031
3053,-22,13.75,247.875,-0.8974609,1.135742,-0.1899414,-0.006835938,-0.3930664,-0.05859375
3057,-49.25,22.3125,248.9375,-0.878418,1.162598,-0.2207031,-0.03173828,-0.3891602,-0.06396484
3061,-66.4375,26.75,243.375,-0.8510742,1.019043,-0.1591797,-0.05566406,-0.3857422,-0.06933594
3065,-64.8125,24.8125,243.5625,-0.8085938,0.8325195,-0.02441406,-0.07128906,-0.3793945,-0.07470703
3069,-52.625,28,245.8125,-0.7426758,0.840332,-0.005371094,-0.09375,-0.3730469,-0.08154297
3073,-36.4375,26.8125,255.5,-0.7543945,0.8945313,0.04052734,-0.1162109,-0.3657227,-0.08691406
3077,-28.6875,23.875,262.0625,-0.6186523,0.953125,0.05566406,-0.1303711,-0.3544922,-0.08984375
3081,-25.25,20.9375,255.5,-0.5410156,0.9838867,0.03662109,-0.1557617,-0.3408203,-0.09228516
3085,-34.375,9.375,244.75,-0.4365234,0.9375,0.02880859,-0.1748047,-0.3266602,-0.09521484
3089,-32.1875,5.1875,239.3125,-0.3393555,0.9101563,0.02880859,-0.1889648,-0.3168945,-0.09912109
3093,-35.75,5.375,242.375,-0.2583008,0.8789063,-0.001464844,-0.2089844,-0.3007813,-0.1005859
3097,-28.3125,10.9375,240.6875,-0.1381836,0.7626953,0.03662109,-0.2246094,-0.2832031,-0.1035156
3101,-20.9375,10.3125,241.1875,-0.1533203,0.8364258,0.001953125,-0.2353516,-0.2695313,-0.1044922
3105,-20.875,11.8125,241.625,-0.03710938,0.8828125,0.009765625,-0.2519531,-0.2504883,-0.105957
3109,-24.125,17.625,247.1875,-0.04492188,0.9956055,0.005859375,-0.2626953,-0.2294922,-0.1098633
3113,-30.6875,19.8125,253.3125,-0.06835938,1.045898,0.03662109,-0.2734375,-0.2158203,-0.1098633
3117,-28,14.9375,263.0625,-0.1030273,1.12793,0.125,-0.2841797,-0.1904297,-0.1142578
3121,-24.625,19.5,291.4375,-0.006347656,1.20166,0.1098633,-0.2958984,-0.1645508,-0.1157227
3125,-43.1875,20.3125,312.1875,-0.04492188,1.213379,0.01367188,-0.2983398,-0.1445313,-0.1157227
3129,-63.3125,21.625,330.3125,-0.06054688,0.9023438,0.07519531,-0.3081055,-0.1118164,-0.1210938
3133,-69.5625,21.125,345.875,-0.08007813,0.4907227,0.07519531,-0.3125,-0.07568359,-0.125
3137,-72.25,19.625,347.5625,-0.03320313,-0.07617188,0.1367188,-0.3115234,-0.05078125,-0.125
3141,-72.75,12.0625,327,0.02832031,-0.6083984,0.2250977,-0.3139648,-0.01464844,-0.125
3146,-66.75,9.8125,308.4375,-0.06835938,-0.8647461,0.1328125,-0.3056641,0.01855469,-0.1264648
3150,-77.1875,8.4375,284.8125,-0.02978516,-1.595215,0.1210938,-0.3017578,0.04003906,-0.125
3154,-75.375,15.5,250.6875,0.08251953,-2.702637,0.1367188,-0.293457,0.06884766,-0.1235352
3158,-60.9375,32.8125,162.75,0.4467773,-3.786621,0.1865234,-0.2851563,0.08984375,-0.1225586
3162,-33,1.75,-16.75,0.6401367,-3.425293,0.3017578,-0.2827148,0.09863281,-0.1235352
3166,25.4375,-39.5625,-135.625,0.2490234,-2.418945,0.2519531,-0.2851563,0.09521484,-0.1210938
3170,83,-53.5625,-157.9375,0.2216797,-1.140625,0.05175781,-0.2915039,0.07861328,-0.1181641
3174,78.125,-46.875,-162.5,0.4350586,-0.2939453,-0.2285156,-0.2983398,0.06738281,-0.1181641
3178,31.25,-28.3125,-185.625,0.6831055,-0.02587891,-0.2978516,-0.3032227,0.05126953,-0.1142578
3182,-3.375,-11.9375,-201.9375,0.5976563,-0.2045898,-0.07861328,-0.309082,0.03125,-0.1142578
3186,2.375,-10.625,-213.125,0.5239258,-0.4296875,0.159668,-0.3115234,0.01611328,-0.112793
3190,26.5,-20.25,-230.4375,0.4697266,-0.3754883,0.2329102,-0.3125,-0.005859375,-0.112793
3194,42.125,-27.5,-234.5,0.4272461,-0.1347656,0.1635742,-0.3173828,-0.03076172,-0.1113281
3198,43.9375,-13.875,-229.3125,0.4736328,0.05126953,0.05957031,-0.3164063,-0.046875,-0.1098633
3202,46.9375,6.1875,-216.6875,0.4311523,0.1367188,0.07128906,-0.3173828,-0.07080078,-0.1088867
3206,46.75,21.25,-202.5,0.3266602,0.2456055,0.1020508,-0.3125,-0.09179688,-0.1113281
3210,35.9375,9.375,-222.25,0.3730469,0.2265625,0.1328125,-0.3115234,-0.109375,-0.1098633
3214,17,-17.5,-269.375,0.2993164,0.3349609,0.09814453,-0.3056641,-0.1333008,-0.1098633
3218,15.5,-22.6875,-284.5,0.2607422,0.4633789,0.1289063,-0.2973633,-0.1621094,-0.1088867
3222,29.3125,-8.6875,-265,0.1171875,0.7041016,0.09033203,-0.2924805,-0.1782227,-0.1074219
3226,50.6875,14.375,-233.1875,0.206543,0.8129883,0.07128906,-0.2807617,-0.2045898,-0.105957
3230,37.3125,26.25,-223.875,0.07080078,1.244141,-0.128418,-0.2709961,-0.2270508,-0.1044922
3234,-16.5625,12.8125,-248.0625,0.1445313,1.092773,-0.08203125,-0.2602539,-0.2368164,-0.105957
3238,-12.125,11.8125,-262.8125,-0.08398438,0.8208008,0.140625,-0.2436523,-0.2592773,-0.1074219
3242,24.25,8.0625,-252.75,-0.1923828,0.7856445,0.2368164,-0.2280273,-0.2783203,-0.1098633
3246,59.875,5.9375,-231.4375,-0.28125,1.01123,0.159668,-0.215332,-0.2905273,-0.1074219
3250,66.75,11.875,-208.0625,-0.2348633,1.399902,-0.04003906,-0.199707,-0.3081055,-0.1035156
3254,27,15.8125,-204.0625,-0.215332,1.504395,-0.112793,-0.1816406,-0.3232422,-0.09765625
3258,-2.375,12.4375,-218.875,-0.1806641,1.12793,0.02099609,-0.1699219,-0.328125,-0.1005859
3262,15.5,12.4375,-223,-0.3164063,0.7236328,0.2094727,-0.1518555,-0.3408203,-0.1005859
3266,61.8125,5,-226.9375,-0.4482422,0.7080078,0.2290039,-0.1303711,-0.3544922,-0.09912109
3270,79.625,-5.25,-224.1875,-0.5566406,1.073242,0.04443359,-0.1176758,-0.3603516,-0.09521484
3275,63.6875,-5.5,-210.75,-0.5063477,1.221191,-0.04736328,-0.09716797,-0.3706055,-0.08691406
3279,40.1875,4.1875,-204.125,-0.4711914,1.189941,-0.1435547,-0.07568359,-0.3769531,-0.08154297
3283,10.25,14.8125,-211.5625,-0.4672852,1.061523,-0.1743164,-0.06494141,-0.3803711,-0.07861328
3287,-4.0625,19.625,-225.5625,-0.5527344,0.777832,-0.1054688,-0.04248047,-0.3857422,-0.07861328
3291,0.3125,27.4375,-238.875,-0.6806641,0.6772461,-0.06689453,-0.01757813,-0.3881836,-0.08007813
3295,8.375,27.8125,-249.125,-0.8276367,0.6577148,-0.005371094,-0.003417969,-0.390625,-0.07763672
3299,13.5625,27,-264.0625,-0.9672852,0.6811523,-0.001464844,0.02148438,-0.3891602,-0.07861328
3303,19.125,24.5,-277,-1.172852,0.7509766,0.009765625,0.04882813,-0.3881836,-0.07617188
3307,21.3125,18.3125,-288.25,-1.32373,0.8867188,0.009765625,0.06787109,-0.3818359,-0.07617188
3311,23.75,11.625,-294.8125,-1.397461,0.9799805,0.02490234,0.09765625,-0.3754883,-0.07177734
3315,24.9375,5.8125,-293.0625,-1.471191,1.174316,-0.01660156,0.1235352,-0.3681641,-0.06933594
3319,17,-3.3125,-278.0625,-1.479004,1.399902,-0.05908203,0.1401367,-0.3579102,-0.06787109
3323,9.3125,-5.625,-247.9375,-1.381836,1.527832,-0.009277344,0.1640625,-0.3466797,-0.06933594
3327,9.0625,-1.875,-203,-1.234863,1.636719,0.05175781,0.184082,-0.3320313,-0.06640625
3331,13.375,2.5,-152.0625,-1.017578,1.714355,0.1020508,0.1948242,-0.3256836,-0.06787109
3335,11,6.0625,-106.0625,-0.9326172,1.733887,0.08251953,0.2045898,-0.3168945,-0.06787109
3339,6.0625,8.4375,-67.5,-0.8393555,1.648438,0.125,0.2094727,-0.3129883,-0.06396484
3343,3.3125,11.5625,-35.6875,-0.8237305,1.473633,0.159668,0.2128906,-0.3066406,-0.06542969
3347,1.125,12.375,-11.875,-0.796875,1.345215,0.1904297,0.215332,-0.3066406,-0.06640625
3351,-4.1875,9.0625,1.1875,-0.7695313,1.193848,0.1557617,0.2163086,-0.3056641,-0.06396484
3355,-6.3125,6.0625,5.9375,-0.699707,1.069336,0.1328125,0.2163086,-0.3081055,-0.06542969
3359,-6.8125,3.3125,9.25,-0.7192383,1.026855,0.09814453,0.2163086,-0.3066406,-0.06542969
3363,-9.1875,0.625,14.4375,-0.7348633,0.9995117,0.07519531,0.2177734,-0.3081055,-0.06542969
3367,-11.5625,-0.8125,18.5625,-0.746582,0.9604492,0.06347656,0.2138672,-0.3081055,-0.06640625
3371,-12.5625,0.3125,22.6875,-0.7426758,0.9296875,0.03271484,0.2138672,-0.3105469,-0.06640625
3375,-11.875,2,26,-0.730957,0.8828125,0.005859375,0.2119141,-0.3105469,-0.06787109
3379,-14.4375,4.75,23.9375,-0.7387695,0.8598633,-0.01660156,0.2094727,-0.3105469,-0.06787109
3383,-11,5.5,23.5625,-0.796875,0.7856445,0.001953125,0.2080078,-0.3129883,-0.06787109
3387,-11.6875,1.0625,27,-0.8935547,0.8286133,-0.03222656,0.2070313,-0.3154297,-0.06933594
3391,-17.625,-2.9375,32.125,-0.847168,0.7895508,-0.05126953,0.2045898,-0.3154297,-0.07080078
3395,-20.25,-2.125,32.9375,-0.8164063,0.7041016,-0.05517578,0.2021484,-0.3178711,-0.07080078
3399,-13.4375,-4.6875,33.9375,-0.8125,0.6069336,-0.005371094,0.1972656,-0.3208008,-0.07080078
3404,-6.875,-4.5,30.75,-0.7617188,0.5839844,-0.01318359,0.1987305,-0.3217773,-0.07177734
3408,-5.875,-6.375,25.5,-0.796875,0.5683594,-0.04003906,0.1972656,-0.3232422,-0.07324219
3412,-8.75,-10.25,27.4375,-0.8354492,0.5800781,-0.04003906,0.1938477,-0.3242188,-0.07324219
3416,-13.375,-6.8125,32.75,-0.7773438,0.5644531,-0.02832031,0.1928711,-0.3242188,-0.07617188
3420,-10.0625,3.875,50.9375,-0.8549805,0.3779297,0.1098633,0.1904297,-0.3291016,-0.07763672
3424,4.125,6.375,76.4375,-0.8007813,0.4672852,-0.02832031,0.1855469,-0.3305664,-0.07861328
3428,-7.9375,12.875,53.3125,-0.6225586,0.6147461,-0.06689453,0.1806641,-0.3330078,-0.07617188
3432,-30.1875,22.375,36.5625,-0.6689453,0.5410156,-0.0859375,0.1757813,-0.3369141,-0.07763672
