Packet number,Gyroscope X (deg/s),Gyroscope Y (deg/s),Gyroscope Z (deg/s),Accelerometer X (g),Accelerometer Y (g),Accelerometer Z (g),Magnetometer X (G),Magnetometer Y (G),Magnetometer Z (G)
2,-0.25,-0.75,2.1875,-0.4555664,0.855957,-0.1782227,0.184082,-0.3291016,-0.08300781
6,-0.6875,-0.1875,1.8125,-0.4594727,0.8632813,-0.1630859,0.1821289,-0.328125,-0.08300781
10,-0.125,0,0.9375,-0.4555664,0.8671875,-0.1743164,0.1821289,-0.328125,-0.08300781
14,0.25,-0.25,0.75,-0.4672852,0.8671875,-0.1630859,0.1821289,-0.328125,-0.07861328
18,0.5,-0.9375,0.5,-0.4672852,0.8789063,-0.1669922,0.184082,-0.3291016,-0.08447266
22,0.0625,-1.875,0.9375,-0.4633789,0.8867188,-0.1743164,0.1831055,-0.328125,-0.08447266
26,0.8125,-1.75,1.375,-0.4555664,0.8945313,-0.1743164,0.1821289,-0.3291016,-0.08447266
30,0.8125,-2.0625,1.1875,-0.4633789,0.8867188,-0.1782227,0.1831055,-0.3291016,-0.08300781
34,0.5,-3,0.5625,-0.4521484,0.8789063,-0.1708984,0.1831055,-0.3291016,-0.08300781
38,1.0625,-2.5,1.25,-0.4555664,0.875,-0.1821289,0.1821289,-0.3291016,-0.08007813
42,1.125,-2.125,1.375,-0.4633789,0.8789063,-0.1743164,0.1831055,-0.3291016,-0.08447266
46,1.3125,-3.1875,1.8125,-0.4750977,0.8828125,-0.1743164,0.1806641,-0.328125,-0.08447266
50,1.3125,-4.375,1.875,-0.4829102,0.875,-0.1782227,0.1831055,-0.328125,-0.08447266
54,1.9375,-5.3125,-0.0625,-0.4829102,0.875,-0.1821289,0.1806641,-0.3291016,-0.08447266
58,1.75,-5.8125,-1.5625,-0.4829102,0.8828125,-0.1938477,0.1796875,-0.3305664,-0.08447266
62,2.5625,-5.875,-1.625,-0.4907227,0.8984375,-0.1782227,0.1806641,-0.3291016,-0.08154297
66,-0.1875,-9.1875,-2.6875,-0.5332031,0.8710938,-0.1899414,0.1821289,-0.3305664,-0.08300781
70,6.5625,-21.9375,1.4375,-0.5410156,0.8208008,-0.1860352,0.1796875,-0.3305664,-0.08300781
74,14.1875,-31.75,6.875,-0.5253906,0.8520508,-0.1899414,0.1796875,-0.3305664,-0.08447266
78,19.375,-40,11.9375,-0.5102539,0.8710938,-0.1860352,0.1782227,-0.3291016,-0.08837891
82,19.0625,-40.0625,14.875,-0.4750977,0.9335938,-0.1899414,0.1772461,-0.3305664,-0.08837891
86,13.875,-32.8125,12.75,-0.4907227,0.9799805,-0.1938477,0.1772461,-0.3320313,-0.08984375
90,1.875,-23.375,7.375,-0.5175781,1.01123,-0.1630859,0.1757813,-0.3330078,-0.08544922
94,-8.0625,-16.75,0.875,-0.5795898,0.9375,-0.1782227,0.1748047,-0.3344727,-0.08984375
98,-10.875,-19.5625,-2.5625,-0.6650391,0.8481445,-0.1860352,0.1738281,-0.3320313,-0.09082031
102,-4.875,-30.1875,-4.1875,-0.6923828,0.7895508,-0.2055664,0.1748047,-0.3320313,-0.09375
106,0.9375,-39.25,-5.75,-0.6806641,0.7895508,-0.2324219,0.1738281,-0.3330078,-0.09521484
110,5.125,-42.8125,-10,-0.6376953,0.7739258,-0.2592773,0.1723633,-0.3320313,-0.09667969
114,8.25,-38.5625,-14.3125,-0.5722656,0.7973633,-0.2744141,0.1723633,-0.3330078,-0.09912109
119,10,-27.625,-16.25,-0.5566406,0.809082,-0.2861328,0.1738281,-0.3305664,-0.09912109
123,10.625,-14.9375,-17.375,-0.5913086,0.8286133,-0.2744141,0.1757813,-0.3320313,-0.09912109
127,7.375,-5.25,-21.875,-0.6884766,0.8520508,-0.2363281,0.1772461,-0.3305664,-0.1005859
131,2.1875,-3.5625,-30.3125,-0.7773438,0.8481445,-0.2128906,0.1782227,-0.3266602,-0.1005859
135,3.6875,-9.875,-35.75,-0.878418,0.8129883,-0.2089844,0.1806641,-0.328125,-0.1020508
139,11.1875,-19.5625,-39.6875,-0.9130859,0.7895508,-0.2016602,0.1821289,-0.3242188,-0.1020508
143,16,-26.5,-44.375,-0.9248047,0.8325195,-0.1977539,0.1855469,-0.3256836,-0.1005859
147,17.0625,-29,-48.25,-0.9399414,0.8598633,-0.1938477,0.1879883,-0.3217773,-0.1020508
151,15.625,-30.25,-53.8125,-0.9711914,0.875,-0.1899414,0.1904297,-0.3208008,-0.1035156
155,14.75,-29.125,-62.25,-0.9907227,0.8867188,-0.1860352,0.1962891,-0.3168945,-0.1035156
159,12.875,-27.5,-72.375,-1.025391,0.9101563,-0.1630859,0.1972656,-0.3154297,-0.105957
163,12.625,-28.25,-81.8125,-1.044922,0.890625,-0.1513672,0.203125,-0.3105469,-0.1035156
167,15.25,-29.1875,-87.625,-1.044922,0.8867188,-0.128418,0.2080078,-0.3066406,-0.105957
171,16.8125,-31.75,-92.4375,-1.041016,0.8828125,-0.1166992,0.2119141,-0.3032227,-0.1044922
175,16.9375,-34.875,-93.8125,-1.048828,0.8789063,-0.1054688,0.2177734,-0.2954102,-0.1074219
179,16.5,-40.4375,-97.4375,-1.056641,0.8867188,-0.1166992,0.2236328,-0.2919922,-0.1088867
183,16.875,-40.8125,-100.5,-1.056641,0.8710938,-0.1245117,0.2285156,-0.2841797,-0.1088867
187,18.25,-43.8125,-105.875,-1.095215,0.8325195,-0.1166992,0.234375,-0.2792969,-0.1098633
191,22.4375,-51.375,-111.625,-1.067871,0.8208008,-0.1166992,0.2402344,-0.2719727,-0.1142578
195,24.75,-53.375,-113.25,-1.033203,0.8364258,-0.1054688,0.2460938,-0.2680664,-0.1157227
199,25.3125,-53.0625,-114.9375,-1.013672,0.8364258,-0.1015625,0.2509766,-0.2583008,-0.1157227
203,21.8125,-51.6875,-118.1875,-1.029297,0.875,-0.109375,0.2558594,-0.2504883,-0.1196289
207,17.25,-49.625,-122.9375,-1.001953,0.8520508,-0.1323242,0.2617188,-0.2431641,-0.1225586
211,14.3125,-42.1875,-128.875,-0.9633789,0.855957,-0.1474609,0.2675781,-0.2368164,-0.125
215,12.6875,-34.3125,-130.875,-0.9672852,0.793457,-0.1323242,0.2724609,-0.2270508,-0.1264648
219,12.9375,-31.0625,-131.8125,-0.9907227,0.777832,-0.1552734,0.2758789,-0.2167969,-0.1303711
223,14.75,-28,-132.25,-1.001953,0.7626953,-0.1782227,0.2817383,-0.2055664,-0.1318359
227,20.25,-24.1875,-131.3125,-1.021484,0.7431641,-0.1474609,0.2866211,-0.1943359,-0.1318359
231,27.1875,-27.6875,-127,-1.048828,0.6923828,-0.1054688,0.2890625,-0.1855469,-0.1347656
235,32.3125,-37.75,-123.625,-1.044922,0.6772461,-0.07470703,0.2924805,-0.1743164,-0.137207
239,31.9375,-40.5625,-122.0625,-0.9711914,0.7001953,-0.04394531,0.2963867,-0.1645508,-0.1401367
243,24.1875,-32.5,-123.1875,-0.9326172,0.6655273,-0.02441406,0.2973633,-0.1591797,-0.1401367
248,16.1875,-21.625,-126.9375,-0.9287109,0.6147461,-0.02441406,0.2998047,-0.1455078,-0.1416016
252,12.25,-13.375,-130,-0.9555664,0.5527344,-0.005371094,0.3032227,-0.1333008,-0.1425781
256,12.3125,-14.1875,-130,-1.041016,0.5253906,0.01367188,0.3056641,-0.1254883,-0.1455078
260,15,-24.375,-127.6875,-1.044922,0.4672852,0.03271484,0.3071289,-0.1132813,-0.1469727
264,16.6875,-34.6875,-125.6875,-1.017578,0.4633789,0.01367188,0.3081055,-0.1005859,-0.1484375
268,16.875,-44.625,-122.25,-0.9594727,0.4086914,0.009765625,0.309082,-0.09326172,-0.1508789
272,17.1875,-45.5625,-120.375,-0.8588867,0.4165039,0.001953125,0.3081055,-0.07958984,-0.1538086
276,11.1875,-36.125,-122.8125,-0.7851563,0.4125977,0.01708984,0.3071289,-0.06835938,-0.1577148
280,5.8125,-24.8125,-123.8125,-0.7734375,0.3818359,0.02099609,0.3056641,-0.06298828,-0.1616211
284,4.6875,-24.3125,-118.3125,-0.7929688,0.284668,0.04785156,0.3022461,-0.04833984,-0.1630859
288,6.4375,-30.8125,-110.8125,-0.8085938,0.269043,0.04443359,0.3022461,-0.03808594,-0.1660156
292,6.25,-35.5,-103.6875,-0.7929688,0.2495117,0.07128906,0.3007813,-0.03173828,-0.1674805
296,4.125,-38.4375,-98.25,-0.765625,0.2070313,0.06347656,0.2973633,-0.02197266,-0.1728516
300,3,-37.25,-94.75,-0.7114258,0.15625,0.09814453,0.2949219,-0.01171875,-0.1738281
304,-0.5625,-34.625,-96.3125,-0.6923828,0.1367188,0.07910156,0.2915039,-0.006835938,-0.1767578
308,-3.4375,-32.375,-92.75,-0.6455078,0.07080078,0.105957,0.2890625,0.002441406,-0.1796875
312,-4.25,-33.1875,-86.625,-0.6264648,0.05126953,0.05957031,0.2866211,0.01269531,-0.1821289
316,-3.5625,-29.4375,-79.25,-0.6069336,0.01269531,0.04443359,0.2841797,0.01757813,-0.1850586
320,-3,-26.3125,-72.75,-0.6186523,-0.01416016,0.04785156,0.2792969,0.02490234,-0.1875
324,-1.4375,-27.0625,-65.4375,-0.6147461,-0.05664063,0.05957031,0.2758789,0.03027344,-0.1889648
328,-0.75,-25.75,-58.875,-0.5874023,-0.07617188,0.08251953,0.2758789,0.03613281,-0.1889648
332,-4,-22,-56.4375,-0.5795898,-0.1269531,0.09033203,0.2724609,0.04150391,-0.1918945
336,-5.8125,-19.3125,-60.4375,-0.5722656,-0.1381836,0.07910156,0.2675781,0.04736328,-0.1958008
340,-6.0625,-20.4375,-61.1875,-0.5292969,-0.1499023,0.04785156,0.2675781,0.04980469,-0.1943359
344,-4.0625,-23.5,-56.4375,-0.4555664,-0.1811523,0.01367188,0.2651367,0.05615234,-0.1972656
348,-0.875,-22,-46.875,-0.3549805,-0.1928711,-0.02441406,0.2617188,0.05859375,-0.1972656
352,-0.75,-10.25,-36.9375,-0.2700195,-0.1889648,-0.009277344,0.2592773,0.0625,-0.199707
356,-3.75,6,-30,-0.2773438,-0.1928711,0.02099609,0.2583008,0.06738281,-0.1987305
360,-7.1875,15.0625,-23.125,-0.362793,-0.2124023,0.06738281,0.2592773,0.06884766,-0.199707
364,-6.625,6,-13.8125,-0.4750977,-0.2353516,0.09033203,0.2558594,0.07128906,-0.1958008
368,-3.5625,-8.4375,-5,-0.4555664,-0.2783203,0.06738281,0.2558594,0.07275391,-0.1972656
372,-0.375,-8.625,1.125,-0.3588867,-0.2861328,0.04443359,0.2558594,0.07128906,-0.1972656
377,-2.1875,1.1875,4.375,-0.3549805,-0.2666016,0.03662109,0.2558594,0.07275391,-0.1987305
381,-3.375,6,8.625,-0.4013672,-0.2783203,0.05566406,0.2583008,0.07275391,-0.1972656
385,-1.0625,1.8125,17.875,-0.4326172,-0.2744141,0.06347656,0.2568359,0.06982422,-0.1987305
389,1.125,-4.375,26.25,-0.4130859,-0.2666016,0.05957031,0.2602539,0.06884766,-0.1958008
393,1.6875,-4.1875,33.6875,-0.3823242,-0.2353516,0.02880859,0.2592773,0.06640625,-0.199707
397,1.75,1.75,41.5,-0.3706055,-0.2241211,0.03662109,0.2592773,0.06494141,-0.1987305
401,1.5625,6.125,49,-0.4091797,-0.2045898,0.05175781,0.2617188,0.06005859,-0.1987305
405,3.9375,8.6875,57.6875,-0.4287109,-0.2275391,0.08251953,0.2626953,0.05517578,-0.1987305
409,6.9375,10.8125,64.4375,-0.4482422,-0.1694336,0.09814453,0.2666016,0.05126953,-0.1958008
413,7.875,9.4375,68.9375,-0.5024414,-0.1308594,0.09033203,0.269043,0.04638672,-0.1972656
417,10.5,0,72.875,-0.5488281,-0.1538086,0.05957031,0.2700195,0.04003906,-0.1958008
421,20.875,-8.1875,75,-0.4711914,-0.1074219,0.04785156,0.2734375,0.03271484,-0.1972656
425,26.375,-5,79.6875,-0.3862305,-0.02587891,0.06347656,0.2709961,0.02636719,-0.1987305
429,25,5.875,90,-0.362793,0.04394531,0.08251953,0.2749023,0.01855469,-0.1987305
433,19.5625,12.5625,101.3125,-0.4482422,0.1176758,0.07910156,0.2773438,0.008789063,-0.1972656
437,19.0625,13,110.0625,-0.5253906,0.09814453,0.08251953,0.2792969,0.001464844,-0.1987305
441,23.1875,12.375,115.375,-0.5292969,0.1523438,0.09423828,0.2807617,-0.009277344,-0.1972656
445,21.875,20.8125,121.375,-0.5683594,0.237793,0.1132813,0.2856445,-0.02050781,-0.1958008
449,23.4375,24,121.5625,-0.6533203,0.237793,0.09033203,0.2866211,-0.03076172,-0.1943359
453,24.4375,17.5625,123.75,-0.699707,0.1953125,-0.009277344,0.2890625,-0.04296875,-0.1928711
457,30.75,7.8125,125.0625,-0.6923828,0.2456055,-0.02832031,0.2915039,-0.0546875,-0.1943359
461,29.8125,0,130.375,-0.6069336,0.3466797,-0.1015625,0.2915039,-0.06591797,-0.1918945
465,25.1875,11.625,130.4375,-0.4868164,0.4438477,-0.07861328,0.2890625,-0.078125,-0.1918945
469,13.0625,35.875,130.625,-0.5795898,0.5722656,-0.04003906,0.2900391,-0.09179688,-0.1904297
473,7,44.8125,126.75,-0.7192383,0.5488281,-0.02441406,0.2900391,-0.1020508,-0.1865234
477,11.75,32.5625,129.8125,-0.8432617,0.5449219,0.001953125,0.2890625,-0.1142578,-0.1835938
481,19.8125,16.6875,139.6875,-0.7387695,0.6381836,0.02490234,0.2890625,-0.1254883,-0.1821289
485,14.125,27.25,146.6875,-0.6806641,0.809082,0.05175781,0.2880859,-0.1381836,-0.1796875
489,-3,53.3125,143.1875,-0.7543945,0.855957,0.05566406,0.2841797,-0.1533203,-0.175293
493,-11.6875,75.5625,135.0625,-0.9287109,0.824707,0.02099609,0.2817383,-0.1655273,-0.168457
497,-12.6875,73.3125,131.4375,-1.083496,0.8051758,0.009765625,0.2841797,-0.171875,-0.1645508
501,-9.375,61.375,135.25,-1.161133,0.8325195,0.01708984,0.2817383,-0.1831055,-0.1606445
506,-5.5,49.3125,140.5,-1.187988,0.8129883,-0.001464844,0.2758789,-0.1967773,-0.1547852
510,-0.5,38.9375,141.3125,-1.219238,0.8671875,0.001953125,0.2749023,-0.2055664,-0.1523438
514,3.125,34.625,143.25,-1.242188,0.875,-0.005371094,0.2700195,-0.2158203,-0.1484375
518,6.75,28.875,138.125,-1.277344,0.890625,-0.005371094,0.2641602,-0.2280273,-0.1455078
522,7.6875,17.4375,130.5,-1.292969,0.8867188,-0.02441406,0.2568359,-0.2382813,-0.144043
526,10.3125,5.5625,123.9375,-1.211426,0.8984375,-0.04003906,0.2519531,-0.2480469,-0.1416016
530,15,3.25,120.875,-1.099121,0.9140625,-0.04003906,0.2436523,-0.2583008,-0.1425781
534,14.8125,8.9375,116.125,-1.029297,0.9916992,-0.03613281,0.2392578,-0.265625,-0.1416016
538,14,18.9375,113.375,-0.9711914,1.026855,-0.009277344,0.230957,-0.2729492,-0.1386719
542,9.8125,24.5,116.0625,-0.9633789,1.073242,-0.01318359,0.2260742,-0.2817383,-0.1357422
546,4.6875,24.3125,119.875,-0.9829102,1.092773,-0.03222656,0.21875,-0.2880859,-0.1357422
550,1.5,25.25,119.6875,-0.9672852,1.092773,-0.03222656,0.2104492,-0.2929688,-0.1333008
554,-5.25,26.875,115.875,-0.9516602,1.073242,-0.05126953,0.2021484,-0.3032227,-0.1303711
558,-7.1875,32.25,111.8125,-0.878418,0.9956055,-0.07861328,0.1962891,-0.3056641,-0.1303711
562,-9.5625,49,104.5,-0.8198242,0.9799805,-0.09765625,0.1889648,-0.3120117,-0.1303711
566,-19.125,73.5,94.125,-0.8432617,1.04248,-0.07470703,0.1855469,-0.3168945,-0.1289063
570,-31.5,87.4375,87.9375,-0.9907227,1.030762,-0.04394531,0.1806641,-0.3208008,-0.125
574,-37.875,87.625,84.3125,-1.11084,1.003418,-0.005371094,0.1772461,-0.3242188,-0.1225586
578,-42.5625,76.1875,83,-1.242188,0.9799805,0.03662109,0.1738281,-0.3256836,-0.1210938
582,-39.75,51.4375,82.625,-1.308105,0.8867188,0.04052734,0.1699219,-0.3320313,-0.1210938
586,-30.1875,31,79.25,-1.246094,0.875,0.02099609,0.1650391,-0.3320313,-0.1225586
590,-31.125,25.875,70.125,-1.137695,0.9492188,-0.01318359,0.1591797,-0.3344727,-0.1210938
594,-38.25,30.125,63.5,-1.060547,0.9414063,-0.07861328,0.1557617,-0.3393555,-0.1235352
598,-42.75,34.1875,59.5625,-1.075684,0.8129883,-0.1362305,0.1508789,-0.3378906,-0.1264648
602,-35.875,29.9375,63.3125,-1.479004,0.4907227,-0.1860352,0.1474609,-0.3408203,-0.125
606,-7.8125,-9.875,28.9375,-1.854492,0.3310547,-0.1362305,0.144043,-0.3408203,-0.1279297
610,-1.1875,-31,-11.125,-1.479004,0.4985352,-0.2167969,0.1425781,-0.3432617,-0.1264648
614,-5.9375,-16.125,-24.5,-1.161133,0.6303711,-0.1977539,0.1425781,-0.3408203,-0.1318359
618,-4.9375,-6.75,-25.75,-1.168945,0.6420898,-0.1435547,0.1450195,-0.3393555,-0.1303711
622,6.875,-10.875,-20.75,-1.308105,0.6264648,-0.112793,0.1459961,-0.3378906,-0.1333008
626,12.875,-16.0625,-39.8125,-1.358887,0.7431641,-0.04736328,0.1474609,-0.3369141,-0.1333008
630,6.5,-15.0625,-62.4375,-1.362793,0.824707,-0.08203125,0.1508789,-0.3378906,-0.1318359
635,-0.625,-10.375,-81.8125,-1.416992,0.8168945,-0.112793,0.1547852,-0.3320313,-0.1303711
639,0.5,-18.3125,-96.0625,-1.556152,0.7739258,-0.1630859,0.1606445,-0.3305664,-0.1333008
643,15.5,-42.125,-107.625,-1.649414,0.6733398,-0.2246094,0.1674805,-0.3256836,-0.1318359
647,34.5625,-60.8125,-123,-1.533203,0.7548828,-0.2631836,0.1748047,-0.3232422,-0.1347656
651,40.9375,-59.6875,-143.5625,-1.358887,0.921875,-0.2553711,0.1831055,-0.3154297,-0.1333008
655,37.75,-51,-160.125,-1.273438,1.053711,-0.2089844,0.1889648,-0.3120117,-0.1357422
659,33.6875,-45.625,-167.3125,-1.253906,1.12793,-0.1552734,0.199707,-0.3032227,-0.1357422
663,31.3125,-48.125,-169.875,-1.25,1.150879,-0.1513672,0.2094727,-0.2944336,-0.1357422
667,30.5,-50.6875,-172.125,-1.215332,1.135742,-0.1513672,0.2177734,-0.2866211,-0.137207
671,31,-50.1875,-177.4375,-1.191895,1.116211,-0.1435547,0.2294922,-0.2744141,-0.1386719
675,29,-52.375,-184.8125,-1.176758,1.135742,-0.1245117,0.237793,-0.2631836,-0.1401367
679,24.875,-50.4375,-193.125,-1.145508,1.116211,-0.109375,0.2436523,-0.2543945,-0.1416016
683,23.8125,-49.75,-200.0625,-1.114746,1.081055,-0.06298828,0.2543945,-0.2416992,-0.144043
687,23.5625,-50.125,-198.5625,-1.103027,1.116211,-0.02441406,0.2617188,-0.2255859,-0.1469727
691,20.6875,-53.9375,-192,-1.091309,1.116211,-0.001464844,0.2675781,-0.2128906,-0.1484375
695,15.1875,-58.25,-184.4375,-1.063965,1.073242,0.001953125,0.2758789,-0.1982422,-0.1538086
699,11.625,-59.5,-181.375,-1.021484,1.007324,0.009765625,0.2807617,-0.1821289,-0.1577148
703,6.6875,-52.125,-175.625,-0.9711914,0.9799805,0.04443359,0.2832031,-0.171875,-0.1591797
707,0.125,-43.75,-166.25,-0.9907227,0.9140625,0.07519531,0.2880859,-0.1582031,-0.1660156
711,-4.0625,-40.75,-157.125,-1.041016,0.840332,0.105957,0.2900391,-0.1396484,-0.168457
715,-8.5625,-43.6875,-152.875,-1.063965,0.777832,0.08251953,0.2924805,-0.1308594,-0.1728516
719,-11.5,-44.75,-151.625,-1.009766,0.6923828,0.04052734,0.2924805,-0.1142578,-0.175293
723,-12.3125,-43.75,-152.75,-0.9868164,0.6108398,0.005859375,0.2939453,-0.09960938,-0.1806641
727,-8,-45.1875,-155.4375,-0.9438477,0.5292969,-0.01660156,0.2924805,-0.08935547,-0.1835938
731,-4.5,-43.9375,-158.0625,-0.8393555,0.5175781,0.001953125,0.2924805,-0.07421875,-0.1865234
735,-2.5,-38.6875,-155.875,-0.7543945,0.4946289,0.009765625,0.2915039,-0.06054688,-0.1904297
739,-0.25,-35.8125,-149.5625,-0.7270508,0.4594727,0.02880859,0.2866211,-0.04833984,-0.1928711
743,4.25,-34.9375,-140.4375,-0.6611328,0.4086914,0.04785156,0.2856445,-0.03466797,-0.1972656
747,6.625,-33.5,-130.1875,-0.5991211,0.3779297,0.07128906,0.2832031,-0.0234375,-0.1987305
751,2.875,-27,-124.8125,-0.5214844,0.3701172,0.09423828,0.2792969,-0.01464844,-0.199707
755,-3.0625,-20.625,-122.375,-0.5214844,0.3120117,0.1098633,0.2758789,-0.003417969,-0.2026367
759,-3.125,-23.8125,-117.5625,-0.4946289,0.2456055,0.105957,0.2749023,0.008789063,-0.206543
764,-0.4375,-27.4375,-106.625,-0.4248047,0.2226563,0.1132813,0.2709961,0.01513672,-0.2055664
768,-2.1875,-29.75,-92.75,-0.3588867,0.1757813,0.09423828,0.2666016,0.02490234,-0.2094727
772,-1.4375,-30.9375,-83.125,-0.2929688,0.1098633,0.07519531,0.2641602,0.03125,-0.2094727
776,-1.75,-24.5,-72.125,-0.215332,0.04736328,0.05957031,0.2602539,0.03759766,-0.2119141
780,-4.4375,-11.375,-64.125,-0.1845703,0.0009765625,0.06738281,0.2592773,0.04394531,-0.2148438
784,-7.9375,3.5,-58.875,-0.2192383,-0.07617188,0.07128906,0.2558594,0.04882813,-0.2148438
788,-5.5,8.6875,-50.5,-0.3046875,-0.1308594,0.1098633,0.2543945,0.05273438,-0.2148438
792,-3.125,7.875,-39.875,-0.3354492,-0.1347656,0.1289063,0.2519531,0.05371094,-0.2119141
796,-5.5,6.75,-33.5,-0.3510742,-0.1499023,0.140625,0.2519531,0.06005859,-0.2133789
800,-6,7,-27,-0.362793,-0.1889648,0.1518555,0.2509766,0.05859375,-0.2119141
804,-6.5625,5.1875,-20.4375,-0.3666992,-0.2241211,0.1289063,0.2519531,0.06396484,-0.2119141
808,-3.25,5.875,-14.4375,-0.3393555,-0.2548828,0.1132813,0.2509766,0.06494141,-0.2119141
812,-3.4375,9.625,-8.75,-0.3706055,-0.2470703,0.1210938,0.2509766,0.06640625,-0.2109375
816,-3.6875,10.25,-1.125,-0.3901367,-0.2666016,0.1289063,0.2485352,0.06494141,-0.2094727
820,-3.8125,10.8125,4.9375,-0.4208984,-0.2705078,0.1289063,0.2509766,0.06640625,-0.2094727
824,-3.3125,7.875,9.125,-0.4208984,-0.2939453,0.1289063,0.2509766,0.06738281,-0.2080078
828,-2.5625,9.5,15.875,-0.4208984,-0.2861328,0.1289063,0.2519531,0.06640625,-0.206543
832,-3.0625,11.25,20.125,-0.4443359,-0.2705078,0.125,0.2519531,0.06640625,-0.2055664
836,-2.3125,12.25,25.4375,-0.4594727,-0.2626953,0.1328125,0.2543945,0.06396484,-0.206543
840,1,13.4375,31.5,-0.4672852,-0.2548828,0.1289063,0.2568359,0.0625,-0.2055664
844,1.25,13,35.75,-0.4711914,-0.2084961,0.1171875,0.2583008,0.06005859,-0.2041016
848,-1.6875,11.0625,38,-0.4907227,-0.1928711,0.1171875,0.2602539,0.05761719,-0.2011719
852,-4.3125,10.5625,40.375,-0.4946289,-0.1928711,0.09814453,0.2602539,0.05273438,-0.2011719
856,-3.0625,7.25,45.9375,-0.5410156,-0.2353516,0.07128906,0.2641602,0.05126953,-0.2026367
860,2.875,2.5625,54.1875,-0.5722656,-0.2241211,0.04785156,0.2641602,0.04638672,-0.199707
864,8.5,-3.625,61.6875,-0.5722656,-0.1655273,0.05957031,0.2675781,0.04394531,-0.2011719
868,12.5,-3.0625,70.5625,-0.5371094,-0.1420898,0.05957031,0.269043,0.03369141,-0.2041016
872,12.5,2.1875,75.8125,-0.5141602,-0.1074219,0.08251953,0.2675781,0.03027344,-0.2011719
876,7.9375,14.875,76.125,-0.5292969,0.01660156,0.1328125,0.2724609,0.02246094,-0.199707
880,-3.375,20.6875,75.5,-0.6572266,-0.01025391,0.1210938,0.2749023,0.01513672,-0.1987305
884,-2.375,17.3125,72.9375,-0.6962891,-0.03369141,0.1020508,0.2758789,0.01269531,-0.1972656
888,4.875,8.8125,79.8125,-0.730957,-0.05273438,0.08642578,0.2783203,0.007324219,-0.1987305
893,14.6875,-2.9375,82.875,-0.7270508,0.05908203,0.09814453,0.2817383,-0.001953125,-0.199707
897,18.125,-10,91.375,-0.6806641,0.121582,0.09033203,0.2817383,-0.008300781,-0.1987305
901,20.1875,-13.3125,88.0625,-0.5991211,0.1835938,0.07519531,0.2832031,-0.01806641,-0.1987305
905,18.0625,-11.0625,85.375,-0.5488281,0.2651367,0.06738281,0.2817383,-0.02685547,-0.1987305
909,13.5,-2.875,87,-0.5253906,0.2885742,0.06738281,0.2856445,-0.03710938,-0.2026367
913,5.8125,11.625,95.625,-0.5605469,0.3935547,0.09814453,0.2841797,-0.04199219,-0.2011719
917,-5,22.375,100.8125,-0.699707,0.4013672,0.1020508,0.2856445,-0.05078125,-0.2011719
921,-6.9375,16.9375,104.5625,-0.8666992,0.3544922,0.09814453,0.2866211,-0.05810547,-0.1987305
925,1.5625,0.4375,110.625,-0.9868164,0.3271484,0.08642578,0.2856445,-0.06591797,-0.1972656
929,7.875,-10.4375,112.75,-0.878418,0.3349609,0.1132813,0.2866211,-0.078125,-0.199707
933,11.875,-6.6875,105.125,-0.8354492,0.4516602,0.159668,0.2841797,-0.08544922,-0.1987305
937,17.0625,11.0625,-20.9375,-0.3510742,0.5449219,0.2636719,0.2841797,-0.09423828,-0.199707
941,29.1875,7.625,-5.9375,-1.312012,0.4438477,0.1210938,0.2841797,-0.09423828,-0.1958008
945,21.875,-3.1875,53.75,-1.125977,0.7041016,0.1289063,0.2832031,-0.09716797,-0.1958008
949,16.9375,-2.8125,89.5,-1.083496,0.5566406,0.1289063,0.2832031,-0.1020508,-0.1987305
953,4.0625,19.125,107.0625,-1.001953,0.6616211,0.09814453,0.2817383,-0.1132813,-0.1958008
957,-18.75,36.6875,112.0625,-1.125977,0.5644531,0.02099609,0.2817383,-0.1196289,-0.1928711
961,-23.0625,42.25,122.125,-1.099121,0.4985352,0.03662109,0.2807617,-0.1308594,-0.1904297
965,-11.6875,41.0625,116.75,-1.157227,0.4946289,0.02880859,0.2807617,-0.1381836,-0.1865234
969,2.3125,32.5625,122.5,-1.211426,0.5019531,0.005859375,0.2773438,-0.1469727,-0.1865234
973,21.625,26.0625,131.125,-1.157227,0.5410156,0.02490234,0.2773438,-0.1567383,-0.1806641
977,30.8125,29.875,130.375,-1.025391,0.6845703,0.001953125,0.2734375,-0.1704102,-0.1782227
981,25.4375,49.625,120.5,-0.9594727,0.8012695,-0.03222656,0.2724609,-0.1782227,-0.1738281
985,9.6875,68,106.3125,-0.9829102,0.8671875,-0.02441406,0.269043,-0.1918945,-0.1713867
989,-4.625,79.5625,113.75,-1.083496,0.9604492,-0.02441406,0.2666016,-0.2016602,-0.1645508
993,-18.3125,86.6875,121.25,-1.168945,0.956543,-0.05126953,0.2641602,-0.2080078,-0.1606445
997,-26.8125,90.125,124.9375,-1.23877,0.8208008,-0.04003906,0.2602539,-0.2182617,-0.1538086
1001,-35.9375,82.375,114.1875,-1.381836,0.6923828,-0.07080078,0.2592773,-0.2280273,-0.1484375
1005,-39.875,79.9375,98.3125,-1.405273,0.7431641,-0.05517578,0.2558594,-0.2304688,-0.1455078
1009,-55.75,68.9375,75.1875,-1.374023,0.8710938,-0.06298828,0.253418,-0.2382813,-0.1425781
1013,-64.1875,68.375,65,-1.447754,0.4672852,-0.07080078,0.2519531,-0.2382813,-0.1401367
1017,-43,72.9375,72.125,-1.443848,0.5410156,-0.1938477,0.2509766,-0.2441406,-0.137207
1022,-5.5625,98,-10.3125,-1.501953,0.1523438,0.1713867,0.2509766,-0.2431641,-0.1357422
1026,-35.6875,66.375,67.1875,-1.87793,0.171875,-0.2705078,0.253418,-0.2456055,-0.1279297
1030,-46.625,48.875,47.25,-1.773438,0.121582,-0.07080078,0.2519531,-0.2456055,-0.1264648
1034,-34.1875,24.0625,60.6875,-1.777344,-0.06054688,-0.02050781,0.2509766,-0.2495117,-0.125
1038,-5.0625,-0.125,62.8125,-1.75,-0.1191406,-0.01660156,0.2485352,-0.2519531,-0.1235352
1042,22.75,-15.25,68.125,-1.599121,0.05517578,-0.01660156,0.2436523,-0.2568359,-0.125
1046,31.8125,-21.75,56.25,-1.439941,0.237793,-0.109375,0.2412109,-0.2617188,-0.125
1050,22.4375,-9.5,39.5,-1.296875,0.284668,-0.1591797,0.237793,-0.265625,-0.125
1054,15.5,10.5625,31.5625,-1.172852,0.2299805,-0.2436523,0.2353516,-0.2695313,-0.1225586
1058,5.625,19.3125,16.625,-1.129883,0.2338867,-0.1938477,0.2319336,-0.2719727,-0.1196289
1062,-1,24.8125,3.5625,-1.168945,0.21875,-0.1474609,0.234375,-0.2729492,-0.1196289
1066,0.375,19.1875,-11.5,-1.261719,0.2299805,-0.06298828,0.2329102,-0.2719727,-0.1196289
1070,2.9375,7.75,-28.6875,-1.308105,0.2807617,-0.001464844,0.2368164,-0.2705078,-0.1181641
1074,5.9375,-2.25,-42.1875,-1.304199,0.3232422,0.001953125,0.237793,-0.2680664,-0.1196289
1078,14.4375,-15.625,-49.375,-1.308105,0.3232422,-0.02050781,0.237793,-0.265625,-0.1181641
1082,24.875,-22.8125,-54.3125,-1.253906,0.3818359,-0.07080078,0.2412109,-0.2631836,-0.1181641
1086,23.25,-23.375,-62,-1.168945,0.4633789,-0.09765625,0.2451172,-0.2583008,-0.1196289
1090,17.625,-16.375,-69.75,-1.165039,0.4907227,-0.109375,0.2475586,-0.2558594,-0.1166992
1094,12.9375,-17,-75.625,-1.315918,0.4013672,-0.07861328,0.2509766,-0.2504883,-0.1210938
1098,18.6875,-28.6875,-79.5625,-1.428223,0.3271484,-0.06298828,0.2568359,-0.2470703,-0.1196289
1102,31.75,-43.625,-84.3125,-1.459473,0.300293,-0.04003906,0.2568359,-0.2416992,-0.1225586
1106,31.625,-48.4375,-94.5,-1.351074,0.4633789,-0.0859375,0.2602539,-0.2368164,-0.1235352
1110,17.25,-38.8125,-102.1875,-1.292969,0.5449219,-0.08203125,0.2651367,-0.2294922,-0.125
1114,4.75,-29.6875,-107.6875,-1.381836,0.4555664,-0.08984375,0.2675781,-0.2246094,-0.1264648
1118,4.5625,-30.5625,-112.9375,-1.486328,0.3310547,-0.1206055,0.2734375,-0.2158203,-0.1303711
1122,13.375,-35.5625,-119.6875,-1.517578,0.3081055,-0.1591797,0.2773438,-0.2045898,-0.1318359
1126,19.25,-38.4375,-130.3125,-1.486328,0.3041992,-0.2055664,0.2807617,-0.1982422,-0.1333008
1130,20.6875,-36.4375,-145.625,-1.486328,0.4052734,-0.2055664,0.2841797,-0.1845703,-0.1357422
1134,16.125,-33,-157.75,-1.393555,0.4399414,-0.1821289,0.2890625,-0.1743164,-0.137207
1138,12.625,-22.375,-161.0625,-1.366211,0.5019531,-0.1401367,0.2924805,-0.1645508,-0.1386719
1142,10,-16,-165.1875,-1.389648,0.4438477,-0.1015625,0.2963867,-0.1479492,-0.1401367
1146,11.5,-14.3125,-169.75,-1.463379,0.4321289,-0.07861328,0.3007813,-0.1318359,-0.1416016
1151,11.1875,-19.1875,-177.9375,-1.486328,0.3974609,-0.06298828,0.3032227,-0.1220703,-0.1416016
1155,12.6875,-22.5,-186.125,-1.455566,0.3505859,-0.04736328,0.3046875,-0.1044922,-0.144043
1159,25.75,-17.75,-188.4375,-1.343262,0.4399414,-0.02832031,0.3081055,-0.08447266,-0.1455078
1163,14.375,-21.0625,-188,-1.385742,0.4204102,-0.05126953,0.3071289,-0.07421875,-0.1469727
1167,13.3125,-19.625,-188.125,-1.28125,0.4052734,-0.02050781,0.3081055,-0.05566406,-0.1494141
1171,12.25,-16.125,-182.875,-1.327637,0.3349609,0.03271484,0.3071289,-0.03564453,-0.1494141
1175,11.875,-23.375,-182.8125,-1.28125,0.3466797,0.05175781,0.3046875,-0.02587891,-0.1523438
1179,13.0625,-26.3125,-181.5625,-1.230957,0.2612305,0.06738281,0.3032227,-0.005859375,-0.1523438
1183,13.3125,-28.625,-175.8125,-1.118652,0.3041992,0.02099609,0.2983398,0.008789063,-0.15625
1187,10.75,-23.9375,-171.3125,-1.025391,0.2885742,0.02880859,0.2949219,0.02001953,-0.1577148
1191,5.9375,-19.5625,-165.875,-0.9985352,0.2148438,0.02099609,0.2890625,0.03759766,-0.1606445
1195,9.75,-16.3125,-160.875,-0.9633789,0.1333008,0.04785156,0.2841797,0.05273438,-0.1630859
1199,11.6875,-21.125,-157.375,-0.9399414,0.1137695,0.05957031,0.2807617,0.0625,-0.1645508
1203,12.6875,-24.3125,-154.5625,-0.8745117,0.05517578,0.03271484,0.2749023,0.07617188,-0.1660156
1207,12.9375,-23.4375,-149.9375,-0.7890625,0.06689453,0.02490234,0.2641602,0.08886719,-0.168457
1211,8.5625,-19.375,-140.1875,-0.715332,0.04394531,0.02099609,0.2602539,0.09765625,-0.168457
1215,3.9375,-16.5,-133.8125,-0.7231445,-0.006347656,0.06738281,0.2519531,0.1088867,-0.1713867
1219,5,-23.5,-125.75,-0.6962891,-0.06835938,0.04443359,0.2451172,0.1201172,-0.1728516
1223,9.4375,-27,-117.25,-0.5991211,-0.08007813,0.03271484,0.2402344,0.1264648,-0.1738281
1227,9.6875,-26.625,-105.9375,-0.5141602,-0.06445313,0.01708984,0.2319336,0.1362305,-0.1767578
1231,8.5,-22.4375,-94.9375,-0.4091797,-0.09960938,0.03271484,0.2246094,0.1425781,-0.1782227
1235,6.4375,-16.25,-83,-0.3862305,-0.1191406,0.04785156,0.2211914,0.1459961,-0.1806641
1239,8.0625,-13.4375,-72.5,-0.3393555,-0.1577148,0.05566406,0.215332,0.1523438,-0.1821289
1243,4.875,-6.9375,-58.875,-0.2890625,-0.1459961,0.04443359,0.2104492,0.15625,-0.1821289
1247,-1,1.125,-55.0625,-0.3125,-0.2431641,0.06738281,0.2080078,0.1586914,-0.1821289
1251,-5.75,4.25,-51.6875,-0.3354492,-0.3017578,0.09033203,0.203125,0.1601563,-0.1850586
1255,-5.1875,3.9375,-45.5625,-0.362793,-0.3364258,0.09033203,0.2011719,0.1650391,-0.1835938
1259,-2.625,-0.625,-37.5625,-0.3432617,-0.3520508,0.07910156,0.1987305,0.1689453,-0.1806641
1263,-1.3125,1.1875,-31,-0.3125,-0.3598633,0.06738281,0.1948242,0.1699219,-0.1821289
1267,-5.625,7.5625,-25.1875,-0.28125,-0.3793945,0.04052734,0.1938477,0.1738281,-0.1821289
1271,-6.3125,13.375,-18.875,-0.3125,-0.4492188,0.03271484,0.1938477,0.1738281,-0.1796875
1275,-1.1875,13.0625,-12.4375,-0.347168,-0.4960938,0.02490234,0.1938477,0.1748047,-0.1796875
1280,3.1875,10.1875,-6.4375,-0.3510742,-0.5,0.02880859,0.1928711,0.1762695,-0.1767578
1284,5.625,9.875,-3.3125,-0.3432617,-0.4882813,0.02880859,0.1928711,0.1762695,-0.1796875
1288,5.8125,9.4375,-0.75,-0.347168,-0.4765625,0.02880859,0.1928711,0.1762695,-0.1767578
1292,3.625,7.6875,1.875,-0.3320313,-0.453125,0.07910156,0.1938477,0.1748047,-0.1796875
1296,-2.625,5.625,6.8125,-0.3510742,-0.4453125,0.09033203,0.1962891,0.1762695,-0.1782227
1300,-7.3125,9.375,12.1875,-0.3085938,-0.4960938,0.03662109,0.1948242,0.1762695,-0.1767578
1304,-11.5,14.8125,11.1875,-0.3164063,-0.5112305,0.001953125,0.1972656,0.1738281,-0.175293
1308,-11.125,20.6875,12.5625,-0.3354492,-0.5541992,0.02880859,0.1972656,0.1748047,-0.1738281
1312,-10.6875,24.5625,17.875,-0.4091797,-0.5424805,-0.001464844,0.2011719,0.1738281,-0.1738281
1316,-8.625,24.1875,23.0625,-0.4208984,-0.5307617,0.04052734,0.2021484,0.1748047,-0.1728516
1320,-7.25,23.125,30.9375,-0.4404297,-0.534668,0.09423828,0.203125,0.1713867,-0.168457
1324,-6.25,16.8125,34.1875,-0.4907227,-0.4882813,0.07128906,0.2080078,0.1699219,-0.1660156
1328,-4.75,8.875,37.625,-0.4750977,-0.4765625,0.04443359,0.2094727,0.1660156,-0.1660156
1332,-0.875,5.25,42.6875,-0.4287109,-0.4648438,0.009765625,0.2119141,0.1674805,-0.1660156
1336,3,5,46.25,-0.4208984,-0.402832,0.01708984,0.215332,0.1635742,-0.1660156
1340,2.6875,6.0625,53.25,-0.4130859,-0.3481445,0.01367188,0.2177734,0.1601563,-0.1645508
1344,6.875,2.4375,61.9375,-0.4750977,-0.3676758,0.06347656,0.2211914,0.1577148,-0.1660156
1348,11.9375,-4.6875,66.1875,-0.4946289,-0.3173828,0.09814453,0.2236328,0.1523438,-0.1660156
1352,12.6875,-8.75,68.625,-0.4868164,-0.2626953,0.09423828,0.2270508,0.1450195,-0.1660156
1356,11.5625,-9.875,72,-0.4985352,-0.2163086,0.1020508,0.2319336,0.1425781,-0.1674805
1360,13.1875,-12.9375,76.5,-0.5063477,-0.1889648,0.09814453,0.234375,0.1362305,-0.1699219
1364,19,-18.25,82.875,-0.5292969,-0.1113281,0.125,0.2402344,0.1298828,-0.1728516
1368,22.6875,-19,94,-0.5410156,-0.03759766,0.1132813,0.2412109,0.125,-0.1728516
1372,21.9375,-20,101.375,-0.5449219,0.04003906,0.105957,0.2475586,0.1137695,-0.175293
1376,18.5,-21.375,105.375,-0.5371094,0.08251953,0.04052734,0.2509766,0.1064453,-0.1782227
1380,15.875,-18.1875,105.875,-0.4946289,0.1640625,-0.02050781,0.253418,0.09863281,-0.1796875
1384,10.5,-8.1875,112.25,-0.5024414,0.2148438,-0.03222656,0.2583008,0.08984375,-0.1796875
1388,9.25,-2.375,120.625,-0.5991211,0.3041992,-0.109375,0.2602539,0.08007813,-0.1850586
1392,5.4375,6,133.3125,-0.6147461,0.4165039,-0.109375,0.2651367,0.07128906,-0.1850586
1396,-9.625,23.6875,146.9375,-0.6416016,0.4633789,-0.1166992,0.2700195,0.06005859,-0.1835938
1400,-31.4375,49.875,154.625,-0.7426758,0.3896484,-0.1630859,0.2773438,0.04492188,-0.1806641
1404,-45.4375,64,154.1875,-0.9829102,0.3466797,-0.1401367,0.2832031,0.03759766,-0.1728516
1409,-46.625,64.0625,162.125,-1.125977,0.269043,-0.1015625,0.2890625,0.02490234,-0.1674805
1413,-39.625,61.9375,167.4375,-1.227051,0.2265625,-0.06689453,0.2949219,0.01025391,-0.1630859
1417,-44.1875,65.6875,169.8125,-1.315918,0.284668,-0.07080078,0.3007813,-0.0004882813,-0.1591797
1421,-50.6875,63.875,171.125,-1.494141,0.1992188,-0.0859375,0.3056641,-0.01464844,-0.1508789
1425,-37.0625,44.9375,170.5,-1.610352,0.1445313,-0.08203125,0.3081055,-0.02929688,-0.144043
1429,-21.5625,30,170.9375,-1.552246,0.1757813,-0.1401367,0.3105469,-0.04052734,-0.1416016
1433,-17.875,23.5625,163.1875,-1.436035,0.2265625,-0.2285156,0.3129883,-0.05810547,-0.1401367
1437,-17.4375,29.6875,161,-1.37793,0.284668,-0.2631836,0.3129883,-0.07324219,-0.137207
1441,-24.5625,42.875,157.0625,-1.327637,0.3583984,-0.2744141,0.3105469,-0.08300781,-0.1347656
1445,-36.4375,58.375,153.75,-1.393555,0.4243164,-0.2324219,0.3115234,-0.09960938,-0.1303711
1449,-41.875,61.875,152.625,-1.498047,0.4086914,-0.1743164,0.309082,-0.1157227,-0.125
1453,-35.875,55,154.4375,-1.552246,0.4013672,-0.1245117,0.3071289,-0.1230469,-0.1210938
1457,-27.25,45.5625,157,-1.563965,0.4360352,-0.1435547,0.3056641,-0.1367188,-0.1166992
1461,-22.625,40.1875,156.9375,-1.552246,0.4672852,-0.1743164,0.2998047,-0.1533203,-0.112793
1465,-22,38.0625,154.875,-1.541016,0.4750977,-0.2089844,0.2998047,-0.1621094,-0.112793
1469,-23.25,38.3125,149.5625,-1.583496,0.4594727,-0.2089844,0.2963867,-0.1757813,-0.1113281
1473,-26.625,34.0625,146.6875,-1.591309,0.4594727,-0.1977539,0.2880859,-0.1904297,-0.1074219
1477,-32.875,34.375,139.8125,-1.567871,0.4013672,-0.1669922,0.2866211,-0.1967773,-0.1074219
1481,-39.25,35.9375,132.3125,-1.603027,0.3701172,-0.1401367,0.2817383,-0.2094727,-0.1044922
1485,-52.9375,41.5625,121.6875,-1.62207,0.3583984,-0.1362305,0.2773438,-0.2192383,-0.105957
1489,-72.4375,48.8125,110.3125,-1.65332,0.3120117,-0.1630859,0.2724609,-0.2246094,-0.1044922
1493,-92.3125,56.1875,100,-1.719238,0.2070313,-0.1977539,0.2675781,-0.2329102,-0.1035156
1497,-107.0625,51.25,87.6875,-1.761719,0.04003906,-0.2705078,0.2641602,-0.2382813,-0.1044922
1501,-57.1875,33.0625,154.0625,-3.04834,-1.727539,-0.04736328,0.2592773,-0.2416992,-0.1020508
1505,42.875,-82.1875,5.25,-2.288574,-1.338867,-0.1977539,0.253418,-0.2495117,-0.1074219
1509,32.125,-65.625,-35.4375,-1.567871,-0.2431641,-0.5864258,0.2519531,-0.2480469,-0.1098633
1513,-22.25,-20.125,-31.25,-1.230957,-0.2314453,-0.5551758,0.253418,-0.2470703,-0.112793
1517,6.125,-2.5625,-29.5,-1.277344,-0.3793945,-0.3974609,0.2543945,-0.2441406,-0.1157227
1521,43.375,2.75,-21.5625,-1.393555,-0.2006836,-0.2363281,0.2568359,-0.2431641,-0.1142578
1525,49.6875,6.3125,-20.5625,-1.610352,0.02050781,-0.0859375,0.2568359,-0.2416992,-0.1113281
1529,29.9375,-2,-57.625,-1.82373,0.06298828,-0.02050781,0.2592773,-0.2416992,-0.1113281
1533,19,-22.1875,-99.5625,-1.854492,0.03613281,-0.04394531,0.2626953,-0.2358398,-0.1088867
1538,24.6875,-40.1875,-122.25,-1.804199,0.07470703,-0.1401367,0.2675781,-0.2294922,-0.1098633
1542,34.0625,-48.25,-128.125,-1.70752,0.1367188,-0.2246094,0.2734375,-0.2231445,-0.1142578
1546,41.875,-47.3125,-129.5625,-1.672363,0.1679688,-0.2900391,0.2758789,-0.2104492,-0.1157227
1550,47.625,-47.9375,-139.375,-1.618164,0.2265625,-0.3632813,0.2807617,-0.2045898,-0.1166992
1554,48,-39.0625,-149.5625,-1.525391,0.2729492,-0.3901367,0.2866211,-0.1933594,-0.1142578
1558,44.6875,-20.5625,-159.1875,-1.509766,0.3271484,-0.3632813,0.2900391,-0.1821289,-0.1196289
1562,35.0625,-6.3125,-169.5,-1.583496,0.3935547,-0.3129883,0.2939453,-0.171875,-0.1181641
1566,24.625,1,-179.625,-1.641602,0.3701172,-0.2783203,0.3022461,-0.1582031,-0.1196289
1570,24.0625,-1.25,-190.375,-1.730469,0.3041992,-0.2592773,0.3056641,-0.1381836,-0.1166992
1574,37.8125,-13.0625,-194.9375,-1.730469,0.2768555,-0.2861328,0.3081055,-0.1254883,-0.1157227
1578,54.75,-23,-190.5625,-1.723145,0.3388672,-0.2900391,0.3129883,-0.1069336,-0.1181641
1582,67.875,-27.9375,-186.3125,-1.618164,0.3466797,-0.2978516,0.3154297,-0.09082031,-0.1181641
1586,72.4375,-24.875,-189.5,-1.571777,0.4399414,-0.2592773,0.3154297,-0.078125,-0.1196289
1590,67.4375,-23.4375,-191.375,-1.537109,0.4907227,-0.2128906,0.3154297,-0.05810547,-0.1225586
1594,58.5625,-19.3125,-189.9375,-1.443848,0.5097656,-0.2089844,0.3154297,-0.04199219,-0.125
1598,45.375,-12.625,-186.375,-1.432129,0.4907227,-0.1743164,0.3139648,-0.03076172,-0.1235352
1602,36.625,-10,-179.375,-1.424316,0.4125977,-0.128418,0.3115234,-0.01318359,-0.1279297
1606,38.4375,-1.8125,-169.125,-1.362793,0.3466797,-0.109375,0.309082,0.004882813,-0.1279297
1610,43.5,2.8125,-165.0625,-1.285156,0.3388672,-0.1401367,0.3081055,0.01611328,-0.1279297
1614,36.125,5.5,-163.5625,-1.20752,0.3310547,-0.1362305,0.3046875,0.02880859,-0.1303711
1618,22,10.8125,-164.4375,-1.172852,0.2495117,-0.1401367,0.2983398,0.04638672,-0.1289063
1622,17.375,8.5,-166.375,-1.184082,0.1137695,-0.1245117,0.2963867,0.05761719,-0.1289063
1626,26.6875,-1.75,-168.25,-1.165039,0.03613281,-0.112793,0.2900391,0.07275391,-0.1289063
1630,38.25,-10.3125,-169.9375,-1.075684,0.05908203,-0.1206055,0.2817383,0.08740234,-0.1318359
1634,42.25,-16.875,-167.625,-0.9907227,0.121582,-0.112793,0.2758789,0.09765625,-0.1333008
1638,47.5,-23.625,-158.375,-0.9013672,0.08251953,-0.05517578,0.2675781,0.1088867,-0.1386719
1642,54.8125,-30.3125,-150.1875,-0.8046875,0.105957,-0.01318359,0.2592773,0.1225586,-0.1416016
1646,53.375,-37.125,-139.4375,-0.715332,0.1367188,0.01367188,0.253418,0.1289063,-0.144043
1650,52.3125,-42.125,-129.75,-0.6264648,0.07080078,0.02490234,0.2436523,0.1376953,-0.1508789
1654,57.1875,-47,-123.3125,-0.5024414,0.05126953,0.005859375,0.234375,0.1459961,-0.1591797
1658,60.9375,-46.0625,-115.0625,-0.3974609,0.08642578,0.02880859,0.2285156,0.1499023,-0.1606445
1662,55.125,-41.875,-105.5,-0.262207,0.15625,0.04443359,0.2177734,0.15625,-0.1674805
1667,43.6875,-35.625,-93.5625,-0.1650391,0.1679688,0.07519531,0.2104492,0.1625977,-0.1738281
1671,28.875,-29.0625,-78.1875,-0.07617188,0.1254883,0.1020508,0.2070313,0.1660156,-0.1767578
1675,15.1875,-18.4375,-64.375,-0.01025391,0.05126953,0.09423828,0.199707,0.1699219,-0.1806641
1679,1.5,-4.9375,-53.25,-0.01025391,-0.002441406,0.1098633,0.1938477,0.1713867,-0.1821289
1683,-11,2.5,-40.4375,-0.07617188,-0.09960938,0.105957,0.1928711,0.1748047,-0.1806641
1687,-13.5625,1.75,-30.375,-0.1147461,-0.2509766,0.09423828,0.1889648,0.1787109,-0.1806641
1691,-8.6875,2.6875,-23.3125,-0.1147461,-0.324707,0.09423828,0.1889648,0.1801758,-0.1782227
1695,-9.6875,4.625,-20.3125,-0.1533203,-0.3134766,0.08251953,0.1889648,0.1811523,-0.1782227
1699,-14.3125,4.1875,-18.625,-0.1845703,-0.3598633,0.09033203,0.1855469,0.1811523,-0.1796875
1703,-14.9375,2.6875,-13.75,-0.1611328,-0.3598633,0.08642578,0.1855469,0.1835938,-0.1782227
1707,-17.875,2,-4.1875,-0.1459961,-0.402832,0.05957031,0.1855469,0.1826172,-0.1767578
1711,-15.875,3.375,5.125,-0.1420898,-0.421875,0.04052734,0.1865234,0.1850586,-0.175293
1715,-16.25,5.75,14.5625,-0.1533203,-0.4101563,0.01367188,0.1855469,0.1850586,-0.1738281
1719,-17.9375,8.0625,22,-0.1884766,-0.3833008,0.02880859,0.1865234,0.1850586,-0.1713867
1723,-22.4375,10.1875,30,-0.2231445,-0.3754883,0.04443359,0.1879883,0.1860352,-0.1713867
1727,-25.625,9.375,38.3125,-0.246582,-0.4140625,0.01367188,0.1914063,0.1835938,-0.168457
1731,-24.5,7.125,47.375,-0.246582,-0.4882813,-0.04736328,0.1948242,0.1826172,-0.1660156
1735,-19.8125,10.6875,50.0625,-0.2543945,-0.503418,-0.07470703,0.1987305,0.1787109,-0.1645508
1739,-18.875,14.0625,48.125,-0.3125,-0.503418,-0.03613281,0.2021484,0.1787109,-0.1616211
1743,-11.8125,6.8125,50.3125,-0.4208984,-0.453125,0.001953125,0.2045898,0.1762695,-0.1606445
1747,-2.875,-2.9375,60.3125,-0.4091797,-0.3989258,0.02490234,0.2080078,0.1762695,-0.1591797
1751,-1.3125,-9.5,69.1875,-0.378418,-0.3325195,-0.005371094,0.2128906,0.1699219,-0.1606445
1755,-3.25,-12.6875,75.5,-0.3745117,-0.3364258,-0.03613281,0.2163086,0.1660156,-0.1616211
1759,-1,-17.25,82.5625,-0.4365234,-0.340332,-0.09765625,0.21875,0.1611328,-0.1630859
1763,4.375,-17.25,91.5625,-0.4091797,-0.340332,-0.128418,0.2260742,0.1547852,-0.1630859
1767,4.8125,-9.4375,95.25,-0.4404297,-0.2783203,-0.128418,0.2294922,0.1489258,-0.1645508
1771,-2.8125,1.1875,97.6875,-0.5024414,-0.2202148,-0.08203125,0.2329102,0.1411133,-0.1660156
1775,-9.8125,6.625,99.25,-0.5683594,-0.2314453,-0.04003906,0.2392578,0.1347656,-0.1645508
1779,-8.625,5.6875,99.75,-0.6376953,-0.2314453,-0.03613281,0.2436523,0.1289063,-0.1645508
1783,0.1875,-1.875,101.8125,-0.6962891,-0.2084961,-0.03613281,0.2475586,0.1201172,-0.1630859
1787,10.125,-7.625,108.375,-0.6962891,-0.1035156,-0.03613281,0.2558594,0.1123047,-0.1630859
1791,7.125,-0.5,125.375,-0.6728516,-0.02197266,-0.02832031,0.2602539,0.1064453,-0.1645508
1796,4.75,8.5,132.6875,-0.7192383,-0.04882813,-0.01318359,0.2666016,0.09375,-0.1630859
1800,7.375,12.6875,133.5625,-0.8237305,-0.006347656,0.05175781,0.269043,0.08251953,-0.1660156
1804,11.9375,6.8125,132.0625,-0.8974609,0.04394531,0.1132813,0.2758789,0.07373047,-0.1616211
1808,16.8125,1.4375,129.5,-0.9365234,0.2265625,0.159668,0.2792969,0.06103516,-0.1660156
1812,-0.75,5.375,150.1875,-0.9790039,0.2573242,0.08251953,0.2841797,0.04882813,-0.1630859
1816,-2.9375,1.4375,155.5625,-1.021484,0.06689453,-0.01318359,0.2890625,0.03857422,-0.1645508
1820,10.9375,2.6875,156.1875,-0.9829102,0.07080078,-0.07861328,0.2924805,0.02392578,-0.1630859
1824,13.0625,14.25,153.5,-0.9516602,0.1835938,-0.0859375,0.2963867,0.008789063,-0.1616211
1828,9.5,26.875,151.1875,-1.021484,0.2612305,-0.05517578,0.2949219,-0.003417969,-0.1645508
1832,5.875,35.125,156.75,-1.176758,0.3662109,0.01708984,0.3007813,-0.01806641,-0.1606445
1836,-5.3125,35.125,163,-1.327637,0.3583984,0.02880859,0.3022461,-0.03466797,-0.1547852
1840,-1.625,21,161.6875,-1.393555,0.237793,0.04785156,0.3032227,-0.04296875,-0.1547852
1844,16.4375,6.625,163.125,-1.366211,0.2070313,0.02099609,0.3046875,-0.06201172,-0.1547852
1848,28.8125,2.375,163.375,-1.25,0.3232422,-0.01318359,0.3056641,-0.078125,-0.1523438
1852,24,13.9375,155.8125,-1.211426,0.4829102,-0.03222656,0.3056641,-0.08935547,-0.1508789
1856,7.3125,28.75,152.625,-1.296875,0.5913086,-0.009277344,0.3007813,-0.1083984,-0.1494141
1860,-6.875,32.5,151.4375,-1.374023,0.5878906,-0.05126953,0.2998047,-0.1220703,-0.1484375
1864,-11.75,35.8125,152.375,-1.40918,0.5488281,-0.0859375,0.2998047,-0.1308594,-0.1469727
1868,-11.1875,33.25,153.9375,-1.447754,0.5371094,-0.112793,0.2963867,-0.1469727,-0.1425781
1872,-10.5,30.125,154.75,-1.424316,0.5332031,-0.1435547,0.2924805,-0.1621094,-0.1386719
1876,-13.75,34.75,155.625,-1.401367,0.5683594,-0.1362305,0.2890625,-0.171875,-0.1386719
1880,-22.8125,42.8125,157.0625,-1.420898,0.5566406,-0.1245117,0.2856445,-0.1855469,-0.137207
1884,-33.75,50.0625,155.8125,-1.48291,0.5097656,-0.07470703,0.2783203,-0.1982422,-0.1347656
1888,-41.8125,52.4375,151.875,-1.587402,0.4399414,-0.001464844,0.2749023,-0.2045898,-0.1318359
1892,-46.6875,46.1875,144,-1.67627,0.3857422,0.04785156,0.2700195,-0.2167969,-0.1289063
1896,-50.6875,38.625,132.5,-1.665039,0.3271484,0.07910156,0.2641602,-0.2270508,-0.1289063
1900,-54.5,34.3125,116.125,-1.610352,0.2768555,0.06738281,0.2602539,-0.2319336,-0.1279297
1904,-63,33.5,103.6875,-1.571777,0.284668,0.009765625,0.253418,-0.2407227,-0.1279297
1908,-72.5,36.75,94.125,-1.521484,0.21875,-0.05517578,0.25,-0.2470703,-0.1279297
1912,-79.125,43,82.5625,-1.490234,0.1484375,-0.109375,0.2475586,-0.2480469,-0.1279297
1916,-83.6875,49.25,71.0625,-1.513672,0.09814453,-0.1323242,0.2426758,-0.2529297,-0.1289063
1920,-83.3125,50.5,75,-1.885742,-0.3793945,-0.08203125,0.2402344,-0.2543945,-0.1289063
1925,-18.75,-13.6875,75.875,-2.753906,-1.447754,0.2866211,0.2402344,-0.2592773,-0.1303711
1929,38.8125,-76.5,-1.3125,-1.905273,-0.550293,-0.05908203,0.2329102,-0.2607422,-0.1318359
1933,25.375,-51.25,-36.8125,-1.439941,-0.1074219,-0.1899414,0.234375,-0.2631836,-0.1347656
1937,7.9375,-34,-38.1875,-1.157227,0.1523438,-0.2246094,0.234375,-0.2607422,-0.1347656
1941,-2.625,-0.875,-30.75,-1.029297,0.2924805,-0.1821289,0.2353516,-0.2583008,-0.1386719
1945,-16.4375,25.1875,-9.0625,-1.277344,0.2109375,-0.1401367,0.237793,-0.2558594,-0.1386719
1949,-25.75,34.6875,-25.9375,-1.40918,0.1254883,-0.03222656,0.2392578,-0.2543945,-0.1386719
1953,-33.75,34.125,-59.0625,-1.537109,0.06298828,-0.001464844,0.2426758,-0.2504883,-0.137207
1957,-33.5,23.875,-92.1875,-1.603027,-0.05664063,0.01708984,0.2485352,-0.2456055,-0.137207
1961,-11.3125,5.75,-110.1875,-1.595215,-0.05273438,-0.03222656,0.25,-0.2382813,-0.1386719
1965,11.9375,-8.5,-114.3125,-1.560059,0.05517578,-0.07470703,0.2558594,-0.2294922,-0.1386719
1969,23.875,-15.625,-116.75,-1.490234,0.1875,-0.128418,0.2626953,-0.2207031,-0.1401367
1973,24.6875,-14.125,-123.5,-1.455566,0.269043,-0.1591797,0.2666016,-0.2128906,-0.1386719
1977,21.875,-9.1875,-129.4375,-1.471191,0.2807617,-0.1474609,0.2724609,-0.203125,-0.1401367
1981,22.375,-6.9375,-136.875,-1.505859,0.2924805,-0.1401367,0.2773438,-0.1933594,-0.137207
1985,25.75,-7.1875,-141.625,-1.544922,0.3041992,-0.109375,0.2807617,-0.1855469,-0.1386719
1989,30,-12.625,-146.3125,-1.560059,0.3193359,-0.07861328,0.2866211,-0.1743164,-0.137207
1993,32.5,-14.6875,-151,-1.54834,0.3662109,-0.05517578,0.2900391,-0.1630859,-0.137207
1997,27.75,-14.5625,-155.8125,-1.537109,0.4052734,-0.06298828,0.2963867,-0.1533203,-0.1386719
2001,22.1875,-14.9375,-161,-1.501953,0.3974609,-0.07080078,0.2983398,-0.1381836,-0.1386719
2005,21.9375,-13.6875,-164,-1.463379,0.3935547,-0.05908203,0.3022461,-0.1245117,-0.1386719
2009,25,-15.3125,-163.3125,-1.447754,0.3896484,-0.04394531,0.3032227,-0.1118164,-0.1401367
2013,25.375,-15.6875,-163.625,-1.385742,0.4321289,-0.05126953,0.3056641,-0.09814453,-0.1416016
2017,20.8125,-12.4375,-163.375,-1.343262,0.4125977,-0.04394531,0.309082,-0.08056641,-0.144043
2021,18.0625,-10.125,-164.0625,-1.319824,0.3818359,-0.05126953,0.3071289,-0.07177734,-0.1425781
2025,16.5625,-8.9375,-163.4375,-1.304199,0.3583984,-0.02832031,0.3081055,-0.05566406,-0.144043
2029,15.4375,-6.6875,-163.6875,-1.253906,0.3466797,-0.005371094,0.3081055,-0.03955078,-0.1455078
2033,11.75,-4.6875,-161.5,-1.230957,0.3388672,0.005859375,0.3071289,-0.02929688,-0.1455078
2037,7.75,-4.375,-157.1875,-1.211426,0.3041992,0.005859375,0.3056641,-0.01171875,-0.1455078
2041,7.875,-4.875,-152.125,-1.161133,0.253418,0.02099609,0.3022461,0.002441406,-0.1455078
2045,7.25,-4.4375,-146.625,-1.141602,0.253418,0.04785156,0.3007813,0.01269531,-0.144043
2049,-1.3125,-2.1875,-137.875,-1.091309,0.2226563,0.07519531,0.2973633,0.02734375,-0.1469727
2054,-16.25,5,-128.8125,-1.07959,0.1757813,0.07910156,0.2939453,0.04003906,-0.144043
2058,-34.875,12.3125,-124.5,-1.106934,0.04736328,0.04052734,0.2924805,0.04980469,-0.1455078
2062,-45.875,21.6875,-128.5625,-1.12207,-0.09179688,-0.01318359,0.2880859,0.06396484,-0.1425781
2066,-45.9375,22.3125,-134.625,-1.211426,-0.2509766,-0.05908203,0.2841797,0.07861328,-0.137207
2070,-21.875,9.5625,-140.375,-1.203613,-0.3637695,-0.06298828,0.2792969,0.08740234,-0.137207
2074,10.5,-4,-143.375,-1.071777,-0.3017578,-0.09375,0.2734375,0.1010742,-0.1347656
2078,31.25,-12.0625,-141.25,-0.9555664,-0.1889648,-0.07861328,0.2651367,0.1152344,-0.1347656
2082,46.5,-21,-137.8125,-0.831543,-0.05664063,-0.06689453,0.2617188,0.1201172,-0.1386719
2086,54.9375,-28.25,-132.25,-0.6689453,0.01660156,-0.06298828,0.253418,0.1313477,-0.1425781
2090,60.625,-30.875,-123.9375,-0.5024414,0.08251953,-0.05517578,0.2451172,0.1386719,-0.1484375
2094,55.25,-25.0625,-111.9375,-0.3510742,0.1679688,-0.03222656,0.2392578,0.1425781,-0.1508789
2098,39.5,-14.3125,-97.125,-0.2734375,0.1601563,-0.02050781,0.2329102,0.1499023,-0.1577148
2102,29.125,-7.6875,-84.1875,-0.246582,0.05517578,-0.001464844,0.2236328,0.1547852,-0.1616211
2106,26.875,-2.875,-70.125,-0.2231445,-0.03369141,0.04052734,0.2211914,0.1586914,-0.1616211
2110,25.5625,-1.125,-58.125,-0.2426758,-0.06445313,0.08642578,0.21875,0.1625977,-0.1606445
2114,19.9375,-1.6875,-49.4375,-0.2426758,-0.09570313,0.09423828,0.2138672,0.1660156,-0.1630859
2118,12.0625,-3.8125,-44.0625,-0.2192383,-0.1499023,0.08251953,0.2128906,0.1674805,-0.1645508
2122,7.6875,-3.4375,-39.5625,-0.1962891,-0.2084961,0.07910156,0.2070313,0.1713867,-0.1660156
2126,5.8125,-3.5,-31.5,-0.2270508,-0.2431641,0.07519531,0.2070313,0.1713867,-0.1674805
2130,5.4375,-7.25,-21,-0.2426758,-0.2783203,0.09814453,0.2045898,0.1738281,-0.168457
2134,6.5625,-11.5625,-13.375,-0.2231445,-0.2978516,0.105957,0.2021484,0.1748047,-0.168457
2138,5.25,-15.25,-4.875,-0.2231445,-0.3056641,0.07910156,0.1987305,0.1748047,-0.1699219
2142,6.0625,-17.625,3.9375,-0.2119141,-0.324707,0.06738281,0.2011719,0.1738281,-0.1713867
2146,2.375,-14.8125,9.4375,-0.2001953,-0.3173828,0.05957031,0.199707,0.1723633,-0.1728516
2150,-5.375,-8.3125,13.8125,-0.1845703,-0.3173828,0.03662109,0.2011719,0.1738281,-0.1713867
2154,-10.9375,-0.4375,20.0625,-0.2231445,-0.355957,0.03662109,0.2011719,0.1738281,-0.1713867
2158,-11.75,6.875,29.5,-0.2734375,-0.387207,0.05566406,0.2021484,0.1713867,-0.1728516
2162,-15.125,8.3125,39.125,-0.378418,-0.3833008,0.04785156,0.2070313,0.1699219,-0.1713867
2166,-15.875,7,47.375,-0.4091797,-0.4570313,0.06738281,0.2070313,0.1689453,-0.1699219
2170,-11.375,3.4375,51.3125,-0.4555664,-0.4921875,0.06347656,0.2104492,0.1660156,-0.1660156
2174,-6,-1.8125,51.25,-0.4790039,-0.4804688,0.06738281,0.2128906,0.1625977,-0.1674805
2178,-2.8125,-8.5625,51.125,-0.4711914,-0.4492188,0.03662109,0.2177734,0.1601563,-0.1674805
2183,-2.4375,-7,52.3125,-0.4326172,-0.4067383,0.02099609,0.2202148,0.1577148,-0.168457
2187,-3.5,-8.0625,53.4375,-0.4594727,-0.3598633,0.02880859,0.222168,0.1538086,-0.1674805
2191,0.625,-12.3125,57.125,-0.4594727,-0.3364258,0.04052734,0.2260742,0.1499023,-0.168457
2195,6.3125,-16.125,65.4375,-0.4365234,-0.2861328,0.04052734,0.2285156,0.1450195,-0.1699219
2199,7.5625,-16.6875,74.75,-0.4443359,-0.2124023,0.02099609,0.230957,0.1386719,-0.1713867
2203,5.0625,-14.625,83.6875,-0.4555664,-0.1889648,-0.001464844,0.234375,0.1362305,-0.1713867
2207,3,-9.5,89.8125,-0.4790039,-0.2084961,0.005859375,0.2392578,0.1298828,-0.175293
2211,0,-1.875,92.6875,-0.4868164,-0.1420898,-0.001464844,0.2451172,0.1210938,-0.175293
2215,-7.125,9.5,96,-0.5371094,-0.1308594,0.009765625,0.2460938,0.1162109,-0.1738281
2219,-11.1875,16,99.5625,-0.6611328,-0.1152344,0.02880859,0.2509766,0.1074219,-0.1728516
2223,-13.5625,14.375,105.1875,-0.7734375,-0.1230469,-0.009277344,0.2558594,0.1000977,-0.1713867
2227,-16.25,15.8125,114.4375,-0.796875,-0.1577148,-0.03222656,0.2617188,0.09375,-0.168457
2231,-21.625,22,117.125,-0.8588867,-0.1889648,-0.07080078,0.2675781,0.08496094,-0.168457
2235,-25,27.6875,115.5,-0.9711914,-0.2744141,-0.05908203,0.2724609,0.07617188,-0.1660156
2239,-17.8125,22.0625,110.375,-1.071777,-0.3095703,-0.03613281,0.2773438,0.07128906,-0.1616211
2243,-4.6875,13.125,108.0625,-1.099121,-0.3056641,0.009765625,0.2807617,0.06005859,-0.1616211
2247,3.75,7.375,109.6875,-1.095215,-0.1889648,0.01367188,0.2866211,0.04980469,-0.1591797
2251,4.0625,3.0625,111.625,-1.099121,-0.1308594,0.01367188,0.2890625,0.04248047,-0.1606445
2255,3.75,0.6875,111.9375,-1.071777,-0.09570313,0.001953125,0.2924805,0.03271484,-0.1606445
2259,4.5,1.0625,111.1875,-1.033203,-0.08007813,-0.01660156,0.2939453,0.02148438,-0.1606445
2263,6.25,6.375,112.4375,-1.037109,-0.01416016,0.005859375,0.2963867,0.01269531,-0.1616211
2267,6.625,7.8125,111.75,-1.075684,0.05908203,0.02099609,0.2998047,0.001464844,-0.1606445
2271,5.9375,8.0625,114.625,-1.091309,0.1333008,0.04785156,0.3007813,-0.009277344,-0.1591797
2275,-0.8125,12.1875,119.5625,-1.106934,0.1914063,0.02490234,0.3007813,-0.01953125,-0.1577148
2279,-8,13.8125,118.4375,-1.137695,0.1992188,0.02490234,0.3022461,-0.02929688,-0.1577148
2283,-8.4375,13.6875,117.1875,-1.149414,0.1953125,-0.01660156,0.3046875,-0.04052734,-0.15625
2287,-5.8125,13.3125,117.75,-1.12207,0.2299805,-0.03222656,0.3046875,-0.04931641,-0.1538086
2291,-5.5,15.75,120.5625,-1.125977,0.284668,-0.06298828,0.3081055,-0.05957031,-0.1523438
2295,-5.0625,15.6875,121.375,-1.149414,0.315918,-0.08984375,0.3056641,-0.07324219,-0.1523438
2299,1.625,12,122.8125,-1.145508,0.3041992,-0.1166992,0.3056641,-0.07958984,-0.1508789
2303,17.875,5.5,128.6875,-1.157227,0.2924805,-0.1630859,0.3046875,-0.09423828,-0.1494141
2307,38.9375,0.75,131.375,-1.145508,0.3271484,-0.1708984,0.3022461,-0.1069336,-0.1484375
2312,50.875,-4.375,129.375,-1.15332,0.4672852,-0.1899414,0.3046875,-0.1196289,-0.1469727
2316,51.625,-8.8125,125.625,-1.075684,0.6030273,-0.2055664,0.2983398,-0.1318359,-0.1484375
2320,45.875,1.3125,120.75,-0.9326172,0.6811523,-0.2324219,0.2949219,-0.1455078,-0.1494141
2324,34.5625,23.8125,120.3125,-0.8818359,0.7509766,-0.2363281,0.2939453,-0.1557617,-0.1469727
2328,18.375,49.1875,125.1875,-0.9287109,0.7973633,-0.1938477,0.2890625,-0.1679688,-0.1425781
2332,-0.0625,70.75,134.9375,-1.013672,0.7895508,-0.1401367,0.2856445,-0.1791992,-0.1386719
2336,-22.375,87.5625,139.1875,-1.195801,0.7666016,-0.07080078,0.2841797,-0.1879883,-0.1318359
2340,-47.3125,94.4375,133.0625,-1.374023,0.6577148,-0.009277344,0.2807617,-0.1992188,-0.1264648
2344,-59.9375,87,128.5625,-1.599121,0.5253906,0.03271484,0.2773438,-0.2094727,-0.1210938
2348,-60.0625,67.875,128.875,-1.719238,0.4086914,0.03662109,0.2749023,-0.2143555,-0.1181641
2352,-55.75,52.125,129.8125,-1.75,0.3662109,0.03271484,0.269043,-0.2231445,-0.1166992
2356,-60.5625,43.1875,128.875,-1.730469,0.4086914,0.04785156,0.2651367,-0.2329102,-0.1157227
2360,-80.5,42.4375,128.8125,-1.695801,0.4282227,0.03271484,0.2592773,-0.2392578,-0.1157227
2364,-116.375,49.375,124.875,-1.753906,0.4360352,-0.01318359,0.253418,-0.2470703,-0.1166992
2368,-166.875,51.75,119.125,-1.939941,0.3120117,-0.09375,0.2475586,-0.2529297,-0.1196289
2372,-172.8125,40.625,134.3125,-2.428223,-0.7250977,-0.1669922,0.2436523,-0.2543945,-0.1235352
2376,-31.625,-43.0625,77.625,-2.67627,-1.929688,0.1635742,0.2353516,-0.2631836,-0.1318359
2380,12.8125,-62.875,-71.875,-1.839355,-0.5151367,-0.5092773,0.2329102,-0.2631836,-0.1357422
2384,-28.625,-27.9375,-76.125,-1.668457,-0.1694336,-0.4248047,0.234375,-0.2592773,-0.1401367
2388,5.75,-26.5625,-43.875,-1.54834,-0.3134766,-0.3359375,0.2402344,-0.2519531,-0.1401367
2392,39.3125,-20.25,-26.875,-1.498047,-0.1499023,-0.2861328,0.2392578,-0.2504883,-0.1455078
2396,38.3125,-9.375,-58.4375,-1.637695,0.08642578,-0.1743164,0.2436523,-0.2480469,-0.1425781
2400,22.6875,-17.625,-93.4375,-1.711426,0.1835938,-0.128418,0.2460938,-0.2470703,-0.1416016
2404,17.125,-28.25,-124.375,-1.672363,0.1875,-0.1474609,0.2509766,-0.2382813,-0.1425781
2408,28.375,-32.75,-140,-1.62207,0.2148438,-0.1977539,0.253418,-0.2304688,-0.1386719
2412,47.1875,-36.3125,-145.9375,-1.541016,0.3505859,-0.2016602,0.2602539,-0.2207031,-0.1425781
2416,49,-33.5,-145.3125,-1.413086,0.5449219,-0.1977539,0.2675781,-0.2094727,-0.1455078
2420,33.9375,-23.75,-141.0625,-1.351074,0.6069336,-0.2055664,0.2700195,-0.203125,-0.144043
2424,22.9375,-15.25,-145.4375,-1.401367,0.4790039,-0.1401367,0.2773438,-0.1918945,-0.1469727
2428,25.375,-17.75,-154.1875,-1.517578,0.4013672,-0.07080078,0.2817383,-0.1821289,-0.1469727
2432,32.8125,-30.6875,-164.9375,-1.544922,0.3974609,-0.03613281,0.2866211,-0.1694336,-0.1455078
2436,38.5,-40.875,-170.75,-1.428223,0.4321289,-0.04736328,0.2890625,-0.1582031,-0.1469727
2441,39.3125,-38.125,-170.75,-1.343262,0.4555664,-0.06298828,0.2915039,-0.1420898,-0.1508789
2445,38.875,-33.75,-171.8125,-1.289063,0.4711914,-0.03613281,0.2963867,-0.1318359,-0.1523438
2449,39.375,-29.1875,-169.625,-1.25,0.4750977,-0.02832031,0.2983398,-0.1166992,-0.1538086
2453,39.375,-21.5625,-166.1875,-1.203613,0.4790039,-0.001464844,0.2998047,-0.1030273,-0.1547852
2457,30.3125,-13.5625,-164.1875,-1.265625,0.5097656,0.01708984,0.3007813,-0.09326172,-0.1577148
2461,27.25,-15,-164.4375,-1.335449,0.3779297,0.05175781,0.3022461,-0.078125,-0.1591797
2465,34.625,-20.6875,-167.0625,-1.319824,0.3623047,0.06347656,0.3046875,-0.06298828,-0.1577148
2469,33.8125,-22.4375,-165.75,-1.23877,0.3701172,0.04785156,0.3032227,-0.05078125,-0.1606445
2473,30.4375,-16.6875,-162.375,-1.15332,0.3544922,0.05175781,0.3022461,-0.03710938,-0.1630859
2477,25.3125,-10.4375,-155.8125,-1.133789,0.3232422,0.07128906,0.2998047,-0.02441406,-0.1645508
2481,23.8125,-8.6875,-151.875,-1.133789,0.269043,0.08642578,0.2949219,-0.01318359,-0.1645508
2485,19,-7.875,-148.6875,-1.157227,0.2807617,0.1171875,0.2963867,0.001464844,-0.1660156
2489,10.25,-8.1875,-146.1875,-1.15332,0.2265625,0.1557617,0.2924805,0.01513672,-0.1660156
2493,7.3125,-11.25,-141.625,-1.157227,0.1137695,0.1787109,0.2924805,0.02490234,-0.1645508
2497,7.625,-16.1875,-137.6875,-1.172852,0.06298828,0.1674805,0.2866211,0.03759766,-0.1674805
2501,9.0625,-21.1875,-139.125,-1.118652,-0.006347656,0.1328125,0.2792969,0.04980469,-0.1699219
2505,11.4375,-24,-142.25,-1.029297,-0.03369141,0.07910156,0.2783203,0.05859375,-0.1728516
2509,13.875,-22.4375,-144.3125,-0.9208984,-0.04541016,0.03662109,0.2700195,0.07128906,-0.1738281
2513,14.375,-19.3125,-139.5625,-0.8354492,0.0009765625,0.02880859,0.2626953,0.08398438,-0.175293
2517,13.0625,-14,-129.6875,-0.7387695,-0.01025391,0.01367188,0.2602539,0.09130859,-0.1767578
2521,15.9375,-10.6875,-122.8125,-0.6884766,-0.04882813,0.02490234,0.253418,0.1000977,-0.1796875
2525,18.625,-11.5625,-116.5,-0.6689453,-0.02587891,0.05175781,0.2475586,0.1098633,-0.1806641
2529,18.1875,-15.5625,-111.4375,-0.6342773,-0.02978516,0.1098633,0.2426758,0.1137695,-0.1821289
2533,21.75,-23.875,-104,-0.5952148,-0.05273438,0.144043,0.2368164,0.1235352,-0.1835938
2537,28.375,-33.875,-91.75,-0.4985352,-0.03369141,0.159668,0.2285156,0.1289063,-0.1875
2541,31.875,-42.125,-75.5625,-0.4052734,-0.002441406,0.144043,0.2236328,0.1337891,-0.1904297
2545,31.625,-48.375,-60.6875,-0.3046875,0.0009765625,0.105957,0.21875,0.1362305,-0.1943359
2549,23.0625,-44.9375,-47.375,-0.2231445,0.01660156,0.1020508,0.2128906,0.1376953,-0.199707
2553,9.875,-38.8125,-38.625,-0.1806641,-0.04541016,0.09033203,0.2094727,0.1411133,-0.2011719
2557,3.25,-32.0625,-30.6875,-0.1499023,-0.1499023,0.1132813,0.2045898,0.1425781,-0.2041016
2561,1.625,-27.0625,-24.3125,-0.1728516,-0.1655273,0.125,0.203125,0.1435547,-0.206543
2565,-5.4375,-21.1875,-18.8125,-0.1533203,-0.1889648,0.1098633,0.2021484,0.1450195,-0.206543
2570,-12.1875,-15.75,-12.0625,-0.2001953,-0.2314453,0.1098633,0.199707,0.1459961,-0.2080078
2574,-11.875,-15.5,-3.75,-0.2192383,-0.3442383,0.1132813,0.1962891,0.1459961,-0.2080078
2578,-8.4375,-13.875,5.1875,-0.2192383,-0.3950195,0.06347656,0.1948242,0.1489258,-0.2094727
2582,-7.0625,-8,10.75,-0.2387695,-0.4414063,0.05175781,0.1962891,0.1489258,-0.2094727
2586,-6.375,-3,11.625,-0.2734375,-0.4609375,0.06738281,0.1948242,0.1474609,-0.2094727
2590,-5.8125,1,12.875,-0.296875,-0.453125,0.09033203,0.1962891,0.1474609,-0.2080078
2594,-7.75,4.4375,17.8125,-0.3046875,-0.4453125,0.07128906,0.1972656,0.1489258,-0.2094727
2598,-8.75,8.125,21.375,-0.3046875,-0.453125,0.06347656,0.199707,0.1459961,-0.2080078
2602,-6.375,10.4375,26.375,-0.3242188,-0.4570313,0.04785156,0.199707,0.1450195,-0.206543
2606,-2.5,9.625,33.3125,-0.362793,-0.4375,0.04443359,0.2021484,0.1435547,-0.206543
2610,2.5625,9.6875,39.4375,-0.328125,-0.4335938,0.03662109,0.2021484,0.1411133,-0.206543
2614,7.8125,11.0625,43,-0.3046875,-0.3754883,0.05566406,0.2080078,0.1401367,-0.2055664
2618,10.75,12.4375,49.0625,-0.3203125,-0.2900391,0.07128906,0.2094727,0.1362305,-0.206543
2622,14.1875,9.1875,59.625,-0.3510742,-0.3017578,0.1132813,0.2128906,0.1313477,-0.2055664
2626,22.75,1.1875,68.5,-0.3007813,-0.1420898,0.1171875,0.2177734,0.1274414,-0.2026367
2630,28.9375,-4.625,81.0625,-0.3085938,-0.09570313,0.105957,0.2202148,0.1225586,-0.206543
2634,28.375,-4.375,91.625,-0.3007813,-0.006347656,0.105957,0.2236328,0.1137695,-0.2094727
2638,14.5625,2.25,97.625,-0.3046875,0.04736328,0.1132813,0.2285156,0.1074219,-0.2109375
2642,1.8125,9.5625,100.8125,-0.3666992,0.04003906,0.144043,0.2319336,0.1000977,-0.2119141
2646,-7.0625,14.5625,108.375,-0.5102539,0.04736328,0.159668,0.237793,0.09228516,-0.2080078
2650,-14.4375,13.8125,111.875,-0.5874023,0.03613281,0.159668,0.2426758,0.08496094,-0.2094727
2654,-15.6875,10.6875,116.75,-0.7036133,-0.01025391,0.1518555,0.2475586,0.07763672,-0.206543
2658,-8.75,0.3125,121.625,-0.7890625,-0.02197266,0.1289063,0.2519531,0.06884766,-0.206543
2662,-3.25,-6.8125,125.625,-0.8276367,0.008789063,0.105957,0.2543945,0.06103516,-0.2055664
2666,-3.25,-6.0625,131.125,-0.878418,-0.002441406,0.09814453,0.2592773,0.05126953,-0.206543
2670,0.125,-8.875,127,-0.9750977,-0.01416016,0.1132813,0.2617188,0.04003906,-0.206543
2674,8.8125,-16.1875,124.8125,-1.017578,0.01269531,0.1020508,0.2651367,0.03271484,-0.2055664
2678,20.375,-24.75,125.125,-1.017578,0.06298828,0.105957,0.2666016,0.02001953,-0.2080078
2682,27.875,-26.25,129,-0.9711914,0.1176758,0.08251953,0.2675781,0.01025391,-0.2119141
2686,34.1875,-22,131.125,-0.9130859,0.1293945,0.05957031,0.2724609,0.001464844,-0.2148438
2690,39.8125,-7.125,131.375,-0.8549805,0.1992188,0.02490234,0.2700195,-0.015625,-0.2148438
2694,37.8125,13.75,129.3125,-0.8666992,0.3310547,0.009765625,0.2709961,-0.02832031,-0.2133789
2699,32.0625,33.375,128.625,-0.9287109,0.4204102,0.05175781,0.2734375,-0.03710938,-0.2148438
2703,23,47.75,131.0625,-1.037109,0.5292969,0.09423828,0.2773438,-0.05175781,-0.2133789
2707,1,62.8125,132.125,-1.071777,0.6069336,0.07910156,0.2792969,-0.06445313,-0.2080078
2711,-21.1875,80.875,136,-1.168945,0.5292969,0.08642578,0.2807617,-0.07324219,-0.2026367
2715,-27.1875,91.0625,135.5625,-1.285156,0.3974609,0.07910156,0.2856445,-0.08447266,-0.1958008
2719,-20.9375,86.375,138.1875,-1.475098,0.3662109,0.08642578,0.2890625,-0.09716797,-0.1875
2723,-3.4375,60.9375,145.625,-1.65332,0.284668,0.09423828,0.2866211,-0.1030273,-0.1835938
2727,27.75,20,152.4375,-1.70752,0.2226563,0.08642578,0.2890625,-0.1181641,-0.1796875
2731,60.5,-12.75,152.4375,-1.556152,0.2456055,0.04052734,0.2841797,-0.1342773,-0.1782227
2735,79.3125,-23.25,145.0625,-1.296875,0.3974609,-0.03613281,0.2817383,-0.1455078,-0.1782227
2739,74.3125,-2,127.875,-1.095215,0.5839844,-0.07861328,0.2758789,-0.1645508,-0.175293
2743,51.1875,36.0625,112,-1.037109,0.7001953,-0.06689453,0.2700195,-0.1782227,-0.1728516
2747,23.75,68.6875,104.6875,-1.133789,0.7705078,-0.04736328,0.2700195,-0.1855469,-0.1699219
2751,-2.0625,91.3125,106.3125,-1.25,0.7353516,-0.02050781,0.269043,-0.1943359,-0.1630859
2755,-24.5,103.6875,109.375,-1.351074,0.6772461,-0.02832031,0.2675781,-0.2016602,-0.1547852
2759,-43.75,123.4375,104.375,-1.347168,0.5332031,-0.07470703,0.2675781,-0.2104492,-0.1494141
2763,-64.8125,143.6875,90.75,-1.486328,0.4829102,-0.07470703,0.2666016,-0.2158203,-0.1425781
2767,-93.8125,145.125,80.75,-1.699707,0.4125977,-0.05908203,0.2675781,-0.2192383,-0.1357422
2771,-113.8125,131.75,81.5,-1.847168,0.1992188,-0.009277344,0.2675781,-0.2216797,-0.1289063
2775,-120.8125,110,92.375,-2.032715,-0.06054688,0.009765625,0.2666016,-0.2246094,-0.1235352
2779,-114.625,69.625,97.5625,-2.25,-0.3911133,0.03271484,0.2641602,-0.2294922,-0.1225586
2783,-88.1875,20.0625,81.1875,-2.280762,-0.7250977,0.05957031,0.2602539,-0.2319336,-0.125
2787,-54.75,-30.3125,51.4375,-2.234375,-0.7368164,0.06347656,0.2558594,-0.2358398,-0.1264648
2791,-29.25,-63.1875,21.9375,-1.932129,-0.7172852,-0.03222656,0.253418,-0.2382813,-0.1318359
2795,-1.1875,-53.9375,-3.9375,-1.672363,-0.7172852,-0.112793,0.2509766,-0.2368164,-0.137207
2799,12.1875,-35.5,-31.3125,-1.680176,-0.5620117,-0.1552734,0.2509766,-0.2382813,-0.1386719
2803,12.625,-26.375,-60.375,-1.680176,-0.4414063,-0.1323242,0.2509766,-0.2329102,-0.1425781
2807,13.75,-19.3125,-81.1875,-1.742188,-0.3637695,-0.0859375,0.2543945,-0.2294922,-0.144043
2811,17.75,-20.0625,-97.6875,-1.812012,-0.3095703,-0.04394531,0.2583008,-0.2231445,-0.1416016
2815,30.75,-23.25,-109.1875,-1.866211,-0.2822266,-0.01318359,0.2617188,-0.2167969,-0.144043
2819,46.4375,-27.9375,-124.9375,-1.885742,-0.2241211,-0.01660156,0.2666016,-0.2128906,-0.1416016
2823,58.8125,-37.25,-144.3125,-1.908691,-0.09960938,-0.03222656,0.2709961,-0.2016602,-0.1455078
2828,67.6875,-45.9375,-158.4375,-1.850586,0.04003906,-0.02832031,0.2758789,-0.1918945,-0.1469727
2832,68.8125,-49.625,-166.4375,-1.82373,0.1757813,-0.03222656,0.2792969,-0.1845703,-0.1469727
2836,66.25,-50.5625,-173.875,-1.75,0.2651367,-0.04736328,0.2817383,-0.171875,-0.1494141
2840,59.9375,-46.8125,-179.75,-1.746094,0.3193359,-0.03222656,0.2890625,-0.1567383,-0.1523438
2844,49.6875,-44.75,-182.5625,-1.711426,0.3740234,-0.02441406,0.2890625,-0.1479492,-0.1508789
2848,44.25,-44.625,-186.0625,-1.695801,0.3427734,-0.04003906,0.2924805,-0.1333008,-0.1547852
2852,47.6875,-47.3125,-192,-1.680176,0.3349609,-0.02832031,0.2963867,-0.1157227,-0.1591797
2856,49.625,-49.3125,-194.0625,-1.637695,0.4052734,-0.04736328,0.2963867,-0.1054688,-0.1616211
2860,47.8125,-48.5,-193.9375,-1.552246,0.4633789,-0.04736328,0.2973633,-0.08691406,-0.1660156
2864,44.125,-46.8125,-192.8125,-1.486328,0.5097656,-0.04736328,0.2973633,-0.07177734,-0.1674805
2868,35.875,-45.375,-190,-1.401367,0.5253906,-0.03613281,0.2973633,-0.05957031,-0.1728516
2872,27.625,-39.9375,-185.375,-1.312012,0.4907227,-0.02050781,0.2949219,-0.04443359,-0.175293
2876,21.5,-32.5625,-182.4375,-1.242188,0.4594727,-0.005371094,0.2915039,-0.02441406,-0.1796875
2880,19.3125,-29.3125,-176.9375,-1.242188,0.4165039,0.04443359,0.2890625,-0.01464844,-0.1796875
2884,22.5625,-32.9375,-166.375,-1.191895,0.3779297,0.06347656,0.2841797,0.001464844,-0.1835938
2888,21.125,-34.5,-158.3125,-1.106934,0.3818359,0.05175781,0.2817383,0.01513672,-0.1875
2892,11.625,-30.75,-153.8125,-1.001953,0.3779297,0.06347656,0.2783203,0.02490234,-0.1889648
2896,-2.5625,-21.1875,-149.375,-0.9326172,0.3505859,0.06738281,0.2734375,0.03613281,-0.1918945
2900,-15.25,-13.25,-141.8125,-0.9365234,0.2573242,0.09033203,0.2675781,0.05126953,-0.1943359
2904,-17.4375,-11.9375,-133.4375,-0.9052734,0.1484375,0.1098633,0.2626953,0.05859375,-0.1958008
2908,-21.9375,-10.5625,-122.625,-0.8935547,0.1098633,0.1171875,0.2602539,0.07373047,-0.1958008
2912,-31.25,-6.625,-118.8125,-0.8354492,0.004882813,0.08251953,0.2509766,0.08496094,-0.1958008
2916,-36.5625,-2.625,-116.8125,-0.8007813,-0.1113281,0.08251953,0.2485352,0.09130859,-0.1928711
2920,-39.375,2.8125,-109.625,-0.7890625,-0.1733398,0.06347656,0.2426758,0.1025391,-0.1918945
2924,-36.875,6,-104.8125,-0.7773438,-0.2431641,0.05957031,0.2392578,0.1137695,-0.1889648
2928,-29.75,3,-105,-0.7231445,-0.2861328,0.03271484,0.2329102,0.1210938,-0.1875
2932,-19.625,2.125,-102.4375,-0.6689453,-0.2744141,0.01708984,0.2285156,0.1323242,-0.1850586
2936,-6.875,0.375,-95.625,-0.5874023,-0.2353516,0.04052734,0.222168,0.1386719,-0.1865234
2940,0.4375,-0.625,-85.375,-0.4711914,-0.1269531,0.06738281,0.2211914,0.1435547,-0.1835938
2944,-3,6,-72.3125,-0.3588867,-0.1074219,0.09814453,0.2138672,0.1499023,-0.1835938
2948,-9.1875,10.8125,-63.375,-0.2929688,-0.03369141,0.1210938,0.2094727,0.1538086,-0.1835938
2952,-10,12.8125,-59.5,-0.230957,-0.09960938,0.1479492,0.2094727,0.15625,-0.1821289
2957,-12.4375,16.1875,-58.625,-0.1728516,-0.1152344,0.1328125,0.2055664,0.1611328,-0.1821289
2961,-17.9375,27.5625,-63.0625,-0.1381836,-0.1928711,0.1367188,0.203125,0.1674805,-0.1782227
2965,-20.1875,32,-57.5,-0.2080078,-0.2124023,0.1865234,0.2011719,0.1723633,-0.1782227
2969,-13.75,21.5,-43.5625,-0.3125,-0.2978516,0.2211914,0.1987305,0.1748047,-0.1728516
2973,2.3125,2.5625,-23.0625,-0.296875,-0.3598633,0.1826172,0.1962891,0.1772461,-0.1713867
2977,10.375,-4.1875,-7.5,-0.2270508,-0.2744141,0.1367188,0.1962891,0.1762695,-0.1738281
2981,2.375,-7.3125,-2,-0.1962891,-0.2666016,0.125,0.1928711,0.1772461,-0.1728516
2985,-4.375,-8.4375,1.9375,-0.2119141,-0.2978516,0.1367188,0.1914063,0.1787109,-0.1738281
2989,-8.9375,-11.5625,9.25,-0.2192383,-0.3364258,0.105957,0.1938477,0.1772461,-0.1738281
2993,-10.3125,-12.375,19.125,-0.1923828,-0.3989258,0.06347656,0.1928711,0.1772461,-0.1738281
2997,-10.1875,-8.25,25.75,-0.1923828,-0.4726563,0.03271484,0.1938477,0.1772461,-0.1738281
3001,-12.125,-3,30.4375,-0.2231445,-0.5,0.01708984,0.1962891,0.1762695,-0.1728516
3005,-12.3125,3.0625,31.5625,-0.2543945,-0.5229492,0.04052734,0.1972656,0.1738281,-0.1728516
3009,-14.25,5.5,33.3125,-0.3510742,-0.4648438,0.05566406,0.1987305,0.1723633,-0.1713867
3013,-19.0625,0.625,37.0625,-0.4404297,-0.503418,0.05957031,0.203125,0.1723633,-0.1738281
3017,-17.1875,-5,39.625,-0.4326172,-0.5737305,0.02880859,0.2055664,0.1699219,-0.1699219
3021,-13.5,-7.4375,42.5,-0.4672852,-0.5581055,-0.005371094,0.2070313,0.1674805,-0.1699219
3025,-12.9375,-8.9375,46.9375,-0.4633789,-0.5854492,-0.01660156,0.2094727,0.1674805,-0.168457
3029,-9.3125,-4.25,48.6875,-0.4555664,-0.5893555,-0.01660156,0.2104492,0.1635742,-0.1699219
3033,-8.1875,-1.6875,50.875,-0.5102539,-0.5424805,0.005859375,0.2163086,0.1625977,-0.168457
3037,-3.6875,-5,54.75,-0.5292969,-0.5151367,0.03271484,0.2163086,0.1586914,-0.1713867
3041,3,-7.5,59.9375,-0.4946289,-0.453125,0.02880859,0.2211914,0.1538086,-0.1713867
3045,2.9375,-3.1875,67.0625,-0.4482422,-0.3833008,0.001953125,0.2260742,0.1513672,-0.1699219
3049,-4.0625,7.4375,71.3125,-0.4790039,-0.340332,0.01708984,0.2270508,0.1450195,-0.1699219
3053,-12,13.4375,73.875,-0.5566406,-0.355957,0.04785156,0.2319336,0.1401367,-0.168457
3057,-11.9375,10.5625,76.5,-0.6611328,-0.3911133,0.05957031,0.2368164,0.1337891,-0.1660156
3061,-6.5625,0.4375,78.6875,-0.6767578,-0.4179688,0.06347656,0.2402344,0.1313477,-0.1660156
3065,-7.0625,-1.6875,78.625,-0.6416016,-0.4179688,-0.01318359,0.2436523,0.1264648,-0.1660156
3069,-7.4375,4.0625,77.125,-0.6572266,-0.4257813,-0.02832031,0.2485352,0.1186523,-0.1674805
3073,-7.3125,7.6875,77.125,-0.7192383,-0.402832,-0.01660156,0.253418,0.1162109,-0.1660156
3077,-6.0625,7.1875,80.25,-0.7851563,-0.371582,0.001953125,0.2558594,0.1074219,-0.1645508
3081,-5.875,6.875,84.4375,-0.796875,-0.387207,0.001953125,0.2592773,0.1025391,-0.1645508
3086,-7,6.6875,82.125,-0.8276367,-0.3520508,-0.01660156,0.2641602,0.09765625,-0.1630859
3090,-9.75,10.75,80.75,-0.8198242,-0.402832,-0.03613281,0.269043,0.08984375,-0.1630859
3094,-6.3125,14.9375,80.375,-0.8896484,-0.3833008,-0.02441406,0.2709961,0.08496094,-0.1616211
3098,-2.1875,11.5625,80,-0.9477539,-0.340332,0.01367188,0.2734375,0.07861328,-0.1591797
3102,3.6875,4.3125,81.375,-0.9750977,-0.2822266,0.04785156,0.2773438,0.07275391,-0.1591797
3106,9.375,-3.0625,82.375,-0.9672852,-0.2241211,0.06347656,0.2792969,0.06494141,-0.1606445
3110,10.1875,-6.25,82.0625,-0.9248047,-0.1269531,0.07128906,0.2832031,0.05859375,-0.1591797
3114,7.375,-7.75,79.5,-0.8935547,-0.04882813,0.05566406,0.2856445,0.05126953,-0.1616211
3118,5.25,-6.3125,81.4375,-0.8666992,-0.006347656,0.04785156,0.2866211,0.04248047,-0.1630859
3122,5.5625,-6.5625,86.6875,-0.8706055,0.02832031,0.03271484,0.2880859,0.03759766,-0.1645508
3126,10.125,-11.5625,92.9375,-0.8896484,0.05908203,-0.005371094,0.2900391,0.02880859,-0.1616211
3130,17.625,-14.875,99.25,-0.8198242,0.08251953,-0.02441406,0.2924805,0.01757813,-0.1660156
3134,16.5,-5.1875,106.8125,-0.7617188,0.2226563,-0.06298828,0.2939453,0.01269531,-0.1645508
3138,1.9375,14.6875,109.375,-0.746582,0.4282227,0.001953125,0.2949219,0,-0.1645508
3142,-25.875,38.0625,121.6875,-0.847168,0.3081055,-0.01660156,0.2973633,-0.01074219,-0.1645508
3146,-37.875,45,123.8125,-1.067871,0.171875,0.01367188,0.3007813,-0.01708984,-0.1591797
3150,-30.5625,33.5,123.875,-1.180664,0.08251953,0.03271484,0.3056641,-0.02929688,-0.15625
3154,-15.625,20.0625,122.75,-1.172852,0.1020508,0.03271484,0.3056641,-0.04199219,-0.1547852
3158,-9.3125,13.75,121.75,-1.145508,0.1914063,0.001953125,0.3071289,-0.04833984,-0.1523438
3162,-8.5625,12.1875,119.375,-1.129883,0.2265625,-0.01318359,0.3081055,-0.06201172,-0.1494141
3166,-8.375,13.4375,120.5,-1.161133,0.269043,-0.009277344,0.3081055,-0.07177734,-0.1494141
3170,-6.875,9.75,119.9375,-1.180664,0.2885742,-0.009277344,0.3056641,-0.07958984,-0.1494141
3174,-0.25,2.8125,124.1875,-1.20752,0.2729492,-0.005371094,0.3056641,-0.09179688,-0.1484375
3178,10.3125,-4.6875,127.6875,-1.191895,0.2573242,-0.02050781,0.3032227,-0.1044922,-0.1484375
3182,18.75,-4.0625,121.8125,-1.099121,0.315918,-0.06298828,0.3007813,-0.1132813,-0.1494141
3186,16.1875,7.3125,112.8125,-1.075684,0.4399414,-0.09375,0.2983398,-0.1269531,-0.1469727
3190,5.375,22.6875,107.9375,-1.099121,0.5410156,-0.09765625,0.2963867,-0.1381836,-0.1484375
3194,-6.5625,33.5,108.9375,-1.149414,0.5644531,-0.09765625,0.2963867,-0.1455078,-0.144043
3198,-13.5,40.375,113.625,-1.195801,0.5566406,-0.1206055,0.2924805,-0.1542969,-0.1425781
3202,-16.5625,43.9375,118.5,-1.203613,0.5136719,-0.1474609,0.2900391,-0.1655273,-0.1386719
3206,-17.1875,52.5625,118.25,-1.187988,0.4672852,-0.1743164,0.2890625,-0.1733398,-0.1357422
3210,-20.9375,61.0625,115.1875,-1.265625,0.4204102,-0.1743164,0.2856445,-0.1821289,-0.1318359
3215,-23.4375,62,108.1875,-1.339355,0.3818359,-0.1513672,0.2817383,-0.1904297,-0.1279297
3219,-26,57.0625,99.125,-1.370117,0.3857422,-0.1513672,0.2807617,-0.1982422,-0.125
3223,-28.8125,52.5625,92.5625,-1.366211,0.3583984,-0.128418,0.2783203,-0.2070313,-0.1235352
3227,-27.0625,52.0625,90.375,-1.351074,0.3388672,-0.1513672,0.2758789,-0.2119141,-0.1210938
3231,-30.375,54.0625,89.3125,-1.358887,0.3583984,-0.1474609,0.2724609,-0.2158203,-0.1166992
3235,-38.375,56.0625,86.4375,-1.397461,0.3427734,-0.1362305,0.2709961,-0.2231445,-0.1142578
3239,-48.1875,53.5625,80.5625,-1.455566,0.3271484,-0.1362305,0.2666016,-0.2304688,-0.1113281
3243,-59.125,47.6875,73.25,-1.501953,0.2729492,-0.109375,0.2641602,-0.2319336,-0.1088867
3247,-63.6875,35.8125,68.625,-1.541016,0.1835938,-0.1015625,0.2602539,-0.2382813,-0.1074219
3251,-63.1875,26,62.9375,-1.501953,0.06298828,-0.1821289,0.2583008,-0.2416992,-0.1088867
3255,-53.5,21.9375,62.6875,-1.67627,-0.2587891,-0.1821289,0.2568359,-0.2431641,-0.1098633
3259,-2.4375,-27.625,48.125,-2.358398,-1.222656,0.02490234,0.2509766,-0.2470703,-0.1098633
3263,41.8125,-71.375,-2.625,-1.665039,-0.3989258,-0.1860352,0.2460938,-0.2519531,-0.1142578
3267,15.5625,-43.4375,-32.0625,-1.211426,0.06689453,-0.2592773,0.2475586,-0.2495117,-0.112793
3271,-11.6875,-11.6875,-49.4375,-1.041016,0.1679688,-0.2822266,0.2485352,-0.2470703,-0.1166992
3275,-14.6875,4.75,-45.625,-1.165039,0.1875,-0.2055664,0.2519531,-0.2441406,-0.1166992
3279,-7.125,10.6875,-26.9375,-1.230957,0.1601563,-0.1435547,0.253418,-0.2416992,-0.1196289
3283,-2.25,10,-29.0625,-1.45166,0.1020508,-0.109375,0.2568359,-0.2382813,-0.1181641
3287,4.125,-7.9375,-47.625,-1.529297,0.02050781,-0.07080078,0.2592773,-0.2358398,-0.1210938
3291,20.125,-28.375,-72.625,-1.525391,-0.04150391,-0.112793,0.2602539,-0.2358398,-0.1196289
3295,38.3125,-42.9375,-90,-1.475098,0.05126953,-0.1474609,0.2641602,-0.2270508,-0.1210938
3299,48,-49.1875,-95.75,-1.393555,0.1484375,-0.1782227,0.269043,-0.2216797,-0.125
3303,51.8125,-49.75,-99.875,-1.339355,0.237793,-0.1977539,0.2700195,-0.2158203,-0.1235352
3307,48.5,-44.5,-101.6875,-1.312012,0.284668,-0.1899414,0.2749023,-0.2094727,-0.1264648
3311,45.25,-38.5,-101.75,-1.366211,0.2924805,-0.1591797,0.2773438,-0.2016602,-0.1289063
3315,42.875,-36.8125,-107.1875,-1.439941,0.2573242,-0.1323242,0.2792969,-0.1982422,-0.1303711
3319,43.375,-38.5625,-116.1875,-1.467285,0.2109375,-0.109375,0.2817383,-0.1870117,-0.1303711
3323,44.9375,-41.25,-125.75,-1.490234,0.253418,-0.08203125,0.2866211,-0.1782227,-0.1318359
3327,41.875,-43.125,-132.0625,-1.467285,0.2807617,-0.0859375,0.2880859,-0.171875,-0.1333008
3331,37.3125,-41.0625,-139.125,-1.439941,0.2885742,-0.07470703,0.2915039,-0.1591797,-0.1357422
3335,34.875,-38.25,-142.8125,-1.467285,0.2924805,-0.07470703,0.2963867,-0.1479492,-0.1386719
3339,37.5625,-42.25,-148.375,-1.486328,0.2807617,-0.07470703,0.2973633,-0.1420898,-0.1416016
3344,43.5625,-45.3125,-150.875,-1.420898,0.3081055,-0.07861328,0.2998047,-0.1269531,-0.1425781
3348,43.6875,-42.75,-152.125,-1.366211,0.4052734,-0.08203125,0.3007813,-0.1132813,-0.1469727
3352,37,-40.6875,-152.5625,-1.32373,0.4360352,-0.05517578,0.3032227,-0.1054688,-0.1494141
3356,30.6875,-37.25,-151,-1.28125,0.4204102,-0.02441406,0.3022461,-0.09082031,-0.1538086
3360,28.3125,-33.5,-145.375,-1.261719,0.3779297,-0.005371094,0.3032227,-0.07714844,-0.1547852
3364,27,-33.5,-141.6875,-1.253906,0.3505859,0.009765625,0.3022461,-0.06835938,-0.15625
3368,24.625,-33.25,-141.0625,-1.203613,0.3388672,0.01708984,0.3022461,-0.05566406,-0.1606445
3372,20.875,-29.4375,-140.375,-1.137695,0.3120117,0.02880859,0.3022461,-0.04199219,-0.1630859
3376,15.125,-26.25,-137.9375,-1.129883,0.3120117,0.05566406,0.2998047,-0.03173828,-0.1660156
3380,6.6875,-24.4375,-136.75,-1.103027,0.2729492,0.07910156,0.2963867,-0.01806641,-0.168457
3384,1.75,-25.75,-136.75,-1.091309,0.2148438,0.09423828,0.2949219,-0.008300781,-0.1713867
3388,0,-27.8125,-136.6875,-1.060547,0.203125,0.1020508,0.2939453,0.001464844,-0.1699219
3392,-4.3125,-27.3125,-132.6875,-1.021484,0.1757813,0.1098633,0.2890625,0.01513672,-0.1738281
3396,-6.1875,-26.625,-126.8125,-1.033203,0.08251953,0.1098633,0.2841797,0.02734375,-0.1738281
3400,-1.75,-31,-122.0625,-1.029297,0.03222656,0.140625,0.2807617,0.03857422,-0.1782227
3404,1.8125,-36.3125,-115.375,-1.017578,0.01660156,0.144043,0.2758789,0.04882813,-0.1806641
3408,6.25,-42.3125,-108.1875,-0.9829102,-0.06445313,0.1674805,0.2724609,0.05761719,-0.1835938
3412,16.5625,-49.5625,-102.625,-0.9516602,-0.06445313,0.1943359,0.2675781,0.06494141,-0.1865234
3416,16.5,-57.5625,-98.625,-0.9248047,-0.01806641,0.1982422,0.2602539,0.07275391,-0.1928711
3420,10,-61.625,-93.25,-0.8354492,-0.04150391,0.1787109,0.253418,0.08007813,-0.1972656
3424,-1,-56.25,-97.4375,-0.7270508,-0.1152344,0.1210938,0.25,0.08398438,-0.1987305
3428,-5.0625,-51.875,-101.5,-0.6806641,-0.1811523,0.07128906,0.2412109,0.09130859,-0.2055664
3432,-0.125,-48.8125,-99.25,-0.6186523,-0.1967773,0.02880859,0.234375,0.09863281,-0.2094727
3436,2.25,-42.375,-93.0625,-0.5024414,-0.1655273,0.01367188,0.2294922,0.1049805,-0.2094727
3440,-0.5,-34.0625,-86.4375,-0.4326172,-0.1459961,0.03662109,0.2211914,0.1123047,-0.2119141
3444,-4.6875,-25.25,-77.3125,-0.3901367,-0.1772461,0.04052734,0.2163086,0.1186523,-0.2148438
3448,-7.3125,-16.75,-67.8125,-0.3745117,-0.2353516,0.05566406,0.2128906,0.1210938,-0.2148438
3452,-7.5,-12.75,-60.625,-0.4248047,-0.2705078,0.07128906,0.2094727,0.1264648,-0.2163086
3456,-3.75,-14.125,-54.25,-0.4169922,-0.3134766,0.09423828,0.2045898,0.1313477,-0.2163086
3460,2.1875,-15.875,-49.1875,-0.4013672,-0.3364258,0.09423828,0.2021484,0.1323242,-0.2177734
3464,7.5625,-20,-43.75,-0.3588867,-0.355957,0.09033203,0.1972656,0.1362305,-0.2163086
3468,12.4375,-18.0625,-37.4375,-0.3007813,-0.3208008,0.08251953,0.1948242,0.1386719,-0.2202148
3473,9.1875,-11.8125,-29.5625,-0.2851563,-0.2470703,0.09814453,0.1938477,0.1401367,-0.2202148
3477,-1.125,-5.6875,-22.5625,-0.2890625,-0.2509766,0.1210938,0.1914063,0.1401367,-0.2231445
3481,-9.6875,-0.875,-15.8125,-0.2890625,-0.3208008,0.140625,0.1914063,0.1435547,-0.2216797
3485,-14.4375,1.3125,-11.375,-0.3164063,-0.371582,0.1479492,0.1889648,0.1450195,-0.2216797
3489,-18.0625,4.3125,-9,-0.3354492,-0.4257813,0.1479492,0.1889648,0.1459961,-0.2202148
3493,-23.5,8.5,-10.9375,-0.3706055,-0.4375,0.1518555,0.1879883,0.1474609,-0.21875
3497,-27.1875,7.5625,-15.8125,-0.4013672,-0.5073242,0.125,0.1865234,0.1489258,-0.2177734
3501,-18.75,5,-14.75,-0.3666992,-0.5737305,0.08251953,0.1879883,0.1489258,-0.2163086
3505,-7.4375,6.3125,-7,-0.3393555,-0.5541992,0.05957031,0.1855469,0.1523438,-0.2148438
3509,-2.1875,9.1875,1,-0.3125,-0.4765625,0.09423828,0.1865234,0.1538086,-0.2119141
3513,-3.3125,13.125,9.1875,-0.3125,-0.4375,0.1020508,0.1865234,0.1513672,-0.2133789
3517,-8.875,20.8125,16.3125,-0.3432617,-0.421875,0.1171875,0.1879883,0.1523438,-0.2109375
3521,-17.375,25.5,17.3125,-0.3974609,-0.4140625,0.1635742,0.1928711,0.1513672,-0.2109375
3525,-21.6875,24.8125,20.1875,-0.4672852,-0.4726563,0.1826172,0.1914063,0.1538086,-0.2094727
3529,-15.9375,16.625,26.5625,-0.5253906,-0.5463867,0.159668,0.1962891,0.1523438,-0.2055664
3533,-3.875,8.5,33.875,-0.5141602,-0.5776367,0.1518555,0.1987305,0.1523438,-0.2011719
3537,1,5.125,38.0625,-0.5024414,-0.5073242,0.140625,0.199707,0.1499023,-0.2041016
3541,-2.4375,4.5625,38.5,-0.5063477,-0.4804688,0.144043,0.2021484,0.1459961,-0.2011719
3545,-3.6875,5.8125,39.1875,-0.5063477,-0.503418,0.1479492,0.2055664,0.1435547,-0.2011719
3549,-1.8125,3.8125,42.125,-0.5371094,-0.4648438,0.1635742,0.2080078,0.1411133,-0.2041016
3553,-0.8125,2.6875,46.3125,-0.5332031,-0.4375,0.159668,0.2094727,0.1386719,-0.2026367
3557,-1.75,1.6875,47.625,-0.5175781,-0.387207,0.1367188,0.2119141,0.1362305,-0.2041016
3561,-2.875,4.5625,52.1875,-0.4946289,-0.3520508,0.1289063,0.215332,0.1313477,-0.2011719
3565,-4.1875,6.8125,57.9375,-0.5253906,-0.3134766,0.1479492,0.2177734,0.1289063,-0.199707
3569,-4.5,6.375,64.4375,-0.5488281,-0.2939453,0.1635742,0.2202148,0.1274414,-0.199707
3573,-3.75,4.875,70.5625,-0.5756836,-0.2783203,0.1635742,0.2246094,0.1225586,-0.199707
3577,-2.875,1.875,74,-0.5913086,-0.2509766,0.159668,0.2285156,0.1162109,-0.199707
3581,-3.8125,-1.1875,76.875,-0.5795898,-0.2202148,0.1328125,0.230957,0.1123047,-0.199707
3585,-2.25,-1.9375,82.75,-0.5644531,-0.2045898,0.1098633,0.2368164,0.1074219,-0.1987305
3589,-0.875,0.8125,89.1875,-0.5527344,-0.1308594,0.07910156,0.2392578,0.1010742,-0.1987305
3593,-6.6875,9.625,96.625,-0.5566406,-0.08398438,0.05175781,0.2412109,0.09619141,-0.1987305
3597,-12.625,18.125,99.75,-0.5952148,-0.07617188,0.05566406,0.2475586,0.08886719,-0.1987305
3602,-16,25.625,106.1875,-0.6572266,-0.08007813,0.04785156,0.253418,0.08251953,-0.1972656
3606,-15.125,28.25,111.625,-0.7387695,-0.08007813,0.05175781,0.2583008,0.07617188,-0.1958008
3610,-12.125,26.125,117.6875,-0.8007813,-0.08007813,0.04443359,0.2626953,0.06640625,-0.1918945
3614,-6.75,25.5625,121.9375,-0.831543,-0.05273438,0.04785156,0.2666016,0.05615234,-0.1889648
3618,-3.4375,23.375,121.5,-0.8818359,-0.002441406,0.03271484,0.2724609,0.04980469,-0.1889648
3622,-2.75,21.625,122.9375,-0.9013672,0.08251953,0.02490234,0.2758789,0.03759766,-0.1865234
3626,-6.5625,27.875,127.125,-0.8818359,0.09814453,0.02099609,0.2817383,0.02636719,-0.1850586
3630,-10.125,32.5,129.25,-0.9790039,0.1445313,0.001953125,0.2841797,0.01855469,-0.1821289
3634,-14.25,38.125,134.625,-1.033203,0.1176758,0.001953125,0.2880859,0.006347656,-0.175293
3638,-13.8125,36.8125,133.4375,-1.11084,0.1254883,-0.005371094,0.2915039,-0.006835938,-0.1767578
3642,-9.6875,32.4375,131.875,-1.118652,0.140625,-0.01660156,0.2949219,-0.01318359,-0.1728516
3646,-2.625,29.625,132.875,-1.141602,0.2070313,-0.009277344,0.2973633,-0.02685547,-0.1699219
3650,5.75,25.625,140.5625,-1.12207,0.2885742,0.01708984,0.2973633,-0.03710938,-0.1645508
3654,-4.25,37.9375,150.5625,-1.129883,0.4013672,-0.02050781,0.3022461,-0.04931641,-0.1674805
3658,-20.6875,48.5,144.8125,-1.215332,0.4165039,-0.01318359,0.3032227,-0.06591797,-0.1591797
3662,-29.125,48.375,138.4375,-1.292969,0.3857422,0.02099609,0.3022461,-0.07714844,-0.15625
3666,-24.3125,40.625,137.25,-1.331543,0.3466797,0.02880859,0.3022461,-0.08447266,-0.1538086
3670,-13.625,31.6875,141.8125,-1.335449,0.3466797,0.02880859,0.3032227,-0.09814453,-0.1508789
3674,1.8125,22.4375,152.8125,-1.335449,0.3427734,0.03662109,0.3022461,-0.1132813,-0.1494141
3678,8.1875,24.375,160.625,-1.304199,0.4243164,0.01367188,0.2983398,-0.1230469,-0.1484375
3682,-0.375,34.875,160.9375,-1.315918,0.4790039,0.01708984,0.2973633,-0.140625,-0.1469727
3686,-13.1875,41.625,152.875,-1.362793,0.4790039,0.04785156,0.2949219,-0.1542969,-0.1416016
3690,-22.625,42.8125,144.375,-1.424316,0.4125977,0.04443359,0.2900391,-0.1621094,-0.1386719
3694,-22.875,39,136.625,-1.498047,0.315918,0.07128906,0.2866211,-0.1743164,-0.137207
3698,-11,19.125,130.625,-1.587402,0.253418,0.07519531,0.2832031,-0.1855469,-0.1347656
3702,7,-3.0625,124.125,-1.537109,0.2338867,0.06738281,0.2792969,-0.1933594,-0.1333008
3706,22.6875,-16.25,114.6875,-1.405273,0.2729492,0.04443359,0.2724609,-0.2055664,-0.1333008
3710,27.375,-17.875,104.75,-1.289063,0.3935547,0.009765625,0.269043,-0.2143555,-0.1347656
3714,18.0625,-9.125,95.75,-1.184082,0.5097656,-0.02441406,0.2641602,-0.2216797,-0.1347656
3718,0.125,6.5,90.0625,-1.129883,0.5722656,-0.03613281,0.2602539,-0.2304688,-0.1333008
3722,-20.375,23.9375,85.875,-1.114746,0.5952148,-0.02441406,0.2558594,-0.2368164,-0.1347656
3726,-40.625,38.1875,83,-1.15332,0.5683594,-0.01318359,0.253418,-0.2416992,-0.1347656
3731,-57.25,48.5625,80.0625,-1.199707,0.5253906,-0.001464844,0.25,-0.2441406,-0.1303711
3735,-67.5,49.3125,76.5625,-1.257813,0.4516602,-0.005371094,0.2451172,-0.2519531,-0.1303711
3739,-70.625,43.6875,71.9375,-1.257813,0.4165039,-0.01318359,0.2451172,-0.2519531,-0.1303711
3743,-72.875,41.375,66.625,-1.20752,0.4165039,-0.04003906,0.2412109,-0.2558594,-0.1318359
3747,-55.25,29.25,105,-2.032715,-0.4375,0.1518555,0.2368164,-0.2583008,-0.1289063
3751,6.5625,-40.0625,10.8125,-1.858398,-0.5927734,-0.06689453,0.2319336,-0.2631836,-0.1279297
3755,4.25,-27.0625,-83.1875,-1.48291,-0.1889648,-0.07861328,0.234375,-0.2607422,-0.1303711
3759,0.5625,-33.8125,-75.375,-1.168945,0.2109375,-0.1362305,0.237793,-0.2543945,-0.1333008
3763,1.375,-27.1875,-29.625,-0.9091797,0.3583984,-0.1977539,0.2402344,-0.2504883,-0.1347656
3767,0.5,-10.25,16.0625,-0.6689453,0.5410156,-0.1669922,0.2436523,-0.2495117,-0.1357422
3771,-7.4375,11.125,48.1875,-0.6108398,0.6811523,-0.1591797,0.2402344,-0.2529297,-0.1357422
3775,-26,33.125,60.5625,-0.6225586,0.7353516,-0.1401367,0.2402344,-0.2558594,-0.137207
3779,-50.5,54.4375,56.75,-0.699707,0.7470703,-0.1245117,0.2392578,-0.2583008,-0.1347656
3783,-80.375,71.0625,38.5625,-0.7504883,0.7119141,-0.06298828,0.2353516,-0.2607422,-0.1357422
3787,-102.625,76.875,13.8125,-0.796875,0.6342773,-0.05517578,0.2392578,-0.2617188,-0.1357422
3791,-103.25,74.5625,1.3125,-0.862793,0.4750977,-0.001464844,0.2402344,-0.2583008,-0.1357422
3795,-86.75,66.5625,-5.125,-0.8276367,0.4399414,0.001953125,0.2436523,-0.2543945,-0.1347656
3799,-79,65.4375,-10.1875,-0.7504883,0.5175781,-0.04736328,0.2451172,-0.2519531,-0.1357422
3803,-79.6875,74.3125,-21.125,-0.6689453,0.5488281,-0.07470703,0.2485352,-0.2495117,-0.1357422
3807,-79.8125,83.1875,-28.3125,-0.6767578,0.5527344,-0.07470703,0.2519531,-0.2441406,-0.1318359
3811,-76.5,87.9375,-32,-0.7192383,0.5371094,-0.03613281,0.2558594,-0.2407227,-0.1303711
