Packet number,Gyroscope X (deg/s),Gyroscope Y (deg/s),Gyroscope Z (deg/s),Accelerometer X (g),Accelerometer Y (g),Accelerometer Z (g),Magnetometer X (G),Magnetometer Y (G),Magnetometer Z (G)
0,-2.75,-2.625,7.0625,0.9155273,0.4399414,-0.04003906,-0.2709961,-0.2255859,-0.105957
4,-2.25,-0.25,3,0.9077148,0.4672852,-0.04003906,-0.2724609,-0.2270508,-0.1074219
8,-2.5,0.25,2.125,0.9077148,0.4711914,-0.03613281,-0.2724609,-0.2255859,-0.105957
12,-6,0.1875,3.0625,0.8999023,0.4790039,-0.04736328,-0.2724609,-0.2270508,-0.1074219
16,-8.9375,-2.125,4.5,0.9038086,0.4594727,-0.05126953,-0.2724609,-0.2255859,-0.105957
20,-9.5625,-4.25,6.0625,0.8842773,0.4125977,-0.09765625,-0.2734375,-0.2255859,-0.1074219
24,-4.1875,-10.375,10.125,0.8613281,0.3623047,-0.1630859,-0.2744141,-0.2270508,-0.1074219
28,-2.125,-17.75,12.8125,0.9194336,0.4555664,-0.03222656,-0.2734375,-0.2231445,-0.105957
32,-4.25,-10.3125,10.625,0.9541016,0.4125977,-0.07080078,-0.2758789,-0.2246094,-0.1074219
36,-1.375,-11.375,14.25,0.9194336,0.3583984,-0.08984375,-0.2768555,-0.2207031,-0.1044922
40,1.3125,-10.25,17,0.9272461,0.3896484,-0.08203125,-0.2768555,-0.2182617,-0.1044922
44,2.5625,-8.75,18.125,0.9389648,0.3974609,-0.05126953,-0.2768555,-0.2182617,-0.1020508
48,5.1875,-2.875,15.75,0.9155273,0.4243164,-0.05908203,-0.2768555,-0.2182617,-0.1005859
52,5.0625,-1.1875,10,0.8842773,0.4438477,-0.05908203,-0.2807617,-0.2167969,-0.1020508
56,4.25,-1.5625,6.9375,0.8769531,0.4399414,-0.05517578,-0.2807617,-0.2182617,-0.1005859
60,2.625,0.0625,4.9375,0.9038086,0.4399414,-0.05908203,-0.2817383,-0.2158203,-0.1005859
64,0.25,1.375,3.5,0.8920898,0.4321289,-0.06689453,-0.2792969,-0.2158203,-0.1005859
68,-1.125,1.4375,1.6875,0.8881836,0.4125977,-0.07861328,-0.2807617,-0.2143555,-0.09912109
72,-0.8125,1.9375,1.375,0.8999023,0.3896484,-0.08203125,-0.2841797,-0.2167969,-0.1005859
76,0.0625,2.8125,2.25,0.8959961,0.3818359,-0.0859375,-0.2827148,-0.2143555,-0.1005859
80,-1.25,1.3125,3.375,0.8769531,0.4013672,-0.09765625,-0.2817383,-0.2158203,-0.1020508
84,-4,-1.0625,3.625,0.8842773,0.3935547,-0.1015625,-0.2817383,-0.2158203,-0.1035156
88,-5.875,-2.5,2,0.8730469,0.4125977,-0.109375,-0.2807617,-0.2143555,-0.1005859
93,-8.5,-3.0625,-0.8125,0.8881836,0.4052734,-0.112793,-0.2817383,-0.2143555,-0.1020508
97,-11.1875,-2.875,-2.4375,0.8881836,0.3896484,-0.1166992,-0.2817383,-0.2128906,-0.1020508
101,-14.625,-4.5,-2.625,0.8959961,0.3857422,-0.1401367,-0.2807617,-0.2143555,-0.1035156
105,-17.0625,-7.25,-2.6875,0.9038086,0.3857422,-0.1245117,-0.2807617,-0.2128906,-0.1020508
109,-21.125,-9.8125,-2.0625,0.9155273,0.3974609,-0.1015625,-0.2807617,-0.2128906,-0.1035156
113,-26,-11,-2.5625,0.9389648,0.3896484,-0.07470703,-0.2792969,-0.2104492,-0.1035156
117,-28.125,-10.8125,-3.1875,0.9619141,0.3662109,-0.06298828,-0.2807617,-0.2119141,-0.1005859
121,-24.75,-7.375,-4.4375,0.9970703,0.3544922,-0.06298828,-0.2807617,-0.2119141,-0.1020508
125,-18.1875,-3.5,-5.0625,0.9931641,0.3740234,-0.05517578,-0.2792969,-0.2104492,-0.1035156
129,-11.875,0.1875,-4.8125,0.9892578,0.4321289,-0.02832031,-0.2807617,-0.2104492,-0.1035156
133,-14.9375,0.5625,-1.125,0.9462891,0.5527344,-0.001464844,-0.2807617,-0.2119141,-0.1035156
137,-26.4375,-5,4,0.9116211,0.6459961,0.04785156,-0.2807617,-0.2104492,-0.1035156
141,-39.25,-8.6875,4.5,0.9462891,0.6962891,0.09814453,-0.2792969,-0.2080078,-0.105957
145,-42.625,0.9375,-0.75,1.023926,0.6733398,0.1132813,-0.2807617,-0.2070313,-0.1088867
149,-29.875,16.0625,-9.25,1.055176,0.6147461,0.105957,-0.2792969,-0.2045898,-0.1113281
153,-3.3125,37.4375,-23.1875,1.043457,0.6577148,0.05957031,-0.2792969,-0.2055664,-0.112793
157,21.75,57.875,-37.4375,0.9272461,0.8208008,-0.04736328,-0.2783203,-0.2070313,-0.1166992
161,30.9375,60.6875,-43.3125,0.7255859,1.061523,-0.1474609,-0.2734375,-0.2104492,-0.125
165,23,47.5625,-52.3125,0.5473633,1.32959,-0.2128906,-0.2700195,-0.2143555,-0.1264648
169,6.75,27.3125,-62.5,0.5356445,1.325684,-0.2939453,-0.2617188,-0.2158203,-0.1303711
173,3.6875,13.6875,-71.3125,0.609375,1.267578,-0.2978516,-0.2592773,-0.2192383,-0.1318359
177,10.5,5.5,-83.375,0.6362305,1.306641,-0.2822266,-0.2553711,-0.2231445,-0.1318359
181,8,1.375,-101.8125,0.6791992,1.458008,-0.2016602,-0.2509766,-0.2280273,-0.1318359
185,-6.9375,-3,-115.625,0.7294922,1.430664,-0.1591797,-0.2446289,-0.2368164,-0.1333008
189,-23.5,-9.3125,-120.1875,0.8222656,1.411133,-0.1166992,-0.2412109,-0.2416992,-0.1318359
193,-39.75,-16.625,-121.9375,0.7875977,1.341309,-0.1743164,-0.2329102,-0.2495117,-0.1347656
197,-31.1875,-23.6875,-135.9375,0.7641602,1.213379,-0.2783203,-0.2294922,-0.2568359,-0.1347656
201,-4.125,-24.25,-157.875,0.8613281,1.104492,-0.2553711,-0.222168,-0.2631836,-0.1347656
205,11.1875,-25.5,-161.625,0.9892578,1.108398,-0.1362305,-0.2138672,-0.2768555,-0.1318359
209,9.375,-33.125,-154.4375,1.124512,1.092773,0.02099609,-0.2045898,-0.2866211,-0.1303711
213,6.375,-32.625,-146,1.182617,1.116211,0.08642578,-0.199707,-0.2944336,-0.1289063
217,2.875,-30,-146.5625,1.147949,1.221191,0.1171875,-0.1899414,-0.3041992,-0.1264648
222,-12.125,-27.6875,-150.5,1.132324,1.255859,0.1210938,-0.1806641,-0.3168945,-0.125
226,-30.6875,-32.1875,-146.5,1.070313,1.143066,0.05566406,-0.1733398,-0.3193359,-0.1279297
230,-35.6875,-34.125,-144.125,1.039551,1.045898,-0.04394531,-0.1601563,-0.3256836,-0.1279297
234,-28,-33,-145.75,1.004395,0.9956055,-0.08984375,-0.1518555,-0.3344727,-0.1279297
238,-23.375,-30.875,-146.125,1.008301,0.9995117,-0.04394531,-0.1425781,-0.3393555,-0.1279297
242,-24.9375,-29,-141.625,0.9775391,1.092773,-0.009277344,-0.1328125,-0.3442383,-0.1289063
246,-29.625,-30.125,-140.25,0.9038086,1.13916,0.009765625,-0.1186523,-0.3520508,-0.1289063
250,-39.5,-28.375,-135.8125,0.8881836,1.259766,0.03662109,-0.1113281,-0.3530273,-0.1318359
254,-54.6875,-30.875,-133.6875,0.8149414,1.294922,0.01367188,-0.1010742,-0.3579102,-0.1347656
258,-60.6875,-25.625,-134.0625,0.8222656,1.240234,-0.03613281,-0.08789063,-0.3603516,-0.1386719
262,-54.125,-20.5,-142.3125,0.7451172,1.146973,-0.07861328,-0.08056641,-0.3642578,-0.1425781
266,-40.75,-15.75,-149.1875,0.7451172,0.9995117,-0.112793,-0.06884766,-0.3657227,-0.1469727
270,-23.875,-8.875,-149.1875,0.7568359,0.9296875,-0.1015625,-0.05322266,-0.3666992,-0.1494141
274,-14.375,-8.625,-140.625,0.6401367,0.9682617,-0.09375,-0.04589844,-0.3691406,-0.1547852
278,-13.9375,-10.875,-137.875,0.59375,1.003418,-0.09375,-0.03173828,-0.371582,-0.1538086
282,-7.875,-9.125,-141.4375,0.5473633,0.890625,-0.1054688,-0.01855469,-0.3730469,-0.1577148
286,6.125,-7.625,-140.375,0.4580078,0.6845703,-0.1513672,-0.009277344,-0.3730469,-0.1577148
290,23.125,-3.625,-143.875,0.4541016,0.6147461,-0.1938477,0.003417969,-0.371582,-0.1547852
294,42.75,-2.875,-140.9375,0.4775391,0.5683594,-0.1474609,0.01660156,-0.3754883,-0.1547852
298,44.625,-6.8125,-127.375,0.3574219,0.6577148,-0.05908203,0.02490234,-0.3745117,-0.1523438
302,28.9375,-14.6875,-118.25,0.3339844,0.6962891,0.001953125,0.03662109,-0.3754883,-0.1484375
306,15.6875,-19.125,-111.9375,0.3071289,0.6225586,0.03271484,0.04882813,-0.3730469,-0.1469727
310,2.3125,-20.1875,-107.0625,0.3227539,0.4907227,0.06347656,0.05566406,-0.3730469,-0.144043
314,-9.3125,-20.25,-96.3125,0.3188477,0.3388672,0.07910156,0.06396484,-0.3730469,-0.1484375
318,-12.25,-19.6875,-82.5,0.2294922,0.1445313,0.01708984,0.07226563,-0.3691406,-0.1494141
322,-7.3125,-19.25,-68,0.1831055,0.07080078,-0.05126953,0.07861328,-0.3691406,-0.1494141
326,6.6875,-21.8125,-50.9375,0.03173828,0.1254883,-0.06298828,0.08203125,-0.3657227,-0.1508789
330,12.125,-20.9375,-45.1875,0.01269531,0.3041992,0.02099609,0.08447266,-0.3642578,-0.1508789
334,5.5625,-21,-40.375,-0.006347656,0.4243164,0.1289063,0.08886719,-0.3657227,-0.1508789
338,-6.9375,-16.0625,-34.5625,0.004882813,0.4282227,0.2133789,0.09033203,-0.3642578,-0.1508789
342,-26.375,-12.1875,-23.625,-0.08007813,0.4868164,0.1171875,0.09277344,-0.3603516,-0.1508789
346,-25.1875,-17.1875,-18.6875,-0.1459961,0.300293,-0.01318359,0.09277344,-0.3603516,-0.1523438
351,0.9375,-10.625,-12.125,-0.05273438,0.1333008,-0.02050781,0.09521484,-0.359375,-0.1577148
355,16.6875,-4.5625,-7.3125,-0.1225586,0.2612305,0.05566406,0.09521484,-0.3603516,-0.1577148
359,12.375,-4.3125,4,-0.09521484,0.4946289,0.1098633,0.09521484,-0.359375,-0.15625
363,1.6875,-5.125,9.375,-0.1611328,0.5488281,0.04443359,0.09375,-0.3618164,-0.15625
367,6.1875,-5.875,13,-0.1845703,0.5527344,-0.01660156,0.09521484,-0.3618164,-0.1523438
371,13.4375,-2.0625,12.3125,-0.1767578,0.6069336,-0.04736328,0.09130859,-0.3618164,-0.1547852
375,14.3125,-1.9375,18.25,-0.2080078,0.7041016,-0.02050781,0.09130859,-0.3618164,-0.1538086
379,5.5625,-5.4375,22.25,-0.2387695,0.7817383,-0.01660156,0.08886719,-0.3618164,-0.1538086
383,-0.375,-3.125,19.875,-0.1884766,0.7705078,0.01367188,0.08789063,-0.3618164,-0.1523438
387,-4.625,1.4375,16.125,-0.1728516,0.7236328,-0.01318359,0.08544922,-0.3642578,-0.1508789
391,-11.0625,1.125,19.125,-0.1533203,0.6884766,-0.04394531,0.08300781,-0.3632813,-0.1508789
395,-17.6875,-4.5,27,-0.1689453,0.6381836,-0.03222656,0.08300781,-0.3666992,-0.1523438
399,-21,-4.9375,26.9375,-0.05273438,0.5991211,0.03662109,0.07861328,-0.3657227,-0.1538086
403,-23.625,-1.125,29.1875,0.01269531,0.4594727,0.06347656,0.07861328,-0.3657227,-0.1547852
407,-31.625,-0.4375,42.5,-0.006347656,0.4711914,-0.05126953,0.07470703,-0.3657227,-0.1606445
411,-34.375,-13.75,65.9375,-0.04492188,0.3974609,-0.1206055,0.06982422,-0.3618164,-0.1616211
415,-27.6875,-18.5,64.375,0.04345703,0.3271484,-0.03222656,0.06396484,-0.3632813,-0.1645508
419,-18.6875,-17.8125,71.3125,0.09033203,0.4204102,0.02099609,0.05957031,-0.3632813,-0.1674805
423,-13.25,-11.375,71.125,0.1713867,0.4086914,0.1020508,0.05224609,-0.3642578,-0.168457
427,-14.6875,-6.375,76.625,0.2255859,0.4399414,0.08251953,0.04394531,-0.3632813,-0.168457
431,-13.8125,-7.3125,89.75,0.2607422,0.4013672,-0.04003906,0.04052734,-0.3632813,-0.1699219
435,-1.4375,-12.625,106.75,0.2412109,0.5292969,0.03271484,0.03173828,-0.3642578,-0.1699219
439,-3.3125,-8.5,107.9375,0.3071289,0.7158203,0.09423828,0.01757813,-0.3657227,-0.1699219
443,-12.8125,-2.0625,103.875,0.3149414,0.6811523,0.1132813,0.01269531,-0.3657227,-0.1699219
447,-19.625,-1.875,105.125,0.4116211,0.6694336,0.07910156,0.002441406,-0.3642578,-0.1699219
451,-10.875,-2.75,116,0.4736328,0.5527344,0.01708984,-0.005859375,-0.3632813,-0.1738281
455,5.375,1.0625,124.25,0.4775391,0.6459961,-0.04003906,-0.01416016,-0.3632813,-0.1728516
459,12.4375,-2.25,128.5,0.4272461,0.793457,-0.05908203,-0.02587891,-0.3632813,-0.1699219
463,1.3125,-10.75,132,0.4428711,0.8632813,-0.08984375,-0.0390625,-0.3603516,-0.1699219
467,-7.4375,-23.625,131.4375,0.6362305,0.7509766,-0.04736328,-0.04736328,-0.3603516,-0.1674805
471,11.75,-20.625,144.875,0.7797852,0.5800781,-0.009277344,-0.06152344,-0.3579102,-0.1699219
475,34.4375,-10.6875,153,0.7875977,0.7509766,-0.02050781,-0.07714844,-0.3544922,-0.1660156
480,42.75,-9,156.3125,0.7177734,1.030762,-0.04394531,-0.08544922,-0.3520508,-0.1660156
484,29.9375,-14,153.875,0.6635742,1.166504,-0.1206055,-0.1010742,-0.3457031,-0.1606445
488,15.0625,-26.25,144.6875,0.7294922,1.081055,-0.08203125,-0.1152344,-0.3442383,-0.1577148
492,18.1875,-25.75,145.125,0.9619141,0.8671875,-0.03222656,-0.1259766,-0.3393555,-0.1547852
496,32.625,-19.125,153.4375,0.9892578,0.953125,0.001953125,-0.1376953,-0.3330078,-0.1508789
500,37.625,-15.125,153.4375,0.9501953,1.131836,-0.01318359,-0.1508789,-0.3266602,-0.1469727
504,33,-11.5625,145,0.9462891,1.225098,-0.05126953,-0.1601563,-0.3217773,-0.1425781
508,21.375,-14.125,132.6875,0.8881836,1.186035,-0.1435547,-0.1708984,-0.3120117,-0.1386719
512,12.4375,-19.5625,127.4375,0.9389648,1.077148,-0.1860352,-0.1831055,-0.3066406,-0.1386719
516,14.5,-23.875,125.25,1.000488,0.953125,-0.1743164,-0.1899414,-0.3017578,-0.1357422
520,30.75,-21.1875,128,1.109375,0.9101563,-0.1166992,-0.1982422,-0.2919922,-0.1333008
524,39.5625,-12.5,124.5,1.121094,0.9956055,-0.08984375,-0.2089844,-0.2841797,-0.1303711
528,39.0625,-10.375,121.75,1.155762,1.049805,-0.02832031,-0.2163086,-0.2768555,-0.1264648
532,29.1875,-6.9375,129.6875,1.132324,1.116211,-0.01318359,-0.222168,-0.2705078,-0.1235352
536,17.125,-10.4375,133.625,0.9736328,1.240234,-0.01318359,-0.2304688,-0.2617188,-0.1225586
540,12.5625,-8.8125,129.125,0.9541016,1.345215,0.009765625,-0.2363281,-0.2568359,-0.1225586
544,8.25,-3.9375,114.4375,0.8574219,1.442383,0.04443359,-0.2460938,-0.2470703,-0.1210938
548,2.375,-0.25,98.125,0.9272461,1.356934,0.1020508,-0.2509766,-0.2368164,-0.1181641
552,6.8125,8.4375,87.9375,0.9970703,1.244141,0.1289063,-0.2519531,-0.2304688,-0.1181641
556,14.5,14.1875,84,0.9423828,1.20166,0.07519531,-0.2568359,-0.2255859,-0.1196289
560,26.5,18.875,80.25,0.9658203,1.236328,0.1098633,-0.2626953,-0.2167969,-0.1210938
564,39.625,29.25,72.875,0.9272461,1.267578,0.1289063,-0.2626953,-0.2143555,-0.1181641
568,47.125,37.125,62.9375,0.8183594,1.353027,0.09033203,-0.2651367,-0.2094727,-0.1181641
572,46.75,38.625,53.1875,0.7099609,1.384277,0.01708984,-0.2661133,-0.2070313,-0.1181641
576,37.625,34.25,44.3125,0.6171875,1.426758,0.005859375,-0.2700195,-0.2055664,-0.1210938
580,25.4375,26.8125,32.375,0.574707,1.294922,-0.04394531,-0.2675781,-0.203125,-0.1210938
584,20.25,19.5625,18.9375,0.6635742,1.124023,-0.009277344,-0.2709961,-0.2006836,-0.1210938
588,26.25,21.4375,8.9375,0.7836914,0.9916992,0.001953125,-0.2700195,-0.2006836,-0.1225586
592,27.875,21.5625,3.6875,0.7797852,0.9799805,0.02099609,-0.2709961,-0.1992188,-0.1210938
596,18.1875,17.3125,-2.5,0.7412109,1.003418,0.02880859,-0.2700195,-0.2006836,-0.1210938
600,0.4375,11.1875,-8.5,0.7216797,0.9101563,0.03662109,-0.2700195,-0.2016602,-0.125
604,-6.4375,6.125,-12.25,0.7216797,0.6962891,-0.03222656,-0.2700195,-0.2016602,-0.1235352
609,7.4375,7.9375,-21.375,0.7993164,0.5488281,-0.06298828,-0.2685547,-0.2045898,-0.125
613,20.3125,12.5,-24,0.8032227,0.5913086,-0.07470703,-0.2651367,-0.2045898,-0.125
617,18.5,8.1875,-20.625,0.7490234,0.7587891,-0.04736328,-0.2661133,-0.2080078,-0.1264648
621,1.25,0.1875,-17.0625,0.6870117,0.9604492,-0.03613281,-0.2626953,-0.2104492,-0.1264648
625,-19.8125,-9.75,-19.1875,0.6557617,1.092773,-0.03613281,-0.2617188,-0.2119141,-0.1264648
629,-40.4375,-14.5625,-26.875,0.6635742,1.146973,-0.05908203,-0.2626953,-0.2119141,-0.1264648
633,-52.25,-18.875,-36.9375,0.6518555,1.166504,-0.112793,-0.2602539,-0.2119141,-0.1279297
637,-55.875,-21.5625,-49.5,0.6831055,1.17041,-0.1362305,-0.2592773,-0.2143555,-0.1279297
641,-51.375,-19.0625,-64.5625,0.7915039,1.104492,-0.1474609,-0.2592773,-0.2182617,-0.1289063
645,-38.0625,-14.0625,-76.5,0.8842773,1.015137,-0.1474609,-0.2553711,-0.2192383,-0.1318359
649,-22,-6.3125,-80.125,0.9423828,0.9838867,-0.1245117,-0.253418,-0.2255859,-0.1318359
653,-8.4375,-3.75,-79.875,0.8110352,1.09668,-0.1821289,-0.2485352,-0.2304688,-0.1333008
657,5.6875,-5,-89.6875,0.8032227,1.20166,-0.1206055,-0.2446289,-0.2382813,-0.1333008
661,20.625,1.0625,-104.1875,0.8300781,1.279297,-0.04394531,-0.2412109,-0.2431641,-0.1333008
665,32.375,9.5625,-115.125,0.9272461,1.32959,0.07519531,-0.2363281,-0.2504883,-0.1303711
669,35.8125,18,-115.5625,0.9541016,1.438477,0.1518555,-0.2294922,-0.2631836,-0.1318359
673,26.9375,21.3125,-118.25,0.8496094,1.55127,0.1132813,-0.2236328,-0.2670898,-0.1303711
677,15.25,20,-126.8125,0.8149414,1.625,0.01367188,-0.2138672,-0.2783203,-0.1289063
681,5.5,12.0625,-131.6875,0.7758789,1.512207,-0.1245117,-0.2045898,-0.2895508,-0.1318359
685,3.625,-0.1875,-133.625,0.8222656,1.399902,-0.1401367,-0.1972656,-0.2929688,-0.1303711
689,14.375,-6,-138,0.9423828,1.294922,-0.05517578,-0.1899414,-0.3041992,-0.1289063
693,18.1875,-3.75,-141.75,1.008301,1.345215,0.02880859,-0.1772461,-0.3144531,-0.1303711
697,6.0625,-7.0625,-140.625,0.9931641,1.384277,0.04052734,-0.168457,-0.3193359,-0.1264648
701,-14.4375,-16.5,-142.75,0.9580078,1.337402,0.02880859,-0.1616211,-0.328125,-0.1279297
705,-21.875,-16.375,-150.1875,1.0625,1.182129,0.08642578,-0.1484375,-0.3330078,-0.1289063
709,-21.75,-8.8125,-156.1875,1.039551,1.112305,0.04443359,-0.1411133,-0.3417969,-0.1289063
713,-24.125,-7.3125,-160.1875,0.9892578,1.077148,0.001953125,-0.1259766,-0.3481445,-0.1318359
717,-28.1875,-10.8125,-158,0.9389648,0.9643555,-0.02832031,-0.112793,-0.3544922,-0.1333008
721,-22.9375,-9.3125,-154.375,0.9501953,0.8481445,-0.02441406,-0.1010742,-0.3569336,-0.137207
725,-19.5,-9.375,-149.25,0.8457031,0.875,-0.05517578,-0.08886719,-0.3618164,-0.137207
729,-15.125,-7.375,-150.75,0.8378906,0.8168945,-0.02441406,-0.07324219,-0.3642578,-0.1401367
733,-14.6875,-5.5625,-148.25,0.7412109,0.8364258,-0.04736328,-0.06494141,-0.3681641,-0.1416016
738,-23.25,-13,-142.5,0.644043,0.8828125,-0.04736328,-0.05322266,-0.3730469,-0.144043
742,-28,-19.875,-139,0.6132813,0.7739258,-0.04003906,-0.0390625,-0.371582,-0.1455078
746,-20.9375,-16.25,-139.8125,0.6289063,0.7041016,-0.04003906,-0.03076172,-0.3730469,-0.1469727
750,-14.4375,-10.3125,-133.25,0.578125,0.6108398,-0.009277344,-0.01611328,-0.3745117,-0.1494141
754,-16.4375,-13.1875,-123.4375,0.5009766,0.6264648,-0.02832031,-0.004394531,-0.3745117,-0.1523438
758,-18.25,-16.625,-112,0.4697266,0.5913086,-0.01318359,0.003417969,-0.3730469,-0.1538086
762,-13.4375,-14.625,-103.5,0.4428711,0.5683594,0.02490234,0.01269531,-0.3730469,-0.1547852
766,-7.1875,-6.9375,-97.3125,0.3847656,0.6030273,0.06738281,0.0234375,-0.3706055,-0.1547852
770,-10.5,-6.6875,-93.0625,0.2451172,0.6733398,0.04052734,0.02734375,-0.371582,-0.1547852
774,-12.875,-9.5625,-90.875,0.2216797,0.6694336,0.02099609,0.03808594,-0.3691406,-0.1591797
778,-15.1875,-6.0625,-88,0.206543,0.6225586,0.04443359,0.04492188,-0.3691406,-0.1591797
782,-17.1875,-4.1875,-79.75,0.1328125,0.5488281,0.001953125,0.04882813,-0.3666992,-0.1616211
786,-12.875,-6.875,-68.625,0.125,0.5058594,0.01708984,0.05810547,-0.3657227,-0.1616211
790,-5.625,-5.125,-58.6875,0.04736328,0.5253906,-0.01318359,0.06298828,-0.3657227,-0.1616211
794,1.5625,-7.4375,-52.6875,0.01269531,0.6030273,0.001953125,0.06542969,-0.3632813,-0.1660156
798,3,-7.25,-50.125,-0.002441406,0.6030273,0.04052734,0.06982422,-0.3618164,-0.1645508
802,5.6875,-4.8125,-45.6875,0.03955078,0.6186523,0.125,0.07470703,-0.3603516,-0.1645508
806,7.25,0.125,-43.8125,-0.006347656,0.6420898,0.1713867,0.07714844,-0.3603516,-0.1630859
810,3.3125,0.875,-36.125,-0.05664063,0.7392578,0.1713867,0.08203125,-0.359375,-0.1645508
814,-4.3125,0.3125,-36.0625,-0.1342773,0.7856445,0.1865234,0.08447266,-0.359375,-0.1660156
818,-12.9375,2.3125,-41,-0.1689453,0.7392578,0.125,0.08544922,-0.3569336,-0.1630859
822,-11.25,3.8125,-42.9375,-0.1499023,0.5878906,0.09814453,0.09033203,-0.3569336,-0.1674805
826,0.75,7.25,-40.9375,-0.1381836,0.5136719,0.105957,0.09277344,-0.3530273,-0.1660156
830,4.5625,10,-32.9375,-0.1459961,0.5952148,0.08642578,0.09765625,-0.3544922,-0.1660156
834,-10.5,7.125,-24.9375,-0.262207,0.6459961,0.04443359,0.09960938,-0.3530273,-0.1630859
838,-24.25,-2.625,-14.125,-0.3007813,0.5566406,-0.01660156,0.1010742,-0.3505859,-0.1674805
842,-17.3125,-5.125,-8,-0.3007813,0.4750977,-0.05517578,0.1010742,-0.3505859,-0.1674805
846,-2.25,-2.0625,-9.9375,-0.3432617,0.5644531,-0.05908203,0.1044922,-0.3491211,-0.168457
850,1.5625,-1,-14,-0.3393555,0.6694336,0.005859375,0.1044922,-0.3491211,-0.1699219
854,-4.8125,-1.75,-14.625,-0.3164063,0.6616211,0.03271484,0.1044922,-0.3505859,-0.1699219
858,-13.6875,0.5625,-15.6875,-0.2661133,0.6420898,0.04052734,0.105957,-0.3491211,-0.1699219
862,-15.1875,3.125,-15.9375,-0.2583008,0.4594727,-0.03222656,0.1079102,-0.3481445,-0.1728516
867,-2.5625,6.375,-8.0625,-0.2270508,0.3041992,-0.08203125,0.109375,-0.3466797,-0.1713867
871,8.625,7.9375,0.3125,-0.2387695,0.2963867,-0.1245117,0.1103516,-0.3466797,-0.1728516
875,16.25,1.8125,11.8125,-0.2080078,0.3271484,-0.05908203,0.1079102,-0.3466797,-0.1728516
879,5.625,-3.1875,20.875,-0.1611328,0.4052734,0.02099609,0.109375,-0.3466797,-0.168457
883,-9.5,-7.8125,27.4375,-0.1147461,0.3427734,0.07128906,0.105957,-0.3481445,-0.1713867
887,-15.125,-6.1875,35.6875,0.01269531,0.284668,0.09423828,0.1035156,-0.3481445,-0.1728516
891,-14.4375,0.6875,43.875,0.01660156,0.3310547,0.1020508,0.1010742,-0.3491211,-0.1713867
895,-20.5,4.375,46.4375,-0.05273438,0.3740234,-0.001464844,0.09765625,-0.3481445,-0.1728516
899,-24.5,-3.0625,52.9375,-0.04882813,0.3388672,-0.01660156,0.09033203,-0.3491211,-0.175293
903,-25.375,-4.8125,63,0.04736328,0.300293,-0.001464844,0.09033203,-0.3520508,-0.1767578
907,-26.1875,-1.75,74.6875,0.08642578,0.3662109,-0.02441406,0.08300781,-0.3520508,-0.1796875
911,-29.75,-4.1875,82.8125,0.03564453,0.4282227,-0.1591797,0.07714844,-0.3505859,-0.1806641
915,-25.75,-17.3125,84.1875,0.07080078,0.4013672,-0.1782227,0.06982422,-0.3520508,-0.1806641
919,-13.125,-23.5,90.875,0.2646484,0.3974609,-0.009277344,0.06396484,-0.3530273,-0.1835938
923,-2.0625,-18.75,102.625,0.3808594,0.4868164,0.144043,0.05224609,-0.3544922,-0.1875
927,-3.25,-14.75,117.5625,0.3227539,0.5991211,0.144043,0.04638672,-0.3554688,-0.1865234
931,-4.9375,-16.4375,127.375,0.3305664,0.7080078,0.08642578,0.03417969,-0.3569336,-0.1865234
935,0.875,-17.8125,124.25,0.3808594,0.7587891,0.07519531,0.02148438,-0.3579102,-0.1835938
939,16.25,-16.875,127,0.4350586,0.8208008,0.05957031,0.01269531,-0.3569336,-0.1865234
943,17.6875,-14.5,131.8125,0.4619141,1.003418,0.1328125,0,-0.3579102,-0.1850586
947,9.3125,-16.5,146.25,0.4077148,1.015137,0.08251953,-0.01269531,-0.359375,-0.1806641
951,17.875,-21.3125,150.3125,0.4619141,1.045898,0.09423828,-0.02099609,-0.3569336,-0.1806641
955,29.4375,-11.625,144.0625,0.543457,1.166504,0.05175781,-0.03759766,-0.3569336,-0.1796875
959,34.6875,-7.75,131.375,0.527832,1.225098,0.04785156,-0.05078125,-0.3554688,-0.1728516
963,31.3125,-10.5,123.1875,0.5898438,1.221191,0.1171875,-0.05810547,-0.3544922,-0.1713867
967,26.625,-9.25,134.5,0.7641602,1.20166,0.1635742,-0.07128906,-0.3530273,-0.168457
971,9.8125,-3.4375,143.6875,0.6948242,1.291016,0.159668,-0.08300781,-0.3520508,-0.1660156
975,-6.3125,-5.875,151.5625,0.625,1.205566,-0.01318359,-0.09472656,-0.3466797,-0.1660156
979,-2.5,-15,148.5,0.6054688,1.053711,-0.08984375,-0.1069336,-0.3442383,-0.1645508
983,25.125,-10.5,142.25,0.7412109,1.061523,-0.08203125,-0.1201172,-0.3369141,-0.1645508
987,35.1875,-1.875,130.5625,0.6635742,1.197754,-0.05126953,-0.1269531,-0.3344727,-0.1616211
991,25.375,-8.25,119.6875,0.6479492,1.174316,-0.03613281,-0.1401367,-0.3291016,-0.1591797
996,18.3125,-19.875,121.0625,0.7177734,1.022949,-0.08203125,-0.1494141,-0.3232422,-0.1577148
1000,28.25,-27.1875,123.1875,0.7797852,0.9101563,-0.03613281,-0.1582031,-0.3193359,-0.1538086
1004,49.5625,-23.1875,120,0.9272461,0.8598633,0.005859375,-0.168457,-0.3129883,-0.1508789
1008,63.3125,-12.4375,119.3125,1.000488,1.026855,0.07910156,-0.1772461,-0.3056641,-0.144043
1012,43.625,-4.9375,118.375,0.9272461,1.244141,0.06738281,-0.184082,-0.3032227,-0.1401367
1016,4.4375,-16.3125,117.375,0.8261719,1.283203,-0.03613281,-0.1923828,-0.2983398,-0.1357422
1020,-28.6875,-35,114.1875,0.8417969,1.154785,-0.112793,-0.2021484,-0.2895508,-0.1357422
1024,-33.6875,-40.875,104.6875,0.9501953,0.9023438,-0.1401367,-0.2089844,-0.2832031,-0.1347656
1028,-13.625,-32.75,104.0625,1.031738,0.7353516,-0.109375,-0.2172852,-0.2744141,-0.1357422
1032,14.1875,-20.125,109.5625,1.070313,0.7470703,-0.07861328,-0.2246094,-0.2670898,-0.1347656
1036,44.3125,-7.25,110.1875,1.000488,0.8867188,-0.05126953,-0.2280273,-0.2617188,-0.1333008
1040,65.9375,4.4375,104.6875,0.9501953,1.100586,-0.02832031,-0.2363281,-0.2529297,-0.1289063
1044,81,13.1875,98.4375,0.8652344,1.232422,-0.04736328,-0.2426758,-0.2480469,-0.125
1048,92.8125,16.6875,88.625,0.8417969,1.341309,-0.03222656,-0.2470703,-0.2456055,-0.1225586
1052,101.6875,24.5625,76.0625,0.8691406,1.403809,0.06347656,-0.2495117,-0.2407227,-0.1181641
1056,99.6875,38.5,66.1875,0.9775391,1.500488,0.1328125,-0.2519531,-0.2382813,-0.1142578
1060,81.3125,52.5625,68.6875,0.8535156,1.570801,0.09423828,-0.2553711,-0.2368164,-0.112793
1064,45.5,47.5625,71.5,0.644043,1.58252,-0.03613281,-0.2543945,-0.2329102,-0.112793
1068,14.25,33.1875,71.75,0.4658203,1.418945,-0.2475586,-0.2617188,-0.2280273,-0.1166992
1072,5.3125,14.6875,61.0625,0.3652344,1.221191,-0.3706055,-0.2602539,-0.2231445,-0.1142578
1076,17.5,4.6875,42.9375,0.4194336,1.030762,-0.3632813,-0.2617188,-0.2192383,-0.1157227
1080,36.1875,1.125,28.5625,0.4853516,0.8984375,-0.2822266,-0.2651367,-0.2167969,-0.1157227
1084,42.6875,-2.8125,21.625,0.5976563,0.8325195,-0.1938477,-0.2661133,-0.2167969,-0.112793
1088,40.125,-5.5,25.25,0.7255859,0.7973633,-0.0859375,-0.2685547,-0.2167969,-0.1098633
1092,31.375,-5.3125,35.3125,0.7875977,0.7817383,0.03271484,-0.2675781,-0.2158203,-0.1088867
1096,16.125,-2.25,35.375,0.7915039,0.8520508,0.07519531,-0.2700195,-0.2128906,-0.1074219
1100,-0.3125,2.125,24.625,0.7680664,0.9179688,0.03271484,-0.2724609,-0.2104492,-0.1044922
1104,-10.9375,-2.5,-1.375,0.6831055,0.9453125,-0.06689453,-0.2724609,-0.2094727,-0.1074219
1108,-19.6875,-15.875,-31.0625,0.7333984,0.8789063,-0.09375,-0.2724609,-0.2080078,-0.105957
1112,-28.125,-21.875,-44.25,0.9619141,0.777832,-0.03613281,-0.2700195,-0.2119141,-0.105957
1116,-40.8125,-18.625,-41.9375,1.059082,0.7158203,-0.01660156,-0.2700195,-0.2158203,-0.1044922
1120,-50.1875,-12.3125,-33,1.043457,0.6459961,-0.05126953,-0.2685547,-0.2167969,-0.1088867
1125,-48.125,-5.3125,-21.3125,0.9658203,0.5839844,-0.06298828,-0.2675781,-0.2182617,-0.1074219
1129,-30.25,-0.8125,-11.125,0.8417969,0.6420898,-0.109375,-0.2661133,-0.2182617,-0.1098633
1133,-7.875,-0.25,-10.0625,0.7216797,0.90625,-0.04736328,-0.2651367,-0.2192383,-0.1113281
1137,-4.375,-1.75,-32.75,0.609375,1.186035,0.01708984,-0.2651367,-0.2192383,-0.112793
1141,-12.875,-9,-57,0.6713867,1.154785,0.04785156,-0.2626953,-0.2216797,-0.112793
1145,-11.1875,-9.75,-66.0625,0.8691406,1.084961,0.1210938,-0.2617188,-0.2255859,-0.1113281
1149,1.0625,0.125,-63.1875,0.9580078,1.022949,0.1674805,-0.2578125,-0.2319336,-0.1113281
1153,9.25,14.625,-56.3125,0.9350586,1.120117,0.1748047,-0.253418,-0.2358398,-0.1113281
1157,12.9375,20.9375,-53.125,0.8496094,1.275391,0.1020508,-0.2519531,-0.2382813,-0.1113281
1161,12.375,20.1875,-77.1875,0.7294922,1.485352,-0.04394531,-0.2495117,-0.2441406,-0.112793
1165,4.4375,14.5,-111.5,0.7177734,1.562988,-0.09765625,-0.2426758,-0.2529297,-0.1142578
1169,-14.875,10.1875,-130.1875,0.8417969,1.516113,-0.08984375,-0.237793,-0.2592773,-0.1157227
1173,-41.4375,5.4375,-129.4375,0.8920898,1.442383,-0.112793,-0.2294922,-0.2705078,-0.1157227
1177,-66.5625,-2.25,-129.8125,0.8730469,1.333496,-0.1899414,-0.222168,-0.2753906,-0.1225586
1181,-72.25,-6.75,-135.9375,0.9892578,1.077148,-0.2670898,-0.215332,-0.2832031,-0.1225586
1185,-49.6875,-5.8125,-134.5,1.012207,0.890625,-0.2670898,-0.206543,-0.2880859,-0.1289063
1189,-17.625,1.125,-131.875,0.9775391,0.987793,-0.2055664,-0.1962891,-0.2983398,-0.1318359
1193,-12,2.125,-133.75,0.8261719,1.255859,-0.1743164,-0.1899414,-0.3032227,-0.1318359
1197,-27.4375,-11.5,-143,0.7680664,1.271484,-0.1821289,-0.1791992,-0.3129883,-0.1333008
1201,-31.625,-14.0625,-147.625,0.9194336,1.12793,-0.1630859,-0.1699219,-0.3193359,-0.1357422
1205,-22.875,-6.25,-145.75,0.9814453,1.022949,-0.1474609,-0.1616211,-0.3242188,-0.1357422
1209,-16,-2.375,-144.5625,0.8613281,1.073242,-0.1591797,-0.1484375,-0.3320313,-0.1401367
1213,-23.375,-7.6875,-142.5,0.7294922,1.12793,-0.1899414,-0.1376953,-0.3378906,-0.1386719
1217,-34,-22,-144.625,0.659668,1.049805,-0.2128906,-0.1303711,-0.3442383,-0.1416016
1221,-31.5625,-28.125,-146.25,0.7294922,0.9296875,-0.1743164,-0.1176758,-0.3466797,-0.144043
1225,-20.8125,-25.3125,-148.6875,0.7451172,0.8442383,-0.1166992,-0.1054688,-0.3505859,-0.144043
1229,-4.5,-21.5,-150.5,0.7529297,0.7392578,-0.02441406,-0.09716797,-0.3569336,-0.1455078
1233,11.5625,-10.4375,-139.8125,0.7373047,0.7548828,0.06347656,-0.08398438,-0.3603516,-0.1469727
1237,19.0625,-0.4375,-125.9375,0.609375,0.8598633,0.08642578,-0.07128906,-0.3657227,-0.1469727
1241,27.3125,8.25,-107.4375,0.4970703,1.034668,0.02490234,-0.06298828,-0.3681641,-0.1455078
1245,38.0625,12.625,-103.125,0.4038086,1.407715,-0.07080078,-0.05322266,-0.371582,-0.1416016
1249,27.0625,1.8125,-127,0.2373047,1.737793,-0.1474609,-0.04150391,-0.3754883,-0.1401367
1254,-7.1875,-14.4375,-156.25,0.3730469,1.660156,-0.112793,-0.03173828,-0.3779297,-0.1386719
1258,-34.1875,-22.1875,-160.625,0.578125,1.255859,-0.05517578,-0.01757813,-0.3779297,-0.1401367
1262,-33.1875,-20.625,-146.375,0.6557617,0.840332,-0.06689453,-0.004394531,-0.3779297,-0.1425781
1266,-9.5625,-12.1875,-128.625,0.5473633,0.7197266,-0.1015625,0.004394531,-0.3754883,-0.1469727
1270,11.1875,-11.1875,-118.6875,0.3652344,0.8520508,-0.1245117,0.01660156,-0.3754883,-0.1469727
1274,18.875,-15.5,-119.3125,0.2954102,1.007324,-0.02441406,0.02978516,-0.3754883,-0.144043
1278,14.1875,-15.3125,-121.375,0.2568359,1.061523,0.05957031,0.03320313,-0.3769531,-0.144043
1282,0.5625,-16.125,-126.8125,0.2104492,1.081055,0.1171875,0.04638672,-0.3745117,-0.1469727
1286,-12.5625,-17.125,-126.9375,0.2255859,1.034668,0.1020508,0.05957031,-0.3706055,-0.144043
1290,-23.375,-14.3125,-122.5,0.2685547,0.9838867,0.1020508,0.06542969,-0.3730469,-0.1469727
1294,-36.8125,-11.9375,-112,0.2104492,0.9492188,0.06738281,0.07714844,-0.3666992,-0.1494141
1298,-58.0625,-20.625,-102.5625,0.09375,0.875,0.001953125,0.08544922,-0.3632813,-0.15625
1302,-67.75,-27.25,-100.0625,0.109375,0.7041016,0.001953125,0.09130859,-0.359375,-0.1591797
1306,-57.625,-24,-108,0.1171875,0.5488281,0.05175781,0.1010742,-0.3530273,-0.1645508
1310,-45.75,-9.5625,-118.9375,0.1557617,0.4711914,0.1171875,0.1103516,-0.3466797,-0.1728516
1314,-39.0625,1.8125,-116.0625,0.1367188,0.3081055,0.1367188,0.1152344,-0.3417969,-0.1738281
1318,-41.0625,3.125,-97.1875,0.09375,0.2265625,0.105957,0.1235352,-0.3369141,-0.1767578
1322,-47.25,-0.25,-75.4375,0.02832031,0.09423828,0.05957031,0.1318359,-0.3305664,-0.1806641
1326,-45.6875,-2.0625,-55.5625,-0.006347656,-0.03369141,0.009765625,0.1357422,-0.3242188,-0.1835938
1330,-23.5,-4.5625,-37,-0.04492188,-0.1850586,0.07519531,0.1376953,-0.3208008,-0.1889648
1334,7,4.9375,-25.0625,-0.02978516,-0.09960938,0.140625,0.1416016,-0.3208008,-0.1875
1338,28.625,23,-21.9375,-0.1381836,0.105957,0.1557617,0.1450195,-0.3208008,-0.1865234
1342,18.5,28.125,-19.75,-0.362793,0.3662109,0.1020508,0.1450195,-0.3193359,-0.1835938
1346,-3.625,19.4375,-15,-0.4169922,0.3505859,-0.005371094,0.1499023,-0.3208008,-0.1806641
1350,-16.6875,8.5625,-5.25,-0.4169922,0.2148438,-0.09375,0.1508789,-0.3208008,-0.1821289
1354,-4.25,5.625,7.9375,-0.3320313,0.07470703,-0.07861328,0.1523438,-0.3178711,-0.1821289
1358,15.4375,7.6875,15.875,-0.3203125,0.1333008,0.005859375,0.1499023,-0.3193359,-0.1821289
1362,22.875,10.8125,22.875,-0.3706055,0.3349609,0.07128906,0.1499023,-0.3232422,-0.1806641
1366,16.6875,9.9375,26.125,-0.3862305,0.4711914,0.08251953,0.1474609,-0.3232422,-0.1796875
1370,8.375,8.5625,29.375,-0.4365234,0.4829102,0.01708984,0.1474609,-0.3242188,-0.1767578
1374,8.8125,3.1875,29.9375,-0.4169922,0.4477539,-0.03222656,0.1450195,-0.3242188,-0.1782227
1378,13.8125,3.5625,29.5,-0.3935547,0.3701172,-0.04394531,0.144043,-0.3305664,-0.175293
1383,20.375,3.8125,32,-0.3203125,0.3041992,-0.001464844,0.1416016,-0.3305664,-0.1767578
1387,18.125,7,44.0625,-0.2426758,0.3081055,0.06347656,0.1416016,-0.3305664,-0.1713867
1391,1.625,4.875,60.4375,-0.1806641,0.3081055,0.04443359,0.1342773,-0.3344727,-0.1728516
1395,-10.0625,-0.8125,78.125,-0.1728516,0.2651367,0.03271484,0.128418,-0.3378906,-0.1699219
1399,-20.375,-4.4375,90.1875,-0.230957,0.2768555,-0.07470703,0.1235352,-0.3393555,-0.1713867
1403,-24.8125,-13.875,86,-0.1611328,0.237793,-0.05126953,0.1166992,-0.3417969,-0.1738281
1407,-19.1875,-10.625,81.9375,0.08251953,0.1137695,0.009765625,0.1103516,-0.3417969,-0.1728516
1411,-17.8125,-5.4375,90.125,0.1445313,0.09814453,0.06738281,0.1044922,-0.3442383,-0.1782227
1415,-19.5625,-6.375,104.5625,0.1635742,0.01269531,-0.01660156,0.09619141,-0.3481445,-0.1782227
1419,-16.9375,-12.5,118.3125,0.2758789,0.04394531,-0.04003906,0.08691406,-0.3481445,-0.1796875
1423,-2.875,-11.8125,132.5,0.4116211,0.06689453,-0.09765625,0.07861328,-0.3530273,-0.1806641
1427,14.625,-11.4375,144.125,0.5087891,0.1953125,-0.04003906,0.06640625,-0.3544922,-0.1782227
1431,16.8125,-5.875,152.5,0.574707,0.4516602,0.04443359,0.05322266,-0.3579102,-0.1806641
1435,9.1875,-4.75,169,0.6557617,0.5214844,-0.05517578,0.04248047,-0.359375,-0.1796875
1439,13,-12.4375,179.4375,0.6518555,0.7314453,-0.04736328,0.02587891,-0.3618164,-0.1782227
1443,6,-14.0625,176.6875,0.675293,0.8671875,-0.1245117,0.008300781,-0.3657227,-0.175293
1447,-2.9375,-21.875,172.5,0.7216797,0.7973633,-0.1323242,-0.001953125,-0.3632813,-0.175293
1451,-1,-26.1875,180.25,0.8222656,0.6616211,-0.1206055,-0.02001953,-0.3618164,-0.1767578
1455,30.0625,-27.75,206.0625,0.9077148,0.5566406,-0.112793,-0.0390625,-0.359375,-0.175293
1459,79.4375,-18.375,216.8125,0.9853516,0.9682617,-0.02050781,-0.05322266,-0.3579102,-0.168457
1463,91.875,-1.5625,203.75,1.027832,1.504395,0.03271484,-0.07324219,-0.3569336,-0.1616211
1467,57.5625,0.375,184.25,0.8842773,1.757324,0.105957,-0.09033203,-0.3554688,-0.1538086
1471,7.5,-11.3125,173.125,0.9077148,1.628906,0.02490234,-0.1020508,-0.3544922,-0.1494141
1475,-14,-22.1875,163.0625,0.9462891,1.069336,-0.1552734,-0.1186523,-0.3457031,-0.1484375
1479,32.6875,-20.375,169.375,1.155762,0.8442383,-0.2016602,-0.1342773,-0.3378906,-0.1494141
1483,77.3125,2.5,171.5625,1.287598,1.057617,-0.1899414,-0.1435547,-0.3344727,-0.1425781
1487,75.8125,10.5,173.8125,1.09375,1.489258,-0.1669922,-0.1582031,-0.3291016,-0.137207
1491,48.875,-2,168.625,1.000488,1.59375,-0.2128906,-0.1733398,-0.3208008,-0.1318359
1495,30.25,-10.6875,151.75,0.9814453,1.356934,-0.1782227,-0.1831055,-0.3144531,-0.1303711
1499,53,-6.6875,143.0625,1.113281,1.135742,-0.1938477,-0.1938477,-0.3056641,-0.1235352
1503,77.25,3,135.3125,1.124512,1.298828,-0.1166992,-0.2055664,-0.296875,-0.1210938
1507,63.625,6.5,130.625,1.047363,1.438477,-0.09765625,-0.2104492,-0.2919922,-0.1166992
1512,43.5,-3.125,128.375,1.035645,1.376465,-0.112793,-0.21875,-0.2856445,-0.112793
1516,27.25,-4.25,126.4375,1.078125,1.275391,-0.09375,-0.2270508,-0.2744141,-0.1098633
1520,25.4375,-0.1875,122.0625,1.078125,1.158691,-0.1166992,-0.2329102,-0.2695313,-0.1088867
1524,27.375,10,117.1875,1.055176,1.189941,-0.2055664,-0.2402344,-0.2592773,-0.1088867
1528,34.9375,9.6875,110.75,0.9541016,1.205566,-0.3515625,-0.2470703,-0.2504883,-0.105957
1532,43.0625,0.5625,104.5625,0.9541016,1.287109,-0.3051758,-0.2509766,-0.2456055,-0.1044922
1536,45.5,0,97.5625,0.9658203,1.341309,-0.1977539,-0.2553711,-0.2382813,-0.1035156
1540,41,-2.375,94.0625,0.9462891,1.337402,-0.08203125,-0.2602539,-0.2319336,-0.1005859
1544,33.3125,-1.0625,89.5625,0.9697266,1.310547,-0.02441406,-0.2651367,-0.2294922,-0.09765625
1548,36,4.0625,84.1875,1.016113,1.236328,0.005859375,-0.2700195,-0.2207031,-0.09667969
1552,47,18.3125,76.6875,0.9931641,1.197754,-0.02050781,-0.2734375,-0.2158203,-0.09375
1556,58.625,29.0625,69.8125,0.8881836,1.283203,-0.06298828,-0.2768555,-0.2104492,-0.09375
1560,52.625,28.25,58.8125,0.7255859,1.384277,-0.1323242,-0.2783203,-0.2055664,-0.09228516
1564,38.1875,18.25,45.75,0.6713867,1.388184,-0.1245117,-0.2817383,-0.2016602,-0.09521484
1568,22.4375,11.25,31,0.7294922,1.236328,-0.05908203,-0.2817383,-0.1992188,-0.09375
1572,12.625,8.125,21.6875,0.7836914,1.057617,-0.001464844,-0.2827148,-0.1992188,-0.09228516
1576,5.25,9.0625,16.625,0.8378906,0.9492188,0.06347656,-0.2841797,-0.1982422,-0.09521484
1580,-5.0625,13.6875,11.375,0.8842773,0.8286133,0.09033203,-0.2817383,-0.1967773,-0.09375
1584,-16.75,17.8125,8.1875,0.8457031,0.7197266,0.04443359,-0.2851563,-0.1958008,-0.09521484
1588,-26.875,18.125,6.4375,0.7641602,0.6459961,-0.06298828,-0.2817383,-0.1933594,-0.09912109
1592,-30.125,13.9375,1.75,0.6479492,0.5488281,-0.2016602,-0.2827148,-0.1933594,-0.09912109
1596,-24.0625,5.6875,-4.8125,0.644043,0.4907227,-0.2553711,-0.2827148,-0.1933594,-0.1020508
1600,-12.125,3.625,-10.875,0.7060547,0.5019531,-0.2436523,-0.2841797,-0.1943359,-0.1020508
1604,-2.5625,5.5,-12.0625,0.7719727,0.6186523,-0.1977539,-0.2827148,-0.1958008,-0.1035156
1608,-2.8125,9.1875,-10.1875,0.7412109,0.8364258,-0.2397461,-0.2817383,-0.1943359,-0.1044922
1612,-13.1875,1.875,-9.8125,0.6674805,1.04248,-0.2900391,-0.2807617,-0.1967773,-0.105957
1616,-28.75,-14,-12.9375,0.6557617,1.228516,-0.2783203,-0.2807617,-0.1967773,-0.1035156
1620,-46.9375,-25.5625,-21.1875,0.7373047,1.388184,-0.2207031,-0.2817383,-0.1958008,-0.1044922
1624,-60.75,-26.125,-38.875,0.8110352,1.454102,-0.1708984,-0.2817383,-0.1967773,-0.1044922
1628,-61.625,-19.125,-61.4375,0.8842773,1.407715,-0.1513672,-0.2783203,-0.1982422,-0.105957
1632,-49.625,-8.5625,-76.6875,0.9038086,1.333496,-0.2324219,-0.2758789,-0.2045898,-0.1098633
1636,-23.625,-1,-89,0.9736328,1.283203,-0.3012695,-0.2744141,-0.2080078,-0.1113281
1641,5.25,2,-94.375,0.9775391,1.325684,-0.2744141,-0.2709961,-0.2143555,-0.1098633
1645,23,3.5,-102.1875,0.9970703,1.450195,-0.1938477,-0.2661133,-0.2231445,-0.1113281
1649,18.375,2.75,-103.9375,1.000488,1.628906,-0.112793,-0.2602539,-0.2329102,-0.1088867
1653,-3.6875,-1.9375,-110.5,0.9970703,1.72998,-0.128418,-0.2543945,-0.2368164,-0.1113281
1657,-28.5,-6.8125,-125.9375,1.043457,1.718262,-0.1708984,-0.2495117,-0.2470703,-0.1088867
1661,-39.125,-7.25,-142.25,1.155762,1.543457,-0.2055664,-0.2426758,-0.2568359,-0.1113281
1665,-49.375,-1.625,-152.8125,1.233398,1.512207,-0.1743164,-0.237793,-0.2631836,-0.1142578
1669,-63.3125,-2.3125,-164.5625,1.22168,1.399902,-0.2089844,-0.2255859,-0.2753906,-0.1181641
1673,-77.125,-7.875,-171.3125,1.244629,1.248047,-0.2089844,-0.2138672,-0.2841797,-0.1196289
1677,-78.75,-14.125,-174.8125,1.26416,1.01123,-0.1435547,-0.2055664,-0.2944336,-0.1235352
1681,-65.5,-10.3125,-178.5,1.306641,0.90625,-0.112793,-0.1948242,-0.3017578,-0.1279297
1685,-47.875,-4.875,-183.875,1.260254,0.8364258,-0.07861328,-0.1806641,-0.3154297,-0.1318359
1689,-34.9375,-4,-184.125,1.225586,0.8325195,-0.03613281,-0.1708984,-0.3178711,-0.137207
1693,-31.9375,-5.375,-181.4375,1.159668,0.8520508,0.009765625,-0.1567383,-0.3305664,-0.1401367
1697,-36.6875,-9.625,-178.3125,1.085938,0.8598633,0.04443359,-0.1411133,-0.3378906,-0.1416016
1701,-43.25,-11.8125,-172.0625,1.066406,0.7856445,0.04443359,-0.1318359,-0.3417969,-0.1455078
1705,-38,-5,-164.0625,1.066406,0.6772461,0.01367188,-0.1162109,-0.3466797,-0.1484375
1709,-24.1875,5.25,-154.625,0.9423828,0.6694336,-0.07470703,-0.1030273,-0.3530273,-0.1508789
1713,-8.8125,5.5625,-155.75,0.8457031,0.7856445,-0.1166992,-0.09228516,-0.3544922,-0.1523438
1717,-6.75,-1.25,-158.75,0.7138672,0.8442383,-0.09375,-0.078125,-0.3579102,-0.1547852
1721,-6.8125,-11.4375,-160.9375,0.7138672,0.7973633,-0.01660156,-0.06298828,-0.3632813,-0.1577148
1725,-11.5,-9.125,-159.625,0.8110352,0.777832,0.09033203,-0.05419922,-0.3632813,-0.15625
1729,-23.1875,-4.125,-151.75,0.7451172,0.6420898,0.1171875,-0.03759766,-0.3666992,-0.1577148
1733,-31.9375,-3.625,-137.5625,0.6132813,0.5058594,0.07910156,-0.0234375,-0.3681641,-0.1630859
1737,-23.75,-1.125,-125.375,0.543457,0.3818359,0.07910156,-0.01611328,-0.3706055,-0.1630859
1741,-5.625,6,-119.1875,0.4350586,0.3466797,0.08251953,-0.004394531,-0.3691406,-0.1630859
1745,9.875,8.8125,-112.75,0.3652344,0.3974609,0.07910156,0.006835938,-0.3681641,-0.1630859
1749,19.125,11.875,-106.125,0.3808594,0.3974609,0.105957,0.01513672,-0.3681641,-0.1645508
1753,20.6875,15.4375,-91.3125,0.3959961,0.5019531,0.04785156,0.02587891,-0.3681641,-0.1616211
1757,14.4375,21.875,-77.625,0.2646484,0.5058594,-0.09765625,0.03417969,-0.3691406,-0.1630859
1761,23.4375,15.375,-61.4375,0.09375,0.4868164,-0.1591797,0.03808594,-0.3706055,-0.1606445
1765,37.9375,4.5,-46.875,0.008789063,0.6459961,-0.09375,0.04492188,-0.3691406,-0.1577148
1770,35.875,-3,-44.8125,-0.04882813,0.8364258,-0.009277344,0.04882813,-0.371582,-0.1523438
1774,17.3125,-8.625,-51.6875,-0.1264648,0.9414063,0.07128906,0.05322266,-0.3706055,-0.1523438
1778,-4.75,-12.125,-72.75,-0.09130859,0.9296875,0.159668,0.05712891,-0.3691406,-0.1523438
1782,-20.625,-5.4375,-92,-0.02197266,0.7314453,0.1865234,0.06298828,-0.3691406,-0.1538086
1786,-29.625,1.6875,-99.6875,0.004882813,0.5175781,0.1518555,0.06982422,-0.3681641,-0.1538086
1790,-36.375,7.4375,-87.3125,0.07861328,0.3310547,0.105957,0.07861328,-0.3618164,-0.1577148
1794,-40.6875,11.25,-60.0625,0.03564453,0.21875,0.03271484,0.08544922,-0.3569336,-0.1616211
1798,-35.8125,7.125,-32.9375,-0.07617188,0.1484375,-0.05908203,0.09033203,-0.3554688,-0.1630859
1802,-17.9375,2.5625,-14.3125,-0.1225586,0.1640625,-0.05908203,0.09277344,-0.3544922,-0.1660156
1806,2.25,5.5,-5.875,-0.1499023,0.253418,-0.009277344,0.09130859,-0.3530273,-0.1674805
1810,14.1875,10.375,-5,-0.1689453,0.4321289,0.04443359,0.09277344,-0.3554688,-0.1660156
1814,10.1875,12.0625,-4.125,-0.2270508,0.5683594,0.07128906,0.09521484,-0.3544922,-0.1660156
1818,-1.125,6.875,1.3125,-0.2504883,0.5952148,0.04443359,0.09521484,-0.3544922,-0.1616211
1822,-6.5625,3.6875,5.625,-0.2119141,0.5913086,0.05175781,0.09619141,-0.3569336,-0.1630859
1826,-9.875,7.625,6.9375,-0.2001953,0.5527344,0.04052734,0.09521484,-0.3554688,-0.1645508
1830,-6.0625,8.3125,13.4375,-0.215332,0.4985352,-0.01318359,0.09619141,-0.3544922,-0.1645508
1834,-1.375,7.5,19.9375,-0.1884766,0.5175781,-0.03222656,0.09375,-0.3530273,-0.1645508
1838,2.5625,7.0625,27.4375,-0.2270508,0.5488281,-0.08203125,0.09277344,-0.3569336,-0.1660156
1842,4.0625,1.75,29.375,-0.2426758,0.5683594,-0.07861328,0.09033203,-0.3554688,-0.1660156
1846,3.375,-2.1875,31.5,-0.1611328,0.5410156,-0.005371094,0.09033203,-0.3554688,-0.1630859
1850,-1.125,-2.625,34.625,-0.1225586,0.4829102,0.06347656,0.08447266,-0.3569336,-0.1660156
1854,-2.375,-2.875,41.25,-0.03710938,0.4243164,0.105957,0.08203125,-0.359375,-0.1630859
1858,-11.25,-1.125,50.4375,0.05908203,0.4633789,0.125,0.07958984,-0.3579102,-0.1660156
1862,-29.5625,-0.25,70.75,0.07080078,0.5253906,0.05566406,0.07373047,-0.3603516,-0.1660156
1866,-52,-14,79.3125,-0.06445313,0.5527344,0.009765625,0.06787109,-0.359375,-0.1699219
1870,-68.75,-31.3125,74.75,-0.07226563,0.3935547,0.02099609,0.06054688,-0.359375,-0.1738281
1874,-58.25,-39.0625,66.625,0.07861328,0.09814453,0.04052734,0.0546875,-0.3569336,-0.1806641
1878,-13.3125,-28.75,64.9375,0.3457031,-0.1499023,0.05566406,0.04638672,-0.3569336,-0.1835938
1882,43.875,-8.875,86,0.5317383,-0.09960938,0.1171875,0.04150391,-0.3579102,-0.1835938
1886,62,12.875,124.0625,0.559082,0.3544922,0.06347656,0.03173828,-0.3603516,-0.1796875
1890,42.8125,14.375,145.0625,0.3535156,0.7666016,0.06738281,0.02148438,-0.3632813,-0.1738281
1894,15.125,1.0625,152.5625,0.2724609,0.7705078,-0.03613281,0.01171875,-0.3666992,-0.1728516
1899,18.125,-7.125,142.75,0.3613281,0.777832,0.02099609,-0.001953125,-0.3657227,-0.1713867
1903,26.5625,2.125,125.3125,0.4619141,0.855957,0.04785156,-0.01611328,-0.3666992,-0.1660156
1907,22.8125,11.5,116.6875,0.5395508,0.7705078,0.05566406,-0.0234375,-0.3657227,-0.1645508
1911,22.1875,13.5,140,0.6362305,0.855957,0.001953125,-0.03417969,-0.3657227,-0.1630859
1915,6.375,11.875,152.125,0.559082,1.04248,-0.09765625,-0.04833984,-0.3642578,-0.1591797
1919,-11.4375,-2.5,142.4375,0.3959961,0.9414063,-0.1669922,-0.05664063,-0.3618164,-0.1606445
1923,4.3125,-14.875,129.25,0.6518555,0.6772461,-0.1513672,-0.06982422,-0.3579102,-0.1591797
1927,37.75,-1,123,0.9423828,0.6538086,0.03271484,-0.08300781,-0.3554688,-0.1577148
1931,57.9375,24.125,140.5,1.016113,0.7587891,-0.02441406,-0.08886719,-0.3569336,-0.15625
1935,47.3125,26.9375,166.3125,0.8110352,1.073242,-0.1591797,-0.1030273,-0.3520508,-0.1523438
1939,29.5625,4,173.5,0.6132813,1.154785,-0.2822266,-0.1162109,-0.3466797,-0.1484375
1943,29.8125,-10.0625,163,0.7641602,1.112305,-0.2436523,-0.1293945,-0.3432617,-0.1455078
1947,36.875,-5.625,141.9375,0.8339844,1.088867,-0.1552734,-0.1425781,-0.3369141,-0.1416016
1951,37.1875,1.8125,127.6875,0.9541016,1.108398,-0.1245117,-0.1557617,-0.3305664,-0.137207
1955,22.1875,1.5625,126.9375,0.9970703,1.04248,-0.1166992,-0.1601563,-0.328125,-0.1357422
1959,7.75,-4.6875,143.4375,1.039551,0.8984375,-0.1323242,-0.1723633,-0.3217773,-0.1347656
1963,10.8125,-5.6875,164.375,1.105469,0.875,-0.1206055,-0.184082,-0.3120117,-0.1333008
1967,21.875,3.5,168.5625,1.101563,0.953125,-0.1474609,-0.1923828,-0.3032227,-0.1303711
1971,30.25,5.3125,159.625,1.023926,1.092773,-0.1513672,-0.203125,-0.2929688,-0.1279297
1975,42.6875,7,154.6875,1.035645,1.174316,-0.1708984,-0.2163086,-0.2817383,-0.1279297
1979,46.5,10.1875,151.6875,0.9619141,1.302734,-0.1821289,-0.2197266,-0.2753906,-0.125
1983,40.4375,2.4375,149.25,0.8999023,1.380371,-0.1630859,-0.2294922,-0.265625,-0.1235352
1987,33.0625,-4,151.0625,1.000488,1.376465,-0.08203125,-0.2412109,-0.2543945,-0.1196289
1991,14.3125,-1.3125,153.6875,0.9077148,1.426758,0.05566406,-0.2460938,-0.2470703,-0.1196289
1995,-15,-7.9375,137.0625,0.7060547,1.430664,-0.01318359,-0.2543945,-0.2358398,-0.1181641
1999,-26.9375,-21.3125,107.5,0.7875977,1.236328,-0.08203125,-0.2626953,-0.2246094,-0.1181641
2003,-9.625,-15.1875,83.75,1.078125,1.09668,-0.1166992,-0.2661133,-0.2182617,-0.1196289
2007,10.5,1.875,67.25,1.128418,1.124023,-0.109375,-0.2700195,-0.2094727,-0.1166992
2011,9.75,10.875,60.9375,1.02002,1.143066,-0.1166992,-0.2724609,-0.2045898,-0.1166992
2015,-2.125,5.9375,56.75,0.8999023,1.045898,-0.07861328,-0.2744141,-0.2016602,-0.1166992
2019,-15.25,3.875,52.0625,0.9116211,0.9335938,-0.05908203,-0.2768555,-0.1982422,-0.1181641
2023,-15.0625,2.6875,40.1875,0.9892578,0.7817383,-0.04394531,-0.2783203,-0.1933594,-0.1196289
2028,6.5625,4.4375,32.875,1.074219,0.6655273,-0.05517578,-0.2792969,-0.1894531,-0.1210938
2032,28.4375,8.375,35.6875,1.012207,0.7353516,-0.09375,-0.2792969,-0.1870117,-0.1196289
2036,41.6875,1.25,32.6875,0.8652344,0.7705078,-0.1015625,-0.2817383,-0.1845703,-0.1196289
2040,48.4375,-5.0625,32.4375,0.9619141,0.8129883,0.02490234,-0.2841797,-0.1831055,-0.1157227
2044,44.625,1.125,31.25,1.043457,0.875,0.1367188,-0.2841797,-0.1831055,-0.1157227
2048,36.1875,7.5,32.625,1.004395,0.9023438,0.1865234,-0.2841797,-0.1806641,-0.112793
2052,25.25,14,29.5625,0.9541016,0.9453125,0.1904297,-0.2851563,-0.1791992,-0.1113281
2056,12.125,16.3125,28.6875,0.8183594,1.022949,0.09814453,-0.2851563,-0.1757813,-0.1142578
2060,3.75,5.125,17.8125,0.6557617,1.06543,-0.01660156,-0.2866211,-0.1757813,-0.112793
2064,1.1875,-1.125,0.5,0.7641602,1.100586,0.02880859,-0.2866211,-0.1743164,-0.112793
2068,-2.125,1.1875,-10.5625,0.8378906,1.143066,0.05175781,-0.2866211,-0.1767578,-0.112793
2072,-11.9375,3.25,-15.6875,0.8574219,1.291016,0.02099609,-0.2890625,-0.1767578,-0.1142578
2076,-23,1.875,-23,0.8378906,1.376465,-0.04003906,-0.2851563,-0.1782227,-0.1181641
2080,-27.125,1.1875,-36.25,0.8261719,1.516113,-0.08984375,-0.2851563,-0.1791992,-0.1166992
2084,-23.625,-0.6875,-58.5625,0.7641602,1.539551,-0.1435547,-0.2817383,-0.1821289,-0.1196289
2088,-18,-0.5,-83.4375,0.7602539,1.55127,-0.2207031,-0.2807617,-0.1855469,-0.1181641
2092,-13.4375,-8.75,-108.0625,0.7680664,1.578613,-0.2167969,-0.2768555,-0.1933594,-0.1181641
2096,-17.875,-13.75,-126.1875,0.9272461,1.597656,-0.1743164,-0.2734375,-0.2016602,-0.1196289
2100,-27.0625,-15.5,-143,1.02002,1.508301,-0.1669922,-0.2685547,-0.2104492,-0.1196289
2104,-36.25,-20.625,-148.75,1.000488,1.39209,-0.309082,-0.2617188,-0.2207031,-0.1196289
2108,-37.25,-33.125,-158.125,1.031738,1.255859,-0.3286133,-0.2553711,-0.2319336,-0.1210938
2112,-39.375,-37.375,-170.5625,1.117188,1.186035,-0.3012695,-0.2509766,-0.2416992,-0.1196289
2116,-40.5625,-36.0625,-177.5,1.229492,1.007324,-0.2436523,-0.2402344,-0.2529297,-0.1196289
2120,-28.3125,-29.3125,-175.5,1.244629,0.8129883,-0.2089844,-0.2319336,-0.2670898,-0.1181641
2124,-14.75,-22,-172.1875,1.163574,0.8828125,-0.2128906,-0.2255859,-0.2768555,-0.1181641
2128,-13.0625,-25.75,-167,1.074219,1.019043,-0.2207031,-0.2128906,-0.2866211,-0.1181641
2132,-19.5625,-30.25,-165.4375,1.043457,1.120117,-0.1899414,-0.203125,-0.3007813,-0.1166992
2136,-29.875,-37,-169.625,1.016113,1.154785,-0.1821289,-0.1972656,-0.3081055,-0.1166992
2140,-42.5625,-37.0625,-173.875,1.09375,1.12793,-0.09375,-0.184082,-0.3168945,-0.1196289
2144,-58.75,-38.5625,-170.8125,1.066406,0.9995117,-0.0859375,-0.1708984,-0.328125,-0.1210938
2148,-65.6875,-44.3125,-160.5625,1.105469,0.8364258,-0.01660156,-0.1601563,-0.3320313,-0.1225586
2152,-71.25,-38.3125,-147.3125,1.085938,0.890625,0.02490234,-0.1494141,-0.3378906,-0.1289063
2157,-82.3125,-33.625,-139.25,1.012207,0.9140625,0.05175781,-0.1376953,-0.3442383,-0.1333008
2161,-89.625,-26.8125,-136.6875,0.9970703,0.824707,0.005859375,-0.1303711,-0.3432617,-0.137207
2165,-80.625,-20.375,-135.125,0.9619141,0.6845703,-0.01660156,-0.1186523,-0.3481445,-0.1425781
2169,-61.375,-9.4375,-134.5625,0.8535156,0.5913086,-0.08203125,-0.1079102,-0.3481445,-0.1508789
2173,-31.75,-3.6875,-133,0.7915039,0.5683594,-0.09765625,-0.09863281,-0.3520508,-0.1538086
2177,-18.0625,-1.1875,-122.5,0.6635742,0.7197266,-0.07470703,-0.08789063,-0.3530273,-0.15625
2181,-16.25,-5.625,-118.5,0.559082,0.824707,-0.01660156,-0.07568359,-0.3579102,-0.1577148
2185,-20.0625,-8.9375,-121.5625,0.5512695,0.8828125,0.01708984,-0.06884766,-0.3603516,-0.1577148
2189,-22.9375,-6.4375,-121.5625,0.5668945,0.875,0.08642578,-0.05810547,-0.3618164,-0.1616211
2193,-29.25,-1.125,-120.75,0.5239258,0.8051758,0.03271484,-0.04736328,-0.3657227,-0.1616211
2197,-34,-2.0625,-115,0.4619141,0.7001953,0.001953125,-0.04150391,-0.3657227,-0.1660156
2201,-34.75,-0.8125,-108.125,0.4467773,0.6030273,-0.02832031,-0.02832031,-0.3642578,-0.168457
2205,-32.4375,-1.5,-98.0625,0.2451172,0.4750977,-0.05908203,-0.01855469,-0.3657227,-0.1738281
2209,-25.25,-3.125,-99.8125,0.2875977,0.4985352,-0.1015625,-0.01171875,-0.3618164,-0.1738281
2213,-10.0625,-2.8125,-98.375,0.2685547,0.4282227,-0.05908203,-0.004394531,-0.3618164,-0.1782227
2217,-2.1875,0.625,-90.4375,0.2529297,0.5292969,0.04443359,0.004394531,-0.3642578,-0.1796875
2221,3.3125,4.0625,-81.1875,0.2490234,0.6108398,0.07128906,0.01074219,-0.3603516,-0.1767578
2225,1.25,8.5625,-70.1875,0.1557617,0.7080078,0.1328125,0.01904297,-0.3603516,-0.1782227
2229,-7.9375,10.0625,-67.1875,0.08251953,0.7353516,0.1171875,0.02587891,-0.359375,-0.1796875
2233,-14.4375,7.0625,-61.5625,0.02050781,0.6923828,0.06347656,0.03076172,-0.359375,-0.1796875
2237,-18.25,4.75,-56.3125,-0.01416016,0.7001953,0.05175781,0.03662109,-0.3579102,-0.1806641
2241,-21.6875,2.625,-51.4375,-0.05273438,0.6499023,0.01367188,0.04052734,-0.3554688,-0.1821289
2245,-16.9375,1.625,-47.5,-0.04492188,0.5644531,0.05957031,0.04492188,-0.3554688,-0.1835938
2249,-12.25,2.1875,-41.125,-0.06054688,0.5644531,0.05566406,0.04882813,-0.3530273,-0.1865234
2253,-11,-0.25,-35.75,-0.1069336,0.5527344,0.009765625,0.05224609,-0.3530273,-0.1875
2257,-1.75,-2.125,-35.125,-0.1264648,0.5136719,-0.009277344,0.0546875,-0.3520508,-0.1835938
2261,12.5,2.3125,-36.25,-0.09521484,0.5175781,0.02490234,0.05810547,-0.3505859,-0.1875
2265,20.5625,3.4375,-32.3125,-0.1186523,0.5913086,0.05175781,0.06054688,-0.3530273,-0.1850586
2269,18.9375,2.3125,-26,-0.1108398,0.6303711,0.1098633,0.06152344,-0.3544922,-0.1835938
2273,16.6875,5.125,-21.3125,-0.1381836,0.6420898,0.125,0.06542969,-0.3530273,-0.1835938
2277,17.3125,8.625,-18.0625,-0.1689453,0.7197266,0.1328125,0.06787109,-0.3544922,-0.1835938
2281,8.8125,8.625,-14.4375,-0.2119141,0.7973633,0.125,0.06884766,-0.3530273,-0.1821289
2286,-0.75,7.375,-10.125,-0.1845703,0.8325195,0.1289063,0.06982422,-0.3530273,-0.1782227
2290,-6.4375,5.9375,-8.25,-0.2192383,0.777832,0.07519531,0.07128906,-0.3544922,-0.1806641
2294,-1.4375,6.6875,-8.1875,-0.246582,0.7236328,0.03271484,0.07226563,-0.3530273,-0.1796875
2298,4.875,7,-7,-0.230957,0.793457,0.05957031,0.07373047,-0.3530273,-0.1796875
2302,4.5625,6,-6.1875,-0.2700195,0.875,0.08251953,0.07373047,-0.3544922,-0.1782227
2306,-0.5,4.25,-6.9375,-0.246582,0.8671875,0.09033203,0.07226563,-0.3520508,-0.1796875
2310,-0.4375,4.625,-4.0625,-0.2270508,0.8012695,0.07519531,0.07470703,-0.3505859,-0.1806641
2314,3.0625,5.5,-2.125,-0.2119141,0.7973633,0.08251953,0.07617188,-0.3530273,-0.1782227
2318,0.875,5.375,0,-0.2270508,0.7973633,0.105957,0.07617188,-0.3530273,-0.1767578
2322,-2,5.4375,5.875,-0.1806641,0.7431641,0.09423828,0.07714844,-0.3520508,-0.1782227
2326,-1.9375,7.6875,10.75,-0.1728516,0.7275391,0.09814453,0.07617188,-0.3530273,-0.1782227
2330,-3.4375,9,14.6875,-0.1962891,0.7119141,0.05175781,0.07714844,-0.3554688,-0.1782227
2334,-6.75,6.25,18.5,-0.2192383,0.6923828,0.02099609,0.07470703,-0.3530273,-0.1796875
2338,-9.0625,5.0625,20.6875,-0.1728516,0.6342773,0.02880859,0.07128906,-0.3530273,-0.1796875
2342,-16,2.75,23.625,-0.1381836,0.5605469,0.02880859,0.07128906,-0.3544922,-0.1796875
2346,-28.6875,-2.9375,28.5,-0.03710938,0.4052734,0.01367188,0.06982422,-0.3544922,-0.1835938
2350,-40.6875,-5.625,36.8125,0.09033203,0.1796875,0.001953125,0.06640625,-0.3530273,-0.1850586
2354,-42.375,-6.25,50,0.1674805,-0.1538086,-0.05908203,0.06542969,-0.3505859,-0.1850586
2358,-13.25,-3.4375,74.75,0.3266602,-0.3481445,-0.03613281,0.05712891,-0.3505859,-0.1904297
2362,10.75,8,98.1875,0.3305664,-0.1420898,-0.01318359,0.04980469,-0.3505859,-0.1918945
2366,9.25,6.75,115.75,0.2294922,0.1992188,-0.07470703,0.04638672,-0.3520508,-0.1889648
2370,-11.25,-4.625,120.625,0.1635742,0.4125977,-0.1206055,0.03662109,-0.3554688,-0.1889648
2374,-30.4375,-21.25,120.375,0.2724609,0.300293,-0.1513672,0.02490234,-0.3554688,-0.1904297
2378,-25.0625,-26.5,124.5,0.5048828,-0.01416016,-0.109375,0.01513672,-0.3544922,-0.1918945
2382,21.3125,-16.9375,145.125,0.6479492,-0.1655273,-0.0859375,0.003417969,-0.3544922,-0.1904297
2386,61.6875,-6,157.25,0.644043,0.1020508,-0.1015625,-0.01171875,-0.3544922,-0.1889648
2390,80,-3.1875,165.4375,0.7060547,0.4946289,-0.08984375,-0.02246094,-0.3554688,-0.1821289
2394,73.1875,-4.125,167.625,0.7255859,0.8129883,-0.04003906,-0.0390625,-0.3579102,-0.175293
2398,53.6875,-10.625,175.5,0.7758789,1.01123,0.03271484,-0.05322266,-0.359375,-0.1699219
2402,36.625,-8.5625,181.4375,0.8999023,0.9682617,0.04443359,-0.06396484,-0.3569336,-0.1674805
2406,40.8125,-4.4375,184,0.8959961,0.9335938,-0.02050781,-0.08300781,-0.3554688,-0.1616211
2410,61.625,1.125,181.25,1.023926,0.956543,-0.05517578,-0.09960938,-0.3505859,-0.1577148
2415,69.8125,11.3125,178.9375,1.078125,1.135742,-0.04736328,-0.1103516,-0.3466797,-0.1494141
2419,56.875,10.4375,182.875,1.02002,1.236328,-0.0859375,-0.1269531,-0.3442383,-0.1469727
2423,46.0625,5.25,189.125,1.101563,1.244141,-0.112793,-0.1391602,-0.3369141,-0.1416016
2427,37.625,2.9375,187.875,1.059082,1.317871,-0.1015625,-0.1518555,-0.3305664,-0.1386719
2431,39.4375,1.5,184.8125,1.16748,1.189941,-0.09375,-0.1674805,-0.3217773,-0.1357422
2435,53.1875,6.5625,178.625,1.213867,1.124023,-0.07861328,-0.1791992,-0.3120117,-0.1318359
2439,65.75,14.25,172.625,1.241211,1.20166,-0.06689453,-0.1923828,-0.3056641,-0.1279297
2443,62.4375,20,170.3125,1.209961,1.279297,-0.112793,-0.203125,-0.296875,-0.1225586
2447,57.125,19.3125,172.0625,1.13623,1.298828,-0.2436523,-0.215332,-0.2856445,-0.1210938
2451,55.4375,15.6875,167.125,1.09375,1.345215,-0.309082,-0.222168,-0.2783203,-0.1196289
2455,54.4375,10.5625,155.6875,1.09375,1.302734,-0.3359375,-0.2329102,-0.2670898,-0.1166992
2459,54.0625,4.8125,149.75,1.082031,1.279297,-0.3515625,-0.2426758,-0.2558594,-0.112793
2463,51.875,-1,143.5625,1.078125,1.205566,-0.3359375,-0.2470703,-0.2504883,-0.112793
2467,60.5625,-0.875,135.5625,1.117188,1.135742,-0.2978516,-0.2568359,-0.2392578,-0.1074219
2471,76.3125,4.625,127.5,1.097656,1.135742,-0.2861328,-0.2626953,-0.2294922,-0.1044922
2475,91.25,10.125,120.5625,1.070313,1.244141,-0.1977539,-0.2675781,-0.2246094,-0.1035156
2479,96.125,17.25,112.625,1.035645,1.364746,-0.112793,-0.2734375,-0.2158203,-0.09521484
2483,94.125,24.4375,101.75,1.027832,1.458008,-0.02050781,-0.2783203,-0.2070313,-0.09521484
2487,85.25,34.1875,92.5,1.031738,1.489258,-0.001464844,-0.2792969,-0.2045898,-0.09228516
2491,65.6875,38.5625,85.9375,0.9389648,1.55127,-0.005371094,-0.2817383,-0.1982422,-0.09228516
2495,45.5,34.6875,76.1875,0.8339844,1.477539,-0.07861328,-0.2866211,-0.1918945,-0.09375
2499,29,32.1875,65,0.7490234,1.422852,-0.1513672,-0.2875977,-0.1870117,-0.09228516
2503,16.75,26.3125,48,0.7060547,1.325684,-0.1782227,-0.2900391,-0.1821289,-0.09521484
2507,11.375,22.875,29,0.7490234,1.182129,-0.1435547,-0.2890625,-0.1806641,-0.09667969
2511,8.8125,23.75,12.1875,0.7758789,1.01123,-0.1054688,-0.2915039,-0.1791992,-0.09912109
2515,8.8125,24.5625,1.875,0.8183594,0.8286133,-0.1054688,-0.2890625,-0.1791992,-0.1020508
2519,2.9375,24.1875,0.25,0.8110352,0.6923828,-0.1630859,-0.2900391,-0.1767578,-0.1020508
2523,1.5625,20.375,5.5625,0.8496094,0.5488281,-0.2324219,-0.2915039,-0.1767578,-0.1044922
2527,8,15.4375,12.75,0.8183594,0.4946289,-0.2670898,-0.2890625,-0.1782227,-0.105957
2531,14.125,11.25,7.25,0.7529297,0.5253906,-0.3051758,-0.2900391,-0.1757813,-0.105957
2535,15,4.0625,-1.1875,0.7680664,0.5683594,-0.2514648,-0.2890625,-0.1767578,-0.105957
2539,10.625,-2.5,-9.5,0.7216797,0.6538086,-0.2055664,-0.2875977,-0.1782227,-0.105957
2544,1.3125,-8.1875,-15.3125,0.7719727,0.7856445,-0.1591797,-0.2890625,-0.1791992,-0.105957
2548,-10.25,-9.9375,-18.125,0.7216797,0.9101563,-0.2055664,-0.2890625,-0.1806641,-0.105957
2552,-15.5,-17.5,-21.3125,0.7138672,1.088867,-0.2285156,-0.2866211,-0.1806641,-0.1035156
2556,-20.25,-21.25,-28.5625,0.7333984,1.384277,-0.1513672,-0.2875977,-0.1845703,-0.1044922
2560,-43.125,-22.9375,-48,0.690918,1.675781,-0.1435547,-0.2875977,-0.1845703,-0.1020508
2564,-71.875,-29.4375,-73.125,0.7373047,1.78418,-0.2089844,-0.2841797,-0.1870117,-0.1035156
2568,-89.375,-32.375,-101.4375,0.8535156,1.65625,-0.3398438,-0.2807617,-0.1943359,-0.1035156
2572,-88.3125,-35.75,-122,0.9116211,1.512207,-0.4360352,-0.2817383,-0.1982422,-0.105957
2576,-79.8125,-39,-136.25,0.9619141,1.422852,-0.4707031,-0.2758789,-0.2055664,-0.1044922
2580,-67.125,-41.4375,-146.0625,1.023926,1.407715,-0.4746094,-0.2685547,-0.2182617,-0.105957
2584,-64.4375,-46.375,-159.5625,1.066406,1.500488,-0.4013672,-0.2661133,-0.2270508,-0.105957
2588,-74.875,-51.5625,-172.5,1.16748,1.469727,-0.34375,-0.2578125,-0.2358398,-0.1044922
2592,-81.8125,-54.25,-180.875,1.229492,1.345215,-0.2978516,-0.2495117,-0.2480469,-0.105957
2596,-77.3125,-53.6875,-185.0625,1.271973,1.228516,-0.2553711,-0.2436523,-0.2583008,-0.1074219
2600,-69.4375,-47.0625,-185.8125,1.326172,1.186035,-0.2246094,-0.234375,-0.2695313,-0.1088867
2604,-63.625,-44.375,-184.8125,1.279785,1.193848,-0.1743164,-0.2211914,-0.2817383,-0.1098633
2608,-66.8125,-42.375,-186.0625,1.29541,1.225098,-0.1054688,-0.215332,-0.2919922,-0.1088867
2612,-75.125,-40.0625,-185.5625,1.291504,1.209473,-0.07470703,-0.2006836,-0.3017578,-0.1113281
2616,-86.4375,-35.0625,-184.4375,1.279785,1.13916,-0.0859375,-0.1889648,-0.3129883,-0.1181641
2620,-87.1875,-32.1875,-182.8125,1.248535,1.003418,-0.09765625,-0.1791992,-0.3193359,-0.1210938
2624,-78.5,-25.4375,-181.1875,1.225586,0.921875,-0.112793,-0.1650391,-0.328125,-0.1264648
2628,-68.125,-20.0625,-181.1875,1.175293,0.9101563,-0.0859375,-0.1508789,-0.3344727,-0.1318359
2632,-65.75,-14.875,-178.5,1.140137,0.890625,-0.06298828,-0.1401367,-0.3393555,-0.1357422
2636,-65.3125,-11.375,-172.5625,1.066406,0.8286133,-0.06298828,-0.1235352,-0.3442383,-0.1401367
2640,-62,-7.625,-165.625,0.9970703,0.7431641,-0.06298828,-0.1113281,-0.3505859,-0.1484375
2644,-54.8125,-3.1875,-157.5625,0.9233398,0.7080078,-0.04736328,-0.1010742,-0.3530273,-0.1523438
2648,-50.8125,0.125,-147.375,0.8339844,0.7236328,-0.02832031,-0.08544922,-0.3554688,-0.1577148
2652,-52.375,1.9375,-142.1875,0.7333984,0.7705078,-0.005371094,-0.07324219,-0.359375,-0.1630859
2656,-60.75,0.375,-135.375,0.6518555,0.7856445,-0.005371094,-0.06396484,-0.3603516,-0.1645508
2660,-66.4375,-0.875,-129.9375,0.6171875,0.7041016,-0.009277344,-0.05224609,-0.3569336,-0.1728516
2664,-60.125,3.4375,-123.875,0.574707,0.6264648,-0.001464844,-0.04150391,-0.3569336,-0.1782227
2668,-53.25,7.0625,-118.8125,0.4814453,0.6459961,0.001953125,-0.03320313,-0.3569336,-0.1821289
2673,-52.375,8.625,-111.3125,0.4038086,0.6303711,-0.03222656,-0.02099609,-0.3530273,-0.1875
2677,-53.75,6.3125,-107.875,0.3305664,0.6225586,-0.03613281,-0.009277344,-0.3544922,-0.1904297
2681,-57.1875,3.4375,-105.75,0.2993164,0.5644531,-0.04003906,-0.003417969,-0.3505859,-0.1972656
2685,-53.4375,0.0625,-98.4375,0.2758789,0.4399414,-0.01318359,0.005859375,-0.3491211,-0.2026367
2689,-47,2.75,-92.5,0.2758789,0.3466797,0.02880859,0.01171875,-0.3442383,-0.2055664
2693,-37.0625,6.875,-81.75,0.2490234,0.2807617,0.04785156,0.02001953,-0.3432617,-0.206543
2697,-27.625,10.4375,-69.9375,0.2177734,0.269043,0.07128906,0.02587891,-0.3393555,-0.2109375
2701,-23.75,13.1875,-59.1875,0.1328125,0.3081055,0.04052734,0.03076172,-0.3393555,-0.2148438
2705,-22.3125,10.125,-50.5625,0.07470703,0.2885742,0.04052734,0.03662109,-0.3369141,-0.2148438
2709,-15.9375,9.0625,-41.875,0.06298828,0.2265625,0.05566406,0.04052734,-0.3369141,-0.2177734
2713,-4.1875,13.4375,-34.3125,0.06689453,0.237793,0.1098633,0.04492188,-0.3344727,-0.2177734
2717,2.0625,16.625,-26.125,0.004882813,0.3041992,0.1020508,0.04638672,-0.3344727,-0.2202148
2721,2.8125,15.5,-18,-0.03320313,0.3232422,0.09033203,0.05078125,-0.3344727,-0.2163086
2725,4.6875,14.125,-6.25,-0.002441406,0.3427734,0.08251953,0.05322266,-0.3354492,-0.2177734
2729,7.625,17.25,1.625,-0.01806641,0.3935547,0.07519531,0.05078125,-0.3320313,-0.2163086
2733,9.125,16.75,8.625,-0.09521484,0.4052734,0.04785156,0.05322266,-0.3354492,-0.2163086
2737,13.9375,13.1875,16.625,-0.1420898,0.4013672,0.04443359,0.05322266,-0.3354492,-0.2148438
2741,29.625,12.625,25.125,-0.1845703,0.4204102,0.03271484,0.05322266,-0.3354492,-0.2133789
2745,56.1875,12.5,28.75,-0.2001953,0.5722656,0.07128906,0.05224609,-0.3378906,-0.2119141
2749,68.875,16.125,27.1875,-0.2348633,0.840332,0.140625,0.05078125,-0.3417969,-0.2055664
2753,56.0625,14.4375,22.125,-0.2773438,1.112305,0.2021484,0.04882813,-0.3442383,-0.1987305
2757,24.125,4.75,14.6875,-0.3510742,1.174316,0.2021484,0.04882813,-0.3466797,-0.1958008
2761,-6.1875,-2.875,7.5625,-0.262207,1.04248,0.1904297,0.04882813,-0.3491211,-0.1958008
2765,-16.1875,-5,-0.1875,-0.2426758,0.7817383,0.1328125,0.04736328,-0.3491211,-0.1972656
2769,-10.6875,-3.9375,2.1875,-0.1533203,0.5449219,0.08642578,0.04638672,-0.3491211,-0.1958008
2773,2.5,-1.875,9.1875,-0.1069336,0.4555664,0.07128906,0.04492188,-0.3491211,-0.1972656
2777,18.9375,-0.6875,20.3125,-0.01416016,0.4438477,0.09814453,0.04492188,-0.3491211,-0.1972656
2781,25.75,2.75,31.0625,0.008789063,0.5410156,0.1367188,0.04248047,-0.3520508,-0.1943359
2785,19.5625,4.6875,40.625,-0.01806641,0.6264648,0.1328125,0.04052734,-0.3530273,-0.1928711
2789,7.75,2.375,46.125,0.004882813,0.6225586,0.1132813,0.03808594,-0.3530273,-0.1928711
2793,-2.3125,1.4375,51.6875,0.004882813,0.5605469,0.04443359,0.03417969,-0.3544922,-0.1889648
2797,-13.8125,-5.375,55.6875,0.02050781,0.4907227,-0.02441406,0.02832031,-0.3544922,-0.1918945
2802,-24.625,-14.375,58.1875,0.125,0.3623047,-0.06298828,0.02490234,-0.3520508,-0.1918945
2806,-27.9375,-17.8125,66.25,0.2412109,0.1367188,-0.07470703,0.01757813,-0.3520508,-0.1972656
2810,-7.3125,-18.9375,86.25,0.3691406,-0.06054688,-0.07861328,0.009277344,-0.3520508,-0.1958008
2814,19.4375,-11.625,105.5625,0.4541016,0.02050781,-0.01318359,0.004394531,-0.3520508,-0.1928711
2818,34.375,-5.375,118.125,0.4853516,0.2495117,0.02880859,-0.005859375,-0.3505859,-0.1928711
2822,29.875,-1.375,124.375,0.5356445,0.4477539,0.06347656,-0.01757813,-0.3530273,-0.1889648
2826,13.875,-2.25,131.3125,0.5629883,0.4750977,0.03271484,-0.02490234,-0.3554688,-0.1889648
2830,6.1875,-7.1875,139.9375,0.6210938,0.4633789,-0.009277344,-0.03515625,-0.3530273,-0.1875
2834,5.1875,-8.75,148.875,0.6982422,0.4086914,-0.09375,-0.05078125,-0.3505859,-0.1865234
2838,22.25,-10.875,157.5,0.7333984,0.3623047,-0.1552734,-0.06152344,-0.3505859,-0.1865234
2842,41.6875,-12,163.8125,0.8261719,0.4086914,-0.1860352,-0.07470703,-0.3457031,-0.1821289
2846,56.4375,-13.5,170.5,0.9350586,0.5488281,-0.1435547,-0.08886719,-0.3442383,-0.1767578
2850,61.875,-11.6875,177.6875,1.05127,0.6694336,-0.1323242,-0.09960938,-0.3442383,-0.1738281
2854,66.0625,-6.8125,183.9375,1.117188,0.7353516,-0.09765625,-0.1162109,-0.3393555,-0.1660156
2858,79.4375,2.0625,191.6875,1.159668,0.8598633,-0.1782227,-0.1342773,-0.3344727,-0.1591797
2862,88.1875,4.5,191.3125,1.124512,1.053711,-0.2514648,-0.1435547,-0.3291016,-0.1547852
2866,81.0625,-0.9375,191.875,1.140137,1.251953,-0.2670898,-0.1582031,-0.3232422,-0.1469727
2870,62.4375,-10.125,190.3125,1.151855,1.271484,-0.2514648,-0.1757813,-0.3154297,-0.1401367
2874,48.625,-14.75,189.125,1.202148,1.193848,-0.1860352,-0.1855469,-0.3081055,-0.1357422
2878,56.875,-15.75,192.5625,1.326172,1.09668,-0.1245117,-0.2006836,-0.296875,-0.1303711
2882,70.75,-1.375,192.9375,1.364746,1.225098,-0.0859375,-0.215332,-0.2841797,-0.1235352
2886,77.4375,6.8125,182.6875,1.202148,1.364746,-0.1474609,-0.2236328,-0.2753906,-0.1235352
2890,75.9375,5.25,172.0625,1.209961,1.477539,-0.1860352,-0.234375,-0.2641602,-0.1157227
2894,61.6875,2.625,166.875,1.217773,1.562988,-0.1513672,-0.2446289,-0.2529297,-0.112793
2898,47.875,-0.0625,157.1875,1.206055,1.516113,-0.1591797,-0.2519531,-0.2470703,-0.1098633
2902,43.25,-0.25,145.0625,1.198242,1.380371,-0.1743164,-0.2592773,-0.2329102,-0.1074219
2906,51.125,-0.9375,135.0625,1.213867,1.236328,-0.1708984,-0.2685547,-0.2216797,-0.105957
2910,68.25,7,127.125,1.299316,1.174316,-0.1166992,-0.2724609,-0.2167969,-0.1044922
2914,81.0625,19.75,123.125,1.306641,1.174316,-0.08984375,-0.2768555,-0.2055664,-0.1020508
2918,87.125,29.4375,119.4375,1.22168,1.213379,-0.1054688,-0.2827148,-0.1967773,-0.09912109
2922,89.125,35.6875,113.4375,1.140137,1.20166,-0.1435547,-0.2851563,-0.1904297,-0.09765625
2926,93.875,39.4375,105.125,1.059082,1.213379,-0.1977539,-0.2890625,-0.1845703,-0.09765625
2931,93.9375,40.9375,95.8125,0.9697266,1.298828,-0.1860352,-0.2924805,-0.1757813,-0.09667969
2935,76.75,39.125,83,0.8417969,1.426758,-0.1435547,-0.2924805,-0.1694336,-0.09667969
2939,48.0625,30.75,71,0.690918,1.411133,-0.1552734,-0.2949219,-0.1655273,-0.09912109
2943,26.4375,20.8125,52.3125,0.659668,1.294922,-0.1474609,-0.2973633,-0.1606445,-0.09765625
2947,18.0625,15.6875,30.25,0.7099609,1.077148,-0.109375,-0.2973633,-0.1591797,-0.1005859
2951,22.125,18.125,10.3125,0.7719727,1.003418,-0.009277344,-0.2973633,-0.1591797,-0.1020508
2955,31.8125,32.625,-21,0.7875977,0.8598633,0.001953125,-0.2958984,-0.1591797,-0.09912109
2959,37.9375,37.75,-29.875,0.7954102,0.8481445,-0.001464844,-0.2958984,-0.1591797,-0.1035156
2963,26.5625,32.125,-22,0.7836914,0.777832,-0.0859375,-0.293457,-0.1645508,-0.1044922
2967,15,19.3125,-7.0625,0.7836914,0.6538086,-0.128418,-0.293457,-0.1655273,-0.1088867
2971,6.5,4.625,2.75,0.7915039,0.6225586,-0.2207031,-0.2924805,-0.1679688,-0.1074219
2975,6.6875,-4.75,4.75,0.7915039,0.7470703,-0.1435547,-0.2924805,-0.1669922,-0.1088867
2979,4.625,-3.8125,-1.5625,0.7758789,0.9643555,-0.09375,-0.293457,-0.1669922,-0.1074219
2983,3.6875,2.8125,-18.125,0.6982422,1.255859,-0.112793,-0.293457,-0.1655273,-0.1074219
2987,-2.875,0.3125,-39.0625,0.6674805,1.516113,-0.1245117,-0.2924805,-0.1704102,-0.1088867
2991,-20.1875,-3.125,-55.9375,0.7099609,1.718262,-0.1362305,-0.2915039,-0.1704102,-0.105957
2995,-47.3125,-10.75,-74.6875,0.7333984,1.862305,-0.2016602,-0.2890625,-0.1767578,-0.1074219
2999,-73.8125,-19.5625,-100.125,0.7915039,1.823242,-0.3359375,-0.2866211,-0.1831055,-0.1098633
3003,-82.125,-26.1875,-126.75,0.9272461,1.605469,-0.4321289,-0.2817383,-0.1904297,-0.1113281
3007,-77.4375,-31.9375,-148.5625,1.039551,1.430664,-0.4863281,-0.2792969,-0.1967773,-0.112793
3011,-65,-36,-162.375,1.147949,1.310547,-0.4594727,-0.2724609,-0.2094727,-0.112793
3015,-59.3125,-38.3125,-169.0625,1.194336,1.317871,-0.3974609,-0.2651367,-0.2207031,-0.112793
3019,-64,-44.4375,-174.875,1.171387,1.341309,-0.378418,-0.2602539,-0.2280273,-0.1098633
3023,-69.375,-49,-183.5,1.202148,1.294922,-0.3823242,-0.2519531,-0.2416992,-0.112793
3027,-65.0625,-50.6875,-194.375,1.26416,1.213379,-0.3632813,-0.2446289,-0.2543945,-0.1113281
3031,-56.6875,-47,-201.25,1.318359,1.150879,-0.3168945,-0.2363281,-0.2641602,-0.112793
3035,-53.5,-45,-202.625,1.302734,1.17041,-0.2783203,-0.2236328,-0.2783203,-0.1142578
3039,-55.6875,-44.625,-202.0625,1.302734,1.154785,-0.2285156,-0.2114258,-0.2919922,-0.1142578
3043,-59.1875,-43.875,-198,1.29541,1.104492,-0.1899414,-0.2021484,-0.2993164,-0.1166992
3047,-56.125,-40.6875,-191.75,1.306641,1.061523,-0.08984375,-0.1899414,-0.3120117,-0.1166992
3051,-55.4375,-33.0625,-185.8125,1.260254,1.135742,-0.02050781,-0.1757813,-0.3232422,-0.1210938
3055,-63.75,-27.9375,-182.9375,1.237305,1.225098,0.02490234,-0.1665039,-0.328125,-0.1235352
3060,-74.0625,-21.875,-183.5,1.171387,1.189941,-0.01318359,-0.1494141,-0.3369141,-0.1289063
3064,-73.1875,-17.375,-186.0625,1.124512,1.06543,-0.1206055,-0.1342773,-0.3442383,-0.1347656
3068,-61.5,-16.4375,-187.375,1.09375,0.9995117,-0.1513672,-0.1235352,-0.3466797,-0.137207
3072,-55.125,-12.6875,-187,1.039551,0.9995117,-0.1513672,-0.1054688,-0.3554688,-0.1455078
3076,-51.875,-14.6875,-183.8125,0.9775391,0.9257813,-0.09765625,-0.09130859,-0.3569336,-0.1494141
3080,-45.5625,-9.75,-179.0625,0.9853516,0.9140625,-0.02832031,-0.07958984,-0.359375,-0.1523438
3084,-44.9375,-3.9375,-176.6875,0.8652344,0.875,-0.04003906,-0.06396484,-0.3618164,-0.1547852
3088,-44.8125,-4.125,-170.5,0.7758789,0.8168945,-0.05908203,-0.04589844,-0.3632813,-0.1606445
3092,-40.5625,-4.25,-166.25,0.7216797,0.7856445,-0.04736328,-0.03759766,-0.3642578,-0.1645508
3096,-38.8125,-0.25,-162,0.6518555,0.7739258,-0.02050781,-0.02246094,-0.3642578,-0.168457
3100,-47.6875,-1.9375,-152.8125,0.574707,0.7705078,0.009765625,-0.005859375,-0.3642578,-0.1713867
3104,-63.8125,-4.5625,-143.625,0.5239258,0.7509766,0.001953125,0.0009765625,-0.3632813,-0.1767578
3108,-72.5,-7.0625,-137.375,0.4775391,0.5913086,-0.02832031,0.01513672,-0.3569336,-0.1835938
3112,-69.875,-5.0625,-131.25,0.4233398,0.4477539,-0.04736328,0.02832031,-0.3544922,-0.1918945
3116,-62.6875,-2.75,-126,0.3730469,0.3544922,-0.04736328,0.03564453,-0.3520508,-0.1943359
3120,-60.125,-2.875,-121,0.3305664,0.2651367,-0.02832031,0.04638672,-0.3466797,-0.199707
3124,-62.625,-1.125,-108.125,0.3110352,0.1601563,-0.04003906,0.05566406,-0.3417969,-0.2055664
3128,-63.75,-2.9375,-94.25,0.2216797,0.05517578,-0.06689453,0.06152344,-0.3354492,-0.2094727
3132,-56.6875,-6.4375,-78.375,0.125,-0.1035156,-0.09765625,0.06982422,-0.3305664,-0.2133789
3136,-37.25,-4.75,-64.75,0.109375,-0.2006836,-0.05908203,0.07470703,-0.3266602,-0.2202148
3140,-9.625,0.9375,-49.5,0.05517578,-0.2084961,0.009765625,0.07861328,-0.3256836,-0.2216797
3144,9.1875,5.6875,-34,-0.02978516,-0.02587891,0.105957,0.08056641,-0.3242188,-0.2202148
3148,15.1875,7.125,-21,-0.09130859,0.1333008,0.159668,0.08300781,-0.3232422,-0.21875
3152,13.125,8.5625,-10.4375,-0.1030273,0.300293,0.2441406,0.08544922,-0.3242188,-0.21875
3156,1.5,11.0625,-0.5,-0.1030273,0.4985352,0.2944336,0.08544922,-0.3242188,-0.2177734
3160,-13.4375,9.875,6.25,-0.1767578,0.5683594,0.2519531,0.08544922,-0.3242188,-0.2177734
3164,-16.375,7.3125,10.25,-0.2270508,0.5175781,0.2133789,0.08691406,-0.3232422,-0.21875
3168,-2.4375,11.6875,12.6875,-0.215332,0.4907227,0.2021484,0.08789063,-0.3217773,-0.2202148
3172,19.1875,16.5625,12.9375,-0.246582,0.5488281,0.1982422,0.08789063,-0.3242188,-0.21875
3176,33.0625,20.9375,13.5,-0.2929688,0.7314453,0.2133789,0.08789063,-0.3256836,-0.21875
3180,31.8125,19.75,13.25,-0.362793,0.9453125,0.2172852,0.08691406,-0.328125,-0.2148438
3184,18.75,12.75,10.25,-0.3974609,1.026855,0.2094727,0.08691406,-0.3305664,-0.2109375
3189,5.625,7.9375,5.375,-0.3862305,1.007324,0.2094727,0.08789063,-0.3320313,-0.2094727
3193,-0.75,6.5,1.75,-0.3354492,0.9023438,0.1826172,0.08691406,-0.3320313,-0.2080078
3197,1.1875,5.4375,0.75,-0.3125,0.809082,0.1943359,0.08691406,-0.3320313,-0.2109375
3201,7.5625,9.4375,2.1875,-0.2700195,0.7626953,0.1865234,0.08544922,-0.3305664,-0.2080078
3205,10.4375,10.5,7.5625,-0.3007813,0.793457,0.1635742,0.08886719,-0.3305664,-0.2080078
3209,12.4375,9.1875,11.75,-0.2890625,0.7856445,0.1479492,0.08691406,-0.3320313,-0.206543
3213,17.0625,9.625,13.375,-0.2890625,0.824707,0.1674805,0.08691406,-0.3320313,-0.2041016
3217,14,10.4375,12.8125,-0.3125,0.9296875,0.1713867,0.08789063,-0.3344727,-0.2041016
3221,7,6.1875,12.75,-0.347168,0.9257813,0.144043,0.08544922,-0.3344727,-0.2026367
3225,3.625,3.3125,12.9375,-0.3007813,0.9023438,0.1479492,0.08300781,-0.3354492,-0.2041016
3229,1.625,2.625,12.625,-0.2661133,0.855957,0.1518555,0.08447266,-0.3369141,-0.2041016
3233,0,1.5625,14.6875,-0.2504883,0.8012695,0.1557617,0.08447266,-0.3369141,-0.199707
3237,-0.6875,2.375,16.75,-0.2001953,0.7739258,0.1748047,0.08300781,-0.3369141,-0.2041016
3241,0.625,3.25,21.625,-0.215332,0.7041016,0.1210938,0.07958984,-0.3378906,-0.2026367
3245,6.9375,4.5,26.5,-0.2001953,0.6923828,0.140625,0.07958984,-0.3408203,-0.2026367
3249,11.3125,6.4375,26.75,-0.1884766,0.7001953,0.1518555,0.07861328,-0.3378906,-0.2011719
3253,9.75,8,25.75,-0.1342773,0.6845703,0.1826172,0.07714844,-0.3408203,-0.2011719
3257,-0.875,8,27.1875,-0.08398438,0.6303711,0.1865234,0.07373047,-0.3408203,-0.199707
3261,-21.5625,4.125,35.375,-0.06054688,0.5449219,0.1132813,0.07226563,-0.3408203,-0.199707
3265,-47.625,-7.5,47.1875,-0.1420898,0.4052734,-0.03222656,0.07128906,-0.3393555,-0.2011719
3269,-56.75,-26.0625,57.375,-0.06445313,0.1914063,-0.1054688,0.06542969,-0.3369141,-0.2080078
3273,-44.75,-35.3125,61.1875,0.1484375,0.06298828,-0.04003906,0.06054688,-0.3393555,-0.2109375
3277,-27.0625,-32.1875,62.6875,0.3339844,0.01660156,0.05175781,0.05224609,-0.3354492,-0.2133789
3281,-16.125,-25.0625,72.3125,0.5087891,0.004882813,0.1904297,0.04492188,-0.3344727,-0.2148438
3285,-1.4375,-12.0625,98.3125,0.5473633,-0.1113281,0.2172852,0.04150391,-0.3354492,-0.2177734
3289,22.1875,-0.6875,129.0625,0.5161133,0.04003906,0.1479492,0.02978516,-0.3393555,-0.2163086
3293,42.6875,1.75,144.4375,0.4506836,0.3232422,0.05957031,0.02001953,-0.3408203,-0.2109375
3297,54.875,0,149.5,0.4272461,0.5644531,0.04785156,0.01074219,-0.3442383,-0.2094727
3301,58.75,0,147.4375,0.5200195,0.7470703,0.08642578,-0.003417969,-0.3466797,-0.206543
3305,60.875,6.5,145.5,0.5356445,0.6538086,0.125,-0.01757813,-0.3491211,-0.199707
3309,74.9375,14.8125,154.6875,0.5200195,0.7275391,0.09033203,-0.02490234,-0.3505859,-0.1943359
3313,77.5625,20.375,159.375,0.5512695,0.9414063,0.04443359,-0.03662109,-0.3530273,-0.1889648
3318,64,16.9375,159.9375,0.543457,1.077148,-0.005371094,-0.05078125,-0.3520508,-0.1806641
3322,45.25,7.5625,156.5625,0.6210938,1.12793,-0.009277344,-0.06054688,-0.3530273,-0.1767578
3326,31.125,5.0625,152.8125,0.7216797,1.003418,-0.07861328,-0.07470703,-0.3505859,-0.1728516
3330,24.75,5.125,155.4375,0.7373047,0.9414063,-0.1821289,-0.08789063,-0.3466797,-0.1699219
3334,22.25,-5.8125,159.125,0.6982422,0.7856445,-0.3325195,-0.09619141,-0.3457031,-0.168457
3338,40.5625,-16.125,163.1875,0.8261719,0.6772461,-0.324707,-0.1103516,-0.3393555,-0.1660156
3342,76.0625,-12.6875,159.875,0.9697266,0.6030273,-0.2822266,-0.1259766,-0.3369141,-0.1591797
3346,115.3125,2.8125,154.6875,1.066406,0.7895508,-0.1513672,-0.1352539,-0.3344727,-0.1538086
3350,123.6875,15.5625,156,1.132324,1.104492,-0.04003906,-0.1484375,-0.3305664,-0.1425781
3354,100.1875,19.125,164.75,1.023926,1.388184,0.009765625,-0.1601563,-0.3256836,-0.1357422
3358,52.8125,8.4375,168.5,0.9077148,1.516113,-0.05517578,-0.1723633,-0.3217773,-0.1303711
3362,26.25,-6.625,161.9375,0.9311523,1.302734,-0.109375,-0.184082,-0.3120117,-0.1279297
3366,26.3125,-7.875,151.75,1.043457,1.189941,-0.109375,-0.1962891,-0.3032227,-0.1235352
3370,22.5,-2.75,151,1.101563,1.186035,-0.109375,-0.2045898,-0.2954102,-0.1225586
3374,9.375,-5.9375,156.0625,1.039551,1.209473,-0.1669922,-0.2138672,-0.2866211,-0.1210938
3378,-1.375,-15.8125,157.0625,0.9501953,1.174316,-0.2939453,-0.2246094,-0.2744141,-0.1196289
3382,0.3125,-26.3125,152.6875,0.9970703,1.081055,-0.3286133,-0.2329102,-0.2641602,-0.1196289
3386,15,-24.125,145.6875,1.039551,1.015137,-0.3359375,-0.2436523,-0.2519531,-0.1166992
3390,43.25,-20.375,134.4375,1.031738,0.9682617,-0.4052734,-0.2519531,-0.2416992,-0.1142578
3394,79.125,-21.9375,121.6875,1.085938,1.022949,-0.3706055,-0.2568359,-0.2358398,-0.1074219
3398,110.75,-13.5,112.25,1.206055,1.081055,-0.2705078,-0.2617188,-0.2280273,-0.1020508
3402,131.25,2.375,107.8125,1.260254,1.228516,-0.2397461,-0.2685547,-0.2207031,-0.09667969
3406,141.8125,14.5,108.6875,1.151855,1.364746,-0.2514648,-0.2724609,-0.2182617,-0.09228516
3410,137.3125,16.5,111.9375,0.9931641,1.481445,-0.2744141,-0.2768555,-0.2119141,-0.08447266
3414,121.5625,8.5625,113.1875,0.8769531,1.535645,-0.2705078,-0.2841797,-0.2045898,-0.07763672
3418,103.1875,2.75,110.5625,0.8999023,1.473633,-0.2207031,-0.2875977,-0.1992188,-0.07470703
3422,88,2.9375,101.4375,0.9194336,1.36084,-0.1782227,-0.2900391,-0.1904297,-0.07177734
3426,78.5,13,83.125,0.9155273,1.407715,-0.03222656,-0.2973633,-0.1831055,-0.06640625
3430,37.625,38.8125,-2.375,0.578125,2.724609,0.2597656,-0.2958984,-0.1782227,-0.06542969
3434,-5.5,38.5625,-52.5,0.7797852,1.780273,-0.005371094,-0.2973633,-0.1831055,-0.06787109
3438,-25.0625,37.125,-49.6875,0.8496094,0.9799805,-0.2939453,-0.2924805,-0.1879883,-0.07080078
3442,-25.0625,35.0625,-20.9375,0.8803711,0.5410156,-0.3901367,-0.2900391,-0.1894531,-0.07617188
3447,-21.1875,28.375,0.25,0.7954102,0.4086914,-0.378418,-0.2900391,-0.1894531,-0.08007813
