Packet number,Gyroscope X (deg/s),Gyroscope Y (deg/s),Gyroscope Z (deg/s),Accelerometer X (g),Accelerometer Y (g),Accelerometer Z (g),Magnetometer X (G),Magnetometer Y (G),Magnetometer Z (G)
0,2.25,-2.75,-2.4375,-0.9208984,-0.2900391,-0.05126953,0.2856445,0.05859375,-0.1142578
4,2.8125,-2.375,-2.5625,-0.9208984,-0.2861328,-0.07470703,0.2856445,0.05761719,-0.112793
8,2.375,-1.5625,-2.6875,-0.9326172,-0.2783203,-0.06298828,0.2866211,0.05761719,-0.112793
12,1.875,-0.875,-2.375,-0.9365234,-0.2861328,-0.06298828,0.2841797,0.05761719,-0.1142578
16,1.6875,-0.6875,-0.9375,-0.9399414,-0.2783203,-0.04736328,0.2841797,0.05615234,-0.1157227
20,1.8125,-0.1875,0.625,-0.9365234,-0.2822266,-0.06689453,0.2856445,0.05859375,-0.112793
24,2,0.125,1.375,-0.9169922,-0.2939453,-0.06298828,0.2856445,0.05761719,-0.1157227
28,2.6875,0.9375,1.0625,-0.9208984,-0.3017578,-0.05517578,0.2841797,0.05517578,-0.1157227
32,2.8125,1.4375,1.1875,-0.9248047,-0.2939453,-0.06298828,0.2856445,0.05615234,-0.1142578
36,2.5625,1.875,0.75,-0.9326172,-0.2861328,-0.05517578,0.2856445,0.05517578,-0.1157227
40,2.125,2.25,0.25,-0.9287109,-0.2861328,-0.05517578,0.2866211,0.05615234,-0.1157227
44,2,2.1875,0.375,-0.9399414,-0.2900391,-0.04394531,0.2856445,0.05615234,-0.1142578
48,1.8125,2.25,1,-0.9399414,-0.2900391,-0.05517578,0.2866211,0.05615234,-0.1157227
52,0.875,1.75,1.3125,-0.9438477,-0.2822266,-0.05517578,0.2866211,0.05615234,-0.112793
56,0.5625,0.5,1.5,-0.9399414,-0.2861328,-0.04736328,0.2866211,0.05517578,-0.1142578
60,0.625,0.0625,1.1875,-0.9287109,-0.3017578,-0.05908203,0.2866211,0.05615234,-0.1157227
64,-0.3125,-0.3125,-0.25,-0.9399414,-0.2978516,-0.05517578,0.2880859,0.05615234,-0.1142578
68,-2.0625,-0.5625,-0.6875,-0.9399414,-0.3017578,-0.05517578,0.2866211,0.05761719,-0.1142578
72,-3,-2.1875,-2.125,-0.9438477,-0.3134766,-0.05517578,0.2856445,0.05615234,-0.1142578
76,-3.9375,-2.25,-3.375,-0.9248047,-0.3134766,-0.06298828,0.2856445,0.05761719,-0.1157227
81,-4.4375,-1.4375,-3.625,-0.9326172,-0.3208008,-0.07470703,0.2866211,0.05761719,-0.1157227
85,-3.5,-1.6875,-4.25,-0.9326172,-0.3520508,-0.07470703,0.2856445,0.05615234,-0.1142578
89,0.0625,-3.1875,-6.5625,-0.9399414,-0.3950195,-0.05908203,0.2856445,0.05859375,-0.1142578
93,4.625,-4.3125,-9.875,-0.9248047,-0.4375,-0.06298828,0.2841797,0.05859375,-0.1142578
97,10.5625,-4.0625,-13.6875,-0.9326172,-0.4609375,-0.06689453,0.2856445,0.05859375,-0.1157227
101,16.75,-1.0625,-13.625,-0.9365234,-0.4609375,-0.07470703,0.2856445,0.0625,-0.112793
105,20.3125,0.5,-12.625,-0.9399414,-0.4804688,-0.09765625,0.2832031,0.0625,-0.1181641
109,21.125,1,-15.625,-0.8974609,-0.484375,-0.1245117,0.2856445,0.06396484,-0.1181641
113,20.25,2.0625,-19.5,-0.8818359,-0.5151367,-0.1323242,0.2856445,0.06640625,-0.1181641
117,22.9375,2.5,-25.1875,-0.8706055,-0.550293,-0.109375,0.2832031,0.06884766,-0.1210938
121,27.375,4.3125,-28.75,-0.8706055,-0.5737305,-0.1166992,0.2832031,0.06884766,-0.1225586
125,29.8125,5.0625,-31.3125,-0.8666992,-0.5737305,-0.1323242,0.2817383,0.07128906,-0.125
129,27,8.5625,-34.0625,-0.8510742,-0.5581055,-0.1591797,0.2807617,0.07373047,-0.125
133,20.8125,10.5,-39.125,-0.8706055,-0.5854492,-0.1591797,0.2792969,0.07519531,-0.1264648
137,13.125,8.5,-46.8125,-0.8549805,-0.6357422,-0.1630859,0.2773438,0.07763672,-0.1279297
141,7.4375,10.4375,-54.3125,-0.862793,-0.7172852,-0.1591797,0.2749023,0.08251953,-0.1279297
145,-0.125,14,-59.4375,-0.9013672,-0.7563477,-0.1401367,0.2734375,0.08642578,-0.1264648
149,-10.375,9.0625,-64.6875,-0.9326172,-0.8261719,-0.1474609,0.2709961,0.09130859,-0.125
153,-17,5.0625,-67.25,-0.9013672,-0.9775391,-0.1323242,0.269043,0.09765625,-0.1279297
157,-13.4375,8.75,-74.9375,-0.8393555,-0.9658203,-0.05517578,0.2641602,0.1035156,-0.125
161,-4.125,11.8125,-74.9375,-0.7851563,-1.34668,-0.112793,0.2626953,0.1064453,-0.1235352
165,18.75,19.6875,-89,-0.7734375,-1.556641,-0.112793,0.2592773,0.1162109,-0.125
169,42.875,27.4375,-106.0625,-0.8237305,-1.533203,-0.1435547,0.2558594,0.1201172,-0.1225586
173,52.0625,29.75,-122.1875,-0.9248047,-1.432129,-0.2285156,0.2519531,0.1289063,-0.1225586
177,48,26.875,-135.3125,-0.9829102,-1.416504,-0.2324219,0.2460938,0.1376953,-0.1235352
181,47.625,27.9375,-143.625,-1.005859,-1.463379,-0.2089844,0.2426758,0.1450195,-0.125
185,55.375,33.375,-154.5625,-1.013672,-1.490723,-0.2592773,0.234375,0.1538086,-0.125
189,53.3125,36.3125,-166.5625,-1.048828,-1.327148,-0.324707,0.2260742,0.1660156,-0.125
193,40.125,35.8125,-178.5,-1.12207,-1.280762,-0.309082,0.2177734,0.1723633,-0.125
197,33.8125,37,-177.8125,-1.129883,-1.257324,-0.2167969,0.2070313,0.1835938,-0.1279297
201,37.5,44.625,-172.125,-1.149414,-1.249512,-0.1899414,0.1962891,0.1972656,-0.1225586
205,43,49.625,-170.3125,-1.11084,-1.191406,-0.1938477,0.1879883,0.2036133,-0.1225586
210,40.1875,49.625,-176.9375,-1.141602,-1.105957,-0.2089844,0.1772461,0.2114258,-0.1235352
214,34.625,41.125,-187.8125,-1.129883,-1.098145,-0.1362305,0.1640625,0.2226563,-0.1235352
218,35.375,32.75,-196,-1.12207,-1.136719,-0.0859375,0.1533203,0.2285156,-0.1235352
222,44.375,28.1875,-198.5625,-1.087402,-1.102051,-0.05126953,0.1391602,0.2387695,-0.1235352
226,53.5625,24.125,-198.125,-1.044922,-1.032227,-0.07080078,0.1201172,0.2451172,-0.1289063
230,52.4375,22.875,-197.6875,-0.9750977,-0.9233398,-0.112793,0.1079102,0.25,-0.1318359
234,43.875,24.3125,-194.8125,-0.9326172,-0.8183594,-0.1245117,0.09277344,0.2563477,-0.1318359
238,33.75,23.25,-188.4375,-0.9169922,-0.7641602,-0.112793,0.07226563,0.2612305,-0.1357422
242,28.4375,20.3125,-179.3125,-0.8354492,-0.7407227,-0.06298828,0.06396484,0.2636719,-0.1401367
246,26.875,18.5625,-171.125,-0.7504883,-0.7446289,-0.02832031,0.04736328,0.2675781,-0.1416016
250,31.5625,19.9375,-159.6875,-0.6884766,-0.7172852,-0.02441406,0.03076172,0.2685547,-0.144043
254,32.875,21.625,-148,-0.6376953,-0.6474609,-0.01318359,0.02148438,0.2700195,-0.1455078
258,29.6875,19.3125,-134.1875,-0.5874023,-0.6240234,0.01367188,0.009277344,0.2685547,-0.1484375
262,29.25,15.0625,-125.3125,-0.4711914,-0.6396484,0.005859375,-0.004394531,0.2685547,-0.1494141
266,29.375,15.75,-119.1875,-0.3823242,-0.6005859,-0.001464844,-0.01025391,0.2675781,-0.1508789
270,25.1875,15.375,-112.5,-0.3242188,-0.5463867,-0.03613281,-0.02246094,0.2661133,-0.1547852
274,19.125,15,-108,-0.2426758,-0.5151367,-0.05908203,-0.03076172,0.2651367,-0.1547852
278,11.125,18.9375,-104.0625,-0.1767578,-0.4960938,-0.07861328,-0.0390625,0.262207,-0.1577148
282,7.8125,22.625,-100.5625,-0.1611328,-0.4882813,-0.02441406,-0.04736328,0.2612305,-0.1591797
286,12.125,25.75,-98.8125,-0.09130859,-0.503418,0.04785156,-0.05664063,0.2597656,-0.1606445
290,17.625,27.625,-85.9375,-0.1499023,-0.402832,0.09423828,-0.06054688,0.2597656,-0.1616211
294,21.25,24.25,-76.125,-0.1572266,-0.3173828,0.140625,-0.06738281,0.2563477,-0.1616211
298,24.25,18.25,-66.125,-0.1381836,-0.2124023,0.1518555,-0.07324219,0.2524414,-0.1660156
302,24.8125,13.875,-51.125,-0.07226563,-0.1308594,0.1132813,-0.07568359,0.2539063,-0.168457
306,19.125,9.875,-37.375,-0.06835938,-0.05273438,0.105957,-0.078125,0.25,-0.1699219
310,5.625,0.625,-23.9375,-0.04101563,-0.05664063,0.1098633,-0.08203125,0.2485352,-0.1699219
314,-6.5625,-9.6875,-13.5,0.01660156,-0.1616211,0.105957,-0.08398438,0.2485352,-0.1728516
318,-9.0625,-15.1875,-4.125,0.1015625,-0.3056641,0.1020508,-0.08544922,0.2485352,-0.1699219
322,-6.25,-13.8125,2.3125,0.1791992,-0.421875,0.06738281,-0.08642578,0.2475586,-0.1699219
326,-4.4375,-11.125,6.75,0.2138672,-0.4609375,0.04052734,-0.08642578,0.2460938,-0.1699219
330,-3,-7.6875,8.125,0.2451172,-0.484375,0.05175781,-0.08642578,0.2485352,-0.168457
334,-2.4375,-5.125,10.375,0.206543,-0.453125,0.03662109,-0.08642578,0.2485352,-0.168457
339,-5.875,-5.5,14,0.1635742,-0.4140625,0.04785156,-0.08398438,0.2475586,-0.1660156
343,-10.8125,-8.5,19.8125,0.125,-0.4296875,0.04052734,-0.08300781,0.25,-0.1660156
347,-11.375,-10.4375,27.375,0.1289063,-0.4570313,0.06347656,-0.08203125,0.2509766,-0.1630859
351,-7,-8.75,34.9375,0.1289063,-0.4726563,0.06738281,-0.08056641,0.2509766,-0.1645508
355,-3.75,-8,41.5,0.1015625,-0.4882813,0.05957031,-0.078125,0.2524414,-0.1645508
359,-5.125,-5.875,47.125,0.09765625,-0.453125,0.02490234,-0.07324219,0.2539063,-0.1630859
363,-8.875,-4.25,54.875,0.05126953,-0.453125,0.04052734,-0.07226563,0.2548828,-0.1630859
367,-7.8125,-3.9375,62.6875,-0.03320313,-0.484375,0.1020508,-0.06640625,0.2573242,-0.1616211
371,6.25,0.1875,74.25,-0.06054688,-0.5698242,0.2094727,-0.06152344,0.2587891,-0.1630859
375,27.3125,8.75,87.75,-0.08789063,-0.5893555,0.2250977,-0.05419922,0.2597656,-0.1630859
379,43.1875,16.9375,95.625,-0.1342773,-0.5581055,0.1826172,-0.04736328,0.2612305,-0.1660156
383,45,21.0625,103.3125,-0.1264648,-0.4609375,0.06347656,-0.03662109,0.2597656,-0.1713867
387,32.9375,26.0625,116.3125,-0.1962891,-0.5,0.02490234,-0.02832031,0.2548828,-0.1738281
391,12.3125,22.125,120.375,-0.2041016,-0.4765625,-0.02441406,-0.01757813,0.2573242,-0.1767578
395,-1.25,19.125,115.5,-0.2270508,-0.5966797,0.02490234,-0.005859375,0.2563477,-0.1782227
399,-11.9375,15.5,108.3125,-0.2387695,-0.7016602,-0.03222656,0.0009765625,0.2548828,-0.175293
403,-17.3125,14.5625,98.25,-0.2851563,-0.8066406,0.05175781,0.01171875,0.2548828,-0.175293
407,-20,25.875,93.0625,-0.2001953,-0.7094727,0.04785156,0.02246094,0.2548828,-0.1728516
411,-31.75,40.9375,90.5625,-0.3862305,-0.7290039,-0.1166992,0.02734375,0.2563477,-0.1728516
415,-45.9375,31.0625,88.6875,-0.4365234,-0.6748047,-0.1513672,0.0390625,0.2548828,-0.168457
419,-49.3125,25.8125,85.0625,-0.4365234,-0.7602539,-0.1860352,0.04980469,0.2573242,-0.1630859
423,-50.75,20.375,85.5625,-0.5952148,-0.7602539,-0.1899414,0.0546875,0.2563477,-0.1606445
427,-52.5625,6.625,92.25,-0.5834961,-0.7719727,-0.1669922,0.06542969,0.2563477,-0.1547852
431,-44.3125,-4.1875,100.625,-0.5952148,-0.8881836,-0.1401367,0.07226563,0.2573242,-0.1508789
435,-31.9375,-9,107.6875,-0.6108398,-0.9541016,-0.1435547,0.07861328,0.2573242,-0.1484375
439,-24.875,-7.75,120.6875,-0.6455078,-0.8803711,-0.1977539,0.08886719,0.2548828,-0.1455078
443,-26.8125,-12.5625,131.5625,-0.7543945,-0.8613281,-0.2246094,0.1020508,0.25,-0.1425781
447,-39,-16.25,139.8125,-0.7543945,-0.9155273,-0.2363281,0.1079102,0.2475586,-0.1416016
451,-42.1875,-21.25,141.5625,-0.8588867,-1.004883,-0.1782227,0.1210938,0.2426758,-0.1416016
455,-39.1875,-22.125,141.25,-0.8549805,-1.08252,-0.1474609,0.1308594,0.2363281,-0.1386719
459,-31.5,-18.625,144,-0.8818359,-1.102051,-0.1630859,0.1391602,0.2314453,-0.1347656
463,-27.75,-15.375,142.9375,-0.878418,-1.109863,-0.1166992,0.1508789,0.2260742,-0.1333008
468,-30.3125,-11.8125,140.875,-0.8588867,-1.098145,-0.1860352,0.1616211,0.21875,-0.1333008
472,-43.0625,-9.4375,134.5,-0.9169922,-1.133301,-0.1821289,0.1713867,0.2114258,-0.1318359
476,-48,-13.8125,128.375,-0.9208984,-1.226563,-0.1513672,0.1821289,0.2060547,-0.1289063
480,-41.4375,-8.375,120.0625,-0.9477539,-1.300293,-0.1669922,0.1879883,0.1987305,-0.1264648
484,-24.4375,-4,123.25,-0.9091797,-1.22998,-0.09375,0.1948242,0.1962891,-0.125
488,-12.625,1.5625,118.5,-0.9829102,-1.21875,-0.109375,0.203125,0.1875,-0.125
492,-11.8125,5.9375,118.8125,-0.9868164,-1.047363,-0.1435547,0.2104492,0.1787109,-0.125
496,-19.8125,4.875,123.375,-0.9711914,-0.9814453,-0.1938477,0.2163086,0.1723633,-0.125
500,-35.5625,0.875,118.625,-0.9052734,-1.043945,-0.2207031,0.2246094,0.1635742,-0.1225586
504,-40.1875,-7.5,93.0625,-0.8974609,-1.1875,-0.1860352,0.2329102,0.15625,-0.1210938
508,-46,-0.6875,94.9375,-0.8588867,-1.160156,-0.1323242,0.234375,0.1538086,-0.1210938
512,-48.5625,-0.6875,91.0625,-0.9052734,-1.125488,-0.08984375,0.2412109,0.1474609,-0.1157227
516,-51.4375,-4.3125,85.375,-0.9208984,-1.08252,-0.1054688,0.2436523,0.1401367,-0.1113281
520,-58.875,-9.5625,81.375,-0.9438477,-1.055176,-0.08203125,0.2475586,0.1362305,-0.1098633
524,-67.625,-20.625,78.25,-0.9516602,-1.086426,-0.06298828,0.2519531,0.1313477,-0.1088867
528,-71.375,-29.875,71.25,-0.8276367,-1.183594,-0.06689453,0.2543945,0.125,-0.1044922
532,-70.25,-35.5,59.25,-0.7426758,-1.300293,-0.07080078,0.2568359,0.1210938,-0.1005859
536,-63.5625,-40.5625,46.75,-0.6650391,-1.405273,-0.06298828,0.2592773,0.1137695,-0.1020508
540,-51.25,-41,35.8125,-0.5913086,-1.541016,-0.07470703,0.2617188,0.1074219,-0.09912109
544,26.6875,-1.5,41.1875,0.06298828,-2.737793,0.5405273,0.2617188,0.1010742,-0.09912109
548,90.625,14.6875,-22,-0.262207,-1.859863,-0.1977539,0.2626953,0.09619141,-0.1035156
552,45.5625,-9.5625,-45.0625,-0.4555664,-1.136719,-0.5668945,0.2602539,0.09521484,-0.1044922
556,-2.25,-14.5,-39,-0.3164063,-1.08252,-0.4282227,0.2602539,0.1000977,-0.1074219
560,-12.875,5.8125,-23.3125,-0.3706055,-1.117676,-0.2705078,0.2568359,0.1064453,-0.1074219
564,-29.4375,21.625,-17,-0.4985352,-1.171875,-0.2128906,0.2592773,0.1098633,-0.1044922
568,-28.1875,20.625,-28.3125,-0.4633789,-1.618652,-0.1054688,0.2568359,0.1113281,-0.1035156
572,-5,21.375,-73.5,-0.4672852,-1.723633,0.005859375,0.2583008,0.1186523,-0.1020508
576,26.3125,21.0625,-96.3125,-0.5605469,-1.572266,-0.06689453,0.253418,0.1289063,-0.1020508
580,47.5625,24.875,-105.5625,-0.6342773,-1.338867,-0.1782227,0.2475586,0.1347656,-0.1044922
584,53.375,28.25,-108.6875,-0.7387695,-1.148438,-0.2978516,0.2426758,0.1450195,-0.105957
588,44.25,27.625,-107.6875,-0.7543945,-1.070801,-0.2978516,0.2353516,0.1523438,-0.1098633
592,39.6875,28.3125,-115,-0.7387695,-1.195313,-0.2363281,0.2329102,0.1586914,-0.1074219
597,44.3125,24.6875,-121,-0.7578125,-1.350586,-0.1245117,0.2246094,0.1660156,-0.1098633
601,52,26,-121.4375,-0.7348633,-1.424316,-0.1206055,0.2177734,0.1748047,-0.1098633
605,61.3125,27.8125,-129.3125,-0.7426758,-1.397461,-0.1435547,0.2138672,0.1787109,-0.1113281
609,63.3125,27.3125,-134.625,-0.796875,-1.26123,-0.1938477,0.2045898,0.1884766,-0.1157227
613,56.9375,25.125,-131.875,-0.8046875,-1.207031,-0.2128906,0.1962891,0.1938477,-0.1157227
617,51.6875,23.375,-130.375,-0.8164063,-1.233887,-0.2016602,0.1889648,0.2001953,-0.1142578
621,47.6875,22.25,-134.1875,-0.7890625,-1.222656,-0.2055664,0.1796875,0.2075195,-0.1196289
625,42.5,16.9375,-144.375,-0.796875,-1.253418,-0.1938477,0.1713867,0.2148438,-0.1196289
629,45.5,16.25,-150.0625,-0.7851563,-1.269043,-0.1401367,0.1640625,0.2211914,-0.1225586
633,46.75,15.125,-156.375,-0.8085938,-1.207031,-0.1474609,0.1523438,0.2285156,-0.125
637,40.75,14.875,-156.3125,-0.8085938,-1.117676,-0.1362305,0.1391602,0.2348633,-0.1289063
641,34.75,11.4375,-154.25,-0.8237305,-1.074707,-0.1362305,0.128418,0.2387695,-0.1303711
645,30.1875,8.8125,-150.5,-0.7890625,-1.05127,-0.07861328,0.1166992,0.2451172,-0.1318359
649,30.875,7.3125,-148.8125,-0.7270508,-1.152344,-0.009277344,0.1020508,0.2509766,-0.1347656
653,37.3125,5.625,-153.375,-0.6845703,-1.086426,-0.001464844,0.09521484,0.2524414,-0.1357422
657,39.5,3.6875,-154.25,-0.6728516,-1.012695,-0.03613281,0.08056641,0.2573242,-0.1386719
661,36.375,0.25,-153.8125,-0.6611328,-0.9233398,-0.04736328,0.06542969,0.2597656,-0.1416016
665,27.25,2.25,-141.5625,-0.6147461,-0.8417969,-0.07861328,0.05566406,0.2597656,-0.144043
669,24.5625,7,-119.375,-0.5488281,-0.8300781,-0.01318359,0.04248047,0.2661133,-0.1455078
673,24.4375,8.75,-115,-0.5141602,-0.8959961,0.001953125,0.03173828,0.2651367,-0.1484375
677,27.4375,4.875,-118.1875,-0.4443359,-0.8999023,0.01708984,0.02490234,0.2675781,-0.1484375
681,28.5625,1.3125,-120.75,-0.4208984,-0.8613281,0.02490234,0.01416016,0.2661133,-0.1523438
685,30,0.1875,-119.875,-0.3823242,-0.7753906,-0.001464844,0.0009765625,0.2661133,-0.15625
689,21.875,-6.125,-120.25,-0.3706055,-0.6474609,-0.02832031,-0.0078125,0.2661133,-0.1547852
693,15.3125,-6.875,-112,-0.2661133,-0.6591797,-0.005371094,-0.01757813,0.2651367,-0.1577148
697,8.8125,-9.5625,-109.75,-0.2231445,-0.6860352,-0.009277344,-0.02832031,0.262207,-0.1591797
701,9.75,-10.8125,-107.8125,-0.1689453,-0.7211914,0.01708984,-0.03417969,0.262207,-0.1606445
705,11.9375,-12.0625,-104.3125,-0.1420898,-0.6938477,0.009765625,-0.04492188,0.2597656,-0.1606445
709,11.5,-9.375,-96.3125,-0.07617188,-0.6552734,-0.009277344,-0.05566406,0.2587891,-0.1616211
713,12.625,-2.75,-82.5625,-0.03320313,-0.6552734,-0.005371094,-0.06298828,0.2587891,-0.1645508
717,17.125,5.9375,-72.5625,-0.04492188,-0.6083984,0.009765625,-0.06982422,0.2563477,-0.1645508
721,19.625,7.9375,-66.4375,-0.002441406,-0.5737305,0.001953125,-0.07568359,0.2524414,-0.1645508
726,15.4375,3.25,-63.25,-0.02197266,-0.5151367,-0.009277344,-0.078125,0.2509766,-0.1660156
730,12.875,-1.875,-54.375,-0.03320313,-0.503418,0.009765625,-0.08398438,0.2485352,-0.1660156
734,13.75,3.9375,-33.1875,0.02832031,-0.484375,0.07128906,-0.08886719,0.2475586,-0.1674805
738,14.375,18.1875,-8.625,0.05517578,-0.4453125,0.06738281,-0.09033203,0.2460938,-0.1699219
742,14.4375,16.3125,-3.125,0.04345703,-0.519043,0.09033203,-0.09033203,0.2460938,-0.1713867
746,12.0625,11.75,-4.4375,0.1015625,-0.5229492,0.1210938,-0.08886719,0.2451172,-0.1738281
750,7.0625,5,-8.5,0.125,-0.5737305,0.1289063,-0.08886719,0.2460938,-0.1738281
754,3.3125,-2.4375,-13.375,0.190918,-0.6357422,0.1367188,-0.09033203,0.2451172,-0.175293
758,3.6875,-7.6875,-20.875,0.2294922,-0.6938477,0.1171875,-0.09228516,0.2436523,-0.175293
762,8.375,-11.3125,-24.6875,0.2529297,-0.7368164,0.1098633,-0.09228516,0.2426758,-0.175293
766,14.375,-11.375,-25.5625,0.2797852,-0.7446289,0.09033203,-0.09619141,0.2426758,-0.175293
770,18.9375,-3.1875,-18.1875,0.2797852,-0.6977539,0.04443359,-0.09716797,0.2387695,-0.1767578
774,17.75,2.4375,-9.0625,0.2685547,-0.6630859,0.03662109,-0.09960938,0.2387695,-0.1796875
778,14.875,4.75,-1.5625,0.2646484,-0.6821289,0.05957031,-0.09863281,0.2373047,-0.1796875
782,16.3125,6,1.125,0.2685547,-0.7211914,0.08642578,-0.09716797,0.2373047,-0.1796875
786,19.375,7.4375,3.4375,0.2412109,-0.6748047,0.08251953,-0.09960938,0.2363281,-0.1821289
790,17.6875,13.375,8.5625,0.2294922,-0.6201172,0.09033203,-0.09716797,0.2363281,-0.1821289
794,10.5625,19.25,11.625,0.159668,-0.6201172,0.09033203,-0.09716797,0.2348633,-0.1850586
798,1.4375,24.375,23.875,0.1328125,-0.4609375,0.09423828,-0.09619141,0.2373047,-0.1835938
802,-12.25,17.125,33,0.06689453,-0.4648438,0.06738281,-0.09130859,0.2363281,-0.1865234
806,-16.125,5.875,33.25,0.05908203,-0.5268555,0.1132813,-0.08789063,0.2373047,-0.1865234
810,-12.3125,-6.125,25.75,0.08642578,-0.5776367,0.125,-0.08642578,0.2397461,-0.1865234
814,-3.625,-2,27.25,0.05126953,-0.5112305,0.1020508,-0.08544922,0.2397461,-0.1835938
818,4.5,5.125,38.375,-0.02978516,-0.4140625,0.05566406,-0.08056641,0.2412109,-0.1821289
822,8.25,8.875,51.1875,-0.1303711,-0.3173828,0.05957031,-0.07958984,0.2436523,-0.1835938
826,-5.125,-0.0625,66.5625,-0.2192383,-0.2314453,0.02099609,-0.07324219,0.2436523,-0.1865234
830,-21.3125,-10.9375,74.625,-0.1689453,-0.3520508,0.04785156,-0.06884766,0.2451172,-0.1835938
834,-20.625,-16.75,78.875,-0.1689453,-0.503418,0.08642578,-0.06298828,0.2475586,-0.1821289
838,-16.5,-15.9375,85.75,-0.2001953,-0.519043,0.05175781,-0.05664063,0.2485352,-0.1796875
842,-17.125,-12.0625,99.5,-0.2231445,-0.5698242,0.02880859,-0.04980469,0.25,-0.1796875
846,-11.125,-7.6875,110.6875,-0.2504883,-0.6821289,0.05566406,-0.04394531,0.2524414,-0.1782227
850,-12.5625,-6.3125,123.375,-0.2734375,-0.7094727,0.03662109,-0.03320313,0.2524414,-0.1767578
855,-10.375,-7.3125,126.5,-0.2734375,-0.7988281,0.06738281,-0.02246094,0.2548828,-0.1738281
859,-4.1875,-6.8125,130.3125,-0.3125,-0.8261719,0.05957031,-0.01513672,0.2563477,-0.1738281
863,1.75,-3.375,134.3125,-0.3393555,-0.8417969,0.04443359,-0.004394531,0.2548828,-0.1738281
867,-1.25,-0.5,142.25,-0.3745117,-0.8496094,-0.02441406,0.008300781,0.2563477,-0.175293
871,-5.5625,6.0625,147.375,-0.3666992,-0.8959961,-0.04736328,0.02001953,0.2539063,-0.1738281
875,-13.0625,9.5,149.3125,-0.362793,-0.8999023,-0.07470703,0.03320313,0.2539063,-0.1738281
879,-20.9375,12.25,144.625,-0.4052734,-0.9077148,-0.109375,0.04638672,0.25,-0.1738281
883,-34.8125,11.6875,138.4375,-0.4868164,-0.8803711,-0.1513672,0.05566406,0.2509766,-0.1728516
887,-53.875,7.1875,136.9375,-0.5991211,-0.8881836,-0.1513672,0.06884766,0.25,-0.1674805
891,-78.9375,-5.125,135.0625,-0.6650391,-0.9970703,-0.109375,0.08203125,0.2475586,-0.1616211
895,-82.0625,-13.6875,132.0625,-0.6767578,-1.1875,-0.02832031,0.08789063,0.2460938,-0.1577148
899,-65.625,-10.5,134.0625,-0.6806641,-1.272949,-0.005371094,0.1010742,0.2460938,-0.1523438
903,-47.375,-3.4375,138.375,-0.7075195,-1.21875,-0.07470703,0.112793,0.2426758,-0.1469727
907,-40.875,2.3125,141.375,-0.715332,-1.078613,-0.1669922,0.1201172,0.2373047,-0.144043
911,-52.25,1.0625,142.25,-0.7851563,-0.9970703,-0.2514648,0.1333008,0.2324219,-0.1416016
915,-65.125,-1.125,142.1875,-0.8007813,-1.012695,-0.2783203,0.1450195,0.2275391,-0.1357422
919,-76,-0.8125,144.625,-0.831543,-1.078613,-0.2475586,0.1508789,0.2236328,-0.1318359
923,-77.1875,0,144.5,-0.8706055,-1.164063,-0.1899414,0.1650391,0.2172852,-0.1264648
927,-72.8125,-2.4375,139.375,-0.8935547,-1.179688,-0.1938477,0.1738281,0.2124023,-0.1196289
931,-68.4375,-7.0625,132.5625,-0.8896484,-1.167969,-0.2016602,0.1806641,0.2075195,-0.1181641
935,-71.25,-9.625,126.6875,-0.8588867,-1.117676,-0.2475586,0.1914063,0.2001953,-0.1113281
939,-80.5625,-14.125,123.6875,-0.9013672,-1.133301,-0.2822266,0.2011719,0.1938477,-0.1074219
943,-87.5,-20.6875,119.625,-0.9013672,-1.175781,-0.2592773,0.2070313,0.1899414,-0.105957
947,-91.25,-25.5,114.4375,-0.8935547,-1.214844,-0.2631836,0.2128906,0.1826172,-0.1020508
951,-92.9375,-30.5625,106.6875,-0.8666992,-1.288574,-0.2475586,0.2211914,0.1772461,-0.09765625
955,-87.6875,-36.375,97.75,-0.8164063,-1.370117,-0.2167969,0.2260742,0.1699219,-0.09521484
959,-78.4375,-34.8125,93.9375,-0.7617188,-1.428223,-0.2089844,0.2294922,0.1660156,-0.09082031
963,-68.3125,-33,92.3125,-0.6962891,-1.393555,-0.2397461,0.2353516,0.1586914,-0.08544922
967,-70.5625,-34.5,90.375,-0.6845703,-1.37793,-0.2822266,0.2392578,0.1523438,-0.08544922
971,-81.1875,-43.625,87.5625,-0.6494141,-1.459473,-0.2670898,0.2426758,0.1435547,-0.08300781
975,-71.875,-39.75,128.125,-0.1533203,-3.122559,0.1479492,0.25,0.1298828,-0.08300781
979,111,46.125,73.0625,0.3496094,-3.573242,0.4135742,0.253418,0.1210938,-0.08300781
984,114.3125,31.25,-6.5,-0.2929688,-1.587891,-0.7133789,0.2543945,0.1137695,-0.08544922
988,-21.9375,-43.125,-49.9375,-0.5488281,-1.070801,-0.9052734,0.2558594,0.1176758,-0.08837891
992,-111.875,-75.625,-73.75,-0.5527344,-1.102051,-0.6206055,0.2509766,0.1235352,-0.08837891
996,-141.75,-85.125,-37.75,-0.5175781,-1.758789,-0.3862305,0.2460938,0.1323242,-0.08837891
1000,-87.3125,-33.0625,-18.375,-0.07226563,-2.255859,-0.02441406,0.2460938,0.1411133,-0.08691406
1004,10.8125,20,-43.8125,-0.04101563,-2.430664,-0.05126953,0.2451172,0.1450195,-0.08544922
1008,79.6875,48.1875,-87.8125,-0.2851563,-2.038574,-0.2861328,0.2426758,0.1538086,-0.08447266
1012,90.875,42.4375,-135.1875,-0.5683594,-1.556641,-0.5439453,0.234375,0.1625977,-0.08837891
1016,63.8125,26.125,-168.5,-0.7348633,-1.257324,-0.6591797,0.2285156,0.1699219,-0.09082031
1020,37,23.0625,-172.875,-0.8007813,-1.210938,-0.628418,0.2177734,0.1811523,-0.09521484
1024,18.4375,28.6875,-156.75,-0.8276367,-1.272949,-0.5786133,0.2070313,0.1938477,-0.09228516
1028,16.375,38.25,-143.8125,-0.746582,-1.389648,-0.4975586,0.1987305,0.1987305,-0.09082031
1032,23.75,41.625,-144.3125,-0.746582,-1.494629,-0.4863281,0.1865234,0.2084961,-0.08984375
1036,31.8125,41.1875,-156.0625,-0.6767578,-1.556641,-0.4936523,0.1796875,0.21875,-0.09082031
1040,40.5,44.625,-174.3125,-0.6455078,-1.599121,-0.5209961,0.1699219,0.2236328,-0.08984375
1044,48.75,47.75,-184.5625,-0.7929688,-1.603027,-0.5244141,0.1567383,0.2324219,-0.09082031
1048,55.4375,44.5,-185.5625,-0.9091797,-1.541016,-0.5209961,0.1416016,0.2426758,-0.09228516
1052,59.0625,38.5625,-181.125,-0.9633789,-1.42041,-0.5209961,0.1308594,0.25,-0.09228516
1056,57.3125,38.25,-168.8125,-0.9287109,-1.312012,-0.5439453,0.1166992,0.2573242,-0.09667969
1060,46.75,40.1875,-153.25,-0.9052734,-1.233887,-0.5629883,0.1010742,0.2597656,-0.09912109
1064,23.6875,49.875,-144.9375,-0.78125,-1.22998,-0.574707,0.09375,0.2651367,-0.1005859
1068,12.75,64.4375,-152.0625,-0.7851563,-1.315918,-0.4399414,0.07958984,0.2700195,-0.1020508
1072,16.125,72.5625,-163.6875,-0.862793,-1.358398,-0.3286133,0.06640625,0.2749023,-0.1020508
1076,23.625,74.6875,-173.125,-0.9326172,-1.408691,-0.1743164,0.05566406,0.2773438,-0.1020508
1080,41.875,73.8125,-176.5625,-0.8974609,-1.26123,-0.1323242,0.0390625,0.2773438,-0.1020508
1084,50.125,76.25,-169.0625,-0.9326172,-1.117676,-0.128418,0.02246094,0.2822266,-0.1044922
1088,49.5625,70.4375,-157.5,-0.9091797,-0.9619141,-0.08984375,0.01269531,0.28125,-0.1074219
1092,45.1875,63.375,-150.5,-0.8125,-0.8417969,-0.09765625,0,0.2822266,-0.112793
1096,40.0625,58.75,-147.8125,-0.7192383,-0.8339844,-0.07080078,-0.01416016,0.2797852,-0.1166992
1100,35.25,58.125,-141.25,-0.6376953,-0.7407227,-0.009277344,-0.02246094,0.2788086,-0.1196289
1104,32.6875,53.0625,-134.6875,-0.6108398,-0.7016602,0.04785156,-0.03417969,0.2773438,-0.1235352
1108,33.25,46.8125,-130.125,-0.5488281,-0.6708984,0.1132813,-0.04589844,0.2763672,-0.1279297
1113,39.5,42.875,-124,-0.4633789,-0.6044922,0.1367188,-0.05224609,0.2724609,-0.1289063
1117,47.25,41,-118.1875,-0.4208984,-0.4375,0.1713867,-0.06396484,0.2675781,-0.1347656
1121,49.9375,34.5625,-110.25,-0.3823242,-0.3325195,0.1098633,-0.07226563,0.2636719,-0.1401367
1125,48.1875,26.375,-103.5625,-0.3974609,-0.1694336,0.1210938,-0.078125,0.262207,-0.1386719
1129,39.5625,19,-93,-0.3242188,0.0009765625,0.09814453,-0.08789063,0.2573242,-0.1484375
1133,23.4375,14.25,-75.8125,-0.262207,0.07080078,0.08642578,-0.09619141,0.2524414,-0.1508789
1137,4.125,9.1875,-59,-0.2041016,0.1254883,0.08642578,-0.09863281,0.2509766,-0.1538086
1141,-14.6875,0.3125,-44.375,-0.1030273,0.05517578,0.07910156,-0.1030273,0.2509766,-0.1538086
1145,-24.25,-6.25,-37.25,0.02832031,-0.1772461,0.1020508,-0.1069336,0.25,-0.1508789
1149,-13.6875,-6.0625,-31.1875,0.1367188,-0.3833008,0.1635742,-0.109375,0.25,-0.1494141
1153,2.8125,-5.375,-25.5,0.1635742,-0.4609375,0.1020508,-0.1103516,0.2485352,-0.1494141
1157,7.3125,-6.9375,-18.875,0.2104492,-0.4257813,0.03271484,-0.112793,0.25,-0.1484375
1161,3.8125,-9.1875,-11.9375,0.2490234,-0.4101563,-0.01660156,-0.1152344,0.2475586,-0.1494141
1165,-2.375,-9,-4.875,0.3149414,-0.4335938,-0.07080078,-0.1162109,0.2475586,-0.1494141
1169,-4.375,-6.75,-0.375,0.3691406,-0.5229492,-0.09765625,-0.1176758,0.2460938,-0.1484375
1173,-3.3125,-3.625,1.9375,0.3999023,-0.6240234,-0.07080078,-0.1176758,0.2460938,-0.1484375
1177,10.75,-1.25,2.1875,0.3730469,-0.7641602,-0.005371094,-0.1176758,0.2460938,-0.1469727
1181,30.1875,5.0625,8.4375,0.3110352,-0.7133789,0.02490234,-0.1162109,0.2451172,-0.1494141
1185,45.5625,4.1875,19.4375,0.2758789,-0.5966797,-0.05908203,-0.1162109,0.2460938,-0.1508789
1189,36.1875,5.8125,32.6875,0.2607422,-0.3676758,-0.2016602,-0.1137695,0.2451172,-0.1547852
1193,13.1875,5.5,43.9375,0.3071289,-0.3676758,-0.2128906,-0.1103516,0.2460938,-0.1577148
1197,-7.0625,4.6875,47.625,0.3227539,-0.503418,-0.1669922,-0.1079102,0.2460938,-0.1606445
1201,-14.875,7.8125,45.0625,0.3457031,-0.6708984,0.02099609,-0.1030273,0.2475586,-0.1591797
1205,-17.25,4.375,39.375,0.2646484,-0.7133789,0.09814453,-0.09960938,0.25,-0.1577148
1209,-14,-8.6875,32.9375,0.2451172,-0.7871094,0.1787109,-0.09716797,0.2509766,-0.15625
1213,-3,-12.3125,33.6875,0.3149414,-0.7680664,0.1289063,-0.09375,0.2524414,-0.15625
1217,9.125,-8.375,39.25,0.3266602,-0.7368164,0.05175781,-0.09228516,0.2539063,-0.15625
1221,14.4375,-3.125,42.5,0.3227539,-0.6669922,-0.02832031,-0.09033203,0.2539063,-0.1547852
1225,13.5625,1.625,43.3125,0.2490234,-0.6513672,-0.009277344,-0.08544922,0.2563477,-0.1577148
1229,11.75,5.0625,44.9375,0.2255859,-0.6240234,0.04052734,-0.08300781,0.2563477,-0.1591797
1233,10.6875,6.3125,46.5,0.2373047,-0.6279297,0.03662109,-0.078125,0.2548828,-0.1577148
1237,8.3125,9.75,44.875,0.1987305,-0.6899414,0.02880859,-0.07470703,0.2548828,-0.1606445
1242,10.625,7.5,42.375,0.140625,-0.7407227,0.1098633,-0.06982422,0.2548828,-0.1616211
1246,14.5625,1.6875,45.25,0.06298828,-0.6938477,0.1904297,-0.06738281,0.2548828,-0.1606445
1250,12.75,7.625,51.125,0.1015625,-0.6630859,0.1518555,-0.06298828,0.2563477,-0.1616211
1254,7.4375,10,61.25,0.04736328,-0.5927734,0.07910156,-0.05664063,0.2563477,-0.1606445
1258,-5.25,7.0625,64.0625,-0.002441406,-0.6083984,0.05566406,-0.05224609,0.2573242,-0.1645508
1262,-8.9375,6.625,63.75,0.02050781,-0.6787109,0.05957031,-0.04736328,0.2573242,-0.1630859
1266,-3,8.375,59.1875,-0.04101563,-0.6977539,0.09814453,-0.04150391,0.2597656,-0.1645508
1270,1.0625,12.5,63.4375,-0.1225586,-0.6435547,0.1171875,-0.03759766,0.2612305,-0.1630859
1274,12.1875,13,74,-0.1884766,-0.6474609,0.1367188,-0.02929688,0.2612305,-0.1660156
1278,13.5,9.375,85.125,-0.3393555,-0.534668,0.08251953,-0.0234375,0.2612305,-0.1674805
1282,3.1875,-1.1875,87.9375,-0.3354492,-0.4570313,0.01708984,-0.01757813,0.2597656,-0.1674805
1286,-13.5,-10.75,87.0625,-0.3242188,-0.4921875,-0.02050781,-0.006835938,0.2612305,-0.1674805
1290,-16.1875,-17.5625,83.125,-0.3242188,-0.7055664,0.03662109,0,0.2612305,-0.1660156
1294,-2,-8.6875,85.3125,-0.3046875,-0.7792969,0.03271484,0.004394531,0.262207,-0.1660156
1298,2.125,2.6875,97.125,-0.3935547,-0.6591797,-0.06298828,0.01074219,0.2597656,-0.1630859
1302,-10.75,1.1875,100.5625,-0.4750977,-0.6201172,-0.08203125,0.02001953,0.2587891,-0.1645508
1306,-29,-4.25,102.375,-0.5024414,-0.7753906,-0.04003906,0.02734375,0.2587891,-0.1616211
1310,-33.6875,-8.5625,97.75,-0.4946289,-0.9658203,0.02880859,0.03564453,0.2587891,-0.1591797
1314,-33.4375,-7.25,93.0625,-0.4169922,-0.9853516,-0.05517578,0.04638672,0.2573242,-0.1577148
1318,-41.0625,-3.25,84.375,-0.4365234,-0.9853516,-0.1166992,0.05224609,0.2597656,-0.1538086
1322,-53.25,-2.625,76.1875,-0.4829102,-1.004883,-0.1206055,0.05810547,0.2587891,-0.1508789
1326,-59.125,0.5625,69.75,-0.4985352,-1.129395,-0.109375,0.06542969,0.2597656,-0.144043
1330,-55.9375,6.0625,64.8125,-0.4946289,-1.1875,-0.1054688,0.07128906,0.2612305,-0.1416016
1334,-57.4375,6.25,55.6875,-0.6455078,-1.078613,-0.1362305,0.07617188,0.2597656,-0.1386719
1338,-67.25,-2.5,52.625,-0.5952148,-0.7016602,0.06738281,0.08056641,0.2587891,-0.1333008
1342,-76.5,-10.6875,55.875,-0.9208984,-1.334961,-0.2744141,0.08691406,0.2587891,-0.1279297
1346,-70.625,-19.5625,102.6875,-0.7695313,-1.272949,-0.1630859,0.09130859,0.2587891,-0.1210938
1350,-65.3125,-24.8125,102.6875,-0.6884766,-1.269043,-0.1782227,0.09960938,0.2587891,-0.1142578
1354,-60.4375,-31.3125,112.8125,-0.6962891,-1.331055,-0.2514648,0.1069336,0.2548828,-0.112793
1358,-54,-28,122.875,-0.6689453,-1.304199,-0.2631836,0.1152344,0.2509766,-0.1074219
1362,-54.625,-21.9375,141.6875,-0.730957,-1.253418,-0.3051758,0.1269531,0.2475586,-0.1044922
1366,-48.875,-20.25,153.25,-0.796875,-1.334961,-0.2246094,0.1357422,0.2426758,-0.1020508
1371,-38.625,-19.75,161.5,-0.7734375,-1.269043,-0.3168945,0.1459961,0.2363281,-0.09912109
1375,-37.5,-18.875,164.375,-0.7929688,-1.26123,-0.3359375,0.1606445,0.2260742,-0.09667969
1379,-42.5,-26.875,161.25,-0.8198242,-1.210938,-0.3476563,0.1699219,0.2211914,-0.09667969
1383,-48.625,-37.25,151.125,-0.7543945,-1.253418,-0.3515625,0.1831055,0.2138672,-0.09667969
1387,-54,-42.4375,144.5,-0.7504883,-1.370117,-0.3129883,0.1948242,0.2026367,-0.09521484
1391,-54.25,-45.3125,138.0625,-0.7036133,-1.439941,-0.2475586,0.2011719,0.2001953,-0.09375
1395,-46.625,-50.375,133.5625,-0.7114258,-1.576172,-0.2207031,0.2094727,0.1899414,-0.09375
1399,-45.3125,-61.125,124.0625,-0.6728516,-1.572266,-0.2207031,0.21875,0.1826172,-0.09082031
1403,-47.125,-73.125,110.8125,-0.5722656,-1.599121,-0.2783203,0.2236328,0.1748047,-0.09375
1407,-54.625,-77.25,100.5625,-0.4907227,-1.649902,-0.3359375,0.2270508,0.1674805,-0.09521484
1411,-57.5,-74.3125,93,-0.3935547,-1.793457,-0.309082,0.2329102,0.1601563,-0.09521484
1415,-51.4375,-67.25,83.625,-0.262207,-1.762695,-0.2900391,0.2329102,0.1513672,-0.09912109
1419,-17.6875,-39.375,76.875,0.8222656,-3.277832,0.07128906,0.237793,0.1459961,-0.09521484
1423,25.125,-13.6875,-69.125,0.2954102,-1.953125,-0.5283203,0.2368164,0.1425781,-0.1020508
1427,-16.375,-51,-57.25,-0.05273438,-1.494629,-0.5170898,0.2329102,0.1489258,-0.1020508
1431,3.75,-6.875,-11.3125,0.1210938,-1.657715,-0.3359375,0.230957,0.1513672,-0.105957
1435,38.5,56.375,15.6875,0.03955078,-1.618652,-0.2553711,0.230957,0.1523438,-0.105957
1439,34.375,61.375,-13.9375,-0.2001953,-1.548828,-0.2978516,0.234375,0.1523438,-0.1044922
1443,17.3125,40.125,-57.375,-0.3007813,-1.599121,-0.2016602,0.2329102,0.1547852,-0.1005859
1447,22.125,25.375,-95.1875,-0.2734375,-1.762695,-0.128418,0.2285156,0.1625977,-0.1005859
1451,38.8125,34.4375,-117.1875,-0.3432617,-1.653809,-0.2207031,0.2260742,0.1674805,-0.1005859
1455,46.4375,45.375,-121.4375,-0.5102539,-1.479004,-0.3168945,0.21875,0.1772461,-0.1035156
1459,46.9375,52.6875,-118.625,-0.6030273,-1.405273,-0.3666992,0.2128906,0.1835938,-0.1020508
1463,45.75,57.8125,-122.0625,-0.6030273,-1.370117,-0.3515625,0.2070313,0.1914063,-0.1035156
1467,45.5625,58.5,-131.5,-0.6884766,-1.362305,-0.3129883,0.199707,0.1972656,-0.1005859
1471,49.5625,56.375,-137.8125,-0.7114258,-1.424316,-0.2592773,0.1904297,0.2075195,-0.1005859
1475,61.125,59.3125,-147.8125,-0.6962891,-1.436035,-0.2246094,0.184082,0.2114258,-0.1005859
1479,70,57.9375,-154.875,-0.715332,-1.374023,-0.2978516,0.1748047,0.2211914,-0.1035156
1483,71.125,54.0625,-165.5625,-0.7114258,-1.257324,-0.3168945,0.1616211,0.2275391,-0.105957
1487,67.5,46.5,-176.625,-0.7348633,-1.257324,-0.2939453,0.1533203,0.2324219,-0.1044922
1491,68.625,45,-185.5625,-0.730957,-1.338867,-0.2397461,0.1376953,0.2397461,-0.1098633
1495,67.4375,41.5,-188.9375,-0.7543945,-1.253418,-0.2553711,0.1225586,0.2475586,-0.112793
1500,57.9375,32.0625,-184.1875,-0.7929688,-1.22998,-0.2514648,0.1118164,0.2524414,-0.1157227
1504,50.75,29.125,-164,-0.7036133,-1.226563,-0.1860352,0.09521484,0.2548828,-0.1181641
1508,49.6875,33.4375,-150.875,-0.6572266,-1.226563,-0.1630859,0.08300781,0.2597656,-0.1225586
1512,47,33,-142.25,-0.6611328,-1.195313,-0.1513672,0.07373047,0.2636719,-0.1264648
1516,37.875,28.5,-141.0625,-0.6030273,-1.136719,-0.1435547,0.06152344,0.2661133,-0.1303711
1520,30.9375,22.8125,-140.875,-0.5952148,-1.175781,-0.1015625,0.04736328,0.2685547,-0.1303711
1524,27.875,13.6875,-141.4375,-0.5527344,-1.164063,-0.08984375,0.04052734,0.2700195,-0.1333008
1528,27.3125,9.75,-137.75,-0.4946289,-1.140625,-0.05908203,0.02587891,0.2709961,-0.1347656
1532,28.5625,5.375,-137.0625,-0.4443359,-1.086426,-0.08984375,0.01416016,0.2724609,-0.1401367
1536,24.875,7.25,-134.375,-0.3666992,-1.043945,-0.08984375,0.004394531,0.2700195,-0.1386719
1540,23.375,10.3125,-129.6875,-0.3125,-0.9775391,-0.09765625,-0.006835938,0.2709961,-0.1416016
1544,19.4375,13.6875,-123.375,-0.2700195,-0.9467773,-0.1054688,-0.02099609,0.2700195,-0.144043
1548,20.3125,14.9375,-116.9375,-0.2583008,-0.9892578,-0.04394531,-0.02832031,0.2685547,-0.144043
1552,25.9375,8.625,-124.6875,-0.215332,-0.9931641,0.001953125,-0.0390625,0.2661133,-0.1484375
1556,35.5625,8.6875,-127.625,-0.1923828,-0.9541016,0.02880859,-0.05078125,0.262207,-0.1508789
1560,44.4375,11.25,-125.25,-0.1845703,-0.8027344,-0.005371094,-0.05810547,0.262207,-0.1538086
1564,41.625,7.875,-115.1875,-0.2387695,-0.6748047,-0.02832031,-0.06982422,0.2587891,-0.1577148
1568,37.125,0.5625,-106.6875,-0.1845703,-0.6630859,0.005859375,-0.07958984,0.2539063,-0.1616211
1572,37.75,2.5,-99.9375,-0.1225586,-0.6630859,0.05566406,-0.08398438,0.2524414,-0.1630859
1576,44.1875,9.1875,-83.75,-0.2119141,-0.5698242,0.1210938,-0.09472656,0.2460938,-0.1660156
1580,39.8125,19.9375,-67.5625,-0.05273438,-0.4921875,0.06347656,-0.1010742,0.2426758,-0.1713867
1584,36,18.9375,-54.75,-0.08007813,-0.453125,0.02099609,-0.1030273,0.2397461,-0.1728516
1588,25.9375,6.3125,-52.0625,-0.006347656,-0.4921875,0.05175781,-0.1079102,0.2373047,-0.1782227
1592,21.125,-15.1875,-58.125,0.04345703,-0.5541992,0.07519531,-0.112793,0.2348633,-0.1796875
1596,24,-26.8125,-68.625,0.1557617,-0.5854492,0.125,-0.1162109,0.2314453,-0.1782227
1600,25.4375,-24.8125,-69.75,0.190918,-0.4921875,0.06347656,-0.1210938,0.2260742,-0.1806641
1604,20.3125,-19.875,-61.4375,0.1831055,-0.4179688,0.01708984,-0.1293945,0.2260742,-0.1796875
1608,10.125,-13.1875,-45.4375,0.1870117,-0.3598633,0.02490234,-0.1318359,0.2211914,-0.1806641
1612,3.6875,-7.5,-27.125,0.1987305,-0.3833008,0.03271484,-0.1367188,0.21875,-0.1806641
1616,-0.1875,-3.9375,-13.8125,0.2412109,-0.3911133,0.05566406,-0.1376953,0.2197266,-0.1821289
1620,-4.1875,-3.8125,-5.5625,0.2412109,-0.4257813,0.06738281,-0.1391602,0.21875,-0.1806641
1624,-6.8125,-6.375,-4.9375,0.3227539,-0.4960938,0.07910156,-0.1391602,0.2172852,-0.1806641
1629,-2.0625,-5.4375,-3.625,0.3496094,-0.5776367,0.1098633,-0.1401367,0.21875,-0.1806641
1633,2.5625,-1.625,-1.0625,0.3574219,-0.5151367,0.07910156,-0.1425781,0.21875,-0.1806641
1637,-0.9375,0.625,1.75,0.3457031,-0.4609375,0.04052734,-0.1411133,0.21875,-0.1782227
1641,-4.625,1.8125,5.625,0.3339844,-0.421875,0.04052734,-0.1411133,0.2197266,-0.1796875
1645,-6.0625,0.5625,10.0625,0.2797852,-0.4067383,0.07128906,-0.1401367,0.2211914,-0.1796875
1649,-6.4375,-0.375,15.8125,0.2685547,-0.4570313,0.09033203,-0.1391602,0.2226563,-0.1782227
1653,-3.8125,-2.5625,17.5,0.2836914,-0.3754883,0.09033203,-0.1376953,0.2236328,-0.1796875
1657,-0.25,-2.1875,21.3125,0.2333984,-0.4257813,0.1132813,-0.1376953,0.2226563,-0.1782227
1661,0.9375,0,28.6875,0.2451172,-0.4335938,0.09033203,-0.1352539,0.2236328,-0.1796875
1665,-0.6875,-2.75,31.125,0.2216797,-0.4296875,0.09033203,-0.1328125,0.2250977,-0.1782227
1669,-5.9375,-7.625,35,0.2104492,-0.4609375,0.09033203,-0.1303711,0.2250977,-0.1796875
1673,-9.0625,-9.75,42.4375,0.1987305,-0.5151367,0.06347656,-0.1259766,0.2260742,-0.1782227
1677,-7.75,-6.375,49.5,0.2026367,-0.5307617,0.06738281,-0.1259766,0.2299805,-0.1767578
1681,-4.8125,-4.375,57.125,0.1831055,-0.4882813,0.001953125,-0.1220703,0.2299805,-0.175293
1685,-9.5625,-3.3125,62.3125,0.2026367,-0.5268555,-0.01318359,-0.1176758,0.2324219,-0.1738281
1689,-17.375,-6.75,66.6875,0.125,-0.5385742,-0.01660156,-0.1103516,0.2363281,-0.1738281
1693,-26.125,-14.1875,71.0625,0.1210938,-0.5927734,0.009765625,-0.109375,0.2373047,-0.1728516
1697,-25.8125,-15.75,71.375,0.1171875,-0.6708984,0.03662109,-0.1030273,0.2412109,-0.1699219
1701,-17.9375,-14.875,71.75,0.07080078,-0.7016602,0.05175781,-0.09863281,0.2436523,-0.1674805
1705,-15,-13.625,79.375,0.02050781,-0.6860352,-0.01318359,-0.09375,0.2475586,-0.1674805
1709,-16.75,-13.75,85.875,0.05126953,-0.7133789,-0.06298828,-0.08642578,0.2509766,-0.1630859
1713,-16.75,-6.5,91.6875,0.05126953,-0.7407227,-0.07080078,-0.08056641,0.2539063,-0.1645508
1717,-17.5,3.1875,97.75,0.008789063,-0.7485352,-0.08984375,-0.07226563,0.2548828,-0.1616211
1721,-15.0625,12.875,102.5,-0.08398438,-0.7753906,-0.06298828,-0.06494141,0.2573242,-0.1630859
1725,-5.3125,21,109.4375,-0.1845703,-0.7910156,0.02099609,-0.05419922,0.2612305,-0.1591797
1729,-7.25,23,128.8125,-0.3432617,-0.7329102,-0.02441406,-0.04492188,0.2612305,-0.1606445
1733,-11.5625,17.875,139.5,-0.2504883,-0.8183594,-0.001464844,-0.03320313,0.262207,-0.1591797
1737,-18.1875,16.5625,137.25,-0.2890625,-0.7988281,-0.0859375,-0.02001953,0.262207,-0.1591797
1741,-34.5625,8.4375,132.4375,-0.3862305,-0.7719727,-0.1166992,-0.01171875,0.2661133,-0.1577148
1745,-49.25,-3.5625,133.5625,-0.4169922,-0.8764648,-0.07470703,0.002441406,0.2661133,-0.1538086
1749,-52.6875,-8,135.3125,-0.4052734,-0.9892578,-0.05126953,0.01416016,0.2661133,-0.1508789
1753,-51.125,-12.75,134.8125,-0.4672852,-0.9970703,-0.04736328,0.02148438,0.2675781,-0.144043
1758,-57.3125,-20.125,140.6875,-0.5063477,-1.012695,-0.08203125,0.03417969,0.2675781,-0.1416016
1762,-64.75,-27.375,142.8125,-0.4985352,-1.109863,-0.08203125,0.04882813,0.2661133,-0.1347656
1766,-62.25,-31.125,143.875,-0.4829102,-1.265137,-0.07470703,0.06054688,0.2661133,-0.1318359
1770,-47.125,-20.6875,144.3125,-0.3862305,-1.34668,-0.08984375,0.06982422,0.2651367,-0.1279297
1774,-35,-9.3125,142.0625,-0.4130859,-1.304199,-0.1513672,0.08447266,0.2597656,-0.125
1778,-33.5625,-8.4375,133.3125,-0.5410156,-1.22998,-0.2089844,0.09277344,0.2573242,-0.1210938
1782,-37.4375,-11.3125,130,-0.6494141,-1.195313,-0.2016602,0.1035156,0.2548828,-0.1181641
1786,-41.0625,-13.625,128.625,-0.7387695,-1.144531,-0.2167969,0.1152344,0.25,-0.1166992
1790,-50.8125,-19.5,133.0625,-0.8085938,-1.148438,-0.2324219,0.1225586,0.2451172,-0.1157227
1794,-57.1875,-26.6875,136.3125,-0.8007813,-1.241699,-0.2128906,0.1342773,0.2412109,-0.112793
1798,-55.75,-31.3125,137.75,-0.715332,-1.323242,-0.2128906,0.1450195,0.2373047,-0.105957
1802,-47.875,-32.375,130.0625,-0.6806641,-1.358398,-0.1899414,0.1523438,0.2324219,-0.1044922
1806,-41.25,-31.8125,123.25,-0.699707,-1.304199,-0.2207031,0.1650391,0.2250977,-0.105957
1810,-39.25,-30.1875,120.625,-0.7543945,-1.276855,-0.2016602,0.1723633,0.21875,-0.1044922
1814,-35.4375,-30.875,121.25,-0.8046875,-1.276855,-0.1743164,0.1782227,0.2138672,-0.1020508
1818,-31,-32.9375,125.6875,-0.8276367,-1.280762,-0.1245117,0.1855469,0.2060547,-0.1020508
1822,-22.5625,-34.375,132.1875,-0.7851563,-1.358398,-0.0859375,0.1962891,0.2011719,-0.1044922
1826,-11.5,-34.5625,130.625,-0.7036133,-1.428223,-0.07861328,0.2021484,0.1938477,-0.1044922
1830,0.6875,-32.5,125.4375,-0.5834961,-1.401367,-0.1435547,0.2104492,0.1826172,-0.1035156
1834,-2.4375,-29.6875,116.75,-0.5566406,-1.276855,-0.2553711,0.2177734,0.1762695,-0.1074219
1838,-16.1875,-34.375,107.5625,-0.5644531,-1.245605,-0.2822266,0.2236328,0.1699219,-0.1098633
1842,-29.0625,-37.3125,99.3125,-0.4711914,-1.327148,-0.2939453,0.2285156,0.1586914,-0.1098633
1846,-35.0625,-33.3125,94.125,-0.3666992,-1.455566,-0.2705078,0.234375,0.1513672,-0.1088867
1850,-35.5,-30.3125,83.875,-0.3007813,-1.560547,-0.2285156,0.2368164,0.1459961,-0.1113281
1854,-30.5,-29.0625,65.75,-0.1884766,-1.708008,-0.2167969,0.2392578,0.1401367,-0.1113281
1858,-14.5625,-19.125,43.5625,-0.07226563,-1.820801,-0.1708984,0.2436523,0.1323242,-0.112793
1862,10.3125,1.875,27.5,0.02050781,-1.968262,-0.0859375,0.2426758,0.1289063,-0.1142578
1866,25,10.25,1.375,-0.2119141,-1.719727,-0.1743164,0.2451172,0.1289063,-0.1142578
1870,15.9375,3.125,-11.6875,-0.2504883,-1.665527,-0.2089844,0.2436523,0.1264648,-0.1142578
1874,24,10.5,-27.9375,-0.1884766,-1.770508,-0.109375,0.2426758,0.1313477,-0.1142578
1878,40.5625,20.3125,-45.8125,-0.2426758,-1.743164,-0.1245117,0.2436523,0.1337891,-0.1157227
1882,44.1875,23.625,-64.5625,-0.3242188,-1.587891,-0.2553711,0.2402344,0.1376953,-0.1166992
1887,33.4375,25.0625,-81.5,-0.3935547,-1.513672,-0.2900391,0.2392578,0.1411133,-0.112793
1891,24.25,24.0625,-95.0625,-0.4829102,-1.548828,-0.2553711,0.2368164,0.1513672,-0.1157227
1895,19.5,22.625,-107.5,-0.5449219,-1.541016,-0.2089844,0.2285156,0.15625,-0.1157227
1899,22.375,23.125,-120.0625,-0.5952148,-1.587891,-0.1591797,0.2246094,0.1635742,-0.1157227
1903,34.625,27.6875,-129.75,-0.6416016,-1.595215,-0.1552734,0.21875,0.1738281,-0.1142578
1907,43.1875,32.75,-139.0625,-0.7192383,-1.529297,-0.1860352,0.2094727,0.1835938,-0.1157227
1911,41.4375,30.75,-146.3125,-0.7773438,-1.447754,-0.2016602,0.2045898,0.1875,-0.1166992
1915,36.8125,28.3125,-153.25,-0.7890625,-1.405273,-0.2128906,0.1962891,0.1987305,-0.1142578
1919,35.1875,29.5625,-159.125,-0.7890625,-1.405273,-0.1938477,0.1831055,0.2099609,-0.1166992
1923,36.5,32.0625,-164.5625,-0.8198242,-1.428223,-0.1743164,0.1748047,0.2148438,-0.1166992
1927,39.125,32.6875,-169.9375,-0.831543,-1.408691,-0.1630859,0.1606445,0.2226563,-0.1181641
1931,41.5,30.9375,-174.9375,-0.8745117,-1.354492,-0.1552734,0.1484375,0.2314453,-0.1196289
1935,39.0625,26.6875,-178.0625,-0.8974609,-1.280762,-0.1323242,0.1391602,0.2363281,-0.1210938
1939,34.6875,19.75,-176.875,-0.9013672,-1.249512,-0.1245117,0.125,0.2451172,-0.1235352
1943,28.625,13.125,-175.625,-0.8666992,-1.203125,-0.109375,0.109375,0.2509766,-0.1235352
1947,25.75,9.6875,-171.8125,-0.8237305,-1.22998,-0.07470703,0.09765625,0.2548828,-0.125
1951,26.75,9.625,-167.375,-0.7504883,-1.214844,-0.05908203,0.08056641,0.2612305,-0.1264648
1955,25.9375,9.75,-165.875,-0.7270508,-1.203125,-0.05126953,0.06640625,0.2651367,-0.1264648
1959,23,3.4375,-166.3125,-0.7192383,-1.1875,-0.02832031,0.05566406,0.2675781,-0.1303711
1963,18.5625,-0.1875,-167.625,-0.6303711,-1.167969,-0.01318359,0.04052734,0.2685547,-0.1318359
1967,15.4375,-3.8125,-166.875,-0.6533203,-1.15625,0.001953125,0.0234375,0.2709961,-0.1347656
1971,15.5,-11.625,-159.875,-0.6186523,-1.175781,0.04785156,0.01269531,0.2724609,-0.1347656
1975,27.5,-11.1875,-146.5625,-0.5253906,-1.241699,0.1098633,-0.0009765625,0.2739258,-0.1357422
1979,41.625,0.5625,-137.875,-0.3588867,-1.183594,0.07128906,-0.01757813,0.2724609,-0.1401367
1983,39.5625,-0.0625,-143,-0.4052734,-1.020508,-0.04394531,-0.02685547,0.2700195,-0.1416016
1987,25.75,-10.375,-151.0625,-0.3242188,-0.9580078,-0.05517578,-0.04150391,0.2685547,-0.1455078
1991,27.0625,-4.9375,-152.1875,-0.246582,-1.000977,0.02880859,-0.05566406,0.2651367,-0.1455078
1995,37.125,1.8125,-148.3125,-0.2773438,-0.8999023,0.01367188,-0.06298828,0.262207,-0.1494141
1999,48.25,5.5625,-141.125,-0.2773438,-0.7680664,0.01367188,-0.07714844,0.2573242,-0.1523438
2003,59.375,14,-130.4375,-0.2426758,-0.6201172,-0.02441406,-0.08886719,0.2509766,-0.1577148
2007,63.375,19.4375,-117.125,-0.2700195,-0.3989258,-0.06298828,-0.09716797,0.2485352,-0.1616211
2011,53.9375,17.125,-102.9375,-0.262207,-0.2314453,-0.09375,-0.1044922,0.2412109,-0.1674805
2016,40.0625,12,-91.5625,-0.2231445,-0.1538086,-0.07080078,-0.112793,0.2363281,-0.1699219
2020,27.8125,6,-78.6875,-0.1225586,-0.1230469,-0.06298828,-0.1176758,0.2338867,-0.1738281
2024,20.375,6.125,-67.125,-0.002441406,-0.1459961,-0.02832031,-0.1259766,0.2285156,-0.175293
2028,17.875,5.3125,-58.75,0.02050781,-0.1811523,0.02099609,-0.1293945,0.2260742,-0.1782227
2032,19.375,2.3125,-47.75,0.04345703,-0.2666016,0.09423828,-0.1328125,0.2260742,-0.1782227
2036,26.375,1.375,-38.375,0.1171875,-0.3056641,0.1171875,-0.1376953,0.2211914,-0.1796875
2040,25.375,-0.0625,-35.75,0.1518555,-0.1967773,0.02880859,-0.1401367,0.2172852,-0.1821289
2044,11.125,-6.75,-29.4375,0.140625,-0.1616211,-0.01318359,-0.1401367,0.2163086,-0.1835938
2048,0.125,-10.5625,-18.25,0.1870117,-0.2705078,0.05957031,-0.1435547,0.2148438,-0.1850586
2052,2.125,-8.625,-5.8125,0.2758789,-0.402832,0.09033203,-0.1450195,0.2138672,-0.1850586
2056,5.5625,-3.0625,0.625,0.3691406,-0.4140625,0.05566406,-0.1450195,0.2138672,-0.1835938
2060,1.8125,-2.1875,1.5,0.3574219,-0.4067383,0.005859375,-0.1450195,0.2148438,-0.1835938
2064,-5.8125,-6.75,2.1875,0.3574219,-0.46875,0.03662109,-0.1435547,0.2148438,-0.1850586
2068,-5.25,-6.1875,2.0625,0.4116211,-0.565918,0.09033203,-0.1435547,0.2124023,-0.1821289
2072,0.375,-3.5625,2.875,0.4116211,-0.6005859,0.1171875,-0.1450195,0.2148438,-0.1835938
2076,5.5625,-0.4375,6.9375,0.4194336,-0.5698242,0.1171875,-0.1435547,0.2124023,-0.1835938
2080,7.4375,2.5,8.375,0.3925781,-0.519043,0.08251953,-0.1450195,0.2138672,-0.1821289
2084,4.5,3.375,10.0625,0.3457031,-0.46875,0.07128906,-0.1435547,0.2138672,-0.1821289
2088,0.25,1.9375,15.8125,0.2758789,-0.4335938,0.06738281,-0.1401367,0.2124023,-0.1850586
2092,-5.0625,-0.0625,24.1875,0.2568359,-0.421875,0.07128906,-0.1411133,0.2148438,-0.1865234
2096,-12.9375,-3.9375,33.25,0.2138672,-0.4375,0.07128906,-0.1391602,0.2172852,-0.1835938
2100,-21.1875,-8.9375,39.625,0.2177734,-0.4296875,0.05175781,-0.1376953,0.2197266,-0.1821289
2104,-30,-14.625,44.125,0.2294922,-0.4921875,0.04785156,-0.1328125,0.2211914,-0.1806641
2108,-29.875,-15.625,46,0.2724609,-0.581543,0.08251953,-0.1318359,0.2250977,-0.1782227
2112,-20.375,-11.875,47.8125,0.2607422,-0.6513672,0.140625,-0.1293945,0.2285156,-0.1738281
2116,2.375,-1.6875,53.625,0.2490234,-0.6669922,0.1367188,-0.1259766,0.2285156,-0.1738281
2120,17.25,13.125,61.5625,0.1635742,-0.534668,0.08642578,-0.1210938,0.2314453,-0.175293
2124,9.3125,12.3125,67.375,-0.006347656,-0.3442383,0.04443359,-0.1152344,0.2363281,-0.1782227
2128,-4.4375,2.625,75.6875,-0.04492188,-0.3754883,0.09814453,-0.1113281,0.2324219,-0.175293
2132,-5.875,0,86.375,-0.04101563,-0.46875,0.1518555,-0.1054688,0.2387695,-0.1767578
2136,0.0625,0,95.375,-0.05273438,-0.5268555,0.1479492,-0.09716797,0.2412109,-0.1767578
2140,5.75,0.625,98.6875,-0.09521484,-0.5463867,0.08251953,-0.09228516,0.2426758,-0.175293
2145,4.5,0.0625,101.75,-0.2080078,-0.5229492,-0.02832031,-0.08300781,0.2451172,-0.1767578
2149,-11.125,-2.8125,111.6875,-0.2890625,-0.534668,-0.07470703,-0.07568359,0.2460938,-0.1782227
2153,-23,-7.875,119.75,-0.262207,-0.6318359,-0.07080078,-0.06640625,0.2485352,-0.1767578
2157,-25.3125,-4.5625,129.0625,-0.2231445,-0.7211914,-0.03613281,-0.05664063,0.2539063,-0.1738281
2161,-27.875,-4.875,135.875,-0.2700195,-0.7563477,-0.07080078,-0.04394531,0.2573242,-0.1713867
2165,-35.125,-7.9375,141.8125,-0.2504883,-0.8496094,-0.09765625,-0.03662109,0.2563477,-0.1699219
2169,-38.625,-6.4375,141.5625,-0.2504883,-0.9619141,-0.1054688,-0.02246094,0.2587891,-0.1674805
2173,-40.5625,-3.875,138.5,-0.328125,-1.012695,-0.1054688,-0.009277344,0.262207,-0.1630859
2177,-44.6875,-5.4375,140.9375,-0.3862305,-1.066895,-0.09375,-0.0009765625,0.262207,-0.1606445
2181,-40.25,-3,142.1875,-0.3823242,-1.125488,-0.06689453,0.01269531,0.2636719,-0.15625
2185,-31.75,3.875,146.5625,-0.4208984,-1.109863,-0.08203125,0.02587891,0.2636719,-0.1523438
2189,-30.5625,8.1875,152.125,-0.4868164,-1.098145,-0.109375,0.03320313,0.262207,-0.1508789
2193,-31.125,6.625,150.5625,-0.5834961,-1.109863,-0.1015625,0.04980469,0.2612305,-0.1469727
2197,-28.375,5.4375,148.375,-0.6376953,-1.125488,-0.0859375,0.06298828,0.2587891,-0.144043
2201,-23.125,7.875,151.5625,-0.7426758,-1.125488,-0.08203125,0.07373047,0.2573242,-0.1425781
2205,-27.125,3.875,159.6875,-0.7929688,-1.148438,-0.1401367,0.08691406,0.2509766,-0.1401367
2209,-30.5,3.375,160.1875,-0.7348633,-1.210938,-0.1401367,0.1020508,0.2485352,-0.1386719
2213,-31.6875,6.0625,155,-0.8237305,-1.214844,-0.1630859,0.1118164,0.2436523,-0.1386719
2217,-40.1875,4,153.375,-0.878418,-1.164063,-0.1669922,0.1259766,0.2397461,-0.1347656
2221,-46.6875,0.3125,153.75,-0.8706055,-1.21875,-0.1206055,0.1391602,0.2324219,-0.1303711
2225,-42.4375,0,156.125,-0.8432617,-1.308105,-0.06689453,0.1459961,0.2285156,-0.1279297
2229,-34.5,1.75,155.125,-0.8164063,-1.288574,-0.08203125,0.1591797,0.2226563,-0.1279297
2233,-34.0625,0.75,151,-0.847168,-1.214844,-0.1323242,0.1738281,0.2138672,-0.1235352
2237,-42.4375,-1.875,148.5625,-0.8354492,-1.22998,-0.1362305,0.1796875,0.2050781,-0.1225586
2241,-46.25,-7,142.125,-0.8393555,-1.280762,-0.09375,0.1928711,0.1972656,-0.1210938
2245,-51.625,-15.1875,132.8125,-0.8164063,-1.26123,-0.128418,0.2021484,0.1899414,-0.1181641
2249,-55.8125,-20.25,126.8125,-0.78125,-1.319336,-0.1166992,0.2080078,0.1850586,-0.1166992
2253,-55.3125,-21.25,124.4375,-0.7348633,-1.401367,-0.109375,0.215332,0.1748047,-0.1142578
2257,-50.6875,-17.5,122.8125,-0.6884766,-1.509766,-0.1362305,0.222168,0.1689453,-0.1113281
2261,-48.4375,-17.5,116.6875,-0.6186523,-1.595215,-0.1435547,0.230957,0.1625977,-0.1088867
2265,-46.9375,-20.3125,105.9375,-0.5449219,-1.688477,-0.128418,0.234375,0.1523438,-0.1074219
2269,-41.9375,-22.6875,92.125,-0.4521484,-1.777832,-0.09375,0.2402344,0.1425781,-0.105957
2274,-30.75,-23.125,77.75,-0.3666992,-1.820801,-0.0859375,0.2426758,0.1376953,-0.1035156
2278,-23.8125,-22.375,62.375,-0.3125,-1.797363,-0.09375,0.2451172,0.1313477,-0.105957
2282,-22.625,-24.8125,42.375,-0.2583008,-1.793457,-0.1513672,0.2485352,0.125,-0.105957
2286,-22.5625,-26,23.4375,-0.1225586,-1.925781,-0.1630859,0.2509766,0.125,-0.1074219
2290,-18.75,-26.0625,-11.3125,-0.09912109,-1.848145,-0.2592773,0.25,0.1225586,-0.1098633
2294,0.9375,-16.125,-22.875,-0.01416016,-1.9375,-0.1899414,0.2485352,0.125,-0.1113281
2298,33.1875,11.75,-41.75,-0.01025391,-1.890625,-0.2089844,0.2485352,0.1274414,-0.1098633
2302,55.4375,31.75,-60.9375,-0.246582,-1.704102,-0.2670898,0.2460938,0.1323242,-0.1113281
2306,57.4375,34.625,-76,-0.4169922,-1.521484,-0.3012695,0.2436523,0.1386719,-0.1113281
2310,49.25,32.625,-93.625,-0.5488281,-1.436035,-0.2705078,0.2412109,0.1435547,-0.112793
2314,36.6875,26.1875,-104.8125,-0.6455078,-1.37793,-0.2514648,0.2329102,0.1499023,-0.1142578
2318,28.8125,22.1875,-113.1875,-0.6767578,-1.412598,-0.2089844,0.2294922,0.1601563,-0.1142578
2322,27.25,22.8125,-120.8125,-0.6572266,-1.467285,-0.1977539,0.2246094,0.1650391,-0.112793
2326,31.4375,25.375,-131.375,-0.6572266,-1.471191,-0.2089844,0.2177734,0.1748047,-0.1113281
2330,33.0625,26.25,-141.625,-0.6806641,-1.389648,-0.2397461,0.2094727,0.1835938,-0.1142578
2334,25.5625,23.4375,-151.125,-0.7426758,-1.34668,-0.2592773,0.2011719,0.1899414,-0.1142578
2338,15.9375,19.75,-158.6875,-0.7387695,-1.354492,-0.2397461,0.1904297,0.2001953,-0.112793
2342,10.4375,15.875,-165.875,-0.765625,-1.397461,-0.1782227,0.1806641,0.2099609,-0.1142578
2346,14.75,15.75,-169.875,-0.7543945,-1.436035,-0.1401367,0.1723633,0.2172852,-0.1142578
2350,22.5625,19.6875,-170.5625,-0.7890625,-1.428223,-0.1362305,0.1582031,0.2285156,-0.1142578
2354,27.875,20.3125,-170.5,-0.8164063,-1.401367,-0.1362305,0.144043,0.2348633,-0.1142578
2358,32.875,18.875,-172.125,-0.8085938,-1.342773,-0.1323242,0.1333008,0.2426758,-0.1157227
2362,34.5625,17.125,-173.9375,-0.8198242,-1.272949,-0.1435547,0.1201172,0.2485352,-0.1166992
2366,30.9375,13.75,-173.3125,-0.8237305,-1.210938,-0.1362305,0.1035156,0.2539063,-0.1181641
2370,25.8125,7.5,-169.125,-0.78125,-1.210938,-0.1166992,0.09375,0.2573242,-0.1210938
2374,25.0625,6.6875,-167.5625,-0.6611328,-1.21875,-0.09375,0.07714844,0.262207,-0.1235352
2378,27.9375,12.3125,-165.875,-0.6342773,-1.214844,-0.07861328,0.06298828,0.2675781,-0.1235352
2382,30.25,15.125,-160.875,-0.6533203,-1.222656,-0.06298828,0.05224609,0.2685547,-0.1264648
2386,32.625,14.8125,-159,-0.6533203,-1.183594,-0.03613281,0.03662109,0.2700195,-0.1279297
2390,37.3125,11.625,-156.25,-0.6303711,-1.144531,0.02099609,0.02246094,0.2709961,-0.1303711
2394,42.625,7,-151.625,-0.5722656,-1.074707,0.05175781,0.01074219,0.2724609,-0.1333008
2398,47,2.5,-143.6875,-0.4907227,-0.9970703,0.02490234,-0.001953125,0.2709961,-0.1357422
2403,42.75,0.4375,-140,-0.4052734,-0.9155273,-0.03222656,-0.01757813,0.2700195,-0.1401367
2407,33.8125,-0.125,-138.3125,-0.3125,-0.8725586,-0.07861328,-0.02587891,0.2700195,-0.1425781
2411,25.5625,-0.375,-137.75,-0.2734375,-0.8261719,-0.06298828,-0.03759766,0.2700195,-0.1469727
2415,18.5625,-3.0625,-134.6875,-0.2504883,-0.7988281,-0.03222656,-0.05322266,0.2661133,-0.1484375
2419,13,-3.25,-128.9375,-0.2119141,-0.7719727,0.02099609,-0.06054688,0.2636719,-0.1508789
2423,13.1875,-4.0625,-122.25,-0.1767578,-0.7949219,0.09033203,-0.07128906,0.2597656,-0.1494141
2427,19,-4.1875,-114.25,-0.1459961,-0.7832031,0.1171875,-0.08300781,0.2573242,-0.1523438
2431,22.5,-5.125,-105,-0.09912109,-0.7407227,0.09033203,-0.09130859,0.2548828,-0.1508789
2435,22.125,-7.6875,-97.6875,-0.04882813,-0.7172852,0.08251953,-0.09960938,0.2524414,-0.1538086
2439,22.25,-10.5625,-92.9375,0.04736328,-0.7250977,0.05566406,-0.109375,0.2475586,-0.1577148
2443,27.5,-9.3125,-88.6875,0.09765625,-0.7446289,0.07910156,-0.1137695,0.2460938,-0.1577148
2447,33.9375,-0.75,-86.3125,0.1831055,-0.7172852,0.05957031,-0.1210938,0.2412109,-0.1591797
2451,41.375,5.4375,-82.625,0.1445313,-0.6938477,0.05175781,-0.1303711,0.2348633,-0.1606445
2455,45.875,5.75,-79.125,0.1367188,-0.6123047,0.05957031,-0.1342773,0.2299805,-0.1645508
2459,47.125,4.375,-72.875,0.1484375,-0.5581055,0.05957031,-0.1401367,0.2260742,-0.1674805
2463,46.5625,5.875,-66.0625,0.2026367,-0.4765625,0.01708984,-0.1459961,0.2211914,-0.1738281
2467,42.75,6.75,-59.0625,0.190918,-0.4140625,-0.009277344,-0.1484375,0.21875,-0.1767578
2471,33.5625,6.875,-51.375,0.190918,-0.3286133,-0.02050781,-0.1518555,0.2114258,-0.1767578
2475,22,3.4375,-43.6875,0.1791992,-0.3208008,0.001953125,-0.1567383,0.2075195,-0.1806641
2479,13.875,0.1875,-38.8125,0.2177734,-0.324707,0.04785156,-0.1591797,0.2060547,-0.1835938
2483,11.9375,-2.25,-35,0.2216797,-0.3442383,0.07128906,-0.1616211,0.2060547,-0.1850586
2487,12.8125,-2.5625,-28.1875,0.2529297,-0.3173828,0.07519531,-0.1650391,0.2026367,-0.1850586
2491,7.9375,-5.6875,-17.6875,0.2568359,-0.3056641,0.04785156,-0.1650391,0.2011719,-0.1850586
2495,1.5625,-8.5625,-7.9375,0.3227539,-0.355957,0.04785156,-0.1674805,0.1987305,-0.1850586
2499,2.1875,-7.375,-0.8125,0.3613281,-0.4375,0.1020508,-0.1674805,0.1987305,-0.1850586
2503,7.0625,-6.1875,2.9375,0.4155273,-0.4609375,0.08642578,-0.168457,0.1972656,-0.1835938
2507,4.9375,-6.9375,0.375,0.4619141,-0.4375,0.02880859,-0.1674805,0.1972656,-0.1835938
2511,-0.75,-6.0625,-4.875,0.4970703,-0.4492188,0.02880859,-0.1674805,0.1972656,-0.1850586
2515,2.4375,-2.6875,-5.125,0.4619141,-0.5268555,0.07910156,-0.168457,0.1987305,-0.1821289
2519,8.875,2.125,2.5625,0.4233398,-0.4609375,0.08251953,-0.1699219,0.1972656,-0.1835938
2523,9.9375,5.0625,8.875,0.3808594,-0.387207,0.05957031,-0.168457,0.1972656,-0.1850586
2527,5.5625,3.75,14.1875,0.3149414,-0.340332,0.05175781,-0.1665039,0.1987305,-0.1850586
2532,3.5625,2.875,26.5625,0.2685547,-0.340332,0.04443359,-0.1650391,0.1972656,-0.1865234
2536,-5.6875,2.625,42.8125,0.2451172,-0.3173828,0.02099609,-0.1650391,0.2001953,-0.1865234
2540,-18.8125,-2.5625,53,0.2412109,-0.3598633,0.02490234,-0.1616211,0.2026367,-0.1865234
2544,-28.125,-9.0625,56.75,0.2836914,-0.453125,0.05566406,-0.1582031,0.2084961,-0.1835938
2548,-27,-9.8125,57.4375,0.3149414,-0.5385742,0.09814453,-0.1533203,0.2099609,-0.1835938
2552,-19.75,-4.9375,56.125,0.2797852,-0.5620117,0.1132813,-0.1494141,0.2124023,-0.1806641
2556,-11,-1.8125,57.3125,0.1948242,-0.5620117,0.1289063,-0.1474609,0.2148438,-0.1796875
2560,-3.25,0.8125,63.25,0.1674805,-0.5385742,0.1210938,-0.1425781,0.2197266,-0.1782227
2564,6.6875,5.875,70.5,0.1289063,-0.5424805,0.1289063,-0.1391602,0.2211914,-0.1796875
2568,19.375,11.125,79.4375,0.07861328,-0.4921875,0.1171875,-0.1328125,0.2236328,-0.1806641
2572,27.0625,16.1875,90.625,0.02832031,-0.4257813,0.07910156,-0.1245117,0.2250977,-0.1821289
2576,24.9375,18.4375,102.8125,-0.05273438,-0.3598633,0.009765625,-0.1186523,0.2275391,-0.1850586
2580,11.5625,15.5625,111.6875,-0.1381836,-0.3520508,-0.04736328,-0.1103516,0.2299805,-0.1875
2584,-7.375,9.75,118.4375,-0.1806641,-0.3754883,-0.07861328,-0.09960938,0.2338867,-0.1875
2588,-28.625,2.9375,123.125,-0.1845703,-0.4492188,-0.06298828,-0.09228516,0.2363281,-0.1875
2592,-40.125,-1.625,122.1875,-0.2001953,-0.5737305,0.001953125,-0.08203125,0.2426758,-0.1821289
2596,-37.8125,-0.3125,123.5625,-0.2700195,-0.6787109,0.04785156,-0.07128906,0.2460938,-0.1806641
2600,-32.5625,4.6875,128.9375,-0.3549805,-0.6787109,0.05566406,-0.06298828,0.25,-0.1782227
2604,-37.0625,5.6875,142.125,-0.4790039,-0.6787109,0.005859375,-0.05078125,0.2524414,-0.175293
2608,-46.625,-1.75,157.5625,-0.5449219,-0.7524414,-0.009277344,-0.03759766,0.2573242,-0.1728516
2612,-56.8125,-8,164.5625,-0.4521484,-0.8066406,-0.05126953,-0.02685547,0.2573242,-0.1713867
2616,-68.875,-11.5,165.625,-0.4829102,-0.8764648,-0.08203125,-0.01269531,0.2612305,-0.1645508
2620,-80.8125,-18.5,164.8125,-0.5527344,-0.9697266,-0.09765625,0.003417969,0.2651367,-0.1577148
2624,-81.5,-24.875,164.3125,-0.6186523,-1.144531,-0.05126953,0.01171875,0.2675781,-0.1523438
2628,-67.5625,-24.5625,166.6875,-0.6650391,-1.280762,-0.03222656,0.02832031,0.2661133,-0.1455078
2632,-53.625,-21.5,172.5625,-0.7617188,-1.331055,-0.03222656,0.04248047,0.2675781,-0.1401367
2636,-47.5,-25.75,180.5,-0.7348633,-1.358398,-0.1054688,0.05322266,0.2636719,-0.1386719
2640,-39.6875,-25.6875,179.75,-0.6533203,-1.397461,-0.1743164,0.06884766,0.2636719,-0.1347656
2644,-34.1875,-19.25,176.625,-0.6342773,-1.408691,-0.2089844,0.08447266,0.2563477,-0.1303711
2648,-29.125,-10.75,174.0625,-0.6884766,-1.443848,-0.2128906,0.09619141,0.2548828,-0.1289063
2652,-25.5,-5.125,173.75,-0.7426758,-1.42041,-0.2167969,0.1118164,0.2485352,-0.1264648
2656,-26.125,-3.125,172.1875,-0.7617188,-1.447754,-0.2128906,0.1259766,0.2397461,-0.125
2661,-23.375,2.125,165.875,-0.7504883,-1.455566,-0.1513672,0.1367188,0.2373047,-0.1235352
2665,-14.625,7.75,160.375,-0.7695313,-1.432129,-0.08984375,0.1499023,0.2285156,-0.1235352
2669,-10.5,9.875,156.0625,-0.7851563,-1.354492,-0.1054688,0.1640625,0.2211914,-0.1225586
2673,-17.625,6.9375,150.5625,-0.7929688,-1.265137,-0.1474609,0.1738281,0.2124023,-0.1235352
2677,-32.75,2.3125,145.6875,-0.8046875,-1.272949,-0.1435547,0.184082,0.2036133,-0.1210938
2681,-48.6875,-6.75,140.5625,-0.796875,-1.358398,-0.1362305,0.1938477,0.1962891,-0.1166992
2685,-52.6875,-13.1875,129.4375,-0.7348633,-1.505859,-0.06298828,0.2021484,0.1899414,-0.1181641
2689,-38.375,-11.8125,117.5625,-0.6923828,-1.580078,0.01708984,0.2094727,0.1811523,-0.1157227
2693,-20.6875,-9.125,110.9375,-0.7036133,-1.552734,0.04443359,0.2177734,0.1762695,-0.1113281
2697,-2.5,-5.5625,108.0625,-0.6923828,-1.479004,0.02099609,0.2211914,0.1689453,-0.1142578
2701,0.25,-7,104.6875,-0.7075195,-1.34668,-0.07080078,0.2294922,0.1601563,-0.112793
2705,-9.5,-18.375,98.375,-0.7348633,-1.280762,-0.1474609,0.234375,0.1513672,-0.1142578
2709,-26.4375,-35.375,88.4375,-0.699707,-1.26123,-0.1938477,0.237793,0.1450195,-0.1142578
2713,-44.375,-48.1875,77.8125,-0.6342773,-1.296387,-0.1899414,0.2412109,0.1362305,-0.1142578
2717,-54.75,-56.1875,65.875,-0.5795898,-1.397461,-0.1474609,0.2451172,0.1313477,-0.1142578
2721,-48.6875,-54.875,52.0625,-0.5063477,-1.45166,-0.08203125,0.2436523,0.1298828,-0.1157227
2725,-27.9375,-42,59.0625,-0.1030273,-1.886719,-0.03613281,0.2475586,0.1235352,-0.1157227
2729,-3.1875,-33,-36.6875,0.0009765625,-1.490723,-0.4052734,0.2475586,0.1235352,-0.1166992
2733,-14.75,-36.1875,-52.375,-0.4130859,-1.436035,-0.4130859,0.2451172,0.125,-0.1210938
2737,-0.375,-15.4375,-21.875,-0.4248047,-1.397461,-0.2939453,0.2412109,0.1289063,-0.1225586
2741,19.6875,13,8.25,-0.2890625,-1.374023,-0.2592773,0.2402344,0.1313477,-0.1210938
2745,21.5625,30.25,8.1875,-0.2734375,-1.358398,-0.3208008,0.2426758,0.1313477,-0.1225586
2749,10.75,27.0625,-21,-0.296875,-1.537109,-0.2324219,0.2436523,0.1313477,-0.1225586
2753,13.5625,18.625,-62.875,-0.3242188,-1.665527,-0.1552734,0.2426758,0.1362305,-0.1225586
2757,21.375,14.75,-96.5625,-0.3745117,-1.723633,-0.1513672,0.237793,0.1401367,-0.1210938
2761,38.375,20.0625,-119.75,-0.4482422,-1.739258,-0.1323242,0.234375,0.1489258,-0.1225586
2765,60.5625,34.5,-127.5,-0.5371094,-1.677246,-0.1552734,0.2270508,0.1577148,-0.1225586
2769,74.1875,46.75,-126.3125,-0.6533203,-1.564453,-0.2324219,0.222168,0.1625977,-0.1235352
2773,72.25,49.75,-130.4375,-0.7504883,-1.42041,-0.2861328,0.215332,0.1699219,-0.1279297
2777,58.4375,43.5,-136.625,-0.7890625,-1.362305,-0.2861328,0.2080078,0.1787109,-0.1289063
2781,42.375,37.625,-145.625,-0.8085938,-1.37793,-0.2363281,0.2021484,0.1860352,-0.1279297
2785,32.5,35.1875,-151.4375,-0.8125,-1.412598,-0.1552734,0.1928711,0.1938477,-0.1279297
2790,28.5625,33.5,-160,-0.8393555,-1.393555,-0.08984375,0.1821289,0.2011719,-0.1289063
2794,23.9375,27.1875,-166.8125,-0.8974609,-1.381836,-0.07470703,0.1748047,0.2084961,-0.1289063
2798,20.1875,18.6875,-172.875,-0.8818359,-1.362305,-0.07080078,0.1616211,0.2197266,-0.1279297
2802,18.125,14.6875,-181.0625,-0.8706055,-1.334961,-0.05517578,0.1499023,0.2299805,-0.1279297
2806,16.0625,10.9375,-185.25,-0.9013672,-1.296387,-0.03222656,0.1391602,0.2338867,-0.1289063
2810,16.0625,5.3125,-182.9375,-0.8974609,-1.304199,0.005859375,0.125,0.2426758,-0.1303711
2814,26.8125,7.8125,-178.9375,-0.7929688,-1.29248,0.02880859,0.1069336,0.2509766,-0.1279297
2818,38.25,15.6875,-175.1875,-0.796875,-1.22998,0.01367188,0.09619141,0.2548828,-0.1289063
2822,41,15.625,-169.375,-0.847168,-1.167969,-0.02050781,0.08203125,0.2573242,-0.1357422
2826,39.25,9.1875,-166.125,-0.8276367,-1.11377,0.005859375,0.06396484,0.2636719,-0.1386719
2830,33.6875,0.875,-163.75,-0.7695313,-1.070801,-0.005371094,0.05322266,0.2636719,-0.1401367
2834,27.5,-1.9375,-163.875,-0.6611328,-1.047363,-0.009277344,0.03808594,0.2661133,-0.1401367
2838,22.8125,-1.3125,-163.375,-0.6030273,-1.012695,-0.009277344,0.0234375,0.2661133,-0.1455078
2842,19.375,-4.0625,-158.3125,-0.5644531,-1.004883,-0.01318359,0.01171875,0.2685547,-0.1425781
2846,20.9375,-4.1875,-152.0625,-0.4868164,-0.9931641,-0.03222656,-0.001953125,0.2675781,-0.1455078
2850,21.375,-1,-143.625,-0.4091797,-0.9350586,-0.03613281,-0.01855469,0.2675781,-0.1494141
2854,18,-0.4375,-135.375,-0.3823242,-0.9077148,-0.01660156,-0.02587891,0.2661133,-0.1494141
2858,19.125,-1.125,-130.1875,-0.328125,-0.8920898,0.009765625,-0.0390625,0.2661133,-0.1508789
2862,22.875,-0.125,-125.875,-0.28125,-0.8881836,0.01708984,-0.05224609,0.262207,-0.1538086
2866,29.0625,5.6875,-124.4375,-0.1923828,-0.8144531,0.005859375,-0.05908203,0.2612305,-0.1547852
2870,31,7.75,-120,-0.2192383,-0.7446289,-0.02832031,-0.07128906,0.2573242,-0.1577148
2874,31.0625,7.9375,-115.9375,-0.1533203,-0.6630859,-0.02441406,-0.08056641,0.2539063,-0.1645508
2878,30.375,9,-110.75,-0.1264648,-0.5927734,-0.005371094,-0.08789063,0.2485352,-0.1630859
2882,31.0625,10.0625,-102.25,-0.1186523,-0.5385742,0.03271484,-0.09716797,0.2460938,-0.1674805
2886,35.6875,10.3125,-92.375,-0.1069336,-0.4960938,0.07519531,-0.1030273,0.2426758,-0.1699219
2890,41.3125,9.75,-82.875,-0.07226563,-0.4335938,0.08642578,-0.109375,0.2373047,-0.1713867
2894,41,8.375,-72.0625,-0.04101563,-0.3325195,0.04443359,-0.1162109,0.2348633,-0.1738281
2898,32.8125,5.0625,-62.5,0.008789063,-0.2783203,0.03271484,-0.1210938,0.2299805,-0.1796875
2902,23.125,0.75,-54.875,0.03173828,-0.2509766,0.02880859,-0.1245117,0.2275391,-0.1796875
2906,12.75,-3.4375,-44.75,0.07080078,-0.2783203,0.05957031,-0.1269531,0.2236328,-0.1806641
2910,7.5625,-5,-37.25,0.1484375,-0.3095703,0.06738281,-0.1342773,0.2211914,-0.1835938
2914,5.125,-5.5,-32.5625,0.1713867,-0.3325195,0.07910156,-0.1376953,0.2211914,-0.1821289
2919,3.1875,-6.75,-26.75,0.2026367,-0.3481445,0.06347656,-0.1376953,0.21875,-0.1835938
2923,2.8125,-7.8125,-19.3125,0.2451172,-0.3754883,0.04052734,-0.1391602,0.2172852,-0.1835938
2927,3.25,-4.375,-11.8125,0.2954102,-0.4101563,0.005859375,-0.1411133,0.21875,-0.1821289
2931,3.9375,0.5,-6.1875,0.3071289,-0.4375,0.02490234,-0.1425781,0.2172852,-0.1806641
2935,5.5625,3.3125,-4,0.3188477,-0.4296875,0.04052734,-0.1425781,0.2163086,-0.1821289
2939,4.5625,3.5625,-0.125,0.2875977,-0.4296875,0.04785156,-0.1425781,0.2172852,-0.1835938
2943,3.9375,2.625,5.75,0.2797852,-0.4414063,0.06738281,-0.1411133,0.2163086,-0.1835938
2947,4.375,1.375,10.1875,0.2724609,-0.4570313,0.09814453,-0.1401367,0.2163086,-0.1865234
2951,8.125,-0.0625,14.875,0.2646484,-0.4492188,0.09423828,-0.1401367,0.2163086,-0.1850586
2955,5.25,-0.6875,22.125,0.2412109,-0.3989258,0.05957031,-0.1391602,0.2163086,-0.1850586
2959,-4.25,-4.375,29.125,0.2104492,-0.3833008,0.04052734,-0.1367188,0.21875,-0.1850586
2963,-13.125,-9.3125,36,0.2216797,-0.4414063,0.05957031,-0.1367188,0.2197266,-0.1835938
2967,-12.625,-9,41.75,0.2607422,-0.5073242,0.09423828,-0.1328125,0.2197266,-0.1835938
2971,-9.0625,-5.8125,47.1875,0.2412109,-0.5385742,0.09423828,-0.1293945,0.2236328,-0.1806641
2975,-1.1875,-2.75,52.5625,0.2333984,-0.5698242,0.09814453,-0.128418,0.2260742,-0.1806641
2979,9.125,5.625,56.625,0.2255859,-0.5541992,0.08642578,-0.1235352,0.2275391,-0.1821289
2983,16.625,13.5625,62.875,0.1484375,-0.5151367,0.07519531,-0.1176758,0.2275391,-0.1835938
2987,16.0625,16.1875,69.5,0.08642578,-0.4375,0.06738281,-0.1152344,0.2285156,-0.1835938
2991,11.6875,16.375,75.0625,0.01660156,-0.402832,0.08642578,-0.109375,0.2299805,-0.1875
2995,6.4375,15.125,83.4375,-0.06054688,-0.3911133,0.1132813,-0.09863281,0.2324219,-0.1875
2999,3.1875,12.4375,92.5,-0.1303711,-0.3950195,0.1171875,-0.09472656,0.2338867,-0.1889648
3003,-2.375,7.4375,100.9375,-0.2192383,-0.3950195,0.09423828,-0.08544922,0.2363281,-0.1889648
3007,-17.1875,-2.125,110.375,-0.296875,-0.4257813,0.05566406,-0.07714844,0.2387695,-0.1875
3011,-31.5625,-13.375,121.9375,-0.296875,-0.5385742,0.05957031,-0.06982422,0.2412109,-0.1889648
3015,-38.0625,-17,127.875,-0.2426758,-0.6435547,0.07910156,-0.06054688,0.2475586,-0.1850586
3019,-35.8125,-16.25,130,-0.2661133,-0.7680664,0.07519531,-0.04980469,0.25,-0.1796875
3023,-25.25,-14.9375,130.25,-0.28125,-0.8378906,0.07910156,-0.04150391,0.2509766,-0.1782227
3027,-13.125,-8.0625,134.3125,-0.3164063,-0.8613281,0.03662109,-0.02929688,0.2548828,-0.1767578
3031,-8.8125,-1,141.1875,-0.3823242,-0.8105469,-0.01318359,-0.01855469,0.2548828,-0.1738281
3035,-19.625,-1.25,149.375,-0.4404297,-0.8417969,-0.07470703,-0.009277344,0.2563477,-0.1738281
3039,-25.8125,-2.0625,147.75,-0.4633789,-0.9155273,-0.04394531,0.003417969,0.2563477,-0.1728516
3043,-23.875,-0.0625,147.375,-0.4946289,-0.9541016,-0.04394531,0.01757813,0.2563477,-0.1699219
3048,-20.625,7.75,149,-0.5102539,-0.9389648,-0.06689453,0.02832031,0.2548828,-0.1699219
3052,-23.125,12.375,153.9375,-0.5683594,-0.9580078,-0.1401367,0.04150391,0.2563477,-0.168457
3056,-31.8125,14.875,157.5,-0.6030273,-0.9931641,-0.1401367,0.05566406,0.2524414,-0.1645508
3060,-51,10.875,163.4375,-0.6923828,-1.05127,-0.2285156,0.06640625,0.2509766,-0.1616211
3064,-70.8125,1.625,158.6875,-0.7075195,-1.1875,-0.1782227,0.08056641,0.25,-0.1577148
3068,-72.5625,-3.375,146.1875,-0.7192383,-1.315918,-0.08984375,0.09521484,0.2475586,-0.1508789
3072,-59.25,-0.0625,138.25,-0.7075195,-1.34668,-0.01318359,0.1044922,0.2436523,-0.1484375
3076,-40.5,11.6875,137.4375,-0.7617188,-1.312012,-0.009277344,0.1166992,0.2412109,-0.1425781
3080,-36.9375,14.8125,141.0625,-0.8818359,-1.179688,-0.06689453,0.1308594,0.2348633,-0.1401367
3084,-52.625,6,147.25,-0.9594727,-1.136719,-0.1630859,0.1367188,0.2314453,-0.1357422
3088,-70.1875,-4.75,148.375,-0.9594727,-1.241699,-0.1630859,0.1499023,0.2236328,-0.1318359
3092,-74.125,-10.8125,145.9375,-0.9248047,-1.374023,-0.1166992,0.1630859,0.21875,-0.1279297
3096,-64.9375,-10.8125,143.75,-0.8237305,-1.486816,-0.07470703,0.1699219,0.2138672,-0.1235352
3100,-50.375,-3.125,140.75,-0.715332,-1.560547,-0.06689453,0.1782227,0.2084961,-0.1210938
3104,-31.0625,6.625,133,-0.6728516,-1.572266,-0.02441406,0.1889648,0.2001953,-0.1166992
3108,-13.625,13,122.75,-0.6728516,-1.498535,-0.03222656,0.1972656,0.1962891,-0.1157227
3112,-2.375,16.1875,117.125,-0.7036133,-1.416504,-0.03222656,0.2055664,0.1884766,-0.1157227
3116,-5.625,12.875,113.625,-0.7773438,-1.312012,-0.07470703,0.2138672,0.1772461,-0.1166992
3120,-21.6875,-2.75,108.625,-0.8007813,-1.29248,-0.08203125,0.21875,0.1723633,-0.112793
3124,-39.625,-23.0625,98.8125,-0.7387695,-1.312012,-0.08203125,0.2260742,0.1650391,-0.112793
3128,-54.9375,-35.5,87.25,-0.6030273,-1.393555,-0.112793,0.230957,0.1577148,-0.1098633
3132,-58.5625,-38.6875,77.125,-0.5214844,-1.521484,-0.07861328,0.234375,0.1513672,-0.112793
3136,-52.0625,-36.0625,71.6875,-0.4365234,-1.634277,-0.04736328,0.2392578,0.1474609,-0.1113281
3140,-35.6875,-29.8125,63.5,-0.3393555,-1.777832,-0.009277344,0.2412109,0.1401367,-0.1074219
3144,-9.0625,-23.125,50.25,-0.3085938,-1.750977,0.009765625,0.2402344,0.1376953,-0.1098633
3148,9.4375,-18,33.5625,-0.2773438,-1.653809,-0.04736328,0.2436523,0.1313477,-0.1113281
3152,14,-14.9375,15.375,-0.2890625,-1.580078,-0.1362305,0.2451172,0.1289063,-0.1142578
3156,11,-16.8125,0.375,-0.3164063,-1.556641,-0.1899414,0.2451172,0.1289063,-0.1142578
3160,8.4375,-16.0625,-13.0625,-0.230957,-1.630371,-0.2167969,0.2451172,0.1298828,-0.1166992
3164,17.0625,-4.5,-30.6875,-0.1459961,-1.719727,-0.2055664,0.2451172,0.1323242,-0.1157227
3168,34.375,11.1875,-55.3125,-0.1845703,-1.696289,-0.2055664,0.2436523,0.1362305,-0.1196289
3172,45.125,19.25,-78.25,-0.3706055,-1.603027,-0.2363281,0.2392578,0.1386719,-0.1181641
3177,44.25,21.5,-90.75,-0.4868164,-1.521484,-0.2324219,0.234375,0.1474609,-0.1196289
3181,39,21,-99.5625,-0.5683594,-1.494629,-0.2246094,0.2319336,0.1513672,-0.1235352
3185,36.4375,16.25,-111.8125,-0.5991211,-1.529297,-0.1669922,0.2270508,0.1601563,-0.1235352
3189,40.6875,16.875,-124.5625,-0.6147461,-1.513672,-0.1669922,0.2202148,0.1674805,-0.125
3193,37.5625,17.375,-132.875,-0.7114258,-1.471191,-0.1938477,0.215332,0.1723633,-0.1279297
3197,29.5,12.125,-138.5,-0.7231445,-1.501953,-0.1899414,0.2045898,0.1811523,-0.1279297
3201,30.875,12.0625,-150.75,-0.6962891,-1.560547,-0.1435547,0.1962891,0.1914063,-0.1279297
3205,41,18.5625,-163,-0.715332,-1.564453,-0.1323242,0.1889648,0.1972656,-0.1289063
3209,49.5,24.375,-168,-0.8007813,-1.494629,-0.1474609,0.1772461,0.2075195,-0.1303711
3213,48.875,27.375,-167,-0.8549805,-1.401367,-0.1899414,0.1650391,0.2148438,-0.1318359
3217,39.8125,24.5,-165.4375,-0.8974609,-1.342773,-0.1708984,0.1557617,0.2172852,-0.1347656
3221,31.3125,17.875,-168,-0.878418,-1.342773,-0.1401367,0.144043,0.2285156,-0.1357422
3225,27.25,12.625,-172.625,-0.8510742,-1.342773,-0.1206055,0.128418,0.2348633,-0.1347656
3229,24.75,9.25,-175.875,-0.831543,-1.331055,-0.112793,0.1201172,0.2412109,-0.1357422
3233,23.4375,8.875,-178.625,-0.7851563,-1.284668,-0.0859375,0.1035156,0.2475586,-0.1386719
3237,20.9375,8.375,-176.6875,-0.796875,-1.26123,-0.07861328,0.08789063,0.2524414,-0.1401367
3241,19.375,5.9375,-173.5625,-0.765625,-1.241699,-0.04736328,0.07714844,0.2573242,-0.1416016
3245,21.375,4.5,-171.625,-0.715332,-1.237793,-0.01660156,0.05957031,0.262207,-0.1425781
3249,27.3125,6,-170.0625,-0.6689453,-1.21875,-0.009277344,0.04638672,0.2651367,-0.1425781
3253,33.3125,9.3125,-168.0625,-0.6225586,-1.171875,-0.005371094,0.03417969,0.2661133,-0.1469727
3257,36.75,11.4375,-165.875,-0.6264648,-1.08252,-0.02441406,0.01904297,0.2675781,-0.1484375
3261,30.6875,7.8125,-158.5625,-0.6030273,-1.008789,-0.04003906,0.003417969,0.2675781,-0.1508789
3265,24.8125,2.875,-152.8125,-0.5292969,-0.9853516,-0.005371094,-0.004394531,0.2651367,-0.1538086
3269,23.1875,3.5,-148,-0.4287109,-0.9814453,0.009765625,-0.02246094,0.2636719,-0.1577148
3273,25.5625,5.4375,-143.8125,-0.378418,-0.9697266,0.02490234,-0.03417969,0.262207,-0.1577148
3277,30.4375,8.25,-139.8125,-0.3203125,-0.9194336,0.02880859,-0.04394531,0.2587891,-0.1591797
3281,31,8.0625,-135.5625,-0.3320313,-0.8535156,0.02880859,-0.05566406,0.2573242,-0.1616211
3285,31.5,5.5,-130.3125,-0.2890625,-0.8066406,0.05566406,-0.06738281,0.2563477,-0.1660156
3289,34.375,4.75,-123.5,-0.230957,-0.7602539,0.07128906,-0.07714844,0.2524414,-0.168457
3293,38.875,6.875,-116.9375,-0.1689453,-0.7016602,0.05957031,-0.08544922,0.2475586,-0.1713867
3297,43.5,9,-112.9375,-0.1499023,-0.6162109,0.05566406,-0.09472656,0.2436523,-0.1738281
3301,47.875,10.125,-105.4375,-0.1611328,-0.5581055,0.05566406,-0.1020508,0.2387695,-0.175293
3306,49.8125,10.5,-95.9375,-0.1147461,-0.4726563,0.05566406,-0.1103516,0.2338867,-0.1821289
3310,50.375,11.5625,-87.5625,-0.04101563,-0.3950195,0.05566406,-0.1162109,0.2260742,-0.1875
3314,48.1875,13,-80.125,-0.006347656,-0.324707,0.03271484,-0.1220703,0.2226563,-0.1889648
3318,43.375,11.75,-71.9375,0.01269531,-0.2431641,0.01367188,-0.1259766,0.2172852,-0.1928711
3322,31.8125,9.375,-58.5625,0.02050781,-0.2124023,0.02099609,-0.1318359,0.2114258,-0.1972656
3326,18.75,4.375,-43.5625,0.08251953,-0.2084961,0.04443359,-0.1342773,0.2114258,-0.1987305
3330,4.875,0.3125,-34.6875,0.1674805,-0.2392578,0.01367188,-0.1367188,0.2084961,-0.199707
3334,-6.5625,-4,-28.3125,0.2138672,-0.2939453,0.005859375,-0.1401367,0.2060547,-0.199707
3338,-15,-6.1875,-23.9375,0.2954102,-0.3911133,0.04052734,-0.1401367,0.2050781,-0.1987305
3342,-16.75,-8.1875,-21.25,0.3574219,-0.484375,0.08642578,-0.1435547,0.2050781,-0.1972656
3346,-16.125,-9.375,-25.75,0.4194336,-0.534668,0.1171875,-0.1459961,0.2036133,-0.1972656
3350,-10.25,-6.75,-31.625,0.4272461,-0.5737305,0.1713867,-0.1474609,0.2026367,-0.1958008
3354,-0.75,-5.125,-32.1875,0.3339844,-0.5541992,0.1982422,-0.1494141,0.2036133,-0.1928711
3358,7.1875,-6.25,-24.75,0.3032227,-0.519043,0.1982422,-0.1533203,0.2026367,-0.1928711
3362,10.25,-5.75,-15.125,0.3613281,-0.4609375,0.125,-0.1557617,0.2011719,-0.1943359
3366,6.9375,-2.6875,-10.375,0.3691406,-0.421875,0.08251953,-0.1567383,0.2011719,-0.1958008
3370,2.1875,-1.125,-2.375,0.3730469,-0.4335938,0.08251953,-0.1542969,0.2001953,-0.1943359
3374,-1.375,0.875,6.125,0.4077148,-0.4921875,0.1098633,-0.1567383,0.2001953,-0.1918945
3378,-2.5,2.6875,6.8125,0.4892578,-0.503418,0.09423828,-0.1567383,0.2011719,-0.1943359
3382,-6.6875,3.3125,5.375,0.4311523,-0.5073242,0.1098633,-0.1542969,0.2001953,-0.1943359
3386,-9.75,-1.625,7.5,0.3925781,-0.5541992,0.1479492,-0.1542969,0.2011719,-0.1943359
3390,-7.375,-2.8125,12.5,0.4077148,-0.6044922,0.1943359,-0.1542969,0.2026367,-0.1943359
3394,-1.8125,-2.4375,15.125,0.3769531,-0.6123047,0.2060547,-0.1533203,0.2026367,-0.1928711
3398,1.25,-4.6875,21.625,0.3457031,-0.581543,0.1826172,-0.1508789,0.2026367,-0.1928711
3402,-0.5625,-5.9375,27.3125,0.3691406,-0.5698242,0.1787109,-0.1494141,0.2050781,-0.1918945
3406,-4.375,-9.125,30.3125,0.3613281,-0.5581055,0.1674805,-0.1494141,0.2050781,-0.1928711
3410,-7.5625,-11.4375,33.3125,0.3769531,-0.5927734,0.1674805,-0.1474609,0.2075195,-0.1904297
3414,-6,-9.9375,36.75,0.3769531,-0.6162109,0.1674805,-0.1435547,0.2084961,-0.1904297
3418,-2.75,-8.3125,39.4375,0.3496094,-0.6005859,0.1635742,-0.1435547,0.2099609,-0.1904297
3422,-1.6875,-7.375,41.5625,0.3305664,-0.5737305,0.140625,-0.1425781,0.2138672,-0.1889648
3426,-1.4375,-6.875,44.25,0.2954102,-0.5541992,0.1289063,-0.1391602,0.2148438,-0.1889648
3430,-1.5,-5.1875,48.875,0.2568359,-0.534668,0.1289063,-0.1352539,0.2148438,-0.1889648
3435,0.625,-3.6875,56.8125,0.2177734,-0.550293,0.1171875,-0.1342773,0.21875,-0.1875
3439,5.1875,0.8125,65.5,0.2216797,-0.550293,0.1132813,-0.128418,0.2197266,-0.1889648
3443,8.3125,5.625,75.3125,0.1948242,-0.5268555,0.07128906,-0.1220703,0.2226563,-0.1889648
3447,7.375,9.625,83.4375,0.1635742,-0.5307617,0.03662109,-0.1186523,0.2236328,-0.1889648
3451,1.6875,11.625,90.25,0.1015625,-0.519043,0.02099609,-0.1103516,0.2275391,-0.1904297
3455,-7.4375,10.8125,97.9375,0.05908203,-0.5424805,0.02099609,-0.1010742,0.2299805,-0.1875
3459,-11.6875,9.4375,101.5625,0.04736328,-0.5854492,0.07519531,-0.09619141,0.2324219,-0.1904297
3463,-8.6875,8.6875,100.5,0.01660156,-0.6279297,0.1098633,-0.08642578,0.2363281,-0.1904297
3467,-7.5625,8.6875,103.375,-0.04882813,-0.6318359,0.09814453,-0.078125,0.2397461,-0.1904297
3471,-11.8125,6.75,105.3125,-0.08398438,-0.6318359,0.09814453,-0.07128906,0.2412109,-0.1904297
3475,-15.75,2.25,106.5,-0.1572266,-0.6474609,0.08642578,-0.06054688,0.2436523,-0.1889648
3479,-21,-1.375,110.3125,-0.2231445,-0.6860352,0.1132813,-0.05224609,0.2436523,-0.1865234
3483,-20.9375,-2.875,117.375,-0.2700195,-0.7485352,0.125,-0.04492188,0.2460938,-0.1865234
3487,-17,-2.625,128.0625,-0.28125,-0.8027344,0.1367188,-0.03515625,0.2485352,-0.1835938
3491,-12.25,-1.0625,134.4375,-0.3007813,-0.8183594,0.09814453,-0.0234375,0.2509766,-0.1821289
3495,-12.25,-1.25,136.625,-0.3354492,-0.8105469,0.07128906,-0.01513672,0.2524414,-0.1835938
3499,-14.375,-3.1875,135.4375,-0.4365234,-0.8496094,0.04443359,-0.003417969,0.2524414,-0.1806641
3503,-19.375,-6.3125,137.625,-0.4750977,-0.8686523,0.02880859,0.008300781,0.2539063,-0.1796875
3507,-24.3125,-6.75,142.375,-0.5214844,-0.9311523,0.02490234,0.01757813,0.2524414,-0.1796875
3511,-24.9375,-6.0625,147.75,-0.5410156,-0.9931641,0.04052734,0.03173828,0.2524414,-0.1767578
3515,-22.1875,-4.75,152.5625,-0.5292969,-1.05127,0.03271484,0.04394531,0.25,-0.1738281
3519,-18.1875,-0.3125,155.4375,-0.5410156,-1.086426,0.02880859,0.05322266,0.2485352,-0.1728516
3523,-17.375,2.3125,154.125,-0.5795898,-1.086426,-0.02832031,0.06640625,0.2460938,-0.1738281
3527,-21.9375,2.5,147.6875,-0.6030273,-1.059082,-0.04394531,0.08203125,0.2426758,-0.1713867
3531,-28.5625,3,142.5,-0.6650391,-1.024414,-0.05517578,0.08886719,0.2412109,-0.168457
3535,-38.6875,1.5625,143.5,-0.7617188,-1.036133,-0.06298828,0.1020508,0.2363281,-0.1674805
3539,-48.25,-1.4375,149.5625,-0.8085938,-1.11377,-0.07080078,0.1152344,0.2338867,-0.1630859
3543,-54.9375,-2.1875,154.625,-0.8237305,-1.203125,-0.04736328,0.1225586,0.2275391,-0.1606445
3547,-54.0625,-2.125,155.9375,-0.8354492,-1.323242,-0.009277344,0.1357422,0.2236328,-0.1547852
3551,-43.9375,-0.3125,155.25,-0.8046875,-1.393555,0.04443359,0.1474609,0.2163086,-0.1523438
3555,-32.0625,2.625,153,-0.7734375,-1.424316,0.03271484,0.1567383,0.2138672,-0.1523438
3559,-21.8125,5.5625,148.25,-0.6962891,-1.393555,0.03662109,0.1689453,0.2060547,-0.1508789
3564,-20.875,5.4375,139.5,-0.7036133,-1.338867,-0.01318359,0.1796875,0.1962891,-0.1469727
3568,-28.5,1.5,127.4375,-0.7036133,-1.296387,-0.03613281,0.1889648,0.1923828,-0.1455078
3572,-34.625,-2.1875,115.75,-0.7387695,-1.319336,-0.02832031,0.1948242,0.1850586,-0.144043
3576,-32.9375,-2.3125,112.3125,-0.7543945,-1.401367,-0.001464844,0.203125,0.1787109,-0.1425781
3580,-16.9375,6.25,113.9375,-0.7231445,-1.428223,0.04785156,0.2080078,0.1723633,-0.1416016
3584,-0.875,15.75,111.75,-0.7114258,-1.354492,0.04052734,0.215332,0.1635742,-0.1416016
3588,8.875,19.1875,103.875,-0.7114258,-1.269043,0.02490234,0.2260742,0.15625,-0.1386719
3592,9,19.9375,95.125,-0.7348633,-1.133301,-0.02050781,0.2270508,0.1513672,-0.137207
3596,-0.625,15.3125,86.8125,-0.8007813,-1.05127,-0.04003906,0.2329102,0.1435547,-0.1401367
3600,-14.4375,6.1875,79.1875,-0.8432617,-0.9697266,-0.03222656,0.2392578,0.1376953,-0.1347656
3604,-30.625,-7.6875,73.25,-0.8818359,-0.9194336,-0.05908203,0.2412109,0.1337891,-0.1357422
3608,-47.625,-21.5625,70.8125,-0.9052734,-0.8842773,-0.05908203,0.2436523,0.1289063,-0.1347656
3612,-60.9375,-33,72.4375,-0.8666992,-0.9194336,-0.05908203,0.2485352,0.1235352,-0.1333008
3616,-65.1875,-36.125,74.9375,-0.8237305,-0.9697266,-0.03222656,0.25,0.1210938,-0.1318359
3620,-63.5625,-36.25,78.125,-0.8046875,-1.016602,-0.02832031,0.2509766,0.1186523,-0.1318359
3624,-58.4375,-36.3125,75,-0.7578125,-1.016602,-0.009277344,0.2558594,0.1113281,-0.1303711
3628,-51.375,-34.625,67.5625,-0.6962891,-1.004883,-0.04003906,0.2583008,0.1074219,-0.1279297
3632,-32.6875,-13.0625,95.25,-0.3549805,-1.614746,0.2290039,0.2592773,0.1025391,-0.1264648
3636,37.4375,18.1875,26.8125,-0.3085938,-1.591309,0.2329102,0.2641602,0.09521484,-0.1279297
3640,60.0625,16.25,-13.25,-0.5683594,-1.086426,-0.09765625,0.2617188,0.09228516,-0.1264648
3644,26.25,-9.8125,-41.5625,-0.6767578,-0.6860352,-0.2978516,0.2617188,0.09375,-0.1289063
3648,-11.625,-29.8125,-49.75,-0.7578125,-0.6435547,-0.2089844,0.2617188,0.09765625,-0.1289063
3652,-20.0625,-28.9375,-36.875,-0.7231445,-0.6435547,-0.1401367,0.2568359,0.1000977,-0.1303711
3656,-15.8125,-14.1875,-14.125,-0.6884766,-0.6162109,-0.09765625,0.2568359,0.1049805,-0.1333008
3660,-11.5,2.875,4.3125,-0.7231445,-0.5541992,-0.09375,0.253418,0.1049805,-0.1333008
