Packet number,Gyroscope X (deg/s),Gyroscope Y (deg/s),Gyroscope Z (deg/s),Accelerometer X (g),Accelerometer Y (g),Accelerometer Z (g),Magnetometer X (G),Magnetometer Y (G),Magnetometer Z (G)
1,-3,-9.5625,11.125,-0.4287109,0.8520508,-0.1513672,0.1796875,-0.3320313,-0.09765625
5,-6.4375,-2.375,4.5,-0.5214844,0.7739258,-0.128418,0.1782227,-0.3344727,-0.09912109
9,-8,-0.25,-4.8125,-0.5913086,0.7236328,-0.1206055,0.1796875,-0.3344727,-0.09912109
13,-3.8125,-3.4375,-10.125,-0.6342773,0.6845703,-0.128418,0.1821289,-0.3344727,-0.09912109
17,1.8125,-10.5625,-11.1875,-0.6376953,0.7119141,-0.1401367,0.1806641,-0.3320313,-0.09912109
21,7.625,-16,-10.5625,-0.6030273,0.7739258,-0.1435547,0.1796875,-0.3305664,-0.09765625
25,12.9375,-13.6875,-6.0625,-0.5214844,0.8481445,-0.1630859,0.1821289,-0.3305664,-0.1005859
29,14,-7.875,-4.625,-0.5024414,0.890625,-0.1630859,0.1806641,-0.3320313,-0.1005859
33,16.0625,-6.875,-3.5625,-0.5292969,0.9453125,-0.1401367,0.1806641,-0.3320313,-0.09765625
37,19.25,-13.875,2.6875,-0.5644531,0.9799805,-0.109375,0.1806641,-0.3320313,-0.09667969
41,24.5,-25.8125,5.75,-0.5874023,0.9643555,-0.109375,0.1806641,-0.3305664,-0.09765625
45,27.8125,-37.5625,4.1875,-0.5566406,0.9838867,-0.109375,0.1782227,-0.3320313,-0.09667969
49,26.6875,-40.8125,4.5,-0.4868164,0.9799805,-0.1166992,0.1772461,-0.3330078,-0.09667969
53,21.5625,-40.25,5,-0.4365234,0.9414063,-0.109375,0.1772461,-0.3354492,-0.09667969
57,18.625,-41.6875,6.5,-0.4091797,0.8828125,-0.128418,0.1757813,-0.3369141,-0.09912109
61,20,-42.3125,10.375,-0.3706055,0.840332,-0.1206055,0.1738281,-0.3369141,-0.09912109
65,19.75,-37.5,12.875,-0.3393555,0.8671875,-0.1245117,0.1723633,-0.3393555,-0.1020508
69,14.5625,-26.875,9.375,-0.347168,0.9179688,-0.1435547,0.1723633,-0.3378906,-0.1020508
73,11.75,-17,2.25,-0.4169922,0.9140625,-0.1782227,0.1699219,-0.3378906,-0.1020508
77,14.625,-10,-4.4375,-0.4365234,0.9257813,-0.1708984,0.1699219,-0.3408203,-0.1020508
81,17.3125,-3.4375,-8.0625,-0.4404297,0.956543,-0.1401367,0.1713867,-0.3378906,-0.1035156
85,19.8125,-6.625,-6.75,-0.4750977,0.9453125,-0.1166992,0.1713867,-0.3378906,-0.09765625
89,23.6875,-11.625,-2.5625,-0.4750977,0.9257813,-0.08984375,0.1713867,-0.3393555,-0.09765625
93,21.625,-16.9375,-1.25,-0.4750977,0.972168,-0.07861328,0.1713867,-0.3378906,-0.09667969
97,12.5625,-23.6875,-1.3125,-0.5063477,0.9838867,-0.1206055,0.1713867,-0.3408203,-0.09667969
101,6.6875,-26.875,-1.875,-0.4594727,0.9335938,-0.1552734,0.1689453,-0.3393555,-0.09765625
105,5.9375,-21.3125,-1.125,-0.4130859,0.9023438,-0.1708984,0.1699219,-0.3393555,-0.09765625
110,3.375,-12.125,0.6875,-0.4052734,0.9179688,-0.1401367,0.1674805,-0.3393555,-0.09765625
114,-4.125,-5,5.125,-0.4594727,0.8984375,-0.128418,0.1674805,-0.3393555,-0.09912109
118,-7.8125,-2.5625,8.8125,-0.5253906,0.8481445,-0.128418,0.1674805,-0.3408203,-0.1005859
122,-11.25,5,7.875,-0.5683594,0.8481445,-0.112793,0.1674805,-0.3393555,-0.1005859
126,-18.5,20.3125,-1.875,-0.6689453,0.8286133,-0.1245117,0.1650391,-0.3417969,-0.09765625
130,-21,34.9375,-13.25,-0.8549805,0.7509766,-0.1323242,0.1650391,-0.3417969,-0.1005859
134,-14.5,29.9375,-24.8125,-0.9985352,0.6655273,-0.128418,0.1699219,-0.3378906,-0.1020508
138,-4.4375,5.625,-35,-1.203613,0.7041016,-0.1782227,0.1723633,-0.3369141,-0.1005859
142,7.1875,-20.8125,-40.6875,-1.223145,0.7856445,-0.1899414,0.1748047,-0.3354492,-0.1005859
146,11.5,-41.875,-43.625,-1.157227,0.8051758,-0.1899414,0.1757813,-0.3344727,-0.1020508
150,11.875,-59.3125,-48.1875,-1.083496,0.7739258,-0.2207031,0.1782227,-0.3320313,-0.1044922
154,12.375,-68.375,-55.125,-0.9985352,0.7275391,-0.2514648,0.1806641,-0.3305664,-0.1044922
158,14.5625,-69.375,-65.125,-0.9013672,0.6811523,-0.2783203,0.1821289,-0.3256836,-0.1098633
162,15.625,-61.75,-72,-0.8745117,0.7001953,-0.2705078,0.1865234,-0.3217773,-0.1098633
166,17,-58.3125,-80.6875,-0.8974609,0.7001953,-0.2631836,0.1889648,-0.3193359,-0.112793
170,18.25,-59.25,-86.5,-0.862793,0.7314453,-0.2744141,0.1938477,-0.3154297,-0.1142578
174,18.625,-52,-90.4375,-0.7695313,0.7314453,-0.2744141,0.1987305,-0.3095703,-0.1157227
178,14.5625,-33.0625,-90.875,-0.7114258,0.7626953,-0.2670898,0.203125,-0.3081055,-0.1157227
182,3.0625,-6.5625,-94.625,-0.8237305,0.793457,-0.2128906,0.2080078,-0.3017578,-0.1166992
186,-6,3.25,-101,-1.060547,0.7431641,-0.1591797,0.215332,-0.296875,-0.1196289
190,-5.3125,-1.875,-110.125,-1.20752,0.6884766,-0.1743164,0.222168,-0.2905273,-0.1181641
194,6.25,-11.9375,-122.5,-1.292969,0.6420898,-0.2055664,0.2294922,-0.2841797,-0.1196289
198,23.3125,-25.1875,-132.8125,-1.327637,0.6616211,-0.2128906,0.237793,-0.2744141,-0.1196289
202,33.75,-38.6875,-137.25,-1.335449,0.7666016,-0.2128906,0.2426758,-0.2695313,-0.1196289
206,39.0625,-48.3125,-139.25,-1.273438,0.7973633,-0.1860352,0.25,-0.2592773,-0.1196289
210,40.3125,-49,-142,-1.234863,0.8364258,-0.1474609,0.2592773,-0.2495117,-0.1210938
214,38.375,-51.4375,-147.25,-1.265625,0.890625,-0.112793,0.2626953,-0.2416992,-0.125
218,33.6875,-54.1875,-153.8125,-1.230957,0.9179688,-0.109375,0.269043,-0.2304688,-0.125
222,30.6875,-50.8125,-158.625,-1.137695,0.8984375,-0.07080078,0.2749023,-0.2192383,-0.1279297
226,24.125,-43.3125,-158.25,-1.103027,0.8945313,-0.02441406,0.2792969,-0.2104492,-0.1289063
230,17.1875,-38.6875,-156.875,-1.125977,0.8520508,0.01708984,0.2841797,-0.1967773,-0.1333008
234,12.625,-41.5625,-154.6875,-1.191895,0.8051758,0.01367188,0.2900391,-0.1845703,-0.1357422
239,14.25,-52.75,-153.375,-1.219238,0.7392578,0.01708984,0.2939453,-0.1733398,-0.1386719
243,18.5,-63.25,-154.5,-1.137695,0.6962891,-0.001464844,0.2983398,-0.1591797,-0.144043
247,21.8125,-62.75,-158.4375,-1.056641,0.7041016,-0.01318359,0.2983398,-0.1445313,-0.1469727
251,17.25,-59.125,-159.9375,-0.9985352,0.7080078,-0.02050781,0.2998047,-0.1333008,-0.1523438
255,14.125,-58.4375,-157.25,-0.9555664,0.6577148,-0.04394531,0.3007813,-0.1206055,-0.15625
259,11.875,-52,-148.1875,-0.9052734,0.6342773,-0.05126953,0.3007813,-0.1044922,-0.1616211
263,11.625,-46.875,-137.75,-0.9326172,0.5449219,-0.05126953,0.3007813,-0.09326172,-0.1645508
267,10.5,-43.6875,-134.75,-0.9399414,0.5136719,-0.02050781,0.2983398,-0.08056641,-0.1699219
271,5.625,-40.25,-133.5,-0.9594727,0.4633789,0.01367188,0.2983398,-0.07080078,-0.175293
275,4.375,-39,-131.9375,-0.9555664,0.3935547,0.03662109,0.2973633,-0.05957031,-0.175293
279,1.6875,-34.5,-131.875,-0.9326172,0.3779297,0.05957031,0.2963867,-0.04833984,-0.1796875
283,-4.3125,-28.375,-129.25,-0.9594727,0.3388672,0.05957031,0.2949219,-0.03320313,-0.1821289
287,-8.5,-25,-128.1875,-0.9672852,0.2573242,0.03271484,0.2915039,-0.02441406,-0.1850586
291,-10.8125,-22.5625,-127.125,-1.005859,0.2070313,0.02490234,0.2900391,-0.01318359,-0.1865234
295,-6.4375,-23,-126.4375,-1.041016,0.06298828,0.02099609,0.2856445,-0.001953125,-0.1875
299,-1.625,-25.5625,-130.0625,-1.009766,0.06689453,0.001953125,0.2841797,0.007324219,-0.1889648
303,1.75,-31.1875,-133.5625,-0.9711914,0.05126953,-0.009277344,0.2807617,0.01757813,-0.1889648
307,7.3125,-38.9375,-132.9375,-0.8935547,0.05908203,-0.001464844,0.2749023,0.03271484,-0.1958008
311,13.5,-49.5,-127.5,-0.7890625,0.07861328,0.001953125,0.2700195,0.03759766,-0.1972656
315,16.375,-56.5,-123.9375,-0.6030273,0.1254883,0.01708984,0.2641602,0.04882813,-0.2011719
319,13.875,-52.75,-117.125,-0.378418,0.1254883,0.02880859,0.2583008,0.05761719,-0.2055664
323,11.6875,-40.375,-107.3125,-0.2192383,0.08642578,0.06347656,0.253418,0.06396484,-0.2094727
327,7.5625,-31.4375,-97.4375,-0.2001953,0.07470703,0.07910156,0.2460938,0.07373047,-0.2119141
331,7.9375,-30.4375,-85.875,-0.1806641,0.03613281,0.1132813,0.2402344,0.07861328,-0.2148438
335,7.8125,-33,-68.75,-0.1650391,-0.01025391,0.1132813,0.2368164,0.08398438,-0.2163086
339,10.3125,-37,-51.4375,-0.09912109,-0.08789063,0.1171875,0.2294922,0.08740234,-0.21875
343,8.3125,-31.875,-36.375,-0.04882813,-0.1074219,0.1132813,0.2260742,0.08886719,-0.2216797
347,-0.0625,-16.6875,-26.25,-0.02587891,-0.1308594,0.1132813,0.2260742,0.09130859,-0.2255859
351,-9.25,0.625,-23.3125,-0.1108398,-0.1577148,0.1518555,0.2236328,0.09228516,-0.2246094
355,-14.3125,2.5,-15.8125,-0.2851563,-0.2202148,0.1674805,0.2211914,0.09765625,-0.2246094
359,-10.625,-9.3125,-7,-0.3164063,-0.3286133,0.1635742,0.222168,0.09765625,-0.2231445
363,-4.375,-18.25,2.0625,-0.28125,-0.340332,0.1210938,0.2202148,0.09765625,-0.2231445
368,-0.875,-17.75,6.6875,-0.2001953,-0.324707,0.1171875,0.2211914,0.09863281,-0.2246094
372,-3.125,-10.1875,12.6875,-0.1767578,-0.2900391,0.1171875,0.2202148,0.09863281,-0.2255859
376,-4.625,-1.5,22.1875,-0.1572266,-0.3173828,0.09423828,0.222168,0.09521484,-0.2270508
380,-2.125,7.4375,32.8125,-0.1923828,-0.3520508,0.08642578,0.2211914,0.09619141,-0.2255859
384,1.0625,13.1875,40.125,-0.2504883,-0.3364258,0.1020508,0.2246094,0.09375,-0.2255859
388,3.8125,16.875,45.75,-0.3085938,-0.3173828,0.09033203,0.2270508,0.09130859,-0.2255859
392,6.0625,14.875,47.4375,-0.3510742,-0.2431641,0.1289063,0.2294922,0.08740234,-0.2231445
396,4.8125,15.375,51.25,-0.328125,-0.1655273,0.144043,0.230957,0.08398438,-0.2216797
400,0.9375,16.25,59.0625,-0.3354492,-0.1347656,0.1479492,0.234375,0.08007813,-0.2231445
404,-2.1875,16.75,67.5625,-0.3432617,-0.1113281,0.1518555,0.237793,0.07373047,-0.2216797
408,-2.6875,15.5625,80.3125,-0.3706055,-0.1308594,0.1020508,0.2426758,0.07128906,-0.2216797
412,1.75,19,89.3125,-0.378418,-0.09570313,0.1020508,0.2451172,0.06396484,-0.2177734
416,-2.625,32.75,97.875,-0.3706055,0.008789063,0.1132813,0.25,0.05761719,-0.21875
420,-12,45.625,105.6875,-0.5292969,0.03613281,0.144043,0.2519531,0.05273438,-0.2148438
424,-15.1875,37,107.6875,-0.7270508,-0.02197266,0.1367188,0.2592773,0.04492188,-0.2119141
428,-3.75,13.8125,108.125,-0.7504883,-0.08398438,0.1328125,0.2626953,0.03613281,-0.2080078
432,10.9375,-0.125,113.8125,-0.6264648,0.02050781,0.144043,0.2675781,0.02880859,-0.2094727
436,11.875,5.5,115.625,-0.5795898,0.2070313,0.140625,0.2700195,0.01757813,-0.206543
440,4.1875,11.875,118.5,-0.5874023,0.3310547,0.1328125,0.2724609,0.006347656,-0.2080078
444,-2.6875,9.5625,133.125,-0.6264648,0.3271484,0.05957031,0.2749023,-0.0004882813,-0.2055664
448,2.25,9.6875,148.625,-0.5566406,0.269043,-0.03613281,0.2773438,-0.01074219,-0.2080078
452,8.3125,23.375,154.75,-0.5292969,0.2768555,-0.04394531,0.2807617,-0.02685547,-0.206543
456,5.625,47.375,153.3125,-0.6416016,0.3935547,-0.03222656,0.2817383,-0.03564453,-0.2055664
460,2.25,63.3125,147.875,-0.746582,0.5136719,0.05566406,0.2866211,-0.05175781,-0.1987305
464,-12.6875,78.5,154.75,-0.9365234,0.6264648,0.07519531,0.2890625,-0.06591797,-0.1928711
468,-20.625,64.5,160.0625,-1.176758,0.5175781,0.04052734,0.2915039,-0.07421875,-0.1889648
472,-5.75,28.75,166.0625,-1.23877,0.3349609,-0.001464844,0.2924805,-0.08935547,-0.1821289
476,17.9375,10.6875,168.125,-1.009766,0.4204102,-0.05517578,0.2924805,-0.1044922,-0.1821289
480,19.3125,32.5,162.75,-0.8393555,0.5839844,-0.02050781,0.2890625,-0.1181641,-0.1796875
484,6.125,66.0625,152.625,-0.9868164,0.7353516,0.03271484,0.2880859,-0.1318359,-0.1767578
488,-2.5,68.375,143.8125,-1.269531,0.7197266,0.06347656,0.2880859,-0.1469727,-0.1699219
492,2.125,37.5,142.4375,-1.401367,0.6694336,0.05957031,0.2880859,-0.1557617,-0.168457
497,17.125,7.4375,147.1875,-1.203613,0.6655273,-0.01660156,0.2841797,-0.1704102,-0.1630859
501,27.125,11.3125,150,-1.001953,0.777832,-0.06689453,0.2783203,-0.1855469,-0.1616211
505,21.25,35.625,144.25,-0.8896484,0.9296875,-0.07470703,0.2758789,-0.1943359,-0.1606445
509,5.25,62.3125,135.9375,-0.9711914,0.9995117,-0.0859375,0.269043,-0.2070313,-0.15625
513,-2.375,69,131.125,-1.15332,0.9682617,-0.1015625,0.2666016,-0.2207031,-0.1484375
517,2.6875,54.5,129.5625,-1.23877,0.890625,-0.128418,0.2641602,-0.2270508,-0.1469727
521,13.375,35.3125,130.6875,-1.20752,0.8867188,-0.1591797,0.2583008,-0.2392578,-0.1425781
525,24.625,23.375,130.375,-1.099121,0.890625,-0.2089844,0.253418,-0.2495117,-0.1386719
529,27.9375,26,127.8125,-0.9516602,0.987793,-0.2089844,0.2460938,-0.2583008,-0.1347656
533,19.6875,42.4375,129.1875,-0.8745117,1.022949,-0.2246094,0.2392578,-0.2680664,-0.1333008
537,13.4375,64.8125,130.625,-0.8974609,1.019043,-0.1977539,0.2319336,-0.2768555,-0.1279297
541,5.3125,81.4375,127.8125,-1.021484,0.9760742,-0.1899414,0.2270508,-0.2832031,-0.125
545,3.8125,92.4375,121.125,-1.145508,0.987793,-0.1435547,0.2211914,-0.2919922,-0.1210938
549,-10.25,94.375,117.125,-1.257813,1.100586,-0.09375,0.2163086,-0.2993164,-0.112793
553,-28.75,95.125,115.75,-1.327637,1.057617,-0.112793,0.2119141,-0.3017578,-0.1088867
557,-39.1875,96.25,110.4375,-1.420898,0.9604492,-0.1206055,0.2045898,-0.3120117,-0.1044922
561,-41.125,86.75,106.6875,-1.521484,0.9179688,-0.1323242,0.1987305,-0.3154297,-0.1044922
565,-40.6875,71.3125,104.8125,-1.560059,0.8867188,-0.1401367,0.1948242,-0.3208008,-0.1005859
569,-42.25,57.125,102.375,-1.541016,0.824707,-0.1323242,0.1879883,-0.3242188,-0.09765625
573,-50,51,95.5,-1.517578,0.7509766,-0.1435547,0.1821289,-0.328125,-0.1020508
577,-56.4375,47.5,84.4375,-1.567871,0.5952148,-0.1513672,0.1772461,-0.3330078,-0.1035156
581,-48.9375,40.25,64.25,-1.649414,0.3232422,-0.1708984,0.1713867,-0.3354492,-0.1035156
585,-28.8125,24.25,35.25,-1.684082,0.203125,-0.128418,0.1689453,-0.3369141,-0.105957
589,-10.9375,5,8.5625,-1.637695,0.2338867,-0.112793,0.1665039,-0.3369141,-0.1074219
593,2.8125,-12.375,-8.9375,-1.603027,0.3427734,-0.05517578,0.1665039,-0.3393555,-0.1074219
597,11.125,-30.8125,-23.375,-1.567871,0.4633789,-0.03613281,0.1665039,-0.3393555,-0.1098633
601,12.125,-45.25,-36.375,-1.517578,0.5761719,-0.04003906,0.1674805,-0.3354492,-0.1088867
605,12.5,-57.5625,-49.75,-1.463379,0.5839844,-0.109375,0.1689453,-0.3344727,-0.1098633
609,17.5,-66.6875,-66,-1.315918,0.6108398,-0.1708984,0.1723633,-0.3320313,-0.112793
613,20.0625,-59.875,-82.375,-1.149414,0.7001953,-0.2089844,0.1757813,-0.3291016,-0.1098633
617,14.1875,-39.1875,-97.0625,-1.067871,0.793457,-0.2128906,0.1796875,-0.3232422,-0.1157227
621,4.375,-21.4375,-108.1875,-1.129883,0.8129883,-0.1821289,0.1889648,-0.3193359,-0.1142578
626,-0.5625,-16.75,-116.9375,-1.227051,0.8012695,-0.1669922,0.1938477,-0.3168945,-0.1166992
630,-2.9375,-26,-127.0625,-1.370117,0.8442383,-0.1977539,0.2021484,-0.3066406,-0.1166992
634,7.4375,-49.125,-133.875,-1.401367,0.8168945,-0.1977539,0.2119141,-0.2993164,-0.1210938
638,22.125,-69,-136.4375,-1.327637,0.875,-0.2089844,0.2177734,-0.2954102,-0.1225586
642,29.375,-78.9375,-138.4375,-1.184082,0.9414063,-0.2324219,0.2236328,-0.2866211,-0.1235352
646,30.4375,-74.6875,-140.0625,-1.07959,0.9682617,-0.1899414,0.2319336,-0.2783203,-0.1279297
650,26.1875,-66,-142,-1.041016,0.9956055,-0.1474609,0.2353516,-0.2729492,-0.1289063
654,19.5,-59.9375,-142.9375,-1.060547,1.003418,-0.112793,0.2426758,-0.2631836,-0.1318359
658,15.125,-60.1875,-143.875,-1.118652,1.003418,-0.08984375,0.2519531,-0.2529297,-0.137207
662,13.6875,-64.8125,-144.3125,-1.129883,0.9643555,-0.06689453,0.253418,-0.2441406,-0.1401367
666,11.3125,-69,-146.75,-1.044922,0.9492188,-0.05908203,0.2592773,-0.234375,-0.1455078
670,8.25,-64.5625,-147.375,-0.9868164,0.9414063,-0.05126953,0.2651367,-0.2207031,-0.1494141
674,8.75,-60.0625,-146.375,-0.9907227,0.8867188,-0.01318359,0.2700195,-0.2128906,-0.1523438
678,6.875,-62.25,-142.4375,-1.021484,0.8828125,-0.01318359,0.2724609,-0.1992188,-0.1591797
682,5.5625,-65.6875,-138.625,-0.9868164,0.8364258,-0.001464844,0.2758789,-0.1879883,-0.1630859
686,3.1875,-63.5,-138.0625,-0.9477539,0.824707,0.005859375,0.2792969,-0.1806641,-0.1645508
690,1.5625,-59.5,-139.9375,-0.9169922,0.7666016,0.02490234,0.2807617,-0.1669922,-0.1713867
694,0.6875,-57.625,-138.625,-0.9013672,0.7431641,0.03271484,0.2841797,-0.1533203,-0.175293
698,-1.1875,-56.5625,-135.375,-0.878418,0.7041016,0.03662109,0.2856445,-0.1445313,-0.1806641
702,-4.6875,-52.375,-131.5625,-0.8354492,0.6733398,0.05566406,0.2841797,-0.1333008,-0.1850586
706,-10.0625,-46.375,-127.9375,-0.8198242,0.6303711,0.07128906,0.2866211,-0.1196289,-0.1904297
710,-12.125,-43.5625,-124.3125,-0.831543,0.5410156,0.07128906,0.2856445,-0.1118164,-0.1928711
714,-9.5625,-44.6875,-121,-0.8276367,0.4907227,0.07519531,0.2841797,-0.09960938,-0.1972656
718,-7.1875,-42,-117.9375,-0.7734375,0.4711914,0.1132813,0.2832031,-0.08837891,-0.2011719
722,-12.125,-36.375,-114.8125,-0.7504883,0.4633789,0.1518555,0.2832031,-0.08056641,-0.2041016
726,-18.9375,-30.4375,-108.6875,-0.78125,0.4282227,0.1713867,0.2817383,-0.06835938,-0.206543
730,-23.8125,-29.75,-105.1875,-0.8237305,0.3505859,0.140625,0.2783203,-0.05810547,-0.2094727
734,-20.5625,-32.5625,-102.25,-0.7890625,0.2573242,0.1367188,0.2773438,-0.04931641,-0.2109375
738,-19.3125,-29.375,-96.5625,-0.7543945,0.237793,0.1289063,0.2758789,-0.03955078,-0.2119141
742,-23,-21.8125,-93.25,-0.7543945,0.1953125,0.1289063,0.2749023,-0.02929688,-0.2163086
746,-26,-13.5,-93.125,-0.765625,0.1254883,0.1635742,0.2724609,-0.0234375,-0.2163086
750,-28.1875,-9.5,-92.25,-0.8393555,0.09814453,0.1787109,0.2700195,-0.01318359,-0.2177734
755,-27.875,-12.75,-88.25,-0.8857422,0.04736328,0.1713867,0.2700195,-0.003417969,-0.2177734
759,-22.375,-18.0625,-84.875,-0.8896484,-0.01416016,0.1865234,0.2675781,0.002441406,-0.21875
763,-19.8125,-21.9375,-84.125,-0.8745117,0.004882813,0.1826172,0.2666016,0.01123047,-0.21875
767,-20.5,-24.5625,-83.125,-0.8393555,-0.04150391,0.1557617,0.2617188,0.01855469,-0.2216797
771,-18.5625,-24.625,-81.375,-0.8198242,-0.1113281,0.144043,0.2602539,0.02636719,-0.2216797
775,-14.5,-23.875,-80.0625,-0.8237305,-0.1269531,0.1518555,0.2568359,0.03271484,-0.2255859
779,-13.1875,-25.5625,-79.625,-0.7851563,-0.1499023,0.1328125,0.2509766,0.04003906,-0.2255859
783,-8.6875,-23.9375,-79.3125,-0.7348633,-0.1772461,0.1289063,0.2460938,0.04492188,-0.2255859
787,-4.9375,-21.0625,-81.1875,-0.6689453,-0.1577148,0.1479492,0.2451172,0.05126953,-0.2285156
791,-4.625,-20.4375,-80.75,-0.6376953,-0.1269531,0.1748047,0.2402344,0.06005859,-0.2285156
795,-4.5625,-24.1875,-74.9375,-0.5874023,-0.1230469,0.1943359,0.2368164,0.06396484,-0.2285156
799,-5.9375,-26.5,-67.4375,-0.5214844,-0.1381836,0.1982422,0.2319336,0.06884766,-0.2299805
803,-4.9375,-29.375,-60.375,-0.4633789,-0.1967773,0.1557617,0.2294922,0.07373047,-0.2324219
807,-1.1875,-33.8125,-51.875,-0.4169922,-0.2202148,0.1171875,0.2246094,0.07763672,-0.2353516
811,3.6875,-32,-43.6875,-0.28125,-0.2470703,0.1210938,0.2211914,0.08105469,-0.2353516
815,1.125,-16.875,-37.6875,-0.2080078,-0.2045898,0.125,0.2177734,0.08398438,-0.2368164
819,-6.75,1.5625,-32.375,-0.2192383,-0.1967773,0.1479492,0.2163086,0.08496094,-0.237793
823,-12.9375,12.75,-24.9375,-0.2773438,-0.2666016,0.1748047,0.215332,0.08886719,-0.237793
827,-15.5625,14.6875,-15.875,-0.3706055,-0.324707,0.1748047,0.215332,0.09130859,-0.2353516
831,-14,9.3125,-9.9375,-0.4633789,-0.3793945,0.1713867,0.2163086,0.09375,-0.2368164
835,-10.375,0.875,-7.375,-0.4555664,-0.4453125,0.1518555,0.2163086,0.09375,-0.2299805
839,-5.75,1,-4.75,-0.4208984,-0.4453125,0.1518555,0.2163086,0.09619141,-0.2338867
843,-3.375,4.75,-3.25,-0.4287109,-0.4453125,0.1904297,0.2138672,0.09521484,-0.2338867
847,-2.625,1.6875,-1.5625,-0.4985352,-0.387207,0.2060547,0.2138672,0.09619141,-0.2324219
851,0.75,-5.6875,4.1875,-0.4711914,-0.355957,0.2060547,0.2163086,0.09765625,-0.2353516
855,1.0625,-8.8125,12.4375,-0.4365234,-0.3017578,0.1904297,0.215332,0.09521484,-0.2338867
859,-1,-9.125,19.75,-0.3935547,-0.340332,0.159668,0.215332,0.09619141,-0.2338867
863,1.8125,-5.1875,24,-0.362793,-0.3598633,0.1289063,0.2138672,0.09375,-0.2353516
867,2.1875,2,30.75,-0.3203125,-0.3173828,0.1289063,0.2163086,0.09228516,-0.2353516
871,-0.6875,13.3125,38.5625,-0.3666992,-0.2822266,0.1289063,0.21875,0.08886719,-0.2353516
875,-2.0625,17.6875,42.75,-0.4365234,-0.3095703,0.1210938,0.2202148,0.08740234,-0.2338867
879,0.6875,17.5625,46.1875,-0.4868164,-0.2939453,0.1210938,0.2246094,0.08642578,-0.2338867
884,4.25,11.875,52.125,-0.4907227,-0.2939453,0.1210938,0.2285156,0.08105469,-0.230957
888,11.8125,7.625,59.6875,-0.4750977,-0.2548828,0.140625,0.2285156,0.07519531,-0.230957
892,16.25,1.0625,67.5,-0.4404297,-0.1889648,0.125,0.230957,0.07373047,-0.2324219
896,20.125,-1.75,74.625,-0.3862305,-0.1499023,0.1367188,0.2319336,0.06640625,-0.2324219
900,20.5,3.5,87.9375,-0.3549805,-0.05273438,0.125,0.237793,0.05761719,-0.2338867
904,18.1875,11.1875,98.5625,-0.3974609,-0.02978516,0.105957,0.2402344,0.05371094,-0.2324219
908,18.6875,12.5625,106.875,-0.4790039,-0.04882813,0.05566406,0.2451172,0.04394531,-0.2338867
912,25.3125,6.4375,105,-0.5175781,-0.06445313,0.06347656,0.2475586,0.03515625,-0.2324219
916,35.5,-0.625,102.5,-0.4907227,0.0009765625,0.07128906,0.2475586,0.02490234,-0.2338867
920,43.4375,-2.9375,104.125,-0.4013672,0.08642578,0.1289063,0.2509766,0.01367188,-0.2353516
924,42.5625,12.125,115.1875,-0.3588867,0.284668,0.1367188,0.2543945,0.00390625,-0.2368164
928,30.25,24.75,120.3125,-0.4326172,0.3896484,0.1132813,0.2558594,-0.003417969,-0.2338867
932,25.3125,24.6875,128.125,-0.5449219,0.3505859,0.07910156,0.2568359,-0.015625,-0.2324219
936,35.375,16.25,140.1875,-0.5063477,0.2768555,0.07519531,0.2617188,-0.03173828,-0.2324219
940,42.75,27.1875,147.3125,-0.5024414,0.4633789,0.09033203,0.2651367,-0.03808594,-0.230957
944,36.875,50.3125,146.4375,-0.4829102,0.5991211,0.144043,0.2666016,-0.05566406,-0.2255859
948,18.875,76.0625,149.875,-0.6689453,0.7431641,0.1328125,0.2700195,-0.06933594,-0.2231445
952,3,71.875,155.875,-0.878418,0.6962891,0.09033203,0.2724609,-0.07958984,-0.21875
956,8.25,49.5625,172.75,-0.9711914,0.4907227,-0.001464844,0.2758789,-0.09570313,-0.2119141
960,31.5,40.5625,179.0625,-0.8549805,0.4594727,-0.06298828,0.2758789,-0.1132813,-0.206543
964,38.5625,62.25,175.625,-0.8588867,0.6616211,-0.03613281,0.2749023,-0.1254883,-0.2055664
968,32.3125,81.5,161.5,-0.9829102,0.7470703,-0.01660156,0.2734375,-0.1420898,-0.199707
972,28.375,82.75,150.1875,-1.133789,0.7856445,0.009765625,0.2749023,-0.1591797,-0.1918945
976,29.6875,67.375,148.125,-1.246094,0.8364258,0.01367188,0.2749023,-0.1694336,-0.1865234
980,34.6875,41.1875,149.5625,-1.165039,0.7973633,-0.04736328,0.2724609,-0.1845703,-0.1796875
984,43.3125,40.25,154.4375,-1.021484,0.8671875,-0.07470703,0.2675781,-0.1982422,-0.1728516
988,46.125,54.375,150.6875,-0.9248047,0.8945313,-0.07080078,0.2626953,-0.2080078,-0.1699219
992,37.375,73.8125,144.9375,-0.9946289,1.045898,-0.06689453,0.2592773,-0.2246094,-0.1645508
996,31.375,89.875,136.375,-1.133789,1.081055,-0.04003906,0.253418,-0.234375,-0.1547852
1000,23.9375,80,131.0625,-1.315918,1.13916,-0.02832031,0.2519531,-0.2431641,-0.1494141
1004,22.5,56.1875,128.8125,-1.315918,1.061523,-0.07080078,0.2475586,-0.2543945,-0.1401367
1008,31.75,40.3125,131.375,-1.227051,1.022949,-0.1054688,0.2392578,-0.2670898,-0.1357422
1013,41,34.5625,130.1875,-1.087402,1.038574,-0.1474609,0.234375,-0.2729492,-0.1333008
1017,39.8125,42,128.3125,-1.001953,1.131836,-0.1552734,0.2270508,-0.2832031,-0.1279297
1021,28.5,54.375,126.875,-0.9672852,1.150879,-0.1323242,0.2202148,-0.2944336,-0.1225586
1025,18.625,63.125,124.125,-1.029297,1.154785,-0.1323242,0.2128906,-0.2993164,-0.1181641
1029,13.9375,59.0625,124,-1.106934,1.12793,-0.09375,0.2070313,-0.3081055,-0.1113281
1033,16.1875,53.375,123.5,-1.176758,1.088867,-0.07080078,0.1972656,-0.3168945,-0.1098633
1037,10.875,52.4375,117.75,-1.149414,1.104492,-0.03613281,0.1904297,-0.3217773,-0.1074219
1041,4.6875,55.9375,114.5,-1.149414,1.057617,-0.02832031,0.1831055,-0.3266602,-0.1044922
1045,-5.9375,60.3125,114.0625,-1.118652,1.069336,-0.02832031,0.1757813,-0.3354492,-0.1005859
1049,-13.8125,66.1875,115.1875,-1.133789,1.06543,-0.02050781,0.1713867,-0.3354492,-0.09667969
1053,-20.0625,70.25,116.875,-1.15332,1.077148,-0.02441406,0.1616211,-0.3417969,-0.09667969
1057,-28.25,70.625,115.5625,-1.191895,1.084961,-0.01660156,0.1547852,-0.3481445,-0.09228516
1061,-37.9375,70.625,108.125,-1.195801,1.049805,-0.04394531,0.1484375,-0.3481445,-0.09082031
1065,-41.0625,71.8125,114.875,-1.687988,0.5449219,-0.05126953,0.1416016,-0.3544922,-0.09228516
1069,12.9375,-40.75,65.3125,-3.59082,-0.05273438,0.3134766,0.1318359,-0.3554688,-0.09228516
1073,11.1875,-84.9375,-59.9375,-1.889648,0.5878906,-0.005371094,0.1308594,-0.3579102,-0.09521484
1077,-27.1875,-36.125,-35.375,-1.071777,0.4829102,-0.324707,0.1333008,-0.3569336,-0.09667969
1081,10.625,-6.75,-13.3125,-1.025391,0.2885742,-0.2167969,0.1357422,-0.3544922,-0.09765625
1085,41.0625,-1.625,12.375,-0.8666992,0.6884766,-0.0859375,0.1357422,-0.3554688,-0.09765625
1089,34.9375,24,15.9375,-1.033203,0.8520508,0.07910156,0.1333008,-0.3569336,-0.09228516
1093,3.5625,32.125,-36.5,-1.509766,0.9257813,0.1943359,0.1357422,-0.3569336,-0.09082031
1097,-26.9375,15.0625,-88.875,-1.738281,0.9101563,0.1635742,0.1367188,-0.3544922,-0.09082031
1101,-28.375,-17.3125,-121.3125,-1.695801,0.809082,-0.001464844,0.1474609,-0.3520508,-0.09375
1105,-10.6875,-55.1875,-128.875,-1.54834,0.8129883,-0.1435547,0.1567383,-0.3457031,-0.09765625
1109,5.6875,-80.375,-127,-1.257813,0.9101563,-0.2324219,0.1616211,-0.3408203,-0.09912109
1113,8.5,-78.4375,-126.625,-1.056641,1.049805,-0.2324219,0.1723633,-0.3354492,-0.1020508
1117,1,-62.75,-133.875,-1.017578,1.088867,-0.2207031,0.1806641,-0.328125,-0.1074219
1121,-5.1875,-50.5,-142.625,-1.095215,1.057617,-0.2089844,0.1879883,-0.3232422,-0.1088867
1125,-7.1875,-46.6875,-153.625,-1.165039,1.061523,-0.2285156,0.1972656,-0.3144531,-0.1113281
1129,-3.875,-51.625,-163.0625,-1.203613,1.007324,-0.1977539,0.2080078,-0.3056641,-0.1157227
1133,2.9375,-61.625,-164.25,-1.180664,1.019043,-0.1401367,0.2163086,-0.2983398,-0.1181641
1137,2.1875,-70.875,-160.125,-1.12207,1.030762,-0.1401367,0.2246094,-0.2841797,-0.1210938
1142,-3.875,-74.125,-153.25,-1.060547,1.061523,-0.1245117,0.2353516,-0.2744141,-0.1264648
1146,-9.25,-73.875,-150.8125,-1.017578,1.015137,-0.1552734,0.2402344,-0.2670898,-0.1303711
1150,-8.5625,-75.0625,-153.0625,-1.048828,1.007324,-0.1323242,0.2475586,-0.2558594,-0.1357422
1154,-6.8125,-81.0625,-155.25,-1.048828,0.9643555,-0.1166992,0.2543945,-0.2441406,-0.144043
1158,-4.4375,-86.8125,-155.75,-0.9985352,0.9492188,-0.09765625,0.2568359,-0.2368164,-0.1494141
1162,-3.5625,-84.25,-153.5,-0.9365234,0.9179688,-0.0859375,0.2626953,-0.2231445,-0.1547852
1166,-6.625,-79,-152.375,-0.9091797,0.8984375,-0.1054688,0.2666016,-0.2080078,-0.1616211
1170,-9.3125,-72.6875,-148.875,-0.9091797,0.8208008,-0.06689453,0.269043,-0.2006836,-0.1699219
1174,-9.5,-70,-143.9375,-0.9829102,0.7739258,-0.009277344,0.2724609,-0.1870117,-0.1738281
1178,-12.4375,-71.25,-135.8125,-0.9790039,0.7705078,0.05175781,0.2734375,-0.1733398,-0.1806641
1182,-18,-69.625,-131.8125,-0.9326172,0.7119141,0.09814453,0.2734375,-0.1645508,-0.1850586
1186,-24.3125,-56.8125,-127.1875,-0.847168,0.6845703,0.1289063,0.2749023,-0.1533203,-0.1904297
1190,-34.1875,-40.4375,-124.125,-0.9326172,0.6069336,0.09814453,0.2773438,-0.1396484,-0.1958008
1194,-36.5625,-36.25,-126.875,-1.005859,0.5253906,0.07519531,0.2783203,-0.1293945,-0.199707
1198,-33.5625,-41.0625,-127.625,-1.017578,0.4985352,0.02880859,0.2783203,-0.1142578,-0.2055664
1202,-25.75,-46.125,-130.4375,-0.9868164,0.4360352,-0.03613281,0.2792969,-0.1020508,-0.206543
1206,-15.8125,-51.1875,-133.5625,-0.8706055,0.4321289,-0.06689453,0.2773438,-0.09326172,-0.2094727
1210,-10.375,-48.3125,-130.5625,-0.699707,0.4711914,-0.02832031,0.2758789,-0.08056641,-0.2133789
1214,-12.875,-35.125,-121.9375,-0.5756836,0.4477539,0.01708984,0.2724609,-0.06689453,-0.21875
1218,-18.0625,-15,-111.75,-0.5952148,0.4165039,0.07910156,0.2734375,-0.06054688,-0.2216797
1222,-24,-8,-106.6875,-0.7231445,0.315918,0.125,0.2709961,-0.05078125,-0.2246094
1226,-24.0625,-14.875,-106.5625,-0.8164063,0.2338867,0.1098633,0.2709961,-0.03808594,-0.2216797
1230,-17.5625,-24.25,-109.0625,-0.7773438,0.1254883,0.09423828,0.2675781,-0.02929688,-0.2231445
1234,-11.5,-26,-108.3125,-0.6884766,0.1333008,0.1210938,0.2666016,-0.01953125,-0.2255859
1238,-13.625,-21.9375,-101.8125,-0.6611328,0.1523438,0.1479492,0.2641602,-0.01074219,-0.2299805
1242,-14.9375,-22.6875,-93.1875,-0.7192383,0.1137695,0.1865234,0.2617188,-0.004394531,-0.2285156
1246,-14.5625,-34.25,-85,-0.7929688,0.07861328,0.2094727,0.2583008,0.00390625,-0.2285156
1250,-14.3125,-46.5625,-75.4375,-0.7426758,0.03222656,0.1674805,0.2519531,0.01123047,-0.2338867
1254,-13.375,-52.375,-71,-0.6455078,-0.02978516,0.1328125,0.25,0.01611328,-0.2338867
1258,-14.5625,-45.5,-71.375,-0.5371094,-0.05273438,0.1171875,0.2436523,0.02392578,-0.237793
1262,-18.0625,-33,-73.75,-0.5214844,-0.05273438,0.1171875,0.237793,0.03027344,-0.2421875
1266,-18.1875,-26.1875,-75,-0.4829102,-0.1035156,0.144043,0.237793,0.03369141,-0.2421875
1271,-16.125,-19.125,-67.625,-0.4521484,-0.08789063,0.1674805,0.234375,0.04248047,-0.2436523
1275,-16,-16.8125,-55.8125,-0.4594727,-0.1308594,0.1635742,0.2294922,0.04882813,-0.2436523
1279,-12.75,-15.0625,-47.625,-0.4482422,-0.2045898,0.1748047,0.2294922,0.05273438,-0.2446289
1283,-11.375,-11.9375,-47.25,-0.4555664,-0.2241211,0.1674805,0.2270508,0.05761719,-0.2475586
1287,-7.9375,-9.0625,-48.6875,-0.4287109,-0.2431641,0.2211914,0.2246094,0.06005859,-0.2446289
1291,-9,-7.125,-44.75,-0.4365234,-0.2045898,0.2519531,0.222168,0.0625,-0.2460938
1295,-10.1875,-7.125,-36.5625,-0.4326172,-0.2202148,0.2597656,0.2211914,0.06494141,-0.2460938
1299,-9.875,-8.1875,-29.0625,-0.4130859,-0.2626953,0.2172852,0.2177734,0.07128906,-0.2490234
1303,-6.5,-6.4375,-20.4375,-0.3901367,-0.2900391,0.2094727,0.2163086,0.07275391,-0.2460938
1307,-5.625,-3.875,-14.125,-0.3935547,-0.2744141,0.2329102,0.2177734,0.07275391,-0.2460938
1311,-7.8125,0.6875,-13.375,-0.4013672,-0.2822266,0.2211914,0.215332,0.07617188,-0.2460938
1315,-6.9375,-0.125,-12,-0.4326172,-0.3520508,0.2133789,0.215332,0.07617188,-0.2446289
1319,-0.375,-6.5625,-5.625,-0.4404297,-0.3442383,0.2329102,0.2138672,0.07763672,-0.2460938
1323,1.5625,-8.125,4,-0.3974609,-0.2900391,0.2402344,0.215332,0.07861328,-0.2460938
1327,-3.9375,-4.6875,14.4375,-0.3745117,-0.3208008,0.2172852,0.215332,0.07763672,-0.2460938
1331,-4.25,3,19.5625,-0.3823242,-0.3598633,0.1635742,0.2128906,0.07617188,-0.2475586
1335,-3.75,12.625,22.125,-0.4052734,-0.3520508,0.1557617,0.215332,0.07617188,-0.2446289
1339,-4.0625,19.125,24.9375,-0.4594727,-0.3325195,0.1557617,0.2163086,0.07275391,-0.2446289
1343,-0.625,19.5625,27.4375,-0.4829102,-0.371582,0.1748047,0.2202148,0.07128906,-0.2460938
1347,0.4375,17.625,33.0625,-0.5102539,-0.3134766,0.1635742,0.2202148,0.06982422,-0.2436523
1351,3.1875,15.75,39.8125,-0.4907227,-0.3442383,0.1557617,0.2236328,0.06884766,-0.2421875
1355,5.25,16.8125,42.6875,-0.4868164,-0.2783203,0.1289063,0.2270508,0.06494141,-0.2421875
1359,5.625,21.375,48.9375,-0.4750977,-0.2470703,0.159668,0.2294922,0.06103516,-0.2421875
1363,4.4375,21.625,54.5625,-0.5214844,-0.2509766,0.1479492,0.230957,0.05761719,-0.237793
1367,8.5625,16.6875,59.5625,-0.5527344,-0.2626953,0.125,0.234375,0.05126953,-0.237793
1371,16.1875,7.625,66.3125,-0.5449219,-0.2431641,0.1210938,0.2368164,0.04882813,-0.2392578
1375,22.625,8,71.5625,-0.4829102,-0.1967773,0.140625,0.2392578,0.04394531,-0.2368164
1379,22.875,11.9375,69.5,-0.4633789,-0.1035156,0.159668,0.2412109,0.03759766,-0.237793
1383,18.4375,18.0625,69.875,-0.4672852,-0.01416016,0.1557617,0.2436523,0.03027344,-0.237793
1387,16.4375,14.9375,72.5,-0.4907227,-0.02978516,0.1713867,0.2451172,0.02392578,-0.2368164
1391,20.6875,7.625,77,-0.4790039,0.03613281,0.1748047,0.2485352,0.01513672,-0.2368164
1395,23.125,6.125,87.4375,-0.4052734,0.105957,0.1787109,0.2519531,0.008789063,-0.2368164
1400,22.5,6.3125,97.25,-0.4404297,0.1796875,0.1557617,0.2543945,0.00390625,-0.237793
1404,24,11.9375,108.5,-0.4248047,0.1914063,0.1289063,0.2568359,-0.006835938,-0.2353516
1408,29.875,16.875,114.1875,-0.4750977,0.1835938,0.1289063,0.2568359,-0.01806641,-0.2368164
1412,33.6875,18.3125,117.625,-0.5292969,0.2807617,0.08642578,0.2592773,-0.02441406,-0.237793
1416,34.3125,14,116.5625,-0.5332031,0.3544922,0.04443359,0.2617188,-0.03710938,-0.2338867
1420,39.6875,3.75,122.8125,-0.5605469,0.3818359,-0.009277344,0.2626953,-0.05078125,-0.2324219
1424,56.4375,-10.4375,138,-0.4711914,0.4438477,-0.02050781,0.2626953,-0.05957031,-0.2324219
1428,66.375,-4.125,163.125,-0.3706055,0.6186523,0.001953125,0.2626953,-0.07714844,-0.2338867
1432,58.3125,18.25,175.875,-0.4130859,0.793457,-0.001464844,0.2626953,-0.09326172,-0.2324219
1436,45.0625,35.125,171.25,-0.5566406,0.8051758,-0.03613281,0.2602539,-0.1083984,-0.230957
1440,45.9375,37.3125,166.9375,-0.6069336,0.6884766,-0.0859375,0.2583008,-0.1245117,-0.2270508
1444,57.875,52.6875,165.25,-0.5605469,0.777832,-0.07861328,0.2583008,-0.1420898,-0.2216797
1448,55,87.25,166.4375,-0.5605469,0.9799805,-0.009277344,0.2592773,-0.1542969,-0.2177734
1452,37.4375,123.875,166.625,-0.730957,1.100586,0.05566406,0.2592773,-0.1733398,-0.206543
1456,18.3125,138.0625,166.1875,-1.009766,1.112305,0.09033203,0.2592773,-0.1855469,-0.1958008
1460,13.875,128.75,166.9375,-1.157227,1.04248,0.09033203,0.2602539,-0.1967773,-0.1889648
1464,15,123.4375,164.25,-1.165039,1.108398,0.05566406,0.2583008,-0.2119141,-0.1767578
1468,5.5,125.375,159.5,-1.215332,1.20166,0.005859375,0.2558594,-0.2270508,-0.1645508
1472,-4.3125,121.5625,157.375,-1.296875,1.186035,-0.05126953,0.253418,-0.234375,-0.1606445
1476,-1.5625,107.6875,159.6875,-1.339355,1.108398,-0.1245117,0.2485352,-0.2470703,-0.1484375
1480,10.1875,90.25,164.3125,-1.343262,1.100586,-0.1474609,0.2436523,-0.2607422,-0.1425781
1484,16.0625,70.8125,167.8125,-1.327637,1.131836,-0.1435547,0.2368164,-0.2695313,-0.137207
1488,20.125,51.5,168.5,-1.315918,1.150879,-0.1435547,0.2285156,-0.2817383,-0.1318359
1492,24.875,33.875,169.8125,-1.28125,1.120117,-0.1821289,0.2177734,-0.2954102,-0.1279297
1496,32.1875,22.1875,169.4375,-1.242188,1.084961,-0.2167969,0.2094727,-0.2993164,-0.1235352
1500,33.5,15.625,162.4375,-1.223145,1.077148,-0.2246094,0.1962891,-0.3120117,-0.1196289
1504,38.1875,12.8125,153.1875,-1.187988,1.022949,-0.2128906,0.1831055,-0.3232422,-0.1181641
1508,44.75,23.0625,138.3125,-1.118652,1.034668,-0.1938477,0.1748047,-0.3291016,-0.1142578
1512,38.3125,44.375,121.9375,-1.067871,1.197754,-0.1591797,0.1665039,-0.3354492,-0.1113281
1516,16.125,73.4375,113.6875,-1.067871,1.368652,-0.1166992,0.1567383,-0.3442383,-0.1044922
1520,-13.9375,104.1875,112.8125,-1.187988,1.384277,-0.07470703,0.1533203,-0.3442383,-0.1020508
1524,-40.3125,118.9375,121.4375,-1.45166,1.221191,-0.1015625,0.1450195,-0.3505859,-0.09667969
1529,-48.75,106.625,132.75,-1.746094,0.9838867,-0.112793,0.1357422,-0.3530273,-0.09765625
1533,-44.25,82.375,140.75,-1.943848,0.7041016,-0.1743164,0.1293945,-0.359375,-0.09375
1537,16,2.1875,174.125,-3.951172,-0.3481445,0.3173828,0.1166992,-0.3632813,-0.09667969
1541,55.25,-207.6875,-11.8125,-3.094727,0.3623047,0.1943359,0.1079102,-0.3642578,-0.09667969
1545,35.625,-168.4375,-10.1875,-1.269531,0.7626953,-0.1245117,0.1044922,-0.3657227,-0.09667969
1549,2.6875,-77.875,-4,-0.9130859,0.6538086,-0.2783203,0.1010742,-0.3681641,-0.09912109
1553,12.9375,-39.0625,-37.6875,-1.339355,0.6069336,-0.08984375,0.1035156,-0.3666992,-0.09912109
1557,16.25,-31.3125,-81.1875,-1.471191,0.7626953,0.06347656,0.1035156,-0.3666992,-0.1020508
1561,13.375,-23.25,-113.125,-1.501953,1.019043,0.1479492,0.1118164,-0.3632813,-0.1020508
1565,-0.875,-26.5625,-134.25,-1.637695,1.09668,0.125,0.1210938,-0.359375,-0.1020508
1569,-3.5625,-59.6875,-145.9375,-1.687988,1.026855,0.03271484,0.1293945,-0.3554688,-0.1020508
1573,10.3125,-94.9375,-150.0625,-1.525391,0.9838867,-0.08203125,0.1416016,-0.3491211,-0.105957
1577,20.0625,-105.1875,-154.625,-1.277344,1.100586,-0.1323242,0.1533203,-0.3432617,-0.1088867
1581,16.5,-95.1875,-163.875,-1.157227,1.193848,-0.1206055,0.1606445,-0.3408203,-0.1098633
1585,8.1875,-91.1875,-172.4375,-1.176758,1.267578,-0.06298828,0.1723633,-0.3320313,-0.1157227
1589,1.375,-99.875,-175.125,-1.172852,1.240234,-0.07861328,0.1831055,-0.3232422,-0.1196289
1593,1.8125,-106.4375,-179.125,-1.063965,1.232422,-0.08203125,0.1914063,-0.3154297,-0.125
1597,-1.1875,-104.1875,-176.8125,-0.9868164,1.275391,-0.07470703,0.2021484,-0.3056641,-0.1303711
1601,-9.875,-100.125,-171.4375,-0.9711914,1.283203,-0.04394531,0.2119141,-0.2929688,-0.1386719
1605,-16.5625,-98.875,-167.3125,-0.9907227,1.20166,-0.06689453,0.2177734,-0.2895508,-0.1416016
1609,-18.4375,-99,-170,-0.9868164,1.116211,-0.109375,0.2270508,-0.2753906,-0.1523438
1613,-16.25,-97.4375,-175.0625,-0.9399414,1.081055,-0.1206055,0.234375,-0.2631836,-0.1577148
1617,-13.375,-90.1875,-177.4375,-0.831543,1.108398,-0.08984375,0.237793,-0.2519531,-0.1630859
1621,-20.875,-78.125,-173.25,-0.7270508,1.154785,-0.05908203,0.2426758,-0.2368164,-0.1728516
1625,-33.1875,-59.625,-163.1875,-0.6767578,1.100586,-0.03613281,0.2509766,-0.2246094,-0.1796875
1629,-38.25,-47.25,-152.5,-0.7348633,0.9682617,0.001953125,0.253418,-0.2143555,-0.1821289
1633,-39.125,-41.875,-144.625,-0.7617188,0.855957,-0.005371094,0.2568359,-0.1982422,-0.1889648
1637,-36.0625,-32.625,-140.0625,-0.7270508,0.8012695,0.001953125,0.2617188,-0.1870117,-0.1943359
1641,-37.8125,-20.5,-134.375,-0.7348633,0.777832,0.04443359,0.2666016,-0.1757813,-0.1943359
1645,-40,-15.4375,-131.1875,-0.8164063,0.6923828,0.06738281,0.269043,-0.1621094,-0.1972656
1649,-39.375,-20.4375,-128.625,-0.8510742,0.6108398,0.07128906,0.269043,-0.1479492,-0.2011719
1653,-35.25,-26.0625,-127,-0.8164063,0.5527344,0.09423828,0.2709961,-0.1381836,-0.2026367
1658,-35.5,-27.0625,-124.75,-0.7851563,0.5292969,0.09814453,0.2734375,-0.1254883,-0.2080078
1662,-35.125,-28.875,-121.9375,-0.78125,0.5019531,0.09033203,0.2734375,-0.1118164,-0.2109375
1666,-35.5625,-33.125,-119.25,-0.7231445,0.4594727,0.09423828,0.2734375,-0.1030273,-0.2119141
1670,-36.25,-30.6875,-113.1875,-0.6611328,0.4321289,0.105957,0.2749023,-0.09082031,-0.2163086
1674,-37.75,-29.0625,-105.5,-0.6572266,0.4013672,0.1210938,0.2724609,-0.078125,-0.2163086
1678,-35.5,-32.375,-96.8125,-0.6611328,0.3271484,0.1518555,0.2734375,-0.07080078,-0.21875
1682,-30.5,-37.9375,-89.1875,-0.6650391,0.2885742,0.1713867,0.2700195,-0.06054688,-0.2246094
1686,-26.875,-46.75,-79,-0.6147461,0.2573242,0.1943359,0.2666016,-0.05322266,-0.2285156
1690,-27.25,-48.9375,-65.8125,-0.5834961,0.2416992,0.1943359,0.2666016,-0.04589844,-0.2299805
1694,-31.25,-47.5625,-55.6875,-0.5913086,0.1875,0.1748047,0.2602539,-0.03955078,-0.2324219
1698,-35.375,-46.375,-49.75,-0.5874023,0.09033203,0.140625,0.2583008,-0.03173828,-0.2353516
1702,-34.4375,-43.5625,-43.8125,-0.5644531,0.02441406,0.105957,0.2558594,-0.02832031,-0.237793
1706,-33.125,-29.75,-46.75,-0.4985352,-0.03369141,0.1020508,0.2519531,-0.02050781,-0.2421875
1710,-30.3125,-12.5,-56.1875,-0.5410156,-0.1152344,0.09423828,0.2485352,-0.01318359,-0.2436523
1714,-24.1875,-8.375,-62.875,-0.5874023,-0.1381836,0.1132813,0.2509766,-0.01074219,-0.2436523
1718,-18.25,-8.0625,-60.4375,-0.5527344,-0.1420898,0.1171875,0.2485352,-0.001953125,-0.2446289
1722,-14.3125,-7.4375,-54.125,-0.5488281,-0.1538086,0.1171875,0.2475586,0.002441406,-0.2436523
1726,-10.75,-8.5,-49.4375,-0.5253906,-0.2084961,0.1132813,0.2460938,0.004882813,-0.2446289
1730,-4.0625,-3.875,-49.25,-0.4482422,-0.2163086,0.1132813,0.2451172,0.01025391,-0.2446289
1734,-3.875,6.5,-49.625,-0.4091797,-0.1420898,0.159668,0.2412109,0.01367188,-0.2436523
1738,-6.5,13.9375,-43.5,-0.4404297,-0.1381836,0.1865234,0.2426758,0.01611328,-0.2436523
1742,-6.6875,11.1875,-32.25,-0.4985352,-0.1655273,0.2021484,0.2436523,0.02148438,-0.2446289
1746,-5.25,6.25,-23,-0.5141602,-0.1694336,0.2480469,0.2412109,0.02246094,-0.2436523
1750,-7.8125,0.625,-14.9375,-0.5644531,-0.1772461,0.2636719,0.2412109,0.02490234,-0.2421875
1754,-8.375,-3.0625,-11.625,-0.5527344,-0.2163086,0.2290039,0.2402344,0.02490234,-0.2407227
1758,-8.375,-2.625,-10.1875,-0.5102539,-0.2392578,0.1748047,0.2402344,0.02880859,-0.2421875
1762,-5.5625,1.6875,-5.8125,-0.4790039,-0.2392578,0.159668,0.2402344,0.02734375,-0.2421875
1766,-3.125,4.5625,1.6875,-0.4907227,-0.2314453,0.1713867,0.2412109,0.02880859,-0.2407227
1770,-1.125,5.0625,10.75,-0.4985352,-0.2045898,0.2021484,0.2402344,0.03027344,-0.2421875
1774,-1.8125,6.375,18.625,-0.4946289,-0.1967773,0.2250977,0.2426758,0.02880859,-0.2392578
1778,-3.875,9.6875,27.0625,-0.5292969,-0.1889648,0.2172852,0.2412109,0.02734375,-0.2392578
1782,-5,9.9375,32.875,-0.5991211,-0.2006836,0.2172852,0.2451172,0.02490234,-0.2392578
1787,-4.75,7.0625,34.9375,-0.6225586,-0.2431641,0.1982422,0.2460938,0.02392578,-0.2392578
1791,-1.3125,3.0625,35.1875,-0.6303711,-0.2626953,0.1674805,0.2475586,0.02148438,-0.2407227
1795,3.3125,1.875,34.1875,-0.5913086,-0.2548828,0.1635742,0.2485352,0.01611328,-0.2368164
1799,5.8125,1.3125,33.25,-0.5332031,-0.1811523,0.1826172,0.2485352,0.01611328,-0.237793
1803,6,3.375,37.75,-0.4907227,-0.1347656,0.1865234,0.2485352,0.01269531,-0.2392578
1807,7.3125,0.6875,44.1875,-0.4868164,-0.07226563,0.1904297,0.25,0.007324219,-0.237793
1811,8.75,-4.25,54.375,-0.4208984,-0.02587891,0.1826172,0.2509766,0.006347656,-0.2368164
1815,8.9375,-4.5,65.4375,-0.3549805,0.02441406,0.1748047,0.2509766,0.001464844,-0.2392578
1819,7.0625,1.9375,75.75,-0.3164063,0.06298828,0.125,0.253418,-0.006835938,-0.2368164
1823,6.1875,7.875,84.25,-0.3320313,0.01269531,0.07910156,0.253418,-0.01074219,-0.237793
1827,14.25,16.1875,89,-0.3549805,0.05908203,0.06738281,0.2558594,-0.01953125,-0.237793
1831,15.4375,21.6875,89,-0.3666992,0.1757813,0.125,0.2568359,-0.02587891,-0.237793
1835,12.9375,23.4375,91.4375,-0.3823242,0.2651367,0.1518555,0.2592773,-0.03320313,-0.2353516
1839,12.3125,22.1875,100.0625,-0.3354492,0.3505859,0.144043,0.2602539,-0.04199219,-0.2324219
1843,8.9375,22.25,115.625,-0.3354492,0.4165039,0.1020508,0.2626953,-0.05078125,-0.230957
1847,10.6875,23.8125,130.75,-0.3588867,0.4125977,0.06347656,0.2651367,-0.05957031,-0.230957
1851,14.25,25.9375,139.9375,-0.378418,0.4907227,0.09033203,0.2666016,-0.07177734,-0.2285156
1855,14.5,35.9375,154.125,-0.4711914,0.6108398,0.09033203,0.2675781,-0.08447266,-0.2246094
1859,13.6875,31.9375,164.8125,-0.6147461,0.6538086,0.1289063,0.2666016,-0.09326172,-0.2246094
1863,16.125,25.25,179.6875,-0.7036133,0.6772461,0.1098633,0.2666016,-0.109375,-0.2202148
1867,19.75,15.625,191.875,-0.7695313,0.6694336,0.09033203,0.2626953,-0.1269531,-0.21875
1871,25.4375,19.375,191.125,-0.7504883,0.7236328,0.05566406,0.2617188,-0.1420898,-0.2177734
1875,24.375,34.4375,188.125,-0.7270508,0.8325195,0.09814453,0.2583008,-0.1591797,-0.2148438
1879,13.5625,55,182.9375,-0.796875,0.9179688,0.09814453,0.253418,-0.1767578,-0.2109375
1883,3.25,70.125,182.0625,-0.9477539,0.8828125,0.009765625,0.253418,-0.1845703,-0.206543
1887,3.3125,71.4375,179,-1.067871,0.7739258,-0.03222656,0.2485352,-0.1982422,-0.2011719
1891,11.875,64.6875,175.3125,-1.157227,0.7739258,-0.05908203,0.2451172,-0.2143555,-0.1943359
1895,21.5,58.1875,162.625,-1.137695,0.8168945,-0.06298828,0.2402344,-0.2255859,-0.1904297
1899,27.875,58.875,147.8125,-1.071777,0.90625,-0.03222656,0.2353516,-0.2368164,-0.1865234
1903,25.5,67.0625,140.125,-1.052734,1.026855,-0.04394531,0.2294922,-0.2495117,-0.1796875
1907,18.125,71,135.625,-1.075684,1.019043,-0.09375,0.2270508,-0.2568359,-0.1728516
1911,23.0625,65.1875,135.25,-1.118652,0.9760742,-0.1206055,0.2211914,-0.2670898,-0.1699219
1916,32.8125,54.8125,134.9375,-1.103027,0.9916992,-0.1245117,0.2128906,-0.2768555,-0.1630859
1920,38.25,49.0625,130.625,-1.052734,1.09668,-0.128418,0.2104492,-0.2866211,-0.1606445
1924,36.25,46.375,123.375,-0.9907227,1.131836,-0.1206055,0.2021484,-0.2954102,-0.1523438
1928,34.0625,47.25,116.4375,-0.9130859,1.146973,-0.1513672,0.1972656,-0.3041992,-0.1455078
1932,32.375,51.6875,113.375,-0.8818359,1.158691,-0.1513672,0.1889648,-0.3095703,-0.144043
1936,29.5,57.75,112.0625,-0.8354492,1.205566,-0.1630859,0.1831055,-0.3168945,-0.1416016
1940,26.625,71.8125,108.75,-0.8237305,1.20166,-0.1782227,0.1757813,-0.3232422,-0.1318359
1944,22.375,82.3125,108.6875,-0.9052734,1.236328,-0.1323242,0.1713867,-0.3266602,-0.1289063
1948,17.75,89.625,111,-0.9790039,1.217285,-0.1054688,0.1630859,-0.3330078,-0.1235352
1952,7.875,100.0625,107,-1.041016,1.209473,-0.07080078,0.1582031,-0.3378906,-0.1166992
1956,-6.3125,116.3125,99.3125,-1.103027,1.162598,-0.05908203,0.1547852,-0.3408203,-0.112793
1960,-18.8125,131.5,96.0625,-1.230957,1.09668,-0.08203125,0.1484375,-0.3432617,-0.1088867
1964,-27.3125,140.9375,94.125,-1.389648,1.003418,-0.0859375,0.1450195,-0.3466797,-0.1035156
1968,-35.4375,134.8125,92.75,-1.599121,0.9375,-0.05908203,0.1416016,-0.3505859,-0.1020508
1972,-41.875,115.5625,86.0625,-1.757813,0.7856445,-0.08203125,0.1367188,-0.3544922,-0.09667969
1976,-35.625,91.4375,66.75,-1.862305,0.6147461,-0.07470703,0.1308594,-0.3569336,-0.09912109
1980,-7.1875,11.3125,27.875,-2.885254,0.2573242,0.1557617,0.128418,-0.359375,-0.09765625
1984,3.4375,-49.9375,-38.375,-1.889648,0.6030273,-0.05126953,0.1269531,-0.3579102,-0.09765625
1988,-6.0625,-28.5625,-32.375,-1.285156,0.7817383,-0.1323242,0.1293945,-0.3554688,-0.09912109
1992,-9.875,-25.0625,-26.6875,-1.401367,0.7548828,-0.02832031,0.1333008,-0.3579102,-0.1020508
1996,-6.8125,-36.0625,-45.0625,-1.463379,0.7739258,-0.01660156,0.1333008,-0.3544922,-0.1035156
2000,-8.5,-49.5,-56.75,-1.428223,0.8867188,0.01367188,0.1367188,-0.3530273,-0.1074219
2004,-16.125,-56.125,-73.3125,-1.362793,0.9453125,-0.02441406,0.1391602,-0.3491211,-0.1098633
2008,-18.8125,-55.75,-91.25,-1.257813,0.8828125,-0.1206055,0.144043,-0.3466797,-0.1098633
2012,-13.6875,-46.8125,-107.5,-1.168945,0.9023438,-0.1821289,0.1508789,-0.3408203,-0.1142578
2016,-14.6875,-37.0625,-118.375,-1.137695,0.953125,-0.2475586,0.1582031,-0.3369141,-0.1166992
2020,-13.5625,-31.5,-127.125,-1.114746,0.9375,-0.2744141,0.1650391,-0.3305664,-0.1225586
2024,-11.6875,-24.625,-135.375,-1.056641,0.9916992,-0.2822266,0.1772461,-0.3242188,-0.1235352
2028,-14.875,-14.9375,-140.4375,-1.013672,1.038574,-0.2324219,0.1831055,-0.3208008,-0.1264648
2032,-20,-2.4375,-139.25,-1.048828,1.073242,-0.1782227,0.1938477,-0.3095703,-0.1279297
2036,-23.8125,-2,-141.625,-1.165039,1.003418,-0.1552734,0.2055664,-0.3017578,-0.1279297
2040,-15.375,-8.25,-146.5625,-1.234863,0.9179688,-0.1401367,0.2104492,-0.2954102,-0.1303711
2045,-1.8125,-20.5625,-153.125,-1.351074,0.9140625,-0.1362305,0.2211914,-0.2856445,-0.1303711
2049,11.625,-44.5,-162.3125,-1.374023,0.9414063,-0.128418,0.230957,-0.2729492,-0.1333008
2053,20.4375,-63.875,-166.6875,-1.261719,1.04248,-0.09375,0.237793,-0.2680664,-0.1357422
2057,19.1875,-74.5625,-165.3125,-1.161133,1.116211,-0.1015625,0.2460938,-0.2558594,-0.1401367
2061,15.9375,-81.375,-160.1875,-1.056641,1.09668,-0.109375,0.253418,-0.2431641,-0.144043
2065,12.9375,-83.1875,-154.3125,-0.9985352,1.069336,-0.112793,0.2583008,-0.234375,-0.1494141
2069,10.8125,-81.9375,-155.5,-0.9326172,1.01123,-0.128418,0.2626953,-0.2231445,-0.15625
2073,10.3125,-73,-158.5,-0.8432617,0.9838867,-0.1245117,0.2675781,-0.2080078,-0.1606445
2077,6.875,-57.25,-158.0625,-0.7695313,0.9799805,-0.05908203,0.2700195,-0.2006836,-0.1660156
2081,1.3125,-45.75,-150.5625,-0.7695313,0.9257813,0.01367188,0.2749023,-0.1870117,-0.168457
2085,-5.125,-42,-139.0625,-0.78125,0.8984375,0.03662109,0.2773438,-0.1733398,-0.1738281
2089,-8.125,-37.4375,-131.125,-0.7695313,0.824707,0.03662109,0.2792969,-0.1630859,-0.175293
2093,-8.75,-29.1875,-131.0625,-0.8085938,0.7973633,0.05175781,0.2817383,-0.1508789,-0.1806641
2097,-9.6875,-27.5,-133.9375,-0.8510742,0.7705078,0.05175781,0.2841797,-0.1396484,-0.1806641
2101,-10.25,-27.5,-137.875,-0.7773438,0.7392578,0.04052734,0.2866211,-0.1308594,-0.1821289
2105,-11.8125,-19.25,-135.8125,-0.7036133,0.6923828,0.02490234,0.2880859,-0.1157227,-0.1865234
2109,-14.25,-11.5625,-127.875,-0.7504883,0.6264648,0.02099609,0.2880859,-0.1030273,-0.1850586
2113,-9.125,-12.6875,-124.25,-0.7348633,0.5058594,0.05566406,0.2900391,-0.09570313,-0.1889648
2117,-5.4375,-5.6875,-126.25,-0.7114258,0.5097656,0.08642578,0.2924805,-0.08203125,-0.1889648
2121,-7.5,4.1875,-136.25,-0.6884766,0.4907227,0.1367188,0.2900391,-0.06933594,-0.1904297
2125,-8.4375,8.75,-143,-0.6962891,0.4790039,0.2021484,0.2915039,-0.06054688,-0.1889648
2129,-11.5625,3.4375,-139.125,-0.7387695,0.4672852,0.2211914,0.2924805,-0.046875,-0.1904297
2133,-9.625,-17.1875,-123.25,-0.8276367,0.3701172,0.2290039,0.2900391,-0.03320313,-0.1904297
2137,-5.625,-42.6875,-102.125,-0.746582,0.300293,0.1982422,0.2890625,-0.02587891,-0.1904297
2141,-8.1875,-47.625,-92.0625,-0.5756836,0.2456055,0.1635742,0.2832031,-0.01708984,-0.1958008
2145,-15.375,-32.5625,-89.625,-0.4750977,0.1445313,0.144043,0.2817383,-0.006835938,-0.1987305
2149,-18.875,-13.25,-92.6875,-0.4750977,0.06689453,0.07910156,0.2783203,0,-0.1987305
2153,-18.25,-1.6875,-91.4375,-0.4985352,-0.01806641,0.07519531,0.2773438,0.008789063,-0.2011719
2157,-14.75,1.75,-86.375,-0.5488281,-0.04882813,0.08642578,0.2734375,0.02001953,-0.2011719
2161,-8.3125,-8.5,-83.5625,-0.5683594,-0.08398438,0.08642578,0.2734375,0.02392578,-0.1987305
2165,-1.9375,-23.4375,-75.5625,-0.4946289,-0.08789063,0.08642578,0.2709961,0.03027344,-0.2011719
2169,1.4375,-33.0625,-65.9375,-0.3745117,-0.03369141,0.05175781,0.2675781,0.03759766,-0.2026367
2174,0,-29.6875,-55.1875,-0.2231445,-0.08007813,0.06738281,0.2666016,0.04150391,-0.2041016
2178,-2.5625,-14.6875,-43,-0.1689453,-0.07226563,0.06347656,0.2617188,0.04492188,-0.206543
2182,-8.9375,1.375,-32.5625,-0.2001953,-0.1074219,0.1020508,0.2602539,0.04980469,-0.2080078
2186,-12.5625,7.5625,-21.8125,-0.3007813,-0.1616211,0.1289063,0.2592773,0.05273438,-0.206543
2190,-12.6875,6.125,-12.5625,-0.3745117,-0.1499023,0.1518555,0.2602539,0.05371094,-0.2055664
2194,-17.625,6.75,-0.5625,-0.4248047,-0.1694336,0.144043,0.2592773,0.05517578,-0.2041016
2198,-20.8125,4.75,6.6875,-0.5024414,-0.2241211,0.1132813,0.2592773,0.05517578,-0.2041016
2202,-17.75,1.3125,8.5,-0.5722656,-0.2744141,0.09033203,0.2592773,0.05517578,-0.2026367
2206,-14.0625,-3.1875,13.9375,-0.5756836,-0.3325195,0.06738281,0.2592773,0.05615234,-0.2041016
2210,-8.375,-3.125,15.8125,-0.5605469,-0.3637695,0.04443359,0.2592773,0.05371094,-0.2026367
2214,-5.9375,-0.4375,14.1875,-0.5756836,-0.340332,0.05566406,0.2592773,0.05517578,-0.2011719
2218,-3.25,2.375,11.3125,-0.5834961,-0.3286133,0.09423828,0.2617188,0.05273438,-0.2011719
2222,-4.4375,2.3125,7.5625,-0.6069336,-0.2431641,0.1171875,0.2617188,0.05371094,-0.2041016
2226,-8.125,-4.3125,8.125,-0.5991211,-0.2431641,0.1367188,0.2626953,0.05517578,-0.2026367
2230,-6,-12.1875,12.5,-0.5605469,-0.2392578,0.09814453,0.2617188,0.05371094,-0.2011719
2234,-2.625,-12.25,20.5625,-0.4711914,-0.2509766,0.07910156,0.2626953,0.04980469,-0.2026367
2238,-2.1875,-6.8125,24.0625,-0.4130859,-0.2124023,0.1098633,0.2617188,0.05126953,-0.2026367
2242,-3.6875,2.5625,27.9375,-0.4287109,-0.1694336,0.09423828,0.2626953,0.04980469,-0.2026367
2246,-3,5.75,30.875,-0.4555664,-0.1655273,0.125,0.2626953,0.04638672,-0.2041016
2250,-0.5,-0.875,38.9375,-0.5024414,-0.1191406,0.1132813,0.2651367,0.04394531,-0.2041016
2254,4.5,-14.5625,50.375,-0.4985352,-0.1035156,0.09814453,0.2666016,0.03857422,-0.2011719
2258,11.25,-28.1875,63,-0.4404297,-0.07617188,0.07128906,0.2651367,0.03759766,-0.2041016
2262,16,-26.125,77.0625,-0.3588867,-0.02587891,0.05175781,0.2666016,0.03027344,-0.2094727
2266,15.75,-15.5625,86.25,-0.3510742,-0.002441406,0.07910156,0.2675781,0.02001953,-0.2109375
2270,17.5625,-8.1875,88.625,-0.4790039,0.02832031,0.125,0.2675781,0.01513672,-0.2109375
2274,22.5625,-18.125,87.875,-0.5913086,0.09814453,0.2060547,0.2709961,0.007324219,-0.2119141
2278,27.8125,-37,94.4375,-0.6376953,0.1601563,0.2636719,0.2700195,-0.003417969,-0.2133789
2282,30.5,-49.4375,102,-0.4555664,0.1835938,0.1826172,0.2700195,-0.01074219,-0.2163086
2286,30.4375,-38.9375,107.75,-0.3935547,0.300293,0.140625,0.2666016,-0.01953125,-0.2202148
2290,27.5625,-29.75,113.3125,-0.3706055,0.3544922,0.06347656,0.2675781,-0.03320313,-0.2246094
2294,32.0625,-18.1875,122.5,-0.3745117,0.3779297,0.01367188,0.2666016,-0.03955078,-0.2270508
2298,35,-0.5625,139.625,-0.4052734,0.4790039,-0.02441406,0.2675781,-0.05566406,-0.2285156
2303,32.9375,17.8125,148.125,-0.5410156,0.5371094,-0.03613281,0.2666016,-0.06835938,-0.2285156
2307,35.8125,27.625,146.4375,-0.6069336,0.5913086,-0.03222656,0.2700195,-0.07958984,-0.2255859
2311,36.375,40.625,141.3125,-0.6147461,0.6962891,-0.005371094,0.2675781,-0.09326172,-0.2246094
2315,34.125,63.5,150.3125,-0.6147461,0.8208008,0.02490234,0.269043,-0.109375,-0.21875
2319,21.6875,76.9375,163.1875,-0.847168,0.8598633,0.005859375,0.2700195,-0.1206055,-0.2148438
2323,20.75,69.4375,172.75,-1.052734,0.7275391,-0.02441406,0.2709961,-0.1342773,-0.2080078
2327,32.5625,50.875,170.875,-1.11084,0.6342773,-0.01660156,0.2709961,-0.1508789,-0.2011719
2331,45.75,35.875,160.75,-1.099121,0.7236328,0.009765625,0.2675781,-0.1630859,-0.1972656
2335,46.75,33.0625,148.5625,-0.9672852,0.890625,0.07910156,0.2651367,-0.1806641,-0.1928711
2339,34.875,44.875,149.125,-0.9907227,1.022949,0.05175781,0.2602539,-0.1958008,-0.1889648
2343,25.75,42.4375,153.625,-1.048828,0.9453125,-0.001464844,0.2568359,-0.203125,-0.1821289
2347,35.375,38.4375,160.8125,-1.048828,0.8867188,-0.05517578,0.2519531,-0.2182617,-0.1806641
2351,45.0625,42.875,156.1875,-0.9985352,0.987793,-0.04736328,0.2451172,-0.2319336,-0.175293
2355,41.8125,51.1875,143.5,-1.041016,1.124023,-0.01318359,0.2412109,-0.2407227,-0.1674805
2359,35.9375,49.375,138.5,-1.052734,1.146973,-0.02832031,0.234375,-0.2543945,-0.1645508
2363,36.8125,44.75,137.5625,-1.041016,1.13916,-0.06298828,0.2285156,-0.2670898,-0.1591797
2367,38.5625,40.8125,139.9375,-1.013672,1.131836,-0.1054688,0.222168,-0.2744141,-0.1547852
2371,40.1875,41.5,142.6875,-0.9907227,1.143066,-0.1206055,0.2163086,-0.2856445,-0.1494141
2375,39.8125,46.1875,143.375,-0.9829102,1.146973,-0.109375,0.2070313,-0.2954102,-0.1469727
2379,35.875,52.5,142.4375,-0.9750977,1.158691,-0.07861328,0.199707,-0.3032227,-0.1401367
2383,30,61.1875,139.125,-0.9633789,1.174316,-0.05908203,0.1904297,-0.3129883,-0.1347656
2387,20.875,74.9375,134.0625,-0.9829102,1.197754,-0.02832031,0.1821289,-0.3232422,-0.1303711
2391,8.5625,86.75,130.75,-1.067871,1.20166,-0.02441406,0.1738281,-0.3266602,-0.125
2395,1,94.875,129.8125,-1.149414,1.143066,-0.04394531,0.1689453,-0.3330078,-0.1210938
2399,-4.75,101.5,128.375,-1.199707,1.108398,-0.04394531,0.1616211,-0.3369141,-0.1157227
2403,-11.125,106.5625,124,-1.285156,1.069336,-0.05517578,0.1557617,-0.3408203,-0.1113281
2407,-17.875,112.5625,117.875,-1.304199,1.019043,-0.05517578,0.1474609,-0.3491211,-0.1074219
2411,-25.4375,119.125,116.125,-1.331543,0.9799805,-0.07861328,0.1401367,-0.3491211,-0.1044922
2415,-25.625,119.75,126.25,-1.436035,1.01123,-0.06298828,0.1376953,-0.3530273,-0.1044922
2419,-34.625,101.8125,133.1875,-1.827637,1.057617,0.009765625,0.1259766,-0.3579102,-0.09912109
2423,-1.4375,-34.5,129.9375,-3.61377,0.1992188,0.2944336,0.112793,-0.3632813,-0.09765625
2427,4.625,-157.8125,-10.9375,-2.304199,0.3623047,-0.2246094,0.1069336,-0.3642578,-0.1020508
2432,-16.25,-60.1875,-49.6875,-1.211426,0.8129883,-0.2939453,0.105957,-0.3642578,-0.105957
2436,-31.8125,0.4375,-55.1875,-1.312012,0.5566406,-0.3208008,0.109375,-0.3618164,-0.1098633
2440,1.75,2.5625,-73.875,-1.641602,0.5175781,-0.1206055,0.112793,-0.3618164,-0.1098633
2444,17.1875,-22.4375,-85.875,-1.746094,0.8442383,0.01367188,0.1210938,-0.3569336,-0.1113281
2448,16,-50.6875,-98.125,-1.719238,1.034668,0.07519531,0.1293945,-0.3554688,-0.1113281
2452,9.75,-76.125,-116.0625,-1.657227,1.069336,0.02099609,0.1333008,-0.3520508,-0.1113281
2456,8,-96.75,-139.4375,-1.498047,1.088867,-0.06298828,0.1401367,-0.3481445,-0.1157227
2460,7.625,-106.1875,-157,-1.296875,1.120117,-0.1435547,0.1533203,-0.3417969,-0.1166992
2464,10.5625,-105.625,-168.5625,-1.11084,1.178223,-0.1860352,0.1606445,-0.3369141,-0.1225586
2468,8.125,-92.625,-175.875,-0.9399414,1.240234,-0.1821289,0.1689453,-0.328125,-0.125
2472,-0.125,-74.5,-182,-0.8085938,1.259766,-0.1743164,0.1806641,-0.3178711,-0.1289063
2476,-5.3125,-55.0625,-180.875,-0.8510742,1.221191,-0.1435547,0.1904297,-0.3129883,-0.1318359
2480,-5.875,-55.5,-180.625,-0.9633789,1.158691,-0.1206055,0.2011719,-0.3017578,-0.1347656
2484,0.0625,-66,-182.25,-0.9091797,1.081055,-0.109375,0.2119141,-0.2905273,-0.1401367
2488,4.3125,-59.625,-183,-0.715332,1.12793,-0.08203125,0.2211914,-0.2807617,-0.144043
2492,-5.3125,-37.875,-176.5,-0.6611328,1.174316,-0.009277344,0.2319336,-0.2705078,-0.1469727
2496,-15.5625,-21.3125,-161.25,-0.7387695,1.061523,0.03271484,0.2412109,-0.2568359,-0.1484375
2500,-14.4375,-17.625,-149.5625,-0.862793,0.987793,0.04443359,0.2475586,-0.2504883,-0.1523438
2504,-15.4375,-19.375,-147.125,-0.9633789,1.015137,0.04052734,0.2543945,-0.2368164,-0.1538086
2508,-18,-31.125,-146.0625,-1.037109,1.007324,0.03662109,0.2626953,-0.2246094,-0.1577148
2512,-19.75,-38.875,-143,-1.013672,0.9375,-0.02050781,0.2641602,-0.2143555,-0.1591797
2516,-19.5625,-41.625,-143.75,-0.9516602,0.8710938,-0.07470703,0.2709961,-0.2016602,-0.1630859
2520,-18.875,-34.8125,-144.875,-0.8393555,0.8286133,-0.0859375,0.2749023,-0.1879883,-0.168457
2524,-18.4375,-22.5625,-140,-0.8588867,0.8051758,-0.04394531,0.2773438,-0.1791992,-0.1699219
2528,-20.25,-16.5,-140.125,-0.8857422,0.7973633,-0.005371094,0.2807617,-0.1645508,-0.1728516
2532,-20.125,-18.625,-141.75,-0.9013672,0.7041016,-0.009277344,0.2856445,-0.1479492,-0.175293
2536,-13.1875,-24.25,-140.4375,-0.847168,0.6420898,-0.005371094,0.2866211,-0.140625,-0.1738281
2540,-11.5,-25.6875,-135.5,-0.7773438,0.6420898,0.01367188,0.2890625,-0.1279297,-0.1796875
2544,-12.5625,-20.5,-128.8125,-0.715332,0.5761719,0.04785156,0.2900391,-0.1142578,-0.1806641
2548,-13.5625,-14.9375,-124.5625,-0.7426758,0.5214844,0.07910156,0.2924805,-0.1030273,-0.1821289
2552,-14.0625,-16.625,-120.5,-0.7617188,0.4711914,0.09814453,0.2939453,-0.09326172,-0.1835938
2556,-12.9375,-21.75,-116.125,-0.7773438,0.4360352,0.1132813,0.2924805,-0.08203125,-0.1850586
2561,-11.9375,-31,-110.6875,-0.7695313,0.3701172,0.1020508,0.2924805,-0.07324219,-0.1875
2565,-8.5625,-35.4375,-105,-0.6728516,0.315918,0.07910156,0.2915039,-0.06201172,-0.1918945
2569,-10.0625,-31.5,-101.625,-0.6303711,0.3310547,0.07519531,0.2880859,-0.05175781,-0.1943359
2573,-12.5625,-28.5625,-96.0625,-0.6069336,0.2768555,0.09033203,0.2866211,-0.04443359,-0.1958008
2577,-11.625,-28.8125,-88.125,-0.5991211,0.1992188,0.09033203,0.2856445,-0.03564453,-0.1972656
2581,-10.0625,-26.125,-83.0625,-0.5795898,0.1523438,0.08251953,0.2832031,-0.02587891,-0.2011719
2585,-9.75,-23.25,-80.3125,-0.6108398,0.1098633,0.07128906,0.2817383,-0.02197266,-0.2026367
2589,-5.125,-29,-78.25,-0.6572266,0.05126953,0.06738281,0.2773438,-0.01464844,-0.2055664
2593,2.3125,-37.375,-71.4375,-0.5605469,0.02050781,0.06347656,0.2758789,-0.005859375,-0.2080078
2597,4.6875,-35.25,-66.4375,-0.4750977,0.02441406,0.04785156,0.2734375,-0.001953125,-0.2094727
2601,0.5,-25.4375,-62.9375,-0.4091797,0.0009765625,0.06738281,0.2700195,0.004882813,-0.2094727
2605,-2.5,-13.5,-58.5625,-0.4052734,-0.02587891,0.09814453,0.269043,0.01025391,-0.2133789
2609,-4.375,-5.625,-49.75,-0.4130859,-0.03369141,0.09423828,0.269043,0.01269531,-0.2133789
2613,-5.3125,1.75,-40,-0.4169922,-0.07226563,0.1098633,0.2651367,0.01855469,-0.2133789
2617,-7.125,9.1875,-32.8125,-0.4248047,-0.09179688,0.09814453,0.2651367,0.01855469,-0.2133789
2621,-9.5625,13.375,-27,-0.4946289,-0.1499023,0.1098633,0.2651367,0.02246094,-0.2109375
2625,-5.8125,8.625,-23.0625,-0.5566406,-0.1967773,0.1171875,0.2666016,0.02392578,-0.2119141
2629,-3.3125,0.1875,-20.1875,-0.5292969,-0.1850586,0.1171875,0.2651367,0.02636719,-0.2109375
2633,-1.3125,-2.3125,-12,-0.4829102,-0.1616211,0.1289063,0.2666016,0.02880859,-0.2109375
2637,-1.4375,-2.8125,-4.3125,-0.4365234,-0.1616211,0.1328125,0.2641602,0.03027344,-0.2119141
2641,-3,2.625,5.25,-0.4208984,-0.1459961,0.1289063,0.2641602,0.03027344,-0.2109375
2645,-7.25,14.25,12.5,-0.4594727,-0.1538086,0.144043,0.2626953,0.02880859,-0.2119141
2649,-12.125,20.8125,15.75,-0.5644531,-0.1928711,0.1674805,0.2666016,0.02880859,-0.2094727
2653,-10.375,14.1875,18.125,-0.6767578,-0.2626953,0.1328125,0.2666016,0.02734375,-0.2080078
2657,-0.375,3.1875,21.5,-0.6845703,-0.2392578,0.1479492,0.2700195,0.02636719,-0.2055664
2661,-2.4375,1.4375,23.25,-0.6264648,-0.1616211,0.125,0.269043,0.02392578,-0.2055664
2665,-5.0625,7.25,24.6875,-0.6264648,-0.2124023,0.08642578,0.2709961,0.02392578,-0.206543
2669,-1.75,9.5625,27,-0.6416016,-0.2353516,0.07519531,0.2709961,0.02392578,-0.2055664
2673,1.1875,11.0625,31.0625,-0.6455078,-0.1772461,0.09423828,0.2724609,0.01855469,-0.2055664
2677,2.6875,12.5625,38.4375,-0.6342773,-0.1459961,0.1171875,0.2734375,0.01513672,-0.2041016
2681,2.75,12.4375,42.6875,-0.6611328,-0.09570313,0.1518555,0.2749023,0.01367188,-0.2026367
2685,1.5625,7,46.8125,-0.6650391,-0.09960938,0.1289063,0.2749023,0.01025391,-0.2026367
2690,5.8125,0.0625,49.9375,-0.6264648,-0.09179688,0.1210938,0.2792969,0.004882813,-0.2026367
2694,9.25,-10.6875,52.5625,-0.5834961,-0.02197266,0.125,0.2773438,0.002441406,-0.2011719
2698,13.625,-22.75,58.375,-0.4672852,0.02050781,0.1098633,0.2773438,-0.003417969,-0.2055664
2702,16,-23.5,67.3125,-0.347168,0.1176758,0.09814453,0.2773438,-0.009277344,-0.206543
2706,13.875,-17.375,78.1875,-0.2890625,0.203125,0.1098633,0.2773438,-0.015625,-0.2094727
2710,9.625,-13.5625,89.3125,-0.3320313,0.2416992,0.07128906,0.2758789,-0.02197266,-0.2094727
2714,11.125,-11.25,99.125,-0.3085938,0.2338867,0.02490234,0.2783203,-0.03173828,-0.2109375
2718,14.375,-1.6875,106.3125,-0.2192383,0.269043,-0.009277344,0.2749023,-0.03808594,-0.2109375
2722,12.75,20.0625,115.875,-0.2192383,0.3818359,0.005859375,0.2783203,-0.04931641,-0.2109375
2726,4.125,51.875,128.8125,-0.3046875,0.4711914,0.02880859,0.2807617,-0.06054688,-0.2080078
2730,-10.625,70.9375,133.375,-0.5874023,0.4750977,0.009765625,0.2817383,-0.06835938,-0.2055664
2734,-10.4375,58.8125,138.6875,-0.847168,0.3623047,-0.001464844,0.2841797,-0.08056641,-0.1972656
2738,5.8125,31.625,140.0625,-0.9477539,0.3505859,-0.001464844,0.2890625,-0.09570313,-0.1928711
2742,19,10.5625,138.9375,-0.8818359,0.4868164,0.02099609,0.2856445,-0.1030273,-0.1943359
2746,19.4375,6.5,138.375,-0.8046875,0.5488281,0.001953125,0.2856445,-0.1196289,-0.1928711
2750,22.25,11.5625,138.6875,-0.7231445,0.5878906,0.005859375,0.2817383,-0.1318359,-0.1875
2754,22.4375,18.1875,141.9375,-0.7578125,0.7041016,-0.009277344,0.2807617,-0.1420898,-0.1875
2758,22.6875,21.0625,148.5,-0.78125,0.7509766,0.01367188,0.2792969,-0.1542969,-0.1865234
2762,21.9375,26.8125,152,-0.8007813,0.8208008,-0.009277344,0.2749023,-0.1704102,-0.1821289
2766,17.125,35.75,147.8125,-0.8935547,0.8789063,-0.02441406,0.2700195,-0.1806641,-0.1796875
2770,18.375,36.1875,144.125,-0.9555664,0.8710938,-0.01318359,0.2675781,-0.1943359,-0.1767578
2774,24.3125,29.375,143.25,-0.9672852,0.9023438,0.001953125,0.2617188,-0.2080078,-0.1728516
2778,29.5625,31.4375,148.5,-0.8857422,0.9916992,0.02490234,0.2568359,-0.2167969,-0.1713867
2782,25.3125,42,150,-0.9052734,1.135742,0.02490234,0.2519531,-0.2304688,-0.168457
2786,14.5625,50.1875,153.25,-0.9750977,1.17041,0.009765625,0.2451172,-0.2431641,-0.1630859
2790,7.6875,47.75,154.8125,-1.033203,1.131836,-0.001464844,0.2402344,-0.2504883,-0.1591797
2794,8.5,40.5625,156.25,-1.017578,1.09668,-0.01660156,0.2329102,-0.2607422,-0.1538086
2798,8.5625,36.375,157.5,-1.029297,1.131836,-0.06689453,0.2236328,-0.2744141,-0.1494141
2802,9,33.9375,154.875,-1.017578,1.073242,-0.1054688,0.21875,-0.2817383,-0.1494141
2806,15,34.0625,146.75,-0.9711914,1.049805,-0.1362305,0.2104492,-0.2919922,-0.1484375
2810,20.0625,40,138.1875,-0.9052734,1.104492,-0.1323242,0.1987305,-0.3017578,-0.1416016
2814,19.125,48.75,134.75,-0.8896484,1.193848,-0.1323242,0.1938477,-0.3066406,-0.1401367
2819,16,52.875,138,-0.9052734,1.213379,-0.08984375,0.1831055,-0.3154297,-0.1347656
2823,14.1875,56,143.6875,-0.9594727,1.225098,-0.08984375,0.1757813,-0.3232422,-0.1303711
2827,10.3125,59.0625,143.4375,-0.9711914,1.20166,-0.08984375,0.1665039,-0.3291016,-0.1303711
2831,5.6875,69.9375,139.6875,-0.9711914,1.213379,-0.05126953,0.1582031,-0.3369141,-0.1264648
2835,-5.5625,85.6875,136.625,-1.013672,1.244141,-0.05126953,0.1484375,-0.3432617,-0.1210938
2839,-20.25,102.25,137.375,-1.15332,1.197754,-0.04003906,0.1401367,-0.3466797,-0.1181641
2843,-32.8125,112.9375,139,-1.347168,1.088867,-0.09375,0.1333008,-0.3491211,-0.1166992
2847,-33.875,106.8125,138.625,-1.625977,0.90625,-0.112793,0.125,-0.3544922,-0.1157227
2851,-25.5,86.5,134.5,-1.87793,0.8051758,-0.128418,0.1166992,-0.3579102,-0.112793
2855,-14.6875,50.125,140.4375,-2.703125,0.3427734,-0.1435547,0.109375,-0.3579102,-0.1098633
2859,22.3125,-78.4375,-3.875,-3.497559,0.09033203,0.07128906,0.09863281,-0.3632813,-0.112793
2863,16.125,-81.5625,-43.25,-1.847168,0.956543,-0.1552734,0.09863281,-0.3657227,-0.1113281
2867,18.3125,-45.9375,-26.9375,-1.401367,0.5878906,-0.4321289,0.1010742,-0.3642578,-0.1142578
2871,20,-9.375,-61.6875,-1.606445,0.7353516,-0.1708984,0.1035156,-0.3618164,-0.112793
2875,11.6875,0.375,-99,-1.727051,0.855957,-0.07080078,0.1079102,-0.3618164,-0.112793
2879,13.25,-7.75,-121,-1.835449,0.9799805,-0.02832031,0.1201172,-0.3579102,-0.1098633
2883,16.25,-40.75,-138.75,-1.924316,1.01123,-0.01318359,0.128418,-0.3544922,-0.1113281
2887,25.625,-85,-157.5625,-1.800293,1.081055,-0.08203125,0.1376953,-0.3505859,-0.1142578
2891,31.8125,-110.0625,-177.375,-1.525391,1.209473,-0.1474609,0.1484375,-0.3466797,-0.112793
2895,28.6875,-106.375,-195.625,-1.246094,1.364746,-0.1821289,0.1630859,-0.3369141,-0.1181641
2899,18.625,-88.9375,-207.125,-1.103027,1.415039,-0.1591797,0.1689453,-0.3305664,-0.1181641
2903,9,-70.875,-208.9375,-1.083496,1.411133,-0.1669922,0.1855469,-0.3217773,-0.1225586
2907,3.5625,-59.1875,-206.25,-1.07959,1.364746,-0.1669922,0.199707,-0.3081055,-0.125
2911,1.5625,-52.125,-203.9375,-1.099121,1.314453,-0.1591797,0.2080078,-0.2993164,-0.1279297
2915,0.6875,-46.875,-205.8125,-1.133789,1.306641,-0.128418,0.222168,-0.2856445,-0.1318359
2919,0.8125,-47.4375,-210.5,-1.180664,1.244141,-0.112793,0.2329102,-0.2705078,-0.1318359
2923,7,-50.625,-215.125,-1.141602,1.248047,-0.1054688,0.2426758,-0.2631836,-0.1357422
2927,6.5,-54.375,-215.3125,-1.129883,1.302734,-0.07861328,0.253418,-0.2441406,-0.1416016
2931,2.375,-60.4375,-212.9375,-1.063965,1.271484,-0.05126953,0.2651367,-0.2280273,-0.1455078
2935,0,-65.3125,-206.375,-0.9946289,1.240234,-0.06298828,0.269043,-0.2167969,-0.1494141
2939,-3.6875,-64.625,-198.0625,-0.9130859,1.189941,-0.07470703,0.2758789,-0.1982422,-0.1508789
2943,-8.875,-59.4375,-191.625,-0.9052734,1.108398,-0.07080078,0.2807617,-0.1782227,-0.1606445
2948,-9.875,-60.25,-186.875,-0.8974609,0.9604492,-0.1054688,0.2856445,-0.1679688,-0.1630859
2952,-5,-57.8125,-185.25,-0.8549805,0.890625,-0.109375,0.2890625,-0.1508789,-0.1699219
2956,-2.9375,-54.625,-185.125,-0.796875,0.8481445,-0.09765625,0.2900391,-0.1333008,-0.175293
2960,-3.3125,-49,-180,-0.730957,0.7973633,-0.05908203,0.2900391,-0.1196289,-0.1767578
2964,-5.1875,-42.9375,-173.5,-0.6923828,0.7587891,-0.04003906,0.2915039,-0.1030273,-0.1850586
2968,-10.25,-36.5,-166.375,-0.6689453,0.7119141,0.009765625,0.2900391,-0.08544922,-0.1875
2972,-16.0625,-34.3125,-161.1875,-0.6806641,0.6147461,0.009765625,0.2915039,-0.07421875,-0.1889648
2976,-15.1875,-37.9375,-154.625,-0.6728516,0.5058594,0.02880859,0.2890625,-0.05957031,-0.1928711
2980,-11,-43.8125,-144.1875,-0.6264648,0.4750977,0.04785156,0.2880859,-0.04443359,-0.1972656
2984,-10.9375,-47.375,-132.3125,-0.5566406,0.4165039,0.03662109,0.2841797,-0.03710938,-0.1972656
2988,-8.125,-52.0625,-121.5,-0.4946289,0.3427734,0.01708984,0.2807617,-0.02197266,-0.2026367
2992,-5.75,-53.3125,-110.25,-0.3935547,0.284668,0.009765625,0.2758789,-0.009277344,-0.2055664
2996,-6.3125,-46.375,-98.125,-0.3203125,0.2456055,0.009765625,0.2734375,-0.003417969,-0.2109375
3000,-7.6875,-37.25,-88.6875,-0.2734375,0.1640625,-0.009277344,0.2700195,0.004882813,-0.2133789
3004,-5.9375,-28.9375,-78.875,-0.2583008,0.09814453,0.009765625,0.2651367,0.01269531,-0.2163086
3008,-4.4375,-22.125,-68.8125,-0.2504883,0.05126953,0.03662109,0.2641602,0.01757813,-0.2177734
3012,-4.375,-18.4375,-59.375,-0.2504883,0.03222656,0.05175781,0.2617188,0.02246094,-0.2163086
3016,-6.5625,-13.4375,-51.0625,-0.2426758,-0.01025391,0.07128906,0.2592773,0.02880859,-0.2202148
3020,-7.9375,-9.8125,-45.25,-0.2661133,-0.04882813,0.09033203,0.2558594,0.03125,-0.2202148
3024,-6.6875,-6.9375,-37.8125,-0.2543945,-0.09179688,0.1289063,0.2558594,0.03515625,-0.2216797
3028,-7.9375,-2.8125,-30.1875,-0.262207,-0.08789063,0.140625,0.253418,0.04003906,-0.2216797
3032,-9.5,-1.25,-20.9375,-0.3125,-0.1191406,0.1748047,0.2509766,0.04150391,-0.2202148
3036,-10.5,-3.25,-7.875,-0.3549805,-0.1269531,0.1713867,0.2519531,0.04248047,-0.2216797
3040,-11.6875,-3.875,0.8125,-0.3549805,-0.1733398,0.144043,0.2519531,0.04394531,-0.2202148
3044,-12.5,-0.6875,6.1875,-0.3588867,-0.1811523,0.1289063,0.25,0.04394531,-0.2202148
3048,-15.8125,6.125,9.5,-0.3823242,-0.1928711,0.1367188,0.253418,0.04248047,-0.21875
3052,-18.5625,9.75,13.6875,-0.4521484,-0.2392578,0.1210938,0.2519531,0.04394531,-0.2202148
3056,-13.8125,5.5625,18.9375,-0.5102539,-0.3095703,0.09423828,0.2543945,0.04638672,-0.21875
3060,-5.9375,-2.0625,25.6875,-0.5253906,-0.2900391,0.08251953,0.2543945,0.04248047,-0.21875
3064,-2.875,-0.5625,31.3125,-0.4594727,-0.2548828,0.07910156,0.253418,0.04150391,-0.21875
3068,-5.125,6.375,35.4375,-0.4711914,-0.2124023,0.08642578,0.2568359,0.04003906,-0.2177734
3072,-7,12.1875,41.9375,-0.4868164,-0.2275391,0.08251953,0.2568359,0.03759766,-0.2163086
3077,-7.3125,17.4375,47.0625,-0.5292969,-0.1850586,0.105957,0.2592773,0.03369141,-0.2148438
3081,-9.75,19.5,49.5,-0.5874023,-0.1811523,0.125,0.2602539,0.03125,-0.2133789
3085,-8.5625,13.3125,54.8125,-0.6264648,-0.1928711,0.105957,0.2651367,0.02636719,-0.2133789
3089,-1.75,7.0625,60.375,-0.6494141,-0.1928711,0.1098633,0.2651367,0.02246094,-0.2119141
3093,5.1875,-4.4375,63.875,-0.6455078,-0.1733398,0.125,0.2675781,0.01855469,-0.2109375
3097,13.4375,-11.6875,64.9375,-0.6108398,-0.1191406,0.1328125,0.269043,0.01123047,-0.2133789
3101,16.25,-15.75,65.5,-0.5527344,-0.04150391,0.1635742,0.2675781,0.004882813,-0.2148438
3105,17.6875,-17.25,69.4375,-0.4946289,0.02441406,0.1518555,0.2675781,0.001464844,-0.2148438
3109,18.25,-16.8125,76.1875,-0.4365234,0.03613281,0.1289063,0.2675781,-0.006835938,-0.2177734
3113,19.5625,-7.375,83.9375,-0.3320313,0.05126953,0.09814453,0.2675781,-0.01318359,-0.2148438
3117,14.5,14.0625,88.1875,-0.328125,0.1176758,0.1132813,0.2709961,-0.01953125,-0.21875
3121,6.9375,34.0625,89.375,-0.4521484,0.1640625,0.1289063,0.2724609,-0.02929688,-0.2163086
3125,4,40.375,89.125,-0.5991211,0.21875,0.144043,0.2758789,-0.03710938,-0.2133789
3129,1.9375,39.5,90.625,-0.6416016,0.2885742,0.1713867,0.2758789,-0.04296875,-0.2119141
3133,-1.9375,36.3125,94.8125,-0.699707,0.3349609,0.140625,0.2817383,-0.04931641,-0.2080078
3137,0,30.25,103.4375,-0.6845703,0.3120117,0.1328125,0.2832031,-0.05810547,-0.2041016
3141,2.125,28.0625,110.625,-0.6806641,0.3857422,0.1020508,0.2832031,-0.06689453,-0.2041016
3145,1.25,29.8125,114.625,-0.7192383,0.4790039,0.06347656,0.2832031,-0.07568359,-0.199707
3149,0.8125,25,114.1875,-0.8085938,0.4672852,0.02490234,0.2856445,-0.08837891,-0.199707
3153,12.125,13.5625,114.1875,-0.796875,0.4360352,0.02099609,0.2856445,-0.09423828,-0.1972656
3157,22.6875,14.8125,123.625,-0.6845703,0.5878906,0.02880859,0.2841797,-0.1069336,-0.1958008
3161,16.3125,33.75,133.75,-0.6689453,0.7587891,0.005859375,0.2817383,-0.1206055,-0.1943359
3165,7.5,48.75,142.375,-0.7578125,0.7973633,-0.005371094,0.2817383,-0.1279297,-0.1918945
3169,4.8125,51.5,151.4375,-0.8432617,0.8051758,0.02490234,0.2807617,-0.1420898,-0.1875
3173,4,61.125,171.9375,-0.8857422,0.9101563,0.01708984,0.2783203,-0.1567383,-0.1806641
3177,-6.375,72.75,186.0625,-0.9672852,0.9296875,-0.001464844,0.2783203,-0.1679688,-0.175293
3181,-10,83.1875,196.875,-1.041016,0.8671875,-0.03222656,0.2749023,-0.1855469,-0.1699219
3185,-5,83.0625,195.875,-1.187988,0.7895508,-0.05126953,0.269043,-0.2016602,-0.1630859
3189,5.4375,67.9375,184.4375,-1.269531,0.7666016,-0.06298828,0.2651367,-0.2143555,-0.1577148
3193,12.9375,52.75,168.875,-1.219238,0.8286133,-0.06298828,0.2568359,-0.2294922,-0.1538086
3197,10,48.75,157.0625,-1.137695,0.8984375,-0.09375,0.2543945,-0.2392578,-0.1484375
3201,3.5625,50,146.125,-1.075684,0.9375,-0.109375,0.2460938,-0.2480469,-0.144043
3206,-0.8125,51.625,139.125,-1.083496,0.9375,-0.1362305,0.2402344,-0.2617188,-0.1425781
3210,2.4375,49.1875,134.4375,-1.083496,0.9799805,-0.1362305,0.2319336,-0.2719727,-0.1386719
3214,2.9375,43.375,130.5,-1.091309,1.06543,-0.1206055,0.2285156,-0.2768555,-0.1357422
3218,2.4375,30.5,130,-1.087402,1.06543,-0.1323242,0.2202148,-0.2866211,-0.1333008
3222,7.625,15.9375,132.1875,-1.013672,1.038574,-0.1513672,0.2094727,-0.296875,-0.1303711
3226,14.3125,8.8125,133.5625,-0.9326172,1.069336,-0.1591797,0.2070313,-0.3007813,-0.1289063
3230,16,12.1875,133.5,-0.8666992,1.077148,-0.1743164,0.1938477,-0.3095703,-0.1289063
3234,18.1875,18.8125,132.0625,-0.8857422,1.030762,-0.1782227,0.1831055,-0.3193359,-0.125
3238,24.6875,22,129.75,-0.9130859,1.026855,-0.1474609,0.1796875,-0.3242188,-0.1235352
3242,23.5,25.4375,123.9375,-0.9248047,1.084961,-0.112793,0.1699219,-0.3330078,-0.1225586
3246,14.875,36.0625,113.4375,-0.8857422,1.104492,-0.08203125,0.1606445,-0.3369141,-0.1181641
3250,7.3125,52,102.125,-0.9130859,1.120117,-0.07861328,0.1533203,-0.3417969,-0.1142578
3254,1,65.25,95.625,-0.9829102,1.150879,-0.06298828,0.1484375,-0.3442383,-0.1113281
3258,-7.625,77.25,93.6875,-1.017578,1.150879,-0.08984375,0.1401367,-0.3505859,-0.1098633
3262,-19,92.5625,92,-1.075684,1.108398,-0.09765625,0.1357422,-0.3505859,-0.1074219
3266,-29.1875,102.3125,85.25,-1.176758,1.053711,-0.08203125,0.1318359,-0.3569336,-0.105957
3270,-33.0625,99.8125,101.0625,-2.145508,0.5214844,0.01367188,0.1269531,-0.3554688,-0.1035156
3274,4.875,-19.5,-29.6875,-2.908691,0.1098633,0.1635742,0.1225586,-0.359375,-0.1044922
3278,-2.1875,-29.4375,-86.875,-1.734375,0.6923828,-0.1206055,0.1269531,-0.3569336,-0.1044922
3282,-17.1875,-22.0625,-43.8125,-1.203613,0.7626953,-0.2436523,0.1318359,-0.3544922,-0.105957
3286,1.125,-27.75,6.1875,-1.033203,0.7856445,-0.1899414,0.1342773,-0.3520508,-0.105957
3290,6.375,-20.375,32.5625,-0.9555664,0.840332,-0.1362305,0.1318359,-0.3544922,-0.1088867
3294,8,-4.875,7.1875,-1.056641,0.7973633,-0.1435547,0.1293945,-0.3530273,-0.1098633
3298,6.4375,6.75,-44.0625,-1.25,0.809082,-0.1015625,0.1308594,-0.3554688,-0.1074219
3302,5.6875,-1.0625,-92.4375,-1.308105,0.8710938,-0.09765625,0.1342773,-0.3544922,-0.1088867
3306,4.6875,-11.3125,-115.0625,-1.351074,0.9799805,-0.109375,0.1450195,-0.3466797,-0.1088867
3310,6.8125,-38.4375,-118,-1.339355,0.9643555,-0.1860352,0.1508789,-0.3457031,-0.1088867
3314,20.9375,-59.1875,-113.9375,-1.219238,0.9643555,-0.2436523,0.1616211,-0.3393555,-0.1074219
3318,27,-60.6875,-114.625,-1.099121,1.061523,-0.2475586,0.1650391,-0.3354492,-0.112793
3322,19,-45.75,-119.125,-0.9907227,1.077148,-0.2128906,0.1723633,-0.3330078,-0.1142578
3326,7.0625,-21.75,-124.75,-1.017578,1.022949,-0.2436523,0.1831055,-0.3256836,-0.1113281
3330,6.8125,-7.625,-130.0625,-1.157227,0.9140625,-0.2167969,0.1914063,-0.3208008,-0.112793
3335,15.1875,-13.5625,-136.25,-1.300781,0.890625,-0.1860352,0.1987305,-0.3129883,-0.112793
3339,23.5625,-35.375,-145,-1.331543,0.921875,-0.1630859,0.2094727,-0.3056641,-0.112793
3343,27.0625,-52.8125,-152.0625,-1.223145,0.972168,-0.1669922,0.21875,-0.2954102,-0.1142578
3347,21.4375,-56.875,-154.125,-1.11084,0.9995117,-0.2055664,0.2260742,-0.2905273,-0.1157227
3351,18.25,-50.4375,-154.4375,-1.041016,0.956543,-0.1977539,0.234375,-0.2792969,-0.1196289
3355,14.75,-38.8125,-154.75,-1.033203,0.9257813,-0.1474609,0.2426758,-0.2695313,-0.1196289
3359,7.75,-30.4375,-151.3125,-1.125977,0.9179688,-0.109375,0.25,-0.2592773,-0.1210938
3363,1.25,-28.375,-143.5625,-1.265625,0.8598633,-0.1206055,0.2583008,-0.2495117,-0.1235352
3367,1.5625,-35.8125,-146.875,-1.405273,0.777832,-0.1899414,0.2651367,-0.2382813,-0.1279297
3371,10.6875,-51.125,-163.5625,-1.48291,0.7587891,-0.2900391,0.2709961,-0.2294922,-0.1279297
3375,22,-62.3125,-189.625,-1.40918,0.8129883,-0.3476563,0.2773438,-0.2128906,-0.1289063
3379,30.75,-68.8125,-215.8125,-1.35498,0.9760742,-0.3745117,0.2832031,-0.1967773,-0.1357422
3383,35.9375,-77.9375,-227.5625,-1.145508,1.030762,-0.3515625,0.2866211,-0.1845703,-0.1401367
3387,39.1875,-71.9375,-221.25,-0.9130859,1.09668,-0.309082,0.2949219,-0.1655273,-0.1455078
3391,33.9375,-62.375,-207.5625,-0.7773438,1.081055,-0.2475586,0.2983398,-0.1445313,-0.1523438
3395,29.0625,-53.75,-187.875,-0.7114258,0.953125,-0.2363281,0.2998047,-0.1333008,-0.15625
3399,30.1875,-44.625,-171.5,-0.6767578,0.8671875,-0.2089844,0.3007813,-0.1142578,-0.1591797
3403,29.75,-33.4375,-160.75,-0.6494141,0.7509766,-0.1860352,0.3022461,-0.1020508,-0.1616211
3407,25.875,-18.625,-157.0625,-0.6264648,0.6655273,-0.1552734,0.3022461,-0.09082031,-0.1630859
3411,20.9375,-5.6875,-156.125,-0.699707,0.5644531,-0.1552734,0.3022461,-0.07421875,-0.1660156
3415,25.5625,-6.875,-156.9375,-0.7504883,0.4516602,-0.1015625,0.3032227,-0.06054688,-0.1660156
3419,33.875,-11.5,-152.1875,-0.7192383,0.3857422,-0.02832031,0.3022461,-0.04931641,-0.1674805
3423,36.6875,-15.375,-147.0625,-0.6806641,0.3505859,0.04052734,0.2998047,-0.03808594,-0.168457
3427,36.3125,-23.25,-144.5,-0.6689453,0.3310547,0.09814453,0.2998047,-0.02441406,-0.1674805
3431,35.4375,-36.375,-141.375,-0.6303711,0.3193359,0.125,0.2983398,-0.01806641,-0.1699219
3435,34.375,-48.5625,-137.8125,-0.5332031,0.3388672,0.1518555,0.2924805,-0.005859375,-0.175293
3439,31.1875,-52.8125,-127.1875,-0.3974609,0.300293,0.159668,0.2890625,0.00390625,-0.1796875
3443,23.625,-49.8125,-112.25,-0.3432617,0.3120117,0.1826172,0.2841797,0.01123047,-0.1850586
3447,14.25,-48.5,-93,-0.3242188,0.2148438,0.1674805,0.2792969,0.02148438,-0.1889648
3451,11.625,-47,-82.3125,-0.2890625,0.1098633,0.1328125,0.2758789,0.02880859,-0.1918945
3455,12.4375,-41.0625,-76.8125,-0.246582,0.05908203,0.08642578,0.2724609,0.03369141,-0.1943359
3459,9.375,-29.1875,-70.125,-0.1728516,0.08642578,0.125,0.269043,0.03857422,-0.199707
3464,2.5,-16.8125,-58.875,-0.1611328,0.03222656,0.1518555,0.2651367,0.04150391,-0.2026367
3468,-3.9375,-10.75,-47,-0.2080078,-0.02978516,0.1943359,0.2626953,0.04736328,-0.2041016
3472,-4.4375,-13.5625,-32.5,-0.2041016,-0.1230469,0.1826172,0.2617188,0.05126953,-0.2041016
3476,-1.75,-11.5,-19.9375,-0.1923828,-0.1113281,0.2133789,0.2602539,0.05371094,-0.2055664
3480,-5.625,-8.875,-7.1875,-0.2192383,-0.09179688,0.2597656,0.2592773,0.05371094,-0.2011719
3484,-13.625,-8.25,3.1875,-0.246582,-0.09570313,0.2290039,0.2568359,0.05615234,-0.2055664
3488,-21.0625,-4.4375,6.5,-0.2119141,-0.2124023,0.1674805,0.2568359,0.05517578,-0.206543
3492,-22.4375,2.4375,5.6875,-0.2231445,-0.2431641,0.1210938,0.2568359,0.05517578,-0.2041016
3496,-21.8125,8.0625,19.0625,-0.2661133,-0.2509766,0.105957,0.2583008,0.05517578,-0.2026367
3500,-21.125,15,31,-0.3085938,-0.2509766,0.105957,0.2592773,0.05615234,-0.2041016
3504,-24.1875,20.75,38.8125,-0.3706055,-0.2470703,0.1098633,0.2617188,0.05615234,-0.199707
3508,-24.5,19.4375,47.5,-0.4443359,-0.2666016,0.1171875,0.2626953,0.05273438,-0.1972656
3512,-21.8125,16.375,55.4375,-0.4750977,-0.2587891,0.1635742,0.2666016,0.04980469,-0.1972656
3516,-22.3125,10.6875,56.125,-0.4946289,-0.2202148,0.2060547,0.2675781,0.04638672,-0.1928711
3520,-22.8125,0,55.1875,-0.5063477,-0.1499023,0.2368164,0.2700195,0.04394531,-0.1943359
3524,-24.375,-17.9375,63,-0.5410156,-0.09570313,0.1904297,0.2724609,0.03857422,-0.1943359
3528,-20.75,-30.25,80.25,-0.4868164,-0.08398438,0.1787109,0.2734375,0.03515625,-0.1943359
3532,-18.9375,-29.125,100,-0.4052734,-0.1113281,0.1289063,0.2734375,0.03027344,-0.1958008
3536,-18.0625,-7.3125,107.3125,-0.3164063,-0.1113281,0.08642578,0.2749023,0.02246094,-0.1987305
3540,-22.25,22.9375,105.875,-0.4013672,-0.03759766,0.08251953,0.2773438,0.01611328,-0.1987305
3544,-28.3125,37.25,102.1875,-0.6030273,0.03222656,0.06738281,0.2792969,0.004882813,-0.1943359
3548,-26,23.5625,97.875,-0.730957,0.04736328,0.06347656,0.2841797,-0.0004882813,-0.1904297
3552,-22.1875,-7,99.5625,-0.699707,0.09033203,-0.001464844,0.2841797,-0.004394531,-0.1904297
3556,-11.6875,-30.375,107.4375,-0.5141602,0.08251953,-0.06298828,0.2856445,-0.01318359,-0.1904297
3560,-2.625,-20.625,130.625,-0.2890625,0.1640625,-0.128418,0.2866211,-0.02587891,-0.1928711
3564,-6.625,11.6875,143.25,-0.2929688,0.2612305,-0.1245117,0.2866211,-0.03564453,-0.1943359
3568,-13,38.6875,146.3125,-0.4672852,0.284668,-0.128418,0.2866211,-0.04589844,-0.1918945
3572,-9.5,37.9375,146.75,-0.6611328,0.3081055,-0.09375,0.2915039,-0.06054688,-0.1889648
3576,-1.0625,15,144.6875,-0.7504883,0.3857422,-0.06298828,0.2939453,-0.06933594,-0.1850586
3580,0.9375,-5.1875,143.9375,-0.6264648,0.4907227,-0.112793,0.2924805,-0.08203125,-0.1875
3584,3.9375,-7.4375,149.1875,-0.4594727,0.5019531,-0.1938477,0.2915039,-0.09570313,-0.1865234
3588,10.1875,8.8125,153.9375,-0.262207,0.5800781,-0.2514648,0.2900391,-0.1069336,-0.1875
3593,11.75,41.75,154.6875,-0.2119141,0.777832,-0.2670898,0.2890625,-0.1220703,-0.1850586
3597,2.4375,81.125,163.6875,-0.2504883,0.9682617,-0.2363281,0.2866211,-0.1357422,-0.1806641
3601,-17.625,121.75,172.4375,-0.4404297,1.061523,-0.2592773,0.2856445,-0.1469727,-0.1738281
3605,-32.625,140.625,181.8125,-0.7734375,1.026855,-0.2900391,0.2880859,-0.1645508,-0.1645508
3609,-25.5625,129.1875,192.9375,-1.087402,0.9335938,-0.2783203,0.2856445,-0.1791992,-0.1538086
3613,-8.5,98.3125,197.4375,-1.227051,0.9956055,-0.2363281,0.2832031,-0.1918945,-0.144043
3617,-1.625,68.9375,192.4375,-1.203613,1.077148,-0.2285156,0.2783203,-0.2094727,-0.137207
3621,-3.8125,60.1875,182.5,-1.044922,1.12793,-0.2207031,0.2709961,-0.2246094,-0.1318359
3625,-9.625,66.4375,169,-1.029297,1.240234,-0.2089844,0.2675781,-0.2358398,-0.1264648
3629,-16.4375,70.3125,168,-1.133789,1.341309,-0.1669922,0.2568359,-0.2480469,-0.1235352
3633,-22.5,61,175.5,-1.296875,1.32959,-0.1513672,0.25,-0.2617188,-0.1196289
3637,-19.25,28.9375,182.75,-1.459473,1.221191,-0.1669922,0.2426758,-0.2719727,-0.1166992
3641,-3.4375,-11.375,184.8125,-1.479004,1.162598,-0.1591797,0.2319336,-0.2856445,-0.1166992
3645,9.125,-39.9375,170.75,-1.308105,1.17041,-0.1899414,0.2177734,-0.296875,-0.1181641
3649,17.0625,-44.6875,151.5625,-1.114746,1.225098,-0.2055664,0.2080078,-0.3056641,-0.1181641
3653,17.375,-36.375,138.5,-0.9477539,1.298828,-0.2285156,0.1962891,-0.3120117,-0.1196289
3657,17.4375,-16.1875,137.75,-0.8354492,1.36084,-0.2553711,0.184082,-0.3242188,-0.1196289
3661,16.5625,16.875,140.625,-0.746582,1.349121,-0.2861328,0.1757813,-0.3291016,-0.1210938
3665,10.9375,60.6875,139.6875,-0.7387695,1.372559,-0.309082,0.1650391,-0.3354492,-0.1181641
3669,-3.75,106.25,138.25,-0.8706055,1.388184,-0.3168945,0.1547852,-0.3408203,-0.1142578
3673,-17.75,143.6875,135.5,-1.099121,1.306641,-0.3208008,0.1499023,-0.3442383,-0.1113281
3677,-23.8125,159,141.9375,-1.401367,1.217285,-0.3051758,0.1425781,-0.3505859,-0.1044922
3681,-28.9375,152.5,151.8125,-1.633789,1.053711,-0.324707,0.1333008,-0.3544922,-0.1005859
3685,-24.625,142.25,145.5,-1.761719,0.8867188,-0.3208008,0.1269531,-0.359375,-0.09765625
3689,-18.1875,124,142.4375,-2.757324,0.3310547,-0.128418,0.1152344,-0.3618164,-0.09375
3693,14.5,-87.3125,-44.75,-4.071289,0.2070313,0.3520508,0.1103516,-0.3666992,-0.09375
3697,0.25,-92.1875,-37.1875,-1.87793,1.356934,-0.1821289,0.1118164,-0.3666992,-0.09521484
3701,0.1875,-67.0625,-11.8125,-1.351074,0.7001953,-0.359375,0.1118164,-0.3632813,-0.09912109
3705,15.125,-39.875,-10,-1.277344,0.8710938,-0.2822266,0.112793,-0.3642578,-0.1005859
3709,12.625,-13.6875,-38,-1.381836,0.8789063,-0.2055664,0.112793,-0.3657227,-0.09912109
3713,-0.375,-3.9375,-83.5625,-1.641602,0.956543,-0.08984375,0.1176758,-0.3632813,-0.09667969
3717,-7.0625,-19.875,-123.4375,-1.769531,0.9453125,-0.07470703,0.1259766,-0.359375,-0.1005859
3722,-0.625,-57.9375,-147.875,-1.734375,0.9414063,-0.1435547,0.1342773,-0.3554688,-0.1035156
3726,13.0625,-92.1875,-158.5,-1.455566,1.026855,-0.2167969,0.1459961,-0.3491211,-0.1044922
3730,16.75,-90.1875,-162.3125,-1.191895,1.221191,-0.2436523,0.1567383,-0.3432617,-0.1088867
3734,7,-79.5625,-165.5625,-1.118652,1.298828,-0.2128906,0.1630859,-0.3354492,-0.1113281
3738,-0.5625,-73.5625,-171.5625,-1.145508,1.291016,-0.2055664,0.1748047,-0.3305664,-0.1142578
3742,-0.3125,-76.125,-177.0625,-1.184082,1.279297,-0.1899414,0.1879883,-0.3217773,-0.1181641
3746,1.5,-83.625,-180.9375,-1.187988,1.298828,-0.1708984,0.1962891,-0.3129883,-0.1210938
3750,3.1875,-89.0625,-183.625,-1.157227,1.279297,-0.1782227,0.2055664,-0.3032227,-0.1264648
3754,4.25,-99.8125,-181.4375,-1.211426,1.275391,-0.1743164,0.2163086,-0.2919922,-0.1318359
3758,5.375,-109.1875,-179.0625,-1.137695,1.225098,-0.2055664,0.2260742,-0.2817383,-0.1357422
3762,6.3125,-107.25,-179.1875,-1.075684,1.209473,-0.2016602,0.230957,-0.2695313,-0.1425781
3766,2.1875,-100.8125,-184.375,-1.037109,1.221191,-0.2089844,0.2392578,-0.2558594,-0.1508789
3770,-2.375,-90.1875,-190.5,-0.9594727,1.217285,-0.1669922,0.2436523,-0.2480469,-0.15625
3774,-7.875,-75.5625,-192.625,-0.8818359,1.228516,-0.1206055,0.253418,-0.2304688,-0.1630859
3778,-15.75,-56,-187.0625,-0.8896484,1.174316,-0.09375,0.2592773,-0.2158203,-0.1699219
3782,-15.5,-45.1875,-178.5,-0.9399414,1.057617,-0.05908203,0.2641602,-0.2045898,-0.1738281
3786,-10.625,-38.75,-174.6875,-0.9672852,1.019043,-0.01318359,0.269043,-0.1879883,-0.1782227
3790,-7.375,-37.1875,-172.5,-0.9633789,1.007324,0.02099609,0.2734375,-0.1733398,-0.1806641
3794,-5.625,-36.9375,-169.5625,-0.8974609,1.003418,0.03662109,0.2773438,-0.1630859,-0.1850586
3798,-10.5,-33.9375,-163,-0.8198242,0.9956055,0.03271484,0.2792969,-0.1455078,-0.1865234
3802,-16.0625,-24.6875,-156.125,-0.7426758,0.921875,0.02880859,0.2832031,-0.1308594,-0.1904297
3806,-21.0625,-11.3125,-153.9375,-0.699707,0.840332,0.01708984,0.2832031,-0.1196289,-0.1918945
3810,-28.75,5.8125,-157.4375,-0.6884766,0.6923828,0.02099609,0.2866211,-0.1044922,-0.1918945
3814,-26.125,14.75,-158.8125,-0.796875,0.5527344,0.05566406,0.2880859,-0.08837891,-0.1918945
3818,-14.875,3.1875,-156.875,-0.9052734,0.4672852,0.105957,0.2890625,-0.078125,-0.1918945
3822,-5.75,-19.375,-155.6875,-0.9052734,0.4516602,0.1171875,0.2900391,-0.06201172,-0.1904297
3826,0.6875,-38.3125,-151.5,-0.8125,0.4399414,0.09814453,0.2890625,-0.04589844,-0.1943359
3830,2.75,-45.1875,-149.625,-0.6611328,0.4321289,0.07519531,0.2856445,-0.03710938,-0.1987305
3834,1.875,-47.4375,-146.25,-0.5605469,0.3896484,0.05957031,0.2817383,-0.02197266,-0.199707
3838,3.625,-50.625,-141.25,-0.4287109,0.3232422,0.02880859,0.2783203,-0.01171875,-0.2055664
3842,5.3125,-53.375,-135.625,-0.262207,0.284668,0.005859375,0.2734375,-0.004394531,-0.2094727
3846,3.1875,-45.125,-123.5,-0.09521484,0.2885742,0.005859375,0.269043,0.01025391,-0.2109375
3851,-3.375,-29.4375,-109.0625,-0.006347656,0.2226563,0.009765625,0.2651367,0.01855469,-0.2148438
3855,-4.375,-15.375,-95.3125,0.008789063,0.07080078,0.01367188,0.2592773,0.02490234,-0.21875
3859,-1,-3.8125,-80.0625,0.03173828,-0.006347656,0.05566406,0.2568359,0.03369141,-0.21875
3863,-1.75,11.6875,-66.4375,-0.04101563,-0.01416016,0.09814453,0.2558594,0.03857422,-0.2163086
3867,-4.9375,18.3125,-54.625,-0.1499023,-0.06835938,0.1479492,0.2543945,0.04248047,-0.2148438
3871,-8.375,16.75,-43.875,-0.2543945,-0.1035156,0.1674805,0.2543945,0.04736328,-0.2148438
3875,-10.5,8.125,-35.3125,-0.3432617,-0.1499023,0.2211914,0.2543945,0.04980469,-0.2148438
3879,-12.1875,-6,-26.75,-0.3549805,-0.1967773,0.1787109,0.2543945,0.05517578,-0.2119141
3883,-11.9375,-12.75,-19.6875,-0.296875,-0.2124023,0.1289063,0.2509766,0.05615234,-0.2119141
3887,-12.5625,-10.25,-12,-0.3085938,-0.2241211,0.08251953,0.2509766,0.06005859,-0.2133789
3891,-10.9375,-8.8125,-2.375,-0.3354492,-0.3173828,0.05957031,0.2509766,0.06103516,-0.2148438
3895,-4.5,-7.4375,4.625,-0.3549805,-0.3793945,0.04443359,0.2475586,0.06103516,-0.2133789
3899,0.0625,-2.375,10,-0.3393555,-0.3481445,0.06347656,0.25,0.06005859,-0.2133789
3903,-2.5625,4.25,13.375,-0.3745117,-0.2822266,0.1132813,0.2509766,0.06103516,-0.2148438
3907,-6.75,11.375,16.625,-0.4287109,-0.2666016,0.140625,0.2509766,0.05859375,-0.2119141
3911,-8.5,7.375,22.3125,-0.4907227,-0.2939453,0.1367188,0.2519531,0.05615234,-0.2109375
3915,-6.0625,1.6875,31.125,-0.4868164,-0.3173828,0.09814453,0.253418,0.05615234,-0.2119141
3919,-3.9375,2.6875,35.5,-0.4443359,-0.2939453,0.08642578,0.253418,0.05371094,-0.2119141
3923,-6.4375,10,36.75,-0.4169922,-0.2241211,0.07910156,0.2543945,0.05126953,-0.2119141
3927,-10.5,16.9375,39.9375,-0.4443359,-0.2124023,0.09814453,0.2568359,0.04980469,-0.2094727
3931,-9.3125,16.125,47.125,-0.4482422,-0.2392578,0.05566406,0.2617188,0.04638672,-0.2080078
3935,-3.5625,16.4375,55.75,-0.4404297,-0.2202148,0.03662109,0.2602539,0.04150391,-0.2080078
3939,1.1875,14.3125,64.375,-0.4521484,-0.1928711,0.04443359,0.2626953,0.03857422,-0.2080078
3943,6.375,11.875,74.1875,-0.4287109,-0.1381836,0.06347656,0.2651367,0.03271484,-0.2055664
3947,7.5,15.8125,80.5,-0.4326172,-0.03369141,0.09814453,0.2675781,0.02490234,-0.2055664
3951,3.75,18.3125,84.6875,-0.4672852,0.03613281,0.1210938,0.2700195,0.02001953,-0.2026367
3955,2.8125,3.0625,95,-0.6069336,0.02050781,0.09423828,0.2734375,0.01269531,-0.2026367
3959,14.3125,-19.125,107.5,-0.5952148,-0.05273438,0.08642578,0.2758789,0.00390625,-0.2041016
3963,31.1875,-41.8125,117.9375,-0.4985352,0.004882813,0.06347656,0.2749023,-0.003417969,-0.2041016
3967,37.4375,-32.375,122.8125,-0.3085938,0.1835938,0.05566406,0.2773438,-0.01708984,-0.2109375
3971,26.5625,-11.5,117.3125,-0.3125,0.3120117,0.05957031,0.2758789,-0.02929688,-0.2133789
3975,19.3125,1.6875,112.875,-0.3666992,0.3662109,0.04785156,0.2773438,-0.03710938,-0.2109375
3980,21.1875,-0.5,119.0625,-0.4482422,0.3974609,0.04443359,0.2773438,-0.04931641,-0.2119141
3984,27.6875,-9.3125,132.9375,-0.4248047,0.4438477,0.005859375,0.2773438,-0.06201172,-0.2133789
3988,35.1875,-2.5,145.3125,-0.3320313,0.5410156,-0.01660156,0.2758789,-0.07324219,-0.2109375
3992,30.9375,21.625,152.375,-0.3242188,0.7275391,-0.04736328,0.2749023,-0.08691406,-0.2119141
3996,19.1875,43.8125,154.3125,-0.4404297,0.7705078,-0.06298828,0.2749023,-0.1030273,-0.2109375
4000,20.1875,47.6875,159.625,-0.6455078,0.7739258,-0.04736328,0.2773438,-0.1118164,-0.2055664
4004,27.625,44.4375,167.25,-0.6455078,0.8208008,-0.02832031,0.2783203,-0.1279297,-0.2011719
4008,29.375,54.4375,174.6875,-0.7036133,0.9414063,-0.001464844,0.2734375,-0.1455078,-0.1972656
4012,24.125,70.125,180.8125,-0.7617188,1.06543,0.03662109,0.2724609,-0.1567383,-0.1928711
4016,13.375,79.75,181.4375,-0.9555664,1.178223,0.09033203,0.2709961,-0.1743164,-0.1865234
4020,5.375,72.1875,180.5,-1.103027,1.162598,0.1367188,0.269043,-0.1904297,-0.1782227
4024,3.4375,55.375,177.875,-1.191895,1.182129,0.1826172,0.2641602,-0.2016602,-0.175293
4028,3.8125,38.375,175.3125,-1.157227,1.193848,0.1635742,0.2592773,-0.2167969,-0.1713867
4032,3.4375,34.9375,170.75,-1.07959,1.240234,0.1289063,0.2519531,-0.2304688,-0.168457
4036,0.75,40.9375,164,-1.103027,1.302734,0.05957031,0.2460938,-0.2416992,-0.1660156
4040,1.75,47.375,158.8125,-1.12207,1.263672,-0.02441406,0.2392578,-0.2529297,-0.1616211
4044,5.9375,46.0625,166.4375,-1.223145,1.275391,-0.09765625,0.230957,-0.2641602,-0.15625
4048,13.5,34.4375,181.5,-1.227051,1.135742,-0.1708984,0.2202148,-0.2729492,-0.15625
4052,32.75,35.8125,189.25,-1.161133,1.077148,-0.2285156,0.2119141,-0.2866211,-0.1538086
4056,39.3125,61.4375,179.9375,-1.095215,1.193848,-0.2285156,0.2011719,-0.2993164,-0.1469727
4060,17.375,98.8125,164.9375,-1.141602,1.306641,-0.2089844,0.1928711,-0.3081055,-0.144043
4064,-9.6875,129,148.125,-1.289063,1.158691,-0.2436523,0.1831055,-0.3168945,-0.1333008
4068,-14.125,145.5625,130.875,-1.463379,0.9799805,-0.2475586,0.1757813,-0.3242188,-0.1303711
4072,-12.875,144.3125,119.0625,-1.563965,0.9799805,-0.2324219,0.1723633,-0.328125,-0.1225586
4076,-16.1875,141.5,112.125,-1.54834,1.034668,-0.2167969,0.1689453,-0.3330078,-0.1166992
4080,-26.625,142.4375,112.125,-1.556152,1.06543,-0.2055664,0.1616211,-0.3369141,-0.112793
4084,-39.5,136.0625,118.875,-1.657227,1.077148,-0.1669922,0.1591797,-0.3408203,-0.1088867
4088,-52.1875,115.0625,124.1875,-1.723145,1.019043,-0.1435547,0.1523438,-0.3457031,-0.105957
4092,-51.0625,90.4375,117,-1.746094,0.7666016,-0.2089844,0.144043,-0.3491211,-0.1044922
4096,-26.5625,68.6875,103.9375,-2.017578,0.4165039,-0.2167969,0.1376953,-0.3520508,-0.1044922
4100,-3.6875,21.75,53.375,-2.494141,0.3232422,-0.109375,0.1308594,-0.3554688,-0.1035156
4104,5.4375,-35.375,-35.25,-2.017578,0.5839844,-0.08203125,0.1318359,-0.3569336,-0.105957
4109,-9.9375,-29.75,-20.4375,-1.385742,0.7895508,-0.3398438,0.1333008,-0.3554688,-0.1074219
4113,1.75,-20,-22.3125,-1.45166,0.5683594,-0.2939453,0.1318359,-0.3544922,-0.1088867
4117,14.5,-43.8125,-45.3125,-1.62207,0.6069336,-0.2592773,0.1342773,-0.3520508,-0.1098633
4121,25.5625,-64.625,-75.8125,-1.57959,0.7353516,-0.2285156,0.1367188,-0.3505859,-0.1088867
4125,26.0625,-70.8125,-103.375,-1.48291,0.890625,-0.2363281,0.1416016,-0.3491211,-0.1098633
4129,22.25,-74.0625,-119.5625,-1.455566,0.9838867,-0.2436523,0.1499023,-0.3432617,-0.1113281
4133,21.3125,-84.3125,-129.75,-1.45166,0.987793,-0.2553711,0.1567383,-0.3417969,-0.1098633
4137,22.1875,-97,-140.5,-1.405273,1.01123,-0.2900391,0.1640625,-0.3344727,-0.1142578
4141,25.125,-103.3125,-151.5,-1.300781,1.026855,-0.3129883,0.1748047,-0.328125,-0.1166992
4145,25.9375,-100.375,-161.625,-1.223145,1.077148,-0.309082,0.1796875,-0.3242188,-0.1181641
4149,26,-90.375,-173.1875,-1.168945,1.092773,-0.2822266,0.1914063,-0.3168945,-0.1235352
4153,29,-79.375,-185.5625,-1.125977,1.108398,-0.2592773,0.2021484,-0.3056641,-0.1279297
4157,30.0625,-67.75,-193.625,-1.099121,1.174316,-0.2089844,0.2104492,-0.2983398,-0.1279297
4161,26.4375,-55.4375,-196.3125,-1.087402,1.236328,-0.1323242,0.2211914,-0.2866211,-0.1318359
4165,17.75,-47.875,-193.8125,-1.133789,1.248047,-0.08203125,0.234375,-0.2729492,-0.1347656
4169,14.9375,-51.875,-187,-1.230957,1.158691,-0.05126953,0.2402344,-0.2641602,-0.1347656
4173,18.5625,-63.75,-180.9375,-1.285156,1.12793,-0.03613281,0.25,-0.2495117,-0.137207
4177,19.75,-69.1875,-179.9375,-1.23877,1.143066,-0.02441406,0.2583008,-0.2358398,-0.1425781
4181,14.375,-64.125,-182.8125,-1.165039,1.131836,-0.02832031,0.2626953,-0.2280273,-0.1469727
4185,9.0625,-53.4375,-186.375,-1.145508,1.081055,-0.001464844,0.269043,-0.2104492,-0.1508789
4189,5.25,-43.5625,-186.875,-1.145508,1.077148,-0.001464844,0.2758789,-0.1943359,-0.15625
4193,-0.1875,-41.125,-185.625,-1.168945,1.057617,0.001953125,0.2807617,-0.1845703,-0.15625
4197,-2.875,-47.8125,-185.125,-1.161133,0.9760742,-0.009277344,0.2856445,-0.1669922,-0.1606445
4201,-0.9375,-59.8125,-183.6875,-1.106934,0.90625,-0.04394531,0.2900391,-0.1508789,-0.1660156
4205,3.625,-66.375,-184.75,-0.9868164,0.9023438,-0.06689453,0.2900391,-0.1367188,-0.1674805
4209,0.5625,-68.875,-183.875,-0.8706055,0.8364258,-0.109375,0.2924805,-0.1206055,-0.175293
4213,3.875,-70.625,-181.875,-0.7695313,0.7509766,-0.08984375,0.2915039,-0.1030273,-0.1806641
4217,8.25,-72.0625,-177.9375,-0.6416016,0.6923828,-0.1015625,0.2900391,-0.09082031,-0.1850586
4221,10.1875,-66.9375,-172.5,-0.5175781,0.6381836,-0.08984375,0.2890625,-0.07324219,-0.1928711
4225,8.875,-55.8125,-162.1875,-0.4091797,0.5839844,-0.08203125,0.2866211,-0.05957031,-0.1972656
4229,5.875,-41.75,-150.5,-0.3588867,0.5175781,-0.05517578,0.2841797,-0.04931641,-0.2026367
4233,4.4375,-34.4375,-141.9375,-0.3666992,0.4399414,-0.04394531,0.2817383,-0.03808594,-0.2041016
4238,4,-31.5625,-136,-0.3393555,0.3818359,0.001953125,0.2792969,-0.02587891,-0.2094727
4242,2.5,-30.875,-131.6875,-0.3242188,0.3466797,0.02490234,0.2749023,-0.015625,-0.2094727
4246,3,-32.6875,-127.0625,-0.2734375,0.2807617,0.04052734,0.2724609,-0.004394531,-0.2133789
4250,8.8125,-35.125,-117.5,-0.1962891,0.253418,0.07910156,0.2675781,0.006347656,-0.2163086
4254,10.5625,-40,-93.4375,-0.1381836,0.237793,0.1132813,0.2641602,0.01123047,-0.2163086
4258,8.875,-41.5625,-64.5,-0.08398438,0.1835938,0.1171875,0.2617188,0.01757813,-0.2202148
4262,3.75,-31.4375,-40.5,-0.02978516,0.1137695,0.1328125,0.2543945,0.02392578,-0.2216797
4266,-9.5,-9.1875,-30.9375,-0.05273438,0.03222656,0.1557617,0.2558594,0.02490234,-0.2246094
4270,-21.875,18.25,-27.9375,-0.1884766,-0.08398438,0.1479492,0.2543945,0.02734375,-0.2246094
4274,-23.25,27.375,-28.625,-0.4130859,-0.2392578,0.1518555,0.2519531,0.03271484,-0.2216797
4278,-13.5,22.5,-26.3125,-0.5253906,-0.2900391,0.1713867,0.2543945,0.03515625,-0.2216797
4282,-8.375,13.1875,-21.6875,-0.5605469,-0.2626953,0.159668,0.2543945,0.03613281,-0.2202148
4286,-6.4375,9.75,-17.125,-0.4790039,-0.2744141,0.144043,0.2558594,0.04003906,-0.2163086
4290,-8.6875,17.5,-13.1875,-0.4555664,-0.2666016,0.1674805,0.2583008,0.04150391,-0.2163086
4294,-13.3125,23.6875,-9.9375,-0.5332031,-0.2470703,0.1904297,0.2568359,0.04003906,-0.2133789
4298,-15.75,19.5625,-4,-0.6069336,-0.2744141,0.1904297,0.2568359,0.04492188,-0.2148438
4302,-14.5,10.875,2.625,-0.6533203,-0.3134766,0.1748047,0.2583008,0.04394531,-0.2119141
4306,-9.3125,1.0625,6.625,-0.6572266,-0.340332,0.1748047,0.2583008,0.04492188,-0.2094727
4310,-5.0625,-6.1875,10.4375,-0.6303711,-0.3056641,0.1713867,0.2583008,0.04394531,-0.2109375
4314,-4.875,-7.875,13.4375,-0.6108398,-0.2666016,0.159668,0.2592773,0.04394531,-0.2109375
4318,-4,-8.375,19.25,-0.5952148,-0.3017578,0.144043,0.2592773,0.04394531,-0.2109375
4322,-2.625,-6.9375,24.9375,-0.5722656,-0.3017578,0.125,0.2592773,0.04248047,-0.2119141
4326,-2.125,3.0625,30.75,-0.5253906,-0.3017578,0.1328125,0.2583008,0.04248047,-0.2133789
4330,-6,21.1875,33.0625,-0.5410156,-0.2587891,0.1518555,0.2602539,0.03759766,-0.2119141
4334,-14.0625,39.5625,31.375,-0.6069336,-0.2431641,0.1904297,0.2617188,0.03515625,-0.2094727
4338,-19.125,46.6875,26.5,-0.7426758,-0.2978516,0.1865234,0.2651367,0.03515625,-0.2055664
4342,-15.5,38.6875,23.625,-0.8237305,-0.2978516,0.2172852,0.2675781,0.03369141,-0.2026367
4346,-13.4375,21.9375,24.875,-0.8354492,-0.2241211,0.2519531,0.269043,0.03271484,-0.1987305
4350,-13.375,0.8125,31.6875,-0.8046875,-0.1967773,0.2480469,0.2709961,0.03271484,-0.1958008
4354,-11,-20.5,40.3125,-0.7075195,-0.2163086,0.1748047,0.2734375,0.02880859,-0.1987305
4358,-3.625,-26.4375,47.5625,-0.5874023,-0.1616211,0.1328125,0.2724609,0.02490234,-0.1987305
4362,-3.125,-22.3125,57.6875,-0.4907227,-0.09179688,0.1367188,0.2734375,0.02001953,-0.1987305
4367,-6,-14,68.0625,-0.4711914,-0.06054688,0.1328125,0.2734375,0.01757813,-0.2041016
4371,-5.875,-9.125,75.75,-0.4829102,-0.08789063,0.1020508,0.2749023,0.01025391,-0.2041016
4375,-2.5625,-4.375,79.875,-0.4868164,-0.02197266,0.1098633,0.2749023,0.006347656,-0.2026367
4379,-3.5,3.1875,82.3125,-0.4633789,0.02441406,0.125,0.2758789,-0.0004882813,-0.2055664
4383,-6.9375,11.3125,83.875,-0.4790039,0.07861328,0.125,0.2783203,-0.006835938,-0.2041016
4387,-11,17.75,89,-0.5214844,0.1137695,0.1367188,0.2773438,-0.01464844,-0.2026367
4391,-12.375,17.3125,94.3125,-0.6069336,0.140625,0.1132813,0.2807617,-0.02197266,-0.2011719
4395,-8.0625,6.3125,101.875,-0.6264648,0.09814453,0.07910156,0.2817383,-0.02929688,-0.2011719
4399,1.6875,-2,106.1875,-0.6030273,0.1601563,0.05566406,0.2841797,-0.03564453,-0.1987305
4403,3.625,-3.6875,112.9375,-0.5488281,0.2416992,0.05175781,0.2832031,-0.04589844,-0.1987305
4407,1.0625,3.6875,120.875,-0.5371094,0.3349609,0.03662109,0.2856445,-0.05712891,-0.2011719
4411,-5.125,14.8125,123.3125,-0.5834961,0.3701172,0.001953125,0.2856445,-0.06298828,-0.199707
4415,-3.875,15.0625,124.625,-0.6806641,0.4013672,-0.009277344,0.2856445,-0.07568359,-0.199707
4419,0.25,4.5,128.125,-0.7192383,0.4750977,-0.005371094,0.2841797,-0.08691406,-0.1972656
4423,5.4375,-8.75,136.3125,-0.6767578,0.5019531,-0.03222656,0.2841797,-0.09570313,-0.1972656
4427,12.125,-8.8125,145.9375,-0.5722656,0.5488281,-0.06298828,0.2807617,-0.1108398,-0.2011719
4431,10.75,13.5625,155.875,-0.5214844,0.6811523,-0.07080078,0.2807617,-0.1245117,-0.1972656
4435,1.8125,37.0625,159.0625,-0.6455078,0.7236328,-0.07080078,0.2773438,-0.1333008,-0.1958008
4439,-2.0625,42,157.1875,-0.7890625,0.6962891,-0.08203125,0.2749023,-0.1479492,-0.1928711
4443,3.8125,33.25,156.5625,-0.8432617,0.6694336,-0.1015625,0.2749023,-0.1630859,-0.1904297
4447,15,29,162.3125,-0.78125,0.7158203,-0.112793,0.2700195,-0.1704102,-0.1875
4451,18.6875,46.875,168.6875,-0.7734375,0.8520508,-0.1245117,0.2666016,-0.1855469,-0.1850586
4455,14.5,65.25,167.3125,-0.8935547,0.9414063,-0.09765625,0.2617188,-0.203125,-0.1796875
4459,11.4375,67.5,163.0625,-1.048828,0.9760742,-0.05126953,0.2583008,-0.2119141,-0.175293
4463,13.625,54.6875,159.4375,-1.099121,0.9799805,-0.04003906,0.253418,-0.2270508,-0.1699219
4467,21.875,41.6875,158.375,-1.017578,1.007324,-0.04394531,0.2460938,-0.2382813,-0.1630859
4471,27.6875,40.25,161.5625,-0.9633789,1.081055,-0.03613281,0.2412109,-0.2480469,-0.1577148
4475,31.9375,41.1875,166.6875,-0.9365234,1.174316,-0.05908203,0.2319336,-0.2607422,-0.15625
4479,32.1875,51.0625,167.3125,-0.9287109,1.255859,-0.05517578,0.2246094,-0.2744141,-0.1484375
4483,26.5625,63,162.4375,-0.9438477,1.271484,-0.09375,0.21875,-0.2832031,-0.1469727
4487,17.125,70.6875,162.375,-1.048828,1.263672,-0.06298828,0.2094727,-0.2944336,-0.1416016
4491,12.4375,66.0625,158.8125,-1.141602,1.232422,-0.07470703,0.1987305,-0.3056641,-0.137207
4496,13.125,63.875,156.9375,-1.149414,1.213379,-0.04394531,0.1904297,-0.3129883,-0.1318359
4500,8.1875,64.375,155.625,-1.172852,1.251953,-0.02050781,0.1821289,-0.3217773,-0.1279297
4504,-6.9375,71.3125,150.3125,-1.184082,1.259766,-0.001464844,0.1713867,-0.3305664,-0.1235352
4508,-24,82.1875,140.8125,-1.227051,1.225098,-0.02832031,0.1630859,-0.3320313,-0.1210938
4512,-36.0625,91.375,131.125,-1.32373,1.182129,-0.02832031,0.1567383,-0.3408203,-0.1210938
4516,-49.1875,95.375,119.9375,-1.416992,1.178223,-0.01318359,0.1474609,-0.3442383,-0.1181641
4520,-63,94.3125,107.75,-1.529297,1.12793,-0.03613281,0.1416016,-0.3457031,-0.1166992
4524,-67.9375,82.375,95.8125,-1.649414,0.9956055,-0.03613281,0.1357422,-0.3466797,-0.1196289
4528,-67.4375,55.6875,82.25,-1.738281,0.8710938,-0.03613281,0.128418,-0.3505859,-0.1225586
4532,-60.75,22.25,70.6875,-1.742188,0.6694336,-0.09375,0.1269531,-0.3505859,-0.1235352
4536,-42.5625,-6.8125,53.125,-1.727051,0.4750977,-0.1166992,0.1201172,-0.3530273,-0.1318359
4540,-29.5,-25,6.6875,-1.738281,0.3818359,-0.1591797,0.1176758,-0.3520508,-0.1347656
4544,-21.5625,-25.4375,-24.5,-1.556152,0.4672852,-0.1513672,0.1176758,-0.3520508,-0.137207
4548,-9.375,-35.125,-41.5625,-1.563965,0.4282227,-0.1513672,0.1186523,-0.3491211,-0.1386719
4552,11.3125,-50.4375,-57.875,-1.567871,0.4946289,-0.128418,0.1225586,-0.3491211,-0.1425781
4556,22.25,-59,-78.5625,-1.463379,0.6499023,-0.08984375,0.125,-0.3481445,-0.1401367
4560,24.4375,-55.875,-101.75,-1.366211,0.8129883,-0.06689453,0.1293945,-0.3442383,-0.1416016
4564,18.0625,-44.5625,-120.125,-1.358887,0.9492188,-0.04736328,0.1357422,-0.3408203,-0.1425781
4568,13.25,-42.9375,-134.9375,-1.405273,0.9453125,-0.07080078,0.1416016,-0.3369141,-0.144043
4572,18.875,-48.5625,-146.5625,-1.397461,0.956543,-0.1015625,0.1533203,-0.3291016,-0.144043
4576,25.8125,-56.75,-153.9375,-1.381836,1.007324,-0.1401367,0.1616211,-0.3242188,-0.1425781
4580,32.25,-63.9375,-160.5625,-1.32373,1.049805,-0.1362305,0.1689453,-0.3208008,-0.1425781
4584,36.125,-66.875,-168.75,-1.265625,1.116211,-0.1362305,0.1806641,-0.3144531,-0.1455078
4588,36.9375,-67.5625,-178.75,-1.219238,1.158691,-0.1166992,0.1904297,-0.3056641,-0.1469727
4592,37.25,-66.9375,-186.625,-1.149414,1.217285,-0.08984375,0.1987305,-0.3007813,-0.1455078
4596,33.25,-63.4375,-190.5,-1.083496,1.275391,-0.05517578,0.2070313,-0.2880859,-0.1484375
4600,26.0625,-59.75,-188.8125,-1.029297,1.263672,-0.03222656,0.2202148,-0.2783203,-0.1508789
4604,20.4375,-54.5625,-184.5625,-0.9711914,1.228516,-0.04394531,0.2270508,-0.2680664,-0.1538086
4608,15,-46.375,-180.3125,-0.9248047,1.213379,-0.03613281,0.237793,-0.2568359,-0.15625
4612,7.6875,-37.75,-176.375,-0.9130859,1.146973,-0.03613281,0.2451172,-0.2456055,-0.1577148
4616,6.375,-33.1875,-173.125,-0.9169922,1.061523,-0.03222656,0.253418,-0.2358398,-0.1606445
4620,7.8125,-35,-168.5625,-0.9208984,1.022949,-0.001464844,0.2602539,-0.2207031,-0.1630859
4625,8.125,-37.125,-162,-0.8935547,0.9838867,0.01367188,0.2666016,-0.2070313,-0.1645508
4629,6.25,-36.375,-153.3125,-0.8510742,0.9453125,0.02490234,0.2700195,-0.1967773,-0.168457
4633,3.375,-34.3125,-147.125,-0.8666992,0.8984375,0.03271484,0.2758789,-0.1855469,-0.1699219
4637,-0.125,-33.5,-145.6875,-0.8666992,0.8481445,0.05175781,0.2783203,-0.1733398,-0.1738281
4641,-4.1875,-33.3125,-144.75,-0.8549805,0.7856445,0.08251953,0.2792969,-0.1630859,-0.1728516
4645,-5.4375,-35.4375,-143,-0.8432617,0.7197266,0.08642578,0.2832031,-0.1494141,-0.1796875
4649,-5.6875,-36.8125,-141.375,-0.796875,0.6733398,0.08642578,0.2856445,-0.1367188,-0.1796875
4653,-7.5,-32.625,-138.9375,-0.7426758,0.6616211,0.07128906,0.2866211,-0.1269531,-0.1821289
4657,-11.5,-25.6875,-134.875,-0.715332,0.6108398,0.09423828,0.2880859,-0.1132813,-0.1889648
4661,-14.6875,-20.1875,-130.9375,-0.6806641,0.5253906,0.09423828,0.2880859,-0.1005859,-0.1889648
4665,-15.6875,-14.125,-126.4375,-0.6533203,0.4633789,0.105957,0.2890625,-0.09082031,-0.1889648
4669,-18.5625,-7.875,-122.5,-0.6342773,0.4321289,0.1210938,0.2915039,-0.078125,-0.1928711
4673,-20.9375,-3.625,-119.125,-0.6264648,0.3857422,0.1367188,0.2890625,-0.06445313,-0.1928711
4677,-23.25,-1.875,-113.1875,-0.6264648,0.3388672,0.1518555,0.2890625,-0.05810547,-0.1918945
4681,-25.625,-5.0625,-105.6875,-0.6416016,0.284668,0.1367188,0.2900391,-0.04589844,-0.1918945
4685,-25.5625,-9.375,-94.5,-0.6147461,0.2109375,0.125,0.2880859,-0.03466797,-0.1918945
4689,-22.9375,-13.8125,-86.875,-0.6147461,0.1523438,0.1098633,0.2866211,-0.02832031,-0.1943359
4693,-19.375,-19.75,-78.5625,-0.6186523,0.09033203,0.1020508,0.2856445,-0.01806641,-0.1958008
4697,-15.75,-24.9375,-71.0625,-0.5952148,0.04736328,0.105957,0.2817383,-0.01074219,-0.1958008
4701,-14.125,-27,-65.0625,-0.5756836,0.04736328,0.09033203,0.2792969,-0.005859375,-0.1987305
4705,-15.0625,-27,-60.75,-0.5644531,0.02441406,0.1020508,0.2783203,0,-0.2011719
4709,-17.3125,-24.1875,-57.0625,-0.5644531,0.008789063,0.1098633,0.2758789,0.006347656,-0.2026367
4713,-19.5,-23.8125,-53.375,-0.5795898,-0.04541016,0.09423828,0.2749023,0.01123047,-0.2041016
4717,-17.3125,-22.75,-50.25,-0.5683594,-0.09960938,0.105957,0.2700195,0.01513672,-0.2041016
4721,-14.1875,-17,-47.375,-0.5371094,-0.1035156,0.105957,0.2700195,0.02148438,-0.206543
4725,-15.125,-10.6875,-43.625,-0.5410156,-0.08789063,0.1289063,0.269043,0.02636719,-0.2055664
4729,-17.3125,-8.1875,-36.4375,-0.5795898,-0.1269531,0.1367188,0.2675781,0.02880859,-0.2080078
4733,-14.75,-15.125,-27.9375,-0.6455078,-0.1928711,0.1210938,0.2651367,0.03271484,-0.206543
4737,-7.875,-23.4375,-18.5625,-0.6376953,-0.2163086,0.1098633,0.2651367,0.03515625,-0.2094727
4741,-7,-22.1875,-15.9375,-0.5756836,-0.1889648,0.09033203,0.2641602,0.03759766,-0.2109375
4745,-7.9375,-13.25,-15.9375,-0.5488281,-0.2124023,0.08642578,0.2592773,0.03759766,-0.2119141
4749,-7.375,-5.0625,-15.6875,-0.5605469,-0.2202148,0.09033203,0.2592773,0.04150391,-0.2133789
4754,-5.5625,-3.3125,-13.9375,-0.5913086,-0.2275391,0.1098633,0.2592773,0.04394531,-0.2109375
4758,-3.3125,-6.125,-9.9375,-0.5644531,-0.2353516,0.1328125,0.2592773,0.04248047,-0.2109375
4762,-3.6875,-5.1875,-3.375,-0.5253906,-0.2124023,0.125,0.2558594,0.04492188,-0.2119141
4766,-5.3125,-0.125,2.375,-0.5214844,-0.2275391,0.1171875,0.2583008,0.04492188,-0.2148438
4770,-5.9375,1.9375,6.6875,-0.5527344,-0.2470703,0.09814453,0.2583008,0.04394531,-0.2133789
4774,-3.3125,2,9.375,-0.5566406,-0.2666016,0.09423828,0.2568359,0.04492188,-0.2119141
4778,-1.9375,1.8125,9.4375,-0.5253906,-0.2548828,0.09423828,0.2592773,0.04394531,-0.2119141
4782,-0.625,1.4375,13.75,-0.5063477,-0.2275391,0.07519531,0.2583008,0.04150391,-0.2109375
4786,2.875,1.5625,19.5625,-0.4907227,-0.2353516,0.07519531,0.2592773,0.04150391,-0.2109375
4790,6,0.8125,23.9375,-0.4443359,-0.2275391,0.05957031,0.2617188,0.04003906,-0.2109375
4794,9.0625,4.25,26.75,-0.4130859,-0.1577148,0.07128906,0.2592773,0.03857422,-0.2133789
4798,9.9375,6.6875,30.4375,-0.3935547,-0.1113281,0.08642578,0.2602539,0.03613281,-0.2109375
4802,11.875,4.25,35.75,-0.3706055,-0.07617188,0.1210938,0.2626953,0.03027344,-0.2109375
4806,12.6875,-3.1875,42.375,-0.362793,-0.01806641,0.1367188,0.2641602,0.02734375,-0.2109375
4810,13.375,-16.375,50.125,-0.347168,0.04003906,0.1328125,0.2641602,0.02636719,-0.2119141
4814,15.8125,-33.8125,60.625,-0.328125,0.07470703,0.09814453,0.2641602,0.02001953,-0.2163086
4818,21,-52,70.75,-0.28125,0.1254883,0.07128906,0.2626953,0.01269531,-0.21875
4822,27.25,-62.0625,83.4375,-0.215332,0.1445313,-0.01318359,0.2626953,0.007324219,-0.2216797
4826,33.25,-54.5625,95.4375,-0.1342773,0.2226563,-0.05908203,0.2626953,-0.003417969,-0.2270508
4830,31.6875,-25.75,99.1875,-0.09912109,0.3081055,-0.07080078,0.2592773,-0.01171875,-0.230957
4834,23.125,9.0625,94.375,-0.1806641,0.4013672,-0.04736328,0.2592773,-0.01953125,-0.2338867
4838,16.1875,32.6875,91.75,-0.3242188,0.4477539,-0.02050781,0.2617188,-0.02929688,-0.2324219
4842,16.875,41.875,100.8125,-0.4907227,0.4829102,0.05957031,0.2651367,-0.03955078,-0.2285156
4846,19.9375,44.25,110.5,-0.5332031,0.5253906,0.09423828,0.2675781,-0.04443359,-0.2246094
4850,24.1875,48.375,123,-0.5527344,0.6108398,0.105957,0.2709961,-0.05712891,-0.2216797
4854,24.5625,58.5625,139.125,-0.6108398,0.7470703,0.1289063,0.2709961,-0.06933594,-0.2177734
4858,21.75,62.5625,158.125,-0.7695313,0.824707,0.1328125,0.2758789,-0.07958984,-0.2119141
4862,16.9375,58.125,174.5,-0.9365234,0.8984375,0.09423828,0.2773438,-0.09716797,-0.206543
4866,20.0625,43.9375,179.1875,-1.017578,0.8364258,0.07519531,0.2783203,-0.1118164,-0.2026367
4870,29.1875,38.3125,179.8125,-0.9516602,0.8481445,0.07519531,0.2773438,-0.1254883,-0.2026367
4874,31.5625,53.75,177.5625,-0.847168,0.956543,0.06738281,0.2758789,-0.1445313,-0.1943359
4878,23.1875,80.375,177.625,-0.9208984,1.108398,0.08251953,0.2758789,-0.1630859,-0.1904297
4883,7.0625,95,180.6875,-1.048828,1.193848,0.05957031,0.2709961,-0.171875,-0.1835938
4887,-5.875,95.625,186.3125,-1.223145,1.189941,0.04052734,0.2709961,-0.1894531,-0.175293
4891,-13.5625,83.5,189.0625,-1.374023,1.158691,-0.01318359,0.2641602,-0.203125,-0.1699219
4895,-12.9375,64.75,184.875,-1.401367,1.120117,-0.06689453,0.2602539,-0.2143555,-0.1630859
4899,-2.6875,47.9375,183.75,-1.366211,1.069336,-0.109375,0.2543945,-0.2270508,-0.1591797
4903,8.75,39.0625,187.375,-1.315918,1.081055,-0.1323242,0.2436523,-0.2431641,-0.15625
4907,16.25,29.25,190.375,-1.347168,1.053711,-0.1591797,0.2392578,-0.2529297,-0.1538086
4911,19.25,23.25,185.4375,-1.335449,1.088867,-0.1938477,0.2285156,-0.2695313,-0.1494141
4915,16.4375,26.9375,177.0625,-1.300781,1.06543,-0.2089844,0.215332,-0.2807617,-0.1484375
4919,15.125,38.375,168.125,-1.300781,1.022949,-0.2324219,0.2104492,-0.2880859,-0.1469727
4923,14.3125,52.0625,161.8125,-1.331543,1.081055,-0.2128906,0.1972656,-0.2993164,-0.1425781
4927,2.9375,80.0625,157.875,-1.366211,1.124023,-0.1977539,0.1889648,-0.3081055,-0.137207
4931,-21.3125,115.875,148.875,-1.513672,1.100586,-0.1708984,0.1831055,-0.3168945,-0.1347656
4935,-44.25,131.9375,137.0625,-1.839355,0.90625,-0.1591797,0.1757813,-0.3217773,-0.1303711
4939,-47.4375,120.375,129.25,-2.094727,0.6694336,-0.112793,0.1699219,-0.3266602,-0.1279297
4943,-33,87.8125,124.8125,-2.234375,0.5136719,-0.07080078,0.1640625,-0.3305664,-0.1264648
4947,-19.0625,55.75,111.5625,-2.242188,0.3779297,-0.04003906,0.1557617,-0.3354492,-0.125
4951,24.625,-30,97.75,-3.524902,-0.1772461,0.2983398,0.1484375,-0.3393555,-0.1235352
4955,54.4375,-149.4375,-9.1875,-2.536621,0.171875,0.1132813,0.1425781,-0.3442383,-0.1235352
4959,33.5625,-91.5625,-12.625,-1.227051,0.5527344,0.04443359,0.1391602,-0.3442383,-0.125
4963,-0.9375,-15.6875,-29.5,-1.211426,0.5527344,0.01367188,0.1376953,-0.3432617,-0.1264648
4967,-5.0625,6.75,-59.25,-1.649414,0.4165039,0.1289063,0.1367188,-0.3432617,-0.1235352
4971,11,-13,-81.625,-1.742188,0.5722656,0.2558594,0.1459961,-0.3408203,-0.125
4975,15.6875,-28.125,-99.25,-1.796387,0.7548828,0.2709961,0.1523438,-0.3369141,-0.1264648
4979,14.4375,-50.8125,-118.9375,-1.819824,0.8325195,0.2675781,0.1567383,-0.3354492,-0.1264648
4983,17.6875,-73.125,-143,-1.649414,0.8945313,0.1479492,0.1665039,-0.3266602,-0.1279297
4987,15.4375,-74.6875,-162.25,-1.413086,1.030762,0.05957031,0.1757813,-0.3217773,-0.1303711
4991,1.75,-52.9375,-176.8125,-1.223145,1.150879,-0.02441406,0.184082,-0.3154297,-0.1318359
4995,-12.0625,-24.5,-183.1875,-1.215332,1.124023,-0.05517578,0.1972656,-0.3066406,-0.1357422
4999,-14.0625,-18.625,-184.625,-1.347168,1.049805,-0.05517578,0.2104492,-0.2929688,-0.137207
5003,-3.625,-32.875,-181.25,-1.393555,1.026855,-0.04736328,0.2177734,-0.2856445,-0.1386719
5007,1.75,-41.6875,-178,-1.319824,1.100586,-0.07861328,0.2294922,-0.2729492,-0.144043
5012,-5,-42.0625,-177.8125,-1.285156,1.12793,-0.1015625,0.2392578,-0.2607422,-0.144043
5016,-10.3125,-41.25,-180.8125,-1.285156,1.038574,-0.1054688,0.2451172,-0.2495117,-0.1484375
5020,-7.75,-45.5,-183.3125,-1.277344,0.987793,-0.1054688,0.2543945,-0.2358398,-0.1508789
5024,-7.875,-46.5,-184.3125,-1.246094,0.9916992,-0.112793,0.2626953,-0.2192383,-0.1547852
5028,-7.6875,-46.6875,-184.9375,-1.23877,0.956543,-0.1054688,0.2675781,-0.2094727,-0.1577148
5032,-6.5625,-46.4375,-187.75,-1.219238,0.9453125,-0.1166992,0.2724609,-0.1933594,-0.1616211
5036,-5.8125,-44.3125,-191.5625,-1.184082,0.9414063,-0.0859375,0.2783203,-0.1733398,-0.1660156
5040,-3.9375,-45.625,-192.4375,-1.137695,0.9023438,-0.07080078,0.2817383,-0.1630859,-0.1674805
5044,-3,-48,-188.6875,-1.063965,0.9023438,-0.0859375,0.2866211,-0.1455078,-0.1738281
5048,-2,-45.875,-180.75,-1.005859,0.8671875,-0.07470703,0.2890625,-0.1269531,-0.1796875
5052,-3.8125,-40.125,-174.125,-0.9365234,0.8286133,-0.07470703,0.2900391,-0.1166992,-0.1806641
5056,-8.4375,-29.1875,-172.625,-0.8896484,0.793457,-0.05908203,0.2900391,-0.09960938,-0.1865234
5060,-13.6875,-21.25,-170.25,-0.8935547,0.6845703,-0.05126953,0.2915039,-0.08300781,-0.1875
5064,-10.1875,-21.9375,-165.375,-0.9208984,0.5605469,-0.02050781,0.2900391,-0.07177734,-0.1875
5068,-0.6875,-29.5,-158.0625,-0.9013672,0.4868164,-0.01660156,0.2900391,-0.0546875,-0.1904297
5072,5.5625,-29.5,-152.5,-0.8164063,0.4907227,-0.009277344,0.2880859,-0.04052734,-0.1943359
5076,2.6875,-21.875,-148,-0.7426758,0.4711914,0.009765625,0.2856445,-0.02929688,-0.1943359
5080,-3.875,-8.5625,-143.4375,-0.7075195,0.4321289,0.01708984,0.2841797,-0.015625,-0.1972656
5084,-10.6875,2.625,-138.625,-0.7231445,0.3349609,0.02490234,0.2807617,-0.004394531,-0.1987305
5088,-11.8125,1.8125,-134.125,-0.7578125,0.2109375,0.02880859,0.2783203,0.004882813,-0.1987305
5092,-1.75,-10.75,-129.3125,-0.765625,0.1254883,0.04052734,0.2773438,0.01757813,-0.1972656
5096,10.8125,-27.0625,-125.6875,-0.6533203,0.1293945,0.05957031,0.2709961,0.02880859,-0.1987305
5100,16.375,-39.125,-121.8125,-0.5175781,0.1679688,0.105957,0.269043,0.03759766,-0.2011719
5104,18.1875,-48.375,-112.5,-0.3862305,0.21875,0.140625,0.2626953,0.04492188,-0.2041016
5108,14.625,-55.0625,-96.875,-0.28125,0.2338867,0.09814453,0.2568359,0.05371094,-0.2080078
5112,9.125,-51.8125,-80.75,-0.1572266,0.140625,0.03662109,0.253418,0.05859375,-0.2119141
5116,9.5,-37.5625,-71.6875,-0.06445313,0.04003906,0.009765625,0.2475586,0.06494141,-0.2163086
5120,6.4375,-17.4375,-68.8125,-0.04492188,0.004882813,0.04052734,0.2436523,0.06738281,-0.21875
5124,0.625,3.0625,-60.4375,-0.04882813,-0.04882813,0.07519531,0.2412109,0.07275391,-0.2177734
5128,-4.25,19.5,-47,-0.1611328,-0.1074219,0.1171875,0.2392578,0.07861328,-0.2177734
5132,-8.6875,27.375,-34.3125,-0.28125,-0.1616211,0.1479492,0.2402344,0.08105469,-0.2163086
5136,-10.8125,26.1875,-27,-0.3901367,-0.2626953,0.159668,0.2402344,0.08251953,-0.2133789
5141,-7.625,19.0625,-23.75,-0.4443359,-0.3208008,0.1635742,0.2402344,0.08642578,-0.2109375
5145,-7.625,14.625,-20.25,-0.4248047,-0.324707,0.1479492,0.2392578,0.08886719,-0.2109375
5149,-9.5,16.875,-17.125,-0.4013672,-0.340332,0.140625,0.237793,0.08740234,-0.2119141
5153,-10.0625,19.25,-13.6875,-0.4287109,-0.3911133,0.1020508,0.2392578,0.09130859,-0.206543
5157,-5.9375,16.8125,-11,-0.4594727,-0.3793945,0.125,0.2392578,0.09130859,-0.2080078
5161,-3.5625,11.875,-4.9375,-0.4287109,-0.3325195,0.1479492,0.2392578,0.09228516,-0.2041016
5165,-3.5,7.8125,3.5,-0.4013672,-0.3056641,0.144043,0.2402344,0.09375,-0.2041016
5169,-2.875,4.6875,10.6875,-0.3588867,-0.355957,0.1132813,0.2426758,0.09130859,-0.2026367
5173,1.0625,5.4375,16.625,-0.328125,-0.3208008,0.1020508,0.2402344,0.09375,-0.2026367
5177,0.5625,8.0625,23.9375,-0.296875,-0.2666016,0.1132813,0.2426758,0.09228516,-0.2041016
5181,-0.0625,11.375,31.4375,-0.28125,-0.2314453,0.1367188,0.2451172,0.08984375,-0.2011719
5185,-1,12.0625,39.375,-0.246582,-0.1889648,0.1557617,0.2475586,0.08886719,-0.199707
5189,-3.0625,10.4375,48.25,-0.246582,-0.09179688,0.140625,0.2485352,0.08398438,-0.199707
5193,-7.1875,6.1875,59.6875,-0.2270508,-0.08789063,0.105957,0.2509766,0.08105469,-0.1972656
5197,-9.125,5.6875,68.4375,-0.2231445,-0.07617188,0.07519531,0.253418,0.07617188,-0.199707
5201,-7.5625,3.8125,76.1875,-0.2773438,-0.06445313,0.07128906,0.2558594,0.07275391,-0.199707
5205,-4.0625,0.875,83.875,-0.2734375,-0.03369141,0.06738281,0.2617188,0.06640625,-0.199707
5209,-0.3125,2.6875,87.25,-0.2270508,0.01660156,0.04443359,0.2617188,0.05761719,-0.1987305
5213,3.375,0.8125,93.375,-0.2543945,0.1367188,0.09033203,0.2641602,0.05126953,-0.1987305
5217,0.125,3.9375,104.6875,-0.2080078,0.2963867,0.125,0.2675781,0.04248047,-0.1987305
5221,-15.3125,14.0625,118.5,-0.2700195,0.4243164,0.105957,0.2700195,0.03759766,-0.1958008
5225,-26.1875,13.8125,132.125,-0.3588867,0.3232422,0.01708984,0.2734375,0.02636719,-0.1958008
5229,-19.125,12.375,142.5625,-0.4248047,0.2963867,-0.0859375,0.2792969,0.01611328,-0.1943359
5233,-9.75,18.8125,151.625,-0.3935547,0.3041992,-0.112793,0.2807617,0.007324219,-0.1943359
5237,-6.75,43.125,164.375,-0.4672852,0.4125977,-0.08984375,0.2841797,-0.005859375,-0.1889648
5241,-13.5,66.75,166.9375,-0.6728516,0.5605469,-0.02832031,0.2900391,-0.02050781,-0.1865234
5245,-21.6875,69.25,169.25,-0.9750977,0.5761719,0.05957031,0.2939453,-0.03320313,-0.1806641
5249,-15.875,36.125,171.25,-1.191895,0.5839844,0.07910156,0.2983398,-0.046875,-0.175293
5253,-0.9375,-4.75,177.5,-1.118652,0.5449219,0.03662109,0.2998047,-0.06445313,-0.1728516
5257,10.8125,-10.875,183.3125,-0.831543,0.7041016,-0.04394531,0.2983398,-0.07714844,-0.1738281
5261,1.375,21.125,186.25,-0.7851563,0.8984375,-0.05908203,0.2949219,-0.09423828,-0.1738281
5265,-17.5,51.8125,186.3125,-0.9790039,0.9414063,-0.1015625,0.2949219,-0.1132813,-0.1728516
5270,-22.125,54.875,188.75,-1.176758,0.8945313,-0.1206055,0.2939453,-0.1254883,-0.168457
5274,-17.25,50.4375,194.4375,-1.269531,0.8710938,-0.1401367,0.2924805,-0.1420898,-0.1645508
