Packet number,Gyroscope X (deg/s),Gyroscope Y (deg/s),Gyroscope Z (deg/s),Accelerometer X (g),Accelerometer Y (g),Accelerometer Z (g),Magnetometer X (G),Magnetometer Y (G),Magnetometer Z (G)
0,5.375,-14.875,-24.5,-0.3164063,-0.9272461,-0.02441406,0.09130859,0.2700195,-0.1142578
4,3.25,-12.75,-37.625,-0.3164063,-0.7680664,-0.02050781,0.08789063,0.2724609,-0.1142578
8,-8.375,-12.4375,-60.125,-0.3085938,-0.7368164,-0.06298828,0.08300781,0.2724609,-0.1142578
12,-14.625,-14.3125,-65.625,-0.3354492,-0.9467773,-0.09375,0.07958984,0.2749023,-0.1113281
16,-15.3125,-18.5625,-69.5,-0.3125,-0.8496094,-0.0859375,0.06982422,0.2773438,-0.112793
20,-18.375,-24.6875,-73.4375,-0.3164063,-0.9541016,-0.07861328,0.06396484,0.28125,-0.1098633
24,-14.625,-28,-65,-0.2929688,-1.036133,-0.05126953,0.05957031,0.28125,-0.1074219
28,-7.6875,-25.6875,-58.8125,-0.2929688,-1.11377,-0.05908203,0.05078125,0.2861328,-0.105957
32,4.1875,-24.875,-20.0625,-0.28125,-1.203125,-0.09375,0.04638672,0.2885742,-0.105957
36,7.5625,-16.8125,2.25,-0.1728516,-0.8764648,-0.06689453,0.04638672,0.2885742,-0.1020508
40,-0.625,-2.75,16.75,-0.1420898,-0.9116211,-0.07861328,0.04638672,0.2900391,-0.1044922
44,-2.375,0,16.4375,-0.2426758,-1.016602,-0.1206055,0.04736328,0.2885742,-0.1044922
48,-5.625,0.875,17.75,-0.2001953,-0.9775391,-0.109375,0.04882813,0.2900391,-0.1044922
53,-7.8125,5.125,18,-0.1420898,-1.020508,-0.109375,0.05078125,0.2885742,-0.1035156
57,-4.9375,9.375,12.9375,-0.09130859,-1.047363,-0.08203125,0.05224609,0.2875977,-0.1020508
61,-0.8125,13.75,6.875,-0.06445313,-1.062988,-0.0859375,0.0546875,0.2851563,-0.1005859
65,6.5625,15.8125,0.5625,-0.08007813,-1.090332,-0.02441406,0.05712891,0.2875977,-0.1035156
69,13.8125,19.8125,-2.1875,-0.06835938,-1.105957,-0.05126953,0.05810547,0.2851563,-0.1020508
73,15.5625,21.8125,-4.8125,-0.06054688,-1.059082,-0.08203125,0.05566406,0.2836914,-0.1035156
77,14.1875,19.125,-4.9375,-0.1030273,-1.032227,-0.1435547,0.05566406,0.2797852,-0.1088867
81,7.6875,26.125,-13.625,-0.06445313,-0.9970703,-0.06689453,0.05566406,0.2788086,-0.1113281
85,7.5625,26.5,-14.6875,-0.01025391,-1.059082,-0.1054688,0.05566406,0.2749023,-0.1098633
89,5.9375,24.9375,-20.75,0.02050781,-1.062988,-0.1206055,0.05712891,0.2709961,-0.1142578
93,5.875,23.4375,-25.375,0.05908203,-1.11377,-0.1166992,0.05224609,0.2700195,-0.1166992
97,6.6875,21.3125,-32.5,0.1171875,-1.171875,-0.1206055,0.05078125,0.2675781,-0.1142578
101,10.4375,19.4375,-40.125,0.1791992,-1.226563,-0.112793,0.04980469,0.2675781,-0.1181641
105,11,27.3125,-48.25,0.2373047,-1.233887,-0.1015625,0.04638672,0.2675781,-0.1225586
109,16.8125,28.9375,-55.8125,0.2490234,-1.272949,-0.128418,0.04394531,0.2661133,-0.1210938
113,19.8125,28.6875,-58.375,0.2724609,-1.280762,-0.128418,0.04150391,0.2661133,-0.1235352
117,19.9375,30.9375,-64.625,0.3339844,-1.276855,-0.1513672,0.03662109,0.2636719,-0.1264648
121,18.1875,31.0625,-73.875,0.3417969,-1.280762,-0.1708984,0.03320313,0.2661133,-0.1303711
125,9.5,32.375,-82.1875,0.3071289,-1.304199,-0.1669922,0.02587891,0.2651367,-0.1303711
129,4.3125,22.6875,-92.3125,0.2797852,-1.308105,-0.1630859,0.02001953,0.2651367,-0.1303711
133,-4.625,17,-98.75,0.2797852,-1.342773,-0.1669922,0.01660156,0.2661133,-0.1333008
137,-5.75,5,-104.25,0.2954102,-1.42041,-0.128418,0.006835938,0.2675781,-0.1289063
141,-6.3125,4,-106.5625,0.3847656,-1.498535,-0.07470703,-0.003417969,0.2661133,-0.1289063
145,0.4375,7.1875,-113.25,0.4541016,-1.560547,-0.09375,-0.009277344,0.2651367,-0.1303711
149,3.8125,18.5625,-123.4375,0.4350586,-1.556641,-0.07080078,-0.02099609,0.2685547,-0.1303711
153,3.5,26.5625,-130.9375,0.3886719,-1.556641,-0.1245117,-0.03173828,0.2675781,-0.1289063
157,3.0625,28.75,-141,0.3110352,-1.505859,-0.112793,-0.04003906,0.2661133,-0.1303711
161,-2.75,32,-142.4375,0.2724609,-1.521484,-0.1166992,-0.05078125,0.2661133,-0.1279297
165,-1,31.25,-143.75,0.2875977,-1.521484,-0.08203125,-0.06396484,0.2636719,-0.1303711
169,-0.375,35.25,-147,0.2915039,-1.509766,-0.06298828,-0.07128906,0.2612305,-0.1289063
173,-2.3125,36.3125,-147.875,0.2529297,-1.490723,-0.08984375,-0.08398438,0.2612305,-0.1279297
177,-3.0625,29.875,-150.375,0.2216797,-1.467285,-0.08984375,-0.09863281,0.2563477,-0.1303711
182,-3.125,26.4375,-149.6875,0.2490234,-1.467285,-0.03222656,-0.1079102,0.2524414,-0.1318359
186,-0.875,28,-149.75,0.2797852,-1.443848,-0.02050781,-0.1201172,0.25,-0.1303711
190,0.8125,29.625,-149.875,0.2646484,-1.401367,-0.005371094,-0.1318359,0.2436523,-0.1318359
194,1.0625,29.25,-149.3125,0.2490234,-1.366211,-0.02441406,-0.1401367,0.2387695,-0.1318359
198,-0.375,26.125,-149.125,0.2412109,-1.308105,-0.03222656,-0.1533203,0.2338867,-0.1333008
202,-1.1875,22.4375,-147.8125,0.2373047,-1.29248,0.001953125,-0.1674805,0.2275391,-0.1347656
206,1.5625,19.75,-144.375,0.2607422,-1.245605,0.03271484,-0.1748047,0.2236328,-0.137207
210,2.75,19.25,-142.3125,0.2685547,-1.167969,0.009765625,-0.1831055,0.2163086,-0.1357422
214,1.3125,16.6875,-139.4375,0.2529297,-1.125488,0.04052734,-0.1938477,0.2060547,-0.1347656
218,2.875,13.375,-136.25,0.2758789,-1.109863,0.07910156,-0.2021484,0.2001953,-0.137207
222,6.8125,11.9375,-133.625,0.3071289,-1.062988,0.07910156,-0.2114258,0.1899414,-0.1401367
226,9.3125,11.625,-129.625,0.2915039,-0.9970703,0.06738281,-0.21875,0.1811523,-0.1416016
230,10.0625,10.4375,-121.75,0.2758789,-0.9155273,0.05175781,-0.2270508,0.1748047,-0.1425781
234,10.1875,7.9375,-111.625,0.2646484,-0.8417969,0.02099609,-0.2329102,0.1650391,-0.144043
238,6.75,2.25,-104,0.3110352,-0.7524414,-0.005371094,-0.2387695,0.15625,-0.1425781
242,-2.375,-5.8125,-103.25,0.3613281,-0.6821289,-0.04736328,-0.2446289,0.1499023,-0.1416016
246,-10.5,-13.125,-105.4375,0.4350586,-0.6787109,-0.02050781,-0.2485352,0.1435547,-0.1455078
250,-12.375,-10.5,-106.1875,0.4619141,-0.6821289,0.02880859,-0.2553711,0.1376953,-0.1425781
254,-6.25,-2.5625,-102.25,0.4350586,-0.6513672,0.02490234,-0.2602539,0.1298828,-0.1401367
258,-1.9375,11.875,-91.6875,0.4350586,-0.550293,-0.02050781,-0.2661133,0.1225586,-0.1416016
262,0.5,26.125,-84.125,0.3808594,-0.4648438,-0.06689453,-0.2700195,0.1137695,-0.1416016
266,-1.875,32.5,-77.875,0.2875977,-0.3325195,-0.112793,-0.2700195,0.1098633,-0.1455078
270,-10.1875,27.3125,-74.9375,0.175293,-0.2084961,-0.1513672,-0.2724609,0.1035156,-0.1469727
274,-20.0625,10.6875,-73,0.1132813,-0.1811523,-0.1245117,-0.2758789,0.09521484,-0.1484375
278,-25.6875,-5.875,-67.125,0.1210938,-0.1694336,-0.07080078,-0.2768555,0.09375,-0.1494141
282,-27.125,-9.125,-55.8125,0.2177734,-0.1694336,0.005859375,-0.2817383,0.08886719,-0.1469727
286,-25.125,0.6875,-42.375,0.2993164,-0.1733398,0.05957031,-0.2817383,0.08496094,-0.144043
290,-19.8125,9.5625,-31.6875,0.3378906,-0.1850586,0.09033203,-0.2841797,0.08251953,-0.144043
294,-15.375,10.3125,-26.0625,0.3847656,-0.1772461,0.09814453,-0.2841797,0.08251953,-0.1455078
298,-13,6.625,-22.625,0.4194336,-0.1772461,0.1132813,-0.2851563,0.08007813,-0.1455078
302,-7.9375,3.25,-20.1875,0.4389648,-0.2124023,0.1479492,-0.2841797,0.07861328,-0.1455078
306,-0.625,1.6875,-14.8125,0.4736328,-0.2124023,0.1171875,-0.2866211,0.07763672,-0.1455078
311,3.3125,3.25,-9.5,0.5048828,-0.1616211,0.05957031,-0.2866211,0.07617188,-0.1455078
315,3.4375,5.25,-3.75,0.5009766,-0.1459961,0.02490234,-0.2851563,0.07373047,-0.1455078
319,1.9375,6.625,4.0625,0.4853516,-0.1499023,0.02490234,-0.2866211,0.07519531,-0.1455078
323,1.8125,5.5,11.5625,0.5009766,-0.1577148,0.03271484,-0.2866211,0.07617188,-0.1469727
327,4.1875,7.625,17.5,0.5048828,-0.1889648,0.05175781,-0.2851563,0.07763672,-0.1494141
331,8.4375,11.9375,24.125,0.4892578,-0.1928711,0.04785156,-0.2851563,0.07763672,-0.1508789
335,8.4375,13.25,32.125,0.4619141,-0.1655273,0.005859375,-0.2827148,0.08105469,-0.1494141
339,7.125,13.625,38.5625,0.4814453,-0.1616211,0.001953125,-0.2807617,0.08251953,-0.1523438
343,4,18.375,44.875,0.4428711,-0.1928711,0.02099609,-0.2792969,0.08496094,-0.1547852
347,2.125,19.125,51.8125,0.4038086,-0.2275391,0.03662109,-0.2783203,0.08984375,-0.1547852
351,3.9375,19.25,58.3125,0.3613281,-0.2822266,0.09033203,-0.2744141,0.09228516,-0.1547852
355,10,22.1875,66.25,0.3652344,-0.3208008,0.125,-0.2724609,0.09619141,-0.15625
359,16.9375,28.5625,72.875,0.3110352,-0.2978516,0.1132813,-0.2675781,0.1035156,-0.1591797
363,18.125,30.0625,80.1875,0.2294922,-0.3208008,0.09423828,-0.2626953,0.1064453,-0.1606445
367,20.875,25,87.5625,0.1674805,-0.3481445,0.04785156,-0.2578125,0.1137695,-0.1660156
371,20.1875,21.625,95.125,0.1870117,-0.3754883,0.05175781,-0.253418,0.1186523,-0.1674805
375,22.625,29.25,107.3125,0.2216797,-0.453125,0.07519531,-0.2485352,0.1235352,-0.168457
379,27.5,45.25,118.875,0.2177734,-0.503418,0.07910156,-0.2426758,0.1313477,-0.1728516
383,28.375,59.375,128.4375,0.1674805,-0.4921875,0.05175781,-0.234375,0.1376953,-0.1782227
387,21.6875,61.625,132.3125,0.01660156,-0.4804688,-0.005371094,-0.2280273,0.1450195,-0.1821289
391,6.6875,46.4375,142.5625,-0.1499023,-0.5698242,-0.009277344,-0.2163086,0.1513672,-0.1865234
395,-5.625,20.8125,157.9375,-0.09521484,-0.7016602,0.03271484,-0.206543,0.1625977,-0.1889648
399,-7.125,0.125,157.0625,0.09033203,-0.8105469,0.04443359,-0.1982422,0.1674805,-0.1918945
403,-4.75,0.8125,150.75,0.2451172,-0.9155273,0.07910156,-0.1875,0.1787109,-0.1904297
407,-2.625,16,152.5,0.206543,-1.000977,0.09033203,-0.1782227,0.1884766,-0.1889648
411,-4.5625,26.4375,157.6875,0.1484375,-1.05127,0.09033203,-0.1699219,0.1938477,-0.1904297
415,-10.5,23.4375,161.5,0.109375,-1.062988,0.08251953,-0.1567383,0.2026367,-0.1928711
419,-14.0625,17.25,159.8125,0.07470703,-1.144531,0.1132813,-0.1425781,0.2084961,-0.1918945
423,-14.5625,12.9375,157.6875,0.05908203,-1.214844,0.1479492,-0.1318359,0.2148438,-0.1904297
427,-15.3125,7.4375,156.125,0.03955078,-1.284668,0.140625,-0.1210938,0.2211914,-0.1889648
431,-19.5,-5.6875,159.125,0.01269531,-1.342773,0.1020508,-0.1054688,0.2260742,-0.1875
435,-20.875,-16.25,160.8125,0.1328125,-1.389648,0.1289063,-0.09619141,0.2324219,-0.1875
440,-19.6875,-8.25,159.875,0.2026367,-1.428223,0.1171875,-0.08398438,0.2363281,-0.1835938
444,-22.75,4.4375,160.6875,0.1171875,-1.486816,0.09814453,-0.06982422,0.2412109,-0.1806641
448,-28.5625,1.0625,164.0625,0.01269531,-1.544922,0.04443359,-0.05908203,0.2426758,-0.1806641
452,-33.125,-12.5625,165.3125,0.04736328,-1.591309,0.05566406,-0.04736328,0.2460938,-0.1806641
456,-32.375,-18.5625,158.625,0.1289063,-1.622559,0.09033203,-0.03076172,0.2485352,-0.1767578
460,-30.75,-14.375,149.3125,0.159668,-1.618652,0.08642578,-0.0234375,0.2509766,-0.1738281
464,-32.9375,-11.3125,141.875,0.125,-1.591309,0.05175781,-0.009277344,0.2524414,-0.1713867
468,-39.875,-14.1875,135.4375,0.06298828,-1.587891,-0.001464844,0.002441406,0.2524414,-0.1699219
472,-44.6875,-24.5,130.3125,0.04345703,-1.618652,0.001953125,0.009277344,0.2509766,-0.1660156
476,-45.625,-33.875,127.75,0.1171875,-1.657715,0.04443359,0.02001953,0.2524414,-0.1630859
480,-41,-34.9375,123.6875,0.2294922,-1.661621,0.07910156,0.03076172,0.2524414,-0.1616211
484,-34.6875,-28.875,116.625,0.2836914,-1.645996,0.09423828,0.03564453,0.25,-0.1591797
488,-31.125,-24.25,107.0625,0.2568359,-1.580078,0.04443359,0.04492188,0.2509766,-0.1577148
492,-34.1875,-30.3125,97.0625,0.1674805,-1.525391,0.001953125,0.05322266,0.2509766,-0.1538086
496,-39.625,-43.0625,88.25,0.1484375,-1.486816,-0.009277344,0.05712891,0.25,-0.1494141
500,-44.375,-55.125,80.75,0.2104492,-1.48291,-0.01318359,0.06396484,0.2509766,-0.1494141
504,-42.875,-60.75,73.375,0.2875977,-1.501953,0.03271484,0.06787109,0.25,-0.1455078
508,-38.0625,-59.4375,67.6875,0.3457031,-1.494629,0.04052734,0.07226563,0.2509766,-0.1401367
512,-32.3125,-55.4375,63.4375,0.3613281,-1.48291,0.05175781,0.07617188,0.2524414,-0.1357422
516,-25.25,-49.5,60.125,0.3769531,-1.447754,0.05566406,0.08300781,0.2485352,-0.1318359
520,-20.125,-46.625,53.9375,0.3886719,-1.397461,0.001953125,0.08789063,0.2475586,-0.1318359
524,-17.1875,-34.4375,68.8125,1.085938,-1.696289,0.1479492,0.09521484,0.2436523,-0.1264648
528,23.1875,52.8125,23.75,1.426758,-1.74707,0.3637695,0.1020508,0.2373047,-0.1279297
532,40.25,81.5,-10.8125,0.7216797,-1.366211,-0.1206055,0.1035156,0.2373047,-0.1264648
536,20.25,41.8125,-24.0625,0.3378906,-1.167969,-0.2285156,0.1035156,0.2387695,-0.1289063
540,0.6875,2.5625,-43.5625,0.1210938,-1.062988,-0.2475586,0.1010742,0.2397461,-0.1303711
544,-20.375,-28.5,-34.0625,0.2568359,-1.191406,-0.1435547,0.09619141,0.2397461,-0.1289063
548,-23.1875,-22,-36.6875,0.4233398,-1.432129,0.07910156,0.09130859,0.2436523,-0.1318359
552,-6.5625,-4.9375,-44.4375,0.543457,-1.564453,0.1865234,0.08544922,0.2460938,-0.1347656
556,10.6875,13.4375,-61.125,0.6171875,-1.580078,0.1479492,0.08056641,0.2485352,-0.1318359
560,21.6875,28.5,-81.8125,0.5629883,-1.556641,0.07519531,0.07226563,0.25,-0.1386719
564,25.375,36.8125,-98.4375,0.4311523,-1.525391,-0.001464844,0.06640625,0.25,-0.1416016
569,25.25,38.1875,-107.25,0.2993164,-1.505859,-0.02050781,0.06152344,0.2524414,-0.1416016
573,23.125,32.375,-112,0.2177734,-1.509766,-0.04003906,0.05322266,0.2548828,-0.1455078
577,20.8125,25.5,-115.125,0.2138672,-1.525391,-0.01318359,0.04248047,0.2573242,-0.1469727
581,19.625,19.625,-119.8125,0.2255859,-1.533203,-0.005371094,0.03662109,0.2573242,-0.1469727
585,17.375,13.1875,-128.5,0.2568359,-1.556641,-0.009277344,0.02587891,0.2563477,-0.1494141
589,14.5625,7.1875,-139.125,0.2954102,-1.599121,0.009765625,0.01416016,0.2587891,-0.1494141
593,15.4375,7.625,-151.6875,0.3188477,-1.618652,0.02490234,0.005859375,0.2597656,-0.1508789
597,18.25,15.375,-156.4375,0.2373047,-1.649902,0.03271484,-0.009277344,0.2587891,-0.1538086
601,19.125,20,-157,0.190918,-1.618652,0.02490234,-0.02246094,0.2597656,-0.1538086
605,18.4375,17.625,-158.625,0.125,-1.587891,-0.005371094,-0.02929688,0.2587891,-0.1538086
609,16,8.375,-161.9375,0.1171875,-1.552734,-0.02441406,-0.04492188,0.2573242,-0.1577148
613,11.75,-0.375,-164.8125,0.1132813,-1.529297,0.005859375,-0.06054688,0.2524414,-0.15625
617,8.625,-5.6875,-166.375,0.1367188,-1.517578,0.01367188,-0.07128906,0.2539063,-0.15625
621,5,-6.375,-166.4375,0.1713867,-1.494629,0.04443359,-0.08642578,0.25,-0.1577148
625,5.5,-0.3125,-166.0625,0.2216797,-1.490723,0.09423828,-0.1010742,0.2451172,-0.1591797
629,8.625,8,-165.125,0.175293,-1.459473,0.08251953,-0.1113281,0.2426758,-0.1591797
633,7.5625,4.125,-163.75,0.1367188,-1.401367,0.06738281,-0.1269531,0.2363281,-0.1577148
637,6.75,-5.125,-164.6875,0.1328125,-1.354492,0.06347656,-0.1401367,0.2299805,-0.1591797
641,5.875,-12.6875,-163.375,0.1484375,-1.323242,0.08642578,-0.1484375,0.2260742,-0.1577148
645,5.4375,-15.25,-160,0.1987305,-1.288574,0.09033203,-0.1640625,0.2163086,-0.1606445
649,6.875,-13.875,-159.125,0.2568359,-1.233887,0.08251953,-0.1757813,0.2084961,-0.1591797
653,8.0625,-6.4375,-159.25,0.2758789,-1.160156,0.05566406,-0.1855469,0.2036133,-0.1577148
657,7.6875,1.375,-155.375,0.2294922,-1.090332,0.04785156,-0.1982422,0.1923828,-0.1591797
661,6.375,0.625,-148.625,0.1831055,-1.020508,0.01708984,-0.2104492,0.1826172,-0.1591797
665,3.6875,-4.8125,-144.9375,0.2026367,-0.9311523,0.009765625,-0.215332,0.1762695,-0.1616211
669,-1.125,-8.8125,-142.5,0.2026367,-0.8378906,0.005859375,-0.2246094,0.1660156,-0.1591797
673,-6.5,-8.875,-136.875,0.2333984,-0.7949219,0.01367188,-0.234375,0.1547852,-0.1577148
677,-7.25,-3.0625,-131.5,0.2412109,-0.7563477,0.06347656,-0.2387695,0.1499023,-0.1577148
681,-3.875,4.4375,-124.25,0.2333984,-0.7016602,0.1098633,-0.2470703,0.1401367,-0.1577148
685,1.5625,12.75,-117.8125,0.1987305,-0.6044922,0.08642578,-0.2519531,0.1289063,-0.1577148
689,2.375,14,-110.875,0.1289063,-0.4726563,0.05175781,-0.2568359,0.1210938,-0.1591797
693,2.4375,12.6875,-100.375,0.109375,-0.4067383,0.06347656,-0.2602539,0.1137695,-0.1606445
698,2.3125,12.75,-88.125,0.09375,-0.3364258,0.05957031,-0.2636719,0.1035156,-0.1606445
702,2.5625,12.6875,-76.8125,0.1132813,-0.2587891,0.03662109,-0.2675781,0.1010742,-0.1630859
706,0.5,11.0625,-66.375,0.07861328,-0.2006836,0.01367188,-0.2700195,0.09521484,-0.1616211
710,-5,1.3125,-53.6875,0.09765625,-0.1269531,-0.005371094,-0.2709961,0.08740234,-0.1630859
714,-8.25,-7.5625,-44.875,0.1948242,-0.1459961,0.03271484,-0.2724609,0.08642578,-0.1616211
718,-5.25,-10.1875,-39.625,0.2954102,-0.1538086,0.05175781,-0.2758789,0.08398438,-0.1616211
722,-3.375,-4.0625,-30.8125,0.3769531,-0.1655273,0.07519531,-0.2768555,0.08105469,-0.1630859
726,0.8125,3.0625,-21.25,0.4311523,-0.1772461,0.1098633,-0.2768555,0.07763672,-0.1606445
730,5.75,8.125,-16.6875,0.4541016,-0.1577148,0.07519531,-0.2783203,0.07617188,-0.1630859
734,5.1875,8.1875,-13.0625,0.4389648,-0.1230469,0.04443359,-0.2768555,0.07519531,-0.1660156
738,2.875,0.875,-9.6875,0.4233398,-0.1230469,0.02099609,-0.2783203,0.07275391,-0.1645508
742,0.0625,-5.25,-4.1875,0.4697266,-0.1459961,0.04052734,-0.2792969,0.07373047,-0.1630859
746,-1.75,-9.875,1.3125,0.5239258,-0.1733398,0.05566406,-0.2783203,0.07275391,-0.1630859
750,-1.0625,-10.9375,5.25,0.5820313,-0.2006836,0.05957031,-0.2783203,0.07373047,-0.1616211
754,0.5,-8.3125,8.125,0.59375,-0.2124023,0.05566406,-0.2783203,0.07275391,-0.1616211
758,1.4375,-5.5,13.25,0.59375,-0.2392578,0.05175781,-0.2807617,0.07275391,-0.1606445
762,3.125,-4,19.6875,0.6015625,-0.2353516,0.05175781,-0.2792969,0.07519531,-0.1606445
766,2.875,-3.5625,24.4375,0.6289063,-0.2275391,0.04443359,-0.2783203,0.07617188,-0.1606445
770,4.8125,-0.375,27.3125,0.6518555,-0.2548828,0.05566406,-0.2768555,0.07763672,-0.1606445
774,6.75,3.875,29.8125,0.59375,-0.2587891,0.04052734,-0.2783203,0.08251953,-0.1591797
778,6.6875,4.6875,34.875,0.5395508,-0.2626953,0.04052734,-0.2768555,0.08251953,-0.1591797
782,6.5,4.9375,40.1875,0.5200195,-0.2666016,0.04052734,-0.2744141,0.08642578,-0.1606445
786,8.9375,11,45,0.5087891,-0.2822266,0.06347656,-0.2724609,0.08886719,-0.1616211
790,11.6875,19.25,52.75,0.4541016,-0.2939453,0.05957031,-0.2709961,0.09228516,-0.1645508
794,15.25,26.875,60.0625,0.3925781,-0.3017578,0.08642578,-0.2685547,0.09765625,-0.1674805
798,16.0625,30.375,70.25,0.3149414,-0.3056641,0.06347656,-0.2636719,0.09765625,-0.168457
802,15.6875,25.9375,79,0.2758789,-0.3056641,0.05957031,-0.2602539,0.1025391,-0.1738281
806,13.6875,23.1875,84,0.2875977,-0.3481445,0.05175781,-0.2543945,0.1098633,-0.1713867
810,10.9375,21.5625,89.6875,0.2685547,-0.371582,0.04785156,-0.253418,0.1137695,-0.1738281
814,10.625,23.875,93.625,0.2758789,-0.4179688,0.06347656,-0.2460938,0.1210938,-0.1767578
818,12.1875,32.5625,97.25,0.2451172,-0.484375,0.07910156,-0.2402344,0.1289063,-0.1806641
822,14,41.625,107.625,0.1635742,-0.534668,0.07128906,-0.2353516,0.1323242,-0.1806641
827,12.375,42.5625,119,0.1132813,-0.550293,0.04052734,-0.2294922,0.1401367,-0.1850586
831,9.3125,37.75,127.3125,0.07861328,-0.5893555,0.01367188,-0.21875,0.1459961,-0.1904297
835,2.875,31.9375,132.125,0.07861328,-0.6396484,0.01367188,-0.2128906,0.1523438,-0.1918945
839,-3.625,28.4375,135.375,0.05126953,-0.7407227,0.03271484,-0.2021484,0.1611328,-0.1928711
843,-11.625,21.9375,141.5,0.02832031,-0.8222656,0.02490234,-0.1923828,0.1723633,-0.1943359
847,-15.8125,13.5625,141.75,0.01660156,-0.8999023,0.05175781,-0.1855469,0.1762695,-0.1943359
851,-21.75,0.25,145.75,-0.002441406,-0.9814453,0.05175781,-0.1748047,0.1875,-0.1958008
855,-27.0625,-10.4375,149.8125,0.03564453,-1.043945,0.05175781,-0.1640625,0.1948242,-0.1918945
859,-31.3125,-22.5,150.625,0.1210938,-1.133301,0.06738281,-0.1542969,0.2011719,-0.1904297
863,-29,-24.0625,143.8125,0.2294922,-1.207031,0.105957,-0.1459961,0.2099609,-0.1850586
867,-24.9375,-10,139.375,0.2255859,-1.253418,0.1171875,-0.1376953,0.2172852,-0.1835938
871,-21.875,2.75,140.8125,0.1210938,-1.29248,0.08642578,-0.128418,0.2211914,-0.1806641
875,-24.125,6.375,148.0625,0.04345703,-1.300293,0.03662109,-0.1162109,0.2275391,-0.1806641
879,-31.875,-0.375,156.3125,0.008789063,-1.308105,0.001953125,-0.1020508,0.2338867,-0.1796875
883,-40.1875,-5.3125,161.3125,0.05126953,-1.354492,0.01708984,-0.09228516,0.2373047,-0.1767578
887,-45.125,-0.6875,161,0.06298828,-1.471191,0.06738281,-0.07958984,0.2436523,-0.1728516
891,-46.25,3.125,159.375,0.02050781,-1.521484,0.04443359,-0.06494141,0.2475586,-0.168457
895,-48.4375,-0.4375,160.5,-0.04492188,-1.533203,0.01708984,-0.05664063,0.2524414,-0.1674805
899,-52.75,-11.125,160.375,-0.08789063,-1.544922,-0.03222656,-0.04003906,0.2548828,-0.1630859
903,-61.6875,-28.25,157.625,-0.1108398,-1.544922,-0.09375,-0.02587891,0.2563477,-0.1577148
907,-75.9375,-46.0625,150.5625,-0.04101563,-1.595215,-0.128418,-0.01757813,0.2587891,-0.1538086
911,-82.5625,-59.625,139.0625,0.01269531,-1.735352,-0.1054688,-0.006835938,0.2636719,-0.1455078
915,-81.375,-64.5625,134.75,0.1210938,-1.863281,-0.06689453,0.003417969,0.262207,-0.1401367
919,-71,-64.6875,125.1875,0.2685547,-1.878906,-0.03222656,0.009277344,0.2651367,-0.1347656
923,-56,-60.9375,116.125,0.3886719,-1.844238,-0.01660156,0.02246094,0.2636719,-0.1279297
927,-44.75,-54.6875,107.125,0.5009766,-1.781738,-0.02441406,0.02978516,0.2675781,-0.125
931,-35.5625,-46.875,95.5625,0.5668945,-1.731445,-0.04003906,0.03417969,0.2651367,-0.1235352
935,-29,-45.3125,87.0625,0.5239258,-1.677246,-0.05908203,0.04248047,0.2661133,-0.1210938
939,-27.25,-56.1875,79.75,0.5009766,-1.618652,-0.09765625,0.05078125,0.262207,-0.1142578
943,-26.0625,-74.8125,74.0625,0.5126953,-1.61084,-0.09765625,0.05566406,0.2587891,-0.1113281
947,-21.625,-91.875,69.75,0.5820313,-1.61084,-0.07861328,0.06396484,0.2573242,-0.1113281
951,-14.875,-86.3125,103.3125,1.702148,-2.380371,0.1479492,0.07373047,0.25,-0.1113281
956,59.8125,60.0625,36.125,2.43457,-1.999512,0.6098633,0.07958984,0.2451172,-0.1142578
960,85.125,93.125,-42.5625,0.9892578,-1.389648,-0.4746094,0.08300781,0.2412109,-0.1166992
964,30.1875,5.125,-48.3125,0.1635742,-0.8686523,-0.7402344,0.08203125,0.2426758,-0.1196289
968,-7.25,-49.125,-47.125,0.1328125,-0.9350586,-0.4628906,0.07714844,0.2460938,-0.1210938
972,-24.0625,-53.125,-22.6875,0.2333984,-1.05127,-0.2783203,0.07128906,0.2509766,-0.1181641
976,-34.1875,-29.375,6.9375,0.4428711,-1.257324,-0.1323242,0.06787109,0.2524414,-0.1196289
980,-32.3125,-1.75,10.8125,0.6674805,-1.342773,-0.04003906,0.06542969,0.2539063,-0.1196289
984,-19.3125,13,-24.375,0.7875977,-1.521484,0.07128906,0.06396484,0.2548828,-0.1166992
988,5.375,20.875,-69.125,0.6831055,-1.556641,0.06738281,0.05957031,0.2597656,-0.1157227
992,18.9375,30.3125,-93.625,0.4970703,-1.509766,-0.02832031,0.05322266,0.2612305,-0.1166992
996,24.5625,37.1875,-98.8125,0.3032227,-1.439941,-0.09375,0.04150391,0.2636719,-0.1196289
1000,22.9375,41.0625,-92.75,0.2255859,-1.393555,-0.1474609,0.03417969,0.2651367,-0.1196289
1004,20.375,38.75,-90.6875,0.1831055,-1.374023,-0.1630859,0.02734375,0.2661133,-0.125
1008,15.4375,31.125,-90.8125,0.1870117,-1.405273,-0.1552734,0.02001953,0.2675781,-0.1264648
1012,8.5,19.8125,-94.0625,0.2836914,-1.416504,-0.1552734,0.01269531,0.2675781,-0.1264648
1016,3.8125,14.0625,-108.9375,0.3959961,-1.463379,-0.109375,0.005859375,0.2675781,-0.1264648
1020,6.9375,17.625,-121.375,0.4350586,-1.548828,-0.04003906,-0.001953125,0.2685547,-0.1289063
1024,13.3125,28.6875,-130.9375,0.4155273,-1.564453,-0.05126953,-0.01416016,0.2675781,-0.1264648
1028,18.8125,39.3125,-137.25,0.3535156,-1.556641,-0.05126953,-0.02099609,0.2685547,-0.1289063
1032,23.4375,44.1875,-138.0625,0.2255859,-1.513672,-0.07861328,-0.03417969,0.2675781,-0.1303711
1036,22.125,38.8125,-138,0.1484375,-1.455566,-0.1245117,-0.04589844,0.2675781,-0.1303711
1040,18.0625,26.5,-140.625,0.09765625,-1.432129,-0.109375,-0.05566406,0.262207,-0.1333008
1044,15.625,17.6875,-138.0625,0.1132813,-1.439941,-0.05126953,-0.06640625,0.262207,-0.1357422
1048,13,15,-136.8125,0.1635742,-1.412598,-0.04736328,-0.078125,0.2587891,-0.1333008
1052,10.125,12.5,-138.125,0.1713867,-1.405273,-0.03613281,-0.08789063,0.2587891,-0.1386719
1056,8.5,8.875,-143.75,0.2216797,-1.366211,-0.03222656,-0.09960938,0.2524414,-0.1401367
1060,7.5,7.5,-148.0625,0.2104492,-1.34668,-0.01318359,-0.1113281,0.25,-0.1401367
1064,6.125,2.875,-146.9375,0.1674805,-1.308105,-0.01318359,-0.1220703,0.2451172,-0.1386719
1068,4.4375,-6.6875,-144.3125,0.175293,-1.296387,-0.001464844,-0.1342773,0.2412109,-0.1401367
1072,4.125,-15.1875,-141.9375,0.2373047,-1.288574,0.03271484,-0.1459961,0.2338867,-0.1386719
1076,7.0625,-13.75,-138.8125,0.3188477,-1.276855,0.07910156,-0.1567383,0.2285156,-0.137207
1080,10.9375,-9.875,-133.25,0.3266602,-1.233887,0.1020508,-0.168457,0.2226563,-0.1386719
1085,8.6875,-19,-125.125,0.3227539,-1.191406,0.03271484,-0.1782227,0.2148438,-0.1386719
1089,1.5,-35.25,-120.75,0.3730469,-1.171875,0.005859375,-0.1865234,0.2099609,-0.1357422
1093,-2.3125,-44.75,-120.8125,0.4814453,-1.199219,0.02880859,-0.1972656,0.2026367,-0.1347656
1097,1.9375,-35.875,-121.0625,0.5629883,-1.195313,0.03271484,-0.2089844,0.1948242,-0.1333008
1101,9,-10.0625,-122.125,0.5898438,-1.152344,0.009765625,-0.215332,0.1899414,-0.1333008
1105,14.4375,19.375,-125.625,0.5087891,-1.062988,-0.03222656,-0.2236328,0.1826172,-0.1303711
1109,16.5625,40.6875,-124.875,0.4038086,-0.9658203,-0.06689453,-0.2329102,0.1723633,-0.1357422
1113,20.5,59.25,-120.8125,0.2915039,-0.8920898,-0.04736328,-0.2353516,0.1650391,-0.1416016
1117,25.1875,72.6875,-114.9375,0.206543,-0.7792969,-0.03613281,-0.2412109,0.15625,-0.1469727
1121,30.8125,80.25,-108.9375,0.1054688,-0.6552734,-0.03613281,-0.2460938,0.1459961,-0.1523438
1125,31.3125,82.0625,-98.9375,0.01269531,-0.5229492,-0.06298828,-0.2460938,0.1376953,-0.1577148
1129,26.4375,73.3125,-88.5,-0.04882813,-0.3754883,-0.09375,-0.2485352,0.1289063,-0.1660156
1133,15.125,57.375,-76.25,-0.1030273,-0.2431641,-0.1166992,-0.2485352,0.1210938,-0.1738281
1137,-0.5,38.25,-60.125,-0.1767578,-0.1308594,-0.1015625,-0.2495117,0.1176758,-0.1738281
1141,-18.6875,10.125,-43.0625,-0.2387695,-0.09570313,-0.1015625,-0.2509766,0.1123047,-0.1767578
1145,-40.4375,-27.625,-31.875,-0.1499023,-0.1113281,-0.112793,-0.253418,0.1113281,-0.1782227
1149,-55.1875,-60.375,-30.8125,0.1054688,-0.2202148,0.001953125,-0.2553711,0.1113281,-0.1728516
1153,-52.875,-74.5,-33.3125,0.3959961,-0.3520508,0.159668,-0.2592773,0.1098633,-0.1645508
1157,-36.875,-59,-37.875,0.6132813,-0.4067383,0.2597656,-0.2651367,0.1113281,-0.1577148
1161,-15,-26.1875,-35.75,0.6791992,-0.453125,0.3056641,-0.2661133,0.1088867,-0.1508789
1165,6.875,10.125,-28.875,0.6401367,-0.4140625,0.2597656,-0.2685547,0.1064453,-0.1508789
1169,20.6875,29.25,-22.125,0.5048828,-0.3325195,0.140625,-0.2709961,0.1049805,-0.1547852
1173,24.5,29.5625,-18.8125,0.4541016,-0.2548828,0.08642578,-0.2700195,0.1025391,-0.1577148
1177,25.75,26.375,-15.3125,0.4194336,-0.2006836,0.03271484,-0.2685547,0.09863281,-0.1606445
1181,21.0625,25.5625,-7.125,0.3925781,-0.1577148,0.02099609,-0.2685547,0.09619141,-0.1660156
1185,14.25,20.75,2.8125,0.3339844,-0.1538086,0.01367188,-0.2661133,0.09619141,-0.1630859
1189,9.4375,9.875,11.0625,0.3305664,-0.1655273,0.005859375,-0.2651367,0.09765625,-0.1660156
1193,4.25,-1.0625,17.1875,0.3496094,-0.1967773,0.02880859,-0.2661133,0.09619141,-0.168457
1197,1.8125,-6.5,26.9375,0.4077148,-0.2275391,0.05175781,-0.2636719,0.09765625,-0.1674805
1201,0,-7.625,33.6875,0.4619141,-0.2431641,0.05566406,-0.2617188,0.1010742,-0.1674805
1205,-0.8125,-12.25,35.5,0.4580078,-0.2626953,0.02490234,-0.2626953,0.1035156,-0.1674805
1209,-3.875,-20.25,37.0625,0.4853516,-0.2626953,0.02880859,-0.2636719,0.1049805,-0.1660156
1214,-5.125,-23.1875,39,0.4970703,-0.3056641,0.03271484,-0.2617188,0.1088867,-0.1630859
1218,-3.9375,-20.1875,42.3125,0.5087891,-0.3286133,0.03662109,-0.2592773,0.1123047,-0.1606445
1222,-0.375,-11.625,47,0.4736328,-0.3676758,0.05566406,-0.2602539,0.1152344,-0.1606445
1226,2.8125,-3.0625,54.8125,0.4233398,-0.3793945,0.05957031,-0.2568359,0.1186523,-0.1577148
1230,7.3125,3.125,62.6875,0.4077148,-0.3754883,0.04052734,-0.2553711,0.125,-0.1606445
1234,10.8125,11.6875,67.875,0.3925781,-0.371582,0.01708984,-0.2519531,0.1289063,-0.1616211
1238,9.5625,16.875,72,0.3305664,-0.355957,-0.02050781,-0.2509766,0.1313477,-0.1645508
1242,6.3125,14.9375,74.3125,0.2451172,-0.387207,-0.05517578,-0.2460938,0.1386719,-0.1630859
1246,-1.125,8.9375,84.25,0.1791992,-0.4179688,-0.1015625,-0.2402344,0.1411133,-0.1660156
1250,-8.9375,0,93.25,0.190918,-0.5073242,-0.06298828,-0.234375,0.1474609,-0.1630859
1254,-8.1875,-2.5,96.5,0.2836914,-0.5737305,-0.001464844,-0.2319336,0.1547852,-0.1630859
1258,-4.75,2.75,100.6875,0.2954102,-0.6396484,0.02490234,-0.2270508,0.1586914,-0.1645508
1262,-3.6875,10.375,105.0625,0.3032227,-0.6708984,0.02880859,-0.2197266,0.1689453,-0.1645508
1266,-4.25,15.0625,106.75,0.2685547,-0.6899414,0.03271484,-0.2128906,0.1762695,-0.1645508
1270,-6.25,16.3125,107.875,0.1831055,-0.7641602,0.03662109,-0.2089844,0.1801758,-0.1616211
1274,-7.625,13.25,112.25,0.09033203,-0.8881836,0.03662109,-0.1982422,0.1860352,-0.1630859
1278,-8,3.4375,121.6875,0.1054688,-0.8920898,0.02099609,-0.1899414,0.1948242,-0.1645508
1282,-11.5625,-6.0625,125.6875,0.1328125,-0.9619141,-0.02832031,-0.1831055,0.2001953,-0.1630859
1286,-15.8125,-14.3125,124.5,0.175293,-1.000977,-0.04003906,-0.1748047,0.2084961,-0.1630859
1290,-15.6875,-11.625,119.25,0.2026367,-1.055176,-0.04003906,-0.1665039,0.2148438,-0.1606445
1294,-16.125,0.5625,112.875,0.1518555,-1.078613,-0.07470703,-0.1582031,0.2197266,-0.1606445
1298,-17.625,13.625,116.8125,0.004882813,-1.183594,-0.07470703,-0.1474609,0.2250977,-0.1577148
1302,-18.8125,17.9375,131.625,-0.1459961,-1.245605,-0.109375,-0.1376953,0.2324219,-0.1577148
1306,-23.5625,5.25,145.8125,-0.1533203,-1.269043,-0.1401367,-0.1293945,0.2348633,-0.1591797
1310,-30.3125,-7.625,153.875,-0.07617188,-1.288574,-0.1743164,-0.1162109,0.2426758,-0.15625
1314,-40.9375,-14.9375,153.0625,0.02050781,-1.331055,-0.1782227,-0.1010742,0.2475586,-0.1523438
1318,-45.6875,-5.375,147.5625,0.07470703,-1.447754,-0.08984375,-0.09375,0.2485352,-0.1494141
1322,-42.25,7.75,148.4375,-0.03710938,-1.556641,-0.07080078,-0.07958984,0.2548828,-0.144043
1326,-40.9375,5.8125,155.375,-0.1186523,-1.580078,-0.07861328,-0.06738281,0.2587891,-0.1401367
1330,-45.125,-9.1875,161.25,-0.1108398,-1.587891,-0.128418,-0.05566406,0.2612305,-0.1401367
1334,-45.5625,-18.0625,160.5,0.02832031,-1.645996,-0.05908203,-0.0390625,0.2636719,-0.1333008
1338,-39.1875,-6.5,158.75,0.1367188,-1.692383,0.001953125,-0.02685547,0.2675781,-0.1318359
1343,-37.3125,14.0625,162.375,0.1831055,-1.719727,0.001953125,-0.01611328,0.2675781,-0.1303711
1347,-36.1875,21.8125,159.75,0.1289063,-1.74707,-0.01660156,0,0.2700195,-0.1264648
1351,-34.9375,8.0625,150.8125,0.1210938,-1.708008,-0.05126953,0.01416016,0.2661133,-0.1235352
1355,-32.75,-8.5625,140.3125,0.206543,-1.669434,-0.04736328,0.02490234,0.2700195,-0.1225586
1359,-32.6875,-18.75,133.9375,0.3188477,-1.64209,-0.04003906,0.03662109,0.2661133,-0.1210938
1363,-33.25,-23.5,132.5625,0.4272461,-1.61084,-0.009277344,0.05078125,0.2651367,-0.1196289
1367,-33.8125,-28.75,126,0.578125,-1.614746,0.02099609,0.05810547,0.2612305,-0.1157227
1371,-30.1875,-28,112.0625,0.6054688,-1.606934,0.02490234,0.07128906,0.2597656,-0.1142578
1375,-27.75,-28.6875,100.875,0.527832,-1.583984,0.02880859,0.08203125,0.2563477,-0.1098633
1379,-28,-39.0625,89.5,0.4311523,-1.541016,-0.005371094,0.08691406,0.2524414,-0.1074219
1383,-33.4375,-62.4375,75.9375,0.3808594,-1.501953,-0.05517578,0.09765625,0.2451172,-0.1088867
1387,-28,-44.3125,137.25,1.930664,-2.632813,0.6943359,0.1079102,0.2397461,-0.1098633
1391,70.1875,103.5,47.75,1.775879,-2.084961,0.5136719,0.1142578,0.2338867,-0.112793
1395,83.0625,112.75,-14.3125,0.7060547,-1.257324,-0.4091797,0.1186523,0.2285156,-0.112793
1399,23.9375,8.5,-37.625,-0.01806641,-0.8842773,-0.7783203,0.1186523,0.2314453,-0.1142578
1403,-21.1875,-69.1875,-53.3125,0.04345703,-0.8574219,-0.5014648,0.1176758,0.2324219,-0.112793
1407,-43.625,-88.0625,-44.9375,0.159668,-1.090332,-0.2900391,0.1079102,0.2387695,-0.1142578
1411,-49.3125,-63.4375,-10.625,0.4814453,-1.486816,-0.02050781,0.1020508,0.2412109,-0.1113281
1415,-26.875,-22.9375,-20.375,0.6948242,-1.552734,0.1518555,0.1020508,0.2451172,-0.1088867
1419,-1.125,5.5625,-48.75,0.7412109,-1.614746,0.1826172,0.09521484,0.2485352,-0.105957
1423,23.625,20.625,-83.5625,0.6171875,-1.583984,0.07519531,0.08886719,0.2539063,-0.1074219
1427,35.6875,31.9375,-101.875,0.4350586,-1.505859,-0.02050781,0.08203125,0.2548828,-0.112793
1431,37.8125,39.625,-106.1875,0.2646484,-1.412598,-0.128418,0.07128906,0.2597656,-0.1142578
1435,30.5,38.5,-106,0.1635742,-1.358398,-0.1743164,0.06054688,0.2612305,-0.112793
1439,18.1875,24,-107.1875,0.1015625,-1.401367,-0.1708984,0.05322266,0.2636719,-0.1181641
1443,11.0625,4.625,-113.0625,0.1445313,-1.479004,-0.09375,0.04492188,0.2651367,-0.1196289
1447,12.25,-5.25,-121.125,0.2724609,-1.552734,-0.02832031,0.03417969,0.2675781,-0.1196289
1451,17.5625,3.625,-129.4375,0.3925781,-1.614746,0.01367188,0.02587891,0.2685547,-0.1210938
1455,27.5,22.375,-136.5,0.3574219,-1.626465,0.01708984,0.01416016,0.2685547,-0.1235352
1459,32.375,27.6875,-141.5625,0.2685547,-1.587891,-0.08203125,0.0009765625,0.2700195,-0.1235352
1463,26.875,18.25,-152.5625,0.2216797,-1.552734,-0.1166992,-0.0078125,0.2700195,-0.1225586
1467,22,5.6875,-162.0625,0.190918,-1.591309,-0.07470703,-0.02246094,0.2685547,-0.1279297
1472,22.4375,-0.8125,-168.5625,0.1635742,-1.595215,-0.05517578,-0.03662109,0.2675781,-0.1303711
1476,21.8125,-0.625,-168.0625,0.1557617,-1.560547,-0.07080078,-0.04736328,0.2675781,-0.1289063
1480,22.25,7.5625,-165,0.2026367,-1.560547,-0.04394531,-0.06298828,0.2636719,-0.1303711
1484,27.5625,21.4375,-160.375,0.2177734,-1.580078,-0.01660156,-0.07958984,0.2597656,-0.1347656
1488,32.9375,34.25,-155.6875,0.190918,-1.541016,-0.02832031,-0.09033203,0.2573242,-0.1357422
1492,37.5625,39,-151.125,0.1713867,-1.486816,-0.04003906,-0.1020508,0.2524414,-0.137207
1496,39.5,40.375,-151.125,0.1674805,-1.424316,-0.04736328,-0.1137695,0.2475586,-0.1455078
1500,40,38.8125,-150.6875,0.09375,-1.374023,-0.03222656,-0.1220703,0.2426758,-0.1469727
1504,36.375,29.5625,-147.4375,0.03955078,-1.315918,-0.02832031,-0.1342773,0.2363281,-0.1523438
1508,31.25,13.4375,-144.3125,0.03955078,-1.249512,-0.03613281,-0.1459961,0.2314453,-0.15625
1512,26.125,0,-142.125,0.1171875,-1.203125,-0.01318359,-0.1533203,0.2211914,-0.1577148
1516,24.125,-7.4375,-139.9375,0.175293,-1.164063,0.009765625,-0.1650391,0.2148438,-0.1606445
1520,21.9375,-9,-137.875,0.2138672,-1.094238,0.001953125,-0.1782227,0.2050781,-0.1630859
1524,19.4375,-8.9375,-133.1875,0.2177734,-1.040039,0.005859375,-0.184082,0.2011719,-0.1606445
1528,17.125,-8.75,-129,0.2177734,-0.9853516,-0.001464844,-0.1948242,0.1914063,-0.1616211
1532,15.375,-10.25,-123.3125,0.2255859,-0.9580078,0.02880859,-0.203125,0.1811523,-0.1630859
1536,16.0625,-8.125,-117.3125,0.3032227,-0.9116211,0.04785156,-0.2104492,0.1772461,-0.1616211
1540,18.9375,4.875,-112.6875,0.3886719,-0.8764648,0.07910156,-0.21875,0.1689453,-0.1645508
1544,23,18.1875,-112.3125,0.3691406,-0.8066406,0.06347656,-0.2246094,0.1611328,-0.1660156
1548,25.0625,22.5625,-112.25,0.3110352,-0.7250977,0.02490234,-0.2280273,0.1538086,-0.168457
1552,23.9375,22.5625,-109.125,0.2724609,-0.6357422,0.02880859,-0.234375,0.1435547,-0.1728516
1556,23.3125,21.5,-104.125,0.2412109,-0.581543,0.04052734,-0.2387695,0.1347656,-0.1738281
1560,23.875,22.5625,-96.625,0.2294922,-0.519043,0.05175781,-0.2412109,0.1298828,-0.175293
1564,25.125,28.375,-87.625,0.2138672,-0.453125,0.05566406,-0.2446289,0.1210938,-0.1782227
1568,24.9375,32.25,-75.875,0.1635742,-0.3754883,0.02880859,-0.2470703,0.1113281,-0.1821289
1572,21.5625,27.5625,-66.0625,0.1328125,-0.2705078,0.01367188,-0.2470703,0.1088867,-0.1875
1576,14.8125,15.9375,-56.4375,0.1367188,-0.2202148,0.009765625,-0.2509766,0.1010742,-0.1889648
1580,6.9375,4.875,-49.8125,0.1987305,-0.1733398,0.01367188,-0.2509766,0.09375,-0.1889648
1584,0.875,-3.5,-44.5,0.2177734,-0.1733398,0.03662109,-0.2543945,0.09228516,-0.1889648
1588,-3.1875,-12.125,-37.4375,0.2568359,-0.2124023,0.09033203,-0.2543945,0.09130859,-0.1904297
1592,-0.75,-15.8125,-27.375,0.3613281,-0.2392578,0.144043,-0.2578125,0.08642578,-0.1875
1596,2.75,-11.6875,-19.625,0.4272461,-0.2353516,0.1210938,-0.2578125,0.08642578,-0.1889648
1601,4,-11.1875,-14.5625,0.4350586,-0.2163086,0.08642578,-0.2592773,0.08496094,-0.1875
1605,2.4375,-14.9375,-12.625,0.4736328,-0.2045898,0.08251953,-0.2602539,0.08251953,-0.1865234
1609,2.5,-18.125,-10.25,0.5009766,-0.1967773,0.08251953,-0.2626953,0.08398438,-0.1865234
1613,-0.3125,-21.6875,-7.125,0.5473633,-0.1655273,0.03271484,-0.2636719,0.08251953,-0.1850586
1617,-4.625,-21.375,-6.125,0.578125,-0.1772461,0.02880859,-0.2651367,0.08007813,-0.1821289
1621,-7.4375,-19.25,-2.5625,0.5551758,-0.2084961,0.04785156,-0.2651367,0.08007813,-0.1806641
1625,-8,-17.75,3.5625,0.5473633,-0.2241211,0.05957031,-0.2661133,0.08251953,-0.1806641
1629,-7.125,-14.3125,8.9375,0.5668945,-0.2202148,0.07519531,-0.2661133,0.08496094,-0.1796875
1633,-4.875,-7.3125,13.375,0.5629883,-0.2314453,0.07128906,-0.2661133,0.08398438,-0.1767578
1637,-3.9375,-1,19.4375,0.5239258,-0.2124023,0.05957031,-0.2661133,0.08496094,-0.1767578
1641,-5.375,-0.5625,26.5,0.4541016,-0.2163086,0.04443359,-0.2661133,0.08886719,-0.175293
1645,-8.25,-7.8125,31.8125,0.4467773,-0.2124023,0.04052734,-0.2651367,0.08984375,-0.1767578
1649,-11.125,-11.75,36.8125,0.4619141,-0.2431641,0.06738281,-0.2661133,0.09130859,-0.175293
1653,-12.75,-12.5625,43.6875,0.4697266,-0.2822266,0.08251953,-0.2626953,0.09521484,-0.1738281
1657,-13.125,-13.5625,45.625,0.4892578,-0.3017578,0.06738281,-0.2626953,0.09863281,-0.1713867
1661,-11.625,-14,46.9375,0.4814453,-0.3442383,0.07910156,-0.2602539,0.1025391,-0.1713867
1665,-8.6875,-9.4375,48.5,0.4814453,-0.371582,0.07910156,-0.2592773,0.1074219,-0.168457
1669,-3.6875,0.6875,55.0625,0.4077148,-0.4335938,0.09814453,-0.2578125,0.1098633,-0.168457
1673,2.4375,6.25,66.5,0.3730469,-0.4101563,0.05175781,-0.2553711,0.1176758,-0.1699219
1677,4.5,7.4375,74.125,0.3574219,-0.3793945,0.01367188,-0.2519531,0.1210938,-0.168457
1681,0,4.5625,78.625,0.3730469,-0.3793945,-0.02832031,-0.2485352,0.125,-0.168457
1685,-3,4.25,78.5,0.3808594,-0.46875,-0.005371094,-0.2446289,0.1323242,-0.168457
1689,-2.25,11,81.75,0.3535156,-0.519043,0.02880859,-0.2412109,0.1376953,-0.168457
1693,-3.5,17.75,87.75,0.3378906,-0.5307617,0.03662109,-0.2363281,0.1425781,-0.1699219
1697,-2.5625,24.5625,91,0.2724609,-0.5776367,0.06738281,-0.2304688,0.1474609,-0.1713867
1701,-5.1875,25.125,99.6875,0.1870117,-0.5966797,0.05175781,-0.2255859,0.1547852,-0.1728516
1705,-8.8125,20.1875,105.3125,0.1518555,-0.6513672,0.05566406,-0.2197266,0.1625977,-0.1738281
1709,-12.75,12.25,110.4375,0.1132813,-0.7250977,0.05175781,-0.2114258,0.1713867,-0.1728516
1713,-14,3.125,114.25,0.1210938,-0.8027344,0.05957031,-0.203125,0.1762695,-0.1713867
1717,-13.8125,-1,114.0625,0.1713867,-0.8686523,0.05566406,-0.1972656,0.1826172,-0.1728516
1721,-12.6875,3,116.3125,0.140625,-0.9233398,0.04443359,-0.1889648,0.1899414,-0.1728516
1725,-14.8125,5.1875,123.6875,0.07080078,-0.9619141,0.009765625,-0.1806641,0.1987305,-0.1713867
1730,-19.25,1.625,132,0.05126953,-1.000977,-0.03613281,-0.1772461,0.2036133,-0.1699219
1734,-25,-4.5,135.625,0.04345703,-1.070801,-0.05517578,-0.1640625,0.2084961,-0.168457
1738,-31.625,-14.0625,142.1875,0.008789063,-1.144531,-0.05517578,-0.1542969,0.21875,-0.1660156
1742,-43.5,-42.75,149.125,0.05126953,-1.199219,-0.112793,-0.1450195,0.2260742,-0.1630859
1746,-49.8125,-68.625,144.375,0.2294922,-1.300293,-0.05517578,-0.1352539,0.2338867,-0.1577148
1750,-44.3125,-67.875,139.3125,0.3925781,-1.424316,-0.02050781,-0.1269531,0.2397461,-0.1523438
1754,-31.875,-42.25,144.6875,0.4697266,-1.537109,0.005859375,-0.1176758,0.2436523,-0.1469727
1758,-21.6875,-12.4375,151.9375,0.4697266,-1.548828,-0.05126953,-0.1069336,0.25,-0.1455078
1762,-15.875,6.6875,152.75,0.4194336,-1.517578,-0.1015625,-0.09130859,0.2539063,-0.1401367
1766,-17.6875,13.5625,146.625,0.3417969,-1.436035,-0.1323242,-0.08398438,0.2587891,-0.1425781
1770,-24.3125,12.4375,139.0625,0.2568359,-1.416504,-0.109375,-0.06982422,0.2587891,-0.1401367
1774,-27.0625,11.625,134.4375,0.1791992,-1.443848,-0.05126953,-0.05664063,0.262207,-0.1386719
1778,-25.5,9.8125,133.375,0.1210938,-1.471191,-0.01318359,-0.04736328,0.2636719,-0.1357422
1782,-23,5.6875,132.9375,0.1054688,-1.479004,-0.03613281,-0.03515625,0.2651367,-0.1357422
1786,-25.75,3.5625,132.8125,0.1289063,-1.455566,-0.05908203,-0.02099609,0.2661133,-0.1347656
1790,-28.9375,2.625,125.4375,0.1987305,-1.439941,-0.04736328,-0.01269531,0.2685547,-0.1318359
1794,-29.75,4.875,115.25,0.1713867,-1.436035,-0.02050781,-0.001953125,0.2661133,-0.1303711
1798,-29.375,4.625,109.625,0.08642578,-1.432129,0.009765625,0.009277344,0.2661133,-0.1264648
1802,-28.75,0.1875,105.1875,0.05908203,-1.428223,0.03271484,0.01513672,0.2675781,-0.1279297
1806,-31.25,-6.0625,98.375,0.09375,-1.428223,0.009765625,0.02490234,0.2685547,-0.1225586
1810,-29.625,-12.25,91.25,0.09765625,-1.475098,0.02880859,0.03417969,0.2661133,-0.1210938
1814,-25.875,-16,88.8125,0.1015625,-1.475098,0.001953125,0.04052734,0.2661133,-0.1181641
1818,-26.75,-24.25,87.6875,0.07470703,-1.416504,-0.02832031,0.04882813,0.2661133,-0.1166992
1822,-31.5,-39.5,87,0.08642578,-1.393555,-0.04394531,0.05566406,0.2636719,-0.1142578
1826,-35.0625,-56.5625,84.6875,0.1054688,-1.401367,-0.005371094,0.06152344,0.262207,-0.1113281
1830,-34.5625,-80.1875,76.1875,0.09375,-1.366211,-0.02441406,0.06787109,0.2612305,-0.1098633
1834,-37.375,-111.375,65.9375,0.140625,-1.366211,-0.1166992,0.07617188,0.2587891,-0.1044922
1838,-38,-137.3125,57.9375,0.3613281,-1.432129,-0.1362305,0.07958984,0.2548828,-0.1044922
1842,-29.0625,-133.125,51.375,0.659668,-1.490723,-0.1166992,0.08447266,0.25,-0.105957
1846,-13.1875,-84.375,81.6875,1.752441,-2.069336,0.07128906,0.08886719,0.2451172,-0.1098633
1850,39.0625,20.9375,0.6875,1.589844,-1.618652,0.03271484,0.09375,0.2412109,-0.1074219
1854,36.0625,36.0625,-33.875,0.675293,-1.183594,-0.59375,0.09521484,0.2387695,-0.1088867
1859,-0.3125,-9.1875,-42,0.3071289,-1.062988,-0.5131836,0.09130859,0.2426758,-0.1088867
1863,-10.125,-18.5,-32.5,0.3847656,-1.241699,-0.2167969,0.08789063,0.2460938,-0.1074219
1867,-6.1875,-0.6875,-13.75,0.6054688,-1.401367,-0.1743164,0.08300781,0.25,-0.1098633
1871,-3.125,10.5,-26.3125,0.7177734,-1.34668,-0.1860352,0.08056641,0.2539063,-0.105957
1875,-3.8125,16.625,-50.9375,0.7836914,-1.455566,-0.1474609,0.07470703,0.2563477,-0.1074219
1879,2.1875,20.625,-82.125,0.7529297,-1.544922,-0.1206055,0.06542969,0.2612305,-0.1098633
1883,10.3125,29.9375,-105.875,0.644043,-1.580078,-0.109375,0.05712891,0.2636719,-0.1098633
1887,16.25,41.375,-115.75,0.4580078,-1.548828,-0.1552734,0.05078125,0.2651367,-0.112793
1891,17.25,47,-116.125,0.3149414,-1.525391,-0.1899414,0.03662109,0.2675781,-0.1142578
1895,13.25,43.375,-114.3125,0.2685547,-1.517578,-0.2285156,0.02832031,0.2685547,-0.1166992
1899,10.75,36.1875,-118.6875,0.2875977,-1.587891,-0.1860352,0.02148438,0.2685547,-0.1157227
1903,12.6875,33.9375,-127.4375,0.3339844,-1.606934,-0.1513672,0.01171875,0.2700195,-0.1181641
1907,12.9375,37.5,-137,0.3266602,-1.603027,-0.1362305,0,0.2724609,-0.1166992
1911,13.125,40.1875,-143.3125,0.2758789,-1.622559,-0.109375,-0.0078125,0.2724609,-0.1196289
1915,14.1875,39.125,-148,0.2026367,-1.638184,-0.09765625,-0.02099609,0.2709961,-0.1196289
1919,14.4375,30.6875,-151.875,0.1445313,-1.64209,-0.08984375,-0.03515625,0.2709961,-0.1210938
1923,14.0625,18.875,-158.125,0.1328125,-1.622559,-0.08203125,-0.04394531,0.2700195,-0.1225586
1927,14.4375,12.375,-163.25,0.1132813,-1.603027,-0.04736328,-0.06054688,0.2685547,-0.1235352
1931,13.125,8.125,-165.6875,0.1210938,-1.541016,-0.07470703,-0.07470703,0.2636719,-0.1210938
1935,10.125,7.625,-167.0625,0.1171875,-1.505859,-0.05517578,-0.08300781,0.262207,-0.1235352
1939,10,7.8125,-166.125,0.109375,-1.498535,-0.02832031,-0.1010742,0.2573242,-0.1235352
1943,12.0625,5.8125,-163.125,0.09765625,-1.467285,-0.02832031,-0.1152344,0.2524414,-0.1235352
1947,14.625,4.625,-160.0625,0.1557617,-1.432129,0.001953125,-0.1259766,0.25,-0.125
1951,18.5625,11.375,-156.3125,0.1518555,-1.401367,0.02490234,-0.1376953,0.2451172,-0.1279297
1955,23.75,14.75,-148.5625,0.1171875,-1.366211,0.02099609,-0.1533203,0.2373047,-0.1303711
1959,25.9375,14.125,-143.125,0.1328125,-1.304199,0.02490234,-0.1582031,0.2299805,-0.1318359
1963,27.25,14.375,-141.625,0.1713867,-1.26123,0.02490234,-0.1723633,0.2226563,-0.1347656
1967,29.125,14.6875,-141.1875,0.1987305,-1.1875,0.01367188,-0.1831055,0.2138672,-0.1386719
1971,31.25,16.125,-140,0.190918,-1.121582,0.01708984,-0.1914063,0.2060547,-0.137207
1975,34.3125,15.25,-135.125,0.1791992,-1.066895,0.001953125,-0.2006836,0.1972656,-0.1401367
1979,35,13.125,-129.0625,0.1674805,-0.9775391,-0.01660156,-0.2080078,0.1875,-0.144043
1983,35.875,9.6875,-120.6875,0.175293,-0.9233398,-0.02441406,-0.2163086,0.1811523,-0.1484375
1988,34.625,6.8125,-113.75,0.2104492,-0.8261719,-0.04394531,-0.2246094,0.1713867,-0.1494141
1992,29.375,4.875,-108.375,0.2724609,-0.7524414,-0.05908203,-0.2304688,0.1611328,-0.1538086
1996,22.0625,0.1875,-105.8125,0.3032227,-0.6977539,-0.06689453,-0.234375,0.15625,-0.1547852
2000,17.8125,-2.5,-106.6875,0.3457031,-0.6787109,-0.03613281,-0.2412109,0.1474609,-0.1547852
2004,17.4375,1.75,-107.5625,0.3691406,-0.6435547,0.01367188,-0.2470703,0.1401367,-0.15625
2008,18.6875,9.5625,-104.375,0.3188477,-0.5854492,0.001953125,-0.2495117,0.1323242,-0.1591797
2012,18,9.6875,-95.9375,0.2490234,-0.5268555,-0.005371094,-0.2553711,0.1235352,-0.1606445
2016,15.125,6.875,-84.0625,0.2724609,-0.4453125,-0.01318359,-0.2617188,0.1137695,-0.1606445
2020,11,5.3125,-75.75,0.3110352,-0.3989258,-0.001464844,-0.2626953,0.1088867,-0.1630859
2024,8.5625,7.875,-70.375,0.3378906,-0.3520508,0.02099609,-0.2651367,0.1000977,-0.1616211
2028,8.6875,12.125,-64.6875,0.3339844,-0.3286133,0.04052734,-0.2685547,0.09619141,-0.1660156
2032,8.875,15.4375,-57.5,0.2993164,-0.2744141,0.04443359,-0.2700195,0.09375,-0.1660156
2036,6.75,10,-50.75,0.2685547,-0.2314453,0.03271484,-0.2685547,0.08642578,-0.1674805
2040,3.6875,0.375,-43.125,0.2758789,-0.2275391,0.04443359,-0.2700195,0.08398438,-0.1674805
2044,2.6875,-7,-34.125,0.3266602,-0.2124023,0.04785156,-0.2734375,0.08105469,-0.168457
2048,1.5625,-9.875,-24.125,0.3959961,-0.2163086,0.06738281,-0.2758789,0.07861328,-0.1660156
2052,3.25,-9.8125,-18.125,0.4506836,-0.2006836,0.05566406,-0.2758789,0.07519531,-0.1660156
2056,1.25,-11.25,-13.75,0.4658203,-0.1967773,0.02880859,-0.2783203,0.07275391,-0.1674805
2060,-0.75,-13.875,-9.75,0.5009766,-0.1967773,0.03271484,-0.2768555,0.07373047,-0.1674805
2064,1.5,-12.9375,-5.5625,0.5395508,-0.2275391,0.03271484,-0.2783203,0.07128906,-0.1645508
2068,4.25,-8.4375,-1.1875,0.5708008,-0.2045898,0.009765625,-0.2792969,0.07373047,-0.1660156
2072,4.8125,-3.5625,1.5625,0.574707,-0.1772461,-0.02050781,-0.2792969,0.07128906,-0.1630859
2076,3.4375,-2.3125,4.0625,0.5512695,-0.1499023,-0.05126953,-0.2807617,0.07275391,-0.1630859
2080,-2.125,-3.875,6.625,0.5512695,-0.1152344,-0.08984375,-0.2783203,0.07275391,-0.1645508
2084,-8.0625,-5.5625,10.375,0.5317383,-0.1459961,-0.07861328,-0.2792969,0.07275391,-0.1630859
2088,-10.625,-4.4375,15.9375,0.5395508,-0.1928711,-0.05126953,-0.2817383,0.07519531,-0.1616211
2092,-10.375,0.125,22.25,0.5356445,-0.2084961,-0.01318359,-0.2792969,0.07519531,-0.1606445
2096,-11.3125,1.3125,27.6875,0.5087891,-0.1967773,-0.02441406,-0.2783203,0.07861328,-0.1616211
2100,-12.9375,-0.4375,33,0.4775391,-0.2241211,-0.01318359,-0.2768555,0.08251953,-0.1591797
2104,-14.4375,-2.0625,38.75,0.4775391,-0.2431641,0.001953125,-0.2758789,0.08398438,-0.1616211
2108,-13.1875,-2,41.75,0.4736328,-0.2548828,0.009765625,-0.2744141,0.08886719,-0.1577148
2112,-11.125,0.6875,43.3125,0.4272461,-0.2666016,0.02099609,-0.2734375,0.09130859,-0.1591797
2117,-9.4375,2.5625,48.4375,0.3730469,-0.2900391,0.001953125,-0.2709961,0.09521484,-0.15625
2121,-5.75,7.3125,57.375,0.3496094,-0.3095703,0.01367188,-0.2700195,0.09863281,-0.1577148
2125,-4.5625,12.1875,66.3125,0.3071289,-0.2900391,-0.01660156,-0.2661133,0.1049805,-0.1577148
2129,-6.125,13.25,75.0625,0.2490234,-0.3056641,-0.04003906,-0.2651367,0.1098633,-0.1591797
2133,-8.875,11.375,82.625,0.2104492,-0.3637695,-0.03613281,-0.2592773,0.1176758,-0.1606445
2137,-11.1875,6.5625,87.9375,0.2333984,-0.402832,-0.03613281,-0.2543945,0.125,-0.1606445
2141,-11.8125,8.875,90.5,0.2685547,-0.46875,0.001953125,-0.253418,0.1298828,-0.1591797
2145,-10.375,18.4375,95.625,0.2177734,-0.5581055,0.04785156,-0.2470703,0.1376953,-0.1606445
2149,-9.3125,25.25,104.1875,0.1635742,-0.5698242,0.03662109,-0.2402344,0.1474609,-0.1630859
2153,-11,22.5,111.875,0.09765625,-0.5927734,0.02099609,-0.234375,0.1513672,-0.1616211
2157,-15.8125,14.1875,119.3125,0.05908203,-0.6591797,0.009765625,-0.2255859,0.1586914,-0.1616211
2161,-19,4.375,123.5625,0.07470703,-0.7407227,0.01367188,-0.2197266,0.1689453,-0.1616211
2165,-16.875,1.1875,126.875,0.08642578,-0.8457031,0.009765625,-0.2128906,0.1748047,-0.1616211
2169,-15.875,3.8125,134.25,0.02832031,-0.9350586,-0.005371094,-0.2055664,0.1850586,-0.1616211
2173,-19.4375,1.75,142.375,0.05517578,-0.9775391,-0.05126953,-0.1948242,0.1938477,-0.1591797
2177,-19.9375,1.9375,144.0625,0.07861328,-1.062988,-0.03222656,-0.1865234,0.2011719,-0.1577148
2181,-20.1875,4.5625,145.9375,0.06298828,-1.090332,-0.03222656,-0.1757813,0.2084961,-0.15625
2185,-22.875,2,149.5625,-0.04882813,-1.15625,-0.05908203,-0.1625977,0.21875,-0.1547852
2189,-35.4375,-19.4375,157.1875,-0.04492188,-1.195313,-0.1362305,-0.1567383,0.2226563,-0.1547852
2193,-41.75,-33.0625,158.3125,0.07861328,-1.342773,-0.1015625,-0.1435547,0.2338867,-0.1494141
2197,-38.875,-27.1875,159.5,0.1518555,-1.463379,-0.03613281,-0.1303711,0.2412109,-0.1455078
2201,-29.0625,-13.5625,161.5625,0.1328125,-1.517578,0.001953125,-0.1201172,0.2460938,-0.1425781
2205,-24.25,-9.0625,169.375,0.1171875,-1.475098,-0.09765625,-0.1069336,0.2524414,-0.1401367
2209,-28.375,-12.5,169.125,0.1635742,-1.479004,-0.128418,-0.09228516,0.2563477,-0.137207
2213,-30.75,-12,160.9375,0.1445313,-1.509766,-0.1015625,-0.08203125,0.2587891,-0.1333008
2217,-34.5,-11.5625,152.5,0.09033203,-1.568359,-0.1054688,-0.06738281,0.262207,-0.1318359
2221,-35.9375,-12.4375,149.5,0.03564453,-1.626465,-0.09375,-0.05322266,0.2661133,-0.1303711
2225,-33.75,-13.5,151.125,0.01269531,-1.669434,-0.07080078,-0.04394531,0.2675781,-0.1264648
2229,-35.1875,-17.4375,153.6875,0.03564453,-1.634277,-0.1245117,-0.02929688,0.2700195,-0.1235352
2233,-39.125,-22.1875,151.125,0.1015625,-1.657715,-0.08984375,-0.01513672,0.2709961,-0.1210938
2237,-40.8125,-29.75,141.75,0.1948242,-1.708008,-0.07861328,-0.005859375,0.2709961,-0.1196289
2241,-36.75,-32.5,126.25,0.3305664,-1.785645,-0.01318359,0.005859375,0.2709961,-0.1142578
2246,-20.875,-25.75,115.8125,0.3999023,-1.83252,0.05175781,0.01757813,0.2709961,-0.1113281
2250,-5.6875,-10.875,109.3125,0.4736328,-1.739258,0.01708984,0.02246094,0.2709961,-0.112793
2254,0.3125,3.375,104.25,0.4389648,-1.614746,-0.06298828,0.03417969,0.2685547,-0.112793
2258,0.5,8.25,100.375,0.3925781,-1.525391,-0.1054688,0.04394531,0.2661133,-0.112793
2262,-5.4375,0.25,95.5,0.2954102,-1.455566,-0.1401367,0.05078125,0.2651367,-0.1113281
2266,-14.6875,-21.125,93.5,0.2216797,-1.443848,-0.1206055,0.06152344,0.2612305,-0.112793
2270,-20.9375,-45.625,90.9375,0.2915039,-1.471191,-0.08203125,0.06982422,0.2573242,-0.1113281
2274,-22.5,-60.625,84.0625,0.4194336,-1.486816,-0.05126953,0.07714844,0.2563477,-0.1113281
2278,-19.8125,-63.75,74.625,0.5395508,-1.494629,-0.009277344,0.08544922,0.2509766,-0.112793
2282,-15.0625,-57.5,60.3125,0.5859375,-1.479004,0.02099609,0.09521484,0.2460938,-0.1113281
2286,-10.125,-43.3125,76.3125,1.213867,-2.003418,0.1787109,0.09619141,0.2426758,-0.1157227
2290,27.9375,11.3125,7.3125,1.159668,-1.560547,0.1132813,0.1035156,0.2387695,-0.1166992
2294,30.625,20.125,-26.0625,0.5898438,-1.253418,-0.2246094,0.1020508,0.2373047,-0.1225586
2298,10.9375,-14.0625,-36.4375,0.1987305,-1.08252,-0.378418,0.1010742,0.2373047,-0.1210938
2302,-2.875,-22.375,-22.875,0.2954102,-1.226563,-0.07470703,0.09619141,0.2412109,-0.1210938
2306,7.25,4.8125,-0.0625,0.5200195,-1.471191,-0.04003906,0.09375,0.2436523,-0.1196289
2310,9.3125,17.8125,-11.9375,0.6171875,-1.312012,-0.109375,0.09277344,0.2451172,-0.1157227
2314,5.6875,17.8125,-41.9375,0.6791992,-1.424316,-0.07080078,0.09130859,0.2475586,-0.1166992
2318,13.6875,24.625,-74.125,0.6713867,-1.541016,0.02490234,0.08300781,0.2509766,-0.1142578
2322,26.8125,40.1875,-91.6875,0.5161133,-1.568359,0.03271484,0.07470703,0.2548828,-0.1166992
2326,34.5,50.9375,-99,0.3378906,-1.505859,-0.03613281,0.06787109,0.2597656,-0.1181641
2330,33.5625,44.8125,-101,0.159668,-1.479004,-0.09765625,0.05810547,0.2612305,-0.1196289
2334,29.1875,28.8125,-104.1875,0.1484375,-1.459473,-0.1362305,0.05224609,0.2612305,-0.1235352
2338,24.875,17.75,-108.9375,0.206543,-1.501953,-0.112793,0.04248047,0.262207,-0.1279297
2342,21.75,7.1875,-121.9375,0.2607422,-1.494629,-0.1206055,0.03320313,0.2651367,-0.1289063
2346,19.375,3.4375,-135.25,0.2993164,-1.533203,-0.08984375,0.0234375,0.2651367,-0.1279297
2350,19.9375,9.625,-142.1875,0.2529297,-1.560547,-0.04394531,0.01171875,0.2651367,-0.1318359
2354,21.4375,14.125,-143.5625,0.1674805,-1.556641,-0.04394531,0,0.2661133,-0.1303711
2358,18.5625,6.125,-146,0.1132813,-1.537109,-0.08984375,-0.009277344,0.2661133,-0.1333008
2362,13.25,-6.3125,-151.9375,0.1289063,-1.533203,-0.06689453,-0.02490234,0.2651367,-0.1333008
2366,12.4375,-13.3125,-156.6875,0.1445313,-1.548828,-0.05126953,-0.03759766,0.2661133,-0.1318359
2370,13.0625,-13.375,-159.9375,0.1713867,-1.552734,-0.01660156,-0.05078125,0.2661133,-0.1357422
2375,15.125,-9.0625,-161.625,0.1948242,-1.537109,-0.02441406,-0.06396484,0.2636719,-0.1357422
2379,16.75,1.5,-161,0.1831055,-1.505859,-0.005371094,-0.07958984,0.2587891,-0.1357422
2383,17.6875,9.5625,-157.25,0.1484375,-1.475098,-0.005371094,-0.09033203,0.2548828,-0.1386719
2387,17.1875,10.75,-154.4375,0.1171875,-1.447754,-0.02441406,-0.1030273,0.2509766,-0.1357422
2391,16.8125,6.9375,-153,0.1328125,-1.412598,-0.01318359,-0.1186523,0.2460938,-0.1401367
2395,17.5625,4.6875,-152.0625,0.140625,-1.381836,0.01367188,-0.1269531,0.2436523,-0.1416016
2399,18.75,1.9375,-149.9375,0.1518555,-1.323242,0.005859375,-0.1411133,0.2387695,-0.1425781
2403,17.9375,-1.25,-145.8125,0.159668,-1.288574,0.009765625,-0.1542969,0.2314453,-0.144043
2407,15.8125,-4,-142.8125,0.2026367,-1.22998,0.01367188,-0.1616211,0.2226563,-0.144043
2411,14.9375,-6.9375,-140.9375,0.2138672,-1.210938,0.04052734,-0.1733398,0.2172852,-0.144043
2415,14.4375,-10.25,-139.6875,0.2412109,-1.160156,0.03271484,-0.1831055,0.2084961,-0.1484375
2419,14.5,-13.75,-136.4375,0.2685547,-1.133301,0.05566406,-0.1923828,0.2011719,-0.1455078
2423,15.4375,-15.9375,-133.875,0.3110352,-1.105957,0.05566406,-0.203125,0.1938477,-0.1469727
2427,17.1875,-15.5,-132,0.3613281,-1.059082,0.05957031,-0.2138672,0.1850586,-0.1469727
2431,18.625,-10.4375,-129,0.3925781,-1.000977,0.04443359,-0.2211914,0.1772461,-0.1455078
2435,19.9375,-3.8125,-125.4375,0.4155273,-0.9506836,0.04052734,-0.2280273,0.1699219,-0.1455078
2439,21.4375,2.5625,-122.6875,0.4155273,-0.8920898,0.02490234,-0.234375,0.1577148,-0.1469727
2443,21.5,6.1875,-121.125,0.3959961,-0.8183594,0.009765625,-0.2412109,0.1489258,-0.1508789
2447,20.875,6.5,-119.1875,0.3691406,-0.7641602,-0.001464844,-0.2495117,0.1411133,-0.1523438
2451,20.5,7.875,-115.125,0.3769531,-0.6938477,-0.01660156,-0.253418,0.1289063,-0.1523438
2455,18.75,12.1875,-109.6875,0.3691406,-0.6123047,-0.02441406,-0.2592773,0.125,-0.1538086
2459,16.4375,15.125,-100.5625,0.3339844,-0.5541992,-0.02832031,-0.2636719,0.1123047,-0.1577148
2463,13.0625,12.125,-93.375,0.3305664,-0.4921875,-0.04003906,-0.2675781,0.1035156,-0.1606445
2467,10.5,9.1875,-89.625,0.3769531,-0.4453125,-0.02050781,-0.2685547,0.09863281,-0.1606445
2471,12.125,17.4375,-88.0625,0.4194336,-0.4067383,0.03271484,-0.2734375,0.09130859,-0.1616211
2475,17.1875,32.5,-83.3125,0.3808594,-0.371582,0.04443359,-0.2734375,0.08251953,-0.1645508
2479,23.3125,44.375,-76.875,0.3149414,-0.2705078,0.02490234,-0.2744141,0.07617188,-0.1674805
2483,22.4375,48.9375,-69.3125,0.2177734,-0.1772461,-0.01318359,-0.2744141,0.06884766,-0.1728516
2487,18.1875,44.125,-58.875,0.1445313,-0.1152344,0.009765625,-0.2758789,0.0625,-0.1782227
2491,14.25,31,-46.4375,0.109375,-0.08789063,0.02099609,-0.2758789,0.05761719,-0.1782227
2495,9.75,13.5625,-38.0625,0.175293,-0.03759766,0.02099609,-0.2758789,0.05273438,-0.1821289
2499,5.625,2.125,-31,0.2490234,-0.03369141,0.04443359,-0.2768555,0.05126953,-0.1835938
2504,0,-4.1875,-22.375,0.3149414,-0.04882813,0.02880859,-0.2758789,0.04736328,-0.1835938
2508,-4.8125,-9.875,-14.5625,0.3730469,-0.06445313,0.05175781,-0.2783203,0.04492188,-0.1821289
2512,-5.875,-12.0625,-8.4375,0.4389648,-0.08398438,0.09033203,-0.2768555,0.04638672,-0.1782227
2516,-5.125,-12.4375,-2.3125,0.4775391,-0.1113281,0.125,-0.2768555,0.04492188,-0.1806641
2520,-4.25,-15.8125,4.0625,0.4892578,-0.1577148,0.1289063,-0.2807617,0.04492188,-0.1782227
2524,-0.875,-22.75,6.875,0.5551758,-0.1772461,0.09423828,-0.2817383,0.04638672,-0.1782227
2528,1,-23,5.8125,0.659668,-0.1577148,0.06738281,-0.2792969,0.04638672,-0.1767578
2532,1.25,-15.5625,7.1875,0.6674805,-0.1538086,0.04443359,-0.2817383,0.04736328,-0.175293
2536,0.75,-11.3125,13.8125,0.6132813,-0.1694336,0.01708984,-0.2827148,0.04736328,-0.175293
2540,-0.9375,-14.25,20.6875,0.6289063,-0.1538086,0.001953125,-0.2817383,0.04980469,-0.1728516
2544,-4.25,-16,23.9375,0.6635742,-0.1772461,0.001953125,-0.2817383,0.05126953,-0.1713867
2548,-5,-13.875,27.75,0.6518555,-0.2124023,0.01708984,-0.2817383,0.05273438,-0.1713867
2552,-3.375,-11.625,34.75,0.6401367,-0.2353516,0.02099609,-0.2817383,0.05615234,-0.168457
2556,-3.125,-9.9375,41.625,0.659668,-0.2124023,-0.009277344,-0.2807617,0.05859375,-0.1674805
2560,-5.5625,-7.25,44.0625,0.675293,-0.2006836,-0.04003906,-0.2817383,0.06396484,-0.1645508
2564,-9.3125,-4.5625,42.75,0.6401367,-0.2006836,-0.04394531,-0.2807617,0.06640625,-0.1660156
2568,-12.3125,-3.4375,42.5625,0.574707,-0.2314453,-0.01660156,-0.2783203,0.06982422,-0.1645508
2572,-13,-1.375,46.3125,0.5126953,-0.2470703,0.02490234,-0.2768555,0.07275391,-0.1645508
2576,-9.125,2.375,54.3125,0.4697266,-0.2548828,0.02490234,-0.2758789,0.07861328,-0.1630859
2580,-9.5,6.625,62.4375,0.4311523,-0.2392578,-0.01660156,-0.2744141,0.08398438,-0.1660156
2584,-9.8125,11.625,70.875,0.3925781,-0.2509766,-0.02050781,-0.2709961,0.08984375,-0.1645508
2588,-13.5,17.5625,76,0.3613281,-0.2392578,-0.02441406,-0.2700195,0.09375,-0.1645508
2592,-14.5625,24.375,80.375,0.2797852,-0.3173828,0.02490234,-0.2651367,0.1010742,-0.1660156
2596,-16.25,24.5625,85.0625,0.1987305,-0.355957,0.04443359,-0.2592773,0.1088867,-0.1674805
2600,-18.6875,22.125,91.75,0.1635742,-0.4067383,0.07910156,-0.2543945,0.1137695,-0.1660156
2604,-19.625,16.875,98.25,0.1289063,-0.4570313,0.1020508,-0.2509766,0.1235352,-0.168457
2608,-19.875,9.375,104.25,0.1132813,-0.534668,0.09814453,-0.2446289,0.1313477,-0.1674805
2612,-21.25,1.375,111.3125,0.109375,-0.6044922,0.09814453,-0.2402344,0.1376953,-0.168457
2616,-18.8125,-4.8125,116.625,0.1054688,-0.6977539,0.1098633,-0.2353516,0.1459961,-0.1660156
2620,-13.125,-5.5625,122.75,0.125,-0.7949219,0.1171875,-0.2280273,0.1547852,-0.1660156
2624,-6.3125,-0.4375,137.375,0.1518555,-0.8535156,0.08642578,-0.222168,0.1635742,-0.1660156
2628,-5,6.75,146.4375,0.190918,-0.9038086,0.02880859,-0.2128906,0.1723633,-0.1630859
2633,-4.3125,11.875,150.875,0.1713867,-0.9467773,0.02880859,-0.203125,0.1835938,-0.1630859
2637,-3.6875,11.5625,147.6875,0.1557617,-0.9853516,0.02490234,-0.1948242,0.1899414,-0.1645508
2641,-8.125,7.3125,149.25,0.1171875,-0.9931641,-0.02050781,-0.184082,0.1987305,-0.1645508
2645,-17.625,-1.4375,148.1875,0.125,-1.066895,-0.03222656,-0.1723633,0.2075195,-0.1616211
2649,-24.0625,-4.0625,146.5625,0.1289063,-1.199219,0.01708984,-0.1650391,0.2163086,-0.1645508
2653,-25,-3.3125,151.0625,0.1132813,-1.29248,0.05175781,-0.1533203,0.2236328,-0.1616211
2657,-19.5625,1.125,157.1875,0.1210938,-1.374023,0.06738281,-0.1411133,0.2299805,-0.1591797
2661,-15.1875,11.5625,158.9375,0.175293,-1.381836,0.07128906,-0.1293945,0.2338867,-0.1577148
2665,-12.0625,29.75,163.9375,0.109375,-1.45166,0.07519531,-0.1176758,0.2387695,-0.1591797
2669,-14.25,38.9375,166.8125,0.06298828,-1.428223,0.04052734,-0.1010742,0.2436523,-0.1606445
2673,-16.75,37.125,164.6875,-0.01806641,-1.463379,0.05566406,-0.09033203,0.2460938,-0.1591797
2677,-20.375,27,164.625,-0.08398438,-1.490723,0.04052734,-0.07324219,0.2524414,-0.1577148
2681,-24.125,16.8125,163.1875,-0.07617188,-1.525391,0.04443359,-0.05664063,0.2539063,-0.15625
2685,-26.8125,14,160.9375,-0.08398438,-1.568359,0.05566406,-0.04589844,0.2563477,-0.1547852
2689,-28.9375,14,159.875,-0.1069336,-1.599121,0.05175781,-0.02929688,0.2563477,-0.1523438
2693,-30.875,12.125,158.4375,-0.09912109,-1.595215,0.04052734,-0.01611328,0.2587891,-0.1494141
2697,-34.125,8.5,156.4375,-0.05273438,-1.587891,0.01708984,-0.005859375,0.2597656,-0.1494141
2701,-41.25,1.3125,150.0625,-0.04101563,-1.591309,-0.02441406,0.009277344,0.2612305,-0.1455078
2705,-52.6875,-18.3125,144.5,-0.06445313,-1.626465,-0.06298828,0.02246094,0.262207,-0.1425781
2709,-60.1875,-45.875,135.6875,-0.01416016,-1.723633,-0.009277344,0.03173828,0.2597656,-0.1401367
2713,-57.6875,-71.9375,125.625,0.08251953,-1.812988,0.04052734,0.04248047,0.2612305,-0.1347656
2717,-48.125,-87.875,116.8125,0.2490234,-1.852051,0.06738281,0.04980469,0.2597656,-0.1318359
2721,-34.1875,-87,107.4375,0.4541016,-1.809082,0.009765625,0.0546875,0.2587891,-0.1303711
2725,-24.0625,-80.75,94.5625,0.527832,-1.688477,-0.09375,0.06396484,0.2587891,-0.1279297
2729,-22.75,-73.25,87.875,0.543457,-1.606934,-0.1669922,0.06982422,0.2563477,-0.125
2733,-23.3125,-69.75,85.625,0.5512695,-1.587891,-0.1474609,0.07470703,0.2524414,-0.1225586
2737,-21.125,-64.875,81.25,0.6132813,-1.603027,-0.109375,0.08691406,0.2475586,-0.1210938
2741,-16.3125,-54.75,102.4375,1.155762,-2.267578,0.03662109,0.09619141,0.2397461,-0.1196289
2745,52.125,59.25,61.5625,2.112793,-2.034668,0.5595703,0.1044922,0.2324219,-0.1181641
2749,86.1875,110.25,-16.8125,1.124512,-1.537109,-0.3476563,0.1118164,0.2260742,-0.1210938
2753,28.8125,40.25,-41.9375,0.3496094,-1.032227,-0.628418,0.1118164,0.2275391,-0.1235352
2757,-8.625,-19.625,-52.6875,0.1831055,-1.140625,-0.3325195,0.1069336,0.2338867,-0.1235352
2762,-16.75,-30.25,-33.375,0.3613281,-1.428223,-0.04003906,0.1010742,0.2373047,-0.1235352
2766,-8.125,-3.375,-16.625,0.6948242,-1.436035,-0.009277344,0.09521484,0.2412109,-0.125
2770,-4,16.1875,-31.25,0.690918,-1.556641,0.02880859,0.09277344,0.2436523,-0.1264648
2774,9.125,27,-62.625,0.7294922,-1.626465,0.09033203,0.08691406,0.2485352,-0.1264648
2778,26.625,38.9375,-95.5625,0.6015625,-1.653809,0.09423828,0.07617188,0.2524414,-0.1303711
2782,38.75,51.9375,-108.625,0.4116211,-1.599121,0.04785156,0.07226563,0.2539063,-0.1347656
2786,42,57.0625,-112.6875,0.2177734,-1.525391,-0.04394531,0.06298828,0.2548828,-0.1347656
2790,36.25,50.25,-115.6875,0.1054688,-1.459473,-0.109375,0.05566406,0.2563477,-0.1416016
2794,25.3125,34.5625,-121.5,0.05126953,-1.455566,-0.1166992,0.04980469,0.2563477,-0.1416016
2798,15.5,17.5625,-127.5,0.04345703,-1.498535,-0.06298828,0.03662109,0.2573242,-0.1425781
2802,10.625,0.6875,-135.5625,0.09765625,-1.560547,-0.009277344,0.02587891,0.2612305,-0.144043
2806,9.625,-3.3125,-143.5625,0.1445313,-1.591309,0.02490234,0.01660156,0.2612305,-0.144043
2810,11.5,-1.75,-146.375,0.1445313,-1.630371,0.04785156,0.003417969,0.262207,-0.144043
2814,14.75,1.1875,-151.1875,0.1518555,-1.61084,0.04052734,-0.009277344,0.262207,-0.1455078
2818,15.3125,1.625,-156.0625,0.1132813,-1.580078,0.01367188,-0.01757813,0.262207,-0.1455078
2822,14.4375,1.8125,-159.125,0.09765625,-1.552734,0.005859375,-0.03320313,0.262207,-0.1469727
2826,13.6875,2.75,-161.4375,0.08251953,-1.498535,0.001953125,-0.04980469,0.2587891,-0.1469727
2830,11.875,5.0625,-160.125,0.02832031,-1.471191,-0.009277344,-0.05908203,0.2587891,-0.1469727
2834,7.75,1.6875,-154.5,-0.01416016,-1.424316,-0.01660156,-0.07324219,0.2573242,-0.1484375
2838,2.3125,-8.75,-150.9375,-0.006347656,-1.408691,-0.02050781,-0.08789063,0.2524414,-0.1484375
2842,-1.9375,-21.1875,-153.8125,0.04736328,-1.405273,0.02099609,-0.09716797,0.2524414,-0.1494141
2846,-3.375,-26.6875,-156,0.1328125,-1.366211,0.05566406,-0.1113281,0.2460938,-0.1484375
2850,-2.8125,-24,-155.125,0.1674805,-1.366211,0.05175781,-0.128418,0.2426758,-0.1455078
2854,-4.375,-19.5625,-151.5625,0.1948242,-1.315918,0.04443359,-0.1367188,0.2373047,-0.144043
2858,-7.0625,-23.75,-147.625,0.1870117,-1.296387,0.03271484,-0.1518555,0.2314453,-0.144043
2862,-8.3125,-32.9375,-146,0.2412109,-1.257324,0.04443359,-0.1650391,0.2250977,-0.1416016
2866,-6.5625,-35.3125,-148.125,0.3305664,-1.241699,0.07128906,-0.1733398,0.2211914,-0.1386719
2870,-1.25,-25.6875,-149.1875,0.3847656,-1.214844,0.07910156,-0.1855469,0.2114258,-0.137207
2874,4.375,-12.375,-147.125,0.3808594,-1.175781,0.06347656,-0.199707,0.2026367,-0.1386719
2878,10.25,-0.8125,-145.25,0.3496094,-1.090332,0.02099609,-0.206543,0.1962891,-0.1347656
2882,10.8125,6.125,-141.9375,0.3305664,-0.9814453,-0.02832031,-0.2163086,0.1860352,-0.1357422
2886,6.125,8.875,-140.6875,0.3110352,-0.8764648,-0.06298828,-0.2246094,0.1787109,-0.1386719
2891,0.5625,8.875,-138.5625,0.2875977,-0.8222656,-0.04736328,-0.2329102,0.1699219,-0.1386719
2895,-0.1875,13.375,-135.1875,0.2954102,-0.7910156,0.03662109,-0.2402344,0.1586914,-0.1401367
2899,4.25,24.875,-129.1875,0.2724609,-0.7329102,0.05175781,-0.2470703,0.1499023,-0.1401367
2903,10.375,31.6875,-122.875,0.1987305,-0.6708984,0.06347656,-0.253418,0.1425781,-0.1425781
2907,16.5,34.8125,-116.875,0.140625,-0.5893555,0.03271484,-0.2568359,0.1313477,-0.1469727
2911,18.25,36,-106.125,0.1054688,-0.4765625,0.02099609,-0.2617188,0.1201172,-0.1508789
2915,20.5,39.8125,-96.1875,0.1132813,-0.3833008,0.01367188,-0.2636719,0.1137695,-0.1538086
2919,22.5,46.375,-82.0625,0.09765625,-0.3134766,0.001953125,-0.2661133,0.1064453,-0.15625
2923,21.5625,50.0625,-69.125,0.03955078,-0.2084961,-0.05517578,-0.2685547,0.09765625,-0.1645508
2927,13.5,40.875,-58,-0.006347656,-0.09179688,-0.09765625,-0.2685547,0.09228516,-0.1660156
2931,3.625,24.25,-48.8125,-0.04882813,-0.05273438,-0.112793,-0.2675781,0.08740234,-0.1699219
2935,-7.5,4.375,-36.625,-0.02587891,-0.04541016,-0.08203125,-0.2685547,0.08398438,-0.1713867
2939,-14.1875,-11.625,-23.0625,0.09033203,-0.1308594,-0.02050781,-0.2700195,0.08398438,-0.168457
2943,-11.9375,-20.125,-15.3125,0.2646484,-0.1616211,0.01367188,-0.2709961,0.08251953,-0.168457
2947,-8.5625,-21.375,-11.5,0.3847656,-0.1538086,0.009765625,-0.2724609,0.08007813,-0.1674805
2951,-9,-20.125,-6.8125,0.4541016,-0.1616211,-0.005371094,-0.2744141,0.08105469,-0.1660156
2955,-9.625,-20.5,-4.0625,0.5126953,-0.1850586,0.001953125,-0.2758789,0.08105469,-0.1630859
2959,-7.9375,-20.1875,-3.875,0.5668945,-0.2124023,0.02880859,-0.2768555,0.08105469,-0.1606445
2963,-3.75,-16.625,-0.25,0.5629883,-0.2548828,0.05175781,-0.2783203,0.08105469,-0.1616211
2967,0,-15.0625,6.75,0.5512695,-0.2431641,0.009765625,-0.2768555,0.08007813,-0.1577148
2971,-0.8125,-17.875,14.1875,0.5708008,-0.2392578,-0.009277344,-0.2792969,0.08398438,-0.1577148
2975,-0.1875,-21.125,17.6875,0.6479492,-0.2509766,-0.02441406,-0.2783203,0.08398438,-0.1538086
2979,-2.5,-15.125,19.6875,0.690918,-0.2470703,-0.02832031,-0.2768555,0.08496094,-0.1547852
2983,-6.3125,-8.375,23.9375,0.6479492,-0.2783203,-0.05908203,-0.2792969,0.08740234,-0.1538086
2987,-11.25,-8.6875,29.125,0.6328125,-0.2900391,-0.05126953,-0.2768555,0.08984375,-0.1523438
2991,-11.25,-7.6875,32.0625,0.6479492,-0.3364258,0.001953125,-0.2758789,0.09130859,-0.1508789
2995,-7.5,-0.25,34.875,0.6674805,-0.3520508,0.03271484,-0.2744141,0.09521484,-0.1523438
2999,-3,12.1875,38.125,0.6289063,-0.3598633,0.03662109,-0.2744141,0.09619141,-0.1484375
3003,1.3125,22.6875,40.375,0.5395508,-0.355957,0.05566406,-0.2709961,0.1000977,-0.1508789
3007,7.25,33.25,43.375,0.4658203,-0.3481445,0.09814453,-0.2685547,0.1064453,-0.1494141
3011,15.75,47.6875,52.9375,0.3730469,-0.3676758,0.1289063,-0.2675781,0.1049805,-0.1547852
3015,21.125,57.9375,66.6875,0.2836914,-0.3208008,0.07910156,-0.2626953,0.1113281,-0.1630859
3020,17.625,57.75,81,0.1870117,-0.3325195,0.03662109,-0.2553711,0.1152344,-0.1674805
3024,10.25,48.25,91.25,0.1635742,-0.2939453,0.02099609,-0.2519531,0.1201172,-0.168457
3028,3.3125,38.125,94.4375,0.1445313,-0.3833008,0.04052734,-0.2460938,0.1264648,-0.1738281
3032,2,32.875,96.1875,0.1210938,-0.4570313,0.09814453,-0.2387695,0.1337891,-0.1767578
3036,4.1875,30.8125,103.25,0.07861328,-0.5229492,0.1098633,-0.234375,0.1386719,-0.1767578
3040,6.3125,29.8125,109.9375,0.09765625,-0.5737305,0.105957,-0.2270508,0.1459961,-0.1796875
3044,11.9375,37.3125,121.5625,0.1054688,-0.6318359,0.1132813,-0.2197266,0.1538086,-0.1806641
3048,14.3125,46.625,131.3125,0.1445313,-0.6396484,0.06738281,-0.2114258,0.1577148,-0.1850586
3052,14.5625,63.8125,135.4375,0.1367188,-0.7172852,0.05957031,-0.2021484,0.1660156,-0.1904297
3056,8.8125,74.1875,144.5625,0.02050781,-0.7368164,0.02490234,-0.1875,0.1762695,-0.1943359
3060,-2.3125,66.125,148.0625,-0.02197266,-0.7949219,0.005859375,-0.1791992,0.1801758,-0.1987305
3064,-7.9375,60.0625,148.5625,-0.02587891,-0.8417969,0.07519531,-0.1640625,0.1884766,-0.2011719
3068,-15.5,53.0625,150.1875,-0.02587891,-0.8881836,0.04785156,-0.1508789,0.1948242,-0.2041016
3072,-22.4375,47.75,150.3125,-0.01806641,-0.9931641,0.07519531,-0.1411133,0.2011719,-0.2026367
3076,-29.125,42,151.3125,-0.06445313,-1.086426,0.07128906,-0.1293945,0.2075195,-0.2041016
3080,-41.0625,30.3125,154.4375,-0.1147461,-1.175781,0.03271484,-0.1137695,0.2148438,-0.2041016
3084,-57.4375,11.8125,160.5,-0.09912109,-1.22998,0.009765625,-0.1054688,0.2211914,-0.199707
3088,-66.6875,-4.5,163.0625,-0.03710938,-1.358398,0.1020508,-0.09228516,0.2299805,-0.1943359
3092,-62.875,-11.125,160.8125,0.08642578,-1.459473,0.1826172,-0.07714844,0.2373047,-0.1904297
3096,-52.75,-6.6875,158,0.1557617,-1.533203,0.1748047,-0.06640625,0.2397461,-0.1865234
3100,-47.6875,2.625,153.8125,0.1870117,-1.560547,0.09033203,-0.05664063,0.2436523,-0.1835938
3104,-51.5,8,150.1875,0.1210938,-1.614746,0.01708984,-0.04150391,0.2475586,-0.1767578
3108,-60.875,-4.125,146.3125,0.03173828,-1.618652,-0.01660156,-0.02929688,0.2485352,-0.175293
3112,-67.1875,-26,138.8125,0.04736328,-1.669434,0.03662109,-0.01757813,0.2539063,-0.168457
3116,-64.0625,-34.75,134.25,0.1054688,-1.704102,0.1367188,-0.005859375,0.2563477,-0.1630859
3120,-54.5625,-32.125,133.375,0.1445313,-1.71582,0.2094727,0,0.2563477,-0.1606445
3124,-44.6875,-28.6875,130.6875,0.1557617,-1.677246,0.1635742,0.01171875,0.2573242,-0.1577148
3128,-41.0625,-31.625,122.6875,0.1791992,-1.622559,0.1098633,0.02148438,0.2563477,-0.1508789
3132,-35.6875,-33.375,113.1875,0.2177734,-1.634277,0.1020508,0.02978516,0.2563477,-0.1494141
3136,-29.9375,-28.625,106.625,0.2607422,-1.618652,0.1020508,0.03808594,0.2563477,-0.1484375
3140,-25.8125,-20.8125,100.1875,0.3149414,-1.595215,0.09033203,0.04736328,0.2524414,-0.144043
3144,-20.3125,-14.9375,88.6875,0.3496094,-1.583984,0.105957,0.05224609,0.2548828,-0.144043
3149,-17.1875,-7.6875,79.875,0.3188477,-1.537109,0.1098633,0.05957031,0.2524414,-0.1425781
3153,-16.6875,-4.6875,75.0625,0.2451172,-1.486816,0.1020508,0.06640625,0.2509766,-0.1416016
3157,-21.3125,-11.0625,71.5,0.206543,-1.42041,0.07519531,0.07226563,0.25,-0.1386719
3161,-27.0625,-23.875,66.625,0.1948242,-1.428223,0.08642578,0.07861328,0.2509766,-0.1347656
3165,-29.8125,-36.875,62.625,0.2216797,-1.416504,0.09814453,0.08691406,0.2460938,-0.1303711
3169,-31.5,-49.0625,56.75,0.2724609,-1.393555,0.1020508,0.09033203,0.2436523,-0.1303711
3173,-31.75,-61.1875,62.9375,0.5898438,-1.750977,0.1674805,0.09960938,0.2387695,-0.125
3177,32.875,45.875,50.625,2.089844,-1.898438,0.9790039,0.109375,0.2285156,-0.1279297
3181,89.6875,119.9375,-17.0625,0.9814453,-1.587891,0.04052734,0.112793,0.2250977,-0.125
3185,39.1875,51.3125,-37,0.1054688,-0.9155273,-0.4975586,0.112793,0.2260742,-0.1279297
3189,-12.125,-35.3125,-47.6875,-0.1342773,-0.9311523,-0.2705078,0.109375,0.2285156,-0.1303711
3193,-29.6875,-78.8125,-37.4375,-0.09130859,-1.059082,-0.09375,0.1069336,0.2324219,-0.1279297
3197,-34.3125,-84.1875,-15.875,0.1054688,-1.179688,0.04785156,0.09765625,0.2363281,-0.1279297
3201,-28,-63.8125,-2.125,0.4194336,-1.370117,0.1098633,0.09277344,0.2397461,-0.1289063
3205,-15.5625,-40.375,-23.125,0.6015625,-1.354492,0.105957,0.09277344,0.2412109,-0.1279297
3209,-9.1875,-22.9375,-56.4375,0.6015625,-1.370117,0.05566406,0.08203125,0.2460938,-0.1279297
3213,-0.9375,-10.1875,-80.4375,0.5126953,-1.45166,0.08251953,0.07617188,0.25,-0.1303711
3217,13.75,12.8125,-90.125,0.4736328,-1.494629,0.1367188,0.06884766,0.2524414,-0.1347656
3221,28.4375,42.25,-92.875,0.4506836,-1.490723,0.09814453,0.05810547,0.2548828,-0.1347656
3225,40.8125,66.125,-89.375,0.4077148,-1.541016,0.1020508,0.04980469,0.2563477,-0.137207
3229,54.1875,78.5,-93,0.4697266,-1.568359,0.07128906,0.04638672,0.2548828,-0.144043
3233,64.5,92.1875,-104.5,0.5317383,-1.622559,0.08642578,0.04150391,0.2548828,-0.1469727
3237,78.75,119.25,-110.125,0.5356445,-1.758789,0.2211914,0.03417969,0.2539063,-0.1547852
3241,96.625,140.3125,-112.9375,0.3071289,-1.80127,0.2905273,0.03173828,0.2539063,-0.1591797
3245,109.6875,130.125,-107.0625,0.08642578,-1.723633,0.2402344,0.02734375,0.2524414,-0.1660156
3249,103.875,86.5625,-110,-0.03710938,-1.630371,0.1904297,0.02001953,0.2485352,-0.1738281
3253,88.6875,24.6875,-126.5625,-0.006347656,-1.513672,0.1748047,0.01513672,0.2436523,-0.1796875
3257,74.25,-29.5,-146.8125,0.07470703,-1.537109,0.2172852,0.006835938,0.2426758,-0.1875
3261,64.375,-65.875,-160.375,0.109375,-1.498535,0.1904297,-0.009277344,0.2397461,-0.1918945
3265,51.4375,-92.6875,-164.625,0.1328125,-1.498535,0.1635742,-0.02246094,0.2373047,-0.1943359
3269,41.3125,-103.375,-164,0.2915039,-1.501953,0.1635742,-0.04003906,0.2348633,-0.1943359
3273,36.25,-95.0625,-166.9375,0.3808594,-1.509766,0.1748047,-0.05908203,0.2299805,-0.1972656
3278,33.9375,-77.3125,-168.375,0.3496094,-1.455566,0.1674805,-0.07324219,0.2285156,-0.1987305
3282,28.875,-67.125,-169.9375,0.2255859,-1.393555,0.1367188,-0.09033203,0.2226563,-0.2011719
3286,19.4375,-64.5625,-167.875,0.1635742,-1.319336,0.1098633,-0.1079102,0.21875,-0.199707
3290,11.875,-61.25,-165.375,0.1484375,-1.280762,0.125,-0.1201172,0.2138672,-0.199707
3294,4.9375,-55.5625,-159.5,0.1557617,-1.21875,0.1132813,-0.1352539,0.2075195,-0.1958008
3298,-0.5625,-47.1875,-155.9375,0.1674805,-1.179688,0.1171875,-0.1518555,0.1987305,-0.1928711
3302,-0.5,-40.0625,-155.1875,0.140625,-1.125488,0.144043,-0.1601563,0.1938477,-0.1943359
3306,0,-36.9375,-152.4375,0.09375,-1.047363,0.1132813,-0.1757813,0.1875,-0.1918945
3310,-3.4375,-39.6875,-147.6875,0.07861328,-0.9580078,0.07128906,-0.1875,0.1787109,-0.1904297
3314,-8.8125,-42.375,-144,0.09765625,-0.8842773,0.06347656,-0.1948242,0.1723633,-0.1875
3318,-11.75,-42.6875,-137.9375,0.1210938,-0.8417969,0.06738281,-0.2055664,0.1635742,-0.1850586
3322,-14.6875,-42.25,-129.4375,0.1171875,-0.7753906,0.05566406,-0.2172852,0.15625,-0.1806641
3326,-18.125,-42.5,-119.6875,0.175293,-0.7016602,0.05566406,-0.222168,0.1489258,-0.1767578
3330,-18.875,-40.1875,-110.9375,0.2104492,-0.6630859,0.06738281,-0.2319336,0.1425781,-0.1738281
3334,-20.3125,-36.1875,-103.375,0.2607422,-0.6162109,0.06347656,-0.2387695,0.1347656,-0.1713867
3338,-18.9375,-30.9375,-97.875,0.2875977,-0.5737305,0.05175781,-0.2436523,0.1313477,-0.1713867
3342,-16.4375,-23.3125,-92.9375,0.3227539,-0.5268555,0.02490234,-0.2519531,0.1235352,-0.1660156
3346,-14.875,-10.5,-87.4375,0.3574219,-0.4648438,0.04443359,-0.2578125,0.1176758,-0.1630859
3350,-12.25,4.8125,-80.8125,0.3339844,-0.3989258,0.05175781,-0.2578125,0.1123047,-0.1616211
3354,-12.4375,14.125,-73.875,0.2294922,-0.3364258,0.04785156,-0.2592773,0.1088867,-0.1645508
3358,-13.875,9.5625,-66.6875,0.1484375,-0.3017578,0.04052734,-0.2651367,0.1025391,-0.1645508
3362,-14.5625,-0.25,-59.6875,0.1791992,-0.2978516,0.08642578,-0.2685547,0.1000977,-0.1645508
3366,-10.4375,-3.5625,-51.5625,0.2607422,-0.3017578,0.1210938,-0.2709961,0.09521484,-0.1616211
3370,-5.875,-1.1875,-45.3125,0.3188477,-0.2431641,0.09814453,-0.2709961,0.09130859,-0.1606445
3374,-8.5,1.1875,-36.75,0.3227539,-0.1577148,0.04785156,-0.2709961,0.08886719,-0.1616211
3378,-13,-1.25,-29,0.3339844,-0.1538086,0.05175781,-0.2744141,0.08642578,-0.1616211
3382,-14.25,-4,-21.125,0.3378906,-0.1928711,0.09033203,-0.2734375,0.08496094,-0.1606445
3386,-13.75,-6,-12.8125,0.3613281,-0.2084961,0.1132813,-0.2758789,0.08398438,-0.1616211
3390,-11.6875,-8.6875,-4.8125,0.3886719,-0.2431641,0.1328125,-0.2744141,0.08398438,-0.15625
3394,-6.0625,-7.6875,0.875,0.4467773,-0.2587891,0.1557617,-0.2768555,0.08398438,-0.1547852
3398,0.0625,-5.875,2.4375,0.4658203,-0.2626953,0.125,-0.2768555,0.08398438,-0.1577148
3402,5.6875,-4.6875,2.4375,0.4619141,-0.2353516,0.09814453,-0.2768555,0.08496094,-0.1577148
3407,8.0625,-0.625,7.375,0.4428711,-0.2124023,0.06347656,-0.2758789,0.08398438,-0.1591797
3411,9.375,4.0625,16.5,0.4077148,-0.2163086,0.04052734,-0.2768555,0.08398438,-0.1577148
3415,7.5625,4,25.4375,0.3769531,-0.1655273,-0.02441406,-0.2758789,0.08398438,-0.1591797
3419,2.0625,0.4375,34.3125,0.3574219,-0.1538086,-0.03613281,-0.2758789,0.08740234,-0.1577148
3423,-2.9375,-2.75,42.6875,0.3496094,-0.1967773,-0.03222656,-0.2734375,0.08984375,-0.1591797
3427,-6,-2.5,51,0.3339844,-0.2353516,0.009765625,-0.2724609,0.09375,-0.1591797
3431,-4.3125,3.75,57.3125,0.3457031,-0.2822266,0.04443359,-0.2700195,0.09863281,-0.1577148
3435,1.1875,17.25,66.1875,0.2836914,-0.3173828,0.08251953,-0.2675781,0.1025391,-0.1577148
3439,6.0625,28.8125,79.5625,0.2138672,-0.3208008,0.06738281,-0.2651367,0.1088867,-0.1591797
3443,7.5625,34.75,94.875,0.1289063,-0.3286133,0.02099609,-0.2578125,0.1162109,-0.1616211
3447,2.0625,32.3125,108.3125,0.1054688,-0.324707,-0.02441406,-0.253418,0.1201172,-0.1645508
3451,-3.5,29.375,117,0.08251953,-0.3911133,0.005859375,-0.2460938,0.1298828,-0.168457
3455,-7.125,23,123.6875,0.06298828,-0.4375,0.02099609,-0.2402344,0.1376953,-0.168457
3459,-8.125,16.875,129.875,0.06298828,-0.5,0.03662109,-0.234375,0.1450195,-0.168457
3463,-7.4375,14.625,136.375,0.03564453,-0.6044922,0.04785156,-0.2270508,0.15625,-0.1699219
3467,-9.5625,8.9375,144.5,0.0009765625,-0.6669922,0.01367188,-0.2163086,0.1650391,-0.1713867
3471,-16.75,-6.3125,150.125,-0.002441406,-0.7133789,-0.05126953,-0.2104492,0.1738281,-0.1699219
3475,-26.25,-22.5,151.125,0.004882813,-0.8066406,-0.05126953,-0.2006836,0.1826172,-0.1674805
3479,-27.125,-29.8125,150.75,0.08251953,-0.9272461,0.009765625,-0.1914063,0.1923828,-0.1660156
3483,-19.5625,-18.1875,158,0.1210938,-1.02832,0.03271484,-0.184082,0.2011719,-0.1591797
3487,-17,-3,171.375,0.03955078,-1.074707,-0.05517578,-0.1723633,0.2124023,-0.1591797
3491,-19.1875,0,179.1875,-0.02587891,-1.144531,-0.1245117,-0.1591797,0.2197266,-0.1606445
3495,-23.0625,-4.75,178.9375,-0.08007813,-1.22998,-0.1362305,-0.1494141,0.2260742,-0.1591797
3499,-26.375,-17.625,177.75,-0.1108398,-1.29248,-0.1708984,-0.1367188,0.2348633,-0.15625
3503,-27.875,-24.3125,181.0625,-0.04492188,-1.385742,-0.07080078,-0.1186523,0.2426758,-0.1523438
3507,-23,-21.125,185.625,0.02050781,-1.475098,-0.005371094,-0.109375,0.2460938,-0.1508789
3511,-13.6875,-8,189.4375,0.09375,-1.533203,0.005859375,-0.09228516,0.2524414,-0.1484375
3515,-6.875,7.5,187.25,0.08642578,-1.556641,-0.04736328,-0.07470703,0.2563477,-0.1484375
3519,-5.75,20.5,185.1875,0.02441406,-1.580078,-0.04394531,-0.06298828,0.2587891,-0.1494141
3523,-8.8125,21.625,178.875,-0.05273438,-1.580078,-0.1015625,-0.04394531,0.2597656,-0.1469727
3527,-18.5625,13.5625,168.875,-0.09521484,-1.587891,-0.08984375,-0.02587891,0.2612305,-0.1484375
3531,-20.375,10.5625,168.125,-0.07617188,-1.731445,0.01367188,-0.01757813,0.2636719,-0.1469727
3536,-12.375,20.25,167.8125,0.1015625,-1.781738,0.09033203,-0.0009765625,0.2612305,-0.144043
3540,-0.0625,47.6875,165.8125,0.206543,-1.766602,0.1020508,0.01513672,0.2612305,-0.1455078
3544,-3.875,69,160.625,0.125,-1.688477,-0.001464844,0.02734375,0.2612305,-0.1455078
3548,-14.3125,64.625,152,0.01269531,-1.727539,0.001953125,0.04394531,0.2573242,-0.144043
3552,-25,37.75,135.0625,0.02441406,-1.766602,0.07128906,0.06054688,0.2548828,-0.1416016
3556,-26.125,12.9375,120.4375,0.125,-1.828613,0.1904297,0.06787109,0.2524414,-0.1416016
3560,-17.375,-0.375,112.5,0.2412109,-1.886719,0.2480469,0.07958984,0.2485352,-0.1401367
3564,-7.75,-9.9375,109.5,0.3149414,-1.840332,0.2094727,0.09130859,0.2460938,-0.137207
3568,-9.9375,-32.0625,106.125,0.3730469,-1.797363,0.1289063,0.09765625,0.2412109,-0.137207
3572,-19.75,-65.625,96.875,0.5048828,-1.773926,0.05957031,0.1069336,0.2373047,-0.137207
3576,-26.0625,-97.0625,81.875,0.6870117,-1.828613,0.06738281,0.112793,0.2314453,-0.1386719
3580,-24.375,-111,61.5625,0.8769531,-1.848145,0.08642578,0.1142578,0.2275391,-0.1401367
3584,-13.8125,-113.9375,39.625,1.047363,-1.910156,0.03662109,0.1176758,0.2250977,-0.144043
3588,3.5625,-98.1875,2.0625,1.151855,-1.67334,-0.05517578,0.1166992,0.2250977,-0.1469727
3592,10.5625,-74.4375,-14.875,1.260254,-1.711914,-0.1166992,0.112793,0.2250977,-0.1484375
3596,15.3125,-26.25,-44.75,1.372559,-1.564453,-0.1938477,0.1079102,0.2250977,-0.1523438
3600,12.1875,29.8125,-71,1.182617,-1.529297,-0.1977539,0.1035156,0.2299805,-0.1523438
3604,11.6875,71.5625,-89.6875,0.8300781,-1.595215,-0.1362305,0.09960938,0.2338867,-0.1523438
3608,13.6875,88,-102.875,0.5087891,-1.603027,-0.07080078,0.09277344,0.2397461,-0.1484375
3612,13.8125,84.5,-113.6875,0.2915039,-1.645996,-0.01318359,0.08544922,0.2426758,-0.1484375
3616,16.4375,68.8125,-127.75,0.1987305,-1.665527,0.001953125,0.08056641,0.2451172,-0.1494141
3620,15.375,50.125,-143.75,0.1713867,-1.638184,-0.04003906,0.06982422,0.2509766,-0.1494141
3624,5.75,38.375,-158.1875,0.159668,-1.638184,-0.04736328,0.05810547,0.2524414,-0.1494141
3628,1.125,35.0625,-166.375,0.1171875,-1.723633,0.01367188,0.04882813,0.2539063,-0.1494141
3632,2.6875,34.25,-168.4375,0.07861328,-1.74707,0.04785156,0.03564453,0.2587891,-0.1494141
3636,6.75,37,-169.125,0.06298828,-1.762695,0.07519531,0.01904297,0.2612305,-0.1455078
3640,12.25,39.625,-170.8125,0.02441406,-1.743164,0.07519531,0.009277344,0.2597656,-0.1469727
3644,17.9375,40.1875,-173.6875,-0.04492188,-1.696289,0.07128906,-0.004394531,0.262207,-0.1484375
3648,20.3125,31.8125,-173.75,-0.1147461,-1.653809,0.04052734,-0.01757813,0.2597656,-0.1508789
3652,19.6875,18.9375,-174.25,-0.1303711,-1.583984,0.02099609,-0.02832031,0.2612305,-0.1494141
3656,16.5625,7.0625,-175,-0.1303711,-1.548828,0.03662109,-0.04589844,0.2587891,-0.1508789
3660,14.3125,-0.125,-174.875,-0.08398438,-1.501953,0.04443359,-0.06152344,0.2573242,-0.1508789
3665,13.25,-3.375,-172.4375,-0.1108398,-1.432129,0.04443359,-0.07128906,0.2524414,-0.1538086
3669,10.75,-10.25,-167.5625,-0.1381836,-1.370117,0.04785156,-0.08886719,0.25,-0.1538086
3673,6.0625,-22.75,-162.3125,-0.1303711,-1.342773,0.04052734,-0.1044922,0.2475586,-0.1547852
3677,3.375,-33.875,-159.5,-0.01416016,-1.304199,0.05175781,-0.112793,0.2451172,-0.1523438
3681,3.5625,-35.9375,-156.75,0.06298828,-1.296387,0.07910156,-0.1293945,0.2373047,-0.1538086
3685,3.75,-35.5,-153.125,0.1367188,-1.257324,0.05566406,-0.1459961,0.2324219,-0.1508789
3689,3.8125,-35.4375,-152.8125,0.1870117,-1.21875,0.05566406,-0.1542969,0.2260742,-0.1484375
3693,3.5,-33.25,-148.8125,0.1987305,-1.195313,0.1020508,-0.1674805,0.2197266,-0.1494141
3697,6.75,-35.25,-140.5625,0.206543,-1.203125,0.08642578,-0.1816406,0.2114258,-0.1469727
3701,12.4375,-44.1875,-131.3125,0.2685547,-1.175781,0.05957031,-0.1889648,0.2060547,-0.1455078
3705,20.5,-45.625,-127.1875,0.4389648,-1.129395,0.04052734,-0.199707,0.1987305,-0.144043
3709,29.3125,-24.5625,-124.25,0.5473633,-1.055176,0.02099609,-0.2089844,0.1875,-0.144043
3713,34.5,7.25,-121.75,0.5317383,-0.9658203,-0.03222656,-0.2163086,0.1826172,-0.144043
3717,34,21.125,-126.625,0.4697266,-0.8339844,-0.112793,-0.2246094,0.1723633,-0.1484375
3721,27.375,35.75,-133.1875,0.3925781,-0.7719727,-0.07470703,-0.2319336,0.1611328,-0.1523438
3725,25.9375,50.5625,-135.5,0.2875977,-0.6938477,-0.04394531,-0.2353516,0.1538086,-0.1538086
3729,29.875,64.4375,-134.125,0.1870117,-0.5966797,-0.02441406,-0.2426758,0.1401367,-0.1591797
3733,29.25,72.1875,-127.6875,0.03955078,-0.4453125,-0.03222656,-0.2470703,0.1289063,-0.1645508
3737,23.25,65.875,-115.3125,-0.1069336,-0.3056641,-0.04394531,-0.2485352,0.1210938,-0.1713867
3741,12.6875,49,-101.1875,-0.1342773,-0.1889648,-0.02441406,-0.2509766,0.1123047,-0.1782227
3745,4.4375,34.3125,-87.125,-0.1147461,-0.1347656,0.005859375,-0.2519531,0.1049805,-0.1796875
3749,0.875,25.5625,-71.4375,-0.07617188,-0.1074219,0.03662109,-0.2543945,0.1000977,-0.1821289
3753,-1.375,20.5,-52.375,-0.05273438,-0.08398438,0.03662109,-0.2553711,0.09521484,-0.1835938
3757,-7,13.375,-31.125,0.02832031,-0.02197266,0.009765625,-0.2578125,0.08984375,-0.1865234
3761,-14.1875,5.0625,-18.1875,0.1557617,-0.006347656,0.009765625,-0.2578125,0.08984375,-0.1865234
3765,-17.9375,0.75,-13.4375,0.2216797,-0.04882813,0.04052734,-0.2578125,0.08886719,-0.1875
3769,-19.375,-0.125,-5.875,0.2646484,-0.09960938,0.08251953,-0.2578125,0.08886719,-0.1865234
3773,-16.875,-3.125,-3.375,0.3378906,-0.1499023,0.125,-0.2568359,0.08886719,-0.1835938
3777,-9.375,-2.5625,-3.5,0.3925781,-0.1967773,0.1943359,-0.2578125,0.08984375,-0.1835938
3781,1.375,2.6875,-1.4375,0.3886719,-0.1928711,0.2021484,-0.2592773,0.08886719,-0.1835938
3785,10.125,6.0625,4.25,0.3652344,-0.1499023,0.159668,-0.2578125,0.08886719,-0.1821289
3789,11.75,6.5,13.3125,0.3149414,-0.1113281,0.07910156,-0.2553711,0.08984375,-0.1835938
3794,7.4375,3.375,24.625,0.2915039,-0.08789063,0.02099609,-0.2568359,0.08984375,-0.1850586
3798,0.5,-3.125,32.1875,0.3071289,-0.1074219,-0.001464844,-0.2568359,0.09130859,-0.1875
3802,-6.625,-8.125,40.4375,0.3266602,-0.1113281,0.001953125,-0.2553711,0.09521484,-0.1835938
3806,-14.625,-10.6875,51,0.3305664,-0.1577148,0.01708984,-0.253418,0.09765625,-0.1835938
3810,-21.375,-15.9375,60.1875,0.3457031,-0.2202148,0.05175781,-0.253418,0.1035156,-0.1835938
3814,-22.625,-19.5625,66.875,0.3886719,-0.2900391,0.09033203,-0.2509766,0.1074219,-0.1796875
3818,-20,-17.1875,68.75,0.4506836,-0.3442383,0.125,-0.2495117,0.1162109,-0.1767578
3822,-14.75,-14.125,69.9375,0.4506836,-0.4140625,0.159668,-0.2470703,0.1201172,-0.1782227
3826,-9.4375,-10.875,73.1875,0.4350586,-0.484375,0.1748047,-0.2446289,0.125,-0.1767578
3830,-2.0625,-7.5625,79.0625,0.4467773,-0.5385742,0.1943359,-0.2412109,0.1313477,-0.175293
3834,6.6875,0.6875,88.25,0.4853516,-0.5854492,0.1904297,-0.237793,0.1362305,-0.1738281
3838,14.4375,15.5,99.4375,0.543457,-0.6318359,0.2021484,-0.2319336,0.1411133,-0.1728516
3842,21.1875,30.875,108.625,0.5668945,-0.6591797,0.1982422,-0.2270508,0.1489258,-0.1782227
3846,23.5,42.125,111.5625,0.559082,-0.6630859,0.1943359,-0.2197266,0.1513672,-0.1796875
3850,22.25,44.625,106.6875,0.5009766,-0.6513672,0.1713867,-0.2104492,0.1601563,-0.1835938
3854,17.8125,38.6875,99.625,0.4077148,-0.6708984,0.1865234,-0.2021484,0.1650391,-0.1875
3858,17.125,30.3125,98.25,0.3227539,-0.7055664,0.1982422,-0.1972656,0.1699219,-0.1904297
3862,16,24.25,100.25,0.2954102,-0.7211914,0.1943359,-0.1889648,0.1738281,-0.1918945
3866,16.8125,22.375,102,0.2646484,-0.7368164,0.1518555,-0.1831055,0.1801758,-0.1943359
3870,14.5,24.5,103.3125,0.2138672,-0.7485352,0.1210938,-0.1757813,0.1826172,-0.1958008
3874,11.75,27.0625,108.0625,0.1328125,-0.7792969,0.09423828,-0.168457,0.1875,-0.199707
3878,6.875,27.6875,115.4375,0.09375,-0.7871094,0.07128906,-0.1582031,0.1914063,-0.2011719
3882,0.0625,27.5625,118.75,0.06689453,-0.7871094,0.04785156,-0.1494141,0.1972656,-0.2026367
3886,-7.875,27.4375,123.0625,-0.01416016,-0.8183594,0.04052734,-0.1401367,0.2011719,-0.2055664
3890,-19.4375,20.25,127.75,-0.09912109,-0.8457031,0.02490234,-0.1293945,0.2060547,-0.2041016
3894,-27.6875,12.125,132.125,-0.1420898,-0.9506836,0.06347656,-0.1220703,0.2114258,-0.2041016
3898,-30.5625,6.125,138.875,-0.1689453,-1.02832,0.04785156,-0.109375,0.2172852,-0.2011719
3902,-32.4375,5.0625,141.1875,-0.1499023,-1.086426,0.07519531,-0.09960938,0.2226563,-0.199707
3906,-32.375,9.1875,147.25,-0.1650391,-1.179688,0.105957,-0.09228516,0.2260742,-0.1972656
3910,-30.5625,16.9375,154.9375,-0.1533203,-1.26123,0.1132813,-0.07714844,0.2324219,-0.1928711
3914,-28.625,24.9375,158.125,-0.1342773,-1.276855,0.1020508,-0.06298828,0.2363281,-0.1904297
3918,-34.3125,25.5,160.8125,-0.2192383,-1.280762,0.02490234,-0.05322266,0.2397461,-0.1918945
3923,-49.625,11.6875,162.75,-0.28125,-1.342773,0.009765625,-0.03759766,0.2426758,-0.1904297
3927,-60.875,-11,166.5,-0.2700195,-1.521484,0.05175781,-0.02099609,0.2436523,-0.1850586
3931,-61.8125,-23.875,173.125,-0.1533203,-1.67334,0.1289063,-0.01416016,0.2475586,-0.1806641
3935,-54.375,-26.5625,175.5625,0.08642578,-1.743164,0.1557617,0.002441406,0.2475586,-0.175293
3939,-39.9375,-10,169.5,0.2836914,-1.754883,0.1748047,0.01513672,0.2509766,-0.1713867
3943,-25.125,18.4375,156.0625,0.3305664,-1.657715,0.125,0.02734375,0.25,-0.1699219
3947,-30.8125,28.1875,147.5625,0.1171875,-1.509766,-0.03613281,0.04150391,0.2485352,-0.168457
3951,-54,9,141.5,-0.03320313,-1.467285,-0.06298828,0.0546875,0.2460938,-0.1660156
3955,-75,-25,131.375,-0.08398438,-1.486816,-0.03222656,0.06298828,0.2475586,-0.1606445
3959,-90.875,-60.3125,118.5,-0.06835938,-1.552734,0.009765625,0.07373047,0.2451172,-0.15625
3963,-97.75,-92.9375,103.625,0.02050781,-1.622559,0.05175781,0.08056641,0.2460938,-0.1494141
3967,-94.25,-115.4375,90.9375,0.1171875,-1.692383,0.09814453,0.08447266,0.2460938,-0.1425781
3971,-82.6875,-125.0625,78.125,0.2451172,-1.71582,0.08251953,0.08789063,0.2475586,-0.1401367
3975,-66.1875,-118.25,67.6875,0.3652344,-1.739258,0.07519531,0.09130859,0.2460938,-0.1347656
3979,-44.8125,-96.3125,58.375,0.4272461,-1.723633,0.05175781,0.09277344,0.2460938,-0.1333008
3983,-24.0625,-67.5625,52.4375,0.3959961,-1.677246,0.03271484,0.09619141,0.2426758,-0.1318359
3987,-6.5625,-42.25,49.1875,0.3457031,-1.626465,0.01708984,0.1010742,0.2387695,-0.1279297
3991,8.625,-23,43.9375,0.3378906,-1.572266,0.005859375,0.1044922,0.2373047,-0.1303711
3995,20.125,-6.875,35.9375,0.3266602,-1.501953,-0.005371094,0.1103516,0.2324219,-0.1318359
3999,27,3.9375,30.5625,0.3149414,-1.513672,-0.04003906,0.1142578,0.2299805,-0.1347656
4003,28.3125,7.8125,12.5,0.4970703,-1.401367,-0.1474609,0.1176758,0.2275391,-0.1347656
4007,23,2.3125,-14.625,0.3730469,-1.312012,-0.1743164,0.1201172,0.2250977,-0.1347656
4011,12.375,-6.3125,-25.8125,0.2529297,-1.381836,-0.1552734,0.1152344,0.2250977,-0.1357422
4015,13.375,-6,-31.125,0.3769531,-1.393555,-0.08984375,0.112793,0.2285156,-0.1386719
4019,16.9375,3.125,-42.875,0.4619141,-1.323242,-0.109375,0.109375,0.2299805,-0.1416016
4023,14.75,12.875,-52.8125,0.4116211,-1.334961,-0.128418,0.1035156,0.2363281,-0.1416016
4027,10.75,15.625,-63.125,0.3613281,-1.354492,-0.1630859,0.09863281,0.2373047,-0.144043
4031,5.4375,11.3125,-76.1875,0.3535156,-1.370117,-0.1669922,0.09130859,0.2412109,-0.1469727
4035,1.125,8,-89.75,0.3457031,-1.389648,-0.1401367,0.08300781,0.2451172,-0.1469727
4039,-0.5,11.1875,-102.75,0.3266602,-1.393555,-0.1166992,0.07714844,0.2460938,-0.144043
4043,1.6875,23.625,-111.75,0.2797852,-1.424316,-0.05908203,0.06640625,0.2485352,-0.1455078
4047,6.375,42.875,-116.375,0.1987305,-1.412598,-0.03222656,0.05712891,0.25,-0.1455078
4052,9.9375,55.625,-119.5625,0.06298828,-1.362305,-0.05908203,0.05224609,0.2548828,-0.1494141
4056,11.25,59.625,-118.6875,-0.006347656,-1.366211,-0.05517578,0.04394531,0.2563477,-0.1469727
4060,9.375,60.625,-115.3125,-0.07226563,-1.331055,-0.0859375,0.03417969,0.2573242,-0.1455078
4064,-1.6875,46.25,-109.625,-0.1264648,-1.296387,-0.1435547,0.02978516,0.2587891,-0.1469727
4068,-19.125,21.625,-106.8125,-0.02978516,-1.323242,-0.1323242,0.02001953,0.2597656,-0.1469727
4072,-32.1875,8.625,-111.0625,0.1713867,-1.397461,-0.02832031,0.01074219,0.2636719,-0.1425781
4076,-35.25,8.1875,-117.875,0.2646484,-1.501953,0.03662109,0.003417969,0.2661133,-0.1386719
4080,-34.125,8.0625,-122.4375,0.3227539,-1.576172,0.06347656,-0.0078125,0.2675781,-0.1357422
4084,-30.375,15.125,-124.9375,0.3613281,-1.677246,0.105957,-0.02001953,0.2685547,-0.1347656
4088,-21.1875,28.6875,-128.875,0.4194336,-1.743164,0.1787109,-0.02587891,0.2685547,-0.1318359
4092,-6.5,44.125,-132.9375,0.3691406,-1.812988,0.2060547,-0.04003906,0.2675781,-0.1279297
4096,8.375,48.25,-138.1875,0.2993164,-1.805176,0.1904297,-0.04980469,0.2675781,-0.1318359
4100,18.8125,40.75,-148.3125,0.2294922,-1.758789,0.1748047,-0.05908203,0.2661133,-0.1318359
4104,29.25,27,-158.4375,0.1987305,-1.731445,0.1787109,-0.07128906,0.262207,-0.1303711
4108,36.6875,12,-167.8125,0.1831055,-1.657715,0.08251953,-0.08642578,0.2597656,-0.1333008
4112,39.875,-2.3125,-176,0.1713867,-1.587891,-0.001464844,-0.09716797,0.2548828,-0.1386719
4116,40.6875,-12.0625,-181.25,0.1831055,-1.509766,-0.04394531,-0.112793,0.25,-0.1416016
4120,37.5,-14.375,-184.6875,0.1831055,-1.408691,-0.09375,-0.1293945,0.2412109,-0.144043
4124,34.0625,-15.3125,-187.1875,0.140625,-1.304199,-0.1166992,-0.1401367,0.2363281,-0.144043
4128,31.375,-16.4375,-185.3125,0.09375,-1.245605,-0.109375,-0.1582031,0.2260742,-0.1484375
4132,29.1875,-16.25,-180.375,0.07080078,-1.144531,-0.1206055,-0.1733398,0.2148438,-0.1494141
4136,23.6875,-22.9375,-176.8125,0.02832031,-1.020508,-0.1630859,-0.1831055,0.2075195,-0.1508789
4140,14.6875,-32.125,-176.4375,0.05126953,-0.8881836,-0.1743164,-0.1982422,0.1972656,-0.1494141
4144,3.6875,-35.625,-173.875,0.01660156,-0.7988281,-0.1743164,-0.2104492,0.1860352,-0.1508789
4148,-5.75,-33.75,-164.5,0.004882813,-0.7368164,-0.1435547,-0.2211914,0.1772461,-0.1469727
4152,-10.5,-25.5,-149.875,0.03955078,-0.6708984,-0.1054688,-0.2304688,0.1650391,-0.1455078
4156,-12.1875,-11.5,-134.9375,0.06689453,-0.5966797,-0.05908203,-0.2402344,0.15625,-0.144043
4160,-10.1875,2,-120.3125,0.07470703,-0.5385742,-0.001464844,-0.2470703,0.1489258,-0.1416016
4164,-7.1875,13.75,-108.3125,0.07861328,-0.4648438,0.03662109,-0.253418,0.1386719,-0.1425781
4168,-2.25,22.25,-98.75,0.06689453,-0.3989258,0.06738281,-0.2568359,0.1323242,-0.1425781
4172,1,25.875,-92.75,0.02441406,-0.3208008,0.06738281,-0.2617188,0.1264648,-0.1425781
4176,0.9375,16.8125,-84.8125,-0.06835938,-0.2392578,0.02880859,-0.2651367,0.1186523,-0.144043
4181,-3.5625,0.4375,-72.0625,-0.05664063,-0.1694336,0.01708984,-0.2685547,0.1113281,-0.1469727
4185,-8.375,-7.125,-55.375,0.07080078,-0.1577148,0.04443359,-0.2700195,0.1074219,-0.1484375
4189,-6.1875,0,-36.9375,0.1791992,-0.2084961,0.105957,-0.2734375,0.1035156,-0.1455078
4193,-0.4375,9.5625,-20.25,0.2333984,-0.2006836,0.105957,-0.2724609,0.1025391,-0.1455078
4197,4.5625,15.375,-10.625,0.3032227,-0.1850586,0.1289063,-0.2744141,0.1025391,-0.1469727
4201,8.375,13.0625,-7.75,0.3188477,-0.1772461,0.09814453,-0.2734375,0.1000977,-0.1494141
4205,10.875,8.75,-4.125,0.3808594,-0.1772461,0.1020508,-0.2744141,0.09863281,-0.1523438
4209,14.6875,11.0625,-2.5,0.4541016,-0.1850586,0.125,-0.2734375,0.09863281,-0.1508789
4213,18.9375,16.5625,-0.5,0.4467773,-0.1694336,0.1098633,-0.2724609,0.09619141,-0.1523438
4217,20.3125,15.125,2.0625,0.3691406,-0.1420898,0.07128906,-0.2709961,0.09619141,-0.1547852
4221,14.375,3.25,8.5625,0.3071289,-0.09570313,0.01708984,-0.2709961,0.09619141,-0.1547852
4225,4.4375,-13.0625,17.125,0.3417969,-0.1308594,-0.001464844,-0.2700195,0.09765625,-0.15625
4229,0.6875,-21,24.0625,0.4311523,-0.2124023,0.05566406,-0.2724609,0.09765625,-0.1547852
4233,3.625,-19,30.375,0.4931641,-0.2783203,0.05566406,-0.2724609,0.09765625,-0.1538086
4237,5.125,-13.875,35.75,0.527832,-0.2470703,0.02880859,-0.2700195,0.1010742,-0.1538086
4241,2.0625,-11.25,39,0.5239258,-0.2392578,-0.005371094,-0.2675781,0.1064453,-0.1523438
4245,0.1875,-9.875,42,0.4970703,-0.2314453,-0.005371094,-0.2685547,0.1064453,-0.1523438
4249,-0.875,-8.6875,46.8125,0.4580078,-0.2626953,0.005859375,-0.2675781,0.1123047,-0.1508789
4253,1.375,-3,51.5,0.4233398,-0.324707,0.03271484,-0.2651367,0.1152344,-0.1494141
4257,4.125,4.0625,58.125,0.3535156,-0.3208008,0.009765625,-0.2636719,0.1176758,-0.1484375
4261,4,7.3125,65.6875,0.2646484,-0.3442383,0.01367188,-0.2602539,0.1225586,-0.1508789
4265,3.625,5.3125,77.1875,0.2026367,-0.340332,-0.03222656,-0.2568359,0.1298828,-0.1508789
4269,0.5,-0.0625,86.3125,0.2026367,-0.3598633,-0.03613281,-0.2543945,0.1337891,-0.1508789
4273,-3.625,-5.1875,92.5625,0.2026367,-0.402832,-0.03222656,-0.2485352,0.1411133,-0.1508789
4277,-7.6875,-8.6875,96.4375,0.1948242,-0.5,-0.03222656,-0.2436523,0.1474609,-0.1523438
4281,-9.625,-11.375,102.5625,0.175293,-0.5893555,-0.01318359,-0.2402344,0.1523438,-0.1494141
4285,-11.5,-13.125,111.125,0.1870117,-0.6123047,-0.02050781,-0.2329102,0.1601563,-0.1469727
4289,-10.3125,-10.1875,116.375,0.206543,-0.7055664,0.02490234,-0.2270508,0.1699219,-0.1484375
4293,-1.4375,2.25,122.5625,0.2294922,-0.7871094,0.1098633,-0.222168,0.1762695,-0.1455078
4297,11,23.75,132.75,0.2026367,-0.8686523,0.125,-0.2128906,0.1860352,-0.1455078
4301,20,42.375,148.75,0.1518555,-0.8725586,0.05957031,-0.203125,0.1948242,-0.1469727
4305,16.875,49.1875,156.875,0.1518555,-0.8803711,0.005859375,-0.1948242,0.1987305,-0.1523438
4310,13.125,47.4375,154.0625,0.1328125,-0.9428711,0.001953125,-0.1791992,0.2060547,-0.15625
4314,8.875,40.6875,144.25,0.1015625,-1.004883,0.02880859,-0.1665039,0.2138672,-0.1577148
4318,7.4375,31.625,138.0625,-0.01806641,-1.094238,0.005859375,-0.1567383,0.2197266,-0.1606445
4322,1.5,19.3125,135.3125,-0.02978516,-1.133301,-0.02441406,-0.1450195,0.2260742,-0.1606445
4326,-3.3125,10.25,135.625,-0.09521484,-1.203125,-0.03222656,-0.1342773,0.2314453,-0.1616211
4330,-11.25,6.1875,141.25,-0.1030273,-1.237793,-0.03613281,-0.1235352,0.2338867,-0.1645508
4334,-17.625,4.25,152.1875,-0.1689453,-1.312012,-0.02441406,-0.1113281,0.2412109,-0.1645508
4338,-23.8125,-5.4375,168.5625,-0.1845703,-1.416504,-0.02050781,-0.09619141,0.2451172,-0.1606445
4342,-28.4375,-20.875,179.375,-0.05273438,-1.505859,-0.04394531,-0.08886719,0.2475586,-0.15625
4346,-28.0625,-26.25,175.8125,0.1210938,-1.576172,-0.01660156,-0.07226563,0.2524414,-0.1577148
4350,-24.375,-16.25,169.125,0.1870117,-1.634277,0.009765625,-0.05566406,0.2563477,-0.1538086
4354,-21.25,-0.25,164.1875,0.159668,-1.618652,-0.005371094,-0.04736328,0.2573242,-0.1538086
4358,-20.5625,15.9375,163.0625,0.07861328,-1.606934,0.001953125,-0.03076172,0.2597656,-0.1523438
4362,-18.375,27.6875,163.1875,0.004882813,-1.591309,0.02880859,-0.01513672,0.2612305,-0.1508789
4366,-17.5,34.6875,161.5625,-0.01025391,-1.529297,0.01367188,-0.003417969,0.2597656,-0.1494141
4370,-25.125,38.3125,155.375,-0.01025391,-1.428223,-0.07861328,0.01171875,0.2612305,-0.1455078
4374,-45.0625,34.8125,145.1875,-0.04101563,-1.397461,-0.1821289,0.02734375,0.2587891,-0.1455078
4378,-75.125,15,133.375,-0.03320313,-1.494629,-0.2285156,0.03808594,0.2597656,-0.1401367
4382,-89.375,-20.1875,116.875,0.1518555,-1.71582,-0.08984375,0.04980469,0.2597656,-0.1333008
4386,-76.5,-31.1875,98.625,0.3959961,-1.840332,0.08642578,0.05957031,0.2597656,-0.1289063
4390,-49.9375,-13.75,91.25,0.4580078,-1.824707,0.1713867,0.06396484,0.2587891,-0.1235352
4394,-33.25,5.875,96.9375,0.3266602,-1.681152,0.105957,0.07226563,0.2587891,-0.1196289
4398,-31,-1.9375,103.9375,0.1518555,-1.580078,0.005859375,0.08056641,0.2573242,-0.112793
4402,-37.6875,-41.0625,102.4375,0.125,-1.521484,-0.1166992,0.08789063,0.2548828,-0.112793
4406,-47.125,-85.125,90.6875,0.3227539,-1.61084,-0.1323242,0.09863281,0.25,-0.1074219
4410,-40.0625,-108.625,72.9375,0.5473633,-1.750977,-0.04003906,0.109375,0.2451172,-0.1035156
4414,-18.6875,-105.1875,56.75,0.7490234,-1.773926,0.01367188,0.1142578,0.2426758,-0.1035156
4418,-0.25,-71.4375,63,1.458008,-2.069336,0.1328125,0.1201172,0.2324219,-0.1044922
4422,47.3125,1,5.9375,1.198242,-1.770508,0.05957031,0.1269531,0.2260742,-0.105957
4426,45.375,25.625,-20.375,0.6674805,-1.171875,-0.4707031,0.1269531,0.2260742,-0.1074219
4430,8,-3.125,-34.5625,0.2758789,-1.074707,-0.5053711,0.1225586,0.2314453,-0.1088867
4434,-11.0625,-21.625,-34.375,0.2875977,-1.222656,-0.3515625,0.1166992,0.2338867,-0.1113281
4439,-21.0625,-29.5625,-41.625,0.4467773,-1.210938,-0.3208008,0.1103516,0.2387695,-0.1113281
4443,-32.25,-37.4375,-62.0625,0.527832,-1.342773,-0.2167969,0.1035156,0.2451172,-0.1113281
4447,-29.0625,-24,-80.1875,0.6054688,-1.513672,-0.05126953,0.09375,0.25,-0.1157227
4451,-11.9375,2.4375,-94,0.578125,-1.618652,0.03662109,0.08789063,0.2539063,-0.1142578
4455,7.9375,30.625,-102.1875,0.4541016,-1.591309,-0.01660156,0.07617188,0.2573242,-0.1142578
4459,16.5,48.5625,-103.0625,0.2568359,-1.544922,-0.1054688,0.06542969,0.2587891,-0.1157227
4463,16.5625,46.125,-102.25,0.1518555,-1.513672,-0.1591797,0.06054688,0.262207,-0.1157227
4467,14.625,35.25,-107.75,0.159668,-1.525391,-0.1435547,0.04980469,0.2651367,-0.1181641
4471,14.4375,25.3125,-116.5625,0.1791992,-1.548828,-0.1015625,0.04150391,0.2675781,-0.1181641
4475,14.875,20.6875,-125.9375,0.1987305,-1.541016,-0.08984375,0.03320313,0.2661133,-0.1225586
4479,15.375,19.75,-133,0.175293,-1.541016,-0.07080078,0.02246094,0.2700195,-0.1196289
4483,15.1875,19.8125,-135.9375,0.1210938,-1.548828,-0.03613281,0.01074219,0.2685547,-0.1225586
4487,16.4375,15.3125,-136.4375,0.05517578,-1.591309,-0.03613281,0.0009765625,0.2700195,-0.1210938
4491,14.8125,7.1875,-139.4375,0.09375,-1.560547,-0.05126953,-0.01025391,0.2685547,-0.1225586
4495,13.1875,1.3125,-145,0.125,-1.576172,-0.05517578,-0.02246094,0.2700195,-0.1225586
4499,14.3125,2.6875,-150.625,0.175293,-1.595215,-0.02441406,-0.03320313,0.2685547,-0.1235352
4503,19.625,12.1875,-154.4375,0.1870117,-1.603027,0.001953125,-0.04833984,0.2661133,-0.125
4507,26.1875,23.6875,-154.9375,0.1518555,-1.595215,-0.001464844,-0.06152344,0.2661133,-0.1279297
4511,30.3125,31.4375,-153.125,0.1015625,-1.556641,-0.03613281,-0.07128906,0.2636719,-0.1303711
4515,28.5,30.375,-150.0625,0.07861328,-1.513672,-0.07861328,-0.08300781,0.2587891,-0.1347656
4519,22.125,21.75,-148.3125,0.09765625,-1.475098,-0.109375,-0.09863281,0.2539063,-0.1357422
4523,14.6875,4,-154,0.1132813,-1.412598,-0.1474609,-0.1069336,0.2524414,-0.137207
4527,5.1875,-15.625,-160.6875,0.1987305,-1.366211,-0.128418,-0.1210938,0.2475586,-0.137207
4531,0.8125,-23.1875,-164.75,0.3032227,-1.354492,-0.08984375,-0.1367188,0.2397461,-0.137207
4535,-0.5,-17.8125,-165.3125,0.3847656,-1.327148,-0.06298828,-0.1474609,0.2373047,-0.1347656
4539,4.0625,-2.0625,-163.5625,0.3847656,-1.288574,-0.01318359,-0.1616211,0.2314453,-0.1357422
4543,8.5625,10.125,-159.0625,0.3032227,-1.222656,-0.02441406,-0.1733398,0.2211914,-0.1357422
4547,9,10.3125,-151.75,0.2412109,-1.152344,-0.04394531,-0.1831055,0.2138672,-0.137207
4551,4.8125,-1.0625,-152.25,0.2529297,-1.062988,-0.0859375,-0.1948242,0.2036133,-0.1386719
4555,-1.25,-10.875,-153.5,0.2954102,-0.9931641,-0.0859375,-0.2045898,0.1938477,-0.137207
4559,-7.5,-13.8125,-150.3125,0.3535156,-0.9428711,-0.06689453,-0.2138672,0.1884766,-0.1386719
4563,-10.1875,-6.8125,-146.9375,0.4155273,-0.9467773,-0.01318359,-0.2255859,0.1772461,-0.137207
4568,-6.375,10.8125,-142.25,0.4350586,-0.9541016,0.05175781,-0.234375,0.1699219,-0.1318359
4572,4.9375,31.625,-138.125,0.3652344,-0.9116211,0.08251953,-0.237793,0.1611328,-0.137207
4576,13,42.375,-129.9375,0.2724609,-0.7832031,0.03662109,-0.2485352,0.1499023,-0.1386719
4580,13.8125,43.0625,-121.1875,0.206543,-0.6821289,0.02490234,-0.253418,0.1386719,-0.1425781
4584,12.4375,38.25,-116.1875,0.1713867,-0.5854492,0.02099609,-0.2568359,0.1347656,-0.144043
4588,8.9375,31.75,-110.9375,0.1518555,-0.5307617,0.05957031,-0.2617188,0.1235352,-0.1484375
4592,9.375,30,-103.6875,0.1445313,-0.484375,0.09033203,-0.2651367,0.1123047,-0.1523438
4596,13.8125,32.5,-93.125,0.140625,-0.4140625,0.1020508,-0.2675781,0.1064453,-0.1547852
4600,19.4375,36.5,-81.9375,0.1210938,-0.3325195,0.08251953,-0.2709961,0.09863281,-0.1577148
4604,21.4375,37.8125,-67.8125,0.1015625,-0.2509766,0.04443359,-0.2700195,0.09130859,-0.1645508
4608,19.4375,32.75,-53.6875,0.09765625,-0.1616211,0.01708984,-0.2709961,0.08740234,-0.1660156
4612,13.5625,22.25,-41.375,0.1328125,-0.09570313,-0.02441406,-0.2734375,0.08251953,-0.1713867
4616,6.875,12.5625,-33.75,0.1948242,-0.06445313,-0.01660156,-0.2724609,0.07763672,-0.1699219
4620,2.25,3.25,-29.875,0.2568359,-0.07226563,0.005859375,-0.2734375,0.07519531,-0.1713867
4624,1.375,-3.25,-29.375,0.3266602,-0.08398438,0.005859375,-0.2734375,0.07373047,-0.1713867
4628,1.5,-1.1875,-23.6875,0.3925781,-0.09960938,0.04785156,-0.2744141,0.06982422,-0.1699219
4632,3.4375,6.25,-18,0.4311523,-0.1035156,0.06738281,-0.2758789,0.06884766,-0.1699219
4636,6.125,11.6875,-13.1875,0.3959961,-0.1113281,0.08642578,-0.2758789,0.06738281,-0.1728516
4640,9.5,12.625,-5,0.3535156,-0.09179688,0.07910156,-0.2744141,0.06640625,-0.1738281
4644,9.75,9.5625,2.0625,0.3535156,-0.06054688,0.05175781,-0.2758789,0.06640625,-0.175293
4648,8.25,3.9375,8.0625,0.3417969,-0.05664063,0.01367188,-0.2744141,0.06494141,-0.1767578
4652,2.0625,0.375,16.625,0.3496094,-0.01806641,-0.02050781,-0.2744141,0.06640625,-0.1767578
4656,-6.5625,-7.0625,26.9375,0.3378906,-0.05664063,-0.02050781,-0.2734375,0.06738281,-0.1767578
4660,-13,-15.6875,35.25,0.4038086,-0.08789063,0.02099609,-0.2734375,0.07128906,-0.1728516
4664,-14.375,-18.875,42.125,0.4736328,-0.1655273,0.04785156,-0.2734375,0.07617188,-0.1699219
4668,-11.625,-16.125,48.75,0.5161133,-0.2241211,0.04443359,-0.2709961,0.07617188,-0.1713867
4672,-11.125,-12.4375,54.9375,0.5512695,-0.2431641,0.03271484,-0.2709961,0.08251953,-0.1713867
4676,-12.625,-11.6875,58.25,0.543457,-0.2509766,0.01708984,-0.2700195,0.08740234,-0.168457
4680,-14.4375,-14.25,60.0625,0.559082,-0.2978516,0.02099609,-0.2685547,0.09228516,-0.1660156
4684,-13.4375,-15.0625,60.5625,0.559082,-0.3286133,0.04052734,-0.2651367,0.09619141,-0.1645508
4688,-10.375,-11.4375,63.875,0.5551758,-0.3442383,0.03662109,-0.2661133,0.1010742,-0.1616211
4692,-9.0625,-6.9375,70.1875,0.527832,-0.3637695,0.02099609,-0.2617188,0.1064453,-0.1616211
4697,-10.75,-4.9375,76.25,0.5161133,-0.3598633,-0.009277344,-0.2592773,0.1123047,-0.1616211
4701,-14.4375,-5.4375,78.0625,0.4892578,-0.387207,-0.005371094,-0.2543945,0.1186523,-0.1591797
4705,-17.75,-6.625,79.9375,0.4506836,-0.4375,0.02880859,-0.253418,0.125,-0.1577148
4709,-18.5,-8.125,82.4375,0.3959961,-0.5229492,0.06738281,-0.2495117,0.1337891,-0.15625
4713,-16.75,-9.3125,85.25,0.3769531,-0.5541992,0.1020508,-0.2460938,0.1401367,-0.15625
4717,-10.8125,-7.4375,89.4375,0.3417969,-0.6396484,0.144043,-0.2446289,0.1450195,-0.15625
4721,-3.375,-3.25,97.9375,0.3188477,-0.6552734,0.1289063,-0.2387695,0.1523438,-0.1538086
4725,-0.6875,-2,106.875,0.3071289,-0.6591797,0.05566406,-0.2319336,0.1611328,-0.1538086
4729,-3.6875,-6.5625,113.5625,0.3071289,-0.6899414,0.01367188,-0.2280273,0.1650391,-0.1508789
4733,-9.6875,-15.1875,116.875,0.3266602,-0.7368164,-0.02441406,-0.21875,0.1738281,-0.1547852
4737,-16.3125,-23.75,119.5,0.3730469,-0.8183594,-0.03222656,-0.2128906,0.1835938,-0.1508789
4741,-17.875,-26.125,118.5625,0.4272461,-0.8999023,0.02880859,-0.2089844,0.1875,-0.1484375
4745,-11.125,-22.125,119.375,0.3999023,-0.9970703,0.04443359,-0.2006836,0.1948242,-0.1455078
4749,-7.3125,-20.0625,121,0.4467773,-1.000977,0.01367188,-0.1923828,0.2050781,-0.1425781
4753,-0.4375,-8.0625,117.9375,0.4580078,-1.043945,0.03271484,-0.1875,0.2099609,-0.1425781
4757,4.8125,5.5625,116,0.3574219,-1.020508,-0.005371094,-0.1772461,0.2163086,-0.1425781
4761,7.5625,13.4375,121.625,0.2568359,-1.036133,-0.01318359,-0.1674805,0.2226563,-0.1416016
4765,6.1875,20.3125,127.5625,0.1987305,-1.036133,-0.04736328,-0.1616211,0.2260742,-0.144043
4769,4.25,24.25,130.6875,0.1367188,-1.062988,-0.03222656,-0.1484375,0.2285156,-0.1484375
4773,2.5,27.875,137,0.04345703,-1.109863,-0.02441406,-0.1367188,0.2373047,-0.1469727
4777,-2.8125,26.4375,141.4375,0.0009765625,-1.117676,-0.04736328,-0.1259766,0.2412109,-0.1484375
4781,-4.8125,27.25,142.875,-0.02197266,-1.140625,-0.01660156,-0.1152344,0.2460938,-0.1494141
4785,-6.125,29.125,146.1875,-0.09521484,-1.171875,-0.04394531,-0.1010742,0.25,-0.1484375
4789,-11.1875,24.8125,151.8125,-0.1884766,-1.183594,-0.08203125,-0.09033203,0.2539063,-0.1494141
4793,-24.3125,8.4375,157.0625,-0.2192383,-1.222656,-0.128418,-0.07470703,0.2563477,-0.1508789
4797,-33.25,-5.5,155.4375,-0.1962891,-1.312012,-0.08984375,-0.06054688,0.2612305,-0.1455078
4801,-35.3125,-10.1875,153.1875,-0.2192383,-1.408691,-0.04394531,-0.04980469,0.262207,-0.144043
4805,-34.4375,-9.9375,154.375,-0.2734375,-1.471191,-0.02050781,-0.03662109,0.2636719,-0.1416016
4809,-33.1875,-8.875,159.8125,-0.328125,-1.517578,0.01367188,-0.02099609,0.2651367,-0.1386719
4813,-31.125,-17.25,167.625,-0.3588867,-1.572266,-0.005371094,-0.01171875,0.2661133,-0.1357422
4817,-29,-32.1875,168.5,-0.230957,-1.583984,-0.04003906,0.002441406,0.2661133,-0.1357422
4821,-28.0625,-42,161.6875,-0.1108398,-1.568359,-0.0859375,0.01904297,0.2651367,-0.1333008
4826,-31.5625,-48.5625,152.75,-0.03710938,-1.576172,-0.109375,0.02734375,0.2651367,-0.1303711
4830,-32.9375,-53.0625,148.1875,0.01660156,-1.64209,-0.07470703,0.04052734,0.262207,-0.1303711
4834,-29.5,-54.125,145.1875,0.08642578,-1.681152,-0.04003906,0.05224609,0.2597656,-0.1279297
4838,-23.3125,-56.9375,140.625,0.1518555,-1.731445,-0.01318359,0.06054688,0.2587891,-0.1264648
4842,-10,-55.4375,131.375,0.3071289,-1.770508,0.02880859,0.07128906,0.2563477,-0.1264648
4846,4.9375,-45.9375,115.3125,0.4311523,-1.727539,-0.05126953,0.08056641,0.2539063,-0.1264648
4850,1.5,-42.25,99.875,0.4853516,-1.618652,-0.2089844,0.08789063,0.25,-0.1303711
4854,-11.125,-49.875,84.3125,0.5356445,-1.583984,-0.2553711,0.09765625,0.2460938,-0.1303711
4858,-20.5,-62.8125,70,0.59375,-1.614746,-0.2207031,0.1035156,0.2426758,-0.1279297
4862,-22.375,-73.125,58.875,0.6635742,-1.68457,-0.1474609,0.1079102,0.2387695,-0.125
4866,-16.5,-83.5625,53.75,0.8183594,-1.848145,-0.1591797,0.1152344,0.2299805,-0.1264648
4870,10.1875,-33.1875,47.8125,1.775879,-1.983887,0.2597656,0.1201172,0.2250977,-0.1279297
4874,56.125,27.5,-15.875,1.194336,-1.727539,-0.1591797,0.125,0.2226563,-0.1289063
4878,26.125,19.0625,-44.125,0.6518555,-1.288574,-0.4169922,0.1201172,0.2250977,-0.1318359
4882,1.625,-4.6875,-48.125,0.4658203,-1.505859,-0.1899414,0.1152344,0.2299805,-0.1303711
4886,6.25,1,-58.5625,0.527832,-1.498535,-0.109375,0.1103516,0.2324219,-0.1318359
4890,6.875,12.875,-65.5625,0.4970703,-1.490723,-0.08984375,0.1044922,0.2387695,-0.1347656
4894,7.125,20.375,-76.125,0.4350586,-1.509766,-0.09765625,0.09521484,0.2426758,-0.1347656
4898,7.5,25.5625,-89.8125,0.3847656,-1.560547,-0.05517578,0.08886719,0.2451172,-0.137207
4902,10.125,27.25,-102.375,0.3071289,-1.568359,-0.05517578,0.07958984,0.2475586,-0.1401367
4906,8.5,23.8125,-112.625,0.2373047,-1.560547,-0.06298828,0.07128906,0.2509766,-0.1386719
4910,3.375,18.625,-122.8125,0.2294922,-1.572266,-0.05126953,0.06298828,0.2539063,-0.1416016
4914,0.9375,17.4375,-133.25,0.2138672,-1.626465,-0.01318359,0.05224609,0.2587891,-0.1401367
4918,5.125,24.25,-140.125,0.1791992,-1.681152,0.04052734,0.04052734,0.2597656,-0.1386719
4922,12.3125,33.25,-143.375,0.125,-1.696289,0.03662109,0.03320313,0.2597656,-0.1401367
4926,16.875,38.3125,-146.5625,0.07470703,-1.638184,0.009765625,0.02001953,0.262207,-0.1416016
4930,17.625,36.625,-150.8125,-0.002441406,-1.618652,-0.01318359,0.008300781,0.2636719,-0.1416016
4934,18.125,32.8125,-152.0625,-0.03710938,-1.595215,-0.009277344,0,0.262207,-0.1425781
4938,17.6875,28.0625,-154.5625,-0.05273438,-1.548828,-0.005371094,-0.01416016,0.262207,-0.1425781
4942,17,22.75,-156.75,-0.07226563,-1.525391,-0.001464844,-0.02832031,0.2636719,-0.1455078
4946,15.6875,17.9375,-156.25,-0.09912109,-1.505859,0.005859375,-0.03662109,0.2636719,-0.1455078
4950,15,11.75,-155.125,-0.07617188,-1.490723,0.01367188,-0.05078125,0.2597656,-0.1469727
4955,14.8125,7.5,-155.9375,-0.03710938,-1.48291,0.04443359,-0.06494141,0.2587891,-0.1484375
4959,18.5,7.9375,-155.125,-0.01025391,-1.463379,0.07128906,-0.07470703,0.2563477,-0.1484375
4963,22.3125,12.3125,-152.375,-0.01416016,-1.401367,0.07519531,-0.08886719,0.2524414,-0.1494141
4967,24.6875,11.4375,-149.5625,-0.02587891,-1.334961,0.05566406,-0.1010742,0.2475586,-0.1523438
4971,25.8125,5.375,-147.5625,0.01660156,-1.308105,0.05566406,-0.1103516,0.2451172,-0.1547852
4975,26.25,2.125,-145.625,0.05126953,-1.241699,0.05957031,-0.1220703,0.2373047,-0.15625
4979,23.625,-1.3125,-143.1875,0.07080078,-1.183594,0.04052734,-0.1352539,0.2338867,-0.1591797
4983,21.3125,-5.5,-140.6875,0.07470703,-1.152344,0.05566406,-0.1450195,0.2275391,-0.1577148
4987,20.125,-10.8125,-139.6875,0.125,-1.102051,0.04052734,-0.1567383,0.21875,-0.1577148
4991,18,-14.4375,-140.25,0.1831055,-1.055176,0.02880859,-0.168457,0.2114258,-0.1606445
4995,17.4375,-10.75,-137,0.2412109,-1.012695,0.05566406,-0.1757813,0.2060547,-0.1616211
4999,18.75,-4.4375,-129.8125,0.2451172,-0.9541016,0.05566406,-0.1865234,0.1962891,-0.1630859
5003,15.9375,-4.6875,-122.1875,0.2333984,-0.8920898,0.02099609,-0.1972656,0.1914063,-0.1616211
5007,11.3125,-11.9375,-117.8125,0.2607422,-0.8457031,0.02880859,-0.2021484,0.1826172,-0.1645508
5011,7.125,-19.75,-116.6875,0.2993164,-0.8066406,0.01708984,-0.2089844,0.1762695,-0.1630859
5015,4,-24.375,-116.25,0.3378906,-0.7753906,0.03662109,-0.21875,0.1674805,-0.1630859
5019,3.125,-23.625,-114.3125,0.3808594,-0.7524414,0.05566406,-0.2246094,0.1625977,-0.1616211
5023,5.5625,-16.3125,-110.8125,0.4194336,-0.7133789,0.07910156,-0.2319336,0.1547852,-0.1616211
5027,11.5,-3.0625,-108,0.4272461,-0.6708984,0.05957031,-0.2387695,0.1459961,-0.1591797
5031,15,7.4375,-104.8125,0.3691406,-0.6044922,0.03662109,-0.2446289,0.1401367,-0.1606445
5035,14.875,11.5625,-99.6875,0.3305664,-0.5073242,0.005859375,-0.2509766,0.1313477,-0.1616211
5039,13.6875,15.5625,-94.375,0.3071289,-0.4453125,0.03271484,-0.253418,0.1225586,-0.1630859
5043,17.625,24.8125,-89.5,0.2724609,-0.371582,0.04052734,-0.2553711,0.1162109,-0.1674805
5047,21.375,34.875,-80.1875,0.206543,-0.2939453,0.009765625,-0.2592773,0.1088867,-0.1699219
5051,20.3125,38.75,-64.3125,0.1171875,-0.1928711,-0.02832031,-0.2617188,0.1010742,-0.1728516
5055,12.375,31.125,-47.0625,0.08642578,-0.1074219,-0.07080078,-0.2592773,0.09619141,-0.1738281
5059,0.3125,18.4375,-32.1875,0.140625,-0.08789063,-0.04736328,-0.2626953,0.09228516,-0.1782227
5063,-6.5,8.25,-24.375,0.2294922,-0.1035156,0.02490234,-0.2617188,0.09130859,-0.1796875
5067,-5.4375,3.75,-20.125,0.3032227,-0.1308594,0.07910156,-0.2626953,0.08740234,-0.1796875
5071,-4,3.3125,-14.5,0.3535156,-0.1308594,0.09423828,-0.2636719,0.08740234,-0.1782227
5075,-2.5625,5.75,-13.8125,0.3847656,-0.1499023,0.09423828,-0.2617188,0.08642578,-0.1796875
5079,0.125,10.875,-11.375,0.3808594,-0.1616211,0.1289063,-0.2636719,0.08740234,-0.1806641
5084,3.9375,16.875,-5.6875,0.3266602,-0.1577148,0.1518555,-0.2626953,0.08398438,-0.1806641
5088,7.8125,20.625,2.5625,0.2568359,-0.1347656,0.1865234,-0.2617188,0.08496094,-0.1821289
5092,11.25,22,13.9375,0.2177734,-0.1191406,0.1787109,-0.2626953,0.08496094,-0.1850586
5096,12,21.5,25.9375,0.1948242,-0.1035156,0.1289063,-0.2602539,0.08642578,-0.1875
5100,9.375,16.6875,35.6875,0.2104492,-0.09179688,0.08642578,-0.2578125,0.08740234,-0.1875
5104,3.625,13.4375,44,0.190918,-0.09179688,0.07128906,-0.2568359,0.08886719,-0.1904297
5108,-2.875,7.3125,53.0625,0.1557617,-0.1152344,0.07519531,-0.2543945,0.09521484,-0.1918945
5112,-7.0625,-2.5625,61.375,0.1367188,-0.1889648,0.08642578,-0.2509766,0.09863281,-0.1918945
5116,-10.625,-12.5,67.5625,0.1557617,-0.2626953,0.06347656,-0.2495117,0.1010742,-0.1889648
5120,-11.75,-15.3125,71.5625,0.2177734,-0.340332,0.07128906,-0.2460938,0.1074219,-0.1889648
5124,-10.125,-12.375,78.25,0.2568359,-0.4179688,0.09033203,-0.2436523,0.1137695,-0.1875
5128,-6.9375,-7,90.5625,0.3032227,-0.4609375,0.06347656,-0.2426758,0.1162109,-0.1850586
5132,-6,-0.4375,96.1875,0.3999023,-0.453125,0.02490234,-0.2363281,0.125,-0.1835938
5136,-3.875,6.9375,95.8125,0.3808594,-0.5151367,0.02880859,-0.2304688,0.1337891,-0.1821289
5140,-1.6875,14.5625,98.1875,0.3305664,-0.5463867,0.01708984,-0.2294922,0.1386719,-0.1850586
5144,0,22.125,101.3125,0.2758789,-0.5737305,0.005859375,-0.222168,0.1474609,-0.1821289
5148,1.125,32.5,110.5625,0.2216797,-0.5966797,-0.005371094,-0.2138672,0.1523438,-0.1875
5152,2.6875,43.75,122.4375,0.1870117,-0.6083984,0.001953125,-0.2089844,0.1577148,-0.1875
5156,1,47.6875,132,0.1210938,-0.6083984,-0.02441406,-0.2021484,0.1660156,-0.1928711
5160,-6.125,40.125,134.5625,0.03173828,-0.6977539,-0.07470703,-0.1889648,0.1748047,-0.1943359
5164,-18.4375,22.25,129.875,-0.1108398,-0.8613281,-0.1630859,-0.1806641,0.1801758,-0.1958008
5168,-36.0625,-2.375,130,-0.1264648,-0.9428711,-0.1708984,-0.1708984,0.1884766,-0.1958008
5172,-48.625,-19.25,139.6875,-0.03320313,-1.070801,-0.06298828,-0.1616211,0.1972656,-0.1904297
5176,-49.3125,-24.0625,151.3125,0.140625,-1.183594,0.04785156,-0.1542969,0.2050781,-0.1904297
5180,-39.25,-13.4375,155.125,0.3188477,-1.288574,0.1210938,-0.1435547,0.2138672,-0.1835938
5184,-26,10.4375,153,0.3999023,-1.319336,0.1518555,-0.1318359,0.2226563,-0.1796875
5188,-14.5,42.25,156.1875,0.4077148,-1.397461,0.1748047,-0.1220703,0.2260742,-0.1806641
5192,-10.0625,64.4375,159.8125,0.2333984,-1.374023,0.09033203,-0.1069336,0.2338867,-0.1821289
5196,-19.8125,55.9375,157.875,0.125,-1.338867,0.009765625,-0.08886719,0.2363281,-0.1806641
5200,-31.4375,40.5,146.5625,0.09375,-1.370117,0.07128906,-0.07958984,0.2412109,-0.1835938
5204,-36.8125,26.375,137.0625,0.05517578,-1.385742,0.1171875,-0.06640625,0.2436523,-0.1796875
5208,-39.8125,22.75,133.625,0.05126953,-1.389648,0.1787109,-0.05078125,0.2475586,-0.1738281
5213,-39.875,26.625,135,-0.02197266,-1.408691,0.2060547,-0.04248047,0.25,-0.175293
5217,-41.5,25,134,-0.1533203,-1.45166,0.1518555,-0.03076172,0.2509766,-0.1713867
5221,-49.875,6.9375,129.3125,-0.262207,-1.455566,0.08642578,-0.01513672,0.2539063,-0.168457
5225,-59.8125,-16.1875,126.625,-0.2583008,-1.521484,0.09033203,-0.009277344,0.2548828,-0.1645508
5229,-60.5,-27.1875,127.875,-0.1728516,-1.587891,0.1557617,0.002441406,0.2563477,-0.1591797
5233,-55.9375,-26.75,130.4375,-0.08007813,-1.61084,0.1826172,0.01269531,0.2587891,-0.15625
5237,-49.3125,-20,129,-0.02978516,-1.568359,0.1904297,0.02148438,0.2563477,-0.1538086
5241,-44.5,-16.5625,124.75,-0.07617188,-1.533203,0.144043,0.03320313,0.2587891,-0.1508789
5245,-44.5,-24.125,120.25,-0.1303711,-1.517578,0.07910156,0.04248047,0.2573242,-0.1455078
5249,-46.875,-40.0625,116.125,-0.1499023,-1.517578,0.02880859,0.04882813,0.2563477,-0.144043
5253,-48.875,-57.5,117.1875,-0.1225586,-1.541016,0.02490234,0.05957031,0.2563477,-0.1401367
5257,-49,-73.75,116.8125,0.03173828,-1.576172,0.01708984,0.06640625,0.2539063,-0.1357422
5261,-44.5,-77.0625,110.0625,0.2255859,-1.576172,0.01708984,0.07373047,0.2539063,-0.1333008
5265,-38.125,-72.875,103.8125,0.3535156,-1.595215,0.009765625,0.07958984,0.2509766,-0.1318359
5269,-29.25,-63.3125,96.9375,0.4697266,-1.587891,0.01708984,0.08886719,0.2485352,-0.1279297
