Packet number,Gyroscope X (deg/s),Gyroscope Y (deg/s),Gyroscope Z (deg/s),Accelerometer X (g),Accelerometer Y (g),Accelerometer Z (g),Magnetometer X (G),Magnetometer Y (G),Magnetometer Z (G)
0,1.875,-1.125,-1.8125,-0.8549805,-0.4648438,-0.09765625,0.2583008,0.1088867,-0.09521484
4,0.1875,-1.625,-2,-0.8549805,-0.46875,-0.1015625,0.2583008,0.1113281,-0.09521484
8,-0.8125,-1.9375,-2.4375,-0.8510742,-0.46875,-0.109375,0.2602539,0.1113281,-0.09521484
12,-1.375,-1.6875,-2.5,-0.8432617,-0.46875,-0.1054688,0.2592773,0.1113281,-0.09375
16,-1.75,-1.375,-2,-0.847168,-0.4726563,-0.1015625,0.2592773,0.1113281,-0.09375
20,-2,-0.625,-1.25,-0.8432617,-0.4726563,-0.1166992,0.2583008,0.1088867,-0.09375
24,-1.8125,-0.125,-0.875,-0.8393555,-0.484375,-0.1015625,0.2568359,0.1113281,-0.09375
28,-1.5625,0.875,-0.5,-0.8354492,-0.4960938,-0.109375,0.2568359,0.1113281,-0.09375
32,-0.25,1.75,-0.5625,-0.8354492,-0.5,-0.09765625,0.2568359,0.1113281,-0.09375
36,0.625,2.75,-0.75,-0.8432617,-0.5,-0.09375,0.2583008,0.1123047,-0.09375
40,0.625,3.125,-0.6875,-0.8510742,-0.4960938,-0.09375,0.2568359,0.1123047,-0.09082031
44,0.125,2.6875,-0.8125,-0.8588867,-0.4960938,-0.09375,0.2568359,0.1123047,-0.09375
48,0,1.8125,-0.875,-0.8510742,-0.4882813,-0.07861328,0.2583008,0.1123047,-0.09521484
52,-0.9375,0.875,-0.5625,-0.8432617,-0.4804688,-0.08984375,0.2558594,0.1113281,-0.09228516
56,-1.9375,-0.0625,-0.9375,-0.847168,-0.4960938,-0.08984375,0.2617188,0.1123047,-0.09228516
60,-1.75,-0.1875,-1.3125,-0.8354492,-0.4921875,-0.0859375,0.2583008,0.1137695,-0.09082031
64,-1.125,-0.5,-0.875,-0.8393555,-0.4921875,-0.08984375,0.2592773,0.1123047,-0.09375
68,-0.875,-0.1875,-0.875,-0.847168,-0.4804688,-0.1015625,0.2592773,0.1152344,-0.09082031
72,-1.0625,0.125,-0.1875,-0.8432617,-0.484375,-0.1015625,0.2568359,0.1123047,-0.09375
76,-0.875,0.1875,0,-0.8393555,-0.4921875,-0.1015625,0.2583008,0.1137695,-0.09521484
80,-0.125,0.8125,0.1875,-0.831543,-0.5,-0.1054688,0.2583008,0.1123047,-0.09228516
84,1.875,1.1875,0.1875,-0.831543,-0.5151367,-0.1245117,0.2568359,0.1137695,-0.09228516
88,3.3125,4.375,1.0625,-0.8198242,-0.5385742,-0.1552734,0.2568359,0.1123047,-0.09082031
92,4.5,5.4375,0.25,-0.8354492,-0.6044922,-0.1552734,0.2568359,0.1137695,-0.09082031
96,6,-0.0625,-6.8125,-0.878418,-0.6435547,-0.1708984,0.2568359,0.1137695,-0.09082031
100,5.6875,-7.0625,-16.875,-0.8007813,-0.6821289,-0.1899414,0.2558594,0.1162109,-0.09228516
104,9.1875,-3.625,-22.6875,-0.7543945,-0.7290039,-0.2055664,0.2543945,0.1201172,-0.09375
108,17.3125,7.4375,-21.6875,-0.730957,-0.7832031,-0.2324219,0.253418,0.1210938,-0.09521484
112,25.4375,20,-19.75,-0.730957,-0.8222656,-0.2436523,0.253418,0.125,-0.09375
116,30.3125,22.75,-26.8125,-0.78125,-0.8574219,-0.1977539,0.25,0.1289063,-0.09667969
120,36.1875,18.3125,-38,-0.78125,-0.9116211,-0.1899414,0.2509766,0.1323242,-0.09667969
124,43.4375,19.125,-45.6875,-0.7426758,-0.9428711,-0.1743164,0.2485352,0.1376953,-0.09912109
129,50.25,25.5,-49.375,-0.7348633,-0.9428711,-0.1708984,0.2436523,0.1425781,-0.1005859
133,53.1875,27.3125,-50.75,-0.7231445,-0.9116211,-0.2324219,0.2402344,0.1474609,-0.1035156
137,43.1875,26.375,-53.3125,-0.6962891,-0.8842773,-0.2900391,0.237793,0.1489258,-0.1074219
141,21.5,19.75,-62.125,-0.6767578,-0.9038086,-0.3129883,0.234375,0.1538086,-0.1074219
145,-3.3125,7,-79.9375,-0.6494141,-1.004883,-0.2900391,0.2319336,0.1601563,-0.1088867
149,-19.3125,-0.625,-94.8125,-0.6376953,-1.136719,-0.2397461,0.2270508,0.1650391,-0.1074219
153,-26.125,-1.3125,-107.5,-0.6611328,-1.319336,-0.2016602,0.2177734,0.1748047,-0.1088867
157,-20.5625,1.6875,-116.0625,-0.6342773,-1.37793,-0.1782227,0.215332,0.1787109,-0.105957
161,-8.1875,11.8125,-119.4375,-0.6264648,-1.42041,-0.1899414,0.2045898,0.1884766,-0.1044922
165,6,22.1875,-121,-0.6342773,-1.432129,-0.2167969,0.1972656,0.1962891,-0.1044922
169,18.6875,33.875,-122.4375,-0.6264648,-1.447754,-0.2475586,0.1914063,0.2026367,-0.1020508
173,31.6875,45.625,-127,-0.6225586,-1.439941,-0.2592773,0.1831055,0.2114258,-0.1035156
177,45.9375,54.75,-133.1875,-0.6650391,-1.416504,-0.2631836,0.1723633,0.21875,-0.1035156
181,51.4375,57,-137.5,-0.7387695,-1.381836,-0.3129883,0.1699219,0.2236328,-0.1020508
185,51.6875,57.5625,-144.125,-0.7348633,-1.34668,-0.3129883,0.1582031,0.2285156,-0.1044922
189,50.125,59.125,-150.625,-0.7426758,-1.304199,-0.3129883,0.1459961,0.2348633,-0.105957
193,45.5,59.8125,-154.6875,-0.765625,-1.245605,-0.3012695,0.1401367,0.2387695,-0.105957
197,37,56.3125,-157.5,-0.8046875,-1.195313,-0.3051758,0.1269531,0.2485352,-0.1044922
201,22.125,47.875,-154.75,-0.8237305,-1.167969,-0.3168945,0.1152344,0.2539063,-0.105957
205,10.375,44.3125,-151.8125,-0.730957,-1.249512,-0.2592773,0.105957,0.2563477,-0.1044922
209,10.375,45.8125,-153,-0.6962891,-1.323242,-0.1977539,0.09277344,0.262207,-0.105957
213,16.5,47.6875,-156.3125,-0.7036133,-1.338867,-0.1630859,0.07861328,0.2675781,-0.1035156
217,21.9375,46.9375,-158.8125,-0.6767578,-1.284668,-0.1401367,0.06982422,0.2685547,-0.1044922
221,22.1875,45.6875,-160.5,-0.6845703,-1.214844,-0.1591797,0.05712891,0.2739258,-0.1044922
225,17.75,40.75,-160.375,-0.6533203,-1.160156,-0.1513672,0.04052734,0.2788086,-0.1074219
229,15.5,37.375,-158.875,-0.6069336,-1.140625,-0.1401367,0.03076172,0.2797852,-0.1074219
233,15.375,37.4375,-155.3125,-0.5874023,-1.121582,-0.1401367,0.01416016,0.28125,-0.1035156
237,17,39.0625,-149.5625,-0.5292969,-1.08252,-0.1474609,0.0009765625,0.28125,-0.1088867
241,15.9375,41.8125,-146.0625,-0.4946289,-1.008789,-0.1401367,-0.009277344,0.2836914,-0.1098633
245,12.625,40.1875,-139.3125,-0.4750977,-0.9697266,-0.128418,-0.02246094,0.2797852,-0.1113281
249,10.0625,39.8125,-132.125,-0.4248047,-0.9272461,-0.09765625,-0.03515625,0.28125,-0.112793
253,10.125,38.1875,-125,-0.3862305,-0.9155273,-0.08203125,-0.04248047,0.2797852,-0.1157227
258,12.1875,38.6875,-118.0625,-0.3164063,-0.8842773,-0.07470703,-0.05419922,0.2788086,-0.1142578
262,16.6875,40.4375,-111.125,-0.2773438,-0.8647461,-0.06298828,-0.06396484,0.2749023,-0.1181641
266,23.0625,42.75,-103.625,-0.2270508,-0.8222656,-0.05126953,-0.07128906,0.2739258,-0.1196289
270,28.625,44.5,-98.375,-0.2192383,-0.7680664,-0.03613281,-0.07958984,0.2700195,-0.1225586
274,29.5625,40.875,-95.0625,-0.1884766,-0.7055664,-0.03222656,-0.08789063,0.2675781,-0.1279297
278,31.5,36.125,-92.875,-0.1459961,-0.6787109,-0.009277344,-0.09228516,0.2651367,-0.1289063
282,35.5,34.125,-90.9375,-0.08789063,-0.6435547,-0.009277344,-0.1010742,0.2612305,-0.1303711
286,38.3125,35.5,-87.125,-0.04101563,-0.5620117,-0.009277344,-0.1069336,0.2539063,-0.1357422
290,37.9375,35.0625,-81.375,-0.05664063,-0.4921875,-0.01318359,-0.1113281,0.2539063,-0.1401367
294,35.0625,31.125,-72.5625,-0.04882813,-0.4257813,-0.001464844,-0.1176758,0.2509766,-0.144043
298,33.5625,26.1875,-63.875,-0.01025391,-0.4067383,-0.009277344,-0.1210938,0.2451172,-0.1484375
302,32.9375,22.9375,-56.1875,0.06689453,-0.371582,-0.02050781,-0.1259766,0.2436523,-0.1508789
306,29.1875,21.625,-47.9375,0.1132813,-0.340332,-0.03613281,-0.1293945,0.2397461,-0.1547852
310,21.0625,21.6875,-39.75,0.1713867,-0.3056641,-0.04394531,-0.1318359,0.2363281,-0.1606445
314,8.6875,20.1875,-33.25,0.1791992,-0.2861328,-0.04003906,-0.1352539,0.2363281,-0.1606445
318,-5.9375,14.125,-29.125,0.190918,-0.3286133,-0.005371094,-0.1352539,0.2324219,-0.1616211
322,-14.125,6.25,-28.75,0.2451172,-0.402832,0.04443359,-0.1376953,0.2314453,-0.1630859
326,-11.875,5.375,-30.625,0.2797852,-0.4765625,0.1289063,-0.1376953,0.2314453,-0.1606445
330,0.8125,9.4375,-27.1875,0.2758789,-0.4921875,0.144043,-0.1425781,0.2314453,-0.1577148
334,9.1875,13.4375,-21.9375,0.2568359,-0.421875,0.1098633,-0.1435547,0.2299805,-0.1616211
338,9,11.3125,-14.9375,0.2255859,-0.340332,0.06738281,-0.1435547,0.2299805,-0.1616211
342,6.8125,8.875,-3.625,0.2333984,-0.3364258,0.06738281,-0.1435547,0.2275391,-0.1630859
346,2.1875,9,7.0625,0.2412109,-0.324707,0.05566406,-0.1435547,0.2275391,-0.1630859
350,0.375,7.6875,14.5625,0.2451172,-0.3676758,0.07910156,-0.1435547,0.2260742,-0.1630859
354,1.625,5.0625,20.4375,0.2177734,-0.3911133,0.09814453,-0.1401367,0.2275391,-0.1645508
358,2.3125,4,26.0625,0.2216797,-0.3989258,0.09033203,-0.1391602,0.2285156,-0.1630859
362,1.6875,1.4375,31.125,0.1713867,-0.3950195,0.105957,-0.1391602,0.2299805,-0.1645508
366,2,-3.875,36.6875,0.1367188,-0.421875,0.1171875,-0.1342773,0.2314453,-0.1660156
370,4.25,-8.25,44.5625,0.1445313,-0.4140625,0.1132813,-0.1328125,0.2324219,-0.1660156
374,4.5625,-8.4375,53.125,0.125,-0.421875,0.08642578,-0.1303711,0.2338867,-0.1660156
378,6.375,-9,61.125,0.1484375,-0.453125,0.04785156,-0.1245117,0.2373047,-0.1645508
382,11.4375,-2.8125,67.75,0.1635742,-0.4648438,0.04052734,-0.1201172,0.2387695,-0.1660156
387,16.1875,3.0625,72.5,0.07080078,-0.4648438,0.04443359,-0.1152344,0.2397461,-0.1645508
391,16.6875,2.75,79.625,0.02832031,-0.4375,0.01708984,-0.1069336,0.2397461,-0.1699219
395,19.25,4.75,85.5,-0.01025391,-0.4375,0.06738281,-0.1044922,0.2426758,-0.1699219
399,21.6875,8.5,95.3125,-0.06445313,-0.4335938,0.05957031,-0.09619141,0.2451172,-0.1713867
403,22.4375,12.25,105.5625,-0.1381836,-0.4257813,0.04785156,-0.08789063,0.2460938,-0.1728516
407,20.3125,11.0625,113.9375,-0.2583008,-0.4492188,0.05957031,-0.07714844,0.2475586,-0.1767578
411,14.875,7.25,121.5,-0.2851563,-0.4726563,0.04443359,-0.06982422,0.2475586,-0.1767578
415,10.3125,4.25,127.75,-0.3432617,-0.519043,0.03662109,-0.05908203,0.2485352,-0.1782227
419,9.3125,2.1875,133.3125,-0.362793,-0.5927734,0.05175781,-0.04736328,0.25,-0.1796875
423,15.25,6.3125,135.5,-0.4052734,-0.6318359,0.06738281,-0.0390625,0.2509766,-0.1796875
427,14.875,11.4375,149.125,-0.4985352,-0.6669922,0.01708984,-0.02587891,0.2524414,-0.1806641
431,0.8125,9.375,161.1875,-0.5063477,-0.6938477,-0.05517578,-0.01269531,0.2524414,-0.1835938
435,-11.5625,3.4375,156.5625,-0.5102539,-0.7832031,-0.02441406,0,0.2524414,-0.1821289
439,-11.375,0.8125,144.5625,-0.5795898,-0.8803711,0.009765625,0.01269531,0.2524414,-0.1821289
443,-6.3125,5.0625,146.6875,-0.6884766,-0.9389648,0.02099609,0.02587891,0.2524414,-0.1796875
447,-3.375,11.6875,155.75,-0.7543945,-0.9272461,0.005859375,0.03808594,0.25,-0.1821289
451,-6.1875,11.5,165.875,-0.8198242,-0.9077148,-0.02441406,0.04980469,0.2451172,-0.1782227
455,-17.25,10.0625,173.5625,-0.8745117,-0.9116211,-0.07861328,0.06640625,0.2426758,-0.1796875
459,-32.4375,6.1875,175.875,-0.9555664,-0.9389648,-0.112793,0.07617188,0.2397461,-0.1767578
463,-48.875,-0.375,173.875,-0.9985352,-1.004883,-0.1245117,0.09375,0.2373047,-0.1738281
467,-52.5,-4.125,171.4375,-1.056641,-1.15625,-0.06298828,0.1079102,0.2299805,-0.1713867
471,-49.125,-1.75,177.8125,-1.106934,-1.210938,-0.04394531,0.1176758,0.2275391,-0.168457
475,-54.9375,-1.625,193.375,-1.157227,-1.253418,-0.1015625,0.1318359,0.2211914,-0.1645508
479,-63.5,-8.375,198.3125,-1.11084,-1.334961,-0.1206055,0.1474609,0.2124023,-0.1616211
483,-67.75,-14.125,191.6875,-1.044922,-1.393555,-0.1166992,0.1582031,0.2075195,-0.15625
487,-66.1875,-16.1875,182.75,-0.9946289,-1.467285,-0.06298828,0.1713867,0.2011719,-0.1538086
491,-62,-14.5625,175.6875,-0.9555664,-1.45166,-0.06298828,0.1831055,0.1899414,-0.1484375
495,-63.25,-14.125,168.625,-0.9130859,-1.436035,-0.06689453,0.1914063,0.1850586,-0.1494141
499,-64.875,-14.5,160.5,-0.9365234,-1.424316,-0.07861328,0.2045898,0.1762695,-0.1455078
503,-72.25,-18.25,158.5,-0.9594727,-1.463379,-0.109375,0.2119141,0.1689453,-0.1425781
507,-78.625,-23.9375,156.375,-0.9052734,-1.541016,-0.0859375,0.2177734,0.1601563,-0.1386719
511,-77.0625,-28.0625,147.0625,-0.7929688,-1.64209,-0.04394531,0.2285156,0.1513672,-0.137207
516,-68.1875,-28.1875,131.875,-0.7036133,-1.696289,-0.009277344,0.2368164,0.1425781,-0.1333008
520,-57.5625,-25.75,117.3125,-0.6845703,-1.692383,0.009765625,0.2392578,0.1347656,-0.1289063
524,-49.0625,-9.0625,231.5625,-0.2851563,-5.737305,0.7480469,0.2436523,0.1210938,-0.1289063
528,275.25,107.8125,15.8125,1.605469,-3.961426,1.105957,0.2543945,0.09863281,-0.1264648
532,265.4375,90,-107.0625,-0.5874023,-1.941406,-0.9594727,0.2558594,0.09228516,-0.1303711
536,108.25,25.875,-68.75,-0.8510742,-1.253418,-0.4360352,0.253418,0.09228516,-0.1333008
540,63.25,-5,-26.875,-0.5488281,-1.327148,-0.1323242,0.2519531,0.09765625,-0.137207
544,57.4375,6.875,-0.0625,-0.4555664,-1.008789,-0.005371094,0.2519531,0.09863281,-0.1386719
548,14.375,18.5625,1.5,-0.5141602,-0.534668,-0.2397461,0.2519531,0.09863281,-0.1386719
552,-56.25,13,14.375,-0.6650391,-0.9736328,-0.1860352,0.2558594,0.09863281,-0.1386719
556,-92.5625,-19.8125,-9.9375,-0.5756836,-1.29248,0.08251953,0.2543945,0.1010742,-0.1357422
560,-67.375,-32.3125,-64.4375,-0.3666992,-1.638184,0.2866211,0.2568359,0.1064453,-0.137207
564,-21.375,-19.5,-114.0625,-0.378418,-1.606934,0.2675781,0.2485352,0.1176758,-0.137207
568,15.625,1.25,-133.3125,-0.5795898,-1.490723,0.1904297,0.2460938,0.1235352,-0.1401367
572,43.625,19.0625,-128.25,-0.7387695,-1.29248,0.07910156,0.2392578,0.1337891,-0.1416016
576,53.375,27.375,-116.875,-0.8432617,-1.144531,-0.009277344,0.2329102,0.1435547,-0.1416016
580,48.1875,24.75,-109.5625,-0.8666992,-1.055176,-0.07080078,0.2285156,0.1474609,-0.144043
584,34.9375,18.625,-108.625,-0.8354492,-1.074707,-0.07861328,0.2236328,0.15625,-0.1455078
588,26.375,15.5,-113.9375,-0.8007813,-1.136719,-0.005371094,0.215332,0.1625977,-0.1455078
592,25.75,15.125,-119,-0.7929688,-1.210938,0.04785156,0.2104492,0.1689453,-0.1455078
596,31.1875,13.5,-124.4375,-0.8085938,-1.237793,0.09423828,0.2045898,0.1738281,-0.1484375
600,38.875,11,-132.125,-0.8276367,-1.191406,0.07519531,0.1938477,0.1826172,-0.1455078
604,36.8125,4.125,-137,-0.8745117,-1.102051,0.02880859,0.1879883,0.1875,-0.1484375
608,27.625,-3.6875,-138.5625,-0.8935547,-1.055176,0.01367188,0.1782227,0.1962891,-0.1494141
612,20.75,-9,-136.125,-0.8393555,-1.102051,0.01708984,0.1689453,0.2011719,-0.1523438
616,19.875,-7.9375,-136.6875,-0.7578125,-1.11377,0.02099609,0.1616211,0.2084961,-0.1523438
620,18.375,-3.875,-136.1875,-0.7426758,-1.121582,0.03271484,0.1499023,0.2163086,-0.1538086
624,17.5625,-2.0625,-135.0625,-0.7773438,-1.121582,0.06347656,0.1391602,0.2197266,-0.1547852
628,17.25,-4.625,-131.0625,-0.7734375,-1.148438,0.08642578,0.1318359,0.2250977,-0.15625
632,20.5625,-6.75,-130.5,-0.7348633,-1.179688,0.1171875,0.1201172,0.2324219,-0.1591797
636,21.75,-12.5,-129.4375,-0.7231445,-1.160156,0.1098633,0.1079102,0.2363281,-0.1606445
640,19.5,-20.5625,-126.9375,-0.6611328,-1.167969,0.105957,0.1010742,0.2373047,-0.1606445
645,15.6875,-27.25,-125.4375,-0.5795898,-1.1875,0.105957,0.08789063,0.2436523,-0.1645508
649,12.75,-28.5625,-127.25,-0.4790039,-1.207031,0.08642578,0.07617188,0.2475586,-0.1660156
653,15.6875,-26.8125,-129.5,-0.4365234,-1.253418,0.08251953,0.06884766,0.2475586,-0.1645508
657,20.3125,-20.5625,-134.1875,-0.3745117,-1.21875,0.03662109,0.0546875,0.25,-0.1674805
661,19.6875,-17.875,-138.125,-0.3935547,-1.15625,-0.01660156,0.04150391,0.2524414,-0.1699219
665,15.6875,-17,-139.625,-0.4013672,-1.133301,-0.001464844,0.03173828,0.2539063,-0.1713867
669,15.75,-15.125,-136.375,-0.3666992,-1.136719,0.02880859,0.02001953,0.2563477,-0.1728516
673,20.4375,-9.5,-134.125,-0.347168,-1.11377,0.04785156,0.005859375,0.2548828,-0.1738281
677,20.25,-8.375,-131.375,-0.362793,-1.055176,0.03662109,-0.001953125,0.2563477,-0.175293
681,16.4375,-11.375,-128.5,-0.328125,-1.040039,0.03271484,-0.01513672,0.2563477,-0.1782227
685,16,-9.875,-127.3125,-0.2504883,-1.059082,0.04785156,-0.02832031,0.2524414,-0.1782227
689,20.4375,-4.5,-125.0625,-0.2119141,-1.094238,0.06347656,-0.03515625,0.2524414,-0.1796875
693,30.625,0.75,-124.25,-0.2041016,-1.055176,0.08251953,-0.04492188,0.25,-0.1796875
697,37.5,3.25,-123.125,-0.2119141,-0.9814453,0.07128906,-0.05810547,0.2475586,-0.1821289
701,40.1875,5.1875,-119.9375,-0.2080078,-0.8881836,0.08642578,-0.06640625,0.2436523,-0.1865234
705,46.625,5.8125,-115.75,-0.2119141,-0.7949219,0.09814453,-0.07470703,0.2373047,-0.1904297
709,54.625,6.125,-107.875,-0.1962891,-0.6318359,0.08642578,-0.08544922,0.2348633,-0.1958008
713,63.5,10.9375,-97.8125,-0.1533203,-0.5,0.07128906,-0.08886719,0.2299805,-0.1987305
717,68.5,15.375,-89.3125,-0.1459961,-0.3095703,0.001953125,-0.09619141,0.2236328,-0.2055664
721,64.5625,12.5,-80.6875,-0.1499023,-0.1811523,-0.05126953,-0.1030273,0.2163086,-0.2094727
725,48.9375,8.375,-70.25,-0.04882813,-0.05273438,-0.1166992,-0.1054688,0.2124023,-0.2133789
729,25.1875,5.9375,-59.6875,0.008789063,-0.02978516,-0.09375,-0.1113281,0.2050781,-0.2163086
733,5.4375,2.625,-49.375,0.07470703,-0.05664063,-0.04003906,-0.1162109,0.2026367,-0.21875
737,-9.4375,1.875,-39.9375,0.09765625,-0.1074219,0.04443359,-0.1176758,0.2050781,-0.21875
741,-20.6875,-2.375,-28.875,0.09033203,-0.2163086,0.1171875,-0.1210938,0.2026367,-0.2177734
745,-21.8125,-9.125,-20.5,0.140625,-0.3520508,0.1904297,-0.1220703,0.2026367,-0.2148438
749,-12.5,-10.875,-16.1875,0.2607422,-0.4570313,0.2133789,-0.1259766,0.2036133,-0.2133789
753,-0.1875,-4.375,-14.625,0.3378906,-0.4726563,0.1982422,-0.1269531,0.2036133,-0.2133789
757,7.8125,1.375,-14,0.3305664,-0.4375,0.1518555,-0.1259766,0.2011719,-0.2148438
761,8.25,2.75,-11.5625,0.2993164,-0.4067383,0.1289063,-0.1269531,0.2026367,-0.2148438
765,6.375,2.0625,-5,0.2836914,-0.4101563,0.1328125,-0.1293945,0.2026367,-0.2148438
769,4.875,4.3125,2.5625,0.3110352,-0.3950195,0.1367188,-0.128418,0.2011719,-0.2148438
774,-1.4375,4.375,7.625,0.2836914,-0.3754883,0.09033203,-0.1269531,0.2011719,-0.2133789
778,-11.5625,1.875,13.4375,0.2451172,-0.3989258,0.1171875,-0.1259766,0.2011719,-0.2177734
782,-18.1875,-1.8125,20.125,0.2529297,-0.4804688,0.1674805,-0.1245117,0.2026367,-0.2148438
786,-17.9375,-1.75,25.125,0.3032227,-0.550293,0.1982422,-0.1245117,0.2036133,-0.2119141
790,-14.6875,-1.375,26.5625,0.3071289,-0.5698242,0.1865234,-0.1235352,0.2050781,-0.2119141
794,-12.6875,-1.6875,30.0625,0.2797852,-0.5893555,0.1982422,-0.1210938,0.2075195,-0.2109375
798,-12.6875,-2.375,34.875,0.2758789,-0.5966797,0.1982422,-0.1186523,0.2099609,-0.2080078
802,-9.6875,-1.9375,38.5,0.2836914,-0.6318359,0.2021484,-0.1176758,0.2114258,-0.206543
806,-3.9375,1.1875,41.5,0.2797852,-0.6279297,0.1865234,-0.112793,0.2124023,-0.2094727
810,-0.0625,5.375,43.9375,0.2529297,-0.6005859,0.1748047,-0.1113281,0.2138672,-0.2109375
814,1.6875,7.125,46.9375,0.1948242,-0.5698242,0.1748047,-0.1079102,0.2148438,-0.2080078
818,3.6875,8.25,51,0.1635742,-0.550293,0.1787109,-0.1030273,0.2172852,-0.2094727
822,5.875,12.5,57.4375,0.1518555,-0.5268555,0.1674805,-0.09960938,0.21875,-0.2109375
826,8.0625,15.25,61.125,0.1132813,-0.4921875,0.1557617,-0.09472656,0.21875,-0.2094727
830,6.25,16.625,65.6875,0.008789063,-0.4257813,0.125,-0.08886719,0.2211914,-0.2109375
834,-2.375,13.3125,73.1875,-0.1069336,-0.4179688,0.1328125,-0.08203125,0.2211914,-0.2119141
838,-13.625,6,85.75,-0.1381836,-0.4375,0.1289063,-0.07714844,0.2250977,-0.2119141
842,-18.25,0,92.5625,-0.1342773,-0.5463867,0.1713867,-0.06982422,0.2260742,-0.2109375
846,-8,-1.0625,96.875,-0.1420898,-0.6279297,0.2021484,-0.06396484,0.2285156,-0.2109375
850,6.0625,4.875,107.3125,-0.1689453,-0.6591797,0.1557617,-0.05566406,0.2314453,-0.2080078
854,9.9375,10.5625,117.8125,-0.1611328,-0.6474609,0.08642578,-0.04492188,0.2324219,-0.2094727
858,8.125,12,122.9375,-0.1884766,-0.6787109,0.05957031,-0.0390625,0.2314453,-0.2119141
862,3.6875,15,122.5625,-0.1767578,-0.7133789,0.06347656,-0.02685547,0.2324219,-0.2119141
866,7.1875,21.75,121.8125,-0.2543945,-0.7485352,0.09033203,-0.01513672,0.2324219,-0.2109375
870,8.3125,28.875,124.875,-0.328125,-0.7211914,0.08642578,-0.006835938,0.2338867,-0.2119141
874,-6.8125,28.9375,130.75,-0.4594727,-0.6630859,0.04785156,0.003417969,0.2324219,-0.2133789
878,-32.5625,17.625,137.1875,-0.4907227,-0.7563477,0.05957031,0.01660156,0.2338867,-0.2119141
882,-41.875,11.75,136.4375,-0.4633789,-0.9116211,0.1328125,0.02587891,0.2314453,-0.2080078
886,-37.25,14.4375,139.4375,-0.4868164,-1.004883,0.1826172,0.0390625,0.2338867,-0.206543
890,-33.375,18.25,141.625,-0.5488281,-1.024414,0.159668,0.05078125,0.2299805,-0.2041016
894,-31.4375,17.9375,145.3125,-0.5795898,-1.059082,0.1479492,0.06054688,0.2324219,-0.2011719
898,-30.0625,17.0625,142.5625,-0.5756836,-1.105957,0.1171875,0.07470703,0.2285156,-0.1987305
903,-23.75,21.4375,137.6875,-0.6069336,-1.11377,0.1171875,0.08544922,0.2275391,-0.1958008
907,-19.25,27.1875,137.6875,-0.7075195,-1.059082,0.09033203,0.09375,0.2236328,-0.1958008
911,-32.3125,25.8125,142.625,-0.7890625,-1.016602,0.04052734,0.1069336,0.2197266,-0.1928711
915,-43.75,19.8125,144.125,-0.8237305,-1.043945,0.07128906,0.1210938,0.2163086,-0.1889648
919,-49.5625,16.5625,144.1875,-0.8125,-1.11377,0.08251953,0.1269531,0.2114258,-0.1821289
923,-49,16.4375,144.3125,-0.8354492,-1.191406,0.07910156,0.1401367,0.2060547,-0.1806641
927,-45.125,18.1875,142.9375,-0.8432617,-1.226563,0.08642578,0.1523438,0.2001953,-0.1767578
931,-41.9375,18.4375,141.5,-0.8745117,-1.222656,0.07910156,0.1606445,0.1987305,-0.1728516
935,-46.0625,18.5,141.8125,-0.8706055,-1.203125,0.02490234,0.1723633,0.1914063,-0.168457
939,-55,14.5625,140.375,-0.8588867,-1.233887,0.04785156,0.1806641,0.1835938,-0.1660156
943,-61.0625,6.375,138.875,-0.8510742,-1.315918,0.05566406,0.1904297,0.1801758,-0.1630859
947,-62.375,0.0625,134.1875,-0.7617188,-1.416504,0.1020508,0.1987305,0.1748047,-0.1577148
951,-56.5625,-3.3125,126.125,-0.715332,-1.475098,0.09814453,0.2070313,0.1660156,-0.1547852
955,-51.875,-5.375,114.8125,-0.6494141,-1.486816,0.07910156,0.2119141,0.1625977,-0.1538086
959,-46.5625,-6.6875,103.125,-0.6030273,-1.498535,0.05175781,0.21875,0.15625,-0.1508789
963,-36.1875,-1.9375,90.8125,-0.5605469,-1.494629,0.07910156,0.2246094,0.1489258,-0.1484375
967,-21.375,6.875,83.5,-0.6069336,-1.436035,0.08642578,0.2270508,0.1459961,-0.1455078
971,-16.5,10.375,77.8125,-0.6767578,-1.308105,0.06738281,0.2319336,0.1401367,-0.1469727
975,-18.3125,6.6875,70.375,-0.7075195,-1.22998,0.08251953,0.2368164,0.1347656,-0.144043
979,-18.1875,4.25,64.75,-0.7075195,-1.214844,0.125,0.2402344,0.1298828,-0.1416016
983,-16.4375,3.875,58.25,-0.7114258,-1.179688,0.140625,0.2412109,0.1274414,-0.1401367
987,-14.375,-0.8125,48,-0.730957,-1.129395,0.1328125,0.2460938,0.1225586,-0.137207
991,-17.0625,-7.9375,37.9375,-0.730957,-1.070801,0.1132813,0.2460938,0.1201172,-0.137207
995,-20.6875,-16.75,28.375,-0.746582,-1.008789,0.09033203,0.2475586,0.1186523,-0.1386719
999,-22.75,-26.6875,22.75,-0.7231445,-1.004883,0.08642578,0.2509766,0.1152344,-0.137207
1003,-18.375,-27.9375,21.4375,-0.6147461,-1.036133,0.05957031,0.2509766,0.1162109,-0.1386719
1007,-9.625,-19.6875,21.9375,-0.5292969,-1.070801,0.03271484,0.2509766,0.1152344,-0.1386719
1011,-4.0625,-12.3125,16.625,-0.4790039,-1.129395,-0.001464844,0.2509766,0.1123047,-0.1386719
1015,-0.375,-7.5,1.6875,-0.4130859,-1.207031,-0.005371094,0.253418,0.1113281,-0.1401367
1019,7.9375,-1.625,-17.375,-0.4052734,-1.253418,0.02490234,0.2509766,0.1137695,-0.1416016
1023,17.9375,4.5625,-30.25,-0.4790039,-1.245605,0.02880859,0.2485352,0.1137695,-0.1401367
1027,25.3125,8.625,-39.3125,-0.5253906,-1.210938,0.03662109,0.2475586,0.1162109,-0.1425781
1032,28.4375,10.5,-45.4375,-0.6069336,-1.167969,0.03662109,0.2485352,0.1186523,-0.144043
1036,28.0625,6.6875,-50.625,-0.6533203,-1.140625,0.03662109,0.2436523,0.1235352,-0.1455078
1040,26.375,0.3125,-56.3125,-0.6494141,-1.160156,0.001953125,0.2402344,0.1235352,-0.1469727
1044,23.125,-1.75,-62.6875,-0.5756836,-1.167969,-0.02832031,0.2402344,0.1289063,-0.1469727
1048,17.75,2.0625,-70.125,-0.5449219,-1.233887,-0.03222656,0.2353516,0.1323242,-0.1494141
1052,19.25,7.0625,-79.5,-0.5566406,-1.29248,-0.005371094,0.2319336,0.1362305,-0.1494141
1056,26.9375,10.4375,-92.75,-0.6108398,-1.288574,0.02099609,0.2294922,0.1401367,-0.1508789
1060,29.375,7.625,-99.875,-0.7075195,-1.22998,0.01367188,0.2236328,0.1450195,-0.1538086
1064,26.9375,3.3125,-106.5,-0.715332,-1.210938,0.04785156,0.2211914,0.1523438,-0.1508789
1068,27.6875,1.3125,-109.9375,-0.7270508,-1.237793,0.06347656,0.2128906,0.1577148,-0.1547852
1072,29.5,0,-113.75,-0.746582,-1.214844,0.05957031,0.2055664,0.1650391,-0.15625
1076,24.1875,-1.6875,-117,-0.7348633,-1.199219,0.05566406,0.2011719,0.1723633,-0.1577148
1080,19.8125,-4.4375,-123.125,-0.7504883,-1.21875,0.07910156,0.1928711,0.1787109,-0.1606445
1084,21.25,-8.25,-127.3125,-0.7543945,-1.284668,0.1171875,0.1831055,0.1860352,-0.1591797
1088,27.625,-7.5625,-132.125,-0.746582,-1.296387,0.125,0.1782227,0.1899414,-0.1606445
1092,32.375,-7.5,-134.375,-0.7695313,-1.272949,0.1020508,0.1674805,0.1972656,-0.1630859
1096,33.5625,-9.25,-134.8125,-0.7773438,-1.233887,0.105957,0.1582031,0.2050781,-0.1660156
1100,33.4375,-10.6875,-134.25,-0.7387695,-1.237793,0.1020508,0.1523438,0.2075195,-0.1660156
1104,35.125,-10.6875,-134.6875,-0.7231445,-1.237793,0.1098633,0.1391602,0.2138672,-0.1713867
1108,36.5625,-13.3125,-136.6875,-0.7036133,-1.226563,0.09033203,0.128418,0.2197266,-0.1728516
1112,37.5625,-13.5,-140.1875,-0.6611328,-1.195313,0.07128906,0.1186523,0.2236328,-0.1767578
1116,38.1875,-11.8125,-142.75,-0.6455078,-1.175781,0.07519531,0.1069336,0.2260742,-0.1782227
1120,40.3125,-10.625,-142.0625,-0.6455078,-1.140625,0.08642578,0.09619141,0.2314453,-0.1806641
1124,38,-11,-141.6875,-0.6303711,-1.074707,0.05957031,0.08789063,0.2324219,-0.1835938
1128,30.4375,-13.875,-141.0625,-0.6147461,-1.012695,0.07128906,0.07373047,0.2348633,-0.1889648
1132,22.9375,-16.25,-137.3125,-0.5834961,-1.008789,0.105957,0.06054688,0.2363281,-0.1918945
1136,16.5625,-17.0625,-136,-0.5141602,-1.004883,0.105957,0.05224609,0.2387695,-0.1918945
1140,11.5625,-16.9375,-140,-0.4555664,-1.000977,0.09814453,0.04052734,0.2412109,-0.1928711
1144,9.5,-18.25,-144.75,-0.4555664,-0.9619141,0.125,0.02734375,0.2426758,-0.1943359
1148,2.5625,-22.25,-142.1875,-0.4555664,-0.9116211,0.1289063,0.01757813,0.2436523,-0.1943359
1152,-4.4375,-25.4375,-136.0625,-0.4052734,-0.9038086,0.1328125,0.003417969,0.2436523,-0.1943359
1156,-10.1875,-28.5,-131.375,-0.3354492,-0.9194336,0.1518555,-0.009277344,0.2475586,-0.1958008
1161,-7.8125,-27.25,-129.5,-0.28125,-0.9506836,0.1904297,-0.01757813,0.2451172,-0.1918945
1165,-1.25,-24.125,-125.5,-0.2270508,-0.9580078,0.1904297,-0.03173828,0.2436523,-0.1918945
1169,7.375,-17.3125,-123.25,-0.2001953,-0.9272461,0.1865234,-0.04394531,0.2436523,-0.1928711
1173,11.3125,-13.875,-120.5,-0.1689453,-0.8300781,0.1367188,-0.05224609,0.2426758,-0.1918945
1177,12.3125,-14.5,-120.4375,-0.1499023,-0.7792969,0.1210938,-0.06298828,0.2387695,-0.1943359
1181,16.6875,-13.375,-118.8125,-0.1420898,-0.7250977,0.1210938,-0.07324219,0.2363281,-0.1958008
1185,18.375,-11.125,-111.0625,-0.1147461,-0.6357422,0.08642578,-0.08056641,0.2348633,-0.1904297
1189,19.0625,-9.5,-101.8125,-0.09912109,-0.581543,0.07128906,-0.09033203,0.2299805,-0.1958008
1193,20.375,-7.625,-92.4375,-0.04101563,-0.5229492,0.07519531,-0.09716797,0.2260742,-0.1943359
1197,19.9375,-5.4375,-82.5,-0.01025391,-0.4804688,0.07519531,-0.1044922,0.2250977,-0.1987305
1201,20.1875,-3.8125,-72.5625,0.04736328,-0.4570313,0.06738281,-0.1113281,0.2211914,-0.199707
1205,22.5625,2.0625,-62.5625,0.1015625,-0.4492188,0.05957031,-0.1162109,0.2172852,-0.2011719
1209,23.25,6.9375,-54.9375,0.1210938,-0.4067383,0.04785156,-0.1201172,0.2163086,-0.2055664
1213,19.625,8.4375,-46.875,0.1484375,-0.355957,0.05175781,-0.1245117,0.2124023,-0.2041016
1217,13.0625,7.75,-39,0.1518555,-0.355957,0.07128906,-0.1269531,0.2084961,-0.2055664
1221,6.375,4.625,-32.25,0.1831055,-0.3754883,0.1132813,-0.1269531,0.2075195,-0.206543
1225,3,1.8125,-29.25,0.2216797,-0.387207,0.140625,-0.1293945,0.2050781,-0.2094727
1229,-1.5,0,-27.8125,0.2294922,-0.387207,0.1367188,-0.1328125,0.2036133,-0.2094727
1233,-4.5625,-3,-23.375,0.2333984,-0.4414063,0.1557617,-0.1352539,0.2036133,-0.206543
1237,-1.1875,-2.4375,-15.5625,0.2797852,-0.5,0.1865234,-0.1352539,0.2036133,-0.2055664
1241,5.0625,0.6875,-12.3125,0.3227539,-0.4765625,0.1674805,-0.1376953,0.2011719,-0.2055664
1245,1.875,0.9375,-8.5,0.2646484,-0.4067383,0.105957,-0.1391602,0.2011719,-0.2055664
1249,-10.0625,-5.125,0.1875,0.2607422,-0.421875,0.1020508,-0.1367188,0.2011719,-0.206543
1253,-13.75,-8,6.75,0.3496094,-0.5268555,0.140625,-0.1367188,0.2011719,-0.2080078
1257,-9.375,-4.0625,11.6875,0.3847656,-0.5927734,0.1518555,-0.1367188,0.2050781,-0.2055664
1261,-6.1875,-0.1875,16.25,0.4038086,-0.6240234,0.1367188,-0.1376953,0.2036133,-0.2011719
1265,-7.8125,1.5,16.625,0.4077148,-0.6357422,0.1367188,-0.1352539,0.2050781,-0.2041016
1269,-10,0.6875,15.625,0.3959961,-0.6552734,0.1635742,-0.1328125,0.2060547,-0.2011719
1273,-9.8125,0,16.0625,0.4194336,-0.7016602,0.1826172,-0.1328125,0.2084961,-0.2026367
1277,-6.75,1.875,15.375,0.4116211,-0.7250977,0.1943359,-0.1318359,0.2084961,-0.2026367
1281,-2.1875,2.25,17.0625,0.3847656,-0.7290039,0.2021484,-0.1303711,0.2084961,-0.2041016
1285,-0.375,1.4375,20,0.3886719,-0.7016602,0.1787109,-0.1293945,0.2075195,-0.2026367
1290,-3.3125,1.25,22.375,0.3769531,-0.6821289,0.1557617,-0.1293945,0.2114258,-0.199707
1294,-5.125,0,24.6875,0.3730469,-0.6860352,0.1479492,-0.1259766,0.2114258,-0.2011719
1298,-4.125,2.625,27.9375,0.3613281,-0.7133789,0.1635742,-0.1259766,0.2124023,-0.2011719
1302,-1.625,5.8125,30.0625,0.3574219,-0.6938477,0.1674805,-0.1220703,0.2138672,-0.199707
1306,0.875,7.8125,30.8125,0.3227539,-0.6630859,0.1748047,-0.1210938,0.2138672,-0.2011719
1310,4.4375,9.25,33.5,0.2724609,-0.6162109,0.2021484,-0.1162109,0.2163086,-0.2011719
1314,9.625,11.5625,38.3125,0.2294922,-0.5854492,0.2021484,-0.1137695,0.2163086,-0.2041016
1318,12.6875,13.625,44,0.190918,-0.534668,0.1635742,-0.112793,0.2172852,-0.2011719
1322,8.75,13.9375,50,0.1518555,-0.5112305,0.1328125,-0.1069336,0.2172852,-0.2055664
1326,2.25,14.5,56.0625,0.140625,-0.5229492,0.1171875,-0.1020508,0.21875,-0.2055664
1330,-4.9375,13.875,60.6875,0.1015625,-0.5268555,0.105957,-0.09960938,0.2197266,-0.2080078
1334,-10.25,8.5,62,0.09765625,-0.5698242,0.1328125,-0.09375,0.2226563,-0.2055664
1338,-6.375,8.75,63.9375,0.09375,-0.6201172,0.1826172,-0.08789063,0.2226563,-0.2080078
1342,1.8125,12.875,71.125,0.02050781,-0.6201172,0.1674805,-0.08398438,0.2260742,-0.206543
1346,0.0625,14.25,79.5,0.004882813,-0.5620117,0.125,-0.07714844,0.2275391,-0.206543
1350,-7.4375,10.5625,82.8125,-0.04492188,-0.5541992,0.09033203,-0.06982422,0.2299805,-0.2080078
1354,-15.25,8.5,86.125,-0.06054688,-0.5927734,0.09814453,-0.06396484,0.2314453,-0.2055664
1358,-16.125,10,91.625,-0.09912109,-0.6630859,0.1132813,-0.05664063,0.2338867,-0.2055664
1362,-11.0625,14.0625,99.375,-0.1069336,-0.7211914,0.144043,-0.04589844,0.2348633,-0.2041016
1366,0.4375,20.5,101.6875,-0.1420898,-0.7250977,0.159668,-0.04248047,0.2363281,-0.2041016
1370,11.1875,28.6875,105.4375,-0.2348633,-0.7016602,0.1557617,-0.03076172,0.2387695,-0.2041016
1374,10.8125,33.125,115.3125,-0.3354492,-0.6318359,0.1289063,-0.02001953,0.2363281,-0.206543
1378,3.75,29,119.6875,-0.4443359,-0.6201172,0.1171875,-0.01171875,0.2373047,-0.206543
1382,-6,23,127.0625,-0.5214844,-0.6123047,0.09423828,0,0.2363281,-0.206543
1386,-13.75,18.625,135.5,-0.5410156,-0.6669922,0.1171875,0.01171875,0.2363281,-0.2055664
1390,-18.5625,16.5,146.875,-0.5991211,-0.6977539,0.09814453,0.01904297,0.2373047,-0.2055664
1394,-32.8125,11.4375,159,-0.5952148,-0.7910156,0.08251953,0.03662109,0.2373047,-0.2026367
1398,-44.4375,4.75,159.8125,-0.5991211,-0.8881836,0.07128906,0.04980469,0.2363281,-0.199707
1402,-49.6875,3.1875,156.75,-0.5683594,-1.036133,0.1020508,0.05810547,0.2348633,-0.1987305
1406,-35.75,10.9375,150.1875,-0.6147461,-1.144531,0.1787109,0.07470703,0.2348633,-0.1918945
1410,-18.0625,18.875,151.9375,-0.699707,-1.102051,0.1674805,0.08789063,0.2314453,-0.1889648
1414,-17.25,18.5625,157.6875,-0.7617188,-0.9892578,0.05175781,0.09521484,0.2260742,-0.1875
1419,-33.5,13.3125,158.0625,-0.7773438,-0.9541016,-0.01660156,0.1103516,0.2197266,-0.1875
1423,-53.1875,6.625,154,-0.8237305,-1.004883,-0.02832031,0.1225586,0.2163086,-0.1850586
1427,-62.0625,2.9375,154.4375,-0.8510742,-1.164063,0.03271484,0.1308594,0.2138672,-0.1806641
1431,-58.3125,2.875,156.25,-0.8432617,-1.284668,0.07128906,0.1425781,0.2075195,-0.1767578
1435,-49.3125,5.5625,153.875,-0.796875,-1.342773,0.07519531,0.1557617,0.2026367,-0.1728516
1439,-37.0625,9.8125,146.25,-0.78125,-1.34668,0.07128906,0.1640625,0.1972656,-0.168457
1443,-31.4375,15.125,140.25,-0.8237305,-1.214844,0.01708984,0.1757813,0.1899414,-0.1660156
1447,-45.375,12.6875,136.625,-0.9169922,-1.102051,-0.07080078,0.184082,0.1850586,-0.1616211
1451,-66,3.625,135.5625,-0.9477539,-1.094238,-0.05126953,0.1928711,0.1801758,-0.1591797
1455,-80.9375,-6.5625,137.4375,-0.9555664,-1.207031,-0.009277344,0.2021484,0.1723633,-0.1577148
1459,-86.5,-13.8125,132.75,-0.847168,-1.29248,-0.01660156,0.2080078,0.1674805,-0.1494141
1463,-83.8125,-13.75,125.0625,-0.7773438,-1.362305,-0.02050781,0.2138672,0.1611328,-0.1484375
1467,-82.5625,-11.25,116.5625,-0.7734375,-1.350586,-0.05517578,0.2202148,0.1547852,-0.1455078
1471,-87.6875,-15.8125,107.3125,-0.78125,-1.350586,-0.05126953,0.2285156,0.1489258,-0.1401367
1475,-87.9375,-22.5,98,-0.730957,-1.385742,-0.02832031,0.230957,0.1450195,-0.1386719
1479,-77.0625,-23.375,89.9375,-0.6494141,-1.475098,0.01367188,0.2368164,0.1435547,-0.1333008
1483,-54.5,-17.4375,82.5,-0.5834961,-1.490723,0.04785156,0.2412109,0.1376953,-0.1333008
1487,-31.75,-10.5625,72.9375,-0.5874023,-1.432129,0.02099609,0.2412109,0.1323242,-0.1303711
1491,-19.0625,-9.125,61.3125,-0.6108398,-1.334961,-0.02441406,0.2475586,0.1274414,-0.1289063
1495,-10.5625,-9.375,49.0625,-0.6186523,-1.284668,-0.02441406,0.2509766,0.1201172,-0.1264648
1499,-5.1875,-9.5,36.6875,-0.6303711,-1.233887,-0.03613281,0.2509766,0.1176758,-0.125
1503,-3.75,-10,26.3125,-0.6494141,-1.164063,-0.06298828,0.25,0.1162109,-0.125
1507,-6.3125,-12.6875,17.9375,-0.6689453,-1.11377,-0.08203125,0.253418,0.1123047,-0.125
1511,-4.75,-13.875,11.375,-0.5566406,-1.15625,-0.03613281,0.2543945,0.1098633,-0.125
1515,6.375,-8,-1.625,-0.5834961,-1.191406,0.001953125,0.253418,0.1088867,-0.1235352
1519,14.125,-8.9375,-11,-0.6264648,-1.040039,-0.06298828,0.253418,0.1098633,-0.125
1523,4.375,-8.75,-14.4375,-0.6147461,-0.8764648,-0.1552734,0.253418,0.1074219,-0.1279297
1527,-7,-5.4375,-12.9375,-0.6455078,-0.9038086,-0.1323242,0.2509766,0.1123047,-0.1289063
1531,-12.875,-1.625,-2.8125,-0.6186523,-1.055176,-0.09375,0.2519531,0.1137695,-0.1264648
1535,-13.1875,1.5625,-14.5625,-0.5292969,-1.136719,-0.05517578,0.25,0.1137695,-0.1289063
1539,-8.3125,4,-31.6875,-0.5410156,-1.280762,0.005859375,0.25,0.1176758,-0.1303711
1543,5.125,6.5625,-49.5,-0.5722656,-1.350586,0.03662109,0.25,0.1225586,-0.1303711
1548,18.9375,8,-60.125,-0.6147461,-1.350586,-0.005371094,0.2451172,0.125,-0.1289063
1552,26.0625,8.375,-70.0625,-0.6225586,-1.342773,-0.03222656,0.2426758,0.1337891,-0.1318359
1556,32.6875,10.5,-79.375,-0.6264648,-1.338867,-0.0859375,0.2392578,0.1347656,-0.1333008
1560,33.0625,13.0625,-85,-0.6611328,-1.319336,-0.1401367,0.2368164,0.1411133,-0.1333008
1564,26.8125,12.8125,-90.5625,-0.6494141,-1.338867,-0.1669922,0.230957,0.1459961,-0.137207
1568,22.375,11.1875,-101.9375,-0.6264648,-1.401367,-0.1362305,0.2260742,0.1538086,-0.1386719
1572,26.6875,15.0625,-116.1875,-0.6030273,-1.432129,-0.1166992,0.222168,0.1586914,-0.1347656
1576,32.8125,22.625,-126.625,-0.6611328,-1.432129,-0.1323242,0.2138672,0.1660156,-0.137207
1580,38.1875,28.375,-133.25,-0.746582,-1.401367,-0.1435547,0.2080078,0.1762695,-0.137207
1584,37.8125,28,-140.375,-0.8046875,-1.37793,-0.1245117,0.2021484,0.1801758,-0.1386719
1588,39,28.8125,-148,-0.8046875,-1.358398,-0.112793,0.1928711,0.1875,-0.1401367
1592,38.6875,28.875,-154.375,-0.8666992,-1.304199,-0.128418,0.184082,0.1987305,-0.1401367
1596,36.375,25.9375,-158.125,-0.8745117,-1.280762,-0.1166992,0.1757813,0.2026367,-0.1416016
1600,34.9375,26.375,-161.6875,-0.8818359,-1.257324,-0.09375,0.1665039,0.2124023,-0.1416016
1604,36.25,26.375,-161.125,-0.9052734,-1.249512,-0.06298828,0.1523438,0.21875,-0.1425781
1608,36.3125,26.25,-160.5625,-0.9013672,-1.1875,-0.04736328,0.144043,0.2236328,-0.1469727
1612,32.625,22.375,-157.5625,-0.8935547,-1.148438,-0.03222656,0.1293945,0.2324219,-0.1455078
1616,26.5625,16.875,-152.8125,-0.8896484,-1.148438,-0.01660156,0.1201172,0.2373047,-0.1469727
1620,20.3125,10.5625,-150.5,-0.8125,-1.167969,0.001953125,0.1103516,0.2397461,-0.1455078
1624,18.8125,5.75,-154.625,-0.7387695,-1.195313,0.01367188,0.09863281,0.2460938,-0.1484375
1628,23.375,6.75,-159.75,-0.6845703,-1.191406,0.04785156,0.08447266,0.2524414,-0.1508789
1632,32.1875,11.1875,-160.25,-0.6923828,-1.160156,0.04785156,0.07373047,0.2539063,-0.1508789
1636,37.25,11.875,-155.4375,-0.6962891,-1.066895,0.03662109,0.05810547,0.2563477,-0.1547852
1640,37.5625,9.0625,-149.625,-0.6611328,-1.000977,0.04443359,0.04492188,0.2587891,-0.15625
1644,35.3125,6.375,-144.75,-0.6030273,-0.9506836,0.02490234,0.03662109,0.2612305,-0.1577148
1648,30.75,3.4375,-140.9375,-0.5605469,-0.9272461,0.02490234,0.02148438,0.2612305,-0.1616211
1652,30.3125,0.6875,-136.25,-0.5141602,-0.9350586,0.05175781,0.009277344,0.2597656,-0.1606445
1656,33.875,0.9375,-131.6875,-0.4672852,-0.8999023,0.07128906,0.002441406,0.2612305,-0.168457
1660,36,0,-129.1875,-0.4169922,-0.8647461,0.04443359,-0.01025391,0.2587891,-0.1699219
1664,35.125,-0.875,-126.875,-0.3588867,-0.7949219,0.02099609,-0.02246094,0.2573242,-0.1738281
1668,33.625,-2,-125.4375,-0.3320313,-0.7602539,0.01367188,-0.02929688,0.2548828,-0.175293
1672,37.75,-1.5,-123.6875,-0.2890625,-0.7133789,0.03662109,-0.04150391,0.2524414,-0.1796875
1677,47.8125,3.1875,-121,-0.2773438,-0.6435547,0.04785156,-0.05419922,0.2485352,-0.1821289
1681,56.5625,6.9375,-111.25,-0.3007813,-0.550293,0.03662109,-0.05908203,0.2451172,-0.1835938
1685,57.3125,6.5625,-95.9375,-0.2387695,-0.421875,0.009765625,-0.06982422,0.2397461,-0.1889648
1689,48.4375,4.0625,-80.8125,-0.1459961,-0.3286133,-0.04003906,-0.07568359,0.2348633,-0.1943359
1693,31.375,0.125,-67,-0.06835938,-0.3442383,-0.03222656,-0.08203125,0.2324219,-0.1958008
1697,18.125,-1.0625,-57.0625,0.03955078,-0.4609375,0.03271484,-0.08544922,0.2299805,-0.199707
1701,16.875,2,-56.1875,0.1484375,-0.534668,0.07519531,-0.08886719,0.2285156,-0.2011719
1705,24.0625,7.875,-59.625,0.1557617,-0.5698242,0.1328125,-0.09228516,0.2250977,-0.2026367
1709,31.25,10.875,-57.8125,0.1132813,-0.4804688,0.140625,-0.09863281,0.2226563,-0.2041016
1713,25,6.9375,-49.9375,0.09765625,-0.371582,0.09814453,-0.1020508,0.21875,-0.206543
1717,9.9375,-2.3125,-40.1875,0.1171875,-0.340332,0.07910156,-0.1044922,0.2172852,-0.2055664
1721,-2.75,-8.125,-33.8125,0.1791992,-0.402832,0.1132813,-0.1079102,0.2148438,-0.206543
1725,-5.4375,-8.6875,-30.5625,0.2490234,-0.4648438,0.1171875,-0.1113281,0.2148438,-0.2094727
1729,-3.25,-4.5,-26.6875,0.2836914,-0.4609375,0.1171875,-0.112793,0.2148438,-0.206543
1733,-3,-2.1875,-23.5,0.2607422,-0.4335938,0.1132813,-0.1162109,0.2138672,-0.2094727
1737,-5.625,-0.9375,-19.625,0.2646484,-0.4140625,0.1289063,-0.1152344,0.2124023,-0.206543
1741,-8.25,-1.25,-14.0625,0.2490234,-0.402832,0.1557617,-0.1176758,0.2099609,-0.2055664
1745,-13.375,-2.75,-9.125,0.2412109,-0.3637695,0.1328125,-0.1176758,0.2124023,-0.206543
1749,-18.25,-4.3125,-3.0625,0.2333984,-0.3911133,0.144043,-0.1201172,0.2124023,-0.2041016
1753,-18.75,-4.0625,4.375,0.2333984,-0.4140625,0.1713867,-0.1201172,0.2138672,-0.2026367
1757,-15.5625,-3.5625,10.8125,0.2333984,-0.4296875,0.1865234,-0.1186523,0.2138672,-0.2011719
1761,-12.4375,-3.25,17.25,0.1948242,-0.4179688,0.1674805,-0.1176758,0.2163086,-0.199707
1765,-13.0625,-4.5625,24.9375,0.175293,-0.402832,0.159668,-0.1186523,0.21875,-0.199707
1769,-13.4375,-5.4375,32.9375,0.1831055,-0.421875,0.1787109,-0.1162109,0.21875,-0.1987305
1773,-9.5,-4.25,41.5,0.1870117,-0.4726563,0.1904297,-0.112793,0.2211914,-0.1972656
1777,-2.8125,-1.4375,48.625,0.175293,-0.5,0.1674805,-0.1103516,0.2211914,-0.1987305
1781,0.125,1.5625,55.0625,0.190918,-0.4726563,0.144043,-0.1069336,0.2250977,-0.1972656
1785,-2.625,1.3125,61.125,0.125,-0.4726563,0.09814453,-0.1020508,0.2260742,-0.1972656
1789,-8.5625,-0.4375,66.875,0.1289063,-0.5151367,0.1132813,-0.09960938,0.2260742,-0.1958008
1793,-7.125,0.3125,71.4375,0.1132813,-0.5737305,0.159668,-0.09375,0.2314453,-0.1958008
1797,-5.625,-0.375,79.5625,0.07080078,-0.6083984,0.1518555,-0.08642578,0.2338867,-0.1943359
1801,-5.5625,-2.75,85.125,0.07080078,-0.6513672,0.1518555,-0.08203125,0.2324219,-0.1958008
1806,-3.0625,-4.25,86.875,0.07470703,-0.6977539,0.140625,-0.07568359,0.2348633,-0.1943359
1810,3.0625,-2.8125,84.9375,0.04736328,-0.7368164,0.1479492,-0.06494141,0.2373047,-0.1943359
1814,12.75,-0.625,87.5625,-0.002441406,-0.7329102,0.1132813,-0.06396484,0.2387695,-0.1958008
1818,19.9375,5.3125,90.9375,-0.01806641,-0.6977539,0.07519531,-0.05664063,0.2397461,-0.1972656
1822,22.0625,11.0625,95.4375,-0.05273438,-0.6357422,0.05175781,-0.04736328,0.2397461,-0.1987305
1826,19.25,15.625,98.875,-0.1225586,-0.5927734,0.01708984,-0.04248047,0.2397461,-0.1987305
1830,15.375,21.3125,103.9375,-0.1767578,-0.581543,0.03271484,-0.03076172,0.2387695,-0.2011719
1834,7.875,23.1875,108.0625,-0.2929688,-0.5698242,0.02099609,-0.02001953,0.2397461,-0.2026367
1838,2.875,24.75,111.875,-0.3393555,-0.6044922,0.07128906,-0.01416016,0.2397461,-0.2041016
1842,-0.6875,26.0625,116.4375,-0.4169922,-0.6123047,0.05957031,-0.001953125,0.2397461,-0.2026367
1846,-11.9375,25.375,122.375,-0.5175781,-0.5893555,0.05175781,0.01074219,0.2387695,-0.2011719
1850,-30.875,18.4375,124.875,-0.5834961,-0.6201172,0.06347656,0.01757813,0.2387695,-0.2011719
1854,-43.875,9.125,126.5625,-0.6455078,-0.7641602,0.1020508,0.03076172,0.2412109,-0.1987305
1858,-41.8125,1.1875,129.3125,-0.6376953,-0.9541016,0.1518555,0.04150391,0.2412109,-0.1958008
1862,-26.375,3.375,131.8125,-0.5566406,-1.090332,0.1904297,0.04882813,0.2387695,-0.1918945
1866,-3.625,19.625,134.3125,-0.5102539,-1.094238,0.140625,0.06152344,0.2387695,-0.1928711
1870,-7.4375,28.875,132.75,-0.6264648,-0.9619141,0.005859375,0.07617188,0.2324219,-0.1889648
1874,-28.8125,20.5625,124.6875,-0.7231445,-0.9233398,-0.06689453,0.08300781,0.2324219,-0.1875
1878,-46.625,9.3125,122.125,-0.7929688,-1.024414,-0.02832031,0.09375,0.2285156,-0.1850586
1882,-46.375,8.5,133.75,-0.765625,-1.210938,0.08642578,0.1044922,0.2260742,-0.1835938
1886,-27.4375,20.9375,151.25,-0.6806641,-1.29248,0.1132813,0.112793,0.2250977,-0.1782227
1890,-16.25,33.375,157.9375,-0.6728516,-1.195313,0.04443359,0.1269531,0.2172852,-0.1767578
1894,-32.625,29.875,158.8125,-0.7348633,-1.152344,-0.06298828,0.1401367,0.2099609,-0.1728516
1898,-56.375,19.4375,148,-0.7851563,-1.175781,-0.07470703,0.1499023,0.2060547,-0.1713867
1902,-76.0625,3.875,137.6875,-0.7890625,-1.315918,-0.02050781,0.1606445,0.2026367,-0.1674805
1906,-73.3125,-0.75,132.875,-0.7192383,-1.467285,0.07128906,0.1713867,0.1948242,-0.1591797
1910,-57.8125,6.4375,129.3125,-0.6806641,-1.475098,0.05175781,0.1806641,0.1914063,-0.15625
1914,-49.25,9.75,124.1875,-0.6884766,-1.401367,0.001953125,0.1865234,0.1860352,-0.1538086
1918,-42.625,11.9375,116.125,-0.6923828,-1.350586,-0.02050781,0.1948242,0.1801758,-0.1508789
1922,-41,13.75,107.375,-0.765625,-1.265137,-0.07861328,0.2021484,0.1762695,-0.1484375
1926,-50.8125,8.4375,100.8125,-0.8745117,-1.222656,-0.1054688,0.2094727,0.1689453,-0.144043
1930,-57.4375,1.125,99.5,-0.8432617,-1.288574,-0.03613281,0.215332,0.1635742,-0.1401367
1935,-49.5625,0.9375,98.9375,-0.78125,-1.296387,0.01708984,0.21875,0.1586914,-0.137207
1939,-44.5,0.875,95.9375,-0.7426758,-1.21875,-0.009277344,0.2270508,0.1547852,-0.1357422
1943,-48.5625,-6.4375,84.5625,-0.7617188,-1.140625,-0.01318359,0.230957,0.1499023,-0.1318359
1947,-60,-24.375,70.9375,-0.796875,-1.121582,-0.03222656,0.2329102,0.1435547,-0.1279297
1951,-73.25,-41.625,61.5625,-0.746582,-1.148438,-0.08984375,0.2368164,0.1425781,-0.1264648
1955,-85.25,-53.5,57.3125,-0.6845703,-1.269043,-0.1015625,0.2402344,0.1362305,-0.1235352
1959,-83.3125,-54.625,54.6875,-0.5605469,-1.397461,-0.05517578,0.2412109,0.1362305,-0.1225586
1963,-69.375,-47.875,51.3125,-0.4750977,-1.48291,-0.009277344,0.2426758,0.1298828,-0.1181641
1967,-42.3125,-30.6875,74.25,-0.2773438,-2.131836,0.2402344,0.2451172,0.125,-0.1196289
1971,59,13.9375,39.875,-0.04882813,-2.189941,0.4365234,0.2460938,0.1201172,-0.1196289
1975,96.1875,23.625,10.0625,-0.3549805,-1.475098,-0.08984375,0.25,0.1123047,-0.1225586
1979,37.6875,0.3125,-17.125,-0.4790039,-0.9272461,-0.359375,0.2485352,0.1137695,-0.125
1983,-10.75,-23.25,-34.6875,-0.5175781,-0.9619141,-0.2324219,0.2485352,0.1152344,-0.1279297
1987,-34.625,-24.6875,-26.125,-0.5913086,-1.070801,-0.1938477,0.2460938,0.1210938,-0.1279297
1991,-45,-14.25,-9.4375,-0.4248047,-1.288574,-0.03613281,0.2426758,0.1225586,-0.1289063
1995,-25.4375,3.4375,-21.375,-0.3745117,-1.544922,0.08642578,0.2426758,0.1264648,-0.1279297
1999,7.375,12,-44.875,-0.3666992,-1.61084,0.1328125,0.2392578,0.1298828,-0.1279297
2003,35.75,18.8125,-74,-0.4482422,-1.541016,0.07128906,0.2392578,0.1362305,-0.1289063
2007,48.625,22.75,-90.1875,-0.5756836,-1.447754,-0.01660156,0.2368164,0.1401367,-0.1303711
2011,54.3125,23.75,-99.4375,-0.6342773,-1.342773,-0.07080078,0.2319336,0.1474609,-0.1318359
2015,54.25,25.1875,-101.9375,-0.6923828,-1.284668,-0.1054688,0.2246094,0.1538086,-0.1347656
2019,47.9375,23.125,-102.0625,-0.7578125,-1.22998,-0.112793,0.222168,0.1577148,-0.1357422
2023,40.375,18.1875,-100.125,-0.746582,-1.308105,-0.08984375,0.215332,0.1635742,-0.137207
2027,39.75,16.0625,-106.6875,-0.7075195,-1.366211,-0.07080078,0.2104492,0.1689453,-0.1401367
2031,40.0625,13.625,-117.125,-0.699707,-1.412598,-0.06689453,0.2070313,0.1762695,-0.1416016
2035,43,16.0625,-128.875,-0.6689453,-1.436035,-0.07470703,0.1972656,0.1826172,-0.1425781
2039,47.4375,18.625,-139.3125,-0.7348633,-1.432129,-0.08984375,0.1928711,0.1884766,-0.1416016
2043,48.75,17.625,-145.875,-0.746582,-1.362305,-0.1054688,0.184082,0.1962891,-0.1425781
2047,45.4375,16.4375,-151.375,-0.765625,-1.308105,-0.1362305,0.1748047,0.2011719,-0.1455078
2051,40.25,15.75,-154.4375,-0.7773438,-1.272949,-0.128418,0.1630859,0.2084961,-0.1484375
2055,35.3125,15.125,-155.8125,-0.7929688,-1.276855,-0.1015625,0.1547852,0.2138672,-0.1508789
2059,33.125,16.125,-158.5625,-0.78125,-1.276855,-0.07080078,0.144043,0.2226563,-0.1508789
2064,32.4375,16,-159.875,-0.8007813,-1.269043,-0.05517578,0.1308594,0.2285156,-0.1538086
2068,30.375,14.625,-160,-0.78125,-1.214844,-0.04736328,0.1201172,0.2314453,-0.1547852
2072,26.625,12.3125,-157.6875,-0.7734375,-1.203125,-0.01318359,0.105957,0.2387695,-0.1547852
2076,25.1875,7.75,-157.5625,-0.7578125,-1.191406,0.01708984,0.09375,0.2436523,-0.1577148
2080,25,4.5,-157.6875,-0.715332,-1.160156,0.04443359,0.08447266,0.2460938,-0.1591797
2084,24.25,0.25,-156.8125,-0.6884766,-1.109863,0.04785156,0.06982422,0.25,-0.1606445
2088,19.5625,-4.5625,-153.8125,-0.6689453,-1.059082,0.03662109,0.05566406,0.2539063,-0.1616211
2092,13.3125,-9.9375,-150.375,-0.5952148,-1.070801,0.05175781,0.04638672,0.2548828,-0.1645508
2096,14.375,-12.375,-147.3125,-0.5175781,-1.094238,0.03662109,0.03173828,0.2573242,-0.1630859
2100,19.0625,-6.125,-144,-0.4091797,-1.059082,0.05957031,0.01904297,0.2587891,-0.1674805
2104,21.375,3.0625,-140,-0.3974609,-1.016602,0.04052734,0.009277344,0.2597656,-0.168457
2108,19.125,3.75,-136.8125,-0.4169922,-0.9775391,0.06738281,-0.001953125,0.2597656,-0.1713867
2112,17.5,-0.4375,-135.6875,-0.362793,-0.9541016,0.09033203,-0.01416016,0.2573242,-0.1699219
2116,17.0625,-1.375,-135,-0.3046875,-0.9428711,0.09033203,-0.02490234,0.2563477,-0.1713867
2120,20,0.125,-133.5625,-0.262207,-0.9194336,0.08642578,-0.03662109,0.2563477,-0.175293
2124,24.3125,2.75,-131.5625,-0.2192383,-0.8574219,0.08642578,-0.04980469,0.2548828,-0.1767578
2128,29.4375,7.3125,-127.5625,-0.2119141,-0.7680664,0.07910156,-0.05810547,0.25,-0.1767578
2132,31.0625,8.75,-119.4375,-0.215332,-0.6748047,0.08251953,-0.06884766,0.2475586,-0.1782227
2136,32.25,8.25,-112.1875,-0.2041016,-0.6240234,0.07519531,-0.07714844,0.2412109,-0.1835938
2140,34.4375,7.125,-105.375,-0.1572266,-0.5268555,0.07910156,-0.08544922,0.2387695,-0.1850586
2144,32.125,5.375,-98.4375,-0.1381836,-0.4296875,0.04052734,-0.09130859,0.2324219,-0.1875
2148,21.375,0.9375,-89,-0.1303711,-0.3095703,-0.009277344,-0.1010742,0.2299805,-0.1918945
2152,-0.625,-9.375,-78.1875,-0.07226563,-0.2822266,-0.02050781,-0.1054688,0.2285156,-0.1918945
2156,-13.1875,-14.625,-67.75,0.04345703,-0.3481445,0.02490234,-0.1113281,0.2275391,-0.1889648
2160,-16.1875,-12,-58.1875,0.1328125,-0.3911133,0.07128906,-0.1176758,0.2250977,-0.1889648
2164,-16.9375,-6.5,-48.1875,0.1674805,-0.421875,0.09033203,-0.1235352,0.2250977,-0.1875
2168,-15.9375,-6.375,-42.125,0.1987305,-0.4765625,0.125,-0.1259766,0.2226563,-0.1850586
2172,-10.0625,-6.4375,-39.75,0.2607422,-0.5307617,0.1518555,-0.1303711,0.2211914,-0.1835938
2176,2.3125,-2.25,-38.125,0.2915039,-0.5581055,0.1865234,-0.1318359,0.2226563,-0.1835938
2180,15.3125,2,-35,0.2915039,-0.5112305,0.1518555,-0.1367188,0.2197266,-0.1865234
2184,15.3125,2.5,-30.5625,0.2646484,-0.4067383,0.08642578,-0.1391602,0.21875,-0.1850586
2188,9.25,-1.1875,-25.75,0.2607422,-0.387207,0.08642578,-0.1391602,0.2163086,-0.1865234
2193,6.3125,-2.5,-19.3125,0.2758789,-0.4101563,0.09814453,-0.1401367,0.2124023,-0.1865234
2197,4.625,-0.9375,-12.5,0.2954102,-0.4101563,0.1020508,-0.1425781,0.2148438,-0.1889648
2201,2.0625,-1.0625,-6,0.2954102,-0.3989258,0.09423828,-0.1411133,0.2124023,-0.1865234
2205,-2.3125,-2.4375,0.9375,0.2954102,-0.4101563,0.105957,-0.1425781,0.2138672,-0.1875
2209,-5.9375,-4.375,8.75,0.3266602,-0.4726563,0.1132813,-0.1425781,0.2124023,-0.1875
2213,-5,-5.75,14.125,0.3691406,-0.5385742,0.1171875,-0.1401367,0.2148438,-0.1875
2217,-5.125,-4.8125,17.6875,0.4038086,-0.5581055,0.105957,-0.1411133,0.2148438,-0.1850586
2221,-5.9375,-4,18.5625,0.4077148,-0.5927734,0.1171875,-0.1411133,0.2124023,-0.1835938
2225,-4.4375,-4.1875,16.3125,0.3925781,-0.6044922,0.1328125,-0.1391602,0.2172852,-0.1850586
2229,-3.5625,-5.8125,14.8125,0.3457031,-0.5698242,0.1210938,-0.1376953,0.21875,-0.1835938
2233,-7.125,-10.8125,16.1875,0.3149414,-0.4960938,0.07910156,-0.1376953,0.2172852,-0.1835938
2237,-16.0625,-18.5625,21.25,0.2836914,-0.4960938,0.04785156,-0.1367188,0.2197266,-0.1821289
2241,-22.9375,-22.9375,28.5,0.3110352,-0.5229492,0.02490234,-0.1367188,0.2211914,-0.1796875
2245,-26.6875,-22.8125,38,0.3266602,-0.550293,0.009765625,-0.1342773,0.2236328,-0.175293
2249,-33.375,-18.5,47.875,0.3847656,-0.565918,-0.03222656,-0.1318359,0.2260742,-0.175293
2253,-41.0625,-11.6875,52.1875,0.3886719,-0.6240234,-0.02050781,-0.1318359,0.2285156,-0.1728516
2257,-41.9375,-8.1875,50.6875,0.3574219,-0.6977539,0.04443359,-0.1259766,0.2338867,-0.168457
2261,-33,-6.75,45.5,0.2875977,-0.7446289,0.1367188,-0.1235352,0.2348633,-0.1645508
2265,-21.3125,-7.5625,45.375,0.2104492,-0.7329102,0.1557617,-0.1201172,0.2373047,-0.1616211
2269,-10.875,-8.4375,49.5,0.1518555,-0.7133789,0.1904297,-0.1152344,0.2426758,-0.1606445
2273,2.1875,-12.1875,55.375,0.1289063,-0.7055664,0.1748047,-0.112793,0.2412109,-0.1606445
2277,11.75,-12,60.125,0.1367188,-0.6357422,0.1171875,-0.109375,0.2451172,-0.1591797
2281,16.75,-10.25,64.8125,0.1132813,-0.6005859,0.04785156,-0.1054688,0.2451172,-0.1616211
2285,24.8125,-4.9375,68.6875,0.1054688,-0.581543,0.05957031,-0.09960938,0.2475586,-0.1645508
2289,31,2.625,77.0625,0.008789063,-0.5151367,0.01708984,-0.09472656,0.2475586,-0.1645508
2293,19.625,4.5,91.6875,-0.05664063,-0.4414063,-0.04394531,-0.08789063,0.2485352,-0.168457
2297,3.5625,-0.1875,99.0625,-0.1069336,-0.46875,-0.04003906,-0.07958984,0.25,-0.168457
2301,-0.9375,-3.625,99.625,-0.1147461,-0.534668,0.05175781,-0.07226563,0.2524414,-0.1674805
2305,10.3125,0.1875,100.625,-0.1650391,-0.5854492,0.09814453,-0.06396484,0.2539063,-0.1699219
2309,26.25,7.0625,107.4375,-0.2504883,-0.5581055,0.07519531,-0.05566406,0.2548828,-0.1713867
2313,29.1875,12.9375,123.1875,-0.3666992,-0.503418,-0.01660156,-0.04589844,0.2548828,-0.1738281
2317,13.0625,11.5,141.3125,-0.4521484,-0.5229492,-0.06298828,-0.03417969,0.2548828,-0.175293
2322,-8.5,3.0625,151.5,-0.4404297,-0.5737305,-0.07470703,-0.0234375,0.2548828,-0.1738281
2326,-26,-6.4375,152.8125,-0.4711914,-0.7290039,-0.02441406,-0.01025391,0.2548828,-0.1738281
2330,-32.4375,-11.4375,154.625,-0.4829102,-0.8535156,0.02099609,0.004394531,0.2539063,-0.1728516
2334,-31.8125,-11.375,156.0625,-0.4985352,-0.9506836,0.05566406,0.01171875,0.2563477,-0.1699219
2338,-32.25,-11.625,160.5625,-0.5566406,-1.008789,0.01367188,0.02734375,0.2563477,-0.1674805
2342,-40.375,-13.3125,164.9375,-0.5913086,-1.062988,-0.009277344,0.04150391,0.2548828,-0.1645508
2346,-43.5,-14.3125,159.5625,-0.6069336,-1.175781,0.02880859,0.05078125,0.2539063,-0.1606445
2350,-31.1875,-11.1875,155.3125,-0.6650391,-1.265137,0.1098633,0.06542969,0.2509766,-0.1591797
2354,-13.1875,-5.3125,159.625,-0.7075195,-1.288574,0.1171875,0.07958984,0.2524414,-0.1577148
2358,3.0625,-1.0625,163.375,-0.699707,-1.272949,0.1020508,0.08886719,0.2451172,-0.1577148
2362,10.125,2.5625,161.0625,-0.6923828,-1.1875,0.02099609,0.1035156,0.2397461,-0.15625
2366,0.75,0.25,157,-0.765625,-1.109863,-0.02832031,0.1166992,0.2324219,-0.1591797
2370,-18.0625,-7,153.375,-0.8007813,-1.102051,-0.04736328,0.1259766,0.2275391,-0.1577148
2374,-31.3125,-12.9375,149.875,-0.8164063,-1.183594,-0.03613281,0.1376953,0.2211914,-0.1591797
2378,-35.9375,-16.25,145.4375,-0.831543,-1.26123,-0.01318359,0.1484375,0.2148438,-0.1547852
2382,-28.9375,-15.625,145.1875,-0.8164063,-1.358398,0.02490234,0.1591797,0.2099609,-0.1523438
2386,-12.125,-8.125,146.5625,-0.796875,-1.428223,0.03662109,0.1689453,0.2026367,-0.1547852
2390,4.25,3.25,142.6875,-0.715332,-1.358398,0.02099609,0.1782227,0.1948242,-0.1538086
2394,10.6875,12.75,135.0625,-0.7114258,-1.300293,-0.01660156,0.184082,0.1875,-0.1538086
2398,12.9375,21.9375,129.875,-0.7192383,-1.237793,-0.005371094,0.1948242,0.1787109,-0.1547852
2402,-2.75,21.5625,125.9375,-0.7734375,-1.152344,-0.05126953,0.2055664,0.1674805,-0.1547852
2406,-28.0625,9.8125,115.5,-0.8198242,-1.167969,-0.08203125,0.2104492,0.1625977,-0.1538086
2410,-56.1875,-5.3125,105.375,-0.8125,-1.233887,-0.06298828,0.21875,0.1547852,-0.1484375
2414,-72.75,-14.3125,99.3125,-0.7504883,-1.428223,-0.001464844,0.2260742,0.1499023,-0.1469727
2418,-67.4375,-15.3125,92.4375,-0.6767578,-1.583984,0.09423828,0.2270508,0.1459961,-0.1455078
2422,-48.375,-11.125,83.9375,-0.6225586,-1.626465,0.1367188,0.2319336,0.1411133,-0.1425781
2426,-32,-9.9375,74.375,-0.6376953,-1.568359,0.125,0.237793,0.1347656,-0.1401367
2430,-21.8125,-17.25,63.25,-0.6494141,-1.501953,0.07519531,0.2392578,0.1337891,-0.1401367
2434,-19.9375,-24.1875,53.9375,-0.6225586,-1.439941,0.03662109,0.2412109,0.1289063,-0.1401367
2438,-18.3125,-28.25,47.125,-0.5874023,-1.471191,0.02880859,0.2460938,0.1264648,-0.1401367
2442,-8.0625,-29.5,40.5625,-0.5024414,-1.494629,0.03271484,0.2451172,0.1235352,-0.137207
2446,4.625,-24.5,29.375,-0.4130859,-1.463379,-0.01318359,0.2451172,0.1186523,-0.1401367
2451,15.375,-16,12.0625,-0.3320313,-1.443848,-0.04394531,0.2475586,0.1176758,-0.1425781
2455,28.375,-4.1875,-8.5,-0.3393555,-1.42041,-0.05517578,0.2451172,0.1152344,-0.144043
2459,36.4375,2.8125,-24.6875,-0.4326172,-1.350586,-0.1054688,0.2436523,0.1162109,-0.1455078
2463,39.375,4.875,-37.375,-0.4790039,-1.29248,-0.1323242,0.2426758,0.1176758,-0.1484375
2467,38.6875,8.4375,-47.3125,-0.4907227,-1.241699,-0.1513672,0.2412109,0.1225586,-0.1508789
2471,33.875,11,-57.875,-0.5214844,-1.210938,-0.1630859,0.2412109,0.1235352,-0.1508789
2475,24.875,9.125,-69.625,-0.5605469,-1.210938,-0.2128906,0.2368164,0.1264648,-0.1523438
2479,12.9375,7.4375,-84.875,-0.5253906,-1.203125,-0.2246094,0.2353516,0.1298828,-0.1523438
2483,0.5625,8.9375,-100.125,-0.5410156,-1.210938,-0.2436523,0.230957,0.1386719,-0.1547852
2487,-9.4375,12.8125,-111.6875,-0.5834961,-1.257324,-0.2055664,0.2260742,0.1459961,-0.1547852
2491,-11.9375,17.875,-119.5,-0.6264648,-1.300293,-0.1630859,0.2211914,0.1499023,-0.1538086
2495,-12.1875,23.8125,-122,-0.6806641,-1.334961,-0.1362305,0.2128906,0.1601563,-0.1508789
2499,-12.25,25.8125,-123.125,-0.7075195,-1.37793,-0.1166992,0.2070313,0.1713867,-0.1484375
2503,-9.75,26.6875,-127.625,-0.6845703,-1.424316,-0.0859375,0.2021484,0.1748047,-0.1469727
2507,-6.125,29.1875,-133.875,-0.6962891,-1.447754,-0.07470703,0.1914063,0.1850586,-0.1425781
2511,-5.25,30.8125,-140.625,-0.7231445,-1.439941,-0.06298828,0.184082,0.1948242,-0.1425781
2515,-4.0625,29,-145.3125,-0.796875,-1.455566,-0.03613281,0.1772461,0.2001953,-0.1401367
2519,0.5625,27.75,-151.3125,-0.7851563,-1.48291,0.005859375,0.1674805,0.2114258,-0.1357422
2523,11.5,29.1875,-155.6875,-0.8046875,-1.479004,0.02490234,0.1557617,0.21875,-0.137207
2527,24.6875,32.4375,-157.125,-0.8237305,-1.436035,0.04052734,0.1484375,0.2250977,-0.1357422
2531,31.375,33.75,-157.8125,-0.8432617,-1.319336,-0.009277344,0.1357422,0.2324219,-0.1357422
2535,26.25,29.4375,-158,-0.8354492,-1.237793,-0.04394531,0.1235352,0.2387695,-0.1333008
2539,19,26.3125,-157.8125,-0.7734375,-1.226563,-0.03613281,0.1176758,0.2436523,-0.1357422
2543,15.25,26.6875,-156.25,-0.7348633,-1.241699,-0.009277344,0.1020508,0.2485352,-0.1357422
2547,15.9375,27.875,-154.125,-0.7192383,-1.249512,0.04052734,0.08886719,0.2563477,-0.137207
2551,20,27.0625,-151.9375,-0.7075195,-1.249512,0.07910156,0.08056641,0.2573242,-0.1386719
2555,26.4375,25.0625,-150.125,-0.6806641,-1.253418,0.1020508,0.06640625,0.2612305,-0.1386719
2559,35.9375,24.0625,-151.25,-0.6376953,-1.233887,0.1132813,0.05224609,0.2636719,-0.1416016
2563,45.25,23.8125,-152.9375,-0.6376953,-1.183594,0.105957,0.04492188,0.2651367,-0.144043
2567,51.3125,22,-150.4375,-0.6611328,-1.144531,0.06347656,0.03076172,0.2661133,-0.1484375
2571,56.8125,21.9375,-143.9375,-0.6303711,-1.08252,0.09814453,0.01757813,0.2661133,-0.1508789
2575,58.375,17.5,-137,-0.6108398,-1.016602,0.09423828,0.009277344,0.2651367,-0.1547852
2580,56.625,9.5625,-129.3125,-0.5141602,-0.9736328,0.1098633,-0.004394531,0.2636719,-0.1616211
2584,60.125,4.875,-124.625,-0.4091797,-0.9541016,0.1479492,-0.01513672,0.2597656,-0.1660156
2588,66.9375,2.0625,-121,-0.3320313,-0.9038086,0.125,-0.02246094,0.2587891,-0.1699219
2592,70.875,0.0625,-119.25,-0.2734375,-0.8300781,0.08642578,-0.03417969,0.2548828,-0.1738281
2596,68.6875,-2,-118.75,-0.2192383,-0.7094727,0.03662109,-0.04492188,0.2485352,-0.1806641
2600,57.1875,-7.5625,-115.375,-0.1962891,-0.6005859,-0.01660156,-0.05419922,0.2436523,-0.1865234
2604,37.9375,-13.6875,-112.75,-0.1264648,-0.5268555,-0.04736328,-0.06396484,0.2426758,-0.1889648
2608,20.1875,-15.8125,-110.875,-0.07226563,-0.5229492,-0.02050781,-0.07324219,0.2387695,-0.1943359
2612,13.1875,-14.875,-106.625,-0.04492188,-0.5424805,0.02490234,-0.078125,0.2348633,-0.1928711
2616,11.75,-8,-96.75,-0.002441406,-0.5307617,0.06347656,-0.09033203,0.2324219,-0.1943359
2620,14.25,-1.625,-88.3125,0.03955078,-0.4765625,0.09814453,-0.09619141,0.2299805,-0.1958008
2624,18.625,7.875,-80.1875,0.09033203,-0.4101563,0.1171875,-0.1020508,0.2275391,-0.1972656
2628,23.4375,18.625,-70.875,0.02441406,-0.3325195,0.1098633,-0.1079102,0.2226563,-0.1987305
2632,16.4375,14.375,-55.625,-0.04101563,-0.2666016,0.07128906,-0.1113281,0.2172852,-0.199707
2636,4.1875,0.25,-46.625,0.07861328,-0.2939453,0.05175781,-0.1152344,0.2172852,-0.2011719
2640,-6.625,-9.375,-47.0625,0.1870117,-0.3208008,0.05957031,-0.1162109,0.2148438,-0.2011719
2644,-16.75,-16,-49.9375,0.2685547,-0.3442383,0.05175781,-0.1220703,0.2148438,-0.1987305
2648,-26.5,-18,-46.4375,0.2724609,-0.3950195,0.09033203,-0.1269531,0.2124023,-0.1987305
2652,-29,-16.5625,-40.125,0.3149414,-0.4804688,0.140625,-0.128418,0.2138672,-0.1943359
2656,-20.75,-13.3125,-34.375,0.3266602,-0.565918,0.1787109,-0.1328125,0.2124023,-0.1918945
2660,-4.9375,-9.625,-29.5625,0.3652344,-0.5893555,0.1826172,-0.1376953,0.2124023,-0.1918945
2664,10.4375,-3.375,-25.625,0.3999023,-0.5620117,0.1479492,-0.1391602,0.2114258,-0.1904297
2668,18.875,1.9375,-22.1875,0.3886719,-0.4804688,0.1098633,-0.1411133,0.2099609,-0.1904297
2672,16.5625,3.5625,-20.1875,0.3730469,-0.3989258,0.06738281,-0.1425781,0.2084961,-0.1918945
2676,9.1875,3.3125,-16.625,0.3535156,-0.371582,0.06738281,-0.1450195,0.2084961,-0.1918945
2680,4.375,1.1875,-10.25,0.3110352,-0.3989258,0.09423828,-0.1459961,0.2060547,-0.1958008
2684,2.625,0,-0.875,0.3339844,-0.4067383,0.1210938,-0.1450195,0.2060547,-0.1943359
2688,0.125,0.1875,7.75,0.3339844,-0.421875,0.1289063,-0.1435547,0.2060547,-0.1958008
2692,-3.1875,-3.0625,13,0.3149414,-0.4414063,0.144043,-0.1450195,0.2060547,-0.1943359
2696,-5.375,-6.75,18.25,0.3574219,-0.4726563,0.144043,-0.1411133,0.2075195,-0.1928711
2700,-2.875,-6.1875,21.125,0.4038086,-0.5229492,0.144043,-0.1411133,0.2075195,-0.1958008
2704,3.875,-2.25,23.625,0.4116211,-0.519043,0.09814453,-0.1401367,0.2099609,-0.1928711
2709,4.375,2.25,27.1875,0.4038086,-0.4726563,0.05957031,-0.1391602,0.2099609,-0.1943359
2713,-0.5625,3.6875,29.875,0.3808594,-0.4257813,0.05175781,-0.1376953,0.2099609,-0.1958008
2717,-5.25,4.8125,32.875,0.3417969,-0.4179688,0.07910156,-0.1342773,0.2114258,-0.1943359
2721,-6.0625,7.0625,38,0.2954102,-0.4140625,0.140625,-0.1328125,0.2124023,-0.1943359
2725,-4.5625,8.3125,44.5625,0.2138672,-0.3989258,0.159668,-0.128418,0.2148438,-0.1918945
2729,-6.3125,6.375,51.625,0.1870117,-0.3598633,0.159668,-0.1259766,0.2172852,-0.1928711
2733,-5.5,2.875,57.4375,0.1713867,-0.3520508,0.1826172,-0.1220703,0.2197266,-0.1943359
2737,3.0625,3.5625,66.5,0.140625,-0.387207,0.2021484,-0.1162109,0.2226563,-0.1928711
2741,11.625,5.25,73.5,0.09033203,-0.3676758,0.1171875,-0.1103516,0.2236328,-0.1958008
2745,10.8125,10.375,82.625,0.07861328,-0.3134766,0.07128906,-0.1054688,0.2260742,-0.1943359
2749,1.6875,13.875,91.3125,-0.002441406,-0.2900391,0.04052734,-0.09863281,0.2285156,-0.1972656
2753,-19.5,8.875,101.3125,-0.1303711,-0.2822266,0.009765625,-0.09228516,0.2299805,-0.1958008
2757,-43.25,-1.1875,108.0625,-0.1689453,-0.3833008,0.07910156,-0.08398438,0.2324219,-0.1943359
2761,-46.5,-9.4375,112,-0.2192383,-0.5698242,0.1787109,-0.07568359,0.2387695,-0.1918945
2765,-33.625,-10.1875,118.3125,-0.2231445,-0.7055664,0.2133789,-0.06640625,0.2436523,-0.1875
2769,-11.3125,-6,127.4375,-0.2890625,-0.8105469,0.2021484,-0.06054688,0.2451172,-0.1875
2773,8.25,-0.625,134.875,-0.28125,-0.7910156,0.1328125,-0.04736328,0.2460938,-0.1835938
2777,17.3125,1.3125,138,-0.3588867,-0.7485352,0.02490234,-0.03662109,0.2475586,-0.1875
2781,9.375,1,143.8125,-0.378418,-0.6708984,-0.1166992,-0.02832031,0.2460938,-0.1865234
2785,-3.3125,2,149.375,-0.4208984,-0.7563477,-0.09375,-0.01416016,0.2485352,-0.1875
2789,-12.0625,3.25,159.3125,-0.4594727,-0.8066406,-0.1630859,-0.001953125,0.2485352,-0.1875
2793,-29.8125,4.5625,162.5,-0.4482422,-0.8764648,-0.1513672,0.008300781,0.2485352,-0.1875
2797,-31.6875,4.8125,155.25,-0.5024414,-0.9970703,-0.09375,0.0234375,0.2475586,-0.1821289
2801,-22.9375,10.625,151.9375,-0.5756836,-1.05127,-0.06689453,0.03662109,0.25,-0.1806641
2805,-16.4375,21.3125,156.6875,-0.6030273,-0.9931641,-0.04736328,0.04638672,0.2475586,-0.1796875
2809,-26.1875,28.875,170.25,-0.6728516,-0.9736328,-0.1166992,0.06298828,0.2460938,-0.1767578
2813,-42.4375,28.75,172.8125,-0.7348633,-1.016602,-0.07861328,0.07958984,0.2426758,-0.1738281
2817,-51.375,25,165.8125,-0.8007813,-1.094238,-0.03222656,0.09130859,0.2387695,-0.1713867
2821,-51.5,21.9375,159.1875,-0.9248047,-1.179688,0.02490234,0.105957,0.2363281,-0.1674805
2825,-45.5625,20.625,162.125,-1.037109,-1.269043,0.06738281,0.1225586,0.2299805,-0.1606445
2829,-34.375,20.6875,170.5625,-0.9516602,-1.29248,0.1289063,0.1293945,0.2260742,-0.1606445
2833,-24.8125,22.375,174.875,-0.9399414,-1.272949,0.04443359,0.1459961,0.2172852,-0.15625
2838,-30,20.1875,167.875,-0.9477539,-1.203125,-0.01318359,0.1591797,0.2114258,-0.1523438
2842,-33.125,16.125,160.0625,-1.017578,-1.249512,0.02880859,0.1689453,0.2036133,-0.1508789
2846,-33.6875,14.5625,159.5,-1.083496,-1.29248,-0.001464844,0.1821289,0.1938477,-0.1469727
2850,-35.1875,10.0625,161.375,-1.052734,-1.381836,-0.02050781,0.1938477,0.1835938,-0.1455078
2854,-32.75,9.125,155.9375,-0.9672852,-1.42041,-0.009277344,0.2011719,0.1787109,-0.1425781
2858,-31.3125,8,150,-0.9052734,-1.397461,-0.02441406,0.2128906,0.1699219,-0.1416016
2862,-34.875,5.5625,143.75,-0.8818359,-1.374023,-0.009277344,0.2211914,0.1601563,-0.1386719
2866,-47.9375,-1.625,140.625,-0.8857422,-1.358398,-0.01318359,0.2270508,0.1547852,-0.1357422
2870,-65.8125,-14.6875,135.75,-0.796875,-1.490723,0.01367188,0.2368164,0.1450195,-0.1333008
2874,-65,-26,121,-0.6416016,-1.634277,0.09814453,0.2436523,0.1347656,-0.1318359
2878,-45.6875,-28.125,106.875,-0.5410156,-1.700195,0.07128906,0.2451172,0.1298828,-0.1318359
2882,-30.625,-21.8125,93.125,-0.4672852,-1.626465,-0.04394531,0.2519531,0.1225586,-0.1318359
2886,-33.4375,-16.875,79.9375,-0.4829102,-1.580078,-0.1435547,0.2543945,0.1137695,-0.1303711
2890,-42.5,-17.8125,64.875,-0.5175781,-1.626465,-0.1323242,0.2583008,0.1098633,-0.1264648
2894,-44.25,-19.9375,48.5,-0.4790039,-1.71582,-0.07080078,0.2592773,0.1035156,-0.1289063
2898,-33.9375,-18.5625,29.5625,-0.4248047,-1.777832,0.005859375,0.2602539,0.1025391,-0.1264648
2902,-11.375,-12.625,10.1875,-0.4013672,-1.766602,0.02880859,0.2602539,0.1010742,-0.1264648
2906,7.4375,-4.6875,-7.375,-0.4169922,-1.71582,-0.02050781,0.2602539,0.1010742,-0.1264648
2910,18.8125,3.0625,-25.75,-0.4208984,-1.657715,-0.05908203,0.2617188,0.1010742,-0.1279297
2914,30.5625,6.3125,-45.6875,-0.4790039,-1.618652,-0.0859375,0.2583008,0.1049805,-0.1279297
2918,40.4375,9.875,-63.9375,-0.4985352,-1.521484,-0.09375,0.2558594,0.1098633,-0.1303711
2922,47.125,15.625,-76.9375,-0.5488281,-1.432129,-0.1206055,0.253418,0.1137695,-0.1333008
2926,48.5625,19.1875,-88.6875,-0.6264648,-1.327148,-0.1323242,0.253418,0.1176758,-0.1347656
2930,44.3125,17.8125,-96,-0.699707,-1.253418,-0.1323242,0.2475586,0.1235352,-0.1357422
2934,36,15.9375,-100.8125,-0.7504883,-1.237793,-0.1206055,0.2426758,0.1298828,-0.137207
2938,30.125,14.5625,-105.1875,-0.7426758,-1.249512,-0.08203125,0.2402344,0.1362305,-0.137207
2942,31.5625,15.5,-110.3125,-0.7543945,-1.276855,-0.05517578,0.2353516,0.1435547,-0.1386719
2946,37.875,17.875,-113.8125,-0.7773438,-1.312012,-0.03222656,0.2270508,0.1523438,-0.1386719
2950,45.8125,20.375,-121,-0.7890625,-1.284668,-0.03613281,0.2236328,0.1547852,-0.1401367
2954,47.6875,20,-130.6875,-0.8237305,-1.214844,-0.07080078,0.215332,0.1625977,-0.1425781
2958,43.5,16.375,-137.0625,-0.8549805,-1.164063,-0.06689453,0.2094727,0.1723633,-0.1425781
2962,36.25,12.1875,-140.4375,-0.878418,-1.133301,-0.06689453,0.2021484,0.1762695,-0.144043
2967,28.8125,8.1875,-139.125,-0.8935547,-1.152344,-0.03222656,0.1914063,0.1875,-0.1469727
2971,28.3125,7.5625,-138.9375,-0.8393555,-1.167969,0.02490234,0.184082,0.1938477,-0.1469727
2975,31.375,7.4375,-140.5625,-0.8432617,-1.164063,0.04443359,0.1757813,0.2001953,-0.1469727
2979,31,4.625,-142.0625,-0.8276367,-1.109863,0.02099609,0.1665039,0.2075195,-0.1494141
2983,25.9375,0.625,-144.25,-0.8237305,-1.074707,0.02099609,0.1547852,0.2148438,-0.1523438
2987,18.5,-3.1875,-145.125,-0.8198242,-1.05127,0.03662109,0.1474609,0.2211914,-0.1508789
2991,10.125,-8.4375,-145.75,-0.8085938,-1.062988,0.05175781,0.1357422,0.2260742,-0.1523438
2995,5.5,-12.8125,-144.125,-0.7387695,-1.078613,0.05566406,0.1225586,0.2338867,-0.1538086
2999,6.75,-13,-145.3125,-0.6689453,-1.074707,0.07910156,0.1118164,0.2387695,-0.1547852
3003,10.1875,-8.875,-143.4375,-0.6533203,-1.047363,0.09814453,0.09960938,0.2451172,-0.15625
3007,9.9375,-10.25,-138.4375,-0.6767578,-1.02832,0.09033203,0.08691406,0.2475586,-0.15625
3011,8.8125,-14.1875,-135.8125,-0.6225586,-1.024414,0.09423828,0.07958984,0.2524414,-0.1577148
3015,10.4375,-15.125,-135.1875,-0.5605469,-1.032227,0.144043,0.06640625,0.2539063,-0.1591797
3019,16.8125,-15.4375,-133.5,-0.5449219,-1.02832,0.144043,0.05322266,0.2563477,-0.1606445
3023,22.375,-16.0625,-126.3125,-0.5063477,-1.000977,0.105957,0.04248047,0.2563477,-0.1616211
3027,22.5625,-16.4375,-119.3125,-0.4404297,-0.9736328,0.07128906,0.03076172,0.2573242,-0.1630859
3031,17.3125,-18.9375,-116.8125,-0.3588867,-0.9736328,0.03271484,0.02001953,0.2587891,-0.1645508
3035,13.3125,-19.625,-117.125,-0.2851563,-0.9970703,0.05175781,0.01269531,0.2587891,-0.1645508
3039,13.875,-18.1875,-119,-0.215332,-1.020508,0.06347656,0,0.2587891,-0.1674805
3043,21.3125,-11.3125,-120.6875,-0.1923828,-1.040039,0.08251953,-0.01171875,0.2573242,-0.1699219
3047,32.375,-3.75,-119.0625,-0.230957,-1.040039,0.105957,-0.02001953,0.2573242,-0.1699219
3051,43.9375,1.5,-112.9375,-0.2543945,-0.9931641,0.07910156,-0.03173828,0.2539063,-0.1713867
3055,48.5,4.125,-104.75,-0.2270508,-0.9155273,0.07910156,-0.04150391,0.2524414,-0.1767578
3059,49.4375,2.1875,-99.5625,-0.1728516,-0.8496094,0.09033203,-0.04589844,0.2509766,-0.1782227
3063,52.9375,-1,-98.625,-0.1186523,-0.7719727,0.1098633,-0.05566406,0.2460938,-0.1821289
3067,54.5625,-1.9375,-95.3125,-0.08398438,-0.6787109,0.07910156,-0.06494141,0.2426758,-0.1875
3071,48.9375,-3.25,-85.875,-0.06054688,-0.6240234,0.05175781,-0.06884766,0.2397461,-0.1918945
3075,40.5,-6.875,-77.9375,-0.01416016,-0.5737305,0.05957031,-0.07714844,0.2348633,-0.1928711
3079,22.4375,-15.1875,-75.625,0.03955078,-0.5229492,0.005859375,-0.08544922,0.2314453,-0.1987305
3083,6.8125,-23,-79.3125,0.09375,-0.5776367,0.05957031,-0.08789063,0.2285156,-0.1987305
3087,2.5625,-22.75,-80.3125,0.1518555,-0.6318359,0.1098633,-0.09619141,0.2260742,-0.1972656
3091,6.3125,-18.625,-75,0.190918,-0.6396484,0.1367188,-0.1044922,0.2236328,-0.1972656
3096,13.9375,-12.8125,-68.125,0.2138672,-0.6396484,0.144043,-0.1079102,0.2197266,-0.1987305
3100,23.625,-6.8125,-62.625,0.2529297,-0.6005859,0.140625,-0.1152344,0.21875,-0.1987305
3104,29,-2,-57.5625,0.2373047,-0.534668,0.1132813,-0.1186523,0.2148438,-0.199707
3108,26.1875,-1.25,-51.75,0.2451172,-0.4609375,0.08642578,-0.1220703,0.2114258,-0.2011719
3112,15.25,-3.25,-48.8125,0.2529297,-0.3754883,0.05175781,-0.1259766,0.2099609,-0.2055664
3116,-0.0625,-8.1875,-43.9375,0.2490234,-0.3833008,0.05566406,-0.1303711,0.2060547,-0.2026367
3120,-7.5625,-9.3125,-37.375,0.2758789,-0.4609375,0.1132813,-0.1342773,0.2050781,-0.2041016
3124,-2.5625,-5,-27.5,0.3457031,-0.5307617,0.1479492,-0.1342773,0.2060547,-0.2026367
3128,6.4375,1.6875,-20.75,0.3574219,-0.5463867,0.1518555,-0.1376953,0.2036133,-0.2041016
3132,11.5,1.4375,-18.9375,0.3574219,-0.5112305,0.1367188,-0.1401367,0.2036133,-0.2026367
3136,12.1875,-2.9375,-20.1875,0.3847656,-0.4882813,0.1210938,-0.1411133,0.2011719,-0.2055664
3140,10.75,-2.8125,-19.1875,0.3959961,-0.46875,0.1020508,-0.1425781,0.2001953,-0.2055664
3144,7.5625,-1.1875,-13.125,0.3959961,-0.4804688,0.1210938,-0.1425781,0.1972656,-0.2055664
3148,9.125,-0.375,-6.6875,0.4155273,-0.5073242,0.1289063,-0.1435547,0.1987305,-0.2055664
3152,11.75,2.6875,-3.5625,0.4467773,-0.4804688,0.125,-0.1435547,0.1972656,-0.2055664
3156,11.6875,4.5,-2.6875,0.3925781,-0.4453125,0.1210938,-0.1425781,0.1962891,-0.2094727
3160,8.375,4.4375,0.0625,0.3574219,-0.4067383,0.1289063,-0.1450195,0.1948242,-0.2109375
3164,8.0625,4.1875,5.625,0.3339844,-0.421875,0.1635742,-0.1435547,0.1948242,-0.2109375
3168,11.9375,7.4375,13.9375,0.3457031,-0.4067383,0.1713867,-0.1425781,0.1938477,-0.2094727
3172,15.0625,9.8125,22.4375,0.3227539,-0.3833008,0.1557617,-0.1411133,0.1948242,-0.2119141
3176,13.8125,10.125,29.75,0.3339844,-0.3637695,0.125,-0.1367188,0.1948242,-0.2119141
3180,8.6875,11.6875,34.3125,0.3457031,-0.340332,0.1098633,-0.1367188,0.1972656,-0.2119141
3184,2.875,12.1875,36.75,0.3071289,-0.3442383,0.1210938,-0.1328125,0.1948242,-0.2133789
3188,-0.8125,12.125,40.8125,0.2797852,-0.3442383,0.1367188,-0.1303711,0.1987305,-0.2133789
3192,-3.625,12.8125,47.75,0.2294922,-0.340332,0.1479492,-0.1269531,0.2001953,-0.2133789
3196,-7.0625,11.9375,55.5625,0.2138672,-0.3442383,0.1518555,-0.1235352,0.2011719,-0.2177734
3200,-10.6875,10.0625,62.6875,0.206543,-0.3598633,0.1479492,-0.1186523,0.2050781,-0.2163086
3204,-15.375,10.375,67.6875,0.2104492,-0.3793945,0.1518555,-0.112793,0.2060547,-0.2148438
3208,-15.9375,9.4375,69.375,0.140625,-0.4414063,0.159668,-0.109375,0.2099609,-0.2148438
3212,-11.5,9.75,71,0.08251953,-0.453125,0.1943359,-0.1020508,0.2124023,-0.2148438
3216,-5.25,12.4375,75.9375,0.02832031,-0.4570313,0.1865234,-0.09960938,0.2148438,-0.2148438
3220,1.6875,15.25,83.8125,-0.07226563,-0.46875,0.1674805,-0.09130859,0.2172852,-0.2148438
3225,1.125,17.9375,96.375,-0.07617188,-0.4101563,0.144043,-0.08398438,0.21875,-0.2148438
3229,-4.9375,16.9375,107.8125,-0.1459961,-0.402832,0.125,-0.078125,0.2197266,-0.2163086
3233,-14.4375,12.25,116.1875,-0.1962891,-0.4570313,0.105957,-0.06738281,0.2226563,-0.2163086
3237,-23.3125,8.5,119.875,-0.2543945,-0.5268555,0.1171875,-0.05810547,0.2260742,-0.2148438
3241,-32.125,3.125,124.9375,-0.2929688,-0.6201172,0.1020508,-0.05224609,0.2299805,-0.2094727
3245,-34.875,0.625,128.0625,-0.3046875,-0.7250977,0.1367188,-0.04003906,0.2314453,-0.2080078
3249,-28.0625,2.125,133.75,-0.2929688,-0.7949219,0.1748047,-0.02929688,0.2363281,-0.2055664
3253,-20.75,7.25,139.1875,-0.3242188,-0.8183594,0.1518555,-0.02001953,0.2387695,-0.2055664
3257,-12.9375,11.5625,139.25,-0.4130859,-0.8725586,0.125,-0.0078125,0.2387695,-0.2041016
3261,1.3125,20,139.5,-0.5063477,-0.9038086,0.1289063,0.003417969,0.2387695,-0.2011719
3265,9.125,27.5,145.0625,-0.6186523,-0.8686523,0.07128906,0.01416016,0.2387695,-0.2055664
3269,4.1875,29,154.8125,-0.6767578,-0.8300781,0.04052734,0.02734375,0.2348633,-0.2041016
3273,-3.9375,29.1875,161.375,-0.7192383,-0.8339844,0.06738281,0.04394531,0.2338867,-0.2055664
3277,-15,26.5625,166.375,-0.7617188,-0.8764648,0.05175781,0.05224609,0.2314453,-0.2041016
3281,-19.8125,25.5,168.4375,-0.8125,-0.9697266,0.07128906,0.06982422,0.2275391,-0.2011719
3285,-20.0625,26.875,170.75,-0.862793,-1.036133,0.07128906,0.08544922,0.2236328,-0.199707
3289,-16.25,30.1875,173.3125,-0.8818359,-1.078613,0.06738281,0.09619141,0.2211914,-0.1987305
3293,-16.25,33.125,179.1875,-0.8745117,-1.090332,0.03662109,0.1103516,0.2138672,-0.1972656
3297,-22.5625,36.625,178.8125,-0.847168,-1.102051,0.01708984,0.1269531,0.2075195,-0.1943359
3301,-33.3125,39.6875,176.625,-0.8818359,-1.117676,-0.009277344,0.1357422,0.2026367,-0.1904297
3305,-50.8125,37.375,172.75,-0.9326172,-1.148438,0.03271484,0.1523438,0.1962891,-0.1850586
3309,-66.125,30.3125,170.1875,-0.9711914,-1.253418,0.09033203,0.1674805,0.1884766,-0.1796875
3313,-75.625,25.0625,172.6875,-0.9594727,-1.436035,0.1635742,0.1772461,0.1835938,-0.1767578
3317,-74.25,22.8125,174.0625,-0.8896484,-1.603027,0.2172852,0.1889648,0.1762695,-0.1728516
3321,-65.75,19.9375,165.8125,-0.8007813,-1.700195,0.2441406,0.2021484,0.1660156,-0.1660156
3325,-50.5,19.875,149.8125,-0.6962891,-1.758789,0.2788086,0.2080078,0.1586914,-0.1630859
3329,-32.3125,27.0625,132.6875,-0.6845703,-1.731445,0.2983398,0.21875,0.1523438,-0.1591797
3333,-24.5625,26.875,118.0625,-0.796875,-1.595215,0.2290039,0.2285156,0.1435547,-0.1547852
3337,-34.1875,17.0625,105.8125,-0.8354492,-1.467285,0.1826172,0.2319336,0.1376953,-0.1508789
3341,-50.6875,3.625,94.25,-0.831543,-1.405273,0.1328125,0.2368164,0.1298828,-0.1494141
3345,-66.8125,-11.3125,80.6875,-0.8085938,-1.350586,0.08251953,0.2426758,0.125,-0.1469727
3349,-87,-25.5625,68.125,-0.7617188,-1.323242,-0.009277344,0.2451172,0.1225586,-0.144043
3354,-101.875,-38.8125,62.0625,-0.699707,-1.42041,-0.04736328,0.2475586,0.1201172,-0.1401367
3358,-97.5625,-41.25,58.625,-0.5566406,-1.568359,0.005859375,0.2475586,0.1201172,-0.137207
3362,-78.0625,-35.375,51.5625,-0.4443359,-1.657715,0.005859375,0.25,0.1162109,-0.1333008
3366,-50.3125,-24.9375,42.875,-0.3510742,-1.711914,0.01367188,0.2509766,0.1152344,-0.1333008
3370,-20.1875,-7.625,29.875,-0.3046875,-1.692383,-0.009277344,0.253418,0.1113281,-0.1333008
3374,3.0625,7.4375,12.1875,-0.3354492,-1.603027,-0.02832031,0.253418,0.1098633,-0.1303711
3378,16.1875,12.25,-7.125,-0.4208984,-1.537109,-0.04736328,0.2543945,0.1113281,-0.1333008
3382,22.6875,11.75,-26.625,-0.4946289,-1.471191,-0.04736328,0.2558594,0.1113281,-0.1333008
3386,27.3125,9.875,-43.25,-0.5449219,-1.416504,-0.06689453,0.2543945,0.1123047,-0.1303711
3390,30.6875,8.1875,-55.875,-0.5605469,-1.350586,-0.09375,0.2519531,0.1162109,-0.1347656
3394,27.6875,7.6875,-64.5625,-0.5874023,-1.269043,-0.1401367,0.2485352,0.1210938,-0.1357422
3398,14.5,4.3125,-72.625,-0.6186523,-1.233887,-0.1669922,0.2460938,0.125,-0.1357422
3402,-2.4375,-0.75,-85.0625,-0.6225586,-1.257324,-0.1513672,0.2426758,0.1298828,-0.1401367
3406,-9.5625,-4.4375,-100.75,-0.6342773,-1.354492,-0.07470703,0.237793,0.1386719,-0.1401367
3410,-3.75,-1.3125,-114.5,-0.6533203,-1.37793,-0.01660156,0.2319336,0.1435547,-0.1386719
3414,5.125,4.875,-120.0625,-0.7426758,-1.334961,-0.009277344,0.2270508,0.1523438,-0.1386719
3418,2.9375,3.9375,-117.1875,-0.8164063,-1.300293,-0.04736328,0.2177734,0.1625977,-0.1386719
3422,-5.5625,-2.3125,-117.25,-0.78125,-1.334961,-0.05517578,0.2138672,0.1699219,-0.137207
3426,-5.4375,-4.5,-127.0625,-0.715332,-1.436035,-0.001464844,0.2045898,0.1772461,-0.137207
3430,4.625,-3.125,-138.5625,-0.6884766,-1.498535,0.01708984,0.1948242,0.1860352,-0.1386719
3434,18.9375,3.4375,-145.4375,-0.7036133,-1.513672,0.02099609,0.1889648,0.1914063,-0.1357422
3438,32.9375,11.1875,-146.5,-0.7426758,-1.498535,0.01367188,0.1757813,0.2011719,-0.1357422
3442,45.875,17.6875,-146.125,-0.765625,-1.48291,0.009765625,0.1650391,0.2099609,-0.1416016
3446,54.25,21.125,-147.6875,-0.796875,-1.424316,-0.01318359,0.1616211,0.2138672,-0.144043
3450,55.8125,18.1875,-155.1875,-0.8237305,-1.327148,-0.03222656,0.1499023,0.2197266,-0.1469727
3454,48.6875,12.1875,-158.625,-0.8432617,-1.265137,-0.03613281,0.1367188,0.2275391,-0.1484375
3458,39.25,7.125,-157.3125,-0.8276367,-1.269043,-0.01318359,0.1269531,0.2314453,-0.1523438
3462,33.8125,5.125,-158.4375,-0.7734375,-1.288574,0.01708984,0.1152344,0.2387695,-0.1538086
3466,33.8125,3.3125,-159.8125,-0.7617188,-1.300293,0.05957031,0.1020508,0.2426758,-0.15625
3470,36.9375,2,-162.0625,-0.7348633,-1.265137,0.07519531,0.09130859,0.2451172,-0.15625
3474,40.5625,-0.25,-163.9375,-0.730957,-1.207031,0.08642578,0.07714844,0.2475586,-0.1616211
3478,43.75,-1.0625,-161.625,-0.699707,-1.133301,0.09814453,0.06152344,0.2509766,-0.1660156
3483,43.6875,-0.8125,-155.5625,-0.6689453,-1.032227,0.08251953,0.05078125,0.2509766,-0.1674805
3487,33.9375,-6.125,-149,-0.6494141,-0.9506836,0.06738281,0.03662109,0.2524414,-0.168457
3491,17.25,-16.25,-144.75,-0.5449219,-0.9155273,0.04785156,0.02246094,0.2548828,-0.1728516
3495,4.6875,-20,-146.25,-0.4287109,-0.9311523,0.09814453,0.01416016,0.2563477,-0.1713867
3499,-0.8125,-18.8125,-144.625,-0.3823242,-0.9697266,0.1289063,0,0.2573242,-0.1738281
3503,0.3125,-17.625,-139.375,-0.3588867,-1.000977,0.1479492,-0.01416016,0.2563477,-0.1738281
3507,5.4375,-15.375,-131.5625,-0.328125,-1.040039,0.159668,-0.02490234,0.2563477,-0.1713867
3511,14.3125,-12.125,-125.25,-0.2348633,-1.02832,0.1635742,-0.03515625,0.2563477,-0.1713867
3515,22.4375,-8.1875,-124.5,-0.2001953,-0.9814453,0.125,-0.04833984,0.2509766,-0.175293
3519,22.4375,-9.125,-125.5625,-0.1728516,-0.8999023,0.05957031,-0.05566406,0.2524414,-0.1767578
3523,18.25,-11.8125,-126.75,-0.1572266,-0.8378906,0.02880859,-0.06738281,0.2475586,-0.1782227
3527,17.6875,-12.25,-125.1875,-0.1147461,-0.8339844,0.03662109,-0.07958984,0.2436523,-0.1796875
3531,26.4375,-8.5625,-123.5625,-0.04492188,-0.8144531,0.03662109,-0.08642578,0.2397461,-0.1796875
3535,40.5625,-1.0625,-122.5625,-0.002441406,-0.7602539,0.02490234,-0.09863281,0.2373047,-0.1821289
3539,53.3125,9.375,-116.8125,-0.01806641,-0.6474609,0.005859375,-0.109375,0.2314453,-0.1875
3543,57.5625,11.8125,-108.625,-0.04101563,-0.5268555,-0.01318359,-0.1113281,0.2260742,-0.1889648
3547,59.75,11.6875,-102.5625,0.008789063,-0.4570313,0.005859375,-0.1220703,0.2172852,-0.1943359
3551,64.625,14.25,-96.5625,0.04345703,-0.3793945,0.02490234,-0.1269531,0.2114258,-0.1987305
3555,64,16.8125,-87.9375,0.03173828,-0.2939453,0.009765625,-0.1342773,0.2060547,-0.2055664
3559,58.9375,15.25,-75.9375,0.05908203,-0.2084961,-0.001464844,-0.1376953,0.1987305,-0.2080078
3563,44.0625,10.625,-65.25,0.07861328,-0.1347656,-0.005371094,-0.1411133,0.1914063,-0.2119141
3567,28,3.5625,-55.875,0.1445313,-0.1191406,0.009765625,-0.1450195,0.1884766,-0.2148438
3571,15.5,0.75,-46.5,0.2026367,-0.1499023,0.05566406,-0.1484375,0.1850586,-0.2163086
3575,8.9375,-1.125,-40.5625,0.2451172,-0.1967773,0.09814453,-0.1508789,0.1826172,-0.2177734
3579,8.25,-2.25,-32.375,0.2607422,-0.2705078,0.144043,-0.1542969,0.1811523,-0.21875
3583,13.8125,0,-23.5625,0.3032227,-0.2978516,0.1787109,-0.1557617,0.1772461,-0.21875
3587,18.8125,2.1875,-16.125,0.3417969,-0.2666016,0.1518555,-0.1582031,0.1762695,-0.21875
3591,16.6875,1.4375,-11.4375,0.3417969,-0.2431641,0.1210938,-0.1567383,0.1748047,-0.2216797
3595,11.125,0.875,-7.1875,0.3925781,-0.2275391,0.08251953,-0.1567383,0.1738281,-0.2231445
3599,4.5625,1.4375,-3.8125,0.3999023,-0.2392578,0.08251953,-0.1582031,0.1738281,-0.2231445
3603,0.625,1.75,1.625,0.3925781,-0.2705078,0.1098633,-0.1591797,0.1738281,-0.2216797
3607,-1.4375,4.3125,11.375,0.4077148,-0.2978516,0.1479492,-0.1582031,0.1723633,-0.2231445
3612,-1.8125,6.625,19.5625,0.4116211,-0.3325195,0.159668,-0.1567383,0.1723633,-0.2216797
3616,-3.875,7.0625,25.4375,0.3808594,-0.3520508,0.1826172,-0.1557617,0.1723633,-0.2246094
3620,-5.5,4,28.875,0.3535156,-0.3911133,0.2021484,-0.1518555,0.1762695,-0.2231445
3624,-4,3.5625,32.25,0.3691406,-0.4101563,0.2329102,-0.1518555,0.1787109,-0.2231445
3628,0.5,3.9375,34.8125,0.3496094,-0.4335938,0.2250977,-0.1494141,0.1811523,-0.2216797
3632,6.9375,5.5,36,0.3808594,-0.4140625,0.1904297,-0.1459961,0.1801758,-0.2216797
3636,10.0625,9.625,36.375,0.3305664,-0.3442383,0.1557617,-0.1435547,0.1811523,-0.2231445
3640,7.625,9.5625,40.8125,0.2373047,-0.3056641,0.140625,-0.1425781,0.1811523,-0.2255859
3644,0,7.625,51.875,0.1987305,-0.2783203,0.1171875,-0.1391602,0.1826172,-0.2255859
3648,-6.75,8.125,64.875,0.1831055,-0.3134766,0.144043,-0.1352539,0.1850586,-0.2255859
3652,-11.75,8.625,74.8125,0.175293,-0.3442383,0.1518555,-0.1318359,0.1899414,-0.2255859
3656,-19.625,7.125,80.6875,0.1445313,-0.3637695,0.1289063,-0.1245117,0.1923828,-0.2255859
3660,-26.5,4.4375,82.625,0.1367188,-0.4179688,0.144043,-0.1176758,0.2001953,-0.2246094
3664,-23.5625,5.5,83.8125,0.1171875,-0.4726563,0.1943359,-0.1137695,0.2011719,-0.2246094
3668,-14,11.375,94,0.06298828,-0.5268555,0.2133789,-0.1069336,0.2050781,-0.2202148
3672,-10.1875,18.8125,107.8125,0.04736328,-0.5112305,0.1787109,-0.1010742,0.2084961,-0.2202148
3676,-18.0625,21.5,117.875,0.01269531,-0.503418,0.1328125,-0.09228516,0.2084961,-0.2216797
3680,-30.1875,18.25,118.6875,-0.01416016,-0.5620117,0.1674805,-0.07958984,0.2148438,-0.2202148
3684,-31.875,14.8125,117.4375,-0.04882813,-0.6708984,0.2558594,-0.06982422,0.2197266,-0.2177734
3688,-25.0625,16.9375,120.6875,-0.09521484,-0.7485352,0.2749023,-0.06396484,0.2226563,-0.2163086
3692,-12.5625,19.25,120.1875,-0.230957,-0.8027344,0.2519531,-0.05322266,0.2260742,-0.2163086
3696,-6.6875,22.25,124.5625,-0.2700195,-0.7407227,0.1943359,-0.04150391,0.2275391,-0.2133789
3700,-6,23.3125,125.6875,-0.3510742,-0.7016602,0.1748047,-0.03320313,0.2299805,-0.2148438
3704,-9.375,22.5625,129.0625,-0.4052734,-0.6279297,0.1328125,-0.02246094,0.2299805,-0.2148438
3708,-19.75,18.8125,135.6875,-0.5141602,-0.6123047,0.09423828,-0.01025391,0.2314453,-0.2133789
3712,-35.625,11,150.8125,-0.5874023,-0.7211914,0.06738281,-0.0009765625,0.2338867,-0.2109375
3716,-38.1875,8.3125,158.875,-0.5449219,-0.8999023,0.09423828,0.01171875,0.2363281,-0.2080078
3720,-29.875,13.5,157.75,-0.5449219,-0.9814453,0.09814453,0.02490234,0.2363281,-0.206543
3724,-26.125,19.3125,154.25,-0.6264648,-0.9506836,0.07910156,0.03662109,0.2324219,-0.2011719
3728,-28.6875,20.625,154.625,-0.7075195,-0.9038086,0.09423828,0.05078125,0.2324219,-0.2026367
3732,-37.25,19.0625,169.75,-0.7773438,-0.9350586,0.07128906,0.06787109,0.2314453,-0.1987305
3736,-53.3125,13.75,181.375,-0.7890625,-1.016602,0.04443359,0.07617188,0.2285156,-0.1943359
3741,-60.875,7.0625,177.3125,-0.8237305,-1.125488,0.05957031,0.09130859,0.2250977,-0.1904297
3745,-64.25,1.25,164.5625,-0.8588867,-1.152344,0.05957031,0.1069336,0.2236328,-0.1850586
3749,-65.3125,-3.125,163.1875,-0.9287109,-1.207031,0.08642578,0.1152344,0.2197266,-0.1835938
3753,-60.6875,-0.25,170.625,-0.878418,-1.276855,0.1132813,0.128418,0.2163086,-0.1782227
3757,-53.125,6.25,175.5625,-0.8549805,-1.327148,0.125,0.1425781,0.2084961,-0.1738281
3761,-51,9.125,176.9375,-0.8588867,-1.350586,0.1132813,0.1523438,0.2060547,-0.1699219
3765,-50.125,9,173.5,-0.8588867,-1.401367,0.1098633,0.1665039,0.1972656,-0.1674805
3769,-50,8.1875,164.375,-0.847168,-1.436035,0.1020508,0.1782227,0.1899414,-0.1630859
3773,-46.8125,8.5625,148.3125,-0.8549805,-1.443848,0.1171875,0.1865234,0.1835938,-0.1630859
3777,-40.25,8.0625,132.9375,-0.8974609,-1.428223,0.09423828,0.1962891,0.1762695,-0.1606445
3781,-36.1875,9.1875,120.5625,-0.9326172,-1.366211,0.05566406,0.2045898,0.1699219,-0.1547852
3785,-41.125,7.125,114.25,-0.9633789,-1.304199,-0.01318359,0.2104492,0.1625977,-0.1523438
3789,-51.375,2.6875,113.9375,-0.8896484,-1.37793,-0.009277344,0.2163086,0.15625,-0.1523438
3793,-50.25,1.875,109.0625,-0.7387695,-1.479004,0.02490234,0.2260742,0.1513672,-0.1469727
3797,-40,3.75,96.5625,-0.6416016,-1.498535,0.04443359,0.2285156,0.1450195,-0.1455078
3801,-36.0625,1.0625,82.4375,-0.6376953,-1.455566,0.009765625,0.234375,0.1401367,-0.144043
3805,-38.6875,-8.125,69.1875,-0.6533203,-1.385742,-0.05126953,0.2368164,0.1337891,-0.1401367
3809,-48.9375,-18.875,59.625,-0.6845703,-1.350586,-0.109375,0.2412109,0.1323242,-0.137207
3813,-62.6875,-33.25,57,-0.7231445,-1.342773,-0.1474609,0.2436523,0.1289063,-0.1347656
3817,-75,-48.625,56.25,-0.6650391,-1.381836,-0.1743164,0.2475586,0.125,-0.1333008
3821,-89,-63.125,53.8125,-0.6494141,-1.412598,-0.2592773,0.2460938,0.1264648,-0.1303711
3825,-103.25,-73.125,45.3125,-0.4594727,-1.494629,-0.3012695,0.2485352,0.1210938,-0.1289063
3829,-102.75,-64.4375,31.4375,-0.2348633,-1.657715,-0.2861328,0.25,0.1176758,-0.1279297
3833,-82.625,-41.4375,11.3125,-0.1342773,-1.785645,-0.2363281,0.2485352,0.1186523,-0.1279297
3837,-48,-15.9375,-11.125,-0.1342773,-1.852051,-0.1782227,0.2475586,0.1176758,-0.1303711
3841,-8.25,6.875,-36.5625,-0.1884766,-1.828613,-0.1513672,0.2451172,0.1210938,-0.1279297
3845,25.25,26.3125,-57.25,-0.3125,-1.723633,-0.1630859,0.2436523,0.1274414,-0.1289063
3849,48.6875,40.5,-70.125,-0.4555664,-1.587891,-0.1591797,0.2412109,0.1337891,-0.1303711
3853,55.375,46.4375,-78.125,-0.5834961,-1.405273,-0.2055664,0.237793,0.1376953,-0.1303711
3857,45.4375,42.5,-84.9375,-0.6767578,-1.323242,-0.2016602,0.234375,0.1411133,-0.1318359
3861,34.5625,34.25,-93.5,-0.699707,-1.334961,-0.1630859,0.230957,0.1474609,-0.1333008
3865,27.5,29,-100.25,-0.699707,-1.397461,-0.1206055,0.2246094,0.15625,-0.1333008
3870,29.6875,29.8125,-109.375,-0.6611328,-1.479004,-0.07861328,0.222168,0.1601563,-0.1333008
3874,37.75,33.125,-117.25,-0.7075195,-1.556641,-0.07080078,0.215332,0.1689453,-0.1318359
3878,47.9375,37.6875,-125.5625,-0.715332,-1.568359,-0.06689453,0.2094727,0.1772461,-0.1333008
3882,57.875,40.625,-137.25,-0.7773438,-1.541016,-0.07080078,0.2045898,0.1801758,-0.1333008
3886,66.375,40.0625,-146.9375,-0.847168,-1.501953,-0.05908203,0.1948242,0.1884766,-0.1333008
3890,75.9375,42.0625,-149.25,-0.8935547,-1.455566,-0.05517578,0.1855469,0.1948242,-0.1347656
3894,76.9375,41.0625,-149.875,-0.9326172,-1.385742,-0.07080078,0.1806641,0.2026367,-0.1347656
3898,75.1875,37.3125,-151.125,-0.9438477,-1.331055,-0.05126953,0.1699219,0.2084961,-0.1416016
3902,74,33.1875,-152.5625,-0.9516602,-1.315918,-0.01318359,0.1591797,0.2148438,-0.144043
3906,74.375,28.4375,-153.75,-0.9326172,-1.26123,0.01708984,0.1533203,0.21875,-0.1469727
3910,74.25,24.625,-154.375,-0.9287109,-1.233887,0.03662109,0.1416016,0.2236328,-0.1538086
3914,72.375,19.375,-155.5625,-0.9130859,-1.171875,0.04443359,0.128418,0.2275391,-0.1577148
3918,66.0625,12.1875,-154.875,-0.9169922,-1.125488,0.05566406,0.1201172,0.2299805,-0.1606445
3922,55.6875,3.3125,-151.8125,-0.878418,-1.066895,0.05566406,0.1079102,0.2363281,-0.1645508
3926,43.4375,-6.125,-151.0625,-0.8046875,-1.059082,0.09423828,0.09521484,0.2387695,-0.1713867
3930,34.125,-13.5625,-150.8125,-0.7504883,-1.055176,0.1210938,0.08300781,0.2397461,-0.1713867
3934,21.5625,-21.125,-147.9375,-0.7426758,-1.059082,0.1098633,0.07226563,0.2436523,-0.175293
3938,7.0625,-30.4375,-142.4375,-0.6689453,-1.090332,0.1210938,0.05566406,0.2460938,-0.175293
3942,-5.5,-38.9375,-138.1875,-0.5795898,-1.140625,0.1210938,0.04638672,0.2485352,-0.1767578
3946,-14.1875,-44.5625,-135.8125,-0.4750977,-1.171875,0.09423828,0.03173828,0.2524414,-0.175293
3950,-17.8125,-40.9375,-139.1875,-0.378418,-1.195313,0.05566406,0.01757813,0.2539063,-0.175293
3954,-16,-30.75,-138.8125,-0.3510742,-1.171875,0.02099609,0.006835938,0.2548828,-0.175293
3958,-16.6875,-22.4375,-133.6875,-0.3935547,-1.133301,-0.02050781,-0.005859375,0.2563477,-0.1738281
3962,-19.9375,-17.25,-127.1875,-0.3549805,-1.070801,-0.04394531,-0.02001953,0.2587891,-0.1699219
3966,-21.25,-11.125,-121.625,-0.3125,-1.047363,-0.05908203,-0.02685547,0.2573242,-0.1699219
3970,-17.125,-4.0625,-120.8125,-0.246582,-1.040039,-0.02441406,-0.0390625,0.2597656,-0.1660156
3974,-2.625,2.0625,-129.75,-0.1533203,-1.024414,0.03271484,-0.05224609,0.2563477,-0.1645508
3978,20.1875,10.1875,-141.375,-0.1533203,-0.9931641,0.07128906,-0.05908203,0.2548828,-0.1645508
3982,48.375,20,-149,-0.1499023,-0.9038086,0.105957,-0.07324219,0.2524414,-0.1699219
3986,73.0625,27.5625,-149.25,-0.1572266,-0.7563477,0.08642578,-0.08398438,0.2451172,-0.175293
3990,92.4375,32.75,-146.8125,-0.1689453,-0.6279297,0.07128906,-0.09130859,0.2387695,-0.1806641
3994,108.375,37.4375,-142.1875,-0.1533203,-0.4882813,0.05957031,-0.1020508,0.2299805,-0.1875
3999,117,40.5625,-138.3125,-0.1420898,-0.3134766,0.03271484,-0.1103516,0.2197266,-0.199707
4003,116.75,38.5,-130.375,-0.1845703,-0.1655273,0.03271484,-0.1162109,0.2124023,-0.206543
4007,102.25,32.6875,-111.3125,-0.1611328,0.008789063,0.005859375,-0.1220703,0.1987305,-0.2177734
4011,77.25,24.125,-91,-0.1533203,0.09423828,0.01367188,-0.1293945,0.1884766,-0.2246094
4015,52.3125,12.125,-67.25,-0.07226563,0.1176758,0.01708984,-0.1342773,0.1850586,-0.2285156
4019,35,5.5,-48.3125,0.04736328,0.05908203,0.06738281,-0.1367188,0.1787109,-0.2338867
4023,25,4.375,-31,0.1328125,0.01660156,0.06347656,-0.1391602,0.1738281,-0.2324219
4027,11.9375,5.5625,-16.4375,0.1948242,0.01269531,0.05566406,-0.1401367,0.1738281,-0.2368164
4031,-4.75,5.125,-5.5,0.2412109,-0.006347656,0.04785156,-0.1391602,0.1723633,-0.2368164
4035,-19.6875,3,3.8125,0.2646484,-0.08007813,0.08251953,-0.1401367,0.1762695,-0.2368164
4039,-27.25,0.25,13.4375,0.2758789,-0.1928711,0.144043,-0.1401367,0.1748047,-0.2338867
4043,-24.875,-1.6875,20.5625,0.3339844,-0.2939453,0.1674805,-0.1391602,0.1772461,-0.230957
4047,-17.75,-0.6875,24.3125,0.3847656,-0.3520508,0.1713867,-0.1376953,0.1811523,-0.2324219
4051,-13.8125,0.25,25,0.4116211,-0.355957,0.1518555,-0.1367188,0.1801758,-0.230957
4055,-16.5,-1.1875,23.4375,0.4233398,-0.3833008,0.1328125,-0.1328125,0.1811523,-0.2299805
4059,-21,-5.75,21.5625,0.4311523,-0.4414063,0.140625,-0.1342773,0.1850586,-0.2270508
4063,-20.75,-9.0625,19.25,0.4814453,-0.519043,0.1328125,-0.1328125,0.1850586,-0.2270508
4067,-13.5625,-2.375,17.0625,0.5473633,-0.5541992,0.1171875,-0.1318359,0.1875,-0.2231445
4071,-8.0625,9.6875,15.5625,0.4931641,-0.5229492,0.1132813,-0.1293945,0.1899414,-0.2246094
4075,-10.625,12.5,17.8125,0.3999023,-0.4804688,0.09033203,-0.1293945,0.1923828,-0.2246094
4079,-16.5625,11.6875,19.6875,0.3496094,-0.4609375,0.1098633,-0.1269531,0.1923828,-0.2231445
4083,-18.75,11.5625,22.8125,0.3227539,-0.4609375,0.1674805,-0.1220703,0.1923828,-0.2216797
4087,-16.1875,12.875,28.0625,0.2836914,-0.4609375,0.2060547,-0.1245117,0.1938477,-0.2216797
4091,-11.9375,14,35.875,0.2451172,-0.4414063,0.2172852,-0.1210938,0.2001953,-0.2216797
4095,-8.5,14.0625,45.125,0.2138672,-0.4335938,0.2211914,-0.1162109,0.2011719,-0.2231445
4099,-8.0625,14.75,53.1875,0.190918,-0.4101563,0.2060547,-0.1137695,0.2026367,-0.2231445
4103,-15.125,15.5625,62.5,0.159668,-0.3911133,0.1826172,-0.1079102,0.2036133,-0.2231445
4107,-23.375,10.375,65.625,0.1015625,-0.453125,0.2211914,-0.1030273,0.2075195,-0.2202148
4111,-27.75,5.4375,68.3125,0.1210938,-0.4804688,0.2480469,-0.09716797,0.2084961,-0.2202148
4115,-29.75,3.125,70.6875,0.05517578,-0.5229492,0.2749023,-0.09375,0.2124023,-0.2177734
4119,-27.125,0.25,73.875,0.02050781,-0.5463867,0.2944336,-0.08789063,0.2163086,-0.2148438
4123,-18.1875,-3.125,78.4375,-0.04882813,-0.6005859,0.3095703,-0.08300781,0.2172852,-0.2148438
4128,-7,-3.5,90.875,-0.04492188,-0.6083984,0.2788086,-0.07714844,0.2226563,-0.2133789
4132,-3.75,0.3125,99.875,-0.06445313,-0.581543,0.2021484,-0.06884766,0.2226563,-0.2109375
4136,-7.8125,-0.3125,103.1875,-0.09912109,-0.550293,0.1748047,-0.06494141,0.2260742,-0.2133789
4140,-12.375,-2.3125,100.875,-0.1459961,-0.5776367,0.1787109,-0.05664063,0.2275391,-0.2119141
4144,-10.3125,-3.3125,99.6875,-0.2270508,-0.6044922,0.1904297,-0.04736328,0.2314453,-0.206543
4148,-4.0625,-2,102.75,-0.2929688,-0.6123047,0.2290039,-0.04248047,0.2314453,-0.2109375
4152,0,-0.125,117.6875,-0.3745117,-0.6044922,0.1674805,-0.03320313,0.2324219,-0.2109375
4156,-6.0625,1.0625,133.8125,-0.4287109,-0.6005859,0.105957,-0.0234375,0.2338867,-0.2094727
4160,-16.3125,0.75,146.6875,-0.4672852,-0.6396484,0.07128906,-0.01513672,0.2348633,-0.2094727
4164,-27.125,0.625,152.5,-0.5024414,-0.6938477,0.07910156,-0.001953125,0.2373047,-0.2080078
4168,-28.6875,-1,150.3125,-0.5683594,-0.7871094,0.140625,0.009277344,0.2373047,-0.206543
4172,-20.5,-0.25,151.5,-0.6455078,-0.8574219,0.1826172,0.02001953,0.2363281,-0.2041016
4176,-17.75,1.875,166.25,-0.6923828,-0.8959961,0.1328125,0.03320313,0.2373047,-0.2011719
4180,-22.125,4.0625,182.5625,-0.6884766,-0.9658203,0.105957,0.04736328,0.2338867,-0.2026367
4184,-31,6.4375,188.1875,-0.6572266,-1.043945,0.07519531,0.05957031,0.2324219,-0.1987305
4188,-34.3125,5.3125,179.8125,-0.7036133,-1.121582,0.1098633,0.07470703,0.2285156,-0.1987305
4192,-27.3125,2,163.625,-0.7426758,-1.144531,0.1479492,0.09033203,0.2250977,-0.1958008
4196,-12.375,3.0625,152.4375,-0.8354492,-1.148438,0.1479492,0.09960938,0.2211914,-0.1918945
4200,-0.75,11.5,156.3125,-0.9091797,-1.125488,0.08642578,0.1103516,0.2163086,-0.1918945
4204,1.1875,22.4375,168.5625,-0.9946289,-1.074707,0.02490234,0.125,0.2099609,-0.1918945
4208,-18.3125,22.1875,181.6875,-1.083496,-1.012695,-0.06689453,0.1367188,0.2050781,-0.1904297
4212,-49.0625,7.75,181.6875,-1.11084,-1.047363,-0.07470703,0.1499023,0.1972656,-0.1889648
4216,-71.25,-8.5625,169.6875,-1.048828,-1.203125,-0.009277344,0.1640625,0.1884766,-0.1835938
4220,-75.125,-17.0625,158.0625,-0.9555664,-1.358398,0.05566406,0.1713867,0.1860352,-0.1796875
4224,-57.9375,-11.9375,152.375,-0.862793,-1.509766,0.1289063,0.1821289,0.1787109,-0.1782227
4228,-30.125,4.625,151.4375,-0.8007813,-1.521484,0.09423828,0.1904297,0.1699219,-0.175293
4232,-18.5,18.3125,148.0625,-0.8276367,-1.439941,0.009765625,0.1972656,0.1650391,-0.1738281
4236,-28.6875,21.5625,141.75,-0.862793,-1.358398,-0.06689453,0.2080078,0.1538086,-0.1728516
4240,-49.625,12.5625,128.4375,-0.8706055,-1.393555,-0.03613281,0.2163086,0.1450195,-0.1699219
4244,-60.3125,2.875,110.125,-0.8125,-1.490723,0.03662109,0.222168,0.1425781,-0.1674805
4248,-61.3125,-1.9375,95.25,-0.8046875,-1.572266,0.1020508,0.2270508,0.1347656,-0.1645508
4252,-56.4375,-6.4375,83.6875,-0.746582,-1.603027,0.1289063,0.230957,0.1298828,-0.1606445
4257,-55.75,-8.8125,73.375,-0.6845703,-1.591309,0.1020508,0.234375,0.1289063,-0.1577148
4261,-57.1875,-14.625,61.75,-0.6342773,-1.61084,0.08251953,0.2368164,0.125,-0.1523438
4265,-57.8125,-27.5,50.5625,-0.5795898,-1.681152,0.09423828,0.2402344,0.1201172,-0.1538086
4269,-49.1875,-35.25,37.5625,-0.4208984,-1.781738,0.1713867,0.2402344,0.1210938,-0.1494141
4273,-27.6875,-31.1875,26.9375,-0.2734375,-1.863281,0.2094727,0.2436523,0.1176758,-0.1494141
4277,-0.6875,-19.0625,18.75,-0.2348633,-1.83252,0.1865234,0.2412109,0.1152344,-0.1508789
4281,19.9375,-8.125,1.875,-0.2851563,-1.618652,0.1020508,0.2436523,0.1137695,-0.1508789
4285,23.625,-4.375,-6.1875,-0.2583008,-1.509766,0.02880859,0.2426758,0.1123047,-0.1547852
4289,12.5625,-1.25,-18.8125,-0.2890625,-1.405273,-0.04003906,0.2412109,0.1123047,-0.15625
4293,0.4375,-0.125,-31.6875,-0.328125,-1.397461,-0.02050781,0.2412109,0.1123047,-0.1547852
4297,-1.5625,4.375,-42.6875,-0.3510742,-1.467285,0.01367188,0.2392578,0.1186523,-0.15625
4301,6.375,11.375,-55.6875,-0.362793,-1.501953,0.05566406,0.237793,0.1210938,-0.15625
4305,20.75,20.5,-71.25,-0.4326172,-1.455566,0.07910156,0.2329102,0.1235352,-0.15625
4309,29.3125,24.1875,-86.25,-0.5449219,-1.362305,0.03662109,0.230957,0.1313477,-0.1591797
4313,28.0625,22.5625,-98.1875,-0.6108398,-1.265137,0.02099609,0.2285156,0.1376953,-0.15625
4317,23.5625,21.4375,-107.8125,-0.6767578,-1.222656,0.02099609,0.2236328,0.1435547,-0.15625
4321,21.75,20.875,-112.4375,-0.7426758,-1.237793,0.02880859,0.21875,0.1489258,-0.1591797
4325,25.1875,21.8125,-114.1875,-0.7543945,-1.269043,0.07128906,0.2119141,0.15625,-0.1606445
4329,33.375,25.875,-117.875,-0.7348633,-1.241699,0.07128906,0.2080078,0.1635742,-0.15625
4333,38.375,27.8125,-122.1875,-0.8085938,-1.203125,0.05566406,0.2011719,0.1699219,-0.1591797
4337,35.4375,25.3125,-122.625,-0.8432617,-1.160156,0.04443359,0.1928711,0.1772461,-0.1606445
4341,29.875,19,-123.625,-0.8745117,-1.210938,0.06738281,0.1865234,0.1811523,-0.1577148
4345,32.75,14.6875,-125.4375,-0.8745117,-1.257324,0.09423828,0.1796875,0.1884766,-0.1616211
4349,33.375,8,-127.9375,-0.8896484,-1.249512,0.08642578,0.1713867,0.1938477,-0.1616211
4353,31.9375,-0.1875,-128.6875,-0.878418,-1.26123,0.1020508,0.1665039,0.2011719,-0.1645508
4357,30,-7.75,-130.8125,-0.8046875,-1.257324,0.09423828,0.1567383,0.2050781,-0.1645508
4361,29.75,-11.5,-134.625,-0.7075195,-1.280762,0.1020508,0.1459961,0.2124023,-0.1645508
4365,29.125,-10.1875,-137.9375,-0.6533203,-1.284668,0.09423828,0.1367188,0.2138672,-0.1699219
4369,25.5625,-11.125,-141.1875,-0.6342773,-1.265137,0.09033203,0.1269531,0.2211914,-0.1699219
4373,13.0625,-17.9375,-142.4375,-0.6225586,-1.226563,0.04052734,0.112793,0.2275391,-0.1738281
4377,-3.5625,-25.0625,-146.3125,-0.5722656,-1.237793,0.03271484,0.1044922,0.2314453,-0.1738281
4381,-13.9375,-30.25,-152.3125,-0.5371094,-1.284668,0.05566406,0.09130859,0.2363281,-0.1738281
4386,-9.25,-27.125,-157.625,-0.4946289,-1.342773,0.1020508,0.07617188,0.2426758,-0.1738281
4390,8.875,-13.6875,-155.4375,-0.4750977,-1.34668,0.1020508,0.06787109,0.2451172,-0.1728516
4394,26.3125,0.4375,-149.375,-0.4790039,-1.245605,0.04052734,0.05322266,0.2460938,-0.1767578
4398,33.625,10.875,-141.75,-0.5063477,-1.133301,-0.005371094,0.0390625,0.2485352,-0.1782227
4402,30.5625,13.75,-138.75,-0.4907227,-1.016602,-0.05517578,0.03076172,0.2509766,-0.1796875
4406,21.1875,11.1875,-138.6875,-0.4907227,-0.9541016,-0.02441406,0.01904297,0.2509766,-0.1821289
4410,15.0625,7.875,-137.625,-0.4521484,-0.9116211,0.009765625,0.005859375,0.25,-0.1835938
4414,12.5625,7.875,-133.125,-0.4091797,-0.9038086,0.04443359,-0.0009765625,0.2524414,-0.1821289
4418,14.75,10.9375,-127.125,-0.3706055,-0.8881836,0.06738281,-0.01269531,0.2509766,-0.1835938
4422,15.375,10.8125,-124.625,-0.3203125,-0.8496094,0.07519531,-0.02587891,0.25,-0.1865234
4426,16.5625,4,-128.375,-0.296875,-0.8417969,0.09423828,-0.03076172,0.2460938,-0.1875
4430,22.125,-3.0625,-134.3125,-0.1884766,-0.7832031,0.08642578,-0.04248047,0.2460938,-0.1889648
4434,29.25,-0.5,-135.9375,-0.1264648,-0.7094727,0.08642578,-0.05419922,0.2436523,-0.1889648
4438,32.3125,7.375,-125.0625,-0.1459961,-0.6357422,0.05957031,-0.06152344,0.2412109,-0.1918945
4442,31.0625,12.6875,-109.875,-0.1225586,-0.5854492,0.07519531,-0.07128906,0.2363281,-0.1943359
4446,29.125,16,-95.125,-0.09130859,-0.565918,0.1098633,-0.07958984,0.2324219,-0.1987305
4450,24.75,16.5,-85.4375,-0.04101563,-0.550293,0.144043,-0.08398438,0.2285156,-0.199707
4454,18.75,11.375,-82.0625,-0.01025391,-0.5463867,0.1713867,-0.09033203,0.2250977,-0.2026367
4458,14.9375,5.8125,-82.5,0.05126953,-0.5541992,0.1982422,-0.09716797,0.2197266,-0.2011719
4462,16.6875,4.5,-77.875,0.07861328,-0.5385742,0.1982422,-0.1010742,0.2197266,-0.2055664
4466,14.3125,4.6875,-71.8125,0.1132813,-0.5307617,0.1826172,-0.1069336,0.2172852,-0.2055664
4470,14.5625,5.125,-67.8125,0.1445313,-0.5268555,0.1904297,-0.1137695,0.2138672,-0.206543
4474,16.5,7.25,-64.6875,0.1484375,-0.5073242,0.2060547,-0.1152344,0.2114258,-0.2094727
4478,21,7.3125,-61.5625,0.1484375,-0.4609375,0.2133789,-0.1220703,0.2084961,-0.2094727
4482,27.5,7.375,-55.5,0.1328125,-0.4375,0.2094727,-0.1259766,0.2050781,-0.2119141
4486,30.625,8.375,-46.0625,0.1870117,-0.3442383,0.159668,-0.1269531,0.2036133,-0.2133789
4490,22.9375,6.75,-35.25,0.1635742,-0.2978516,0.1328125,-0.1293945,0.2001953,-0.2163086
4494,12.125,2.9375,-22.625,0.206543,-0.2861328,0.125,-0.1303711,0.1962891,-0.21875
4498,2.1875,1.25,-13.0625,0.2758789,-0.3676758,0.144043,-0.128418,0.1962891,-0.21875
4502,1.625,2.4375,-3.5625,0.3305664,-0.4609375,0.1748047,-0.1328125,0.1938477,-0.2202148
4506,2.1875,2.25,-0.5,0.3691406,-0.4921875,0.1826172,-0.1303711,0.1938477,-0.2177734
4510,3,0.6875,-4.1875,0.3886719,-0.519043,0.2060547,-0.1328125,0.1938477,-0.21875
4515,4.25,-1.8125,-9.1875,0.3730469,-0.5268555,0.2250977,-0.1328125,0.1923828,-0.21875
4519,1.6875,-4.8125,-7.125,0.3730469,-0.4882813,0.2060547,-0.1318359,0.1923828,-0.2202148
4523,-3.25,-8.75,-3.75,0.3808594,-0.5,0.2021484,-0.1328125,0.1923828,-0.2177734
4527,-2.6875,-8.4375,-1.5625,0.4077148,-0.5151367,0.2021484,-0.1367188,0.1938477,-0.21875
4531,-0.4375,-6.0625,1.25,0.3769531,-0.503418,0.1982422,-0.1367188,0.1914063,-0.21875
4535,0.3125,-3.9375,6.6875,0.3266602,-0.4609375,0.1943359,-0.1367188,0.1938477,-0.2163086
4539,0.125,-3.9375,14.9375,0.2993164,-0.4375,0.1865234,-0.1342773,0.1923828,-0.2163086
4543,-3.5,-3.8125,23.4375,0.2954102,-0.4101563,0.1748047,-0.1342773,0.1948242,-0.2163086
4547,-7.8125,-6.1875,31.1875,0.2993164,-0.421875,0.1748047,-0.1342773,0.1962891,-0.2177734
4551,-14.625,-9.0625,37.3125,0.2993164,-0.4492188,0.1557617,-0.128418,0.1987305,-0.2177734
4555,-17.4375,-9.8125,42.875,0.3378906,-0.5151367,0.159668,-0.1293945,0.2011719,-0.2148438
4559,-14.625,-5.875,45.25,0.3574219,-0.565918,0.1557617,-0.1259766,0.2026367,-0.2148438
4563,-8.6875,-2.6875,46.5625,0.3378906,-0.5854492,0.1479492,-0.1235352,0.2036133,-0.2133789
4567,-2.75,2,49.25,0.3227539,-0.5776367,0.1479492,-0.1186523,0.2075195,-0.2119141
4571,5.4375,8.625,53.9375,0.2646484,-0.5620117,0.1635742,-0.1162109,0.2075195,-0.2119141
4575,10.6875,13,60.25,0.2255859,-0.519043,0.144043,-0.112793,0.2084961,-0.2119141
4579,14.5,16.875,66.4375,0.1674805,-0.5,0.1635742,-0.1069336,0.2114258,-0.2133789
4583,19.5625,20.0625,72.875,0.1289063,-0.4765625,0.1674805,-0.1020508,0.2114258,-0.2163086
4587,23.0625,23.375,80.25,0.05517578,-0.4570313,0.1635742,-0.09619141,0.2114258,-0.2177734
4591,21.3125,24.0625,89.875,0.01660156,-0.4257813,0.1328125,-0.08642578,0.2138672,-0.2202148
4595,13.75,23.625,95.4375,-0.01806641,-0.4335938,0.1098633,-0.08203125,0.2138672,-0.2202148
4599,4.5625,22.25,97.4375,-0.05664063,-0.4492188,0.1098633,-0.07128906,0.2163086,-0.2231445
4603,-2.375,20.6875,99.4375,-0.1303711,-0.4648438,0.140625,-0.06494141,0.2172852,-0.2246094
4607,-8.1875,18.5625,104.25,-0.1884766,-0.4921875,0.140625,-0.05664063,0.21875,-0.2246094
4611,-14.8125,15.25,111.8125,-0.246582,-0.534668,0.1328125,-0.04833984,0.2211914,-0.2231445
4615,-22.75,13.75,120.6875,-0.2583008,-0.5966797,0.125,-0.0390625,0.2236328,-0.2216797
4619,-30.3125,12.3125,129.375,-0.2583008,-0.6748047,0.105957,-0.03076172,0.2236328,-0.2216797
4623,-36.1875,12.0625,131.875,-0.2700195,-0.7563477,0.1210938,-0.01855469,0.2285156,-0.2177734
4627,-34.3125,13.9375,135.1875,-0.2929688,-0.8647461,0.1748047,-0.006835938,0.2314453,-0.2163086
4631,-22.6875,19.25,138.1875,-0.3549805,-0.9389648,0.2021484,0.0009765625,0.2314453,-0.2148438
4635,-14,24.5,139.5625,-0.3862305,-0.9311523,0.1674805,0.01269531,0.2314453,-0.2148438
4639,-6.125,27.875,139.0625,-0.4750977,-0.9350586,0.1674805,0.02734375,0.2324219,-0.2109375
4644,1.5625,31.875,143.5625,-0.5488281,-0.9350586,0.1787109,0.03564453,0.2314453,-0.2109375
4648,9.375,38.1875,153.5,-0.6069336,-0.9428711,0.1865234,0.04882813,0.2285156,-0.2119141
4652,12.25,41.125,163.5625,-0.6767578,-0.9350586,0.1674805,0.06640625,0.2211914,-0.2133789
4656,7.1875,35.6875,166.3125,-0.7036133,-0.9389648,0.125,0.07617188,0.2172852,-0.2109375
4660,-6.25,30.125,162.375,-0.699707,-0.9389648,0.06738281,0.09130859,0.2138672,-0.2109375
4664,-25.6875,24.8125,155.6875,-0.746582,-0.9736328,0.04443359,0.105957,0.2084961,-0.2080078
4668,-41.125,21.3125,150.6875,-0.7734375,-1.043945,0.06347656,0.1152344,0.2050781,-0.2080078
4672,-49.4375,20.0625,148.9375,-0.8164063,-1.074707,0.08251953,0.1269531,0.2026367,-0.2055664
4676,-59.75,18.4375,153.875,-0.878418,-1.11377,0.07519531,0.1416016,0.1962891,-0.1972656
4680,-70.0625,13.25,155.5,-0.9013672,-1.175781,0.07519531,0.1499023,0.1948242,-0.1943359
4684,-76.75,5.4375,150,-0.8588867,-1.265137,0.09814453,0.1606445,0.1875,-0.1889648
4688,-74,2.6875,138.25,-0.8276367,-1.331055,0.125,0.1713867,0.1835938,-0.1821289
4692,-60.75,8.5625,131.0625,-0.8354492,-1.350586,0.159668,0.1772461,0.1801758,-0.1796875
4696,-50.3125,15.9375,133.75,-0.8818359,-1.338867,0.1328125,0.1879883,0.1738281,-0.175293
4700,-44.6875,20.1875,134.9375,-0.8706055,-1.312012,0.1479492,0.1972656,0.1674805,-0.1728516
4704,-44.25,20.5,131.4375,-0.8588867,-1.214844,0.09423828,0.2021484,0.1611328,-0.1699219
4708,-58.6875,12.6875,124.3125,-0.9287109,-1.199219,0.03662109,0.2119141,0.1547852,-0.1645508
4712,-82,-3,115.25,-0.9169922,-1.249512,0.02490234,0.2177734,0.1474609,-0.1616211
4716,-93.9375,-14.5625,111.625,-0.8706055,-1.475098,0.1132813,0.222168,0.1450195,-0.1577148
4720,-89.8125,-22.1875,100.25,-0.7192383,-1.591309,0.144043,0.2260742,0.1401367,-0.1523438
4724,-75.6875,-25.3125,80.875,-0.5605469,-1.653809,0.1635742,0.230957,0.1376953,-0.1508789
4728,-55.0625,-19.8125,67.1875,-0.5141602,-1.587891,0.1328125,0.2353516,0.1347656,-0.1469727
4732,-43.5,-14.5,60.8125,-0.5253906,-1.459473,0.07128906,0.237793,0.1323242,-0.1484375
4736,-42.4375,-14.5,55.125,-0.5683594,-1.334961,0.02099609,0.2402344,0.1289063,-0.1455078
4740,-51.5625,-22.375,49.5,-0.5952148,-1.233887,-0.02441406,0.2426758,0.125,-0.1455078
4744,-66.5625,-31.8125,42.75,-0.6030273,-1.183594,-0.04736328,0.2426758,0.1235352,-0.1416016
4748,-77.5625,-39.875,36.3125,-0.5795898,-1.210938,-0.02441406,0.2460938,0.1225586,-0.1416016
4752,-74.625,-37.9375,31.75,-0.5371094,-1.338867,0.02490234,0.2460938,0.1210938,-0.1386719
4756,-59.3125,-26.875,32.8125,-0.4555664,-1.455566,0.02099609,0.2475586,0.1201172,-0.1357422
4760,-41.6875,-15.5,22.375,-0.328125,-1.525391,-0.001464844,0.2475586,0.1186523,-0.137207
4764,-18.5,-5.25,3.8125,-0.296875,-1.564453,-0.009277344,0.2460938,0.1201172,-0.1347656
4768,5.25,6.0625,-17.0625,-0.3164063,-1.560547,-0.01660156,0.2475586,0.1186523,-0.1347656
4773,22,13.0625,-35.8125,-0.362793,-1.505859,-0.05126953,0.2451172,0.1210938,-0.137207
4777,32.25,17.625,-49.4375,-0.4555664,-1.479004,-0.07080078,0.2451172,0.1264648,-0.1357422
4781,39.0625,20.75,-57.75,-0.4868164,-1.475098,-0.0859375,0.2426758,0.1298828,-0.1357422
4785,40.5,22,-65.5,-0.5063477,-1.494629,-0.1401367,0.237793,0.1313477,-0.1401367
4789,37.3125,23.625,-76.5,-0.4829102,-1.509766,-0.1513672,0.2392578,0.1362305,-0.1401367
4793,38.25,24.25,-93.8125,-0.5141602,-1.541016,-0.1323242,0.2329102,0.1411133,-0.1401367
4797,41.625,26.8125,-107.5,-0.5756836,-1.544922,-0.112793,0.2294922,0.1474609,-0.1425781
4801,45.5625,29.75,-119.375,-0.6376953,-1.533203,-0.1054688,0.2270508,0.1538086,-0.1425781
4805,47.375,31.875,-127.0625,-0.7036133,-1.521484,-0.1206055,0.2177734,0.1611328,-0.1425781
4809,48.6875,31.875,-137.625,-0.7348633,-1.490723,-0.109375,0.2119141,0.1674805,-0.144043
4813,46.3125,31.0625,-145.5,-0.8125,-1.439941,-0.1435547,0.2055664,0.1762695,-0.1455078
4817,38.3125,28.3125,-151.0625,-0.8276367,-1.397461,-0.1206055,0.1972656,0.1826172,-0.1455078
4821,33.9375,26.25,-157.0625,-0.8354492,-1.42041,-0.08203125,0.1865234,0.1914063,-0.1469727
4825,36.3125,26.5625,-164.4375,-0.8393555,-1.443848,-0.03613281,0.1796875,0.1972656,-0.1469727
4829,45.1875,28.875,-168.6875,-0.8818359,-1.42041,-0.009277344,0.1689453,0.2060547,-0.1484375
4833,50.6875,31,-168.4375,-0.9130859,-1.350586,-0.02441406,0.1567383,0.2138672,-0.1508789
4837,49.4375,28.9375,-166.9375,-0.9208984,-1.276855,-0.02832031,0.1474609,0.21875,-0.1494141
4841,40.9375,23.4375,-166.375,-0.9091797,-1.214844,-0.005371094,0.1342773,0.2236328,-0.1523438
4845,27.625,13.125,-167.5,-0.9169922,-1.191406,0.01367188,0.1201172,0.2324219,-0.1547852
4849,14.25,1.25,-169.8125,-0.862793,-1.210938,0.05957031,0.1118164,0.2397461,-0.1547852
4853,8.0625,-6.75,-172.0625,-0.7851563,-1.249512,0.08642578,0.09619141,0.2436523,-0.1577148
4857,7,-8.4375,-173.375,-0.7270508,-1.272949,0.1098633,0.07861328,0.25,-0.1577148
4861,11.6875,-7.5625,-174.3125,-0.6962891,-1.29248,0.1328125,0.07128906,0.2524414,-0.1577148
4865,22.6875,-3.6875,-172.9375,-0.6611328,-1.276855,0.1518555,0.05566406,0.2573242,-0.1591797
4869,34.9375,2.375,-167.9375,-0.6572266,-1.226563,0.159668,0.03808594,0.2587891,-0.1606445
4873,49.0625,4.375,-162.875,-0.6728516,-1.171875,0.1943359,0.02832031,0.2573242,-0.1606445
4877,65.6875,5.5,-156.125,-0.6376953,-1.090332,0.2133789,0.01171875,0.2587891,-0.168457
4881,78.1875,5.25,-147.1875,-0.5991211,-0.9619141,0.1518555,0,0.2548828,-0.175293
4885,80.75,3.3125,-139.9375,-0.5332031,-0.8261719,0.09423828,-0.009277344,0.2509766,-0.1782227
4889,72.4375,-2.125,-133.5,-0.4829102,-0.7055664,0.03662109,-0.02099609,0.25,-0.1865234
4893,58.3125,-8.0625,-125.125,-0.4208984,-0.6669922,0.03271484,-0.03417969,0.2451172,-0.1918945
4897,49.5625,-10.3125,-118.6875,-0.296875,-0.6474609,0.05566406,-0.04248047,0.2412109,-0.1958008
4902,45.9375,-8.5625,-112.9375,-0.2661133,-0.6318359,0.07519531,-0.05322266,0.2387695,-0.1987305
4906,41.5625,-10.9375,-105.9375,-0.2348633,-0.5927734,0.09033203,-0.06152344,0.2324219,-0.2041016
4910,35.9375,-16,-102.125,-0.1611328,-0.5541992,0.08251953,-0.06738281,0.2299805,-0.2055664
4914,27.6875,-19.375,-97.875,-0.1030273,-0.5307617,0.07128906,-0.078125,0.2260742,-0.206543
4918,20.9375,-22.375,-97,-0.02587891,-0.5307617,0.09814453,-0.08544922,0.2226563,-0.2094727
4922,19.8125,-22.4375,-96,0.008789063,-0.519043,0.125,-0.09375,0.2197266,-0.2080078
4926,20.875,-21.75,-92.4375,0.02050781,-0.484375,0.1171875,-0.1010742,0.2163086,-0.2109375
4930,21.3125,-21.6875,-84.875,0.07080078,-0.4335938,0.09814453,-0.1103516,0.2114258,-0.2109375
4934,21.9375,-19.1875,-76,0.125,-0.3911133,0.08642578,-0.1162109,0.2099609,-0.2133789
4938,22.375,-14.6875,-65.8125,0.1831055,-0.371582,0.06738281,-0.1220703,0.2050781,-0.2148438
4942,24.375,-9,-56.75,0.2177734,-0.3481445,0.04052734,-0.1259766,0.2011719,-0.2148438
4946,25.8125,-1.375,-47,0.2294922,-0.2978516,0.05175781,-0.1293945,0.1972656,-0.2119141
4950,23.8125,3.625,-37.75,0.2255859,-0.2314453,0.04443359,-0.1328125,0.1948242,-0.2163086
4954,19.5,6.375,-28.25,0.2255859,-0.1967773,0.05957031,-0.1342773,0.1938477,-0.2202148
4958,14.5625,8.3125,-15.9375,0.2451172,-0.1928711,0.07128906,-0.1352539,0.1884766,-0.21875
4962,10.125,8.6875,-3.875,0.2568359,-0.2124023,0.09033203,-0.1376953,0.1899414,-0.2202148
4966,4.1875,9.375,5.3125,0.3071289,-0.2163086,0.09814453,-0.1367188,0.1875,-0.2216797
4970,-1.625,7.125,8.9375,0.3149414,-0.2470703,0.1132813,-0.1342773,0.1899414,-0.2216797
4974,-5.5625,2.4375,8.625,0.3149414,-0.2978516,0.1635742,-0.1352539,0.1884766,-0.2231445
4978,-5.4375,-0.75,8.4375,0.3378906,-0.3520508,0.1787109,-0.1342773,0.1899414,-0.2216797
4982,-0.8125,-0.125,9.1875,0.3378906,-0.371582,0.1982422,-0.1328125,0.1914063,-0.2216797
4986,2.9375,0.9375,14.875,0.3227539,-0.3481445,0.1674805,-0.1328125,0.1923828,-0.2216797
4990,-0.625,-0.3125,19.75,0.3110352,-0.3173828,0.144043,-0.1303711,0.1923828,-0.2231445
4994,-5.875,-4.625,22.625,0.2797852,-0.3286133,0.1289063,-0.1293945,0.1914063,-0.2216797
4998,-7.9375,-4.875,29.5625,0.2993164,-0.355957,0.1328125,-0.128418,0.1923828,-0.2216797
5002,-7.5625,-1.75,38.5625,0.3149414,-0.3950195,0.1210938,-0.1259766,0.1962891,-0.21875
5006,-8.6875,0.9375,47.625,0.3032227,-0.4140625,0.09423828,-0.1245117,0.1972656,-0.2216797
5010,-13.4375,2.9375,53.5625,0.3032227,-0.4492188,0.08251953,-0.1201172,0.1987305,-0.2202148
5014,-16.25,4.25,55.3125,0.2915039,-0.503418,0.1171875,-0.1176758,0.2036133,-0.2177734
5018,-14.9375,4.0625,55.8125,0.2607422,-0.550293,0.1635742,-0.1137695,0.2060547,-0.2177734
5022,-10.875,4.625,59,0.2412109,-0.5776367,0.1826172,-0.1079102,0.2075195,-0.2163086
5026,-8.5,4.3125,64.1875,0.2104492,-0.581543,0.1904297,-0.1054688,0.2099609,-0.2177734
5031,-4.3125,3.875,68.1875,0.1987305,-0.6162109,0.2060547,-0.09960938,0.2114258,-0.2163086
5035,1.4375,5.3125,72.8125,0.1791992,-0.6240234,0.1826172,-0.09472656,0.2124023,-0.2177734
5039,2.9375,6.75,73.625,0.1635742,-0.5966797,0.1557617,-0.09033203,0.2163086,-0.2163086
5043,1.0625,6.9375,72.0625,0.1054688,-0.581543,0.1289063,-0.08544922,0.2172852,-0.2163086
5047,2.375,6.5,72,0.05908203,-0.5776367,0.140625,-0.07958984,0.21875,-0.2177734
5051,3.625,9.75,77,0.02050781,-0.5307617,0.1328125,-0.07324219,0.2211914,-0.2163086
5055,3.3125,12.75,83.9375,-0.05273438,-0.503418,0.1367188,-0.06738281,0.2226563,-0.2177734
5059,-1.375,13.5,91.375,-0.1147461,-0.4765625,0.1098633,-0.06152344,0.2236328,-0.2202148
5063,-5.0625,13.125,96.625,-0.1923828,-0.503418,0.1210938,-0.05078125,0.2236328,-0.2177734
5067,-4.1875,13.75,101.125,-0.28125,-0.519043,0.125,-0.04589844,0.2260742,-0.21875
5071,-5.9375,14.375,107.9375,-0.378418,-0.519043,0.1020508,-0.03759766,0.2260742,-0.21875
5075,-11.625,13.375,117.5,-0.4482422,-0.5307617,0.07910156,-0.02587891,0.2275391,-0.21875
5079,-14.4375,13.5625,124.25,-0.5024414,-0.5893555,0.09814453,-0.01757813,0.2275391,-0.2177734
5083,-6.75,17.9375,129.0625,-0.5605469,-0.6357422,0.1289063,-0.0078125,0.2299805,-0.2177734
5087,4.125,26.9375,137.0625,-0.6147461,-0.6318359,0.1289063,0.003417969,0.2299805,-0.2177734
5091,-0.5625,33.4375,159.8125,-0.7387695,-0.5776367,0.04052734,0.01416016,0.2275391,-0.2163086
5095,-25.8125,29.3125,179.6875,-0.7578125,-0.6123047,-0.009277344,0.02978516,0.2275391,-0.2148438
5099,-55.125,18.375,185.8125,-0.7543945,-0.7524414,-0.001464844,0.04638672,0.2260742,-0.2119141
5103,-72.75,9.3125,177.9375,-0.7695313,-0.9311523,0.05566406,0.05566406,0.2275391,-0.2080078
5107,-75.0625,3.25,176.3125,-0.847168,-1.11377,0.1132813,0.07128906,0.2275391,-0.2011719
5111,-67.5625,3.6875,182.25,-0.8432617,-1.284668,0.1557617,0.08691406,0.2236328,-0.1958008
5115,-48.375,9,186.1875,-0.7851563,-1.381836,0.1787109,0.09863281,0.2226563,-0.1928711
5119,-28.375,17.875,187.5,-0.7543945,-1.342773,0.159668,0.1142578,0.2172852,-0.1904297
5123,-20.8125,24.4375,185.9375,-0.7734375,-1.284668,0.105957,0.1308594,0.2099609,-0.1889648
5127,-25.1875,23.5,181.25,-0.831543,-1.249512,0.05566406,0.1401367,0.2050781,-0.1850586
5131,-34.8125,18.75,173.5,-0.862793,-1.331055,0.06347656,0.1557617,0.1962891,-0.1835938
5135,-36.75,17.6875,166.0625,-0.847168,-1.428223,0.07519531,0.1689453,0.1884766,-0.1796875
5139,-32.5,24.375,162,-0.862793,-1.505859,0.07910156,0.1772461,0.1811523,-0.1767578
5143,-32.3125,28.4375,154.75,-0.8510742,-1.501953,0.05566406,0.1889648,0.1713867,-0.1738281
5147,-34.25,28.6875,141.9375,-0.8237305,-1.509766,0.08642578,0.2021484,0.1635742,-0.1699219
5151,-32.5,26.9375,128.5,-0.8276367,-1.463379,0.1171875,0.2070313,0.1586914,-0.1660156
5155,-32.75,25.0625,116.125,-0.8125,-1.397461,0.1367188,0.2138672,0.1499023,-0.1645508
5160,-38.625,21.5,103.1875,-0.8706055,-1.315918,0.1367188,0.2236328,0.1450195,-0.1606445
5164,-53.0625,9.5625,92.5,-0.9477539,-1.21875,0.08251953,0.2246094,0.1386719,-0.1577148
5168,-77.3125,-8,85.8125,-0.9790039,-1.1875,0.05566406,0.2319336,0.1347656,-0.1547852
5172,-95.25,-24.9375,83,-0.9438477,-1.288574,0.08251953,0.2353516,0.1298828,-0.1469727
5176,-101,-34.4375,80.8125,-0.8510742,-1.385742,0.09423828,0.2402344,0.1298828,-0.1494141
5180,-101.5625,-39.5625,74.6875,-0.7504883,-1.436035,0.09033203,0.2426758,0.125,-0.1455078
5184,-101.5,-41.375,63.0625,-0.6572266,-1.447754,0.1020508,0.2451172,0.1210938,-0.1386719
5188,-96.25,-45.8125,50.3125,-0.6611328,-1.494629,0.09423828,0.2460938,0.1210938,-0.137207
5192,-85.5,-52.125,41.625,-0.6342773,-1.525391,0.1210938,0.2460938,0.1162109,-0.1357422
5196,-47.625,-38.4375,64.8125,-0.02197266,-2.426758,0.4521484,0.2475586,0.1123047,-0.1347656
5200,62.5625,0.125,9.125,-0.1381836,-2.259766,0.3671875,0.2460938,0.1098633,-0.1357422
5204,71.625,5.0625,-13.875,-0.4287109,-1.253418,-0.1821289,0.25,0.1049805,-0.1386719
5208,19.375,-18.4375,-32.75,-0.5566406,-0.8535156,-0.324707,0.2475586,0.1074219,-0.1416016
5212,-20.625,-27.1875,-32.5625,-0.5795898,-0.8378906,-0.2089844,0.2451172,0.1088867,-0.1401367
5216,-31.625,-15.75,-9.4375,-0.5991211,-1.05127,-0.05126953,0.2436523,0.1137695,-0.1425781
5220,-21.8125,-2.4375,12.625,-0.4985352,-1.304199,0.001953125,0.2436523,0.1162109,-0.144043
5224,-4.9375,4.25,1.6875,-0.3666992,-1.405273,-0.001464844,0.2436523,0.1176758,-0.144043
5228,5.9375,3.75,-35.8125,-0.347168,-1.424316,-0.005371094,0.2426758,0.1186523,-0.1416016
5232,15.5,2.3125,-71.5625,-0.4208984,-1.447754,-0.005371094,0.2402344,0.1235352,-0.144043
5236,25.25,5.0625,-93.5625,-0.5063477,-1.374023,-0.03222656,0.2392578,0.1289063,-0.144043
5240,35.6875,9.0625,-102.125,-0.5834961,-1.327148,-0.04003906,0.2329102,0.1362305,-0.1455078
5244,44.8125,16.9375,-102.875,-0.6455078,-1.284668,-0.05908203,0.2260742,0.1459961,-0.1508789
5248,46.875,22,-103.375,-0.699707,-1.21875,-0.112793,0.2246094,0.1474609,-0.1508789
5252,36.3125,22.6875,-105.875,-0.699707,-1.1875,-0.1323242,0.21875,0.1538086,-0.1538086
5256,19.75,20.0625,-113.4375,-0.7114258,-1.222656,-0.1206055,0.2104492,0.1625977,-0.1547852
5260,9.5625,14.8125,-123.0625,-0.6923828,-1.315918,-0.05126953,0.2070313,0.1660156,-0.1538086
5264,14.25,15.1875,-131.9375,-0.6923828,-1.405273,0.02099609,0.1987305,0.1748047,-0.1538086
5268,26.3125,21.0625,-134.625,-0.7075195,-1.432129,0.02099609,0.1914063,0.1835938,-0.1523438
5272,35.5625,26.625,-134,-0.7578125,-1.412598,0.001953125,0.1855469,0.1884766,-0.1523438
5276,38.4375,26.4375,-136.5625,-0.7851563,-1.385742,-0.01318359,0.1772461,0.1962891,-0.1547852
5280,36.4375,23.0625,-141.6875,-0.796875,-1.354492,-0.01660156,0.1674805,0.2036133,-0.15625
5284,33.4375,20.625,-146.625,-0.8085938,-1.34668,-0.001464844,0.1591797,0.2075195,-0.1547852
5289,30.5625,17.25,-151,-0.8125,-1.338867,0.04443359,0.1484375,0.2163086,-0.15625
5293,26.1875,11,-155.0625,-0.8164063,-1.319336,0.05957031,0.1367188,0.2197266,-0.1606445
5297,22.1875,5.0625,-158.875,-0.796875,-1.334961,0.07519531,0.128418,0.2260742,-0.1591797
5301,22.8125,3.0625,-162.375,-0.7734375,-1.327148,0.07910156,0.1176758,0.2324219,-0.1606445
