Packet number,Gyroscope X (deg/s),Gyroscope Y (deg/s),Gyroscope Z (deg/s),Accelerometer X (g),Accelerometer Y (g),Accelerometer Z (g),Magnetometer X (G),Magnetometer Y (G),Magnetometer Z (G)
2,0.125,-5.625,0.8125,0.07861328,0.987793,0.1098633,-0.01025391,-0.371582,-0.1616211
6,1,-5.1875,0.875,0.06298828,0.9799805,0.105957,-0.009277344,-0.371582,-0.1660156
10,1.25,-5.5,-0.3125,0.05126953,0.987793,0.1020508,-0.01025391,-0.371582,-0.1645508
14,0.9375,-5.5,-0.5625,0.05517578,0.9760742,0.1210938,-0.01025391,-0.371582,-0.1645508
18,1,-5.5,-0.625,0.04736328,0.956543,0.105957,-0.01025391,-0.371582,-0.1660156
22,-0.6875,-3.375,-1.4375,0.06689453,0.9414063,0.1020508,-0.01025391,-0.371582,-0.1616211
26,-2.6875,-0.75,-2.5625,0.03564453,0.921875,0.1171875,-0.01025391,-0.371582,-0.1645508
30,-4.5,-0.9375,-3.3125,0.03564453,0.8945313,0.1098633,-0.01025391,-0.3706055,-0.1645508
34,-6.625,1.3125,-3.1875,0.04736328,0.8481445,0.144043,-0.009277344,-0.3706055,-0.1660156
38,-9.875,3.125,-5,0.04736328,0.7739258,0.1328125,-0.009277344,-0.371582,-0.1674805
42,-5.125,3.75,-9.875,0.0009765625,0.6538086,0.1557617,-0.0078125,-0.3681641,-0.1660156
46,9.1875,-3.0625,-18.5,-0.08398438,0.6577148,0.1748047,-0.0078125,-0.3691406,-0.1674805
50,20.5625,-13.375,-25.625,-0.01025391,0.7587891,0.140625,-0.005859375,-0.3691406,-0.1674805
54,20.875,-9.75,-29.625,0.04736328,0.90625,0.1210938,-0.003417969,-0.3691406,-0.1660156
58,12.375,-8.5,-29.5,-0.006347656,0.9604492,0.09423828,-0.001953125,-0.3706055,-0.1630859
62,6.3125,-12.625,-35.3125,-0.03710938,0.953125,0.105957,0,-0.3706055,-0.1630859
66,9.5625,-22.625,-43.625,-0.06054688,0.9257813,0.05566406,0.004394531,-0.3706055,-0.1616211
70,17.0625,-28.5,-49.875,0.004882813,0.9682617,0.001953125,0.005859375,-0.3691406,-0.1630859
74,21.5625,-28.625,-52.3125,0.02441406,1.092773,-0.04394531,0.009277344,-0.3706055,-0.1606445
78,16.0625,-24.25,-46.5625,0.05126953,1.213379,-0.05126953,0.01416016,-0.3706055,-0.1591797
82,7.9375,-21.9375,-44,0.03564453,1.294922,-0.05126953,0.01269531,-0.3706055,-0.15625
86,3.9375,-18.25,-31.25,0.06689453,1.294922,-0.009277344,0.01904297,-0.3706055,-0.1577148
90,5.375,-14.625,-18.9375,0.08251953,1.294922,0.005859375,0.01757813,-0.3706055,-0.1577148
94,5.6875,-9.75,-9.375,0.08251953,1.317871,0.02099609,0.01904297,-0.3691406,-0.1577148
98,-1.4375,-8.8125,-6.125,0.03564453,1.403809,0.02880859,0.02001953,-0.3691406,-0.1577148
102,-11.0625,-9.625,0.1875,0.06689453,1.395996,0.05566406,0.02001953,-0.3691406,-0.1577148
106,-12.6875,-4.4375,8.75,0.09765625,1.458008,0.1020508,0.01904297,-0.3706055,-0.1577148
110,-17.5625,-0.75,26.3125,0.09033203,1.597656,0.09033203,0.01757813,-0.3681641,-0.1606445
114,-32.6875,1.5,44.1875,0.09033203,1.640625,0.1020508,0.01513672,-0.3681641,-0.1616211
118,-43.4375,2.6875,63,0.1015625,1.547363,0.1289063,0.01269531,-0.3666992,-0.1630859
123,-46.5,1.25,74.9375,0.08642578,1.461914,0.1479492,0.006835938,-0.3681641,-0.1660156
127,-46.5625,-0.375,85.1875,0.1015625,1.384277,0.144043,0,-0.3642578,-0.1713867
131,-39.5625,-4.0625,91.5625,0.09375,1.403809,0.1635742,-0.005859375,-0.3657227,-0.1738281
135,-32.875,-7.875,102.6875,0.08642578,1.508301,0.1787109,-0.01269531,-0.3657227,-0.1767578
139,-32.25,-11,120,0.1635742,1.652344,0.144043,-0.02099609,-0.3632813,-0.1767578
143,-46.375,1.1875,149.625,0.2451172,1.694824,0.140625,-0.03076172,-0.3632813,-0.1796875
147,-63.5,8.0625,166.75,0.1445313,1.559082,0.144043,-0.04736328,-0.3618164,-0.1835938
151,-65.25,1.9375,174.4375,0.08251953,1.364746,0.2060547,-0.06298828,-0.3544922,-0.1904297
155,-50.9375,-6.3125,181,0.1132813,1.349121,0.2441406,-0.07470703,-0.3520508,-0.1943359
159,-44.625,-7.6875,193.25,0.1674805,1.395996,0.2636719,-0.09228516,-0.3457031,-0.1987305
163,-49.25,-7.25,210.3125,0.2026367,1.395996,0.2329102,-0.112793,-0.3330078,-0.2026367
167,-57.375,-2.3125,223.375,0.2255859,1.259766,0.2368164,-0.1259766,-0.3232422,-0.2055664
171,-68.75,4.25,234.1875,0.2373047,1.162598,0.2290039,-0.1450195,-0.3081055,-0.2119141
175,-80.625,5.125,230.6875,0.1210938,1.038574,0.2480469,-0.1616211,-0.2895508,-0.2148438
179,-82.75,-3.875,231.5625,0.1518555,0.8520508,0.2597656,-0.1733398,-0.2753906,-0.2202148
183,-69.9375,-11.875,225.25,0.1635742,0.7548828,0.3017578,-0.1865234,-0.2558594,-0.2270508
187,-60.3125,-15.5,234.1875,0.2646484,0.7470703,0.2944336,-0.2006836,-0.2358398,-0.2285156
191,-52.5625,-14.25,240.6875,0.2915039,0.7392578,0.2675781,-0.2089844,-0.2246094,-0.2299805
195,-62.3125,-7.5,240.25,0.3769531,0.7973633,0.2368164,-0.222168,-0.2016602,-0.2299805
199,-80.25,-7.9375,230.6875,0.2915039,0.7236328,0.2290039,-0.2304688,-0.1806641,-0.2338867
203,-86.75,-14.1875,218.75,0.3417969,0.5913086,0.2675781,-0.234375,-0.1655273,-0.2353516
207,-73.125,-25,219.125,0.2993164,0.4868164,0.3330078,-0.2436523,-0.1420898,-0.237793
211,-54.375,-37.875,220.3125,0.4155273,0.5214844,0.3828125,-0.2519531,-0.1220703,-0.2353516
215,-39.125,-47.0625,229.9375,0.4580078,0.5913086,0.3481445,-0.2553711,-0.1069336,-0.2338867
219,-34.3125,-48.75,241.4375,0.543457,0.7080078,0.3251953,-0.2617188,-0.08447266,-0.2270508
223,-57.4375,-40.625,245.3125,0.5898438,0.7626953,0.1982422,-0.2675781,-0.06201172,-0.2285156
227,-92.5625,-28.8125,247.5,0.5239258,0.6577148,0.08642578,-0.2700195,-0.04443359,-0.2255859
231,-124.8125,-14.125,253.1875,0.4541016,0.2963867,-0.02832031,-0.2709961,-0.01708984,-0.2216797
235,-136.3125,0.6875,255.75,0.3032227,-0.2705078,-0.1362305,-0.2685547,0.01269531,-0.21875
239,-124.8125,11,233.9375,0.3227539,-0.2124023,-0.1323242,-0.2617188,0.03125,-0.21875
243,-93.5625,18.9375,207.1875,0.09375,-1.467285,-0.324707,-0.2568359,0.06005859,-0.2177734
247,-59.375,27.9375,141.9375,0.01269531,-1.505859,-0.4360352,-0.2509766,0.07861328,-0.2148438
252,-42.375,27.1875,74.875,-0.03320313,-1.781738,-0.3706055,-0.2446289,0.08740234,-0.2163086
256,-11.0625,20.3125,6.5,0.03564453,-1.583984,-0.1513672,-0.2412109,0.09619141,-0.2177734
260,21,9.625,-40.25,0.1518555,-1.125488,0.07910156,-0.2412109,0.09228516,-0.21875
264,40.875,-1.375,-68.625,0.3613281,-0.6977539,0.2329102,-0.2412109,0.08984375,-0.21875
268,46.1875,-4.5625,-83.5,0.5317383,-0.3364258,0.390625,-0.2446289,0.08105469,-0.2202148
272,46.8125,-12.375,-85.8125,0.6015625,-0.1499023,0.4326172,-0.2485352,0.07128906,-0.2216797
276,48.1875,-19.25,-80.6875,0.7529297,-0.1499023,0.4018555,-0.2495117,0.06494141,-0.2216797
280,48.3125,-14.5625,-77.1875,0.8691406,-0.1811523,0.2749023,-0.253418,0.05615234,-0.2216797
284,44.9375,-4.875,-76.3125,0.8652344,-0.2861328,0.1943359,-0.2553711,0.04492188,-0.2202148
288,46.4375,1.5625,-85.25,0.7954102,-0.371582,0.2709961,-0.2592773,0.04003906,-0.2231445
292,53.5625,-1.9375,-96.5625,0.6948242,-0.340332,0.3212891,-0.2617188,0.03027344,-0.2255859
296,53.75,-10.1875,-111.5,0.675293,-0.2084961,0.3481445,-0.2617188,0.01757813,-0.2246094
300,46.75,-10.8125,-113.5,0.7333984,-0.1347656,0.3017578,-0.2651367,0.008789063,-0.2231445
304,39.375,-1.8125,-118.375,0.7490234,-0.1230469,0.2636719,-0.2661133,-0.003417969,-0.2246094
308,32.125,4.375,-130.9375,0.7255859,-0.1230469,0.2441406,-0.2675781,-0.015625,-0.2246094
312,36.5,2.5,-140.6875,0.6132813,-0.03369141,0.2827148,-0.2700195,-0.02587891,-0.2270508
316,38.875,-2.0625,-148.9375,0.6054688,-0.002441406,0.2597656,-0.2685547,-0.04052734,-0.2255859
320,40.9375,0.8125,-152.875,0.6401367,0.07080078,0.2133789,-0.2700195,-0.0546875,-0.2255859
324,38.9375,11.125,-151.25,0.6328125,0.02832031,0.2133789,-0.2685547,-0.06591797,-0.2255859
328,44.25,15.125,-153.75,0.6054688,0.09423828,0.1479492,-0.2651367,-0.07958984,-0.2255859
332,37.25,23.9375,-164.3125,0.609375,0.2265625,0.1904297,-0.2636719,-0.09570313,-0.2285156
336,37.6875,21.3125,-170.125,0.5087891,0.4321289,0.2441406,-0.2592773,-0.1054688,-0.2270508
340,49.875,5.125,-176.9375,0.4467773,0.2456055,0.3173828,-0.2568359,-0.1230469,-0.2299805
344,63.4375,-3.1875,-183.875,0.5395508,0.2963867,0.2094727,-0.253418,-0.140625,-0.2270508
348,64.4375,4.125,-182.625,0.659668,0.3662109,0.06738281,-0.2470703,-0.1557617,-0.2255859
352,57.375,30.25,-172.375,0.6948242,0.3779297,0.1020508,-0.2412109,-0.1743164,-0.2255859
356,67.3125,32.9375,-180.1875,0.4077148,0.4750977,0.159668,-0.2319336,-0.1918945,-0.2246094
360,63.8125,28,-186.875,0.3110352,0.6845703,0.2905273,-0.2270508,-0.203125,-0.2246094
364,59.9375,2.5,-207.75,0.2104492,0.7587891,0.2329102,-0.2172852,-0.2231445,-0.2231445
368,56.875,-1.375,-210.25,0.3496094,0.6923828,0.3212891,-0.2055664,-0.2407227,-0.2202148
372,75.5625,-10.3125,-212.375,0.3227539,0.7080078,0.2290039,-0.1982422,-0.2504883,-0.21875
376,85.6875,-0.0625,-194.3125,0.4389648,0.809082,0.2133789,-0.1875,-0.2719727,-0.2119141
381,89.9375,12.5625,-182.25,0.4580078,1.015137,0.08251953,-0.1757813,-0.2895508,-0.2080078
385,55.25,37.4375,-175.625,0.3417969,1.205566,0.09814453,-0.1665039,-0.2993164,-0.2011719
389,8.6875,39.6875,-188.6875,0.2451172,1.209473,0.09033203,-0.1484375,-0.3154297,-0.2011719
393,-41.875,51.8125,-198.9375,0.2451172,1.06543,0.1210938,-0.1293945,-0.3242188,-0.2041016
397,-59.3125,58.625,-207.5625,-0.09521484,0.6538086,0.3710938,-0.1137695,-0.3291016,-0.2094727
401,31.9375,2.4375,-214.5,-0.5488281,0.6538086,0.5712891,-0.09472656,-0.3354492,-0.2133789
405,133.5,-56.875,-194.5,-0.3666992,0.9492188,0.4868164,-0.07226563,-0.3491211,-0.2055664
409,179.125,-75,-165.8125,0.159668,1.333496,0.140625,-0.06152344,-0.3544922,-0.1928711
413,158.1875,-39.6875,-147.25,0.4619141,1.714355,-0.07080078,-0.04492188,-0.3666992,-0.1767578
417,65.625,14.25,-150.8125,0.2685547,2.242676,-0.05908203,-0.03173828,-0.3706055,-0.1645508
421,-75.125,18.1875,-184.75,-0.1303711,2.149414,-0.05908203,-0.0234375,-0.3691406,-0.1616211
425,-133.25,-8.75,-173.625,-0.2192383,1.469727,0.1210938,-0.004394531,-0.3632813,-0.1728516
429,-73.5,-20.4375,-150.375,0.0009765625,1.108398,0.2749023,0.008300781,-0.3569336,-0.1850586
433,-1.5,-5.0625,-116.9375,0.140625,1.120117,0.1479492,0.01416016,-0.3530273,-0.1904297
437,25.6875,15.1875,-85.125,0.140625,1.217285,0.01708984,0.02148438,-0.3530273,-0.1904297
441,31.3125,26,-71.625,0.02441406,1.271484,0.04443359,0.02832031,-0.3530273,-0.1850586
445,15.9375,23.875,-86.375,-0.1767578,1.395996,0.09423828,0.03320313,-0.3530273,-0.1865234
449,-0.1875,-1.8125,-92.9375,-0.2041016,1.458008,0.09423828,0.04150391,-0.3520508,-0.1835938
453,4.75,-16.625,-67.625,0.1674805,1.865723,0.2827148,0.04492188,-0.3520508,-0.1865234
457,-5.8125,2.75,-18.4375,0.4233398,2.141602,0.2983398,0.04882813,-0.3505859,-0.1865234
461,-32.625,27.375,16.375,0.3999023,2.041016,0.2368164,0.04882813,-0.3491211,-0.1865234
465,-60.5625,37,23.5625,0.1054688,1.516113,0.1943359,0.05078125,-0.3481445,-0.1889648
469,-54.5,22.4375,25.375,-0.1030273,1.007324,0.2290039,0.04980469,-0.3442383,-0.1918945
473,-25.875,12.625,29.75,-0.1264648,0.7353516,0.2250977,0.04882813,-0.3432617,-0.1943359
477,-2.6875,9.125,30.625,-0.1689453,0.7080078,0.1557617,0.04882813,-0.3442383,-0.1958008
481,5.9375,4.625,25.6875,-0.1845703,0.8442383,0.1132813,0.04638672,-0.3442383,-0.1958008
485,-6.6875,4.1875,19.8125,-0.2001953,0.9453125,0.1635742,0.04492188,-0.3442383,-0.1958008
489,-12.3125,0.8125,14.9375,-0.2387695,0.9604492,0.2172852,0.04492188,-0.3432617,-0.1943359
493,-4.9375,-11.125,8.0625,-0.2387695,1.069336,0.2480469,0.04394531,-0.3442383,-0.1972656
497,5,-16.5625,22.5625,-0.1147461,1.228516,0.2172852,0.04150391,-0.3457031,-0.1972656
501,4.375,-7.125,38.5625,-0.006347656,1.422852,0.1865234,0.03808594,-0.3442383,-0.1943359
505,-9.5625,2.1875,54.625,-0.06054688,1.516113,0.2133789,0.0390625,-0.3457031,-0.1943359
510,-20.8125,-3.75,59.125,-0.09912109,1.586426,0.2749023,0.03320313,-0.3457031,-0.1958008
514,-26.5625,-7.75,78.9375,0.01269531,1.543457,0.2905273,0.02587891,-0.3481445,-0.1972656
518,-27.625,0.3125,97.6875,0.07861328,1.52002,0.2675781,0.0234375,-0.3481445,-0.199707
522,-33.5,5.9375,116.0625,0.05517578,1.489258,0.3291016,0.01416016,-0.3505859,-0.199707
526,-32.75,2.5,131.6875,0.02050781,1.458008,0.3789063,0.006835938,-0.3481445,-0.2026367
530,-34.0625,-1.5,142.75,-0.006347656,1.493164,0.4213867,-0.003417969,-0.3491211,-0.2055664
534,-39.3125,-12.5625,150.375,0.0009765625,1.461914,0.390625,-0.01611328,-0.3481445,-0.2080078
538,-37.9375,-15.3125,165.6875,0.07861328,1.395996,0.4287109,-0.03320313,-0.3481445,-0.2119141
542,-30.0625,-21.875,176.625,0.01269531,1.407715,0.4326172,-0.04248047,-0.3466797,-0.2133789
546,-29.3125,-26.75,192.25,0.1289063,1.446289,0.3789063,-0.06396484,-0.3417969,-0.2177734
550,-28.8125,-24.875,208.3125,0.08251953,1.372559,0.3789063,-0.08300781,-0.3330078,-0.2202148
554,-15.5,-34.5,220.4375,0.07470703,1.244141,0.4057617,-0.09960938,-0.3266602,-0.2216797
558,-9.6875,-39.875,224.0625,0.159668,1.333496,0.3710938,-0.1201172,-0.3154297,-0.2216797
562,-28.125,-32.375,234.0625,0.2646484,1.368652,0.3364258,-0.1411133,-0.3017578,-0.2231445
566,-52.8125,-20.5625,246.8125,0.2607422,1.306641,0.2749023,-0.1542969,-0.2919922,-0.2231445
570,-77.6875,-11.625,254.375,0.1948242,1.09668,0.2558594,-0.1733398,-0.2705078,-0.2270508
574,-83.125,-11.6875,255.3125,0.1518555,0.8867188,0.2675781,-0.1899414,-0.2504883,-0.2324219
578,-78.8125,-16.25,253.375,0.1367188,0.7431641,0.2597656,-0.1972656,-0.2358398,-0.230957
582,-68.375,-18.8125,253.9375,0.2294922,0.6459961,0.2709961,-0.2104492,-0.2119141,-0.2368164
586,-61.8125,-16.4375,255,0.2104492,0.6733398,0.2329102,-0.2211914,-0.1904297,-0.2353516
590,-81.375,-11.4375,245.5,0.2797852,0.7353516,0.1635742,-0.2280273,-0.1743164,-0.237793
594,-104.1875,-5.3125,240.0625,0.2646484,0.6303711,0.1020508,-0.2363281,-0.1508789,-0.237793
598,-102.5,-4.3125,233.4375,0.2993164,0.4165039,0.2211914,-0.2446289,-0.1245117,-0.2436523
602,-77.875,-16,236.9375,0.1713867,0.3120117,0.3173828,-0.2470703,-0.109375,-0.2436523
606,-41.375,-43.1875,236.9375,0.2412109,0.3583984,0.3945313,-0.2543945,-0.08300781,-0.2446289
610,-31.4375,-51.75,236.375,0.4272461,0.5488281,0.3330078,-0.2578125,-0.06445313,-0.2392578
614,-46.3125,-51.125,240.875,0.4736328,0.5761719,0.1982422,-0.2617188,-0.04931641,-0.2368164
618,-76.1875,-36.3125,241.75,0.5317383,0.4907227,0.05957031,-0.2636719,-0.02441406,-0.230957
622,-117.5625,-13.875,242.8125,0.4697266,0.2612305,-0.1323242,-0.2626953,0,-0.2299805
626,-154.5,9,245.625,0.2875977,-0.2353516,-0.2514648,-0.2602539,0.02148438,-0.2270508
630,-168.875,27.125,228,0.08642578,-0.6396484,-0.4282227,-0.253418,0.05126953,-0.2255859
634,-146.875,42.625,195.3125,-0.02197266,-1.812988,-0.4477539,-0.2446289,0.08105469,-0.2216797
639,-81.75,38.5625,129.3125,-0.1572266,-2.314453,-0.4936523,-0.237793,0.09228516,-0.2177734
643,-8.875,17.125,48.8125,-0.1186523,-2.232422,-0.4248047,-0.2329102,0.1049805,-0.2216797
647,56.125,-0.5,-17.125,0.08251953,-1.580078,-0.1015625,-0.2304688,0.1064453,-0.2216797
651,79.9375,-11.25,-58.9375,0.3071289,-0.8496094,0.1518555,-0.2304688,0.1010742,-0.2231445
655,67.25,-10.8125,-86.5625,0.5820313,-0.2548828,0.3789063,-0.2353516,0.09130859,-0.2285156
659,36.6875,-6.75,-87.8125,0.6948242,0.09423828,0.4980469,-0.2387695,0.08105469,-0.2285156
663,13.25,-5.4375,-80.8125,0.8032227,0.1601563,0.5097656,-0.2402344,0.07617188,-0.2285156
667,-0.0625,-1.75,-69.9375,0.9233398,0.03222656,0.4482422,-0.2446289,0.06884766,-0.2255859
671,5.875,-0.1875,-59.5625,0.9541016,-0.1230469,0.4213867,-0.2470703,0.06396484,-0.2270508
675,22.75,-2.375,-50.875,0.9350586,-0.1850586,0.4057617,-0.2485352,0.05761719,-0.2285156
679,38.125,-7.6875,-45.75,0.9389648,-0.1850586,0.3979492,-0.2495117,0.05273438,-0.2270508
683,45.9375,-11.4375,-42.5625,0.9311523,-0.1772461,0.3710938,-0.2495117,0.04882813,-0.2285156
687,44.25,-9.375,-41.25,0.9423828,-0.1499023,0.3520508,-0.2519531,0.04492188,-0.2285156
691,32.8125,-1.125,-41.9375,0.9272461,-0.1538086,0.3017578,-0.2543945,0.03613281,-0.2285156
695,14.5625,10.625,-49.5625,0.8842773,-0.2124023,0.2558594,-0.2543945,0.03125,-0.2285156
699,-2,21.125,-64.3125,0.8183594,-0.2978516,0.2329102,-0.2543945,0.02880859,-0.230957
703,-9.25,25.875,-79.5625,0.7138672,-0.387207,0.2368164,-0.2553711,0.02246094,-0.230957
707,2.8125,23.4375,-93.25,0.609375,-0.4375,0.3134766,-0.2553711,0.01611328,-0.2353516
711,23.6875,14.3125,-100.75,0.5512695,-0.4492188,0.3095703,-0.2543945,0.01123047,-0.2368164
715,52.75,3.125,-109,0.5239258,-0.4414063,0.3212891,-0.2568359,0.002441406,-0.2392578
719,77.625,-5.3125,-115.5625,0.574707,-0.3286133,0.2290039,-0.2568359,-0.01171875,-0.237793
723,83,-2.5,-130.125,0.6054688,-0.07617188,0.2133789,-0.2568359,-0.02197266,-0.237793
727,57.3125,1.0625,-147.625,0.6328125,0.1523438,0.144043,-0.2553711,-0.03808594,-0.237793
731,36.375,5.5,-158.75,0.609375,0.07861328,0.2519531,-0.2578125,-0.05566406,-0.2392578
735,44.75,4.0625,-158.5,0.5551758,0.0009765625,0.2788086,-0.2568359,-0.06445313,-0.237793
739,65.5625,2,-153,0.609375,-0.02197266,0.2636719,-0.2553711,-0.08056641,-0.2392578
743,83.375,7.625,-150.1875,0.625,0.04736328,0.1787109,-0.253418,-0.09814453,-0.237793
747,79.0625,18.3125,-156.875,0.6328125,0.2612305,0.1020508,-0.2509766,-0.1108398,-0.237793
751,44.4375,27.875,-191.5625,0.5048828,0.6264648,0.140625,-0.2470703,-0.1269531,-0.237793
755,-1.5,17.625,-211.375,0.3691406,0.5332031,0.3017578,-0.2412109,-0.1469727,-0.2407227
759,22.0625,-1.0625,-213.125,0.3808594,0.3583984,0.4980469,-0.2353516,-0.1542969,-0.2421875
763,59.375,-7.375,-195.125,0.5087891,0.4672852,0.390625,-0.2294922,-0.1733398,-0.2392578
768,71.875,5.875,-171.75,0.6831055,0.6147461,0.2094727,-0.2236328,-0.1933594,-0.2353516
772,60.75,37.6875,-151.375,0.7099609,0.7548828,0.09814453,-0.2172852,-0.203125,-0.2338867
776,13.6875,61.75,-171.0625,0.4775391,1.053711,0.140625,-0.2080078,-0.2182617,-0.2338867
780,-48.3125,48.6875,-199.0625,0.1674805,0.9643555,0.2827148,-0.1962891,-0.2294922,-0.2392578
784,-17.625,13.3125,-208.625,0.1015625,0.4672852,0.6328125,-0.1875,-0.2358398,-0.2436523
788,68.8125,-14.75,-195.75,0.2294922,0.5488281,0.5556641,-0.1748047,-0.2480469,-0.2436523
792,114.9375,-13,-167.5,0.4814453,0.890625,0.3364258,-0.1665039,-0.265625,-0.237793
796,106.0625,10.9375,-141.8125,0.59375,1.217285,0.1904297,-0.1591797,-0.2768555,-0.2324219
800,64.4375,33.5,-133.125,0.4814453,1.477539,0.1713867,-0.1474609,-0.2929688,-0.2255859
804,-8.75,47.3125,-137.9375,0.2685547,1.504395,0.2250977,-0.1352539,-0.3056641,-0.2246094
808,-29,17.3125,-154.0625,0.02441406,0.987793,0.425293,-0.1259766,-0.3095703,-0.2255859
812,22.4375,-4.6875,-150.5,0.1791992,0.793457,0.5214844,-0.1113281,-0.3168945,-0.2285156
816,77.0625,-19.0625,-137.8125,0.1948242,0.9335938,0.409668,-0.09960938,-0.328125,-0.2246094
820,99.4375,-19.75,-115.625,0.3769531,1.17041,0.2788086,-0.09228516,-0.3344727,-0.2177734
824,83.1875,1.5,-94.5,0.4697266,1.291016,0.1479492,-0.08056641,-0.3442383,-0.2094727
828,30.8125,22.625,-94.625,0.2412109,1.446289,0.1289063,-0.06982422,-0.3520508,-0.2026367
832,-35.1875,21.8125,-116.4375,0.09033203,1.349121,0.2211914,-0.06054688,-0.3530273,-0.2041016
836,-36.1875,2.5,-125.5625,-0.04492188,0.921875,0.3945313,-0.04980469,-0.3520508,-0.2041016
840,18.875,-20.6875,-123,-0.05664063,0.840332,0.4443359,-0.03515625,-0.3530273,-0.206543
844,72.9375,-31.625,-99.5,0.07470703,1.053711,0.3251953,-0.02832031,-0.3530273,-0.2055664
848,80.6875,-22.75,-78.375,0.2529297,1.36084,0.1328125,-0.02001953,-0.3554688,-0.1958008
852,51.125,3.9375,-55.25,0.3378906,1.399902,0.06347656,-0.01513672,-0.3579102,-0.1904297
856,18.75,29,-43.5,0.1445313,1.306641,0.125,-0.01025391,-0.3569336,-0.1865234
860,-7.375,12.5625,-68.0625,-0.2041016,1.189941,0.1943359,-0.005859375,-0.3569336,-0.1865234
864,-4.875,-15.5,-81.5625,-0.1225586,1.026855,0.2597656,0.0009765625,-0.3544922,-0.1875
868,25.5,-21.6875,-70.8125,-0.006347656,1.01123,0.2788086,0.004394531,-0.3554688,-0.1875
872,45.25,-18.625,-56.0625,0.02832031,1.193848,0.1826172,0.008300781,-0.3554688,-0.1865234
876,33.5,-11.1875,-43.9375,0.1054688,1.279297,0.105957,0.01171875,-0.3554688,-0.1821289
880,10.9375,1,-36.25,0.04736328,1.255859,0.1210938,0.01416016,-0.3554688,-0.1796875
884,-6.6875,0.875,-41.3125,-0.06054688,1.143066,0.1557617,0.01416016,-0.3569336,-0.1821289
888,-8.4375,-11.3125,-54.0625,-0.1147461,1.030762,0.1748047,0.02001953,-0.3544922,-0.1806641
892,8.75,-20.5625,-50.0625,-0.06445313,1.015137,0.1943359,0.02148438,-0.3544922,-0.1835938
897,28.1875,-20.875,-42.875,-0.002441406,1.092773,0.144043,0.02490234,-0.3544922,-0.1821289
901,27.3125,-13.0625,-31.4375,0.03955078,1.232422,0.1020508,0.02734375,-0.3554688,-0.1796875
905,9.4375,-3.5625,-22.4375,0.004882813,1.287109,0.1328125,0.02490234,-0.3569336,-0.1782227
909,-6.625,-3.8125,-21.875,-0.05273438,1.240234,0.144043,0.02832031,-0.3554688,-0.1796875
913,-10.25,-6.125,-17.8125,-0.04101563,1.189941,0.1748047,0.02978516,-0.3554688,-0.1806641
917,-0.625,-9.6875,-8.25,-0.02587891,1.150879,0.1479492,0.02978516,-0.3544922,-0.1782227
921,9.25,-7.3125,4.4375,0.04345703,1.197754,0.1289063,0.02978516,-0.3544922,-0.1782227
925,7.6875,-0.25,15.375,0.03955078,1.287109,0.1367188,0.02978516,-0.3554688,-0.1796875
929,2.875,1.3125,24.75,-0.03320313,1.279297,0.1865234,0.02832031,-0.3544922,-0.1767578
933,9.5625,-5.375,31.75,-0.06835938,1.279297,0.2172852,0.02832031,-0.3569336,-0.1796875
937,17.5,-12.4375,39.5625,-0.05273438,1.380371,0.2060547,0.0234375,-0.3569336,-0.1767578
941,16.75,-16.875,52.4375,0.03955078,1.481445,0.1674805,0.02001953,-0.359375,-0.175293
945,9.9375,-10.1875,69.9375,0.1289063,1.605469,0.1289063,0.01513672,-0.3603516,-0.1738281
949,-4.5,2.25,94.3125,0.159668,1.566895,0.1098633,0.008300781,-0.3618164,-0.1738281
953,-8.9375,7.125,108.9375,0.07861328,1.458008,0.1328125,0.004394531,-0.3618164,-0.1728516
957,-13.3125,4.5,114.1875,0.04345703,1.473633,0.1557617,-0.004394531,-0.3642578,-0.1738281
961,-17.875,0.3125,123.25,0.109375,1.438477,0.159668,-0.01513672,-0.3657227,-0.1738281
965,-20.1875,6.3125,138.75,0.1713867,1.473633,0.144043,-0.02246094,-0.3642578,-0.1767578
969,-30.5,14.8125,155,0.159668,1.461914,0.1289063,-0.03515625,-0.3642578,-0.1782227
973,-38.8125,14.25,165.25,0.06298828,1.310547,0.1674805,-0.05224609,-0.3632813,-0.1806641
977,-27.5625,4.4375,168.1875,0.07470703,1.189941,0.2519531,-0.06298828,-0.359375,-0.1821289
981,-15.875,-1.0625,175.25,0.1518555,1.314453,0.2675781,-0.08056641,-0.3554688,-0.1850586
985,-28.5,0,181.1875,0.2255859,1.489258,0.2172852,-0.09960938,-0.3491211,-0.1889648
989,-47.625,5.4375,194.1875,0.2758789,1.395996,0.1904297,-0.1113281,-0.3432617,-0.1918945
993,-47.8125,11.6875,210.125,0.2875977,1.225098,0.2172852,-0.1303711,-0.3305664,-0.1943359
997,-39.625,12,224.3125,0.2529297,1.100586,0.2368164,-0.1508789,-0.3154297,-0.199707
1001,-32.1875,5.5625,224.8125,0.2412109,1.015137,0.2636719,-0.1616211,-0.3056641,-0.2011719
1005,-28.625,-1,222.375,0.2875977,0.9799805,0.2827148,-0.1791992,-0.2880859,-0.206543
1009,-33.0625,-4.9375,220.75,0.3378906,1.057617,0.2558594,-0.1923828,-0.2705078,-0.206543
1013,-57.75,5.5,225.9375,0.4506836,1.116211,0.1865234,-0.2045898,-0.2583008,-0.206543
1017,-84,15.875,227.0625,0.3769531,0.9956055,0.1826172,-0.2128906,-0.2382813,-0.2133789
1021,-91.0625,16.25,234.625,0.3188477,0.7314453,0.2060547,-0.2236328,-0.2167969,-0.21875
1026,-71.875,6.1875,236.4375,0.2724609,0.5058594,0.2480469,-0.2304688,-0.2006836,-0.2216797
1030,-57.875,-1.8125,232.25,0.3305664,0.5019531,0.2211914,-0.2402344,-0.1782227,-0.2255859
1034,-58.875,-5.125,219,0.4038086,0.5058594,0.1982422,-0.2470703,-0.1567383,-0.2270508
1038,-67.25,-3.0625,212.625,0.4311523,0.5253906,0.1826172,-0.2509766,-0.1430664,-0.2270508
1042,-70,3.9375,211.125,0.5009766,0.5253906,0.2211914,-0.2553711,-0.1196289,-0.2285156
1046,-78.5,3.5,214.1875,0.3808594,0.4360352,0.2368164,-0.2578125,-0.09960938,-0.2299805
1050,-62.75,-11.625,216.0625,0.3417969,0.2070313,0.3364258,-0.2626953,-0.08300781,-0.230957
1054,-44.625,-23.1875,211.9375,0.4428711,0.1176758,0.2709961,-0.2661133,-0.06445313,-0.2299805
1058,-43.625,-26.375,198.5,0.4892578,0.1601563,0.2021484,-0.2651367,-0.04199219,-0.2255859
1062,-58.4375,-20.625,179.9375,0.59375,0.1640625,0.1367188,-0.2675781,-0.02832031,-0.2270508
1066,-65.75,-15.6875,171.875,0.5395508,0.1333008,0.1982422,-0.2661133,-0.009277344,-0.2246094
1070,-59.8125,-20.3125,173.4375,0.543457,0.08642578,0.2675781,-0.2651367,0.007324219,-0.2231445
1074,-47.375,-23.875,190.3125,0.5668945,-0.02978516,0.2133789,-0.2661133,0.02001953,-0.2216797
1078,-47.1875,-11.5,200.25,0.6328125,-0.1850586,0.04052734,-0.2626953,0.04003906,-0.2202148
1082,-66.0625,17.1875,191.1875,0.5551758,-0.46875,-0.1245117,-0.2568359,0.06005859,-0.2148438
1086,-95.375,46.375,161.75,0.4038086,-0.9155273,-0.2436523,-0.2519531,0.07275391,-0.2163086
1090,-100.75,63.25,117.1875,0.2216797,-1.389648,-0.2514648,-0.2436523,0.08886719,-0.2163086
1094,-60.125,56.75,74.5,0.01269531,-1.777832,-0.1899414,-0.2363281,0.1025391,-0.2177734
1098,-0.1875,35.1875,16.875,0.02832031,-1.704102,-0.07861328,-0.2319336,0.1088867,-0.2148438
1102,43.5,12.75,-33.3125,0.1210938,-1.22998,0.140625,-0.2294922,0.1049805,-0.2216797
1106,60.3125,-6.75,-69.1875,0.2797852,-0.7753906,0.2558594,-0.2304688,0.1010742,-0.2216797
1110,64.125,-21.5,-88.5625,0.4736328,-0.4570313,0.3945313,-0.2329102,0.09228516,-0.2255859
1114,64.25,-33.5,-94.4375,0.559082,-0.2783203,0.4057617,-0.2387695,0.08251953,-0.2270508
1118,60.875,-43.5625,-102.6875,0.7602539,-0.1152344,0.2944336,-0.2436523,0.06982422,-0.2246094
1122,41.4375,-32.875,-101.875,0.9658203,0.02441406,0.2021484,-0.2509766,0.0625,-0.2246094
1126,18.3125,-13.6875,-98.6875,1.031738,0.05126953,0.2329102,-0.2543945,0.05126953,-0.2231445
1130,12.4375,-4,-88,0.9736328,-0.06835938,0.3017578,-0.2568359,0.04248047,-0.2246094
1134,29.8125,-7.125,-77.1875,0.9272461,-0.1889648,0.3789063,-0.2578125,0.03759766,-0.2231445
1138,45.3125,-13.125,-76.9375,0.9697266,-0.01806641,0.3637695,-0.2626953,0.03027344,-0.2231445
1142,35.1875,-15,-77.8125,1.004395,0.171875,0.340332,-0.2636719,0.02001953,-0.2231445
1146,12.875,-9.125,-74,1.078125,0.2265625,0.2827148,-0.2651367,0.01513672,-0.2231445
1150,-0.3125,2.5,-61.375,1.0625,0.1293945,0.2944336,-0.2661133,0.01025391,-0.2231445
1155,-1.125,11,-52.875,1.023926,-0.01806641,0.2944336,-0.2675781,0.00390625,-0.2216797
1159,6.5625,12.9375,-46.5,0.9350586,-0.09960938,0.3095703,-0.2661133,0.001464844,-0.2216797
1163,16.5625,9.75,-45.75,0.8842773,-0.1499023,0.2749023,-0.2661133,-0.003417969,-0.2246094
1167,22,10.25,-51.4375,0.8574219,-0.1889648,0.2519531,-0.2661133,-0.008300781,-0.2255859
1171,24.8125,10.5,-62.1875,0.7836914,-0.2275391,0.1787109,-0.2661133,-0.01318359,-0.2246094
1175,28.5625,10.5625,-75.9375,0.7529297,-0.2666016,0.2250977,-0.2651367,-0.01806641,-0.2246094
1179,36.9375,8.3125,-85.375,0.6948242,-0.2470703,0.2021484,-0.2661133,-0.02929688,-0.2299805
1183,40,8.4375,-97,0.7216797,-0.1967773,0.1943359,-0.2661133,-0.03710938,-0.2285156
1187,37.4375,11.5625,-109.875,0.6982422,-0.1308594,0.1557617,-0.2661133,-0.04589844,-0.2299805
1191,30.5,18.4375,-123.75,0.6948242,-0.09570313,0.1132813,-0.2626953,-0.05810547,-0.2299805
1195,39.0625,18.625,-136.375,0.559082,-0.1694336,0.2558594,-0.2626953,-0.06689453,-0.230957
1199,67.5625,2.25,-146.1875,0.4619141,-0.08398438,0.3017578,-0.2626953,-0.08203125,-0.230957
1203,87.5,-15.4375,-154.625,0.5395508,0.1757813,0.2749023,-0.2592773,-0.09814453,-0.2299805
1207,84.3125,-16.75,-153.375,0.6674805,0.4946289,0.1826172,-0.2602539,-0.1118164,-0.2285156
1211,55.8125,-0.875,-150.9375,0.7875977,0.5913086,0.07519531,-0.2568359,-0.1293945,-0.2285156
1215,17.5625,32.5625,-139.8125,0.8535156,0.4477539,-0.001464844,-0.253418,-0.1430664,-0.2255859
1219,10.75,54.1875,-143.625,0.59375,0.2573242,0.1557617,-0.2495117,-0.1508789,-0.2299805
1223,30.25,36.8125,-162.75,0.2529297,0.2768555,0.3710938,-0.2412109,-0.1630859,-0.230957
1227,64.375,-7.875,-174.4375,0.2104492,0.269043,0.3867188,-0.2329102,-0.1782227,-0.2324219
1231,106.5,-26.5625,-169.75,0.4619141,0.3818359,0.3017578,-0.2270508,-0.1904297,-0.2285156
1235,111.4375,-14.375,-157.4375,0.644043,0.7080078,0.105957,-0.2236328,-0.2104492,-0.2202148
1239,73.25,24.4375,-134.5,0.8110352,0.8710938,-0.02050781,-0.215332,-0.2255859,-0.2148438
1243,34.9375,69.875,-126.5,0.6479492,0.7509766,0.07519531,-0.2114258,-0.2368164,-0.2163086
1247,20.5625,67.4375,-155.8125,0.09375,0.8364258,0.3330078,-0.1982422,-0.2480469,-0.2163086
1251,-0.9375,-0.4375,-213.75,-0.1069336,0.9995117,0.340332,-0.1875,-0.2592773,-0.2216797
1255,10.0625,-30.875,-213.375,0.3769531,0.8325195,0.3598633,-0.1772461,-0.2680664,-0.2202148
1259,25.1875,0.9375,-180.5,0.6982422,1.003418,0.2250977,-0.1674805,-0.2832031,-0.21875
1263,-1.1875,51,-148.6875,0.6791992,1.084961,0.105957,-0.1557617,-0.2954102,-0.21875
1267,-23.0625,81.1875,-131.1875,0.3730469,0.793457,0.1865234,-0.1459961,-0.3007813,-0.2202148
1271,24.625,55,-136.5,-0.1767578,0.5913086,0.5019531,-0.1328125,-0.3066406,-0.2246094
1275,84.625,-11.3125,-170.6875,-0.2348633,1.034668,0.4941406,-0.1162109,-0.3178711,-0.21875
1279,91.875,-40.9375,-169.75,0.1791992,1.267578,0.3520508,-0.109375,-0.3291016,-0.2148438
1284,71.3125,-23.5625,-151.625,0.3769531,1.310547,0.2480469,-0.09375,-0.3432617,-0.2041016
1288,31.6875,7.0625,-145.875,0.4658203,1.422852,0.1635742,-0.08056641,-0.3491211,-0.1987305
1292,-22.75,40.4375,-127.625,0.3188477,1.228516,0.1328125,-0.06982422,-0.3520508,-0.1972656
1296,-22.3125,40.9375,-132.25,-0.1147461,0.7548828,0.3867188,-0.05419922,-0.3530273,-0.1987305
1300,36.6875,-9.4375,-166.4375,-0.4013672,0.972168,0.4443359,-0.03662109,-0.3544922,-0.1987305
1304,63.4375,-45.875,-164.5,-0.1069336,1.279297,0.3134766,-0.02587891,-0.3554688,-0.1943359
1308,50.6875,-34.75,-145.8125,0.2294922,1.52002,0.1865234,-0.01416016,-0.3579102,-0.1865234
1312,8.4375,4.5625,-113,0.3305664,1.597656,0.105957,-0.003417969,-0.359375,-0.1850586
1316,-39.9375,41.6875,-92.4375,0.190918,1.337402,0.08642578,0.003417969,-0.3569336,-0.1865234
1320,-43.9375,50.6875,-94.375,-0.07226563,1.003418,0.2094727,0.01269531,-0.3530273,-0.1904297
1324,-21.625,30,-111.875,-0.3588867,0.9643555,0.3520508,0.02246094,-0.3481445,-0.1918945
1328,23.25,-19.5,-124.3125,-0.3974609,1.146973,0.3598633,0.03320313,-0.3466797,-0.1943359
1332,50.375,-36,-100.25,-0.1030273,1.418945,0.3291016,0.0390625,-0.3466797,-0.1928711
1336,39.5,-24.8125,-73.125,0.07470703,1.597656,0.1713867,0.04394531,-0.3457031,-0.1918945
1340,0.5625,1.75,-48.8125,0.159668,1.605469,0.1289063,0.04736328,-0.3481445,-0.1889648
1344,-37,22.4375,-36.4375,0.06298828,1.380371,0.144043,0.05078125,-0.3457031,-0.1904297
1348,-52.125,28,-35.4375,-0.01416016,1.12793,0.1865234,0.0546875,-0.3432617,-0.1928711
1352,-47.0625,30.9375,-33.4375,-0.08398438,0.9179688,0.2094727,0.05566406,-0.3393555,-0.1972656
1356,-29.3125,29.875,-31.125,-0.1767578,0.8481445,0.2788086,0.06054688,-0.3378906,-0.2011719
1360,-11.9375,21.0625,-27.6875,-0.2583008,0.8481445,0.3212891,0.06396484,-0.3354492,-0.2026367
1364,-1.25,10.5625,-27.6875,-0.2387695,0.8789063,0.3173828,0.06542969,-0.3330078,-0.2026367
1368,4.1875,4.375,-29.25,-0.2426758,0.8984375,0.2866211,0.06787109,-0.3330078,-0.2026367
1372,14.4375,-4.0625,-31.8125,-0.2348633,0.9799805,0.2675781,0.06884766,-0.3330078,-0.2011719
1376,16.8125,-5.125,-26.5625,-0.1689453,1.069336,0.2060547,0.07226563,-0.3344727,-0.2041016
1380,15.1875,-1.6875,-18.4375,-0.1420898,1.166504,0.1982422,0.07373047,-0.3344727,-0.2011719
1384,10.0625,2.0625,-7.9375,-0.1264648,1.291016,0.2402344,0.07470703,-0.3344727,-0.1987305
1388,4,2.3125,3.5625,-0.1533203,1.32959,0.2827148,0.07470703,-0.3330078,-0.199707
1392,-3.125,-0.8125,10.0625,-0.2119141,1.221191,0.3095703,0.07470703,-0.3344727,-0.199707
1396,2,-9.375,15.5,-0.215332,1.12793,0.2944336,0.07373047,-0.3344727,-0.199707
1400,2.8125,-11.5,20.375,-0.1767578,1.310547,0.2866211,0.07128906,-0.3354492,-0.2011719
1404,-16.75,-13.0625,25.875,-0.1650391,1.415039,0.2675781,0.06982422,-0.3354492,-0.2011719
1408,-21.3125,-18.875,43.5,-0.1689453,1.384277,0.3291016,0.06787109,-0.3354492,-0.2011719
1413,-7.375,-21.6875,67.875,-0.08007813,1.368652,0.3291016,0.06542969,-0.3354492,-0.2026367
1417,-3.9375,-18.625,81.875,-0.09130859,1.481445,0.3056641,0.05810547,-0.3378906,-0.2026367
1421,-15.4375,-18.6875,95.5,-0.04101563,1.473633,0.2788086,0.04980469,-0.3408203,-0.2026367
1425,-20.875,-14.1875,110,-0.04101563,1.364746,0.3095703,0.04492188,-0.3393555,-0.2041016
1429,-21.125,-12,119.125,-0.04492188,1.317871,0.3017578,0.03564453,-0.3432617,-0.2041016
1433,-24.625,-12.625,123.8125,-0.07617188,1.310547,0.340332,0.02490234,-0.3432617,-0.206543
1437,-23.875,-17.5625,135.4375,-0.07617188,1.302734,0.3520508,0.02001953,-0.3442383,-0.2055664
1441,-25,-20.875,137.3125,-0.06054688,1.418945,0.3637695,0.006835938,-0.3442383,-0.2094727
1445,-32.375,-23.3125,152.1875,-0.002441406,1.446289,0.3330078,-0.006835938,-0.3466797,-0.2109375
1449,-33.0625,-17.4375,172,0.08642578,1.333496,0.3251953,-0.01757813,-0.3457031,-0.2133789
1453,-34.625,-13.25,178.3125,0.02832031,1.275391,0.3442383,-0.03759766,-0.3442383,-0.2177734
1457,-34.625,-23.6875,177.3125,-0.01416016,1.267578,0.355957,-0.05419922,-0.3393555,-0.2202148
1461,-37.6875,-25.5,185.75,0.109375,1.287109,0.3598633,-0.06738281,-0.3369141,-0.2246094
1465,-39.5,-25.625,192,0.08642578,1.275391,0.3828125,-0.08789063,-0.328125,-0.2270508
1469,-37.5,-31.5625,202.1875,0.1445313,1.205566,0.3671875,-0.1069336,-0.3154297,-0.2324219
1473,-37.75,-28.875,207.75,0.2138672,1.236328,0.340332,-0.1176758,-0.3032227,-0.2324219
1477,-50.5,-23.375,216.25,0.2255859,1.17041,0.3017578,-0.1391602,-0.2929688,-0.2353516
1481,-47.375,-22.4375,222.75,0.1870117,1.019043,0.3598633,-0.1533203,-0.2753906,-0.237793
1485,-36.1875,-29.25,226,0.1557617,0.9995117,0.3481445,-0.1640625,-0.2641602,-0.237793
1489,-36.6875,-32.9375,232.9375,0.2875977,0.9799805,0.2636719,-0.1782227,-0.2480469,-0.2392578
1493,-43.625,-21.375,239.5625,0.3266602,0.855957,0.2675781,-0.1938477,-0.2319336,-0.2392578
1497,-42.125,-19.375,241.8125,0.2646484,0.8012695,0.2558594,-0.2006836,-0.2192383,-0.2368164
1501,-48.625,-17.1875,245.25,0.3149414,0.7626953,0.2368164,-0.2114258,-0.1982422,-0.2392578
1505,-63.375,-5.8125,244.125,0.3417969,0.7001953,0.2368164,-0.2211914,-0.1782227,-0.2421875
1509,-80,-3.1875,238.625,0.2646484,0.6069336,0.2597656,-0.2294922,-0.1645508,-0.2436523
1513,-83.5,-8.5,234.75,0.2294922,0.3740234,0.2944336,-0.2353516,-0.140625,-0.2446289
1517,-66.9375,-18.875,227.5,0.2685547,0.203125,0.3212891,-0.2426758,-0.1157227,-0.2475586
1521,-41.375,-25.9375,222.875,0.3378906,0.253418,0.3251953,-0.2460938,-0.1020508,-0.2446289
1525,-40.9375,-28.6875,215.5625,0.4038086,0.3779297,0.2558594,-0.2495117,-0.08203125,-0.2446289
1529,-60.4375,-26.5,205.375,0.4467773,0.4282227,0.2094727,-0.2543945,-0.06298828,-0.2436523
1533,-76.3125,-21.1875,199,0.4775391,0.2768555,0.2519531,-0.2568359,-0.04833984,-0.2407227
1537,-71.9375,-20.3125,200.375,0.4350586,0.1914063,0.2944336,-0.2578125,-0.02832031,-0.2392578
1542,-78.3125,-21.125,199.75,0.4580078,0.1137695,0.2021484,-0.2578125,-0.004394531,-0.237793
1546,-80.5,-18.125,196.8125,0.4619141,-0.07617188,0.2021484,-0.2553711,0.008789063,-0.2338867
1550,-84.6875,-16.1875,182.3125,0.4311523,-0.1577148,0.08642578,-0.253418,0.03027344,-0.230957
1554,-101.75,-12.5,158.1875,0.4506836,-0.2470703,0.01367188,-0.2495117,0.05126953,-0.2285156
1558,-128.125,-6.375,131.0625,0.3535156,-0.5893555,-0.04003906,-0.2470703,0.0625,-0.2255859
1562,-124.75,-10.875,117.8125,0.2138672,-1.319336,-0.1054688,-0.2426758,0.08105469,-0.2216797
1566,-46.4375,-20.4375,93.4375,0.1635742,-1.9375,-0.1591797,-0.2412109,0.09521484,-0.2148438
1570,46.8125,-28.9375,51.25,0.2026367,-1.805176,-0.2128906,-0.2412109,0.09863281,-0.2148438
1574,79.875,-27.25,-0.625,0.3457031,-1.140625,-0.1899414,-0.2402344,0.09765625,-0.2148438
1578,52.9375,-13.5,-46.375,0.543457,-0.550293,-0.09375,-0.2426758,0.09228516,-0.2163086
1582,3.5,10.125,-69.6875,0.7099609,-0.2006836,0.1328125,-0.2436523,0.08886719,-0.2177734
1586,-27.0625,25.1875,-74.375,0.6948242,-0.2861328,0.3598633,-0.2460938,0.08251953,-0.21875
1590,-7.125,12.75,-70,0.6401367,-0.3989258,0.5019531,-0.2460938,0.08007813,-0.2202148
1594,26.9375,-6.9375,-66.0625,0.7529297,-0.3676758,0.5058594,-0.2495117,0.07519531,-0.21875
1598,42.625,-14.4375,-62.4375,0.8842773,-0.2392578,0.3671875,-0.2509766,0.06884766,-0.21875
1602,33.875,-6.5625,-60.875,0.9853516,-0.1577148,0.2402344,-0.2543945,0.06005859,-0.21875
1606,16.6875,8.375,-60.8125,0.9580078,-0.1967773,0.1904297,-0.2553711,0.05615234,-0.2202148
1610,9.625,18.25,-60.5,0.8730469,-0.340332,0.2172852,-0.2543945,0.05126953,-0.2216797
1614,19.375,20.0625,-65.0625,0.7915039,-0.453125,0.2788086,-0.2553711,0.04394531,-0.2231445
1618,40.625,9.75,-70.9375,0.675293,-0.4765625,0.3637695,-0.2553711,0.04003906,-0.2255859
1622,65.4375,-5.5625,-78.8125,0.6791992,-0.4140625,0.3710938,-0.2568359,0.03271484,-0.2270508
1626,70.125,-9.5,-91.5625,0.7719727,-0.1811523,0.2709961,-0.2592773,0.01855469,-0.2270508
1630,42.0625,3.25,-105.5,0.8803711,0.08642578,0.105957,-0.2617188,0.01123047,-0.2285156
1634,-9.125,30.1875,-111.6875,0.8959961,0.08642578,0.08251953,-0.2626953,0.001464844,-0.2285156
1638,-32.125,44.5,-112.8125,0.7451172,-0.1308594,0.2636719,-0.2626953,-0.005859375,-0.230957
1642,-0.8125,31.375,-114.875,0.5898438,-0.3017578,0.4174805,-0.2617188,-0.01171875,-0.2324219
1646,44.1875,9.75,-115.1875,0.6015625,-0.2861328,0.3867188,-0.2602539,-0.02197266,-0.2368164
1650,73.3125,-2.75,-118.75,0.675293,-0.05273438,0.3017578,-0.2592773,-0.03710938,-0.2368164
1654,57.3125,8.9375,-129.1875,0.8652344,0.2807617,0.1479492,-0.2602539,-0.046875,-0.237793
1658,16.375,31,-129.8125,0.8183594,0.3779297,0.2402344,-0.2602539,-0.06201172,-0.237793
1662,-4.1875,31.9375,-129,0.6713867,0.2070313,0.3364258,-0.2568359,-0.07177734,-0.2407227
1666,19.125,15.5,-130.5,0.5898438,0.02832031,0.4560547,-0.2543945,-0.07714844,-0.2421875
1671,58.8125,-5.25,-130.4375,0.609375,-0.02978516,0.3671875,-0.2543945,-0.08935547,-0.2421875
1675,84.3125,-10.6875,-129.9375,0.7490234,0.2299805,0.2250977,-0.2519531,-0.1054688,-0.2421875
1679,64.5625,13,-128.625,0.9697266,0.5371094,0.04443359,-0.2495117,-0.1166992,-0.237793
1683,21.4375,52.625,-117.6875,0.8222656,0.5913086,0.159668,-0.2460938,-0.1293945,-0.2407227
1687,-5.1875,41.5,-138.8125,0.4077148,0.4711914,0.3481445,-0.2387695,-0.1396484,-0.2436523
1691,22.1875,0,-149.4375,0.3959961,0.2226563,0.4980469,-0.2353516,-0.1469727,-0.2436523
1695,83,-25.625,-138,0.578125,0.300293,0.4599609,-0.2319336,-0.1606445,-0.2436523
1699,112.9375,-14.3125,-117.125,0.9038086,0.7001953,0.2021484,-0.2294922,-0.1782227,-0.2368164
1703,78,32.25,-86.4375,1.0625,0.9643555,0.005859375,-0.2255859,-0.1879883,-0.2338867
1707,13.5625,86.6875,-73.75,0.8261719,1.019043,0.02880859,-0.2197266,-0.1992188,-0.2353516
1711,-61.375,86.4375,-130.8125,0.3071289,0.8984375,0.3134766,-0.2104492,-0.203125,-0.2421875
1715,-55.4375,30.75,-158.75,0.1635742,0.4321289,0.4790039,-0.203125,-0.2070313,-0.2475586
1719,27.125,-4,-144.4375,0.4311523,0.3466797,0.6289063,-0.1938477,-0.2158203,-0.25
1723,88.25,-1.1875,-119.9375,0.5629883,0.6577148,0.425293,-0.1899414,-0.2280273,-0.2475586
1727,80.75,11.9375,-106.6875,0.6362305,0.953125,0.1479492,-0.1855469,-0.2382813,-0.2436523
1731,40.5625,40.25,-104.0625,0.6401367,1.01123,0.140625,-0.1772461,-0.2480469,-0.2421875
1735,-9.75,48.875,-141.75,0.3378906,1.135742,0.2636719,-0.1674805,-0.2583008,-0.2436523
1739,-32.125,19.25,-158.0625,0.1015625,0.777832,0.4057617,-0.1601563,-0.2631836,-0.2460938
1743,13.5,-12.3125,-164.1875,0.2568359,0.5913086,0.4560547,-0.1484375,-0.2719727,-0.2460938
1747,56.375,-16.1875,-145.625,0.4311523,0.6577148,0.3212891,-0.1411133,-0.2817383,-0.2446289
1751,65.875,3.25,-130.1875,0.5708008,0.8442383,0.1826172,-0.1342773,-0.2905273,-0.2407227
1755,32.0625,26.75,-132.0625,0.3730469,0.9956055,0.2133789,-0.1220703,-0.3017578,-0.2368164
1759,-6.1875,26.5,-151.4375,0.2724609,0.9375,0.2402344,-0.1079102,-0.3105469,-0.2368164
1763,-27.9375,32.75,-170.25,0.2216797,0.8012695,0.390625,-0.09960938,-0.3129883,-0.237793
1767,-7.8125,24.125,-177.9375,0.05517578,0.6923828,0.4560547,-0.08300781,-0.3168945,-0.2392578
1771,28.375,15.875,-150.75,0.08642578,0.7314453,0.4326172,-0.06396484,-0.3256836,-0.237793
1775,55.4375,26,-121.0625,0.09375,0.6845703,0.3710938,-0.05566406,-0.3266602,-0.2368164
1779,85.1875,25.875,-125.4375,-0.02587891,0.9023438,0.4404297,-0.04003906,-0.3344727,-0.2299805
1783,82.1875,8.5625,-150.4375,-0.2041016,1.341309,0.4404297,-0.02685547,-0.3408203,-0.2231445
1787,38.8125,-9.125,-164,-0.08007813,1.55127,0.340332,-0.01855469,-0.3417969,-0.2163086
1791,-3,-0.3125,-143.875,0.1674805,1.446289,0.3056641,-0.003417969,-0.3417969,-0.2163086
1795,-25.625,30.4375,-109.375,0.1791992,1.255859,0.2709961,0.008300781,-0.3432617,-0.2177734
1800,-22.9375,42,-86.5,-0.01806641,0.9799805,0.3017578,0.01660156,-0.3369141,-0.2177734
1804,13.0625,28.9375,-88.0625,-0.2231445,0.921875,0.4672852,0.02490234,-0.3354492,-0.21875
1808,61.4375,3.5,-90.125,-0.2700195,1.081055,0.4443359,0.03173828,-0.3344727,-0.2148438
1812,74.3125,-5.125,-84.1875,-0.1108398,1.36084,0.3134766,0.03662109,-0.3344727,-0.2119141
1816,48.875,4.625,-74.4375,-0.01806641,1.454102,0.1904297,0.04150391,-0.3354492,-0.2080078
1820,14.5625,20.1875,-64.1875,-0.02978516,1.364746,0.1826172,0.04736328,-0.3378906,-0.2055664
1824,-5.3125,27.125,-54.5625,-0.1147461,1.166504,0.1904297,0.05224609,-0.3354492,-0.2055664
1828,-12.25,26.4375,-59.25,-0.2119141,1.084961,0.2329102,0.05566406,-0.3344727,-0.2055664
1832,-15.4375,15.9375,-68.9375,-0.2583008,0.9838867,0.1943359,0.06298828,-0.3305664,-0.206543
1836,-9.5,14.125,-69.8125,-0.1884766,0.9101563,0.2021484,0.06640625,-0.3291016,-0.2055664
1840,10.375,7.5625,-54.3125,-0.1572266,1.13916,0.2329102,0.07226563,-0.328125,-0.2094727
1844,46.125,12.75,-17.9375,0.02832031,1.726074,0.5249023,0.07373047,-0.3291016,-0.2055664
1848,11,29.4375,6.75,0.05908203,2.075684,0.4443359,0.07373047,-0.3320313,-0.206543
1852,-64.0625,25.3125,11.5625,-0.1962891,1.590332,0.2329102,0.07470703,-0.3305664,-0.2055664
1856,-72.6875,11.875,5.625,-0.2270508,0.9023438,0.3212891,0.07617188,-0.3266602,-0.2109375
1860,-42.5625,8.0625,6.5,-0.2426758,0.5410156,0.3364258,0.07617188,-0.3242188,-0.2133789
1864,-0.8125,0.5,10.6875,-0.347168,0.4907227,0.3251953,0.07617188,-0.3217773,-0.2148438
1868,23,-8.8125,0.875,-0.3862305,0.7041016,0.2905273,0.07617188,-0.3217773,-0.2148438
1872,18.9375,-17.0625,-10.4375,-0.3588867,0.8945313,0.2866211,0.07714844,-0.3242188,-0.2119141
1876,13.25,-22.0625,-15.25,-0.3203125,1.030762,0.3212891,0.07470703,-0.3242188,-0.2119141
1880,13.25,-27,-3,-0.3164063,1.073242,0.3095703,0.07470703,-0.3256836,-0.2119141
1884,19.0625,-30.9375,8.6875,-0.2543945,1.09668,0.3251953,0.07617188,-0.3256836,-0.2109375
1888,32.1875,-33.5,20.5,-0.2270508,1.146973,0.340332,0.07226563,-0.3266602,-0.2094727
1892,44.375,-36.75,32.625,-0.2192383,1.275391,0.3671875,0.06787109,-0.3291016,-0.2080078
1896,43.5,-41.5625,44.3125,-0.1845703,1.430664,0.3212891,0.06542969,-0.3330078,-0.2080078
1900,23.875,-36.8125,57.125,-0.04882813,1.500488,0.2749023,0.06054688,-0.3344727,-0.2026367
1904,-1.0625,-26.5625,69.6875,-0.05273438,1.415039,0.2368164,0.0546875,-0.3393555,-0.2011719
1908,-9.25,-23.8125,80.5,-0.08007813,1.302734,0.2597656,0.04980469,-0.3393555,-0.2026367
1912,-3.1875,-22.6875,92.4375,-0.06445313,1.267578,0.3017578,0.04394531,-0.3432617,-0.2026367
1916,3.4375,-24.625,104.5625,-0.08789063,1.279297,0.3056641,0.03417969,-0.3442383,-0.2041016
1920,4.25,-27.4375,115.125,-0.04101563,1.294922,0.2597656,0.02734375,-0.3457031,-0.2026367
1924,-4.125,-24.5,122.3125,0.004882813,1.271484,0.2480469,0.01757813,-0.3481445,-0.2011719
1929,-14.625,-22.9375,120.8125,-0.01416016,1.232422,0.2480469,0.004394531,-0.3520508,-0.2026367
1933,-15.5625,-27.0625,121.625,-0.06445313,1.209473,0.2905273,-0.004394531,-0.3505859,-0.2041016
1937,-3.75,-30.5625,131.5625,0.0009765625,1.263672,0.3330078,-0.01611328,-0.3505859,-0.206543
1941,-0.3125,-30,144.8125,0.01660156,1.442383,0.2983398,-0.03173828,-0.3520508,-0.2041016
1945,-13.1875,-26.5,162.5,0.1015625,1.493164,0.2558594,-0.04248047,-0.3520508,-0.2055664
1949,-25.8125,-18.3125,177,0.140625,1.411133,0.2788086,-0.06054688,-0.3466797,-0.2080078
1953,-37.625,-14.5625,178.875,0.1210938,1.43457,0.2827148,-0.08056641,-0.3417969,-0.2109375
1957,-51.625,-12.4375,189.25,0.140625,1.32959,0.2788086,-0.09228516,-0.3369141,-0.2148438
1961,-51.4375,-15.6875,194.375,0.125,1.20166,0.3173828,-0.1113281,-0.3232422,-0.2177734
1965,-38.5,-21.625,206.125,0.1328125,1.092773,0.3330078,-0.128418,-0.3105469,-0.2202148
1969,-20.875,-28.125,217.625,0.1987305,1.06543,0.3095703,-0.1411133,-0.3007813,-0.2231445
1973,-19.375,-22.625,227.375,0.3032227,1.13916,0.2788086,-0.1582031,-0.2866211,-0.2231445
1977,-39.375,-13,232.6875,0.3032227,1.112305,0.2094727,-0.1733398,-0.2729492,-0.2231445
1981,-57.9375,-8.5,237.8125,0.2255859,0.9023438,0.2021484,-0.1855469,-0.2607422,-0.2246094
1985,-50.375,-16.875,237.9375,0.1635742,0.6030273,0.2368164,-0.199707,-0.2416992,-0.2285156
1989,-5.5,-37.5,243.5,0.1171875,0.21875,0.3134766,-0.2128906,-0.2207031,-0.2285156
1993,77,-76.0625,230.375,0.1445313,0.05126953,0.3364258,-0.2197266,-0.2104492,-0.2246094
1997,155.0625,-97.5625,225,0.4428711,0.3271484,0.2211914,-0.237793,-0.1992188,-0.2119141
2001,155.25,-73.9375,219.5625,0.7993164,1.088867,-0.02441406,-0.2519531,-0.1933594,-0.1987305
2005,61.3125,-12.25,230.125,0.8378906,1.481445,-0.1860352,-0.2578125,-0.1855469,-0.1904297
2009,-57.375,32.625,252.8125,0.527832,1.12793,-0.2207031,-0.2661133,-0.1645508,-0.1904297
2013,-101.25,46.6875,252.375,0.4428711,0.6655273,-0.05126953,-0.2744141,-0.1381836,-0.1958008
2017,-107.125,47.375,254.125,0.2797852,0.21875,0.144043,-0.2758789,-0.1196289,-0.199707
2021,-84.25,26.8125,240.4375,0.2104492,0.0009765625,0.2480469,-0.2783203,-0.09179688,-0.206543
2025,-54.0625,4.4375,226.5625,0.2875977,-0.1113281,0.3212891,-0.2792969,-0.06835938,-0.2094727
2029,-30.25,-6.9375,213.8125,0.4506836,-0.05664063,0.2368164,-0.2817383,-0.05322266,-0.206543
2033,-39.25,0.125,201.375,0.5200195,0.04394531,0.2094727,-0.2817383,-0.03173828,-0.2094727
2037,-57.0625,3.625,190.6875,0.4814453,-0.08398438,0.1982422,-0.2807617,-0.01318359,-0.2080078
2041,-57.8125,3,185.75,0.4931641,-0.3520508,0.2368164,-0.2792969,0.001464844,-0.2094727
2045,-45,6.9375,184,0.4775391,-0.6123047,0.2480469,-0.2744141,0.02148438,-0.206543
2049,-36.1875,14,172.8125,0.4814453,-0.7988281,0.1635742,-0.2709961,0.03759766,-0.2080078
2053,-22.4375,26.375,134.375,0.4233398,-1.094238,0.09033203,-0.2675781,0.04980469,-0.2094727
2058,-11.4375,25.5,85.3125,0.2915039,-1.183594,0.04785156,-0.2617188,0.06103516,-0.2109375
2062,-13.0625,18.3125,35.1875,0.2836914,-1.105957,-0.02050781,-0.2592773,0.06494141,-0.2133789
2066,-14.875,13.3125,-10.0625,0.3652344,-1.024414,-0.009277344,-0.2578125,0.06738281,-0.2109375
2070,-8,11.6875,-40.5,0.4467773,-0.8959961,0.1557617,-0.2568359,0.06738281,-0.2133789
2074,15.875,0.375,-60.6875,0.4853516,-0.7524414,0.2675781,-0.2578125,0.06396484,-0.2148438
2078,44.75,-19.25,-76,0.574707,-0.5620117,0.3134766,-0.2578125,0.05859375,-0.2119141
2082,62.5,-34.625,-85.6875,0.7216797,-0.3017578,0.3134766,-0.2651367,0.04980469,-0.2109375
2086,61.9375,-38.5,-89.25,0.8842773,-0.05664063,0.2519531,-0.2675781,0.03759766,-0.2119141
2090,40.25,-27.875,-87,1.031738,0.07080078,0.1748047,-0.2709961,0.03125,-0.2109375
2094,11.5,-8.8125,-76.8125,1.066406,0.04394531,0.1289063,-0.2744141,0.02001953,-0.2080078
2098,-5.6875,5.9375,-72.25,1.043457,0.03613281,0.1982422,-0.2734375,0.01367188,-0.2080078
2102,-16.4375,13.4375,-67.6875,0.9658203,-0.03369141,0.2250977,-0.2758789,0.01123047,-0.206543
2106,-16.75,15.875,-66.9375,0.9389648,-0.1230469,0.2402344,-0.2768555,0.006347656,-0.2109375
2110,-9.25,16.125,-66.875,0.8613281,-0.1967773,0.3095703,-0.2768555,0,-0.2109375
2114,5.6875,8.9375,-67.875,0.7915039,-0.2353516,0.3056641,-0.2768555,-0.003417969,-0.2119141
2118,14.625,6,-73.25,0.8417969,-0.1538086,0.2094727,-0.2768555,-0.009277344,-0.2109375
2122,3.4375,15.5,-81.875,0.8803711,-0.06054688,0.1635742,-0.2758789,-0.01708984,-0.2133789
2126,-13.8125,26.8125,-90.5625,0.8261719,-0.02197266,0.1635742,-0.2768555,-0.02197266,-0.2133789
2130,-24.625,29.8125,-98.75,0.7373047,-0.09570313,0.2329102,-0.2734375,-0.02929688,-0.2177734
2134,-16.5,21.5,-106.5,0.6635742,-0.2006836,0.2636719,-0.2744141,-0.03710938,-0.2177734
2138,3.1875,11.6875,-117.1875,0.6401367,-0.2626953,0.2636719,-0.2724609,-0.04199219,-0.21875
2142,26.875,1.4375,-126.6875,0.625,-0.1616211,0.2866211,-0.2700195,-0.0546875,-0.21875
2146,34.3125,-1.375,-133.8125,0.675293,0.08251953,0.1787109,-0.2724609,-0.06689453,-0.2231445
2150,6.125,13.1875,-141.875,0.7875977,0.2265625,0.125,-0.2709961,-0.07714844,-0.21875
2154,-22.0625,26.5,-152.875,0.6791992,0.171875,0.1518555,-0.2700195,-0.08691406,-0.2216797
2158,-17.9375,21.875,-162.625,0.5395508,-0.06054688,0.3017578,-0.2651367,-0.09960938,-0.2255859
2162,23.6875,2.5,-175.875,0.4619141,-0.1035156,0.3291016,-0.2626953,-0.109375,-0.2255859
2166,54.6875,-10.8125,-183.5625,0.5512695,0.1176758,0.2519531,-0.2602539,-0.1269531,-0.2231445
2170,56.625,-3.8125,-181.125,0.6948242,0.5058594,0.1098633,-0.2553711,-0.1455078,-0.2216797
2174,20.875,25.625,-174.5625,0.8032227,0.6884766,0.06347656,-0.2519531,-0.1557617,-0.2231445
2178,0.125,46.9375,-155.8125,0.6054688,0.6264648,0.1787109,-0.2446289,-0.1694336,-0.2255859
2182,-1.3125,37.9375,-165.6875,0.3959961,0.5722656,0.3481445,-0.2363281,-0.1831055,-0.2285156
2187,20.75,10.3125,-178.75,0.4116211,0.4946289,0.3481445,-0.2294922,-0.1918945,-0.2270508
2191,45.5625,4.25,-173.75,0.5708008,0.5800781,0.2905273,-0.2236328,-0.2055664,-0.2270508
2195,50.375,19.3125,-157.75,0.7060547,0.7817383,0.1328125,-0.2128906,-0.2216797,-0.2270508
2199,14.4375,54.625,-141.25,0.6479492,0.9604492,0.1289063,-0.206543,-0.2294922,-0.2255859
2203,-20.5,57.5625,-151.25,0.3149414,0.8671875,0.2368164,-0.1962891,-0.2416992,-0.2285156
2207,5.5,25.75,-163.375,0.175293,0.5605469,0.4672852,-0.184082,-0.2470703,-0.2353516
2211,68.875,-0.125,-168.1875,0.3266602,0.6962891,0.4672852,-0.1782227,-0.2558594,-0.2324219
2215,94.8125,1.9375,-151.25,0.5317383,1.022949,0.2709961,-0.1674805,-0.2729492,-0.2299805
2219,68.9375,28.5,-125.5,0.6674805,1.306641,0.1289063,-0.1582031,-0.2895508,-0.2216797
2223,-1.5,62,-110.5625,0.4311523,1.345215,0.1098633,-0.1508789,-0.2954102,-0.2202148
2227,-56,45.5625,-140.875,0.06689453,0.9682617,0.3173828,-0.1376953,-0.3007813,-0.2255859
2231,-3.5625,7.3125,-159.5,0.140625,0.6342773,0.4941406,-0.1235352,-0.3056641,-0.2270508
2235,60.5625,6.625,-143.875,0.3652344,0.8442383,0.4443359,-0.1162109,-0.3129883,-0.2299805
2239,63.6875,20.375,-122.5,0.4697266,1.197754,0.1943359,-0.1010742,-0.3242188,-0.2255859
2243,16.3125,50.875,-98.25,0.527832,1.263672,0.125,-0.08886719,-0.3330078,-0.2216797
2247,-21.875,75.9375,-83.125,0.1484375,0.9179688,0.2709961,-0.08203125,-0.3344727,-0.2216797
2251,-2.25,42.9375,-113.125,-0.1420898,0.7548828,0.4174805,-0.06884766,-0.3369141,-0.2246094
2255,35.8125,15.1875,-123,0.06298828,0.6811523,0.3828125,-0.05224609,-0.3417969,-0.2216797
2259,66.1875,17.875,-119.9375,0.175293,0.8598633,0.3442383,-0.04394531,-0.3432617,-0.21875
2263,66.5625,30.625,-109.375,0.2294922,1.112305,0.2441406,-0.02832031,-0.3466797,-0.2109375
2267,43.4375,54.75,-84.9375,0.109375,1.135742,0.2402344,-0.01611328,-0.3520508,-0.2055664
2271,40,51.8125,-83.625,-0.2001953,1.221191,0.3442383,-0.006835938,-0.3505859,-0.2026367
2275,22.375,13,-122.8125,-0.378418,1.512207,0.3442383,0.0009765625,-0.3491211,-0.199707
2279,-6.1875,-12.4375,-126.75,-0.03710938,1.446289,0.2290039,0.01269531,-0.3491211,-0.2011719
2283,-16.375,12.625,-98.25,0.1445313,1.255859,0.2597656,0.02001953,-0.3457031,-0.199707
2287,-1.125,22.9375,-81.875,-0.09130859,1.158691,0.2709961,0.03076172,-0.3417969,-0.199707
2291,24.5,9.3125,-72.9375,-0.1845703,1.189941,0.2944336,0.03564453,-0.3417969,-0.2011719
2295,35.75,1.125,-63.375,-0.1147461,1.298828,0.2441406,0.0390625,-0.3417969,-0.199707
2299,18.125,4.3125,-58.1875,-0.06054688,1.411133,0.1826172,0.04248047,-0.3408203,-0.1972656
2303,-12.25,12.75,-56.9375,-0.05273438,1.368652,0.1713867,0.04736328,-0.3393555,-0.1928711
2307,-36.5,17.4375,-55.25,-0.1186523,1.20166,0.2021484,0.04980469,-0.3369141,-0.1987305
2311,-32.1875,13.875,-49.5,-0.1611328,1.015137,0.2597656,0.05322266,-0.3330078,-0.2026367
2316,-14.6875,10,-42.0625,-0.1420898,0.9604492,0.2636719,0.05957031,-0.3344727,-0.2026367
2320,-3.5625,10.5625,-35.875,-0.1533203,0.9838867,0.2675781,0.06054688,-0.3305664,-0.206543
2324,1.3125,4.5,-32.0625,-0.1459961,1.213379,0.3598633,0.06396484,-0.3291016,-0.206543
2328,-7.3125,1.375,-14.375,-0.09912109,1.310547,0.4057617,0.06396484,-0.3291016,-0.2055664
2332,-9.125,-2.0625,-1.875,-0.02587891,1.321777,0.4287109,0.06640625,-0.328125,-0.206543
2336,-9.6875,0.5,7.4375,-0.02978516,1.259766,0.390625,0.06542969,-0.3291016,-0.2094727
2340,-9.0625,-1.625,10.125,-0.08007813,1.146973,0.2709961,0.06640625,-0.328125,-0.2080078
2344,-21.6875,2.25,5.375,-0.06835938,1.06543,0.2211914,0.06542969,-0.3266602,-0.2109375
2348,-35.125,8.4375,6.8125,-0.1533203,0.9453125,0.1982422,0.06396484,-0.3266602,-0.2109375
2352,-37.8125,7.875,5.5625,-0.1923828,0.824707,0.2094727,0.06396484,-0.3242188,-0.2133789
2356,-31.5,7.1875,2.1875,-0.2080078,0.7392578,0.2290039,0.06640625,-0.3232422,-0.2133789
2360,-17.125,3.4375,-0.9375,-0.2734375,0.7080078,0.2636719,0.06542969,-0.3232422,-0.2177734
2364,1.0625,-5.5625,-3.25,-0.2773438,0.7236328,0.2290039,0.06640625,-0.3208008,-0.2177734
2368,15.1875,-9.25,-4.375,-0.2080078,0.8286133,0.2519531,0.06640625,-0.3217773,-0.2148438
2372,14.125,-6.5625,-1.9375,-0.1884766,0.9375,0.2402344,0.06542969,-0.3217773,-0.21875
2376,5.1875,-4.3125,-3.375,-0.1767578,0.987793,0.2480469,0.06542969,-0.3217773,-0.2133789
2380,-2.4375,-2.875,-3.875,-0.1845703,0.9682617,0.2519531,0.06542969,-0.3217773,-0.2163086
2384,-1.4375,-4,-4.375,-0.1728516,0.9375,0.2709961,0.06396484,-0.3242188,-0.2163086
2388,3.4375,-4.5,-1.1875,-0.1611328,0.956543,0.2944336,0.06396484,-0.3217773,-0.2163086
2392,3.1875,-4.3125,0.9375,-0.1381836,0.987793,0.2983398,0.06396484,-0.3232422,-0.2163086
2396,-0.3125,-2.25,2.8125,-0.1381836,0.9643555,0.3134766,0.06542969,-0.3232422,-0.2148438
2400,-1.8125,-1.5625,3.125,-0.1689453,0.9296875,0.3134766,0.06396484,-0.3232422,-0.2177734
2404,-3.25,-5.375,-0.1875,-0.1962891,0.9101563,0.3134766,0.06396484,-0.3242188,-0.2163086
2408,-1.5,-7.875,-1.8125,-0.1728516,0.8632813,0.3056641,0.06298828,-0.3232422,-0.2163086
