Packet number,Gyroscope X (deg/s),Gyroscope Y (deg/s),Gyroscope Z (deg/s),Accelerometer X (g),Accelerometer Y (g),Accelerometer Z (g),Magnetometer X (G),Magnetometer Y (G),Magnetometer Z (G)
2,-10.5625,-10.1875,63.75,0.4311523,1.154785,-0.1015625,-0.04003906,-0.390625,-0.1098633
6,-12.5,-2.5,71.4375,0.4814453,1.182129,-0.09765625,-0.04394531,-0.3881836,-0.1088867
10,-13.3125,4.8125,80.375,0.5009766,1.174316,-0.07861328,-0.05078125,-0.3881836,-0.1113281
14,-17,8.1875,86.6875,0.5161133,1.263672,-0.05517578,-0.05810547,-0.3842773,-0.112793
18,-25.4375,11.375,91.5,0.5859375,1.279297,-0.04394531,-0.06738281,-0.3833008,-0.1166992
22,-27,10.125,103.875,0.644043,1.228516,-0.08203125,-0.07324219,-0.3818359,-0.1166992
26,-20.25,8.75,121.25,0.7875977,1.232422,-0.08203125,-0.08300781,-0.3769531,-0.1196289
30,-19.6875,20.8125,137.625,0.8803711,1.302734,-0.08203125,-0.09375,-0.3706055,-0.1225586
34,-22.875,33.1875,150.6875,0.8691406,1.349121,-0.08984375,-0.1010742,-0.3706055,-0.1235352
38,-25.375,40.25,162.75,0.8378906,1.306641,-0.09765625,-0.1162109,-0.3618164,-0.1264648
42,-22.875,44.1875,175.9375,0.8222656,1.263672,-0.1015625,-0.1293945,-0.3554688,-0.1303711
46,-21.3125,42.1875,186.4375,0.7680664,1.325684,-0.06298828,-0.1376953,-0.3491211,-0.1303711
50,-22.6875,37.3125,195.5625,0.8417969,1.263672,-0.05126953,-0.1518555,-0.3408203,-0.1333008
54,-18.25,42.375,205.875,0.8920898,1.267578,-0.02832031,-0.168457,-0.3291016,-0.1386719
58,-21.5625,50.125,212.4375,0.9619141,1.356934,0.005859375,-0.1791992,-0.3208008,-0.1386719
62,-30.125,62.1875,218.0625,1.05127,1.36084,0.01708984,-0.1938477,-0.3066406,-0.1455078
66,-34.5,77.5,234.125,1.089844,1.325684,0.02099609,-0.2080078,-0.2905273,-0.1508789
71,-38.3125,91.625,246.125,1.000488,1.263672,-0.009277344,-0.2163086,-0.2792969,-0.1547852
75,-41.875,99.5,245.875,0.8300781,1.225098,-0.005371094,-0.2270508,-0.2592773,-0.1630859
79,-42,82.5,248.9375,0.7451172,1.146973,0.02490234,-0.2387695,-0.2368164,-0.1728516
83,-32.9375,61.3125,258,0.8339844,1.092773,0.05566406,-0.2446289,-0.2231445,-0.1796875
87,-29.25,51.25,263.0625,0.9272461,1.108398,0.04443359,-0.2543945,-0.2016602,-0.1850586
91,-29.1875,56.6875,263.875,1.031738,1.045898,0.04443359,-0.2626953,-0.1767578,-0.1904297
95,-31.0625,77.1875,260.375,1.089844,1.09668,0.05957031,-0.2661133,-0.1621094,-0.1958008
99,-39.8125,94.125,266.375,1.004395,0.9956055,0.03662109,-0.2685547,-0.1357422,-0.2011719
103,-36.8125,99.0625,265.875,0.8300781,0.9023438,0.07519531,-0.2700195,-0.1132813,-0.2119141
107,-39.0625,86.1875,269.1875,0.6171875,0.8632813,0.1098633,-0.2685547,-0.09570313,-0.2177734
111,-40.125,50.75,265.3125,0.5048828,0.7548828,0.1713867,-0.2675781,-0.07080078,-0.2231445
115,-34.8125,24.8125,265.375,0.5820313,0.5761719,0.1904297,-0.2661133,-0.046875,-0.2255859
119,-27.6875,18.6875,257.5625,0.8149414,0.5488281,0.1674805,-0.2626953,-0.03076172,-0.2255859
123,-32.125,44,251.125,0.9272461,0.5722656,0.1518555,-0.2602539,-0.008300781,-0.230957
127,-42.125,74.3125,239.5,0.8959961,0.5644531,0.1289063,-0.2543945,0.01367188,-0.2324219
131,-49.5625,92.625,233.1875,0.675293,0.4594727,0.1518555,-0.2485352,0.02880859,-0.237793
135,-53.25,81.0625,234.0625,0.4428711,0.2768555,0.1367188,-0.2353516,0.04980469,-0.2446289
139,-47.875,54.1875,228.1875,0.2758789,0.171875,0.1943359,-0.2246094,0.06884766,-0.2475586
143,-44.0625,21.75,219.3125,0.2294922,0.08642578,0.1982422,-0.2163086,0.08251953,-0.2475586
147,-40.4375,6.3125,206.875,0.2993164,-0.01806641,0.1674805,-0.2089844,0.09765625,-0.2475586
151,-35.875,6.8125,197.375,0.3417969,-0.1152344,0.1328125,-0.199707,0.1152344,-0.2460938
155,-34,29.375,181.4375,0.3378906,-0.2084961,0.09814453,-0.1923828,0.125,-0.2446289
159,-33.875,56.875,161.0625,0.2026367,-0.3056641,0.05957031,-0.1816406,0.1376953,-0.2475586
163,-30.875,74.5,139,-0.01806641,-0.387207,0.07128906,-0.1665039,0.1474609,-0.2475586
167,-26.8125,74.875,113.6875,-0.2773438,-0.5737305,0.05566406,-0.1567383,0.1538086,-0.2475586
171,-18.125,59.125,86.5,-0.4594727,-0.5966797,0.05175781,-0.1459961,0.1586914,-0.25
175,-11.8125,27.4375,57.75,-0.5566406,-0.6899414,0.105957,-0.1376953,0.1635742,-0.2529297
179,0.375,-6.875,32,-0.4711914,-0.7368164,0.1098633,-0.1367188,0.1674805,-0.2514648
183,12.75,-23.4375,8.5,-0.28125,-0.7290039,0.105957,-0.1352539,0.1660156,-0.2543945
187,20.9375,-25.125,-13.5,-0.1650391,-0.6552734,0.140625,-0.1352539,0.1660156,-0.2529297
191,22.3125,-26.75,-40.25,-0.1342773,-0.5893555,0.1982422,-0.1391602,0.1625977,-0.2529297
195,22.0625,-36.5625,-65.625,-0.1264648,-0.5698242,0.2368164,-0.1450195,0.1611328,-0.2514648
200,25.875,-55.375,-81.5625,-0.09130859,-0.5268555,0.2636719,-0.1518555,0.1547852,-0.2529297
204,30.1875,-71.75,-92.625,-0.02197266,-0.5112305,0.2329102,-0.1582031,0.1499023,-0.25
208,35.25,-82.875,-111.3125,0.03564453,-0.4414063,0.2172852,-0.1699219,0.1450195,-0.2514648
212,34.9375,-83.75,-135.9375,0.159668,-0.3056641,0.2250977,-0.1791992,0.1362305,-0.2460938
216,27.75,-66.6875,-166.375,0.2490234,-0.2783203,0.1943359,-0.1899414,0.1289063,-0.2446289
220,27.6875,-56.75,-173.8125,0.1557617,-0.3173828,0.2368164,-0.2006836,0.1162109,-0.2421875
224,16.6875,-61.625,-182.1875,0.206543,-0.1850586,0.3095703,-0.2128906,0.1035156,-0.2392578
228,21.125,-71.375,-159,0.2568359,-0.002441406,0.1479492,-0.2211914,0.09521484,-0.2368164
232,15.5,-93.375,-204.375,0.3886719,-0.05664063,0.2558594,-0.2329102,0.08105469,-0.2299805
236,22.1875,-107.4375,-227.8125,0.578125,-0.002441406,0.1865234,-0.2460938,0.06396484,-0.2255859
240,20.75,-99.0625,-232.0625,0.7954102,0.09814453,0.1557617,-0.2543945,0.05126953,-0.21875
244,10.1875,-90.5625,-225.9375,0.7797852,0.1640625,0.1713867,-0.2661133,0.03271484,-0.2109375
248,5.5,-96.9375,-224.0625,0.8300781,0.2265625,0.09814453,-0.2744141,0.01269531,-0.2041016
252,4.75,-90.6875,-220.9375,1.039551,0.1333008,0.02490234,-0.2817383,0,-0.1987305
256,13,-59.375,-216.1875,1.147949,0.1835938,0.05175781,-0.2866211,-0.02197266,-0.1904297
260,12.0625,-26.75,-212.6875,1.035645,0.3779297,0.09814453,-0.2924805,-0.04199219,-0.1875
264,-3.25,-39,-206.9375,0.7719727,0.5332031,0.08251953,-0.2915039,-0.0546875,-0.1850586
268,3.75,-61.375,-198.375,0.8652344,0.3466797,0.08642578,-0.293457,-0.07324219,-0.1796875
272,12.875,-76.4375,-209.9375,0.9697266,0.4633789,-0.02050781,-0.293457,-0.09082031,-0.1738281
276,22.8125,-51.4375,-200.625,1.279785,0.3662109,-0.06298828,-0.2949219,-0.1044922,-0.1713867
280,26.3125,23,-204.75,1.407715,0.6499023,0.05957031,-0.2900391,-0.1245117,-0.1674805
284,-12.625,75.0625,-218.3125,0.9697266,1.06543,0.08642578,-0.2827148,-0.1445313,-0.1728516
288,-35.375,45.125,-208.0625,0.5976563,0.7431641,0.1289063,-0.2768555,-0.1567383,-0.1767578
292,-0.125,-20.8125,-200.75,0.6791992,0.4594727,0.04443359,-0.2675781,-0.1733398,-0.1821289
296,44.875,-52.6875,-179.375,0.8730469,0.4750977,0.001953125,-0.2651367,-0.1904297,-0.1767578
300,66.125,-36.5625,-162.375,1.117188,0.5913086,0.009765625,-0.2592773,-0.203125,-0.1713867
304,53.5625,15.4375,-172.625,1.000488,1.325684,0.2290039,-0.2543945,-0.2182617,-0.1660156
308,-14.0625,36.0625,-209.6875,0.7954102,1.407715,0.1748047,-0.2426758,-0.234375,-0.168457
312,-14.5625,17.125,-195.75,0.6210938,0.8442383,0.1982422,-0.2329102,-0.2431641,-0.1699219
316,19.0625,-19.25,-189.6875,0.6870117,0.8208008,0.07910156,-0.222168,-0.2592773,-0.1713867
320,31.9375,-16.5625,-175.625,0.8032227,0.8984375,0.06738281,-0.2104492,-0.2729492,-0.168457
324,39.25,-0.5,-170.5625,0.7294922,0.9760742,0.105957,-0.2055664,-0.2832031,-0.1660156
329,30.6875,16.6875,-183.25,0.5551758,1.213379,0.1557617,-0.1914063,-0.2944336,-0.1645508
333,11.75,16.1875,-191.875,0.4233398,1.189941,0.1171875,-0.1772461,-0.3081055,-0.1616211
337,19.8125,8.625,-196,0.3847656,1.061523,0.09033203,-0.1674805,-0.3193359,-0.1630859
341,32.5,1.9375,-193.5625,0.3847656,1.143066,0.005859375,-0.1533203,-0.3291016,-0.1630859
345,39.3125,2.8125,-190.75,0.4389648,1.255859,0.001953125,-0.1342773,-0.3408203,-0.1616211
349,38.0625,14,-193.0625,0.3886719,1.36084,-0.03613281,-0.1220703,-0.3466797,-0.1577148
353,34.1875,20.3125,-197.5625,0.2993164,1.376465,0.005859375,-0.1069336,-0.3569336,-0.1591797
357,33.6875,7.25,-198.5,0.1870117,1.446289,0.03662109,-0.08642578,-0.3632813,-0.1547852
361,27.3125,-22.75,-192.625,0.2294922,1.485352,0.01367188,-0.07470703,-0.3681641,-0.1538086
365,23.3125,-49.0625,-177.25,0.4467773,1.426758,0.01367188,-0.05664063,-0.3745117,-0.1508789
369,21.125,-62.3125,-153.9375,0.644043,1.407715,-0.005371094,-0.04248047,-0.3779297,-0.1484375
373,16.5625,-72.1875,-131.25,0.9311523,1.39209,-0.009277344,-0.03515625,-0.3779297,-0.1455078
377,19.4375,-66.9375,-91.5625,1.089844,1.294922,0.05566406,-0.02587891,-0.3803711,-0.1425781
381,12.0625,-50.25,-55.125,1.186523,1.298828,0.1132813,-0.02246094,-0.3803711,-0.1425781
385,6.0625,-33.625,-22.8125,1.159668,1.213379,0.1479492,-0.01855469,-0.3803711,-0.1401367
389,3.125,-25.5625,6.25,1.070313,1.20166,0.1674805,-0.01855469,-0.3833008,-0.1416016
393,-2.125,-25.4375,30.6875,1.000488,1.189941,0.1865234,-0.02099609,-0.3818359,-0.1401367
397,-7.5,-20.125,52.125,0.9853516,1.186035,0.1748047,-0.02587891,-0.3818359,-0.1401367
401,-14.75,-10.25,68.75,0.9462891,1.221191,0.144043,-0.03173828,-0.3803711,-0.1425781
405,-22.875,-6.9375,88.5625,0.8920898,1.228516,0.07910156,-0.03759766,-0.3803711,-0.1425781
409,-24.6875,-5.625,107.0625,0.8881836,1.248047,0.05566406,-0.04492188,-0.3769531,-0.1455078
413,-28.25,-6.9375,128.8125,0.8496094,1.248047,0.009765625,-0.05566406,-0.3769531,-0.1455078
417,-23.375,-8.75,150.1875,0.8691406,1.271484,0.02099609,-0.06982422,-0.3706055,-0.1494141
421,-22.9375,-1.9375,170.25,0.9233398,1.368652,0.01708984,-0.07958984,-0.3691406,-0.1494141
425,-26,9.375,187.6875,0.8730469,1.403809,0.01708984,-0.09619141,-0.3618164,-0.1523438
429,-25.625,12,203.25,0.7568359,1.430664,0.01367188,-0.112793,-0.3554688,-0.1523438
433,-25.8125,5,215.25,0.7333984,1.442383,0.009765625,-0.1245117,-0.3466797,-0.1538086
437,-22.75,0.5,228.5625,0.7797852,1.426758,0.03271484,-0.1450195,-0.3369141,-0.15625
441,-19.875,-0.625,244.4375,0.7993164,1.376465,0.009765625,-0.1640625,-0.3242188,-0.1577148
445,-11.8125,1.875,253.8125,0.8339844,1.36084,-0.005371094,-0.1772461,-0.3120117,-0.15625
449,-9,8.4375,256.375,0.8691406,1.43457,-0.001464844,-0.1948242,-0.2954102,-0.15625
453,-9.1875,16.4375,262.3125,0.8691406,1.356934,0.02099609,-0.2128906,-0.2792969,-0.1591797
458,-9.4375,18.9375,266.9375,0.8457031,1.399902,0.06347656,-0.2246094,-0.265625,-0.1591797
462,-15.75,14.3125,269.6875,0.8378906,1.353027,0.04052734,-0.2402344,-0.2441406,-0.1606445
466,-14.375,10.125,275.75,0.8920898,1.213379,0.05175781,-0.253418,-0.2207031,-0.1616211
470,-8.375,14.9375,280.5,1.039551,1.135742,0.02880859,-0.2626953,-0.2055664,-0.1630859
474,-8.4375,33.9375,286.4375,1.078125,1.154785,0.02880859,-0.2734375,-0.1791992,-0.1674805
478,-13.6875,56.8125,288.375,1.121094,1.088867,0.01367188,-0.2827148,-0.1557617,-0.1713867
482,-16.6875,82.875,292.1875,1.023926,1.026855,0.02880859,-0.2851563,-0.1381836,-0.1728516
486,-20.9375,90.375,289.9375,0.8071289,0.9682617,0.04443359,-0.2875977,-0.109375,-0.1806641
490,-25.1875,72.8125,291,0.5820313,0.855957,0.07910156,-0.2890625,-0.08447266,-0.1918945
494,-19.625,40.25,291.8125,0.6171875,0.7001953,0.1171875,-0.2866211,-0.06591797,-0.1943359
498,-14.875,31.625,287,0.8339844,0.6381836,0.105957,-0.2866211,-0.03808594,-0.1958008
502,-13.4375,49.5,291,0.9501953,0.5449219,0.06738281,-0.2827148,-0.01171875,-0.199707
506,-12.5,76.75,284.625,0.8959961,0.5292969,0.07519531,-0.2792969,0.004882813,-0.2026367
510,-21.5625,93,275.5625,0.609375,0.4829102,0.1020508,-0.2675781,0.03027344,-0.2080078
514,-26.9375,76.5625,262.8125,0.4506836,0.3740234,0.1713867,-0.2568359,0.05273438,-0.2163086
518,-28.8125,46.125,264.625,0.3535156,0.2299805,0.2094727,-0.2495117,0.06738281,-0.21875
522,-22.1875,15.5625,267,0.3378906,0.06689453,0.2172852,-0.2363281,0.08984375,-0.2216797
526,-19.9375,-9.9375,254.4375,0.4541016,0.08642578,0.2133789,-0.2255859,0.1088867,-0.21875
530,-21.1875,-12.8125,248.9375,0.543457,-0.06054688,0.1518555,-0.21875,0.1225586,-0.2177734
534,-16.125,-24.3125,248.625,0.3188477,-0.2084961,0.1289063,-0.206543,0.1401367,-0.21875
538,-8.875,-52.6875,238.3125,0.2836914,-0.2978516,0.1132813,-0.1948242,0.15625,-0.2148438
542,-1.0625,-64.25,227,0.4038086,-0.3598633,0.1557617,-0.1865234,0.1660156,-0.2119141
546,1.6875,-48,214.75,0.559082,-0.3208008,0.1826172,-0.1757813,0.1801758,-0.2094727
550,1.125,-3.375,206.875,0.5126953,-0.371582,0.1865234,-0.1650391,0.1923828,-0.206543
554,1.1875,50.875,192.5625,0.2026367,-0.4335938,0.125,-0.1542969,0.1972656,-0.2080078
558,1.5625,87.5625,171.9375,-0.3510742,-0.519043,0.09814453,-0.1352539,0.2060547,-0.2133789
562,-0.3125,93.625,137,-0.9399414,-0.6162109,0.07128906,-0.1162109,0.2138672,-0.2177734
566,-0.375,68.875,88.875,-1.257813,-0.6552734,0.06738281,-0.1079102,0.2138672,-0.21875
570,1.3125,33.4375,26.6875,-1.28125,-0.6821289,0.08251953,-0.09863281,0.2148438,-0.2202148
574,1.6875,7.4375,-28.125,-1.021484,-0.6708984,0.08251953,-0.09619141,0.21875,-0.21875
578,-0.5,-18.5,-68.9375,-0.7270508,-0.6240234,0.1518555,-0.09863281,0.2148438,-0.21875
582,-4.75,-44.5,-99.1875,-0.3823242,-0.581543,0.2402344,-0.1054688,0.2138672,-0.2202148
587,-13.625,-75.6875,-113.5,-0.06835938,-0.565918,0.2636719,-0.1186523,0.2099609,-0.2163086
591,-15.5625,-100.25,-109.625,0.3339844,-0.6552734,0.2133789,-0.1269531,0.2075195,-0.2133789
595,-10.5,-95.375,-100.5625,0.6518555,-0.7016602,0.2060547,-0.1411133,0.2060547,-0.2094727
599,-10,-68.375,-98.8125,0.7954102,-0.7407227,0.1328125,-0.1533203,0.2026367,-0.2041016
603,-9.625,-32.625,-101,0.7875977,-0.7407227,0.1674805,-0.1616211,0.2001953,-0.2011719
607,-10.625,-4.5625,-106.0625,0.690918,-0.7133789,0.159668,-0.1708984,0.1938477,-0.199707
611,-10.5,14.0625,-110.3125,0.5551758,-0.7446289,0.1713867,-0.1772461,0.1884766,-0.1987305
615,-6.6875,22.25,-113.625,0.4389648,-0.7172852,0.1748047,-0.1816406,0.1860352,-0.199707
619,-0.625,16.375,-117.375,0.3149414,-0.6977539,0.2021484,-0.1889648,0.1762695,-0.199707
623,5.625,4.375,-121.1875,0.3847656,-0.565918,0.2368164,-0.1948242,0.1699219,-0.1987305
627,0.375,9.5625,-130.125,0.3959961,-0.484375,0.2368164,-0.2006836,0.1650391,-0.199707
631,-3.5,1.6875,-141.875,0.3808594,-0.4492188,0.2329102,-0.206543,0.1577148,-0.2011719
635,-5.6875,2.3125,-151.3125,0.4350586,-0.4296875,0.2094727,-0.215332,0.1489258,-0.2026367
639,-9.5,-11.0625,-163.3125,0.3959961,-0.3442383,0.2290039,-0.2197266,0.1411133,-0.1987305
643,-10.9375,-23.3125,-159.9375,0.6171875,-0.3833008,0.1479492,-0.2304688,0.1298828,-0.1987305
647,-4.25,-6.5625,-159.9375,0.7099609,-0.3950195,0.08251953,-0.2412109,0.1186523,-0.1958008
651,4.6875,15.5625,-161.5,0.6362305,-0.3793945,0.07128906,-0.2460938,0.1088867,-0.1958008
655,5.875,2.4375,-175.5,0.3417969,-0.1811523,0.125,-0.2509766,0.09765625,-0.1972656
659,6.8125,-40.625,-185.5,0.4116211,-0.09179688,0.1787109,-0.2602539,0.08251953,-0.1958008
663,4.625,-65.4375,-196.1875,0.7451172,0.02441406,0.144043,-0.2651367,0.07128906,-0.1943359
667,-2.25,-39.0625,-192.25,1.128418,-0.1577148,0.2329102,-0.2744141,0.05517578,-0.1875
671,4.625,29.1875,-188.0625,1.287598,-0.1420898,0.02880859,-0.2817383,0.03759766,-0.1865234
675,10.1875,95.3125,-189.0625,0.8457031,-0.002441406,0.07910156,-0.2807617,0.02734375,-0.1889648
679,0.4375,49.9375,-215.4375,0.09375,0.3544922,0.2060547,-0.2792969,0.007324219,-0.1987305
683,2.75,-46.375,-221.9375,0.3110352,0.2885742,0.2133789,-0.2817383,-0.009277344,-0.1987305
687,11.1875,-106.1875,-223.4375,0.6982422,0.3662109,0.125,-0.2841797,-0.02441406,-0.1958008
691,14.875,-111.0625,-206.125,1.213867,0.2768555,0.01708984,-0.2924805,-0.04296875,-0.1865234
695,25.4375,-48.6875,-191.3125,1.566406,0.237793,0.02490234,-0.293457,-0.06201172,-0.175293
699,23.0625,49.125,-189.125,1.39209,0.4672852,0.07519531,-0.2958984,-0.07421875,-0.1738281
703,-4.25,71.0625,-220.3125,0.5009766,0.840332,0.1328125,-0.2890625,-0.09423828,-0.1796875
707,-13.4375,-4.875,-232,0.3613281,0.6694336,0.1132813,-0.2851563,-0.1142578,-0.1875
711,11.4375,-71.3125,-231.3125,0.659668,0.6538086,0.06347656,-0.2817383,-0.1269531,-0.1835938
716,22.5,-93.25,-212.8125,1.085938,0.7431641,0.04052734,-0.2783203,-0.1479492,-0.1782227
720,25.75,-62.375,-203.625,1.42334,0.6538086,0.05957031,-0.2758789,-0.1679688,-0.168457
724,27.125,12.25,-176.5625,1.42334,0.6577148,-0.01318359,-0.2724609,-0.1806641,-0.1660156
728,19.4375,79.1875,-189.25,0.9853516,0.9956055,0.06738281,-0.2651367,-0.1958008,-0.1674805
732,-8.625,78.6875,-216.5,0.3457031,1.088867,0.04052734,-0.2509766,-0.2167969,-0.175293
736,3.4375,-1.25,-221.625,0.2607422,0.8632813,0.06738281,-0.2436523,-0.2270508,-0.1782227
740,33.5,-54.8125,-206.8125,0.690918,0.953125,0.08642578,-0.2329102,-0.2431641,-0.1767578
744,34.25,-58.25,-187,0.9697266,1.088867,0.09033203,-0.2236328,-0.2607422,-0.1699219
748,28.8125,-25.3125,-174.125,1.09375,1.092773,0.09814453,-0.2172852,-0.2705078,-0.1660156
752,15,28.0625,-178.4375,1.085938,1.12793,0.07519531,-0.206543,-0.2817383,-0.1630859
756,3.4375,81.5625,-185.6875,0.8613281,1.007324,0.05957031,-0.1899414,-0.2983398,-0.1674805
760,12.8125,81.0625,-186.3125,0.2915039,0.9453125,0.02880859,-0.1782227,-0.3056641,-0.1713867
764,34.875,12.0625,-179.5625,0.02832031,0.9799805,0.05957031,-0.1625977,-0.3168945,-0.1728516
768,55.875,-48.125,-173.5,0.3266602,1.124023,0.1132813,-0.1474609,-0.3266602,-0.168457
772,53.1875,-54.1875,-167.4375,0.659668,1.294922,0.144043,-0.1401367,-0.3354492,-0.1645508
776,38.5625,-28.875,-162.25,0.8378906,1.321777,0.140625,-0.128418,-0.3432617,-0.1577148
780,26.625,10.375,-158.1875,0.8300781,1.267578,0.05566406,-0.1152344,-0.3530273,-0.1547852
784,26.875,32.0625,-155.875,0.6362305,1.263672,-0.05126953,-0.1030273,-0.3569336,-0.15625
788,30.8125,25.875,-152.25,0.4658203,1.39209,-0.1206055,-0.08789063,-0.3642578,-0.1538086
792,31.6875,-0.6875,-145.375,0.4892578,1.403809,-0.1938477,-0.07226563,-0.3681641,-0.1523438
796,37.75,-33,-123.75,0.574707,1.376465,-0.1323242,-0.06494141,-0.3730469,-0.1508789
800,35,-47.1875,-105.4375,0.9038086,1.275391,-0.1474609,-0.05566406,-0.3769531,-0.1455078
804,29.25,-17.0625,-88.0625,1.198242,1.174316,-0.01660156,-0.04589844,-0.3793945,-0.144043
808,20.75,20.8125,-61.25,1.209961,1.104492,0.1865234,-0.04150391,-0.3803711,-0.1416016
812,12.4375,40.4375,-25.875,1.008301,1.104492,0.2788086,-0.03515625,-0.3818359,-0.1416016
816,7.8125,34.6875,8.5625,0.7797852,1.049805,0.390625,-0.03320313,-0.3818359,-0.1386719
820,6.5,20.8125,33.5,0.6210938,1.116211,0.4326172,-0.03417969,-0.3818359,-0.137207
824,-4.0625,15.1875,48.5,0.59375,1.17041,0.3945313,-0.03515625,-0.3818359,-0.1357422
828,-17.5625,17.125,53.375,0.4736328,1.213379,0.2558594,-0.04150391,-0.3793945,-0.137207
832,-26.375,9.125,57.375,0.3886719,1.12793,0.125,-0.04492188,-0.3769531,-0.1401367
836,-24.5,-4.25,62.25,0.4116211,1.100586,0.02490234,-0.04980469,-0.3769531,-0.1455078
840,-23.375,-21.0625,74.0625,0.5009766,1.158691,0.005859375,-0.05810547,-0.3754883,-0.1455078
845,-24.5,-33.25,94.5,0.6362305,1.143066,-0.02832031,-0.06152344,-0.3730469,-0.144043
849,-19.9375,-29.1875,109.0625,0.7993164,1.112305,-0.04736328,-0.07324219,-0.3691406,-0.1469727
853,-16.25,-13.4375,125.3125,0.8691406,1.17041,-0.03613281,-0.08398438,-0.3666992,-0.1484375
857,-21.0625,6.9375,131.25,0.9038086,1.298828,0.005859375,-0.09375,-0.3642578,-0.1455078
861,-31.875,17.5,143.3125,0.8457031,1.399902,0.08251953,-0.1030273,-0.3579102,-0.1508789
865,-40.1875,5.1875,160.5625,0.7954102,1.356934,0.1098633,-0.1176758,-0.3520508,-0.1547852
869,-33.1875,-17.125,186.1875,0.8652344,1.244141,0.06738281,-0.1269531,-0.3432617,-0.15625
873,-15.5,-30.4375,213.625,1.027832,1.267578,0.06738281,-0.1459961,-0.3330078,-0.1577148
877,-8.5,-27.625,234.0625,1.13623,1.384277,0.07910156,-0.1650391,-0.3232422,-0.15625
881,-8.5625,-11.5,246.125,1.244629,1.450195,0.1020508,-0.1791992,-0.3120117,-0.1547852
885,-14.4375,12.6875,250.6875,1.237305,1.422852,0.105957,-0.1982422,-0.296875,-0.1547852
889,-20.1875,30.125,264.4375,1.194336,1.46582,0.09033203,-0.215332,-0.2807617,-0.15625
893,-23,43.5625,276.3125,1.147949,1.380371,0.04785156,-0.2246094,-0.2631836,-0.1591797
897,-21.125,45.5625,290.25,1.023926,1.306641,0.05957031,-0.2402344,-0.2416992,-0.1645508
901,-17.25,44.25,299.9375,1.05127,1.263672,0.06738281,-0.2543945,-0.2167969,-0.168457
905,-12,46.5,306.4375,1.047363,1.209473,0.05175781,-0.2602539,-0.2006836,-0.1699219
909,-13.4375,59.5625,306.875,1.121094,1.209473,0.02880859,-0.2700195,-0.1733398,-0.1738281
913,-21.0625,86.8125,304.1875,1.070313,1.186035,0.02490234,-0.2783203,-0.1469727,-0.1806641
917,-29.0625,94.3125,303.875,0.8652344,1.108398,0.04052734,-0.2807617,-0.1279297,-0.1875
921,-30.5,65.6875,308.9375,0.6289063,0.987793,0.04443359,-0.2792969,-0.09960938,-0.1943359
925,-21.8125,30.875,312.9375,0.7451172,0.8364258,0.08642578,-0.2817383,-0.07324219,-0.1987305
929,-17.3125,24.75,313.875,0.9423828,0.8481445,0.1020508,-0.2817383,-0.05175781,-0.2011719
933,-22.125,39.125,316.75,0.9736328,0.840332,0.07910156,-0.2807617,-0.0234375,-0.2041016
937,-27.5,55,312.4375,0.8920898,0.7314453,0.04785156,-0.2744141,0.006347656,-0.206543
941,-27.25,55.25,307.125,0.7021484,0.6147461,0.01708984,-0.2700195,0.02246094,-0.2094727
945,-23.625,42.5625,310.625,0.5820313,0.4907227,0.02490234,-0.2602539,0.05126953,-0.2148438
949,-15.625,25.625,306.4375,0.6210938,0.4086914,0.06347656,-0.2485352,0.07861328,-0.2163086
953,-13.5625,31.625,304.9375,0.7529297,0.3857422,0.08642578,-0.2387695,0.09375,-0.2177734
957,-15.625,49.375,301.75,0.7177734,0.3041992,0.03271484,-0.2211914,0.1176758,-0.21875
961,-15.6875,55.875,293.75,0.4658203,0.2651367,0.1098633,-0.2055664,0.1362305,-0.2231445
965,-21.5625,33.25,290.0625,0.2568359,0.1098633,0.1020508,-0.1914063,0.1489258,-0.2231445
969,-22.375,-3.0625,285.75,0.1328125,-0.07226563,0.1020508,-0.1723633,0.1674805,-0.2231445
974,-18.25,-20.8125,274.875,0.2373047,-0.2163086,0.09814453,-0.1557617,0.1835938,-0.2246094
978,-14.8125,5.0625,264.8125,0.3769531,-0.2705078,0.05957031,-0.1435547,0.1923828,-0.2202148
982,-18.3125,76.4375,257.625,0.2490234,-0.3056641,-0.04003906,-0.1220703,0.2036133,-0.2202148
986,-17.5,157.9375,233.9375,-0.3320313,0.1835938,-0.1015625,-0.09716797,0.2138672,-0.2246094
990,-14.875,206.5625,190.5625,-1.347168,-0.6435547,-0.2861328,-0.07714844,0.2172852,-0.2285156
994,-4.375,170.0625,115.8125,-2.052246,-0.7407227,-0.2861328,-0.05078125,0.2236328,-0.2324219
998,6.25,73.5,46.8125,-2.265625,-0.7988281,-0.2592773,-0.03662109,0.2236328,-0.2324219
1002,28.125,-33.875,-9.6875,-1.777344,-0.8027344,0.01367188,-0.03320313,0.2226563,-0.2338867
1006,37.75,-102.625,-50.375,-1.056641,-0.5581055,0.2021484,-0.03662109,0.2226563,-0.2368164
1010,27.8125,-124.625,-79.375,-0.3393555,-0.46875,0.375,-0.05078125,0.21875,-0.2368164
1014,14.4375,-113.375,-94.0625,0.1132813,-0.453125,0.4365234,-0.05908203,0.2148438,-0.2368164
1018,1.75,-88.75,-96.8125,0.3032227,-0.534668,0.4213867,-0.07470703,0.2148438,-0.2353516
1022,-5.1875,-65.5,-100.9375,0.2758789,-0.6513672,0.3364258,-0.08544922,0.2099609,-0.230957
1026,-4.375,-44.9375,-110.875,0.2026367,-0.7792969,0.2788086,-0.09375,0.2099609,-0.2299805
1030,5.25,-44.6875,-122.3125,0.03955078,-0.7832031,0.2480469,-0.1079102,0.2050781,-0.2285156
1034,13.1875,-55.6875,-131.25,0.08642578,-0.6860352,0.3251953,-0.1201172,0.2026367,-0.2285156
1038,11.875,-63.25,-142.1875,0.1987305,-0.5424805,0.375,-0.128418,0.1987305,-0.2285156
1042,3.625,-58.6875,-146.625,0.3305664,-0.5112305,0.375,-0.1425781,0.1914063,-0.2216797
1046,-0.5625,-41.25,-151.75,0.4389648,-0.5073242,0.3251953,-0.1533203,0.1835938,-0.2216797
1050,-3.3125,-3.9375,-167.1875,0.5317383,-0.484375,0.2558594,-0.1640625,0.1787109,-0.2202148
1054,-9.1875,30.4375,-190.125,0.3999023,-0.3950195,0.2788086,-0.1748047,0.1713867,-0.2216797
1058,-10.75,22.3125,-203.0625,0.3149414,-0.371582,0.3095703,-0.1831055,0.1586914,-0.2202148
1062,-12.9375,-6.25,-203.6875,0.3032227,-0.3095703,0.3212891,-0.1938477,0.1513672,-0.2216797
1066,-11.75,-49.25,-195.25,0.4350586,-0.3481445,0.2519531,-0.2055664,0.1401367,-0.21875
1070,-2.875,-59.1875,-182.4375,0.8222656,-0.3637695,0.159668,-0.2172852,0.1274414,-0.2148438
1074,-0.875,-12,-183.625,1.070313,-0.3481445,0.07519531,-0.2280273,0.1201172,-0.2133789
1078,-4.1875,63.375,-203.4375,0.9853516,-0.1928711,0.140625,-0.234375,0.1049805,-0.2133789
1082,-15.125,66.375,-221,0.4697266,-0.07617188,0.2597656,-0.2363281,0.09130859,-0.2177734
1086,-6.5625,-3.4375,-210.5625,0.3110352,-0.1811523,0.2905273,-0.2426758,0.07861328,-0.2202148
1090,9.3125,-78.8125,-194.5625,0.4970703,-0.1811523,0.1748047,-0.2509766,0.06396484,-0.21875
1094,25.75,-103.875,-176.75,0.9194336,-0.1577148,0.09033203,-0.2626953,0.04736328,-0.2119141
1098,31.1875,-58.6875,-170.375,1.314453,-0.08789063,0.07910156,-0.2685547,0.03759766,-0.2055664
1103,20.625,40,-192.5625,1.469727,0.3193359,0.1748047,-0.2734375,0.02148438,-0.2026367
1107,-22.375,115.375,-226.25,0.9619141,0.4052734,0.2250977,-0.2744141,0.002441406,-0.2094727
1111,-23.625,58.5,-235.8125,0.3378906,0.2495117,0.340332,-0.2700195,-0.01074219,-0.2163086
1115,1.3125,-36.8125,-217.4375,0.5976563,0.1367188,0.2636719,-0.2709961,-0.02832031,-0.2177734
1119,27.375,-72.625,-189.4375,1.004395,0.15625,0.1289063,-0.2744141,-0.046875,-0.2133789
1123,36.375,-46.375,-175.5625,1.314453,0.3041992,0.1328125,-0.2768555,-0.05810547,-0.2094727
1127,19.5,29.6875,-192.4375,1.512207,0.6616211,0.2329102,-0.2768555,-0.07568359,-0.206543
1131,-22.125,105.4375,-224.5625,1.047363,0.6811523,0.2250977,-0.2700195,-0.09326172,-0.2109375
1135,-4.875,42.9375,-221.6875,0.2685547,0.3623047,0.2519531,-0.2636719,-0.1054688,-0.2202148
1139,40.375,-76.375,-200.1875,0.3847656,0.4052734,0.1865234,-0.2602539,-0.1230469,-0.2202148
1143,66.125,-139.1875,-176.4375,0.9423828,0.5488281,0.140625,-0.2617188,-0.1430664,-0.2094727
1147,65.3125,-128.3125,-151.1875,1.318359,0.6577148,0.140625,-0.2626953,-0.1533203,-0.199707
1151,46.5625,-68.625,-146.875,1.523926,0.8945313,0.2211914,-0.2651367,-0.1704102,-0.1889648
1155,0.0625,0.25,-169.625,1.159668,0.921875,0.2172852,-0.2602539,-0.1855469,-0.1850586
1159,6.5,-13.625,-168.3125,0.543457,0.5605469,0.09033203,-0.2553711,-0.1918945,-0.1865234
1163,19.3125,-69.25,-162.5,0.5512695,0.7197266,0.07128906,-0.2509766,-0.2080078,-0.1806641
1167,26.8125,-96.625,-148,0.9462891,0.7158203,0.02880859,-0.2470703,-0.2207031,-0.1738281
1171,31.8125,-68.0625,-137.625,1.244629,0.777832,0.05957031,-0.2446289,-0.2294922,-0.1699219
1175,20.1875,-17.375,-135.375,1.16748,0.9140625,0.1020508,-0.2412109,-0.2416992,-0.1630859
1179,0.5,7.625,-153.5,0.7099609,1.053711,0.08251953,-0.2319336,-0.2529297,-0.1630859
1183,1.0625,-15.25,-157.375,0.6210938,0.7895508,0.04443359,-0.2270508,-0.2607422,-0.1630859
1187,11,-35.25,-145.4375,0.7177734,0.8984375,-0.005371094,-0.2172852,-0.2729492,-0.1616211
1191,16.75,-33.25,-132.75,0.8730469,0.8286133,-0.03222656,-0.2089844,-0.2807617,-0.1577148
1195,23.5,-10.1875,-124.4375,0.9116211,0.9179688,-0.01318359,-0.2055664,-0.2905273,-0.1577148
1199,19.8125,20.0625,-125.0625,0.8110352,0.9414063,0.001953125,-0.1962891,-0.2993164,-0.1547852
1203,13.875,41.125,-142.1875,0.5395508,1.12793,0.04785156,-0.184082,-0.3081055,-0.15625
1207,8.8125,18.1875,-152.1875,0.2875977,0.9916992,0.009765625,-0.1757813,-0.3144531,-0.15625
1211,18.9375,-14.3125,-144.6875,0.4311523,1.015137,-0.005371094,-0.1625977,-0.3242188,-0.1577148
1215,24.1875,-18.3125,-139,0.6289063,1.038574,0.009765625,-0.1518555,-0.3330078,-0.15625
1219,27.4375,-5.875,-130.6875,0.6831055,0.9995117,-0.01660156,-0.1450195,-0.3393555,-0.1538086
1223,29.5,17.4375,-130.375,0.675293,1.057617,0.01367188,-0.1342773,-0.3457031,-0.1494141
1227,27.3125,38.8125,-140.9375,0.5126953,1.088867,0.02490234,-0.1201172,-0.3491211,-0.1494141
1232,25.75,43.4375,-149.875,0.3149414,1.077148,0.02880859,-0.1113281,-0.3569336,-0.1508789
1236,25.875,17.875,-149.5,0.1445313,1.189941,0.04785156,-0.09472656,-0.3618164,-0.1484375
1240,24.25,-11.9375,-136.125,0.2607422,1.205566,0.05957031,-0.08203125,-0.3681641,-0.1469727
1244,24.125,-23.625,-120.75,0.4931641,1.186035,0.05566406,-0.07226563,-0.3706055,-0.1425781
1248,23.1875,-15.125,-109.375,0.6518555,1.225098,0.02490234,-0.06396484,-0.3745117,-0.1425781
1252,23.6875,-9.375,-92.75,0.6132813,1.267578,0.07910156,-0.05322266,-0.3769531,-0.1401367
1256,14.625,-13.25,-67.4375,0.6518555,1.337402,0.105957,-0.04736328,-0.3779297,-0.1386719
1260,3.6875,-10.375,-37.625,0.7451172,1.298828,0.1171875,-0.04394531,-0.3803711,-0.137207
1264,-2.875,1.3125,-13.875,0.7255859,1.13916,0.08642578,-0.04003906,-0.3803711,-0.1386719
1268,-4.8125,5.375,0.5,0.5820313,1.09668,0.06347656,-0.04003906,-0.3818359,-0.137207
1272,-6,-5.5625,14.9375,0.4775391,1.045898,0.07910156,-0.0390625,-0.3818359,-0.1401367
1276,-6.375,-15.25,28.4375,0.5473633,1.034668,0.05175781,-0.04492188,-0.3803711,-0.1401367
1280,-7.5625,-7,35.875,0.6171875,1.049805,0.05957031,-0.04394531,-0.3793945,-0.1401367
1284,-12.9375,2.625,42.3125,0.5629883,1.081055,0.04443359,-0.04833984,-0.3769531,-0.1416016
1288,-14.3125,5.875,47.0625,0.4736328,1.100586,0.03662109,-0.05322266,-0.3779297,-0.1416016
1292,-16.9375,-0.625,52.9375,0.4350586,1.116211,0.05175781,-0.05566406,-0.3769531,-0.1416016
1296,-19.125,-11.4375,64.75,0.4697266,1.150879,0.06738281,-0.06054688,-0.3745117,-0.144043
1300,-23.25,-18.25,79.375,0.5551758,1.13916,0.05957031,-0.06884766,-0.371582,-0.1469727
1304,-23.9375,-18.8125,92.5625,0.6401367,1.12793,0.02099609,-0.07470703,-0.3691406,-0.1469727
1308,-21.875,-18.5625,107,0.6791992,1.154785,0.009765625,-0.08398438,-0.3657227,-0.1484375
1312,-21,-11.875,123.5,0.7719727,1.174316,0.02099609,-0.09375,-0.3618164,-0.1494141
1316,-24.25,-2.1875,138.1875,0.8457031,1.255859,0.04443359,-0.1020508,-0.359375,-0.1508789
1320,-29,7.5625,147.5625,0.8110352,1.225098,0.04785156,-0.1152344,-0.3544922,-0.1508789
1324,-26.3125,8.875,155.5,0.7568359,1.20166,0.04785156,-0.1293945,-0.3442383,-0.1538086
1328,-19.5625,1.0625,169.8125,0.7915039,1.20166,0.05175781,-0.1376953,-0.3393555,-0.15625
1332,-12.9375,-11.75,187.125,0.8222656,1.248047,0.07910156,-0.1533203,-0.3320313,-0.1577148
1336,-8.4375,-23.375,206.5625,0.9423828,1.283203,0.09033203,-0.1699219,-0.3193359,-0.1577148
1340,-6.9375,-23.6875,223.1875,1.066406,1.325684,0.09423828,-0.1816406,-0.3095703,-0.15625
1344,-7.625,-13.25,241.4375,1.268066,1.349121,0.09033203,-0.199707,-0.2954102,-0.1547852
1348,-10.125,13.75,255.4375,1.326172,1.294922,0.04443359,-0.2172852,-0.2783203,-0.1547852
1352,-13.25,35.25,268.1875,1.194336,1.353027,0.02490234,-0.2270508,-0.2641602,-0.1547852
1356,-14.6875,35.625,278.9375,1.043457,1.240234,0.005859375,-0.2412109,-0.2431641,-0.1591797
1361,-7.5625,26.625,292.125,1.012207,1.162598,-0.01660156,-0.2568359,-0.2207031,-0.1645508
1365,-3.0625,24.0625,298.625,1.163574,1.182129,0.01367188,-0.2636719,-0.2016602,-0.1616211
1369,-2.8125,31.8125,301.0625,1.121094,1.135742,0.02880859,-0.2758789,-0.1757813,-0.1645508
1373,-4.75,42.3125,309.6875,1.256348,1.112305,0.04785156,-0.2841797,-0.1494141,-0.168457
1377,-8.25,78.375,316.25,1.337891,1.049805,0.01708984,-0.2890625,-0.1318359,-0.1713867
1381,-14.875,111.5,315.8125,1.140137,1.015137,-0.03613281,-0.2915039,-0.1030273,-0.1796875
1385,-21.0625,118.5,313.25,0.7954102,0.9453125,-0.05126953,-0.2890625,-0.07080078,-0.1889648
1389,-18.9375,93.0625,311.875,0.4892578,0.7817383,0.001953125,-0.2866211,-0.05322266,-0.1972656
1393,-15.875,58.75,310.5,0.5200195,0.5878906,0.03662109,-0.2807617,-0.02587891,-0.2041016
1397,-8.125,48.0625,309.625,0.7373047,0.5683594,0.105957,-0.2768555,0.001464844,-0.206543
1401,-16.6875,71.3125,299,0.8574219,0.5292969,0.1098633,-0.2709961,0.02148438,-0.2109375
1405,-19.25,98.1875,284.3125,0.7641602,0.4750977,0.09814453,-0.2578125,0.04638672,-0.2148438
1409,-23.625,100.6875,275.125,0.5898438,0.4243164,0.1132813,-0.2446289,0.06982422,-0.2231445
1413,-23.9375,78.8125,279.6875,0.4311523,0.2299805,0.1557617,-0.2329102,0.08496094,-0.2299805
1417,-24.25,57.6875,281.5625,0.4428711,0.2070313,0.1674805,-0.21875,0.1049805,-0.2324219
1421,-19.375,47.1875,279.4375,0.4233398,0.06689453,0.1748047,-0.2006836,0.1235352,-0.2368164
1425,-20.75,52.125,256.9375,0.625,0.21875,0.2558594,-0.1889648,0.1376953,-0.2353516
1429,-35.875,76.375,234.4375,0.6171875,0.05908203,0.2597656,-0.1708984,0.1538086,-0.237793
1433,-39.0625,94.5625,232.625,0.6362305,0.01269531,0.2290039,-0.1518555,0.1660156,-0.2392578
1437,-44.125,99.6875,235.6875,0.2529297,-0.1381836,0.1904297,-0.1376953,0.1772461,-0.2436523
1441,-43.375,75.1875,241.125,-0.2426758,-0.3520508,0.1479492,-0.1162109,0.1884766,-0.2460938
1445,-36.0625,45.375,229.9375,-0.4985352,-0.519043,0.1635742,-0.09375,0.1987305,-0.2436523
1449,-29.0625,39,204.375,-0.6376953,-0.5463867,0.01367188,-0.07958984,0.2050781,-0.2436523
1453,-23.3125,60.75,160.5,-0.8354492,-0.6591797,-0.09765625,-0.06396484,0.2099609,-0.2407227
1457,-15.375,73.8125,101.9375,-1.261719,-0.7641602,-0.1630859,-0.04980469,0.2138672,-0.2421875
1461,-4,42.4375,45.0625,-1.529297,-0.8183594,-0.1245117,-0.04150391,0.2148438,-0.2421875
1465,7.25,-4.9375,-2.9375,-1.246094,-0.7719727,-0.005371094,-0.03662109,0.2138672,-0.2421875
1469,5.6875,-31.5,-44.625,-0.7036133,-0.581543,0.1289063,-0.0390625,0.2124023,-0.2436523
1473,-1.375,-45.0625,-70.75,-0.2890625,-0.6083984,0.2250977,-0.04492188,0.2148438,-0.2421875
1477,-6.125,-49.75,-87.1875,0.07470703,-0.6162109,0.2944336,-0.05322266,0.2114258,-0.2436523
1481,-9.5,-52.625,-89,0.2915039,-0.6860352,0.3017578,-0.06152344,0.2124023,-0.2392578
1485,-8.5,-53.625,-79,0.3305664,-0.7680664,0.2402344,-0.06982422,0.2114258,-0.237793
1490,-1.5625,-53.4375,-77.1875,0.2104492,-0.9194336,0.1787109,-0.07958984,0.2099609,-0.2368164
1494,8.4375,-58.125,-83.625,0.1674805,-0.8686523,0.1674805,-0.08789063,0.2075195,-0.2368164
1498,13.6875,-54.5625,-94.3125,0.206543,-0.8457031,0.1904297,-0.09619141,0.2060547,-0.2353516
1502,12.8125,-48.125,-104.0625,0.2993164,-0.6860352,0.2480469,-0.1054688,0.2026367,-0.2324219
1506,12.875,-45.1875,-107.4375,0.3266602,-0.7094727,0.2944336,-0.1176758,0.1987305,-0.230957
1510,12,-47.6875,-106.0625,0.3149414,-0.6552734,0.2788086,-0.1235352,0.1962891,-0.2324219
1514,13.3125,-52.1875,-106.875,0.3417969,-0.6708984,0.2133789,-0.1342773,0.1884766,-0.2324219
1518,15.5,-26.3125,-123.75,0.6054688,-0.5854492,0.2133789,-0.1435547,0.1835938,-0.2285156
1522,14.3125,4,-136.875,0.6674805,-0.6123047,0.2441406,-0.1508789,0.1787109,-0.2285156
1526,14.6875,16.5625,-145.4375,0.6713867,-0.4570313,0.3134766,-0.1601563,0.1723633,-0.2299805
1530,9,-3.1875,-125.1875,0.4853516,-0.5698242,0.3364258,-0.168457,0.1650391,-0.2324219
1534,17.8125,-51.1875,-106.375,0.3339844,-0.5966797,0.2675781,-0.1733398,0.1577148,-0.2299805
1538,23.375,-79,-97.9375,0.4892578,-0.6513672,0.2060547,-0.1816406,0.1513672,-0.2270508
1542,28.3125,-69.375,-103.8125,0.690918,-0.5620117,0.1865234,-0.1962891,0.1435547,-0.2255859
1546,18.8125,-26.375,-139.6875,0.8183594,-0.2666016,0.3095703,-0.2006836,0.1376953,-0.2246094
1550,-2.5,-11.75,-154.8125,0.7021484,-0.3208008,0.3364258,-0.2089844,0.1289063,-0.2255859
1554,0.875,-18.5625,-143.3125,0.6791992,-0.4335938,0.3017578,-0.2172852,0.1186523,-0.2246094
1558,6.8125,-23.3125,-131.5625,0.6557617,-0.453125,0.2519531,-0.2236328,0.1113281,-0.2231445
1562,19.25,-22.8125,-121.75,0.574707,-0.550293,0.1479492,-0.2304688,0.1010742,-0.2202148
1566,33.75,-19.4375,-131.625,0.543457,-0.371582,0.1713867,-0.2363281,0.09130859,-0.21875
1570,27.125,-25.8125,-151.3125,0.6054688,-0.04541016,0.2480469,-0.2426758,0.08251953,-0.2202148
1574,5.25,-28.5625,-173.25,0.7954102,0.07861328,0.2905273,-0.2509766,0.06982422,-0.21875
1578,-6.5,-41.125,-174.125,0.8110352,-0.02978516,0.2480469,-0.2568359,0.05615234,-0.2163086
1582,-0.8125,-46,-155.5625,1.016113,-0.2392578,0.159668,-0.2602539,0.04882813,-0.2133789
1586,15.3125,-21.75,-143.0625,0.9892578,-0.1191406,0.1328125,-0.2675781,0.03515625,-0.2094727
1590,34.4375,-1.3125,-141,0.7915039,-0.1420898,0.1132813,-0.2724609,0.02148438,-0.2109375
1594,27.875,-1.875,-164.375,0.7060547,0.1757813,0.1865234,-0.2709961,0.01123047,-0.2094727
1598,15.8125,-31.625,-175,0.690918,0.2768555,0.2597656,-0.2744141,-0.004394531,-0.2080078
1602,6.1875,-59.625,-172.375,0.9116211,0.2495117,0.2172852,-0.2783203,-0.01806641,-0.2055664
1606,9.4375,-59.4375,-157.375,1.151855,0.1020508,0.1289063,-0.2817383,-0.02929688,-0.199707
1610,23.875,-30.1875,-137.3125,1.202148,-0.04882813,0.07128906,-0.2841797,-0.04296875,-0.1987305
1614,43.6875,-5.875,-132.0625,0.8842773,0.07861328,0.08251953,-0.2851563,-0.05712891,-0.1943359
1619,34.6875,-15.1875,-161.125,0.6635742,0.6499023,0.2094727,-0.2841797,-0.06835938,-0.1958008
1623,3.125,-41.4375,-186.9375,0.8261719,0.7001953,0.2250977,-0.2851563,-0.08300781,-0.1943359
1627,-5.4375,-63.125,-184.9375,1.132324,0.5913086,0.1982422,-0.2866211,-0.09960938,-0.1865234
1631,-4.625,-53.875,-159.875,1.46582,0.4013672,0.125,-0.2851563,-0.1108398,-0.1835938
1635,6.8125,-7,-139.8125,1.531738,0.3193359,0.08251953,-0.2841797,-0.1254883,-0.1806641
1639,18.5,44.25,-132.6875,1.283691,0.2109375,0.05957031,-0.2792969,-0.1367188,-0.1821289
1643,25.875,67.8125,-144.875,0.7451172,0.4399414,0.09423828,-0.2768555,-0.1469727,-0.1865234
1647,16.8125,14.25,-159.375,0.206543,0.6342773,0.144043,-0.2685547,-0.1606445,-0.1889648
1651,23.3125,-67.5625,-150.125,0.5820313,0.6655273,0.1826172,-0.2651367,-0.1757813,-0.1875
1655,20.875,-94.8125,-134.4375,1.066406,0.7587891,0.140625,-0.2636719,-0.1831055,-0.1821289
1659,20.0625,-65.3125,-122.6875,1.372559,0.6381836,0.1098633,-0.2636719,-0.1943359,-0.1738281
1663,23.625,-14.0625,-115,1.306641,0.5371094,0.05566406,-0.2592773,-0.2070313,-0.168457
1667,31.25,29.6875,-120.125,1.012207,0.6342773,0.08642578,-0.2543945,-0.2143555,-0.168457
1671,15.8125,45.625,-143.6875,0.5898438,0.8286133,0.07128906,-0.2485352,-0.2255859,-0.1713867
1675,12.75,-1.3125,-147,0.3149414,0.7197266,0.06738281,-0.2387695,-0.2368164,-0.1728516
1679,24.25,-43.1875,-138.25,0.6401367,0.7431641,0.05566406,-0.234375,-0.2456055,-0.1699219
1683,24.25,-39.1875,-132.6875,0.8730469,0.8364258,0.04052734,-0.2280273,-0.2568359,-0.1660156
1687,27.125,-13.375,-133.4375,0.8842773,0.8286133,0.04052734,-0.2197266,-0.2695313,-0.1630859
1691,22.875,17.125,-142.9375,0.8183594,0.9453125,0.04785156,-0.215332,-0.2753906,-0.1606445
1695,16.5625,37.9375,-155.375,0.6635742,0.9335938,0.03271484,-0.2045898,-0.2866211,-0.1616211
1699,18.8125,35.6875,-161,0.4506836,0.9101563,0.03271484,-0.1923828,-0.2983398,-0.1645508
1703,24.625,14.125,-156.9375,0.3535156,0.9643555,0.02490234,-0.1831055,-0.3066406,-0.1645508
1707,32.0625,0.0625,-153.9375,0.4506836,1.034668,0.005859375,-0.1708984,-0.3178711,-0.1660156
1711,29.4375,3,-162.1875,0.5512695,1.12793,-0.02832031,-0.1567383,-0.3266602,-0.1606445
1715,23.9375,21.3125,-172.8125,0.5859375,1.162598,-0.009277344,-0.1450195,-0.3320313,-0.1591797
1719,18.9375,26.8125,-180.75,0.4853516,1.12793,0.02099609,-0.1318359,-0.3432617,-0.1606445
1723,21.9375,13.1875,-178.5,0.3925781,1.13916,0.01367188,-0.1137695,-0.3505859,-0.1591797
1727,26.75,-6.875,-169.3125,0.4892578,1.162598,0.02099609,-0.1044922,-0.3554688,-0.15625
1731,31.3125,-13.5625,-157,0.7177734,1.174316,0.02099609,-0.08789063,-0.3618164,-0.15625
1735,33.875,-5.4375,-134.3125,0.8730469,1.174316,0.09033203,-0.07568359,-0.3666992,-0.1523438
1739,29.6875,4.625,-109.3125,0.8999023,1.267578,0.1865234,-0.06738281,-0.3691406,-0.1523438
1743,18.8125,4.5625,-83.1875,0.8613281,1.228516,0.2519531,-0.05664063,-0.371582,-0.1484375
1748,14.6875,-3.8125,-52.875,0.8769531,1.135742,0.2827148,-0.05078125,-0.3769531,-0.1469727
1752,12.9375,-8.25,-20.9375,0.8920898,1.124023,0.3017578,-0.04736328,-0.3754883,-0.1469727
1756,8.9375,-5.1875,5.625,0.9038086,1.120117,0.3212891,-0.04833984,-0.3769531,-0.1455078
1760,0.875,5.1875,21.5625,0.7719727,1.131836,0.3212891,-0.04833984,-0.3769531,-0.144043
1764,-7.125,1.8125,32.0625,0.5859375,1.150879,0.2866211,-0.05224609,-0.3769531,-0.144043
1768,-16.625,-9.75,39.0625,0.5395508,1.124023,0.2250977,-0.05322266,-0.3730469,-0.1455078
1772,-18.75,-21.0625,49.4375,0.5859375,1.073242,0.1557617,-0.05810547,-0.3745117,-0.1469727
1776,-21.4375,-27,60.5,0.6713867,1.108398,0.07910156,-0.06298828,-0.371582,-0.1484375
1780,-23.75,-29.125,78.375,0.690918,1.088867,0.05957031,-0.06884766,-0.3706055,-0.1494141
1784,-23.0625,-31.25,91.875,0.7255859,1.108398,0.03271484,-0.078125,-0.3681641,-0.1494141
1788,-23.0625,-31.375,104.9375,0.7875977,1.154785,0.05175781,-0.08544922,-0.3657227,-0.1508789
1792,-25.375,-24.5625,119.625,0.8613281,1.193848,0.06738281,-0.09716797,-0.3603516,-0.1523438
1796,-29.875,-13.875,131.3125,0.8613281,1.232422,0.04443359,-0.109375,-0.3544922,-0.1538086
1800,-30.5625,-5.875,142.6875,0.8803711,1.186035,0.03662109,-0.1162109,-0.3481445,-0.1547852
1804,-28.5625,-0.8125,156.75,0.8769531,1.240234,0.05957031,-0.128418,-0.3432617,-0.15625
1808,-28,-4.625,175.875,0.8769531,1.275391,0.08251953,-0.1459961,-0.3344727,-0.1591797
1812,-26.8125,-5.5625,191,0.9038086,1.244141,0.06738281,-0.1557617,-0.328125,-0.1591797
1816,-22.6875,1,199.125,0.9423828,1.244141,0.05175781,-0.1699219,-0.3154297,-0.1616211
1820,-21.0625,10.75,203.8125,0.9541016,1.259766,0.05957031,-0.1855469,-0.3017578,-0.1606445
1824,-22.8125,17.4375,205.8125,1.004395,1.32959,0.1098633,-0.1962891,-0.2944336,-0.1645508
1828,-30.9375,24.8125,217.6875,1.047363,1.298828,0.1289063,-0.2089844,-0.2783203,-0.1645508
1832,-30.4375,27.625,236.8125,0.9853516,1.174316,0.1098633,-0.222168,-0.2592773,-0.168457
1836,-28.625,22.375,244.8125,0.8999023,1.146973,0.09423828,-0.2304688,-0.2470703,-0.1738281
1840,-26.0625,17.4375,255,0.8920898,1.04248,0.08251953,-0.2436523,-0.2270508,-0.1767578
1844,-23.75,16.25,253.25,0.9658203,1.06543,0.07519531,-0.2553711,-0.2070313,-0.1796875
1848,-26.875,23.4375,252.6875,1.039551,1.06543,0.08642578,-0.2602539,-0.1918945,-0.1782227
1852,-23.5625,31.625,261.75,1.13623,0.9995117,0.105957,-0.2700195,-0.1679688,-0.1821289
1856,-26.3125,48.375,271.875,1.159668,0.9956055,0.1132813,-0.2758789,-0.1430664,-0.1835938
1860,-32.8125,70.875,271.9375,1.066406,0.9453125,0.105957,-0.2768555,-0.1254883,-0.1904297
1864,-34.5,86.0625,273.5625,0.9423828,0.8208008,0.07910156,-0.2792969,-0.1020508,-0.1972656
1868,-33.4375,83.8125,271.4375,0.675293,0.7895508,0.1171875,-0.2792969,-0.07421875,-0.2041016
1872,-37.875,58.875,267.9375,0.6054688,0.7080078,0.1479492,-0.2758789,-0.05810547,-0.2094727
1877,-36.625,44.875,267.0625,0.6557617,0.5136719,0.140625,-0.2734375,-0.03564453,-0.2109375
1881,-31.5,51.625,263.5,0.7836914,0.4438477,0.159668,-0.2700195,-0.009277344,-0.2163086
1885,-36.25,73.125,254,0.6870117,0.4516602,0.159668,-0.2675781,0.006347656,-0.2202148
1889,-50.3125,91.3125,231.5,0.5668945,0.4985352,0.2402344,-0.2553711,0.02880859,-0.2231445
1893,-74.3125,88.375,198.375,0.2875977,0.5019531,0.3017578,-0.2460938,0.04980469,-0.2324219
1897,-95.1875,39.375,188.625,0.09033203,0.2885742,0.3330078,-0.2387695,0.0625,-0.2338867
1901,-88.875,-48.5625,223.6875,0.06689453,-0.04150391,0.3017578,-0.2319336,0.08642578,-0.2299805
1905,-61.5625,-95.875,246.5625,0.5551758,-0.1772461,0.3017578,-0.2270508,0.1064453,-0.2231445
1909,-55.375,-55.75,217.8125,0.9272461,-0.1499023,0.2060547,-0.222168,0.1225586,-0.2163086
1913,-64.4375,-3.6875,191.6875,0.8071289,-0.1269531,0.2021484,-0.2128906,0.1401367,-0.2109375
1917,-62.8125,19.25,189.375,0.675293,-0.324707,0.159668,-0.203125,0.1547852,-0.2080078
1921,-55.25,33.5625,189.5,0.4506836,-0.421875,0.08642578,-0.1948242,0.1660156,-0.2055664
1925,-49.4375,12.9375,192.4375,0.1791992,-0.3911133,0.1098633,-0.1791992,0.1801758,-0.2055664
1929,-43.3125,-21.125,198.5625,0.1987305,-0.5927734,0.105957,-0.1674805,0.1914063,-0.2026367
1933,-29.875,-25.75,197.25,0.3032227,-0.5966797,0.01367188,-0.1582031,0.2001953,-0.199707
1937,-24.625,2.1875,182.75,0.3613281,-0.6279297,-0.05126953,-0.1435547,0.2099609,-0.1972656
1941,-18.5,53.9375,176.4375,0.2797852,-0.6240234,-0.112793,-0.1293945,0.2197266,-0.1958008
1945,-20.375,110.1875,154.1875,-0.08789063,-0.7329102,-0.1474609,-0.1186523,0.2250977,-0.1972656
1949,-13.6875,136.5,121.3125,-0.6572266,-0.8027344,-0.1401367,-0.1010742,0.2314453,-0.1987305
1953,-5.4375,112.3125,82.6875,-1.172852,-0.8457031,-0.1591797,-0.08544922,0.2348633,-0.2041016
1957,2.75,54.5,31.3125,-1.358887,-0.8339844,-0.07861328,-0.07568359,0.2363281,-0.2041016
1961,5.8125,-6.875,-23.25,-1.044922,-0.7602539,0.03271484,-0.07324219,0.2348633,-0.2055664
1965,8.6875,-34.875,-60,-0.5024414,-0.7641602,0.1132813,-0.07568359,0.2348633,-0.2055664
1969,10.25,-37,-83.875,-0.1069336,-0.6552734,0.1713867,-0.08300781,0.2324219,-0.206543
1973,6.5,-37.75,-93.5,0.1635742,-0.6669922,0.1557617,-0.09228516,0.2314453,-0.206543
1977,9,-28.625,-93.3125,0.3535156,-0.7485352,0.1098633,-0.1010742,0.2275391,-0.206543
1981,14.375,-17.0625,-96.8125,0.3959961,-0.7290039,0.1132813,-0.1069336,0.2250977,-0.2041016
1985,12,-7.125,-103.1875,0.4155273,-0.7485352,0.09814453,-0.1137695,0.2211914,-0.2055664
1989,15.8125,-8.625,-103.125,0.3457031,-0.7949219,0.1518555,-0.1259766,0.2163086,-0.2055664
1993,22.25,-23.625,-96.625,0.3266602,-0.7602539,0.1826172,-0.1293945,0.2124023,-0.2055664
1997,23.125,-25.0625,-97.8125,0.3959961,-0.7290039,0.1635742,-0.1376953,0.2075195,-0.2080078
2001,23.125,-15.25,-110,0.3925781,-0.6860352,0.1674805,-0.1474609,0.2001953,-0.206543
2006,24,-13.5625,-117.25,0.3652344,-0.6669922,0.1674805,-0.1533203,0.1972656,-0.2080078
2010,25.75,-13.5,-125.75,0.3847656,-0.5927734,0.1982422,-0.1640625,0.1899414,-0.2094727
2014,22.8125,-23.5,-136.75,0.3032227,-0.5073242,0.2519531,-0.1723633,0.1811523,-0.2109375
2018,22.9375,-48.125,-129.25,0.3613281,-0.5112305,0.1982422,-0.1806641,0.1748047,-0.2080078
2022,28.3125,-55.8125,-128.0625,0.5087891,-0.5463867,0.144043,-0.1899414,0.1660156,-0.206543
2026,33.5,-40.875,-133.4375,0.6635742,-0.46875,0.09423828,-0.2045898,0.15625,-0.206543
2030,32.3125,-14,-147.8125,0.690918,-0.3442383,0.1132813,-0.2089844,0.1489258,-0.206543
2034,20.5625,10.9375,-172.0625,0.6518555,-0.1811523,0.1674805,-0.2172852,0.1386719,-0.206543
2038,11.75,-1.3125,-176,0.4814453,-0.2353516,0.1943359,-0.2270508,0.125,-0.2094727
2042,22.8125,-48.4375,-168.75,0.4038086,-0.324707,0.1787109,-0.2319336,0.1176758,-0.2080078
2046,40.6875,-91.1875,-145.625,0.6401367,-0.3833008,0.07910156,-0.2412109,0.1035156,-0.2055664
2050,61.6875,-88.125,-124.0625,0.9541016,-0.421875,0.01708984,-0.2543945,0.08886719,-0.1987305
2054,73.375,-44.625,-131.0625,1.023926,-0.03759766,0.1328125,-0.2578125,0.08007813,-0.1972656
2058,22.5625,11.5625,-190.6875,1.004395,0.5488281,0.2519531,-0.2651367,0.06396484,-0.1987305
2062,-16.875,26.9375,-209.25,0.7451172,0.02832031,0.2211914,-0.2700195,0.04882813,-0.199707
2066,7.625,-21.75,-196.75,0.559082,-0.1694336,0.1904297,-0.2724609,0.03613281,-0.199707
2070,32.25,-72.6875,-167.625,0.8071289,-0.1035156,0.09033203,-0.2768555,0.01757813,-0.1972656
2074,50.0625,-70.0625,-138.625,1.16748,-0.1967773,-0.001464844,-0.2851563,0.001464844,-0.1889648
2078,81.4375,-28.5,-115.3125,1.132324,-0.2314453,-0.04736328,-0.2890625,-0.008300781,-0.1875
2082,81.25,24.875,-158.0625,0.9462891,0.7431641,0.2827148,-0.2890625,-0.02197266,-0.1875
2086,-16.9375,36.75,-234.3125,0.559082,0.9682617,0.1865234,-0.2875977,-0.04296875,-0.1918945
2090,-21.5625,-30.6875,-225.625,0.5898438,0.1796875,0.2172852,-0.2875977,-0.0546875,-0.1918945
2094,24.9375,-86.375,-196.125,0.9462891,0.2299805,0.09423828,-0.2900391,-0.07421875,-0.1875
2098,32,-80.5625,-168.4375,1.411621,0.3935547,0.05566406,-0.2890625,-0.09179688,-0.1806641
2102,35.5625,-22.125,-150.75,1.450195,0.2265625,0.005859375,-0.2924805,-0.1044922,-0.1738281
2106,55.75,27.0625,-135.6875,1.055176,0.1523438,-0.02832031,-0.2900391,-0.1181641,-0.1738281
2110,52.875,31.875,-168.8125,0.3847656,0.8789063,0.1557617,-0.2851563,-0.1333008,-0.175293
2114,2.5,-49.375,-213.6875,0.2255859,0.987793,0.07910156,-0.2817383,-0.1479492,-0.175293
2118,8.6875,-119.5625,-208.625,0.7373047,0.6884766,0.06347656,-0.2792969,-0.1655273,-0.1713867
2122,25.1875,-134.5625,-189.6875,1.326172,0.7236328,0.005859375,-0.2758789,-0.1870117,-0.1591797
2126,23.4375,-85.625,-172.625,1.663574,0.8286133,0.06347656,-0.2758789,-0.1958008,-0.1484375
2130,11.5625,-6.9375,-146.0625,1.659668,0.6845703,0.03271484,-0.2675781,-0.2104492,-0.1455078
2135,13.0625,61.3125,-145.4375,1.268066,0.7197266,0.05175781,-0.2617188,-0.2216797,-0.1455078
2139,-2.4375,86.875,-160.4375,0.6479492,0.890625,0.02880859,-0.2543945,-0.2319336,-0.1494141
2143,-4.375,18.625,-167.875,0.1367188,0.6694336,-0.01318359,-0.2412109,-0.2456055,-0.1538086
2147,30.5625,-55.5,-152.625,0.5087891,0.6069336,0.02490234,-0.2319336,-0.2568359,-0.1538086
2151,39.875,-66,-140.3125,0.9311523,0.9101563,0.02490234,-0.2304688,-0.2680664,-0.1494141
2155,33,-30.3125,-133.5,1.132324,0.9799805,0.09423828,-0.222168,-0.2807617,-0.144043
2159,21.5,14.5625,-134.625,1.066406,1.100586,0.1289063,-0.2128906,-0.2905273,-0.1401367
2163,-1.625,52.875,-146.6875,0.8496094,1.131836,0.09814453,-0.206543,-0.2993164,-0.1401367
2167,-7.3125,68,-153.3125,0.6210938,0.8984375,0.01367188,-0.1938477,-0.3081055,-0.144043
2171,6.75,53.75,-150.0625,0.4038086,0.824707,-0.06298828,-0.1782227,-0.3178711,-0.1494141
2175,25.9375,32.4375,-147.8125,0.3808594,0.9140625,-0.05908203,-0.1699219,-0.3217773,-0.1508789
2179,33.5,17.3125,-144.9375,0.4541016,1.022949,-0.02050781,-0.1557617,-0.3320313,-0.1508789
2183,36.625,13.8125,-140.875,0.5126953,1.12793,0.02880859,-0.1450195,-0.3432617,-0.1469727
2187,31.1875,15.3125,-139.75,0.5317383,1.217285,0.03662109,-0.1328125,-0.3457031,-0.1469727
2191,22.125,16.25,-137.1875,0.5161133,1.244141,0.04052734,-0.1201172,-0.3520508,-0.1455078
2195,19.75,8.875,-129.75,0.4814453,1.116211,0.03271484,-0.109375,-0.3579102,-0.1416016
2199,24.3125,-1.4375,-122.125,0.4931641,1.146973,0.01367188,-0.09960938,-0.3618164,-0.1425781
2203,25,-11.875,-110.3125,0.5708008,1.178223,0.009765625,-0.08789063,-0.3681641,-0.1425781
2207,25.0625,-19.75,-90.875,0.59375,1.209473,0.06347656,-0.07958984,-0.371582,-0.137207
2211,18.4375,-26.6875,-76.25,0.675293,1.267578,0.08642578,-0.07324219,-0.3745117,-0.1357422
2215,8.75,-20.375,-61,0.7602539,1.158691,0.07128906,-0.06982422,-0.3754883,-0.1347656
2219,7.75,-9.25,-46.5625,0.8032227,1.069336,0.04052734,-0.06298828,-0.3769531,-0.1333008
2223,6.9375,4.25,-30.6875,0.7451172,1.04248,0.05957031,-0.06152344,-0.3769531,-0.1347656
2227,2.625,9.625,-17.5625,0.644043,1.081055,0.08642578,-0.05908203,-0.3779297,-0.1318359
2231,-3.3125,1.8125,-5.5,0.5512695,1.045898,0.08642578,-0.05664063,-0.3793945,-0.1333008
2235,-3.125,-9.4375,6.8125,0.574707,1.030762,0.06738281,-0.05664063,-0.3779297,-0.1333008
2239,-5.6875,-12.3125,17.9375,0.5976563,1.053711,0.04443359,-0.05908203,-0.3793945,-0.1318359
2243,-9.6875,-7.625,24.125,0.5976563,1.084961,0.05175781,-0.05908203,-0.3779297,-0.1347656
2247,-17.625,-3.3125,28.75,0.5395508,1.057617,0.04785156,-0.06298828,-0.3779297,-0.1357422
2251,-17.5625,-3.625,36.6875,0.4814453,1.01123,0.03271484,-0.06640625,-0.3769531,-0.1357422
2255,-20.5625,-5.8125,41.6875,0.4970703,1.045898,0.02490234,-0.06884766,-0.3745117,-0.1386719
2259,-20.75,-6.5625,49.3125,0.4697266,1.015137,0.03662109,-0.07226563,-0.3730469,-0.1386719
2264,-21,-8.125,52.4375,0.5126953,1.06543,0.03271484,-0.07568359,-0.3706055,-0.1416016
2268,-24.9375,-4.375,54.875,0.5473633,1.108398,0.02490234,-0.08203125,-0.3691406,-0.1425781
2272,-26.875,-6.75,62.5625,0.559082,1.088867,0.009765625,-0.08642578,-0.3681641,-0.1425781
2276,-21.4375,-12.5,75.5,0.625,1.06543,-0.001464844,-0.09375,-0.3657227,-0.1455078
2280,-21.3125,-16.5,89.875,0.7060547,1.124023,-0.01660156,-0.1010742,-0.3618164,-0.1455078
2284,-24,-13.4375,104.375,0.7993164,1.158691,-0.01318359,-0.1069336,-0.359375,-0.1484375
2288,-19.4375,-9.375,121.4375,0.8457031,1.146973,-0.001464844,-0.1162109,-0.3530273,-0.1508789
2292,-19,-4.75,147.5,0.9233398,1.182129,0.01367188,-0.1293945,-0.3481445,-0.1508789
2296,-20.25,7.375,160.125,0.9775391,1.267578,0.05957031,-0.1391602,-0.3408203,-0.1508789
2300,-27.9375,20.5,168.8125,0.9272461,1.325684,0.1020508,-0.1533203,-0.3344727,-0.1523438
2304,-32.8125,18.25,184.4375,0.8457031,1.17041,0.07128906,-0.1665039,-0.3232422,-0.1577148
2308,-20.5625,8.1875,202.3125,0.8803711,1.100586,0.07128906,-0.1748047,-0.3144531,-0.1591797
2312,-17.3125,3.4375,212.6875,0.9892578,1.209473,0.08642578,-0.1899414,-0.2993164,-0.1591797
2316,-15.9375,13.5,222,1.128418,1.213379,0.07910156,-0.206543,-0.2832031,-0.1606445
2320,-14.375,30.3125,234.875,1.198242,1.154785,0.07910156,-0.215332,-0.2729492,-0.1616211
2324,-20.625,51.5,238.3125,1.182617,1.275391,0.06738281,-0.2304688,-0.2543945,-0.1660156
2328,-28.0625,72.0625,234.375,1.144043,1.17041,0.09423828,-0.2412109,-0.2358398,-0.1699219
2332,-32.75,79.9375,239.5625,0.9038086,1.100586,0.07519531,-0.2460938,-0.2216797,-0.1738281
2336,-30.625,49.625,251.5625,0.7216797,0.9414063,0.07910156,-0.2543945,-0.2006836,-0.1821289
2340,-22.3125,24.0625,256.9375,0.7719727,0.890625,0.09033203,-0.2626953,-0.1806641,-0.1835938
2344,-20.25,12.125,256.0625,0.9462891,0.8325195,0.105957,-0.2661133,-0.1645508,-0.1889648
2348,-18.5625,23.9375,252.75,1.147949,0.9375,0.1518555,-0.2744141,-0.1420898,-0.1904297
2352,-29.5625,51.25,249.1875,1.244629,0.8710938,0.1367188,-0.2783203,-0.1196289,-0.1928711
2356,-25.625,78,261.8125,1.171387,0.7041016,0.105957,-0.2807617,-0.1020508,-0.1958008
2360,-36.1875,110.25,256.0625,1.078125,0.855957,0.09423828,-0.2783203,-0.078125,-0.2026367
2364,-45.125,112.9375,244.8125,0.5551758,0.6186523,0.105957,-0.2744141,-0.0546875,-0.2148438
2368,-34.4375,64.25,257.5625,0.4541016,0.3857422,0.140625,-0.2700195,-0.03808594,-0.2202148
2372,-23.5,31.5625,257.375,0.7138672,0.4477539,0.1982422,-0.2636719,-0.01464844,-0.2246094
2376,-32.4375,51.125,251.3125,0.9501953,0.3857422,0.1787109,-0.2602539,0.006347656,-0.2255859
2380,-30.5625,80.0625,245,0.8535156,0.1953125,0.1098633,-0.2543945,0.02001953,-0.2270508
2384,-22.9375,94.1875,247.4375,0.6982422,0.15625,0.09033203,-0.2436523,0.04394531,-0.2353516
2388,-17.25,91.8125,249.25,0.5512695,0.07861328,0.09814453,-0.2304688,0.0625,-0.2421875
2393,-14.375,82.4375,238.125,0.4038086,0.09814453,0.1713867,-0.2211914,0.07617188,-0.2446289
2397,-20.25,58.3125,230.75,0.1870117,0.0009765625,0.2094727,-0.2055664,0.08984375,-0.25
2401,-14.125,19.75,234.3125,0.2915039,-0.1420898,0.2558594,-0.1938477,0.1074219,-0.2529297
2405,-6.0625,8.375,242.25,0.6479492,-0.2626953,0.2250977,-0.1875,0.1176758,-0.2529297
2409,7.5,34.1875,252.5,0.8691406,-0.3208008,0.1982422,-0.1748047,0.1298828,-0.2558594
2413,11.375,72.4375,242.0625,0.7216797,-0.08789063,0.2675781,-0.1567383,0.1450195,-0.2568359
2417,-13.0625,101.25,207.875,0.3305664,-0.1152344,0.2597656,-0.1435547,0.1499023,-0.2612305
2421,-25.0625,88.5625,179.1875,0.06689453,-0.3481445,0.2749023,-0.1245117,0.1586914,-0.2666016
2425,-27.125,53.75,180.6875,0.08642578,-0.1772461,0.2709961,-0.1079102,0.1674805,-0.2680664
2429,-16.5,20.5625,201.5625,0.07470703,-0.503418,0.3017578,-0.09863281,0.1723633,-0.2680664
2433,-17.125,22.3125,191.5,0.1328125,-0.4648438,0.3134766,-0.08203125,0.1787109,-0.2666016
2437,-20.1875,48.8125,162.9375,0.07470703,-0.519043,0.2597656,-0.06738281,0.1850586,-0.2666016
2441,-15.9375,73.5625,131.5625,-0.1420898,-0.6435547,0.1943359,-0.05810547,0.1860352,-0.2651367
2445,-10.75,86.625,106.625,-0.3745117,-0.6513672,0.1674805,-0.04394531,0.1914063,-0.2666016
2449,-9.375,79.0625,79.4375,-0.730957,-0.6552734,0.140625,-0.03076172,0.1914063,-0.269043
2453,-9.375,47.125,56.125,-0.9555664,-0.7211914,0.1171875,-0.0234375,0.1923828,-0.2651367
2457,-2.875,6.3125,34,-0.9169922,-0.7792969,0.1020508,-0.01757813,0.1923828,-0.2666016
2461,5.3125,-12.9375,4.625,-0.6884766,-0.7832031,0.1020508,-0.01513672,0.1923828,-0.2680664
2465,12.9375,-7.875,-28.9375,-0.4130859,-0.7329102,0.1943359,-0.01513672,0.1923828,-0.2651367
2469,11.5625,-0.8125,-57.75,-0.2851563,-0.6669922,0.2866211,-0.01855469,0.1914063,-0.2680664
2473,9.3125,-4.6875,-76.25,-0.1728516,-0.6630859,0.4018555,-0.0234375,0.1923828,-0.269043
2477,1.9375,-21,-76.5625,-0.06445313,-0.6044922,0.4711914,-0.02929688,0.1899414,-0.269043
2481,-1.625,-38.1875,-71.8125,0.01269531,-0.7329102,0.425293,-0.03515625,0.1884766,-0.2680664
2485,1.5,-46.125,-76,0.07470703,-0.7563477,0.375,-0.04394531,0.1899414,-0.2666016
2489,4.625,-45.0625,-82.75,0.1445313,-0.7602539,0.3520508,-0.05078125,0.1884766,-0.2680664
2493,4.3125,-31.625,-98.75,0.1987305,-0.6748047,0.3637695,-0.05664063,0.1860352,-0.2651367
2497,2,-19.9375,-112.0625,0.2568359,-0.6860352,0.3945313,-0.06738281,0.1850586,-0.2680664
2501,3.375,-12.5625,-112,0.2797852,-0.7211914,0.3671875,-0.07226563,0.1811523,-0.2651367
2505,14.25,-11.75,-105.375,0.3032227,-0.7792969,0.3330078,-0.08203125,0.1801758,-0.269043
2509,23.875,-5.4375,-107.875,0.2915039,-0.7055664,0.3134766,-0.08789063,0.1762695,-0.2680664
2513,25.75,-1.875,-119.8125,0.2568359,-0.6240234,0.3173828,-0.09619141,0.1723633,-0.2666016
2517,25.6875,-0.9375,-128.875,0.1713867,-0.5966797,0.3017578,-0.1044922,0.1650391,-0.2705078
2522,24.6875,-14.5,-141.0625,0.008789063,-0.519043,0.3364258,-0.112793,0.1586914,-0.269043
2526,19.75,-54.75,-142.875,-0.07617188,-0.4882813,0.3017578,-0.1186523,0.1547852,-0.2680664
2530,27.0625,-94.75,-133.1875,0.2138672,-0.5541992,0.3134766,-0.1328125,0.1459961,-0.2680664
2534,33.9375,-100.6875,-130.0625,0.5859375,-0.4067383,0.3056641,-0.1459961,0.1386719,-0.2636719
2538,22.6875,-56.375,-158.25,0.9155273,-0.2163086,0.3710938,-0.1567383,0.1347656,-0.2626953
2542,7.25,-0.0625,-183.375,0.8183594,-0.2939453,0.340332,-0.1674805,0.125,-0.2636719
2546,11.9375,-1.1875,-188.5,0.3847656,-0.402832,0.3671875,-0.1782227,0.1137695,-0.2626953
2550,14.4375,-48.4375,-175.75,0.3457031,-0.3286133,0.3212891,-0.1831055,0.1074219,-0.2636719
2554,22.25,-87.25,-161.125,0.5317383,-0.3481445,0.3481445,-0.1948242,0.09619141,-0.2612305
2558,28.9375,-108.0625,-142.3125,0.8803711,-0.3095703,0.2827148,-0.2080078,0.08251953,-0.2558594
2562,46.0625,-88.625,-121.875,1.155762,-0.4453125,0.2021484,-0.215332,0.07763672,-0.25
2566,63.875,-40.375,-108.6875,1.291504,-0.3017578,0.2021484,-0.2246094,0.0625,-0.2490234
2570,55.75,16,-122.6875,0.8842773,-0.03369141,0.2827148,-0.2304688,0.05273438,-0.2475586
2574,31.1875,-12.875,-147.9375,0.3535156,0.08251953,0.4018555,-0.2304688,0.04394531,-0.2490234
2578,15.75,-84.6875,-157.5,0.3730469,0.07470703,0.4443359,-0.2363281,0.03027344,-0.2475586
2582,8.6875,-150.125,-148.875,0.7373047,0.06298828,0.3671875,-0.2470703,0.01757813,-0.2407227
2586,8.375,-154.75,-129.4375,1.395996,-0.06054688,0.2250977,-0.2543945,0.01123047,-0.230957
2590,23.5625,-88.1875,-114,1.674805,-0.1113281,0.1479492,-0.2661133,-0.001953125,-0.21875
2594,30.6875,10.6875,-126.875,1.616699,0.04736328,0.2094727,-0.2700195,-0.01171875,-0.2163086
2598,7.5625,105.5625,-171.8125,1.163574,0.1484375,0.1943359,-0.2700195,-0.02197266,-0.21875
2602,1.5,86.625,-187.6875,0.2255859,0.06689453,0.2597656,-0.2636719,-0.03710938,-0.2285156
2606,9.8125,-36.4375,-172.3125,0.190918,0.1992188,0.2866211,-0.2626953,-0.05175781,-0.230957
2610,15.3125,-108.375,-149.25,0.8417969,0.2070313,0.2402344,-0.2651367,-0.06054688,-0.2285156
2614,24.3125,-98.9375,-130.375,1.372559,0.1640625,0.2094727,-0.2685547,-0.07177734,-0.2177734
2618,27.625,-31.5625,-127.9375,1.59375,0.3041992,0.2211914,-0.2734375,-0.08544922,-0.2119141
2622,16.875,53.1875,-144.4375,1.376465,0.3349609,0.1787109,-0.2709961,-0.09423828,-0.2119141
2626,11.25,110.1875,-169.75,0.8959961,0.3041992,0.1787109,-0.2651367,-0.1083984,-0.2177734
2630,8.0625,62.6875,-183.5,0.1791992,0.4360352,0.2172852,-0.2553711,-0.1245117,-0.2270508
2634,15.1875,-39.1875,-165.625,0.2373047,0.3427734,0.2021484,-0.2509766,-0.1333008,-0.2270508
2638,29.5625,-86.25,-162,0.6831055,0.5097656,0.1748047,-0.2509766,-0.1479492,-0.2216797
2642,30.8125,-79.625,-157.8125,1.031738,0.4985352,0.2021484,-0.2509766,-0.1621094,-0.2133789
2646,35.375,-42.1875,-156.125,1.097656,0.5175781,0.1826172,-0.2485352,-0.1704102,-0.2109375
2651,39.5,-1.75,-157.125,0.9077148,0.5292969,0.1557617,-0.2446289,-0.1845703,-0.206543
2655,35.1875,-4.4375,-170.375,0.4853516,0.8520508,0.1826172,-0.2402344,-0.2006836,-0.2055664
2659,21.6875,-35.5625,-182.875,0.4892578,0.875,0.1943359,-0.234375,-0.2119141,-0.2026367
2663,21.625,-61.1875,-186.9375,0.6635742,0.855957,0.1635742,-0.2280273,-0.2255859,-0.1987305
2667,27.3125,-68.6875,-173.375,0.8959961,0.8481445,0.1518555,-0.2211914,-0.2407227,-0.1943359
2671,32.25,-48.0625,-158.125,1.0625,0.855957,0.1210938,-0.2163086,-0.2504883,-0.1904297
2675,38.125,-5.6875,-148.625,1.074219,0.8364258,0.1171875,-0.2114258,-0.2631836,-0.1865234
2679,36.1875,34.3125,-156.3125,0.8222656,1.034668,0.1367188,-0.2006836,-0.2744141,-0.1850586
2683,28.6875,32.5,-163.5,0.4658203,0.972168,0.1289063,-0.1899414,-0.2817383,-0.1835938
2687,39.25,-6.625,-158.9375,0.3378906,0.9296875,0.1210938,-0.1806641,-0.2954102,-0.1835938
2691,44.6875,-34.4375,-152,0.5551758,1.069336,0.1210938,-0.168457,-0.3056641,-0.1796875
2695,42.125,-32,-144.75,0.7294922,1.09668,0.1635742,-0.1616211,-0.3144531,-0.1738281
2699,40.6875,-19.4375,-137.3125,0.7451172,1.116211,0.1367188,-0.1533203,-0.3232422,-0.1738281
2703,36,-13.8125,-132.625,0.7021484,1.131836,0.09033203,-0.1425781,-0.3320313,-0.168457
2707,34.4375,-10.8125,-131.125,0.7333984,1.13916,0.105957,-0.1342773,-0.3354492,-0.1660156
2711,29.5625,-9.3125,-124.8125,0.7177734,1.12793,0.08642578,-0.1245117,-0.3442383,-0.1630859
2715,30.3125,-12.6875,-111.9375,0.7294922,1.104492,0.105957,-0.1152344,-0.3491211,-0.1606445
2719,28.5,-18.1875,-96.5625,0.7490234,1.135742,0.1328125,-0.1069336,-0.3554688,-0.1591797
2723,24.9375,-20.75,-80.75,0.7758789,1.112305,0.144043,-0.09863281,-0.3569336,-0.1547852
2727,21.0625,-20.3125,-66.8125,0.8110352,1.092773,0.140625,-0.09472656,-0.359375,-0.1523438
2731,18.25,-16.9375,-51.8125,0.8261719,1.061523,0.140625,-0.09033203,-0.3632813,-0.1508789
2735,17.375,-11.0625,-35.875,0.8222656,1.04248,0.1479492,-0.08544922,-0.3666992,-0.1494141
2739,12.9375,-2.5,-21.6875,0.7680664,1.069336,0.1518555,-0.08544922,-0.3657227,-0.1484375
2743,5.375,-0.4375,-12.625,0.6362305,1.04248,0.1635742,-0.08300781,-0.3681641,-0.1484375
2747,1.375,-2.125,-7.875,0.543457,0.9956055,0.1479492,-0.08056641,-0.3681641,-0.1494141
2751,-1.125,-3.9375,-4.0625,0.543457,0.956543,0.1171875,-0.08203125,-0.3691406,-0.1469727
2755,-2.875,-2,0.1875,0.5317383,0.9604492,0.08251953,-0.07958984,-0.3681641,-0.1469727
2759,-4.1875,-2.5,3.375,0.4931641,0.9604492,0.07519531,-0.08203125,-0.3681641,-0.1469727
2763,-6.1875,-6.5625,9,0.4970703,0.9643555,0.02880859,-0.08203125,-0.3666992,-0.1484375
2767,-5.5,-8.5,17.0625,0.527832,0.956543,0.01708984,-0.08203125,-0.3657227,-0.1484375
2771,-5.125,-8,22.9375,0.5512695,0.9916992,0.02490234,-0.08544922,-0.3642578,-0.1494141
2775,-9.3125,-7.5,27.625,0.543457,1.022949,0.02490234,-0.08886719,-0.3642578,-0.1455078
2780,-10.8125,-12.9375,37.1875,0.559082,0.9799805,0.02880859,-0.08886719,-0.3632813,-0.1494141
2784,-11.6875,-18.1875,47.75,0.5708008,1.030762,0.05566406,-0.09375,-0.3603516,-0.1494141
2788,-15.5,-23.0625,56.5625,0.6210938,1.045898,0.06347656,-0.1010742,-0.3603516,-0.1494141
2792,-16.125,-25.375,65.4375,0.6713867,1.007324,0.09033203,-0.1020508,-0.3579102,-0.1508789
2796,-20.1875,-26.9375,73.5625,0.7294922,1.073242,0.1098633,-0.1103516,-0.3569336,-0.1523438
2800,-22.75,-22.5,84.9375,0.7915039,1.045898,0.1132813,-0.1201172,-0.3530273,-0.1484375
2804,-25.125,-14.9375,93.875,0.7993164,1.022949,0.1132813,-0.1259766,-0.3491211,-0.1523438
2808,-24.375,-10.9375,105.1875,0.7568359,1.01123,0.09814453,-0.1352539,-0.3432617,-0.1523438
2812,-23.9375,-12.5,112.5625,0.7255859,1.045898,0.125,-0.1435547,-0.3369141,-0.1547852
2816,-26.6875,-19.6875,119.625,0.7412109,1.081055,0.140625,-0.1494141,-0.3330078,-0.1577148
2820,-28.375,-23.1875,128.125,0.8149414,1.04248,0.1289063,-0.1625977,-0.3242188,-0.1577148
2824,-27.5625,-16,134.4375,0.9038086,1.049805,0.1367188,-0.1733398,-0.3178711,-0.15625
2828,-30.9375,-3.9375,139.4375,0.9580078,1.081055,0.1479492,-0.1806641,-0.3081055,-0.1591797
2832,-35.3125,8.75,145.4375,0.9736328,1.073242,0.1367188,-0.1914063,-0.2993164,-0.1591797
2836,-36.1875,15,155.5625,0.9658203,1.030762,0.09814453,-0.2021484,-0.2895508,-0.1645508
2840,-38.25,18.25,149.75,0.9541016,0.9296875,0.105957,-0.2089844,-0.2792969,-0.1660156
2844,-33.4375,18.4375,173.75,0.9233398,1.057617,0.07128906,-0.2163086,-0.2670898,-0.1674805
2848,-33.1875,17,176.8125,0.9580078,0.956543,0.1020508,-0.2294922,-0.2495117,-0.1728516
2852,-32.3125,14.3125,182.25,0.9892578,0.9492188,0.1098633,-0.2353516,-0.2416992,-0.1728516
2856,-31.8125,14.0625,189.625,1.140137,0.9335938,0.105957,-0.2446289,-0.2255859,-0.175293
2860,-32.8125,30,199.4375,1.283691,0.9760742,0.140625,-0.253418,-0.2080078,-0.1782227
2864,-35.875,45.8125,211.5625,1.22168,0.8710938,0.125,-0.2568359,-0.1967773,-0.1835938
2868,-32.0625,52,219.875,1.101563,0.8325195,0.1210938,-0.2626953,-0.1767578,-0.1865234
2872,-33.375,49.375,224,1.012207,0.8051758,0.1210938,-0.2685547,-0.1567383,-0.1918945
2876,-34.625,45.375,222.0625,1.000488,0.7739258,0.1557617,-0.2709961,-0.1430664,-0.1958008
2880,-37.6875,28,227.5,0.9350586,0.7431641,0.1904297,-0.2758789,-0.1206055,-0.2011719
2884,-33.0625,4.625,239.75,1.043457,0.6030273,0.1943359,-0.2768555,-0.09814453,-0.2011719
2888,-26.5625,13.375,251,1.314453,0.5800781,0.1826172,-0.2807617,-0.08203125,-0.1987305
2892,-28,49.4375,254.625,1.326172,0.6538086,0.1713867,-0.2792969,-0.06201172,-0.2055664
2896,-38.4375,82.625,250.9375,1.233398,0.6342773,0.1367188,-0.2768555,-0.03466797,-0.2094727
2900,-40.1875,97.875,252,0.9814453,0.4711914,0.1328125,-0.2724609,-0.02050781,-0.2148438
2904,-37.0625,91.875,258.3125,0.7451172,0.4243164,0.1518555,-0.2636719,0.001464844,-0.2216797
2909,-40.3125,63.6875,259.875,0.527832,0.3623047,0.159668,-0.2553711,0.02490234,-0.2270508
2913,-35.3125,38.625,262.1875,0.574707,0.1445313,0.1674805,-0.2485352,0.04150391,-0.230957
2917,-23.5625,36.375,259.875,0.7138672,0.1293945,0.159668,-0.2402344,0.06396484,-0.230957
2921,-23.875,61.5625,250.9375,0.8691406,0.1757813,0.1748047,-0.2270508,0.08251953,-0.2338867
2925,-31,95.8125,236.3125,0.7490234,0.2070313,0.1826172,-0.2172852,0.09619141,-0.237793
2929,-42.8125,114.75,223.375,0.5668945,0.07470703,0.144043,-0.2021484,0.1123047,-0.2436523
2933,-42.875,114.0625,220.3125,0.3032227,-0.1499023,0.105957,-0.1816406,0.1298828,-0.2475586
2937,-35.3125,76.9375,217.1875,0.109375,-0.1191406,0.2094727,-0.1699219,0.1401367,-0.2529297
2941,-35.9375,38.3125,218.5625,0.1831055,-0.2045898,0.2290039,-0.1533203,0.1523438,-0.2543945
2945,-32.8125,24.9375,209.75,0.3227539,-0.2744141,0.2597656,-0.1391602,0.1650391,-0.2514648
2949,-35.0625,28.875,197.9375,0.3691406,-0.2939453,0.2480469,-0.1269531,0.1738281,-0.25
2953,-37.25,42.6875,183.5625,0.3574219,-0.3754883,0.2250977,-0.1113281,0.1826172,-0.25
2957,-40.4375,69.125,170.5,0.2758789,-0.550293,0.07128906,-0.09716797,0.1914063,-0.25
2961,-33.125,90.75,158.5,0.06298828,-0.565918,0.09814453,-0.08544922,0.1948242,-0.25
2965,-27.25,95.75,145.4375,-0.215332,-0.6201172,0.04052734,-0.06738281,0.2011719,-0.25
2969,-19.375,86.8125,126.1875,-0.5063477,-0.7094727,0.02880859,-0.04980469,0.2036133,-0.2514648
2973,-12.25,63.3125,100.4375,-0.7192383,-0.7094727,0.04052734,-0.04003906,0.2060547,-0.25
2977,-9.3125,32.0625,75.5625,-0.8237305,-0.7563477,0.04052734,-0.02929688,0.2060547,-0.25
2981,-1.9375,0.6875,50.5,-0.7890625,-0.8339844,0.04785156,-0.0234375,0.2099609,-0.25
2985,8.625,-14.9375,24.75,-0.5991211,-0.8261719,0.06347656,-0.02246094,0.2114258,-0.25
2989,14.0625,-10.75,-7.9375,-0.362793,-0.7719727,0.140625,-0.02246094,0.2084961,-0.2529297
2993,13.6875,-3.9375,-33.875,-0.2270508,-0.7368164,0.2250977,-0.0234375,0.2084961,-0.2543945
2997,13.8125,-8.5,-50.375,-0.1186523,-0.7719727,0.2983398,-0.02490234,0.2060547,-0.2529297
3001,13.6875,-18.6875,-58.6875,-0.002441406,-0.7446289,0.355957,-0.03076172,0.2060547,-0.2543945
3005,9.1875,-35.375,-57.25,0.1015625,-0.7211914,0.3979492,-0.03662109,0.2036133,-0.2543945
3009,4.75,-52.75,-51.0625,0.1635742,-0.7871094,0.3828125,-0.04003906,0.2036133,-0.2529297
3013,7.8125,-60.125,-47.5,0.2568359,-0.8647461,0.3212891,-0.04833984,0.2011719,-0.2543945
3017,14.0625,-52.1875,-50.75,0.3339844,-0.8535156,0.3095703,-0.05566406,0.2011719,-0.2514648
3021,15.9375,-35.375,-58.5,0.3378906,-0.7949219,0.3173828,-0.05908203,0.1987305,-0.2514648
3025,17,-29.125,-65,0.2104492,-0.7524414,0.3828125,-0.06738281,0.1962891,-0.2514648
3029,13.25,-36.6875,-67.3125,0.1713867,-0.7211914,0.390625,-0.07470703,0.1962891,-0.2543945
3033,11.0625,-44.4375,-70.9375,0.1557617,-0.7407227,0.3710938,-0.08056641,0.1923828,-0.2543945
3038,11.25,-47.875,-77.6875,0.175293,-0.7211914,0.3095703,-0.08789063,0.1899414,-0.2529297
3042,14.5,-39.5625,-90.3125,0.2373047,-0.7524414,0.2709961,-0.09716797,0.1875,-0.2529297
3046,18.125,-25.75,-103.625,0.3110352,-0.6279297,0.2597656,-0.1044922,0.1850586,-0.2529297
3050,15.3125,-10.25,-119,0.3149414,-0.5966797,0.3017578,-0.112793,0.1801758,-0.2529297
3054,13.625,-16,-125.8125,0.2138672,-0.5424805,0.3330078,-0.1201172,0.1738281,-0.2529297
3058,13.6875,-45.25,-118.9375,0.2216797,-0.5854492,0.3251953,-0.1269531,0.1699219,-0.2543945
3062,18.375,-64.25,-112.4375,0.3457031,-0.5927734,0.2709961,-0.1376953,0.1650391,-0.2529297
3066,21.0625,-57.875,-119.875,0.5009766,-0.5229492,0.2329102,-0.1494141,0.1577148,-0.2490234
3070,17.5,-26.0625,-143.1875,0.5898438,-0.4648438,0.2172852,-0.1582031,0.1523438,-0.2490234
3074,15.0625,4.6875,-171.6875,0.6210938,-0.3793945,0.2636719,-0.1674805,0.1450195,-0.2475586
3078,10.375,13.375,-180.0625,0.4272461,-0.3754883,0.3017578,-0.1748047,0.1337891,-0.2514648
3082,16.375,-37.125,-163,0.2646484,-0.387207,0.3364258,-0.1816406,0.1274414,-0.2490234
3086,26.25,-87.25,-142.5,0.4506836,-0.3754883,0.2983398,-0.1938477,0.1162109,-0.2490234
3090,29.9375,-97.1875,-138.125,0.7294922,-0.3286133,0.2211914,-0.206543,0.1074219,-0.2421875
3094,31.8125,-65.9375,-148.0625,0.9541016,-0.2666016,0.2172852,-0.2128906,0.1000977,-0.2392578
3098,20.6875,-8.8125,-179.75,1.004395,-0.09960938,0.2597656,-0.2246094,0.08496094,-0.237793
3102,7.9375,18,-208.125,0.8339844,-0.02587891,0.3291016,-0.2294922,0.07128906,-0.237793
3106,6.375,3.625,-190.4375,0.7875977,-0.1459961,0.2983398,-0.2353516,0.06103516,-0.2392578
3110,24,-24.125,-158.875,0.8300781,-0.2626953,0.2866211,-0.2402344,0.04492188,-0.2392578
3114,44.125,-32.6875,-136.375,0.9423828,-0.2241211,0.2441406,-0.2426758,0.03271484,-0.2368164
3118,54.6875,-15.75,-131.125,1.016113,-0.1308594,0.2402344,-0.2485352,0.02392578,-0.2353516
3122,49.5,27.625,-152,1.039551,0.09033203,0.2827148,-0.2495117,0.01025391,-0.237793
3126,34.125,75.4375,-177.875,0.9311523,0.08642578,0.2636719,-0.2509766,-0.005859375,-0.2436523
3130,32.875,58.9375,-193.0625,0.3110352,0.1445313,0.3789063,-0.2470703,-0.01806641,-0.2460938
3134,36.5625,-42.8125,-175.3125,0.2724609,0.2495117,0.3945313,-0.2470703,-0.03466797,-0.25
3138,49.6875,-113.125,-150.1875,0.6713867,0.1484375,0.3330078,-0.2495117,-0.04931641,-0.2436523
3142,64.375,-124.5625,-128.6875,1.124512,0.2109375,0.2558594,-0.2553711,-0.06054688,-0.2368164
3146,71.5,-87.5,-120.3125,1.310547,0.2148438,0.1904297,-0.2626953,-0.07324219,-0.2270508
3150,65.3125,-22.125,-132.3125,1.345703,0.4204102,0.1982422,-0.2675781,-0.08935547,-0.2216797
3154,34.0625,62.9375,-172.75,1.128418,0.6186523,0.2250977,-0.2636719,-0.09960938,-0.2231445
3158,17.625,79.5,-197.125,0.5512695,0.4555664,0.2519531,-0.2553711,-0.1166992,-0.2270508
3162,32,7.3125,-187.5,0.3188477,0.4399414,0.2329102,-0.2485352,-0.1318359,-0.2299805
3167,52.1875,-61.0625,-172.375,0.5708008,0.4907227,0.2480469,-0.2446289,-0.1445313,-0.2270508
3171,61.6875,-84,-152,0.8999023,0.5913086,0.1748047,-0.2446289,-0.1591797,-0.2216797
3175,69.0625,-63.125,-140.25,1.121094,0.5527344,0.144043,-0.2460938,-0.1757813,-0.2133789
3179,77.5625,-21.875,-133.875,1.070313,0.5722656,0.1098633,-0.2446289,-0.1845703,-0.2080078
3183,70.375,9.9375,-157.9375,0.7836914,0.9838867,0.1865234,-0.237793,-0.2006836,-0.2041016
3187,39.6875,1.25,-180.5,0.578125,1.088867,0.2133789,-0.2319336,-0.2158203,-0.2041016
3191,33.875,-26.6875,-183.375,0.659668,0.8520508,0.1904297,-0.2246094,-0.2270508,-0.2011719
3195,44.875,-45.0625,-171.6875,0.7758789,0.840332,0.144043,-0.2172852,-0.2407227,-0.1972656
3199,52.625,-43.125,-155.6875,0.9194336,0.8632813,0.1479492,-0.2104492,-0.2568359,-0.1918945
3203,54.625,-22.25,-148.5,0.9272461,0.9257813,0.1289063,-0.206543,-0.265625,-0.1889648
3207,53.8125,-7.125,-152.0625,0.7602539,1.022949,0.1479492,-0.1982422,-0.2783203,-0.1850586
3211,44.6875,-10.125,-159.125,0.6401367,1.084961,0.140625,-0.1875,-0.2905273,-0.1796875
3215,43.5,-16.9375,-157.25,0.659668,0.9799805,0.1367188,-0.1806641,-0.2983398,-0.1782227
3219,47.75,-18.5,-149.875,0.7255859,1.019043,0.125,-0.168457,-0.3095703,-0.175293
3223,48.5625,-5.6875,-143.75,0.7836914,1.053711,0.125,-0.1591797,-0.3217773,-0.168457
3227,47.4375,9.75,-140.6875,0.7216797,1.12793,0.140625,-0.1494141,-0.3266602,-0.1660156
3231,42.0625,13.75,-138.375,0.6479492,1.150879,0.1289063,-0.1376953,-0.3344727,-0.1645508
3235,40.3125,4.6875,-130.1875,0.6015625,1.116211,0.1367188,-0.1245117,-0.3432617,-0.1616211
3239,41.1875,-4.6875,-119.625,0.609375,1.143066,0.140625,-0.1176758,-0.3466797,-0.1577148
3243,35.5625,-16.3125,-112.375,0.5512695,1.232422,0.1328125,-0.1069336,-0.3569336,-0.1538086
3247,23.25,-36.875,-108.625,0.4892578,1.271484,0.02490234,-0.09863281,-0.359375,-0.1523438
3251,18.1875,-58.5625,-107.375,0.7060547,1.131836,-0.08203125,-0.09130859,-0.3618164,-0.1494141
3255,25.75,-45.8125,-93.25,1.02002,0.987793,-0.02441406,-0.08544922,-0.3666992,-0.1469727
3259,27.875,-9.1875,-65.625,1.121094,1.030762,0.140625,-0.07714844,-0.371582,-0.144043
3263,14.625,15.875,-38.9375,0.8920898,1.030762,0.1787109,-0.07568359,-0.371582,-0.1425781
3267,10.1875,13.5625,-25.0625,0.5976563,0.9995117,0.2368164,-0.06982422,-0.371582,-0.1425781
3271,7.875,-13.6875,-9.9375,0.4467773,1.053711,0.2211914,-0.06884766,-0.3745117,-0.1416016
3275,6.0625,-34.5,3.5,0.5629883,1.057617,0.2021484,-0.06884766,-0.371582,-0.1416016
3279,3.0625,-25.75,13.5,0.690918,1.061523,0.1826172,-0.07128906,-0.3745117,-0.1386719
3283,-2.25,-4.875,18.25,0.625,1.061523,0.1479492,-0.07128906,-0.371582,-0.137207
3287,-5.1875,1.9375,21.375,0.4697266,1.04248,0.125,-0.07324219,-0.371582,-0.1386719
3291,-8.3125,-7.3125,23.4375,0.4233398,1.049805,0.1098633,-0.07568359,-0.371582,-0.1401367
3296,-12.625,-15.75,28,0.4931641,1.073242,0.09423828,-0.07958984,-0.3691406,-0.1386719
3300,-18.8125,-18.8125,35.125,0.5898438,1.073242,0.08642578,-0.08203125,-0.3691406,-0.1401367
3304,-23,-19.5625,47.125,0.6635742,1.038574,0.08642578,-0.08544922,-0.3681641,-0.1416016
3308,-23.8125,-19.4375,62.3125,0.7602539,1.053711,0.1210938,-0.09375,-0.3657227,-0.1425781
3312,-25.75,-17.1875,80.3125,0.8920898,1.077148,0.125,-0.09716797,-0.3657227,-0.1425781
3316,-27.1875,-9.5625,102.5,1.02002,1.174316,0.1674805,-0.1044922,-0.3579102,-0.1469727
3320,-38.25,7.6875,116.5625,1.070313,1.275391,0.1943359,-0.1162109,-0.3544922,-0.1469727
3324,-52.9375,21.3125,128.4375,0.9697266,1.244141,0.1865234,-0.1210938,-0.3491211,-0.1508789
3328,-52.5625,14.375,143.1875,0.8691406,1.13916,0.1635742,-0.1328125,-0.3432617,-0.15625
3332,-47.5625,-1.875,160.8125,0.8769531,1.162598,0.1479492,-0.1459961,-0.3330078,-0.1606445
3336,-45.125,-17.25,179.5,0.9462891,1.182129,0.1210938,-0.1557617,-0.328125,-0.1616211
3340,-42.375,-20.375,193.25,1.074219,1.158691,0.09423828,-0.1699219,-0.3129883,-0.1645508
3344,-38.875,-9,203.3125,1.147949,1.13916,0.09033203,-0.1889648,-0.2993164,-0.1645508
3348,-39.8125,11.5,209.5,1.19043,1.17041,0.09814453,-0.1962891,-0.2905273,-0.1674805
3352,-46.25,28.8125,212.25,1.074219,1.178223,0.1171875,-0.2104492,-0.2729492,-0.1728516
3356,-50.5,29.5625,220.5,0.9658203,1.069336,0.1132813,-0.222168,-0.2568359,-0.1767578
3360,-47.4375,25.3125,226.1875,0.9272461,1.069336,0.1098633,-0.2294922,-0.2431641,-0.1782227
3364,-45.375,18.5625,237.0625,0.9350586,0.9799805,0.08642578,-0.2412109,-0.2231445,-0.1835938
3368,-38.625,21.5,238.25,1.047363,1.007324,0.09814453,-0.2509766,-0.2006836,-0.1875
3372,-39.75,39.4375,245.5,1.078125,0.9643555,0.07910156,-0.2568359,-0.1879883,-0.1875
3376,-38.5625,56.0625,241.875,1.031738,0.9682617,0.1132813,-0.2636719,-0.1655273,-0.1918945
3380,-41.9375,65.375,242.1875,0.9233398,0.9643555,0.1367188,-0.2661133,-0.1420898,-0.1987305
3384,-49.6875,60,241.125,0.8574219,0.890625,0.1289063,-0.2685547,-0.1269531,-0.2026367
3388,-44.75,43.75,248.625,0.7993164,0.7275391,0.1557617,-0.2700195,-0.1044922,-0.2109375
3392,-38.3125,35.3125,254.9375,0.9931641,0.6923828,0.1518555,-0.2685547,-0.08056641,-0.2148438
3396,-40.125,51.75,254.9375,1.055176,0.6811523,0.1328125,-0.2724609,-0.06445313,-0.2163086
3400,-40,68.0625,254.9375,1.059082,0.6069336,0.1098633,-0.2700195,-0.04052734,-0.2202148
3404,-40.5625,91.3125,251.25,0.9389648,0.5058594,0.09423828,-0.2626953,-0.01708984,-0.2270508
3408,-41,94.375,250.1875,0.7177734,0.4243164,0.1132813,-0.2592773,-0.001953125,-0.2324219
3412,-41.3125,81.375,247.4375,0.5859375,0.3818359,0.1518555,-0.2485352,0.01855469,-0.237793
3416,-42.9375,59.8125,243.5625,0.5551758,0.3041992,0.2060547,-0.237793,0.04003906,-0.2436523
3420,-44.5625,47.0625,241.375,0.6210938,0.2109375,0.2094727,-0.2319336,0.05517578,-0.2436523
3425,-44.5625,57.6875,235.6875,0.7294922,0.07080078,0.1713867,-0.2197266,0.07519531,-0.2475586
3429,-40.5625,84.3125,226.8125,0.7333984,0.03613281,0.140625,-0.206543,0.09521484,-0.25
3433,-41.0625,96.1875,218.875,0.4350586,-0.03759766,0.140625,-0.1982422,0.1049805,-0.2529297
3437,-37.5,83.5625,216.5625,0.3417969,-0.1499023,0.1635742,-0.1806641,0.1201172,-0.2583008
3441,-36,66.1875,214.6875,0.2026367,-0.1733398,0.2250977,-0.1640625,0.1347656,-0.2612305
3445,-38.625,55.3125,200.25,0.1791992,-0.2084961,0.2368164,-0.1533203,0.1425781,-0.2597656
3449,-40.75,53.125,185.125,0.1210938,-0.371582,0.2021484,-0.1376953,0.1547852,-0.2597656
3453,-36.875,47.125,173.6875,0.1015625,-0.4453125,0.2094727,-0.1220703,0.1650391,-0.2597656
3457,-29.1875,47.0625,158.625,0.05908203,-0.519043,0.1367188,-0.1137695,0.1689453,-0.2597656
3461,-22.75,47.0625,148.125,0.03173828,-0.5776367,0.1748047,-0.1010742,0.1787109,-0.2612305
3465,-17.1875,48.75,136.0625,-0.05664063,-0.5541992,0.2172852,-0.08642578,0.1835938,-0.2612305
3469,-20.25,50.8125,118.75,-0.1650391,-0.5927734,0.2094727,-0.07568359,0.1860352,-0.2612305
3473,-20.0625,48.4375,95.1875,-0.3125,-0.7172852,0.1713867,-0.06640625,0.1884766,-0.2612305
3477,-13.5,41.3125,74.125,-0.4287109,-0.7792969,0.1098633,-0.05810547,0.1948242,-0.2597656
3481,-6.375,27,53,-0.4750977,-0.8144531,0.1210938,-0.05078125,0.1923828,-0.2626953
3485,1.6875,13.5625,30.25,-0.4443359,-0.8300781,0.1289063,-0.04589844,0.1948242,-0.2612305
3489,8.5625,7.25,9.875,-0.3588867,-0.8300781,0.1367188,-0.04394531,0.1948242,-0.2612305
3493,15.125,1.3125,-10.1875,-0.3007813,-0.8027344,0.2133789,-0.04394531,0.1948242,-0.2597656
3497,16.75,-11.125,-27.875,-0.2001953,-0.7524414,0.2944336,-0.04589844,0.1938477,-0.2636719
3501,15.5625,-26.375,-38.75,-0.06445313,-0.7485352,0.340332,-0.04980469,0.1923828,-0.2651367
3505,16.75,-39.6875,-45,0.08642578,-0.7446289,0.3867188,-0.05322266,0.1914063,-0.2636719
3509,14.75,-48.75,-46.5,0.2138672,-0.6977539,0.4326172,-0.05810547,0.1884766,-0.2626953
3513,11.1875,-50.4375,-46.5625,0.2993164,-0.7446289,0.4213867,-0.06396484,0.1875,-0.2651367
3517,11.375,-48.4375,-48.3125,0.3149414,-0.7602539,0.3828125,-0.07128906,0.1860352,-0.2651367
3521,12.1875,-40.8125,-55.0625,0.2915039,-0.7641602,0.3828125,-0.07714844,0.1835938,-0.2636719
3525,13.5625,-38.625,-61.1875,0.2373047,-0.7329102,0.3520508,-0.08398438,0.1811523,-0.2636719
3529,15.625,-38.5,-65.625,0.190918,-0.7368164,0.3442383,-0.08642578,0.1787109,-0.2636719
3533,18.625,-40.5625,-72.375,0.1987305,-0.6938477,0.3291016,-0.09619141,0.1772461,-0.2636719
3537,18.0625,-34.375,-80.375,0.2529297,-0.6860352,0.3095703,-0.1020508,0.1713867,-0.2626953
3541,21.0625,-24.6875,-92.25,0.2568359,-0.6748047,0.2866211,-0.109375,0.1713867,-0.2626953
3545,22.0625,-15.375,-103.9375,0.2412109,-0.6240234,0.2558594,-0.1162109,0.1635742,-0.2636719
3549,22.375,-16,-122.4375,0.1518555,-0.550293,0.3017578,-0.1220703,0.1586914,-0.2636719
3554,18.25,-36.875,-130.125,0.09765625,-0.5112305,0.3056641,-0.1318359,0.1547852,-0.2651367
3558,22.875,-76,-131.1875,0.08642578,-0.5268555,0.355957,-0.1401367,0.1474609,-0.2636719
3562,26.1875,-115.25,-117.4375,0.3730469,-0.4492188,0.3251953,-0.1542969,0.1401367,-0.2597656
3566,28.1875,-113.5,-114.25,0.7490234,-0.4492188,0.2866211,-0.1665039,0.1347656,-0.2568359
3570,27.5625,-64.375,-126,1.02002,-0.3754883,0.2519531,-0.1791992,0.1274414,-0.2529297
3574,19.3125,7.75,-147.125,1.004395,-0.3364258,0.2172852,-0.1875,0.1186523,-0.25
3578,17,40.375,-160.4375,0.4853516,-0.421875,0.2519531,-0.1923828,0.1088867,-0.2529297
3582,28.8125,-10.125,-155.375,0.1635742,-0.421875,0.3134766,-0.1962891,0.09863281,-0.2558594
3586,38.5625,-82.0625,-142.125,0.3339844,-0.2431641,0.3789063,-0.206543,0.08642578,-0.2558594
3590,38.125,-120.5625,-124.5,0.8032227,-0.1889648,0.3520508,-0.2128906,0.08007813,-0.2529297
3594,36.625,-96.75,-123.5625,1.244629,-0.1381836,0.3212891,-0.2255859,0.06884766,-0.2446289
3598,28.4375,-24.625,-133.875,1.426758,-0.1347656,0.2709961,-0.2353516,0.05615234,-0.2407227
3602,23.8125,68.3125,-156.25,1.275879,-0.1420898,0.2133789,-0.2363281,0.04882813,-0.2421875
3606,19.875,123.5,-178.375,0.6557617,-0.1616211,0.2402344,-0.234375,0.03515625,-0.25
3610,26.375,38.5625,-174.625,-0.1572266,-0.1308594,0.355957,-0.2304688,0.02148438,-0.2568359
3614,46.75,-85.375,-149.25,0.2294922,-0.06054688,0.375,-0.2353516,0.01123047,-0.2558594
3618,52.5,-131.125,-131.1875,0.8496094,0.06689453,0.3173828,-0.2426758,-0.003417969,-0.2490234
3622,55.9375,-102.625,-118.6875,1.29541,0.02050781,0.2827148,-0.2509766,-0.01708984,-0.2421875
3626,55.6875,-32.8125,-120.5,1.384277,0.1020508,0.2290039,-0.2568359,-0.02441406,-0.237793
3630,45.375,49.75,-146.4375,1.260254,0.2070313,0.2211914,-0.2568359,-0.03955078,-0.2353516
3634,33.6875,99.5,-179.6875,1.000488,0.3081055,0.2827148,-0.2509766,-0.0546875,-0.2421875
3638,29.1875,98.125,-182.3125,0.8110352,0.300293,0.3212891,-0.2460938,-0.06689453,-0.2446289
3642,37.125,66,-170.6875,0.8032227,0.3120117,0.3945313,-0.2387695,-0.08056641,-0.2543945
3646,45.25,44.3125,-148.5,0.8842773,0.284668,0.3710938,-0.2319336,-0.09716797,-0.2558594
3650,56.125,42.625,-136.4375,0.8730469,0.2729492,0.375,-0.2304688,-0.1054688,-0.2597656
3654,55,54.25,-146.375,0.8769531,0.4711914,0.4018555,-0.2236328,-0.1206055,-0.2597656
3658,45.75,61.25,-157.0625,0.8999023,0.4165039,0.4941406,-0.215332,-0.1357422,-0.2636719
3662,42.625,57.5625,-148.25,0.8652344,0.4711914,0.4443359,-0.2089844,-0.1430664,-0.2666016
3666,45.875,63.9375,-147.875,0.8842773,0.5058594,0.4326172,-0.2006836,-0.1567383,-0.2705078
3670,52.5625,67.0625,-140.4375,0.7373047,0.3388672,0.3637695,-0.1914063,-0.1694336,-0.2719727
3674,72.5,56.5,-132.875,0.5395508,0.3349609,0.3442383,-0.1831055,-0.1782227,-0.2734375
3678,86.3125,40.875,-132.3125,0.4233398,0.5097656,0.3598633,-0.1723633,-0.1904297,-0.2749023
3683,80.875,25.75,-150.1875,0.3730469,0.7856445,0.4365234,-0.1665039,-0.2055664,-0.269043
3687,71.3125,2,-161.9375,0.3457031,0.8168945,0.4790039,-0.1591797,-0.2167969,-0.2680664
3691,73.8125,-24.0625,-161.8125,0.4428711,0.777832,0.4633789,-0.1542969,-0.2294922,-0.2651367
3695,79.1875,-37,-155.5625,0.5126953,0.7817383,0.3867188,-0.1474609,-0.2431641,-0.2597656
3699,89.9375,-43.4375,-145.8125,0.5317383,0.7666016,0.3330078,-0.1425781,-0.2519531,-0.2558594
3703,100.3125,-47.1875,-139.9375,0.5126953,0.8012695,0.2597656,-0.1376953,-0.265625,-0.2490234
3707,108.4375,-53.25,-142.6875,0.4350586,0.9916992,0.2597656,-0.1318359,-0.2792969,-0.2407227
3711,97.875,-62.8125,-153.1875,0.3847656,1.13916,0.2480469,-0.1269531,-0.2866211,-0.2338867
3715,90.375,-74.8125,-162.5625,0.4077148,1.100586,0.2329102,-0.1235352,-0.3017578,-0.2231445
3719,95.125,-83.5625,-162.6875,0.4428711,1.13916,0.2172852,-0.1137695,-0.3144531,-0.2163086
3723,94.0625,-98.0625,-153.4375,0.4389648,1.228516,0.1865234,-0.1079102,-0.3217773,-0.206543
3727,94,-126.8125,-143.125,0.3999023,1.244141,0.1518555,-0.1020508,-0.3330078,-0.1987305
3731,94.4375,-178.1875,-128.5,0.4658203,1.298828,0.125,-0.09863281,-0.3442383,-0.1850586
3735,89.3125,-219,-111.875,0.8110352,1.380371,0.09423828,-0.09716797,-0.3481445,-0.1738281
3739,71.0625,-205.125,-97.9375,1.368652,1.527832,0.1518555,-0.09960938,-0.3554688,-0.1606445
3743,32.9375,-130.5625,-89,1.706055,1.535645,0.1982422,-0.09619141,-0.3603516,-0.1508789
3747,-0.9375,-42.375,-77.3125,1.628418,1.291016,0.1787109,-0.09228516,-0.3618164,-0.1494141
3751,-9.6875,10.0625,-50,1.333984,1.007324,0.1328125,-0.08886719,-0.3657227,-0.1455078
3755,-0.5,21.3125,-14.5,1.070313,0.8632813,0.105957,-0.08398438,-0.3666992,-0.1494141
3759,10.25,21.4375,12.1875,0.9501953,0.9335938,0.159668,-0.08398438,-0.3666992,-0.1484375
3763,6.8125,20.8125,29,0.7993164,1.069336,0.2172852,-0.08300781,-0.3666992,-0.1494141
3767,-6.5,13.75,37.1875,0.6948242,1.143066,0.2480469,-0.08642578,-0.3632813,-0.1484375
3771,-18.5,7.125,46.75,0.6791992,1.026855,0.2021484,-0.08789063,-0.3642578,-0.1494141
3775,-17.5625,9.5,51.375,0.6557617,0.972168,0.1479492,-0.09228516,-0.3603516,-0.1523438
3779,-18.6875,10.625,55.5,0.6132813,0.987793,0.1171875,-0.09619141,-0.359375,-0.1523438
3783,-19.9375,7.1875,61.0625,0.5512695,1.022949,0.1367188,-0.09960938,-0.3569336,-0.1547852
3787,-23.8125,-2.4375,63.8125,0.543457,1.06543,0.1557617,-0.1069336,-0.3544922,-0.1577148
3791,-28.6875,-14.4375,71.75,0.5708008,1.081055,0.144043,-0.1113281,-0.3520508,-0.1577148
3795,-33,-21.875,77.375,0.6635742,1.088867,0.1479492,-0.1162109,-0.3466797,-0.1591797
3799,-35.3125,-23.5,87.125,0.7412109,1.045898,0.140625,-0.1245117,-0.3432617,-0.1630859
3803,-35.4375,-21.3125,97.5,0.8496094,1.077148,0.144043,-0.1328125,-0.3378906,-0.1616211
3807,-36.0625,-8.75,112.3125,0.9736328,1.038574,0.1557617,-0.1401367,-0.3320313,-0.1645508
3812,-36,6.9375,125.6875,0.9892578,1.108398,0.1982422,-0.1494141,-0.3256836,-0.168457
3816,-41.5,15.125,138.5,0.9272461,1.13916,0.1982422,-0.1601563,-0.3178711,-0.1699219
3820,-44.125,15.1875,147.0625,0.9389648,1.166504,0.2329102,-0.1674805,-0.3105469,-0.1738281
3824,-48.25,9.9375,160.9375,0.9697266,1.116211,0.2094727,-0.1791992,-0.2983398,-0.1782227
3828,-39.9375,1.8125,187.25,1.13623,1.077148,0.2021484,-0.1899414,-0.2856445,-0.1782227
3832,-37.5625,16.25,209.125,1.337891,1.135742,0.1674805,-0.2006836,-0.2768555,-0.1806641
3836,-38.3125,39.0625,222.5,1.268066,1.178223,0.1787109,-0.2104492,-0.2607422,-0.1865234
3840,-47.4375,49.75,228.625,1.407715,1.209473,0.1943359,-0.2197266,-0.2416992,-0.1918945
3844,-52.1875,74.9375,255.5625,1.63623,1.209473,0.1826172,-0.2280273,-0.2294922,-0.1972656
3848,-53.4375,104,287.8125,1.663574,1.158691,0.1328125,-0.2363281,-0.2080078,-0.2041016
3852,-46,128.6875,312.125,1.508301,1.061523,0.1020508,-0.2412109,-0.1806641,-0.2163086
3856,-38.75,141.8125,319.5,1.291504,1.081055,0.1210938,-0.2436523,-0.1630859,-0.2216797
3860,-46.375,145.125,312.75,1.089844,1.081055,0.1635742,-0.2436523,-0.1367188,-0.2368164
3864,-56.6875,140.5625,302.625,0.9541016,0.9995117,0.2172852,-0.2412109,-0.1108398,-0.2460938
3868,-64.0625,122.8125,298.875,0.7954102,0.9335938,0.2636719,-0.2363281,-0.09179688,-0.2543945
3872,-70.6875,98.6875,298.5625,0.7060547,0.8325195,0.2983398,-0.2304688,-0.06591797,-0.2626953
3876,-73.8125,77.1875,296.5,0.7021484,0.7587891,0.3017578,-0.2280273,-0.03955078,-0.2705078
3880,-80.625,76,287.4375,0.7177734,0.6962891,0.2983398,-0.2211914,-0.02197266,-0.2719727
3884,-84.125,83.75,280.25,0.6948242,0.5991211,0.2788086,-0.2138672,0.002441406,-0.2773438
3888,-86.9375,90.8125,274.625,0.5317383,0.4868164,0.2133789,-0.2021484,0.02734375,-0.2788086
3892,-87.5625,92.8125,263.25,0.3227539,0.3388672,0.1748047,-0.1923828,0.04492188,-0.2841797
3896,-83.1875,78.375,251.4375,0.1054688,0.1992188,0.125,-0.1791992,0.06494141,-0.2871094
3900,-76.5,53.6875,243.1875,-0.006347656,0.06689453,0.1367188,-0.1640625,0.08496094,-0.2841797
3904,-71.9375,24.6875,231.5625,-0.02978516,0.05908203,0.1865234,-0.1557617,0.09863281,-0.2871094
3908,-68.0625,16.8125,218.375,0.1015625,-0.1113281,0.144043,-0.1435547,0.1137695,-0.2856445
3912,-55.875,31.8125,200.1875,0.1054688,-0.2202148,0.1518555,-0.1318359,0.1313477,-0.2827148
3916,-52.4375,42.1875,175.5625,0.008789063,-0.2275391,0.125,-0.1220703,0.1362305,-0.2802734
3920,-51,45.6875,154.75,-0.1069336,-0.3286133,0.1479492,-0.109375,0.1450195,-0.2802734
3924,-43.875,34,141,-0.1806641,-0.453125,0.1826172,-0.09863281,0.1547852,-0.2802734
3928,-42.3125,11.5625,129,-0.3549805,-0.5268555,0.2211914,-0.08789063,0.1611328,-0.2773438
3932,-41.9375,-33.8125,120.3125,-0.4482422,-0.6435547,0.2211914,-0.08300781,0.1674805,-0.2749023
3936,-35.375,-62.875,99.4375,0.06298828,-0.7250977,0.2060547,-0.078125,0.1748047,-0.2719727
3941,-31.5,-11.625,72.0625,0.609375,-0.7290039,0.1557617,-0.07714844,0.1772461,-0.2680664
3945,-23.9375,64.4375,58.8125,0.527832,-0.7949219,0.1557617,-0.07226563,0.1811523,-0.2705078
3949,-11.9375,102.0625,53.25,0.08251953,-0.7988281,0.1518555,-0.06152344,0.1835938,-0.2666016
3953,-4.6875,85.75,49.9375,-0.4594727,-0.7680664,0.2211914,-0.05566406,0.1835938,-0.269043
3957,-1.1875,26.8125,44.125,-0.7075195,-0.7524414,0.3017578,-0.04833984,0.1850586,-0.2705078
3961,0.125,-30.5,34.1875,-0.5874023,-0.7407227,0.3095703,-0.04394531,0.1850586,-0.2719727
3965,1.3125,-48.0625,14.9375,-0.2348633,-0.7602539,0.2788086,-0.04394531,0.1860352,-0.269043
3969,4.875,-35.8125,-3.6875,-0.04101563,-0.7602539,0.2944336,-0.04589844,0.1850586,-0.2680664
3973,9.5,-16.875,-21.6875,0.0009765625,-0.7602539,0.3173828,-0.04980469,0.1860352,-0.269043
3977,12.25,-8.125,-35.8125,-0.05273438,-0.7524414,0.3637695,-0.05224609,0.1860352,-0.2705078
3981,12.3125,-18.125,-45.5625,-0.09521484,-0.7368164,0.3979492,-0.05419922,0.1826172,-0.2719727
3985,12.6875,-39.3125,-51.0625,-0.06445313,-0.7133789,0.4404297,-0.06054688,0.1826172,-0.2719727
3989,8.1875,-55.5,-55,0.06689453,-0.6787109,0.4404297,-0.06494141,0.1801758,-0.2734375
3993,5.375,-57.9375,-63.3125,0.1987305,-0.6860352,0.425293,-0.07226563,0.1772461,-0.269043
3997,4.0625,-37.9375,-75.125,0.3730469,-0.6821289,0.3710938,-0.08203125,0.1762695,-0.269043
4001,5.75,-5.1875,-83.875,0.4077148,-0.7250977,0.3095703,-0.08789063,0.1748047,-0.2666016
4005,15.5,21.8125,-93.25,0.2607422,-0.7719727,0.2709961,-0.09130859,0.1713867,-0.269043
4009,23.9375,24.4375,-100.8125,0.02050781,-0.6977539,0.2749023,-0.09619141,0.1660156,-0.269043
4013,24.5625,-8.625,-108.75,-0.1962891,-0.6083984,0.3364258,-0.09960938,0.1635742,-0.2719727
4017,20.9375,-54.75,-113.75,-0.1689453,-0.5541992,0.340332,-0.1069336,0.1601563,-0.2734375
4021,21.375,-70.875,-126.8125,0.2177734,-0.5385742,0.3017578,-0.1201172,0.1547852,-0.2705078
4025,22.875,-39.25,-140.375,0.609375,-0.5151367,0.2519531,-0.1269531,0.1499023,-0.2705078
4029,30.5,17.875,-150.6875,0.6362305,-0.5620117,0.2250977,-0.1376953,0.1411133,-0.2719727
4033,45.9375,14.125,-155.5625,0.2255859,-0.4492188,0.355957,-0.1435547,0.1298828,-0.2749023
4037,40.375,-34.4375,-147.4375,0.1367188,-0.2509766,0.4521484,-0.1508789,0.1235352,-0.2773438
4041,30.75,-86.5625,-145.5625,0.2993164,-0.2861328,0.4365234,-0.1601563,0.1137695,-0.2749023
4045,36,-87.3125,-141.625,0.9501953,-0.3950195,0.3291016,-0.1748047,0.1049805,-0.2719727
4049,47.125,-13,-143.4375,1.368652,-0.3989258,0.2749023,-0.1791992,0.09765625,-0.2705078
4053,58.25,66.625,-150.625,1.128418,-0.2470703,0.3671875,-0.1865234,0.08496094,-0.2705078
4057,46.875,71.125,-162.1875,0.5551758,-0.06835938,0.5097656,-0.1889648,0.06982422,-0.2817383
4061,39.8125,-3.25,-145.9375,0.4506836,-0.1152344,0.5830078,-0.1889648,0.0625,-0.2802734
4065,46.5625,-50.25,-123.5,0.9155273,-0.2084961,0.4980469,-0.1923828,0.04980469,-0.2817383
4070,56.5,-23.375,-111.375,1.229492,-0.2900391,0.3789063,-0.199707,0.03857422,-0.2788086
4074,71.1875,39,-110.125,1.128418,-0.2744141,0.2827148,-0.2006836,0.03125,-0.2802734
4078,70.9375,76.1875,-132.8125,0.6054688,-0.08398438,0.340332,-0.1982422,0.01757813,-0.2871094
4082,56.75,47.75,-151.375,0.1367188,0.0009765625,0.4482422,-0.1948242,0.00390625,-0.2924805
4086,51.5,-29.1875,-152.125,0.08251953,0.06298828,0.5058594,-0.1948242,-0.006835938,-0.2939453
4090,51.1875,-86.0625,-144.375,0.4194336,0.05517578,0.4404297,-0.2006836,-0.01953125,-0.2895508
4094,57.875,-94.375,-133.25,0.7373047,0.004882813,0.3598633,-0.2089844,-0.03320313,-0.2827148
4098,71.0625,-65.3125,-134.6875,0.8535156,-0.03759766,0.2368164,-0.2104492,-0.04296875,-0.2802734
4102,85.5625,-27.6875,-148.625,0.7216797,0.1523438,0.2636719,-0.2172852,-0.05712891,-0.2758789
4106,69.6875,-33.3125,-181.375,0.3847656,0.6577148,0.4907227,-0.2172852,-0.07421875,-0.2734375
4110,37.8125,-96,-202.75,0.3188477,0.824707,0.4868164,-0.2172852,-0.08837891,-0.2705078
4114,26.1875,-156.6875,-188.4375,0.675293,0.5488281,0.4443359,-0.2246094,-0.1030273,-0.2626953
4118,37.625,-163.4375,-162.5,1.306641,0.4086914,0.3134766,-0.234375,-0.1181641,-0.25
4122,50.6875,-93.875,-148.25,1.59375,0.3427734,0.2402344,-0.237793,-0.1245117,-0.2421875
4126,59.125,-7.875,-144.4375,1.271973,0.3041992,0.159668,-0.2387695,-0.1396484,-0.2368164
4130,55.9375,25.1875,-178.625,0.6171875,0.809082,0.3481445,-0.234375,-0.1567383,-0.2368164
4134,23,-27.375,-196.75,0.3652344,0.8129883,0.3598633,-0.2294922,-0.1669922,-0.2353516
4138,30.625,-86.8125,-193.3125,0.5551758,0.7197266,0.3598633,-0.2246094,-0.1831055,-0.230957
4142,28.9375,-116.9375,-178.6875,0.9116211,0.7973633,0.2827148,-0.2246094,-0.1982422,-0.2255859
4146,32,-95.9375,-165.25,1.186523,0.6811523,0.2290039,-0.2236328,-0.2070313,-0.2163086
4150,37.75,-45.8125,-164.3125,1.175293,0.6845703,0.1557617,-0.2211914,-0.2207031,-0.2080078
4154,43.8125,-10.3125,-164.8125,0.8378906,0.6772461,0.1210938,-0.215332,-0.2329102,-0.206543
4158,48.5625,-33,-173.4375,0.4970703,0.9414063,0.1674805,-0.2104492,-0.2456055,-0.2011719
4162,35.4375,-61.1875,-177.9375,0.6362305,1.022949,0.1674805,-0.2021484,-0.2583008,-0.1987305
4166,34.1875,-65.6875,-179.6875,0.7680664,0.9453125,0.1210938,-0.1948242,-0.2729492,-0.1928711
4170,38.5,-48.9375,-174.75,0.8730469,0.9375,0.105957,-0.1889648,-0.2817383,-0.1875
4174,40.625,-19.375,-172.5,0.8652344,0.9838867,0.1132813,-0.1791992,-0.2944336,-0.1850586
4178,39.75,8.625,-171.8125,0.7255859,1.01123,0.09423828,-0.1665039,-0.3066406,-0.1806641
4182,40.125,22.125,-177.75,0.5859375,1.04248,0.06738281,-0.1582031,-0.3154297,-0.1806641
4186,43.0625,29.4375,-180.8125,0.5126953,0.9956055,-0.03613281,-0.1411133,-0.3242188,-0.1767578
4190,57.0625,40.5,-182.25,0.4892578,1.057617,-0.07080078,-0.1245117,-0.3369141,-0.175293
4194,65.75,56.6875,-180.5625,0.4194336,1.174316,-0.06689453,-0.112793,-0.3408203,-0.1728516
4199,66.8125,61.4375,-187,0.2607422,1.345215,-0.001464844,-0.09228516,-0.3530273,-0.1713867
4203,59.25,38.4375,-193.1875,0.1713867,1.380371,0.02880859,-0.07324219,-0.3632813,-0.1674805
4207,58.875,-2.375,-187.1875,0.2758789,1.372559,0.09814453,-0.05908203,-0.3666992,-0.1616211
4211,55.3125,-37.75,-172.0625,0.559082,1.446289,0.2094727,-0.04394531,-0.3706055,-0.1577148
4215,39.625,-69.4375,-140.5,0.8261719,1.469727,0.2749023,-0.02929688,-0.3745117,-0.1538086
4219,23.6875,-82.25,-91.0625,1.155762,1.353027,0.2827148,-0.02490234,-0.3779297,-0.1494141
4223,12.8125,-58.125,-36,1.372559,1.146973,0.2402344,-0.02099609,-0.3779297,-0.1469727
4227,17,-2.75,2.4375,1.268066,0.9995117,0.2368164,-0.02001953,-0.3803711,-0.1494141
4231,18.25,33.4375,23.5625,0.8222656,1.049805,0.2944336,-0.02001953,-0.3818359,-0.144043
4235,15.375,28.875,31.75,0.4658203,1.100586,0.4018555,-0.02246094,-0.3803711,-0.1469727
4239,4.125,-2.1875,31.625,0.2724609,1.221191,0.4633789,-0.02490234,-0.3803711,-0.1386719
4243,-16.6875,-32.125,25.5625,0.3691406,1.240234,0.4404297,-0.02587891,-0.3818359,-0.1425781
4247,-30.75,-50.5,29.4375,0.4853516,1.104492,0.3251953,-0.03076172,-0.3793945,-0.1455078
4251,-30.9375,-59.5625,41.6875,0.6401367,1.038574,0.2094727,-0.03417969,-0.3779297,-0.1469727
4255,-31.125,-57.1875,57.375,0.7529297,1.053711,0.1518555,-0.0390625,-0.3779297,-0.1494141
4259,-32.375,-55.125,77.875,0.8149414,1.12793,0.140625,-0.04833984,-0.3745117,-0.1494141
4263,-37.25,-52.25,96.75,0.8574219,1.213379,0.1557617,-0.05810547,-0.3706055,-0.1523438
4267,-43.3125,-46.625,115.75,0.9116211,1.248047,0.1635742,-0.06494141,-0.3681641,-0.1538086
4271,-47.5625,-36.9375,133.8125,0.9350586,1.271484,0.1479492,-0.078125,-0.3642578,-0.1577148
4275,-50.75,-25.3125,151.625,0.9580078,1.294922,0.1132813,-0.09472656,-0.3569336,-0.1606445
4279,-52.3125,-16.625,169.125,0.9423828,1.345215,0.1171875,-0.1030273,-0.3520508,-0.1616211
4283,-51.9375,-14.5,190.9375,0.9116211,1.298828,0.09033203,-0.1201172,-0.3442383,-0.1660156
4287,-46.625,-18.375,204.4375,0.8769531,1.388184,0.1020508,-0.1391602,-0.3330078,-0.1699219
4291,-47.0625,-27.5,216.6875,0.9077148,1.411133,0.1020508,-0.1508789,-0.3242188,-0.168457
4295,-43.6875,-34.25,233.4375,1.004395,1.39209,0.1132813,-0.168457,-0.3095703,-0.1728516
4299,-39.5,-29.75,249.0625,1.140137,1.395996,0.1098633,-0.1889648,-0.2944336,-0.1738281
4303,-38.875,-12.5,264.125,1.237305,1.411133,0.09814453,-0.2021484,-0.2807617,-0.1738281
4307,-36.9375,5.625,279.4375,1.186523,1.310547,0.04443359,-0.21875,-0.2592773,-0.1767578
4311,-28.625,15.8125,292.25,1.147949,1.271484,0.04443359,-0.234375,-0.2368164,-0.1767578
4315,-26.75,27.0625,296.75,1.155762,1.306641,0.05566406,-0.2446289,-0.2207031,-0.1782227
4319,-30.4375,41.75,298.75,1.151855,1.263672,0.08251953,-0.2578125,-0.1958008,-0.1835938
4323,-34.75,59.25,299.75,1.132324,1.225098,0.1020508,-0.2636719,-0.1679688,-0.1875
4328,-38.75,63.5,309.0625,0.9697266,1.116211,0.09423828,-0.2685547,-0.1508789,-0.1918945
4332,-35.375,61.625,318.9375,0.9389648,0.9799805,0.09814453,-0.2744141,-0.1206055,-0.199707
4336,-34.5625,72.375,310.625,0.9116211,0.9604492,0.105957,-0.2758789,-0.09179688,-0.2055664
4340,-42.8125,93.8125,300.1875,0.9697266,0.9296875,0.1328125,-0.2744141,-0.07324219,-0.2080078
4344,-49.5,117.5,295.9375,0.8730469,0.7856445,0.09423828,-0.2700195,-0.04589844,-0.2163086
4348,-47.6875,133.5625,293.3125,0.7294922,0.7080078,0.1098633,-0.2617188,-0.02050781,-0.2285156
4352,-54.9375,125.6875,292.875,0.3691406,0.6303711,0.1132813,-0.2553711,-0.0004882813,-0.237793
4356,-52.875,87.9375,292.875,0.1445313,0.4204102,0.159668,-0.2436523,0.02734375,-0.2436523
4360,-48.625,49.125,284.25,0.1171875,0.3310547,0.1826172,-0.2319336,0.04980469,-0.2475586
4364,-51.4375,42.3125,260.5625,0.3496094,0.2109375,0.1865234,-0.2246094,0.06494141,-0.2490234
4368,-50.0625,71.25,231.9375,0.574707,0.1020508,0.1904297,-0.2128906,0.08740234,-0.2514648
4372,-54.9375,97.5,218.8125,0.4428711,0.07470703,0.140625,-0.1972656,0.1064453,-0.2529297
4376,-50.9375,88.625,216.5625,0.206543,-0.1035156,0.2021484,-0.184082,0.1176758,-0.2558594
4380,-49.625,60.5,219.6875,0.07861328,-0.09960938,0.1904297,-0.1665039,0.1323242,-0.2568359
4384,-51.0625,46,201.625,0.09033203,-0.2353516,0.1865234,-0.1533203,0.1459961,-0.2583008
4388,-48.4375,36.0625,174.1875,-0.002441406,-0.2978516,0.1674805,-0.1435547,0.1547852,-0.2558594
4392,-46.5,20.625,161.5,0.1367188,-0.3481445,0.1943359,-0.1293945,0.1650391,-0.2558594
4396,-41.25,16,155.25,0.2607422,-0.4570313,0.2133789,-0.1176758,0.1748047,-0.2543945
4400,-39.3125,29.5625,147.8125,0.3691406,-0.453125,0.1865234,-0.1113281,0.1811523,-0.2529297
4404,-37.75,49.8125,135.3125,0.2724609,-0.5854492,0.1479492,-0.09960938,0.1860352,-0.25
4408,-31.875,61.25,123.1875,0.1015625,-0.6201172,0.09033203,-0.08398438,0.1948242,-0.2475586
4412,-27.9375,53.4375,110.5625,-0.1728516,-0.7211914,0.09423828,-0.078125,0.1987305,-0.25
4416,-17.375,30,102.625,-0.3203125,-0.7753906,0.1132813,-0.06738281,0.2011719,-0.2514648
4420,-12.375,9.3125,89.0625,-0.3393555,-0.7602539,0.1479492,-0.05810547,0.2050781,-0.2475586
4424,-10,4.25,69.75,-0.2851563,-0.7949219,0.1518555,-0.05322266,0.2036133,-0.25
4428,-5.8125,10.8125,46.8125,-0.3007813,-0.8339844,0.1171875,-0.04833984,0.2075195,-0.2490234
4432,-0.125,18.3125,21.25,-0.328125,-0.8457031,0.1367188,-0.04492188,0.2084961,-0.2475586
4436,3.0625,18.0625,-0.75,-0.3935547,-0.8300781,0.1635742,-0.04248047,0.2084961,-0.25
4440,4.4375,8.8125,-22.625,-0.3510742,-0.8457031,0.1787109,-0.04150391,0.2084961,-0.25
4444,6.5625,-5,-40.1875,-0.2700195,-0.8222656,0.2094727,-0.04394531,0.2075195,-0.2475586
4448,5.375,-20.875,-52.9375,-0.1303711,-0.7832031,0.2250977,-0.04736328,0.2075195,-0.2490234
4452,5.4375,-32.8125,-62.375,0.02441406,-0.7910156,0.2788086,-0.05224609,0.2050781,-0.2490234
4457,4.75,-40.5625,-64.5625,0.1791992,-0.7753906,0.2866211,-0.05908203,0.2050781,-0.2490234
4461,8.0625,-46.8125,-63.5625,0.2875977,-0.7792969,0.3251953,-0.06494141,0.2026367,-0.2475586
4465,8.25,-47.625,-58.25,0.3769531,-0.7792969,0.3173828,-0.07128906,0.2026367,-0.2490234
4469,10.5,-41.8125,-58.8125,0.3959961,-0.8066406,0.3134766,-0.08056641,0.1987305,-0.2475586
4473,11,-31.4375,-65.5625,0.3999023,-0.7524414,0.3017578,-0.08642578,0.1972656,-0.2475586
4477,9.25,-19.9375,-75.75,0.2915039,-0.7641602,0.3173828,-0.09130859,0.1962891,-0.2475586
4481,8.5,-27.25,-83.8125,0.1518555,-0.7133789,0.3134766,-0.09716797,0.1914063,-0.2475586
4485,8.0625,-41.5,-85.125,0.09033203,-0.7485352,0.2788086,-0.1054688,0.1899414,-0.2460938
4489,14.875,-59.75,-87.1875,0.1132813,-0.7524414,0.2402344,-0.1113281,0.1860352,-0.2446289
4493,19.0625,-61.75,-92.9375,0.2294922,-0.6279297,0.2441406,-0.1220703,0.1826172,-0.2460938
4497,13.375,-52.9375,-112,0.2646484,-0.550293,0.2558594,-0.1303711,0.1787109,-0.2421875
4501,9.6875,-40.6875,-128.125,0.3110352,-0.5541992,0.2519531,-0.1411133,0.1738281,-0.2421875
4505,11.625,-36.5625,-142.125,0.2724609,-0.5424805,0.2402344,-0.1533203,0.1674805,-0.2407227
4509,13.375,-42,-147.4375,0.2451172,-0.5,0.2211914,-0.1601563,0.1611328,-0.237793
4513,16.4375,-68.5,-152.0625,0.2490234,-0.4375,0.2519531,-0.1723633,0.1513672,-0.2368164
4517,18,-90.5,-143.5625,0.59375,-0.387207,0.2368164,-0.1875,0.1425781,-0.2338867
4521,17.8125,-67.6875,-148.5625,0.9038086,-0.3364258,0.2329102,-0.1948242,0.1376953,-0.230957
4525,14,-14.5,-161.125,1.031738,-0.3325195,0.2060547,-0.2055664,0.1264648,-0.2299805
4529,14,36.125,-176.5,0.8183594,-0.324707,0.1943359,-0.2138672,0.1137695,-0.230957
4533,16.8125,39.8125,-187.125,0.4580078,-0.3286133,0.2094727,-0.21875,0.1049805,-0.2324219
4537,25.8125,-12.5625,-184.875,0.175293,-0.2548828,0.2558594,-0.2246094,0.09228516,-0.2353516
4541,33.5625,-77.25,-171.1875,0.4506836,-0.1694336,0.2558594,-0.2329102,0.07519531,-0.2338867
4545,41.3125,-97.9375,-155.3125,0.8378906,-0.1694336,0.2060547,-0.2387695,0.06494141,-0.2285156
4549,49.125,-66.125,-150.625,1.159668,-0.1308594,0.144043,-0.2509766,0.04980469,-0.2246094
4553,53.3125,-0.125,-159.1875,1.182617,-0.03369141,0.1132813,-0.2568359,0.03759766,-0.2216797
4557,35.375,74.1875,-197.5,0.8920898,0.2148438,0.1865234,-0.2592773,0.02636719,-0.2270508
4561,26.0625,69.0625,-225.5625,0.2685547,0.09033203,0.2250977,-0.2578125,0.007324219,-0.230957
4565,39.5625,-15.75,-220.125,0.125,0.15625,0.2290039,-0.2568359,-0.01318359,-0.2338867
4569,48.875,-77.25,-206.0625,0.543457,0.2768555,0.2060547,-0.2592773,-0.02685547,-0.230957
4573,58.3125,-82.25,-189.0625,1.004395,0.2265625,0.1674805,-0.2661133,-0.04833984,-0.2270508
4577,69.375,-36.375,-180.3125,1.194336,0.284668,0.1367188,-0.2675781,-0.06835938,-0.21875
4581,66.25,22.0625,-201.75,0.9736328,0.6108398,0.2519531,-0.2675781,-0.078125,-0.2177734
4586,31.4375,15.3125,-232.625,0.5239258,0.8632813,0.2709961,-0.2636719,-0.1005859,-0.21875
4590,36.375,-50.25,-223.4375,0.5161133,0.7158203,0.2480469,-0.2592773,-0.1206055,-0.2177734
4594,47.8125,-106.8125,-205,0.8730469,0.7626953,0.1904297,-0.2578125,-0.1357422,-0.2148438
4598,51.4375,-103.5625,-187.625,1.256348,0.7548828,0.159668,-0.2578125,-0.1533203,-0.2026367
4602,52.6875,-59.8125,-174.875,1.364746,0.7119141,0.1479492,-0.2578125,-0.171875,-0.1943359
4606,54.5625,-11.25,-169.6875,1.175293,0.7470703,0.1479492,-0.2568359,-0.1831055,-0.1904297
4610,44.1875,13.1875,-189.75,0.8183594,1.061523,0.1982422,-0.2495117,-0.2006836,-0.1889648
4614,23.5625,-7.125,-202.375,0.574707,0.9453125,0.1674805,-0.2402344,-0.2158203,-0.1875
4618,33.625,-39.375,-201.375,0.7412109,0.8789063,0.1479492,-0.2329102,-0.2280273,-0.1865234
4622,35.375,-44.0625,-193.25,0.9311523,0.9375,0.1210938,-0.2270508,-0.2456055,-0.1821289
4626,37.8125,-18.5,-182,1.066406,0.8828125,0.125,-0.2172852,-0.2617188,-0.1796875
4630,41.8125,21.75,-177.625,1.000488,0.9140625,0.09814453,-0.2089844,-0.2719727,-0.1782227
4634,43.9375,48.3125,-175.375,0.7333984,0.9492188,0.105957,-0.1962891,-0.2841797,-0.175293
4638,44.0625,33,-177.0625,0.3613281,1.073242,0.09423828,-0.1831055,-0.2993164,-0.1738281
4642,45.4375,-7.75,-177.25,0.3691406,1.112305,0.1171875,-0.1708984,-0.3066406,-0.1738281
4646,50.125,-26.6875,-169.875,0.578125,1.162598,0.1289063,-0.1591797,-0.3178711,-0.168457
4650,49.375,-22.25,-158.25,0.7294922,1.232422,0.125,-0.1459961,-0.3291016,-0.1645508
4654,43.4375,-13.5,-144.5,0.7641602,1.213379,0.07910156,-0.1376953,-0.3354492,-0.1606445
4658,44.9375,-4.375,-139.4375,0.7138672,1.209473,0.04443359,-0.1259766,-0.3442383,-0.1577148
4662,42.875,-1.9375,-139.625,0.7099609,1.333496,0.08642578,-0.112793,-0.3530273,-0.1508789
4666,29.0625,2.5,-140.4375,0.7138672,1.310547,0.1171875,-0.1054688,-0.3554688,-0.1523438
4670,26.875,-4.5625,-126.625,0.6831055,1.20166,0.1328125,-0.09130859,-0.3632813,-0.1494141
4674,22.875,-24.1875,-108.6875,0.6713867,1.225098,0.1479492,-0.08203125,-0.3681641,-0.1469727
4678,18.25,-39.5625,-91.1875,0.8110352,1.189941,0.1479492,-0.07714844,-0.371582,-0.1469727
4682,13.0625,-41.75,-68.125,0.9350586,1.131836,0.1518555,-0.06982422,-0.3730469,-0.144043
4686,9.8125,-34.8125,-44.5,1.004395,1.100586,0.159668,-0.06494141,-0.3730469,-0.1425781
4690,5.4375,-22.625,-24.5,1.016113,1.049805,0.1713867,-0.06396484,-0.3745117,-0.1416016
4694,2.1875,-10.875,-6.625,0.9423828,1.038574,0.1787109,-0.06396484,-0.3754883,-0.1401367
4698,-3.125,-5.375,7,0.8574219,1.061523,0.1713867,-0.06396484,-0.3745117,-0.1401367
4702,-11.25,-2.6875,15.375,0.7915039,1.06543,0.1479492,-0.06396484,-0.3754883,-0.1416016
4706,-15.1875,-2.5,26.4375,0.7797852,1.007324,0.1171875,-0.06494141,-0.3745117,-0.1425781
4710,-16.0625,-2.5,37.75,0.8222656,1.057617,0.1020508,-0.06884766,-0.3745117,-0.1425781
4715,-22,-1.6875,56.25,0.8613281,1.100586,0.09814453,-0.07128906,-0.371582,-0.144043
4719,-26.75,-3.8125,77.6875,0.8652344,1.116211,0.09423828,-0.07714844,-0.3681641,-0.1455078
4723,-28.125,-10.375,99.5,0.8496094,1.143066,0.1098633,-0.08642578,-0.3657227,-0.1494141
4727,-32.875,-13.8125,115.625,0.8613281,1.255859,0.125,-0.09033203,-0.3618164,-0.1494141
4731,-40.5625,-11.1875,127.9375,0.9311523,1.271484,0.1713867,-0.1020508,-0.3554688,-0.1508789
4735,-50.5,-6.125,138.25,0.9775391,1.341309,0.1787109,-0.1152344,-0.3520508,-0.15625
4739,-55.125,-5.625,161.0625,1.000488,1.267578,0.1635742,-0.1235352,-0.3442383,-0.1591797
4743,-52.0625,-9.375,185.25,0.9931641,1.341309,0.1674805,-0.1401367,-0.3344727,-0.1616211
4747,-58.6875,-3.5,203.875,0.9775391,1.426758,0.2133789,-0.1567383,-0.3242188,-0.1660156
4751,-71.3125,3.6875,202.0625,0.8842773,1.49707,0.2749023,-0.1699219,-0.3144531,-0.1674805
4755,-86,2.25,195.125,0.7641602,1.473633,0.3212891,-0.1831055,-0.2993164,-0.175293
4759,-95.9375,-8,192.125,0.7216797,1.314453,0.3095703,-0.1962891,-0.2817383,-0.1796875
4763,-83.6875,-34.6875,210.375,0.7680664,1.135742,0.2866211,-0.2055664,-0.2680664,-0.1850586
4767,-66.9375,-44.25,240.125,1.089844,1.120117,0.2675781,-0.222168,-0.2480469,-0.1835938
4771,-65.3125,-17.625,234.1875,1.252441,1.162598,0.2788086,-0.2353516,-0.2280273,-0.1865234
4775,-63.6875,16.625,264.1875,1.182617,1.251953,0.2094727,-0.2436523,-0.2143555,-0.1889648
4779,-62.25,30.625,271.25,0.9814453,1.09668,0.1635742,-0.2553711,-0.1879883,-0.1904297
4783,-54.5625,21.6875,281.625,0.8613281,0.972168,0.1132813,-0.2626953,-0.1606445,-0.1958008
4787,-38.9375,2.0625,293.3125,0.8457031,0.8789063,0.07519531,-0.2675781,-0.1445313,-0.1972656
4791,-24.0625,-18.625,312.6875,1.016113,0.840332,0.06347656,-0.2744141,-0.1157227,-0.199707
4795,-17.5625,0.8125,321.875,1.349609,0.8867188,0.06738281,-0.2817383,-0.08837891,-0.1972656
4799,-27.1875,53.375,317.5,1.399902,0.9335938,0.01708984,-0.2817383,-0.06835938,-0.1972656
4803,-26.4375,88.625,326.375,1.159668,0.7314453,-0.01318359,-0.2817383,-0.03710938,-0.2055664
4807,-23.125,104.875,325.625,0.9077148,0.7470703,-0.03222656,-0.2734375,-0.008300781,-0.2133789
4811,-29.9375,104.1875,322.0625,0.6171875,0.6459961,0.001953125,-0.2675781,0.01025391,-0.2177734
4815,-26.9375,76.9375,318.0625,0.3457031,0.4477539,0.02099609,-0.2543945,0.03759766,-0.2270508
4819,-23.25,64.1875,303.5625,0.5087891,0.3857422,0.05957031,-0.2412109,0.06640625,-0.2299805
4823,-27.375,88,284.625,0.6328125,0.3232422,0.03662109,-0.2304688,0.08105469,-0.2324219
4827,-26.3125,120.75,265.875,0.527832,0.1757813,-0.009277344,-0.215332,0.1000977,-0.2407227
4831,-19.8125,128,250.875,0.2836914,0.1484375,0.02880859,-0.1948242,0.1186523,-0.2460938
4835,-28.0625,119.3125,228.4375,-0.01416016,0.09423828,0.07519531,-0.1816406,0.1298828,-0.25
4839,-29.9375,84.5,216.9375,-0.1884766,-0.1113281,0.1367188,-0.1582031,0.1425781,-0.2568359
4844,-25.75,41.4375,207.0625,-0.1728516,-0.2275391,0.1826172,-0.1425781,0.1538086,-0.2583008
4848,-20.25,23.3125,190.75,-0.02197266,-0.3676758,0.1674805,-0.1318359,0.1625977,-0.2583008
4852,-17.375,30,167.125,0.1171875,-0.3754883,0.159668,-0.1201172,0.1723633,-0.2568359
4856,-14.875,48.0625,143.8125,0.1015625,-0.503418,0.1518555,-0.1069336,0.1787109,-0.2583008
4860,-9.0625,64.875,121.625,0.02441406,-0.534668,0.125,-0.09619141,0.1787109,-0.2568359
4864,-8.5,71.8125,101.5,-0.1303711,-0.5854492,0.140625,-0.08544922,0.1835938,-0.2597656
4868,-4.9375,53.4375,91,-0.378418,-0.6748047,0.1674805,-0.07324219,0.1860352,-0.2626953
4872,-1.8125,21.0625,76.625,-0.4790039,-0.7094727,0.1904297,-0.06884766,0.1899414,-0.2636719
4876,0.125,-1.5,55.125,-0.3549805,-0.7250977,0.2094727,-0.06152344,0.1884766,-0.2636719
4880,0.125,-1.75,31.25,-0.1650391,-0.7172852,0.2402344,-0.05810547,0.1899414,-0.2626953
4884,1.5625,8.5625,10.4375,-0.07226563,-0.7832031,0.2519531,-0.05810547,0.1914063,-0.2626953
4888,6.875,15.9375,-5.375,-0.09521484,-0.8183594,0.2636719,-0.05664063,0.1914063,-0.2626953
4892,11.75,11.75,-15.3125,-0.08398438,-0.7910156,0.3173828,-0.05566406,0.1923828,-0.2636719
4896,11.1875,-2.3125,-23.625,-0.09130859,-0.7602539,0.3671875,-0.05419922,0.1884766,-0.2636719
4900,8.8125,-20.625,-30.25,0.03173828,-0.7719727,0.3867188,-0.06054688,0.1860352,-0.2666016
4904,6,-30.0625,-40.125,0.175293,-0.7211914,0.4404297,-0.06298828,0.1884766,-0.2651367
4908,-0.375,-33.9375,-44.8125,0.3110352,-0.7446289,0.4287109,-0.06494141,0.1850586,-0.2636719
4912,2.3125,-33.1875,-42.0625,0.4311523,-0.7988281,0.4287109,-0.07226563,0.1850586,-0.2636719
4916,4.5,-28.75,-34.4375,0.4775391,-0.7871094,0.409668,-0.07470703,0.1850586,-0.2651367
4920,7.9375,-23.25,-29.5,0.4580078,-0.8027344,0.409668,-0.078125,0.1835938,-0.2636719
4924,7.6875,-20,-31.75,0.3925781,-0.7753906,0.4018555,-0.08203125,0.1826172,-0.2636719
4928,6.375,-20.625,-37.3125,0.3535156,-0.7368164,0.3979492,-0.08642578,0.1811523,-0.2626953
4932,4.6875,-22.875,-40.3125,0.3149414,-0.7680664,0.3867188,-0.09033203,0.1801758,-0.2626953
4936,6.625,-30.5625,-41.5,0.2836914,-0.7329102,0.3945313,-0.09375,0.1772461,-0.2612305
4940,6.625,-34.75,-41.4375,0.3149414,-0.7290039,0.3710938,-0.09863281,0.1748047,-0.2626953
4944,9.75,-35.0625,-44.3125,0.3149414,-0.7485352,0.3330078,-0.1030273,0.1748047,-0.2612305
4948,13,-27.875,-51.875,0.3188477,-0.7016602,0.3095703,-0.1079102,0.1738281,-0.2583008
4952,12.375,-21.5,-66.4375,0.2915039,-0.6201172,0.3330078,-0.1152344,0.1689453,-0.2612305
4956,7.375,-21.375,-80.0625,0.2412109,-0.6083984,0.3330078,-0.1162109,0.1674805,-0.2597656
4960,7.1875,-33.625,-88.375,0.1635742,-0.6005859,0.3442383,-0.1245117,0.1650391,-0.2597656
4964,6.4375,-57.9375,-85.75,0.206543,-0.5927734,0.3251953,-0.1328125,0.1601563,-0.2597656
4968,11.625,-70,-80.25,0.3378906,-0.6630859,0.2402344,-0.1391602,0.1586914,-0.2558594
4973,22.125,-56.875,-87.5625,0.4467773,-0.6279297,0.1904297,-0.1494141,0.1513672,-0.2558594
4977,26.75,-22.125,-110.125,0.4892578,-0.5229492,0.1557617,-0.1591797,0.1474609,-0.2543945
4981,23.25,6.6875,-148.0625,0.4194336,-0.3598633,0.2290039,-0.1616211,0.1401367,-0.2529297
4985,17.8125,3.875,-159.1875,0.2255859,-0.3950195,0.2402344,-0.1699219,0.1313477,-0.2558594
4989,24.8125,-41.125,-153.0625,0.109375,-0.3989258,0.2558594,-0.1782227,0.1210938,-0.2568359
4993,30.8125,-82.625,-141.6875,0.2451172,-0.3754883,0.1518555,-0.1865234,0.1176758,-0.2558594
4997,47,-85.6875,-138.875,0.5161133,-0.4609375,0.04443359,-0.2006836,0.1049805,-0.25
5001,70.3125,-57.5625,-139.25,0.5898438,-0.4296875,-0.01318359,-0.2104492,0.08984375,-0.2475586
5005,83.125,-25.4375,-166.625,0.4428711,-0.01806641,0.1171875,-0.2172852,0.08251953,-0.2475586
5009,52,-11.125,-213.9375,0.1948242,0.1640625,0.1132813,-0.222168,0.0625,-0.2490234
5013,53,-41.1875,-238.8125,0.06298828,-0.02197266,0.04443359,-0.2304688,0.04394531,-0.2490234
5017,69.0625,-74.5,-244.6875,0.2797852,0.05126953,-0.05126953,-0.237793,0.02734375,-0.2460938
5021,86.375,-72.9375,-240.25,0.6054688,0.08251953,-0.1323242,-0.2470703,0.00390625,-0.2436523
5025,109.4375,-35.75,-235.125,0.7993164,0.08251953,-0.1435547,-0.253418,-0.01806641,-0.237793
5029,129.625,16.0625,-247.625,0.6518555,0.5058594,-0.009277344,-0.2543945,-0.03808594,-0.2407227
5033,105.1875,32.375,-310.8125,0.4155273,1.162598,0.1674805,-0.253418,-0.06689453,-0.2421875
5037,62.1875,-16.1875,-337.5625,0.3808594,1.205566,0.3442383,-0.2470703,-0.09814453,-0.2421875
5041,59.0625,-70.75,-308.9375,0.8457031,0.987793,0.340332,-0.2446289,-0.1181641,-0.2353516
5045,79.25,-72.4375,-258.3125,1.279785,0.7856445,0.2944336,-0.2412109,-0.1445313,-0.2338867
5049,101.25,-28.4375,-227.1875,1.217773,0.7895508,0.2519531,-0.237793,-0.1679688,-0.2231445
5053,113.5625,-23.125,-218.8125,0.6674805,1.034668,0.2329102,-0.2353516,-0.1855469,-0.2202148
5057,100.75,-58.6875,-231.3125,0.6557617,1.590332,0.4135742,-0.2246094,-0.2080078,-0.2148438
5061,59.8125,-83.375,-250.5,0.9501953,1.49707,0.3828125,-0.21875,-0.2304688,-0.2041016
5065,61.625,-80.5625,-239.5,1.182617,1.193848,0.3637695,-0.2128906,-0.2431641,-0.199707
5069,62.0625,-44.4375,-222.5625,1.318359,1.189941,0.3481445,-0.2045898,-0.2631836,-0.1918945
5073,61.4375,1.5,-217.5,1.121094,1.131836,0.3251953,-0.1914063,-0.2807617,-0.1875
5077,60.875,24.0625,-212.125,0.8183594,1.189941,0.2402344,-0.1791992,-0.2919922,-0.1835938
5081,62.4375,14.375,-215.0625,0.5200195,1.217285,0.1748047,-0.1650391,-0.3095703,-0.1821289
5085,65.1875,-12.8125,-218.8125,0.4931641,1.287109,0.09033203,-0.1474609,-0.3217773,-0.175293
5089,67.75,-24.5625,-223.4375,0.6831055,1.364746,0.1367188,-0.1367188,-0.3305664,-0.1728516
5093,64.9375,-14.125,-225.8125,0.7954102,1.430664,0.1479492,-0.1186523,-0.3442383,-0.1660156
5097,48.0625,5.6875,-205.625,0.8032227,1.523926,0.1171875,-0.09863281,-0.3554688,-0.1630859
5102,41.4375,12.5,-189.0625,0.6870117,1.306641,0.1132813,-0.08544922,-0.3603516,-0.1591797
5106,45.625,-6,-176.3125,0.4697266,1.294922,0.1098633,-0.06884766,-0.3666992,-0.15625
5110,47.9375,-46.5625,-161.1875,0.4619141,1.317871,0.140625,-0.05322266,-0.3730469,-0.1523438
5114,44.4375,-70.25,-143.25,0.675293,1.317871,0.1865234,-0.04394531,-0.3754883,-0.1494141
5118,36.6875,-74.75,-123.0625,0.8417969,1.337402,0.2133789,-0.03417969,-0.3793945,-0.144043
5122,23.625,-65.25,-86,0.9155273,1.310547,0.2250977,-0.02246094,-0.3803711,-0.1401367
5126,14.75,-59.1875,-48.75,0.9658203,1.182129,0.2441406,-0.02246094,-0.3833008,-0.1386719
5130,10.375,-49.75,-19.375,0.9736328,1.186035,0.2519531,-0.02246094,-0.3833008,-0.1386719
5134,0.75,-38.4375,-0.125,0.9155273,1.193848,0.2597656,-0.02099609,-0.3842773,-0.137207
5138,-9,-31.625,15.5625,0.8496094,1.150879,0.2133789,-0.02099609,-0.3833008,-0.1386719
5142,-15.4375,-22.75,29.4375,0.8222656,1.124023,0.1518555,-0.02587891,-0.3818359,-0.1386719
5146,-22.1875,-12.625,42.25,0.7641602,1.09668,0.07910156,-0.02832031,-0.3818359,-0.1386719
5150,-23.6875,-5.125,55.25,0.7021484,1.04248,0.05175781,-0.03173828,-0.3818359,-0.1416016
5154,-20.4375,-6.4375,69.5,0.6328125,1.045898,0.04052734,-0.03759766,-0.3779297,-0.1425781
5158,-23.375,-11.0625,81.9375,0.6362305,1.158691,0.04052734,-0.04394531,-0.3793945,-0.1455078
5162,-28.3125,-11.4375,91.5625,0.659668,1.197754,0.05957031,-0.04980469,-0.3754883,-0.1469727
5166,-33.1875,-10.9375,102.8125,0.675293,1.143066,0.04785156,-0.06054688,-0.3745117,-0.1484375
5170,-32.3125,-8.0625,117.75,0.6982422,1.166504,0.03271484,-0.07128906,-0.3691406,-0.1508789
5174,-33.0625,-0.625,130.25,0.7412109,1.225098,0.06738281,-0.07958984,-0.3642578,-0.1523438
5178,-37.5,4.4375,137.3125,0.7255859,1.283203,0.1132813,-0.09228516,-0.359375,-0.15625
5182,-42.8125,6.6875,152.5625,0.7451172,1.287109,0.125,-0.1030273,-0.3544922,-0.15625
5186,-45.75,11.1875,162.1875,0.7758789,1.294922,0.144043,-0.1137695,-0.3491211,-0.1616211
5190,-47.25,16.8125,170.1875,0.7836914,1.255859,0.1367188,-0.1259766,-0.3408203,-0.1645508
5194,-44.4375,17.75,185.25,0.8110352,1.259766,0.144043,-0.1401367,-0.3305664,-0.168457
5198,-39.3125,11.8125,205.0625,0.8535156,1.259766,0.144043,-0.1518555,-0.3232422,-0.1713867
5202,-36.25,13.0625,220.625,0.9775391,1.399902,0.1635742,-0.1674805,-0.3095703,-0.1738281
5206,-42,19.625,232.125,0.9814453,1.368652,0.1713867,-0.1831055,-0.2929688,-0.1767578
5210,-43.0625,17.9375,245.0625,0.9541016,1.279297,0.140625,-0.1938477,-0.2832031,-0.1821289
5214,-37.9375,15.75,262.4375,1.031738,1.217285,0.1328125,-0.2089844,-0.2631836,-0.1850586
5218,-37.0625,24.25,271.6875,1.155762,1.228516,0.1171875,-0.2246094,-0.2441406,-0.1889648
5222,-31.6875,38.1875,290.3125,1.19043,1.146973,0.1171875,-0.2319336,-0.2255859,-0.1904297
5226,-33.0625,55.6875,288.0625,1.140137,1.259766,0.144043,-0.2436523,-0.203125,-0.1928711
5231,-42.1875,66.625,285.6875,1.02002,1.13916,0.144043,-0.2509766,-0.1791992,-0.199707
5235,-43.5,66.625,288.8125,0.9389648,1.019043,0.159668,-0.2553711,-0.1606445,-0.2055664
5239,-46.4375,67.5625,297,1.035645,0.953125,0.1865234,-0.2602539,-0.1333008,-0.2109375
5243,-52.375,73.75,306.25,0.9970703,0.9682617,0.2368164,-0.2617188,-0.1069336,-0.21875
5247,-61.125,77.75,295.6875,0.9697266,0.8598633,0.2290039,-0.2626953,-0.08935547,-0.2216797
5251,-62.0625,90.5625,287.4375,1.008301,0.7197266,0.2094727,-0.2617188,-0.06201172,-0.2285156
5255,-61.1875,104.6875,285.6875,0.8881836,0.6225586,0.1674805,-0.2553711,-0.03564453,-0.237793
5259,-61.6875,98.25,279.9375,0.543457,0.5913086,0.1826172,-0.2509766,-0.015625,-0.2421875
5263,-64.5,62.0625,273.6875,0.4155273,0.4790039,0.2211914,-0.2426758,0.01025391,-0.2475586
5267,-63.6875,46.1875,270.375,0.6015625,0.3935547,0.2290039,-0.2329102,0.03369141,-0.2514648
5271,-66.9375,66.625,254.4375,0.8300781,0.300293,0.1674805,-0.2270508,0.04882813,-0.2514648
