Packet number,Gyroscope X (deg/s),Gyroscope Y (deg/s),Gyroscope Z (deg/s),Accelerometer X (g),Accelerometer Y (g),Accelerometer Z (g),Magnetometer X (G),Magnetometer Y (G),Magnetometer Z (G)
1,-0.6875,-1.1875,6.0625,-0.9633789,-0.04541016,-0.1513672,0.3305664,-0.03808594,-0.09765625
5,-2.125,-0.5625,5.125,-0.9555664,-0.04882813,-0.1435547,0.3305664,-0.03710938,-0.09912109
9,-1.4375,0.125,4.75,-0.9790039,-0.05664063,-0.1323242,0.3320313,-0.03808594,-0.09667969
13,-0.3125,-1.5,4.3125,-1.005859,-0.03759766,-0.1401367,0.3305664,-0.03955078,-0.09912109
17,0.8125,-2.75,5,-1.001953,-0.02978516,-0.128418,0.3320313,-0.03955078,-0.09667969
21,3.8125,-3.3125,6.8125,-1.013672,-0.002441406,-0.1206055,0.3305664,-0.04199219,-0.09765625
25,6.75,-4.0625,8.6875,-1.025391,0.05517578,-0.128418,0.3320313,-0.03955078,-0.09912109
29,9.0625,-5.5625,13.0625,-1.063965,0.1176758,-0.09765625,0.3320313,-0.04199219,-0.1020508
33,15.25,-8.625,18.75,-1.075684,0.1796875,-0.05126953,0.3320313,-0.04199219,-0.1005859
37,27.5625,-14.0625,30.1875,-1.137695,0.253418,-0.05126953,0.3295898,-0.04589844,-0.09912109
41,41.3125,-20.75,44.375,-1.149414,0.3779297,-0.07080078,0.3305664,-0.04833984,-0.1020508
45,42.625,-23.125,65.875,-1.161133,0.5449219,-0.2246094,0.3295898,-0.0546875,-0.1035156
49,22.0625,-14.625,80.8125,-1.044922,0.6733398,-0.2939453,0.3305664,-0.06298828,-0.1044922
53,-10.5625,-4.375,94.25,-1.095215,0.6694336,-0.2744141,0.3295898,-0.07324219,-0.1074219
57,-35.375,-1.6875,105,-1.133789,0.4907227,-0.1362305,0.3295898,-0.078125,-0.1088867
61,-36.0625,-5.9375,111.75,-1.184082,0.269043,-0.03222656,0.3271484,-0.08935547,-0.1074219
65,-21.25,-12.8125,114.4375,-1.211426,0.2338867,-0.001464844,0.3271484,-0.1005859,-0.1098633
69,-7.4375,-20.5625,120.4375,-1.219238,0.3349609,-0.04736328,0.3261719,-0.1083984,-0.1113281
73,-5.125,-25.875,125.625,-1.203613,0.4282227,-0.1206055,0.324707,-0.1196289,-0.112793
77,-9.625,-25.125,134.9375,-1.103027,0.4790039,-0.1669922,0.3188477,-0.1318359,-0.1157227
81,-18,-15.4375,144.75,-1.041016,0.4243164,-0.1821289,0.3164063,-0.1420898,-0.1181641
85,-21.25,-8,145.25,-1.033203,0.3466797,-0.1474609,0.3154297,-0.1567383,-0.1181641
89,-23.25,-5.875,143.4375,-1.033203,0.2768555,-0.1323242,0.3081055,-0.1704102,-0.1210938
93,-26.5625,-7.0625,138.1875,-1.033203,0.2226563,-0.09375,0.3071289,-0.1782227,-0.1225586
97,-21.9375,-14,127.0625,-1.013672,0.09033203,-0.1054688,0.3007813,-0.1904297,-0.1225586
102,-12.6875,-16.0625,118.5,-0.8666992,0.02441406,-0.128418,0.2949219,-0.2006836,-0.1225586
106,-6.625,-12,103.75,-0.7890625,0.02050781,-0.1474609,0.2924805,-0.2094727,-0.125
110,0.9375,-9.5625,86.8125,-0.7929688,0.008789063,-0.1743164,0.2866211,-0.2167969,-0.1289063
114,12.625,-7.0625,75.1875,-0.7773438,0.07470703,-0.1708984,0.2832031,-0.2270508,-0.1279297
118,19.0625,-3.8125,62.25,-0.7929688,0.2265625,-0.1821289,0.2792969,-0.2294922,-0.125
122,17.3125,-5.8125,50.8125,-0.8745117,0.4052734,-0.2016602,0.2783203,-0.2358398,-0.1279297
126,13.1875,-11.625,46.3125,-0.9399414,0.5488281,-0.1669922,0.2749023,-0.2407227,-0.1264648
130,18.0625,-17.9375,47.5625,-1.029297,0.7626953,-0.1323242,0.2734375,-0.2431641,-0.1289063
134,24.125,-20.0625,69.6875,-1.025391,1.088867,-0.128418,0.2700195,-0.2480469,-0.1279297
138,14.6875,-12,99.875,-0.9672852,1.372559,-0.1708984,0.2641602,-0.2583008,-0.1289063
142,-8.6875,-3,128.3125,-0.9829102,1.504395,-0.1860352,0.2602539,-0.2631836,-0.1264648
146,-31.625,-1.3125,147.8125,-1.041016,1.46582,-0.1245117,0.2519531,-0.2719727,-0.1279297
150,-43.4375,-10.5625,161.875,-1.129883,1.415039,-0.07470703,0.2412109,-0.2841797,-0.1318359
154,-38.25,-16.8125,182.6875,-1.083496,1.403809,-0.02441406,0.2329102,-0.2905273,-0.1347656
158,-33.375,-8,213.0625,-1.037109,1.59375,-0.009277344,0.2202148,-0.3032227,-0.137207
162,-53,-6.875,235.3125,-1.145508,1.683105,-0.06689453,0.203125,-0.3178711,-0.1401367
166,-79,-13.3125,246.4375,-1.137695,1.679688,-0.04003906,0.1904297,-0.3242188,-0.144043
170,-104.6875,-16.8125,260.5,-1.071777,1.562988,-0.01318359,0.1699219,-0.3369141,-0.1523438
174,-115.8125,-11.875,278.8125,-1.021484,1.384277,0.03662109,0.1474609,-0.3432617,-0.1606445
178,-110.9375,-8.0625,298.3125,-1.07959,1.174316,0.1328125,0.1293945,-0.3466797,-0.1674805
182,-90.3125,-11.0625,314.75,-1.060547,1.131836,0.1635742,0.1020508,-0.3520508,-0.1767578
186,-89.5,-12.875,317.8125,-1.013672,1.275391,0.1210938,0.07470703,-0.3569336,-0.1850586
190,-106.4375,-22.5625,319.5,-1.013672,1.259766,0.05957031,0.05810547,-0.359375,-0.1889648
194,-119.375,-22.25,324.8125,-0.9711914,1.248047,0.07519531,0.02734375,-0.3544922,-0.2011719
198,-130.5,-26.625,333.8125,-0.9985352,1.174316,0.05566406,-0.001953125,-0.3491211,-0.2119141
202,-134.3125,-33.5625,343.125,-1.009766,1.053711,0.03662109,-0.0234375,-0.3408203,-0.2177734
206,-127.875,-40.875,347.125,-0.8974609,0.8671875,0.1020508,-0.05419922,-0.3291016,-0.2285156
210,-107.1875,-47.5,353.4375,-0.8706055,0.6772461,0.1098633,-0.08544922,-0.3120117,-0.2368164
214,-81.875,-49.3125,348.25,-0.699707,0.6772461,0.1132813,-0.1044922,-0.3017578,-0.2392578
218,-75.625,-47.125,349.0625,-0.6303711,0.6962891,-0.01660156,-0.1318359,-0.2817383,-0.2436523
222,-79.625,-44.5625,345.9375,-0.7036133,0.7275391,-0.009277344,-0.1591797,-0.2607422,-0.2446289
226,-94,-54.875,349.75,-0.5024414,0.4555664,-0.08984375,-0.1757813,-0.2431641,-0.2446289
231,-107.0625,-47.5,343.25,-0.2929688,0.2109375,-0.1513672,-0.1972656,-0.2143555,-0.2490234
235,-136.5625,-42.8125,318.3125,-0.1533203,-0.01416016,-0.2900391,-0.215332,-0.1855469,-0.2514648
239,-162.125,-43.25,281,-0.04492188,-0.565918,-0.2861328,-0.2255859,-0.1630859,-0.2514648
243,-161.0625,-48.5,243,0.1484375,-1.140625,-0.2744141,-0.2363281,-0.1293945,-0.2543945
247,-119.5625,-39.5625,210.375,0.4775391,-1.606934,-0.2167969,-0.2446289,-0.1020508,-0.2514648
251,-70.25,-23.625,145,0.7099609,-1.80127,-0.2475586,-0.2495117,-0.08691406,-0.25
255,-26.4375,-6.3125,74.8125,0.8032227,-1.71582,-0.1743164,-0.2519531,-0.07324219,-0.2514648
259,12.0625,6.375,14.6875,0.7529297,-1.424316,-0.05126953,-0.2509766,-0.06689453,-0.2514648
263,41.9375,15.6875,-32.625,0.6982422,-1.055176,0.159668,-0.2519531,-0.06689453,-0.2490234
267,65.375,13.5,-70.4375,0.5668945,-0.6513672,0.3173828,-0.2509766,-0.07714844,-0.25
271,85.5625,2.75,-95.5,0.5356445,-0.3598633,0.4790039,-0.2470703,-0.08691406,-0.2529297
275,113,-8.0625,-104.5,0.5048828,-0.1694336,0.4941406,-0.2470703,-0.09716797,-0.25
279,131,-15.125,-108.1875,0.609375,0.07470703,0.4711914,-0.2460938,-0.1142578,-0.2490234
283,126.875,-17.0625,-113.6875,0.675293,0.3505859,0.3637695,-0.2460938,-0.1333008,-0.2436523
287,107.125,-19.9375,-111.8125,0.7255859,-0.1538086,0.340332,-0.2426758,-0.1445313,-0.2392578
291,68.25,-17.8125,-123.1875,0.7641602,0.5058594,0.08642578,-0.2412109,-0.1591797,-0.2368164
295,29.5625,-6.875,-130.75,0.8339844,0.4477539,0.1020508,-0.2387695,-0.1733398,-0.230957
299,13.0625,7.25,-142.625,0.7021484,0.21875,0.3251953,-0.2353516,-0.1821289,-0.2338867
303,39.5,3.5,-144.375,0.4580078,0.09033203,0.409668,-0.2280273,-0.1933594,-0.2324219
307,65.375,-5.0625,-145.25,0.4931641,0.1523438,0.3598633,-0.222168,-0.2070313,-0.230957
311,72.8125,-6.625,-153.5,0.5126953,0.2963867,0.1982422,-0.2163086,-0.2167969,-0.2270508
315,46,-5.875,-167.1875,0.5126953,0.5019531,0.04785156,-0.2089844,-0.2319336,-0.2246094
319,-7.75,-3.1875,-187,0.5087891,0.6030273,-0.02832031,-0.1982422,-0.2431641,-0.2231445
323,-42.6875,-0.9375,-210.375,0.3457031,0.3583984,0.144043,-0.1938477,-0.2529297,-0.2255859
327,-10.3125,-6.1875,-216.1875,0.2255859,-0.03369141,0.3598633,-0.1791992,-0.2641602,-0.2285156
331,57.8125,-1,-215.3125,0.2294922,0.02832031,0.3442383,-0.1640625,-0.2768555,-0.2270508
335,87.875,9,-211.5,0.2294922,0.4165039,0.1020508,-0.1542969,-0.2880859,-0.2216797
339,68.1875,17.0625,-212.5,0.159668,0.7197266,-0.04394531,-0.1391602,-0.3017578,-0.21875
343,18.625,22.25,-221.6875,0.08642578,0.7856445,0.005859375,-0.1210938,-0.3144531,-0.2163086
347,8.8125,6.375,-251.8125,-0.3046875,0.5566406,0.1518555,-0.1079102,-0.3208008,-0.2133789
351,38.8125,-7.25,-252.125,-0.1689453,0.4750977,0.2441406,-0.08789063,-0.3291016,-0.2148438
355,73.0625,10.25,-237.9375,-0.09521484,0.6962891,0.09033203,-0.06738281,-0.3408203,-0.2109375
360,60.75,32.375,-214.5625,-0.05664063,0.9682617,-0.09375,-0.05224609,-0.3457031,-0.206543
364,18.875,56.8125,-186.9375,-0.04101563,1.030762,-0.1474609,-0.03417969,-0.3520508,-0.2041016
368,-28.125,75.125,-191.3125,-0.3935547,0.7705078,0.07910156,-0.01416016,-0.3520508,-0.2026367
372,21.3125,24.25,-290.0625,-1.28125,0.1914063,0.4868164,0.002441406,-0.3520508,-0.2055664
376,136.1875,-36,-300.25,-1.041016,0.5136719,0.2788086,0.02832031,-0.3544922,-0.2026367
380,162.625,-17.75,-276.8125,-0.5644531,1.271484,0.01708984,0.05224609,-0.3579102,-0.1889648
384,106,11.875,-239.625,-0.6533203,1.714355,-0.2363281,0.06640625,-0.3603516,-0.1782227
388,19.5625,20,-205.5625,-0.5644531,1.683105,-0.2744141,0.08789063,-0.359375,-0.1728516
392,-44.5,39.4375,-180.1875,-0.7075195,1.026855,0.005859375,0.1069336,-0.3544922,-0.1728516
396,6.3125,14.5,-245.375,-1.40918,0.3120117,0.2441406,0.1186523,-0.3481445,-0.1728516
400,105.3125,-25.9375,-249.625,-1.195801,0.7353516,0.1210938,0.1391602,-0.3417969,-0.1699219
404,108.6875,-1.5625,-215.4375,-0.7773438,1.481445,-0.09375,0.1582031,-0.3369141,-0.1630859
408,35.3125,22.25,-181.125,-0.8706055,1.675781,-0.2167969,0.1699219,-0.3320313,-0.1591797
412,-50.5625,14.625,-167.1875,-0.8857422,1.388184,-0.2397461,0.1865234,-0.3217773,-0.15625
416,-86.0625,14.0625,-181.6875,-0.862793,0.5566406,0.07910156,0.199707,-0.3105469,-0.1606445
420,-12.0625,16.75,-196.125,-1.013672,0.1484375,0.2250977,0.2094727,-0.3007813,-0.1616211
424,50.0625,22,-197.875,-1.12207,0.6962891,0.1020508,0.2236328,-0.2866211,-0.1591797
428,25.6875,15.8125,-184.625,-1.037109,1.17041,-0.1630859,0.237793,-0.2729492,-0.15625
432,-25.8125,24.625,-164.4375,-0.8818359,1.061523,-0.1474609,0.2451172,-0.265625,-0.1547852
436,-64.125,39.375,-161,-0.831543,0.7739258,-0.06689453,0.2568359,-0.2519531,-0.1547852
440,-66.5625,43.8125,-177.9375,-0.9516602,0.3120117,-0.009277344,0.2666016,-0.2329102,-0.15625
444,-30.4375,49.0625,-196.125,-0.9399414,0.1445313,0.03271484,0.2749023,-0.2216797,-0.1547852
448,4.0625,64.8125,-211.25,-1.013672,0.3544922,-0.03222656,0.2856445,-0.203125,-0.1508789
452,10,74.25,-215.75,-1.195801,0.6225586,-0.07861328,0.2973633,-0.1831055,-0.1455078
456,11.0625,68.125,-192.625,-1.443848,0.7041016,-0.06689453,0.3032227,-0.1694336,-0.1386719
460,15.3125,50.1875,-168.8125,-1.486328,0.855957,-0.03613281,0.309082,-0.1508789,-0.1347656
464,5.75,28.1875,-148.5625,-1.525391,1.04248,-0.02050781,0.3154297,-0.1367188,-0.1289063
468,-6.75,5.0625,-123.5625,-1.374023,1.061523,0.02880859,0.3164063,-0.1269531,-0.1279297
472,-10.0625,3.0625,-95.1875,-1.199707,1.04248,0.05957031,0.3212891,-0.1142578,-0.1279297
476,-11.8125,9.75,-57.1875,-1.15332,1.01123,0.08642578,0.3212891,-0.1069336,-0.1279297
480,-8.1875,13.125,-15.6875,-1.219238,0.90625,0.1367188,0.3198242,-0.1030273,-0.1264648
484,1.375,7.9375,15.625,-1.219238,0.824707,0.2060547,0.3212891,-0.1020508,-0.1235352
489,7.6875,-1,35.125,-1.211426,0.7739258,0.1865234,0.3212891,-0.1044922,-0.1264648
493,7.25,-14.25,43.875,-1.23877,0.7895508,0.1518555,0.3222656,-0.1069336,-0.125
497,3.8125,-33.9375,49.1875,-1.25,0.8442383,0.04443359,0.3222656,-0.1118164,-0.1279297
501,-2.125,-40.0625,64.6875,-1.106934,0.9179688,-0.05126953,0.3173828,-0.1166992,-0.1303711
505,-12.3125,-33.25,85.0625,-1.095215,0.9643555,-0.1166992,0.3154297,-0.1220703,-0.1333008
509,-14.9375,-29,116.4375,-1.172852,0.809082,-0.07470703,0.3139648,-0.1308594,-0.137207
513,-5.4375,-31.3125,132.5625,-1.230957,0.8051758,-0.04394531,0.3105469,-0.1430664,-0.1401367
517,-4.3125,-37.375,138,-1.253906,0.8710938,-0.05908203,0.3056641,-0.1533203,-0.1425781
521,-12.625,-39.9375,143.9375,-1.277344,0.9995117,-0.06689453,0.3032227,-0.1669922,-0.1469727
525,-34.1875,-42.8125,153.4375,-1.35498,1.081055,-0.06689453,0.2963867,-0.1791992,-0.1523438
529,-43.5625,-47.8125,176.6875,-1.455566,0.921875,0.009765625,0.2915039,-0.1894531,-0.1538086
533,-33.375,-51.5625,203.9375,-1.459473,0.8208008,0.105957,0.2807617,-0.2045898,-0.1606445
537,-13.3125,-51.3125,222,-1.459473,0.809082,0.144043,0.2700195,-0.2216797,-0.1660156
541,-2.0625,-49.8125,233.5,-1.45166,0.9257813,0.1479492,0.2592773,-0.234375,-0.1674805
545,-11,-48.4375,245.5625,-1.424316,1.073242,0.1210938,0.2451172,-0.2529297,-0.1713867
549,-34.0625,-48.5,253.6875,-1.439941,1.17041,0.08642578,0.2285156,-0.2719727,-0.175293
553,-55.875,-52.6875,263.8125,-1.467285,1.092773,0.1020508,0.2138672,-0.2817383,-0.1821289
557,-57.3125,-54.3125,283.1875,-1.479004,0.972168,0.1479492,0.1928711,-0.2944336,-0.1889648
561,-54.4375,-56.375,300.75,-1.401367,0.956543,0.125,0.1699219,-0.3081055,-0.1958008
565,-56,-52.9375,306.3125,-1.327637,0.9838867,0.140625,0.1523438,-0.3154297,-0.2011719
569,-65.5,-58.125,307.3125,-1.331543,1.084961,0.1020508,0.1259766,-0.3266602,-0.2080078
573,-88.8125,-66.75,312.1875,-1.327637,1.022949,0.1210938,0.09619141,-0.3291016,-0.2148438
577,-95.8125,-79.5625,321.8125,-1.234863,0.8442383,0.140625,0.07861328,-0.3320313,-0.2202148
581,-85.5,-77,333.375,-1.013672,0.5913086,0.1904297,0.04736328,-0.3305664,-0.2285156
585,-64.6875,-70.4375,340.8125,-0.9438477,0.5761719,0.1674805,0.01513672,-0.3266602,-0.2338867
589,-64.1875,-73.1875,332.5,-0.8549805,0.6225586,0.1132813,-0.005859375,-0.3256836,-0.237793
593,-69.5,-71.125,330.125,-0.6845703,0.6420898,0.09814453,-0.03515625,-0.3193359,-0.2446289
597,-75.8125,-69.9375,331.25,-0.6342773,0.4555664,0.07519531,-0.06738281,-0.3081055,-0.2490234
601,-58.625,-68.4375,322.8125,-0.4790039,0.253418,0.1943359,-0.08789063,-0.2993164,-0.25
605,-27.75,-66.8125,317.5,-0.2890625,0.237793,0.1328125,-0.1152344,-0.2856445,-0.2514648
609,-11.6875,-52.875,300.6875,-0.1499023,0.4750977,0.2441406,-0.1401367,-0.2705078,-0.25
613,-2.25,-49.1875,299.6875,-0.2348633,0.5761719,0.2636719,-0.1557617,-0.2617188,-0.2460938
618,-3.3125,-47.25,309.125,-0.215332,0.793457,0.2172852,-0.1772461,-0.2441406,-0.2446289
622,-40.125,-47.8125,320.0625,-0.09912109,0.8632813,0.09423828,-0.1962891,-0.2231445,-0.2421875
626,-74.5625,-53.1875,323.5,-0.1689453,0.5214844,0.04052734,-0.2114258,-0.2070313,-0.2436523
630,-91.75,-60.1875,315.3125,-0.01806641,0.2070313,0.07128906,-0.2280273,-0.1782227,-0.2407227
634,-101.125,-65.25,298.5,0.07470703,-0.07226563,0.05566406,-0.2426758,-0.1469727,-0.237793
638,-105.875,-70.875,279,0.1328125,-0.3481445,0.01708984,-0.2543945,-0.1254883,-0.2368164
642,-95.5,-78.75,265.0625,0.3378906,-0.7680664,-0.08984375,-0.2626953,-0.09814453,-0.2338867
646,-88.75,-72.625,237.25,0.5898438,-1.012695,-0.2900391,-0.2709961,-0.06933594,-0.2270508
650,-96.5625,-57.375,184.3125,0.8183594,-1.090332,-0.5131836,-0.2758789,-0.05175781,-0.2216797
654,-100.9375,-38.0625,122.1875,0.9272461,-1.319336,-0.5244141,-0.2768555,-0.03173828,-0.21875
658,-77.75,-13.6875,69.4375,1.000488,-1.544922,-0.3554688,-0.2768555,-0.01708984,-0.2148438
662,-29.0625,10.375,21.6875,0.9931641,-1.463379,-0.1206055,-0.2783203,-0.01074219,-0.2133789
666,22.375,28.25,-12.5,0.8496094,-1.179688,0.140625,-0.2783203,-0.008300781,-0.2163086
670,61.1875,30.75,-39.8125,0.7216797,-0.7368164,0.2905273,-0.2768555,-0.01464844,-0.2177734
674,74.375,24.25,-61.625,0.690918,-0.340332,0.3330078,-0.2744141,-0.01953125,-0.2202148
678,70.4375,14.9375,-74.75,0.6674805,-0.1035156,0.3598633,-0.2744141,-0.02929688,-0.2216797
682,63,3.4375,-83.5,0.7060547,-0.04150391,0.2749023,-0.2734375,-0.04052734,-0.2246094
686,52.9375,1.875,-93.9375,0.8652344,-0.08007813,0.1943359,-0.2734375,-0.04931641,-0.2231445
690,52.8125,10.8125,-105,0.8803711,-0.2006836,0.2133789,-0.2734375,-0.06054688,-0.2255859
694,63.75,12.75,-119.1875,0.8032227,-0.2431641,0.2402344,-0.2685547,-0.07421875,-0.2255859
698,79.75,12.75,-129.25,0.7177734,-0.2353516,0.2519531,-0.2700195,-0.08544922,-0.2246094
702,87.6875,12.5625,-139.75,0.6870117,-0.07617188,0.1787109,-0.2675781,-0.1020508,-0.2270508
706,68.4375,12.375,-159.1875,0.6674805,0.1176758,0.03662109,-0.2651367,-0.1181641,-0.2255859
710,40.5,15.6875,-179.375,0.625,0.07470703,0.1132813,-0.2617188,-0.1308594,-0.2255859
714,29.375,21.0625,-188.125,0.574707,0.09033203,0.1171875,-0.253418,-0.1479492,-0.2270508
718,28.4375,29.625,-194.75,0.5668945,0.04736328,0.2368164,-0.2485352,-0.1645508,-0.2285156
722,46.1875,32.1875,-194.4375,0.4194336,0.05126953,0.2060547,-0.2412109,-0.1782227,-0.2285156
726,65.75,33.5,-206.375,0.4428711,0.02050781,0.3671875,-0.2294922,-0.1958008,-0.2299805
730,114.75,32.75,-210.8125,0.2412109,0.09033203,0.3291016,-0.2163086,-0.2158203,-0.2285156
734,131.5,24.75,-218.6875,0.2685547,0.5253906,0.1943359,-0.2080078,-0.2329102,-0.2255859
738,113.8125,18.9375,-223.6875,0.206543,0.8481445,0.009765625,-0.1948242,-0.2543945,-0.2216797
742,53.375,12.6875,-220.0625,0.2685547,1.100586,-0.07861328,-0.1782227,-0.2729492,-0.2163086
747,-27.3125,16.4375,-217.9375,0.3305664,1.104492,-0.1206055,-0.168457,-0.2832031,-0.2148438
751,-57.75,24.1875,-225.9375,0.1674805,0.5410156,0.2519531,-0.1508789,-0.2929688,-0.2202148
755,-11.375,19.875,-227.5,0.05517578,0.3081055,0.3598633,-0.1328125,-0.3017578,-0.2246094
759,52.125,29.4375,-221.25,0.09765625,0.3427734,0.3710938,-0.1220703,-0.3081055,-0.2231445
763,93.5,41.3125,-207.8125,0.1015625,0.6381836,0.1674805,-0.1020508,-0.3193359,-0.2202148
767,89.375,58.5,-189.5,0.159668,0.9257813,-0.02441406,-0.08300781,-0.3320313,-0.2148438
771,45.8125,76.1875,-192.125,-0.1572266,1.019043,0.105957,-0.07226563,-0.3378906,-0.2119141
775,37.4375,28.625,-235.625,-0.7929688,0.9799805,0.1904297,-0.04980469,-0.3432617,-0.2109375
779,21.625,-26.6875,-261.8125,-0.5756836,1.104492,0.2519531,-0.02929688,-0.3466797,-0.2080078
783,43.5,-22.1875,-257.875,-0.3862305,1.038574,0.3017578,-0.01269531,-0.3520508,-0.206543
787,48.625,-7.0625,-228.75,-0.3007813,1.356934,0.1020508,0.006835938,-0.3530273,-0.199707
791,8.3125,11.625,-192.8125,-0.1728516,1.52002,-0.02441406,0.02587891,-0.3554688,-0.199707
795,-36.75,37.3125,-161.375,-0.1420898,1.13916,0.04785156,0.03808594,-0.3530273,-0.199707
799,-21.4375,52.25,-166.25,-0.6069336,0.7739258,0.2636719,0.05224609,-0.3481445,-0.2041016
803,6.4375,6.875,-211.9375,-0.9477539,0.7314453,0.2211914,0.06982422,-0.3466797,-0.2041016
807,45.0625,-7.875,-211.375,-0.4985352,0.8481445,0.2709961,0.08300781,-0.3432617,-0.199707
811,47.4375,23.4375,-190.8125,-0.4208984,1.154785,0.1098633,0.09960938,-0.3408203,-0.1972656
815,6,34.3125,-171,-0.5605469,1.271484,-0.03222656,0.1166992,-0.3369141,-0.1943359
819,-40.625,30.5625,-173.1875,-0.6494141,0.9760742,0.05957031,0.1269531,-0.3330078,-0.1943359
823,-43.75,21.875,-190.1875,-0.6611328,0.5878906,0.125,0.1425781,-0.3232422,-0.1972656
827,-6.3125,28.125,-202.9375,-0.6962891,0.3120117,0.2368164,0.1582031,-0.3120117,-0.1958008
831,42.8125,38.125,-202.375,-0.8432617,0.4555664,0.1674805,0.1689453,-0.3066406,-0.1958008
835,54.25,40.1875,-193,-0.9208984,0.7705078,0.02099609,0.1855469,-0.3007813,-0.1918945
839,24.25,39.8125,-185.5625,-0.9399414,0.9296875,-0.01660156,0.203125,-0.2905273,-0.1850586
843,-8.5625,36.375,-182.125,-1.009766,0.8598633,-0.04736328,0.2119141,-0.2832031,-0.1835938
847,-27,30.3125,-190.1875,-1.095215,0.5800781,0.02880859,0.2270508,-0.2695313,-0.1806641
851,2.375,26.8125,-200.6875,-1.067871,0.4052734,0.08251953,0.2402344,-0.2543945,-0.1806641
855,24.75,42,-198.375,-0.9985352,0.6303711,0.03271484,0.2485352,-0.2441406,-0.1796875
859,21.25,53.6875,-195.5,-1.07959,0.7895508,-0.03222656,0.2592773,-0.2304688,-0.1738281
863,3.9375,58.1875,-192.9375,-1.157227,0.8632813,-0.05517578,0.2734375,-0.2143555,-0.1674805
867,-16.625,54.5,-180.25,-1.339355,0.8208008,-0.02441406,0.2792969,-0.2016602,-0.1645508
871,-37,43.3125,-166.0625,-1.277344,0.8632813,-0.05908203,0.2890625,-0.1845703,-0.1616211
876,-67.5,48.0625,-152.9375,-1.157227,0.7895508,0.03271484,0.2973633,-0.1669922,-0.1577148
880,-76.9375,51.9375,-145.125,-1.195801,0.5683594,0.140625,0.3022461,-0.1542969,-0.15625
884,-57.3125,47.25,-135.3125,-1.261719,0.3544922,0.2060547,0.3056641,-0.1396484,-0.1538086
888,-21.9375,43.0625,-124.8125,-1.20752,0.3349609,0.2329102,0.3105469,-0.1220703,-0.1508789
892,5.375,46,-111.625,-1.168945,0.4907227,0.1943359,0.3139648,-0.1157227,-0.1494141
896,11.25,45.8125,-91.5,-1.191895,0.6733398,0.1289063,0.3154297,-0.1044922,-0.144043
900,3.125,40.375,-67.5625,-1.199707,0.7392578,0.1367188,0.3188477,-0.09570313,-0.1401367
904,-6.5625,29.75,-51.5625,-1.253906,0.7392578,0.1479492,0.3198242,-0.09179688,-0.1357422
908,-11.0625,7.75,-34.6875,-1.331543,0.6811523,0.1713867,0.3237305,-0.08691406,-0.1347656
912,-4.875,-11.5625,-15,-1.234863,0.6694336,0.1943359,0.3222656,-0.08447266,-0.1347656
916,6.9375,-19.9375,5.9375,-1.149414,0.6772461,0.144043,0.3212891,-0.08300781,-0.1357422
920,19.125,-20.875,31.5,-1.125977,0.7197266,0.105957,0.3212891,-0.08544922,-0.1347656
924,26.6875,-20.25,54.3125,-1.165039,0.793457,0.05957031,0.3188477,-0.09082031,-0.1386719
928,27.625,-22.5625,77.4375,-1.242188,0.8364258,0.04443359,0.3188477,-0.09423828,-0.1416016
932,24.6875,-29.1875,98.875,-1.327637,0.875,0.05566406,0.3164063,-0.1030273,-0.1425781
936,15.5625,-41.9375,110.875,-1.381836,0.9453125,0.05566406,0.3139648,-0.1157227,-0.1469727
940,0.9375,-54.875,125.5,-1.381836,0.953125,0.09423828,0.3115234,-0.1230469,-0.1484375
944,-5.4375,-59.6875,146.0625,-1.35498,0.875,0.105957,0.3071289,-0.1381836,-0.1538086
948,-1.625,-54.0625,172.9375,-1.28125,0.8051758,0.144043,0.3007813,-0.1533203,-0.1606445
952,7.875,-46.75,195.5,-1.366211,0.7587891,0.1748047,0.2939453,-0.1655273,-0.1630859
956,18.0625,-48.0625,205.5625,-1.498047,0.7509766,0.2172852,0.2880859,-0.1845703,-0.1660156
960,34.75,-53.4375,215.25,-1.618164,0.7705078,0.2480469,0.2758789,-0.2045898,-0.1699219
964,56.6875,-53.9375,231.4375,-1.591309,0.890625,0.1943359,0.2675781,-0.2192383,-0.1728516
968,63.4375,-41.5,260.8125,-1.552246,1.116211,0.1210938,0.253418,-0.2416992,-0.1738281
972,40,-35.3125,280.9375,-1.641602,1.349121,0.02880859,0.2353516,-0.265625,-0.1728516
976,1.1875,-42.625,298.1875,-1.711426,1.341309,-0.02441406,0.2211914,-0.2783203,-0.1728516
980,-31.375,-49.9375,308.9375,-1.711426,1.232422,-0.01660156,0.1987305,-0.296875,-0.1782227
984,-50.125,-56,318.8125,-1.533203,1.030762,-0.01318359,0.1738281,-0.3129883,-0.1835938
988,-50.8125,-45.5,332.125,-1.32373,0.9023438,0.03271484,0.1557617,-0.3193359,-0.1875
992,-50.4375,-31.25,347.875,-1.253906,0.8012695,0.06347656,0.1259766,-0.3305664,-0.1928711
996,-56.3125,-27.625,354.3125,-1.300781,0.855957,0.06347656,0.09765625,-0.3408203,-0.1987305
1000,-83.375,-36.25,357.375,-1.25,0.9023438,0.04052734,0.07714844,-0.3432617,-0.2011719
1005,-111.875,-48.375,356.1875,-1.211426,0.7236328,0.07128906,0.04248047,-0.3442383,-0.2109375
1009,-110.0625,-62.5,348.375,-1.07959,0.3896484,0.1328125,0.01269531,-0.3408203,-0.21875
1013,-77.25,-63.6875,342.9375,-0.8745117,0.2265625,0.2368164,-0.009277344,-0.3378906,-0.2270508
1017,-26.0625,-54,348.0625,-0.6689453,0.1875,0.2558594,-0.04248047,-0.3291016,-0.230957
1021,8.9375,-40.625,359.875,-0.5024414,0.3466797,0.1713867,-0.07226563,-0.3242188,-0.2299805
1025,5.875,-35.1875,351.4375,-0.296875,0.5761719,0.005859375,-0.09375,-0.3168945,-0.2299805
1029,-21.9375,-29.625,332,-0.3320313,0.5761719,0.01708984,-0.1220703,-0.3032227,-0.2255859
1033,-38.0625,-40.5,318.1875,-0.3046875,0.315918,0.08251953,-0.1494141,-0.2880859,-0.2270508
1037,-18,-43.5,309.4375,-0.230957,0.09423828,0.2060547,-0.1674805,-0.2729492,-0.2270508
1041,4.1875,-40.8125,312.1875,-0.1186523,0.2226563,0.1635742,-0.1875,-0.2568359,-0.2246094
1045,2.5,-37.125,318.5625,-0.006347656,0.253418,0.08642578,-0.2089844,-0.234375,-0.21875
1049,-12.5625,-33.4375,313.8125,0.02832031,0.253418,0.01367188,-0.222168,-0.2207031,-0.2202148
1053,-48.8125,-38.5,294.9375,0.125,0.2226563,-0.03222656,-0.2387695,-0.1967773,-0.2163086
1057,-94.8125,-43.5625,277.125,0.1870117,0.01660156,-0.09375,-0.2543945,-0.1694336,-0.2177734
1061,-144.875,-55.25,254.25,0.2646484,-0.4140625,-0.2324219,-0.2617188,-0.1479492,-0.2148438
1065,-181.8125,-64.125,224.125,0.5200195,-1.152344,-0.378418,-0.2724609,-0.1196289,-0.2148438
1069,-176.5625,-50.3125,168.375,0.9619141,-1.455566,-0.3862305,-0.2792969,-0.08935547,-0.2109375
1073,-138.625,-19.4375,97,1.113281,-1.773926,-0.2978516,-0.2817383,-0.07324219,-0.2094727
1077,-66.875,5.0625,32.1875,1.047363,-1.855957,-0.1323242,-0.2827148,-0.05957031,-0.2109375
1081,18.125,21.8125,-15.3125,0.9501953,-1.603027,0.1328125,-0.2827148,-0.05566406,-0.2109375
1085,87.875,28.0625,-56.375,0.7719727,-0.9116211,0.2290039,-0.2827148,-0.06054688,-0.2119141
1089,113.9375,18.25,-88.0625,0.6674805,-0.2939453,0.2211914,-0.2807617,-0.07080078,-0.2133789
1093,106.4375,8,-99.1875,0.644043,0.1523438,0.2172852,-0.2783203,-0.08691406,-0.2119141
1097,83.1875,-1.4375,-100.1875,0.6557617,0.3388672,0.1518555,-0.2783203,-0.09814453,-0.2119141
1101,63.375,-5.75,-102.9375,0.8110352,0.4633789,0.1674805,-0.2744141,-0.1108398,-0.2148438
1105,46,-1.9375,-93.5625,0.8457031,0.3310547,0.1289063,-0.2734375,-0.1230469,-0.2119141
1109,36.6875,3.9375,-96.9375,0.8920898,0.2573242,0.1289063,-0.2734375,-0.1308594,-0.2109375
1113,27.375,11.9375,-105.75,0.8842773,0.203125,0.144043,-0.2700195,-0.140625,-0.2109375
1117,21.1875,16.5625,-117.8125,0.7758789,0.1293945,0.2558594,-0.2651367,-0.1508789,-0.2109375
1121,28.1875,12.25,-126.3125,0.644043,0.1020508,0.3017578,-0.2636719,-0.1591797,-0.2094727
1125,32.375,4.8125,-134.25,0.659668,0.1757813,0.2905273,-0.2568359,-0.171875,-0.2094727
1129,32.0625,4.0625,-143.5625,0.6362305,0.2456055,0.2329102,-0.2509766,-0.1855469,-0.2094727
1134,20.9375,5.5625,-150.5625,0.6713867,0.3466797,0.1787109,-0.2460938,-0.1943359,-0.2094727
1138,13,10.125,-160.375,0.5708008,0.3818359,0.1943359,-0.2402344,-0.2070313,-0.2080078
1142,6.125,6.8125,-166.75,0.4892578,0.3701172,0.2172852,-0.2304688,-0.2207031,-0.2109375
1146,14.4375,2.125,-172.875,0.4658203,0.3623047,0.2060547,-0.2246094,-0.2280273,-0.2109375
1150,8.3125,2.4375,-177.0625,0.5473633,0.4946289,0.1098633,-0.2138672,-0.2416992,-0.2094727
1154,-2.125,11.9375,-174.75,0.5668945,0.4555664,0.07910156,-0.2021484,-0.2543945,-0.2119141
1158,-3.8125,25.1875,-171.8125,0.5668945,0.3701172,0.1171875,-0.1948242,-0.2631836,-0.2133789
1162,23.25,42.375,-175.4375,0.3457031,0.269043,0.2905273,-0.1831055,-0.2705078,-0.2133789
1166,47.9375,31.8125,-184.8125,0.1518555,0.4399414,0.2441406,-0.1674805,-0.2841797,-0.2148438
1170,61.1875,18.6875,-189.9375,0.1367188,0.5839844,0.2133789,-0.1591797,-0.2919922,-0.2133789
1174,55.0625,13.625,-184.125,0.2138672,0.7626953,0.08642578,-0.1425781,-0.3056641,-0.2094727
1178,40.4375,19.125,-170.1875,0.2333984,0.6811523,0.01708984,-0.128418,-0.3178711,-0.2055664
1182,45.1875,34.375,-158.3125,0.2177734,0.5175781,0.2133789,-0.1176758,-0.3232422,-0.2055664
1186,96.75,60,-157.375,0.04345703,0.2729492,0.3291016,-0.1030273,-0.3330078,-0.2026367
1190,175.6875,73.0625,-195.1875,-0.2583008,0.5371094,0.3017578,-0.08544922,-0.3442383,-0.1928711
1194,194.875,27.25,-232.25,-0.5488281,1.019043,-0.06298828,-0.07128906,-0.3544922,-0.1835938
1198,149,-44.25,-218.375,-0.5644531,1.384277,-0.2246094,-0.05078125,-0.3666992,-0.1660156
1202,79.25,-78.4375,-196.3125,-0.2583008,1.609375,-0.2553711,-0.03173828,-0.3769531,-0.1547852
1206,-2.0625,-63.9375,-171.75,0.0009765625,1.454102,-0.1323242,-0.02246094,-0.3779297,-0.1523438
1210,-33.75,-18.1875,-171.625,-0.02197266,0.9799805,0.06347656,-0.006835938,-0.3779297,-0.1523438
1214,5.875,27.375,-209.4375,-0.2890625,0.7973633,0.2021484,0.009277344,-0.3779297,-0.15625
1218,70.3125,19.5,-217.3125,-0.6416016,0.8789063,-0.03613281,0.0234375,-0.3793945,-0.1523438
1222,79.5625,-27,-187.9375,-0.6689453,1.353027,-0.2744141,0.04248047,-0.3803711,-0.1455078
1226,11.9375,-54.125,-157.75,-0.3745117,1.55127,-0.2592773,0.05957031,-0.3803711,-0.1416016
1230,-73.25,-36.0625,-160.3125,-0.1923828,1.255859,-0.09375,0.06787109,-0.3779297,-0.1425781
1234,-107,-3.125,-198,-0.2851563,0.7158203,0.159668,0.08203125,-0.371582,-0.1523438
1238,-35.6875,19.8125,-216.875,-0.5722656,0.3041992,0.2021484,0.09960938,-0.3632813,-0.1591797
1242,53.375,9.75,-189.5,-0.746582,0.4985352,-0.01318359,0.1118164,-0.3569336,-0.1616211
1246,59.0625,0.9375,-178.6875,-0.730957,0.9799805,-0.08984375,0.1308594,-0.3554688,-0.1538086
1250,-21.5625,4.125,-210.875,-0.7504883,1.13916,-0.01660156,0.1459961,-0.3481445,-0.1538086
1254,-93.875,-4.375,-252.125,-0.878418,0.5878906,0.09814453,0.1591797,-0.3393555,-0.15625
1258,-54.25,-17,-275.1875,-0.9326172,-0.05273438,0.2250977,0.1806641,-0.3217773,-0.1616211
1263,36.25,-10.5,-273.6875,-0.9829102,0.02441406,0.159668,0.199707,-0.3081055,-0.1645508
1267,71.5,3.8125,-274,-1.118652,0.4790039,0.01708984,0.2138672,-0.2929688,-0.1616211
1271,65,8.375,-256.875,-1.257813,0.8129883,-0.1435547,0.234375,-0.2792969,-0.1577148
1275,27.0625,6.5625,-229.875,-1.289063,0.9838867,-0.1899414,0.2485352,-0.2617188,-0.1538086
1279,-16.375,6.8125,-211.1875,-1.223145,0.9140625,-0.2207031,0.2592773,-0.2519531,-0.1523438
1283,-50.375,17.25,-202.75,-1.176758,0.7392578,-0.1860352,0.269043,-0.2319336,-0.1538086
1287,-66.6875,29.5625,-200,-1.261719,0.5410156,-0.1054688,0.2792969,-0.2119141,-0.1547852
1291,-57,30.6875,-196.1875,-1.347168,0.3271484,-0.02832031,0.2866211,-0.1992188,-0.1538086
1295,-30.5,32.125,-188.875,-1.366211,0.2924805,0.07128906,0.2963867,-0.1782227,-0.1547852
1299,-3.875,33.3125,-176.5625,-1.420898,0.4204102,0.02099609,0.3022461,-0.1606445,-0.1508789
1303,11.125,31,-162.8125,-1.381836,0.6030273,-0.01660156,0.3046875,-0.1479492,-0.1494141
1307,11.25,31.9375,-148.5,-1.362793,0.8364258,-0.04394531,0.3105469,-0.1318359,-0.1455078
1311,1.125,28.1875,-128.875,-1.366211,0.9838867,-0.05126953,0.3139648,-0.1166992,-0.1425781
1315,-11.9375,23.5625,-101.5,-1.339355,1.069336,-0.01318359,0.3154297,-0.109375,-0.1416016
1319,-28.5625,21.5,-71.375,-1.339355,1.09668,0.05566406,0.3173828,-0.09814453,-0.1386719
1323,-35.6875,13.375,-34.5,-1.358887,0.890625,0.1713867,0.3173828,-0.09423828,-0.137207
1327,-20.3125,-2.375,-5.1875,-1.23877,0.7158203,0.1904297,0.3198242,-0.08935547,-0.137207
1331,0.3125,-6.8125,12.625,-1.044922,0.6655273,0.1713867,0.3198242,-0.08935547,-0.1401367
1335,13.75,-1.875,21.4375,-0.9711914,0.7197266,0.1713867,0.3173828,-0.09326172,-0.1386719
1339,18.625,0.0625,31.625,-1.048828,0.7895508,0.125,0.3188477,-0.09326172,-0.1386719
1343,17.375,-8.3125,50.3125,-1.176758,0.8325195,0.05957031,0.3198242,-0.09814453,-0.137207
1347,11.875,-19.3125,73.1875,-1.211426,0.840332,0.03662109,0.3154297,-0.1054688,-0.1386719
1351,8.875,-26.75,95.6875,-1.184082,0.8051758,0.02490234,0.3154297,-0.1108398,-0.1386719
1355,10.0625,-25.75,119.5,-1.125977,0.7548828,0.01367188,0.3139648,-0.1220703,-0.1425781
1359,12,-18.4375,134.75,-1.129883,0.7626953,-0.009277344,0.3105469,-0.1342773,-0.1455078
1363,8.5,-12.5625,146.75,-1.253906,0.7705078,0.005859375,0.3081055,-0.1430664,-0.1469727
1367,3.75,-20.875,153.0625,-1.416992,0.8481445,0.03662109,0.3056641,-0.1591797,-0.1494141
1371,-1.3125,-30.5625,175.5,-1.416992,0.8168945,0.05175781,0.2973633,-0.1743164,-0.1494141
1375,0.375,-31.125,191.6875,-1.393555,0.8325195,0.06347656,0.2939453,-0.1870117,-0.1508789
1379,-0.25,-28,208.5625,-1.432129,0.9023438,0.06738281,0.2832031,-0.203125,-0.1523438
1383,-3.625,-27.9375,222.3125,-1.463379,0.9414063,0.05957031,0.2724609,-0.2246094,-0.15625
1387,-8.625,-22.3125,238.875,-1.517578,0.956543,0.05957031,0.2651367,-0.2358398,-0.1577148
1392,-8.0625,-10,263.75,-1.517578,0.9916992,0.08251953,0.2485352,-0.2568359,-0.1606445
1396,-7.8125,-13.1875,278.0625,-1.583496,1.084961,0.04443359,0.2319336,-0.2768555,-0.1616211
1400,-7.375,-20,284.6875,-1.529297,1.104492,0.09033203,0.21875,-0.2895508,-0.1630859
1404,-11.75,-19.125,302.8125,-1.455566,1.232422,0.01367188,0.1987305,-0.3081055,-0.1630859
1408,-21.875,-12.625,330.6875,-1.339355,1.232422,-0.02441406,0.1738281,-0.3242188,-0.1674805
1412,-32,-9,338.5625,-1.343262,1.174316,-0.05126953,0.1557617,-0.3354492,-0.168457
1416,-41.3125,-11.375,341.875,-1.242188,1.154785,-0.08203125,0.1259766,-0.3466797,-0.1713867
1420,-56.875,-7.875,345.0625,-1.12207,1.09668,-0.09765625,0.09619141,-0.3554688,-0.1767578
1424,-77.8125,-5.8125,350.5625,-1.180664,1.146973,-0.0859375,0.07470703,-0.359375,-0.1806641
1428,-111.75,-22.25,342.4375,-1.211426,1.057617,-0.08984375,0.04394531,-0.3618164,-0.1875
1432,-128.8125,-33.5625,343.625,-1.07959,0.8129883,-0.04394531,0.01171875,-0.3569336,-0.1987305
1436,-124.0625,-42.1875,344.625,-0.9985352,0.5488281,0.005859375,-0.0078125,-0.3520508,-0.2011719
1440,-102.1875,-39.1875,346.9375,-0.7348633,0.3896484,0.05957031,-0.04248047,-0.3417969,-0.2133789
1444,-87.625,-32.125,345.9375,-0.6845703,0.4711914,-0.005371094,-0.07324219,-0.3291016,-0.2231445
1448,-92,-37.375,330.1875,-0.6264648,0.4516602,-0.01660156,-0.09130859,-0.3193359,-0.2246094
1452,-102.75,-46.8125,307.375,-0.5292969,0.4013672,-0.02050781,-0.1201172,-0.3007813,-0.2299805
1456,-78.875,-46.5,293.5625,-0.3666992,0.07080078,0.1787109,-0.1435547,-0.2817383,-0.2338867
1460,-28,-36.5625,308.6875,-0.2001953,0.06689453,0.2558594,-0.1591797,-0.2705078,-0.2368164
1464,-4.5625,-31.5,308.6875,-0.1225586,0.2924805,0.1518555,-0.1831055,-0.2495117,-0.2338867
1468,-27.125,-31.125,295.9375,-0.02587891,0.4750977,0.03271484,-0.203125,-0.2319336,-0.2324219
1472,-52.8125,-36.5625,276.625,-0.06445313,0.3232422,-0.03613281,-0.2114258,-0.2158203,-0.2338867
1476,-69.5,-42.125,256.0625,0.159668,0.1601563,-0.03613281,-0.2280273,-0.1933594,-0.2324219
1480,-81,-35.6875,237.625,0.2797852,-0.02197266,0.005859375,-0.2412109,-0.1694336,-0.230957
1484,-90.25,-38.125,215.3125,0.2875977,-0.1191406,0.01367188,-0.2485352,-0.1518555,-0.2324219
1488,-104.25,-40.875,197.6875,0.4619141,-0.2978516,0.02099609,-0.2568359,-0.1293945,-0.2299805
1492,-114.3125,-35.5625,173.25,0.6713867,-0.6123047,-0.05517578,-0.2636719,-0.1069336,-0.2285156
1496,-122.6875,-31.875,133.25,0.8691406,-0.9814453,-0.1782227,-0.2675781,-0.09179688,-0.2270508
1500,-109.1875,-18.9375,84,0.9619141,-1.233887,-0.2592773,-0.2700195,-0.07177734,-0.2270508
1504,-79.9375,-1.5,36.1875,1.035645,-1.374023,-0.2363281,-0.2700195,-0.06298828,-0.2285156
1508,-37.5625,22.5,-3.625,1.039551,-1.338867,-0.07080078,-0.2709961,-0.05810547,-0.2255859
1512,19.25,40.0625,-32.0625,0.8691406,-1.125488,0.1826172,-0.2700195,-0.05712891,-0.230957
1516,64.3125,40.3125,-60.3125,0.7373047,-0.6396484,0.3134766,-0.2651367,-0.06201172,-0.2324219
1521,86,31.5,-83,0.6479492,-0.2666016,0.4057617,-0.2651367,-0.07324219,-0.2353516
1525,95.4375,16.3125,-93.625,0.5976563,-0.002441406,0.4135742,-0.2617188,-0.08447266,-0.2368164
1529,91.125,4,-99.4375,0.7021484,0.2070313,0.2866211,-0.2602539,-0.09960938,-0.2353516
1533,71.75,4.8125,-108.375,0.8149414,0.2299805,0.2094727,-0.2592773,-0.1083984,-0.2353516
1537,59.1875,11.9375,-118.625,0.8149414,0.2963867,0.2788086,-0.2543945,-0.1230469,-0.2368164
1541,55.5,9.0625,-126.0625,0.675293,0.1367188,0.2827148,-0.2509766,-0.1357422,-0.2324219
1545,56.9375,4.5,-135.5625,0.6635742,0.1445313,0.3056641,-0.2495117,-0.1455078,-0.2338867
1549,56.3125,4.3125,-141.9375,0.6870117,0.2070313,0.2329102,-0.2460938,-0.1606445,-0.2324219
1553,42.8125,10.4375,-146.9375,0.6948242,0.3081055,0.1367188,-0.2402344,-0.1743164,-0.2324219
1557,18.8125,18.4375,-160.5625,0.7060547,0.3662109,0.1479492,-0.2329102,-0.1831055,-0.230957
1561,8,28.0625,-167,0.5126953,0.3349609,0.1904297,-0.2270508,-0.1967773,-0.2324219
1565,8.9375,23.75,-173.4375,0.4467773,0.2226563,0.2788086,-0.2163086,-0.2104492,-0.2353516
1569,36.625,21.875,-179.1875,0.3959961,0.1367188,0.3598633,-0.2089844,-0.2192383,-0.2338867
1573,59.4375,19.75,-184.125,0.4272461,0.2885742,0.2441406,-0.1982422,-0.234375,-0.2338867
1577,60.75,26,-189.6875,0.4311523,0.4477539,0.1171875,-0.1865234,-0.2480469,-0.2324219
1581,44.6875,35.375,-196.1875,0.3999023,0.5449219,0.1328125,-0.1772461,-0.2583008,-0.2324219
1585,44.625,39.8125,-204.625,0.1289063,0.5253906,0.2211914,-0.1616211,-0.2719727,-0.2324219
1589,62.625,29.375,-213.125,0.02050781,0.4711914,0.4018555,-0.1450195,-0.2856445,-0.230957
1593,96.4375,13.875,-220.625,-0.09130859,0.6108398,0.3251953,-0.1342773,-0.2993164,-0.2285156
1597,102.3125,9,-211.875,0.06689453,0.9296875,0.159668,-0.1162109,-0.3120117,-0.21875
1601,66.75,18.1875,-197.9375,0.125,1.240234,-0.01318359,-0.09863281,-0.3232422,-0.2133789
1605,-5.9375,29.75,-180.125,0.140625,1.349121,-0.07861328,-0.08886719,-0.3305664,-0.2119141
1609,-55,37.5625,-184.4375,-0.1264648,0.8710938,0.2250977,-0.07128906,-0.3354492,-0.2163086
1613,-20.4375,16.25,-207.8125,-0.4169922,0.5410156,0.3710938,-0.05419922,-0.3354492,-0.21875
1617,35.375,-0.75,-213.8125,-0.2929688,0.6147461,0.4287109,-0.04248047,-0.3378906,-0.21875
1621,70.25,8.25,-205.625,-0.1767578,0.9140625,0.2368164,-0.02246094,-0.3408203,-0.2177734
1625,56.5625,22.625,-186.6875,-0.1342773,1.20166,0.08642578,-0.005859375,-0.3481445,-0.2109375
1629,3.625,31.875,-164.9375,-0.1069336,1.36084,-0.07080078,0.005859375,-0.3505859,-0.206543
1633,-64.875,42.875,-151.3125,-0.1767578,1.061523,-0.03222656,0.02148438,-0.3481445,-0.2109375
1637,-77.4375,42.6875,-190.875,-0.5449219,0.4946289,0.3134766,0.0390625,-0.3432617,-0.2163086
1641,2.3125,9.875,-220.75,-0.7192383,0.140625,0.3520508,0.05078125,-0.3393555,-0.21875
1645,73.8125,14.5625,-208.75,-0.4404297,0.5449219,0.2827148,0.06787109,-0.3369141,-0.2163086
1650,82.0625,43.75,-185.75,-0.3666992,0.8710938,0.001953125,0.08691406,-0.3354492,-0.2094727
1654,51.875,64.5,-172.3125,-0.4521484,1.124023,-0.09375,0.09863281,-0.3369141,-0.2055664
1658,-7,73.8125,-154.5625,-0.5874023,1.108398,-0.1401367,0.1152344,-0.3330078,-0.199707
1662,-77.5,67.3125,-201.9375,-0.8706055,1.019043,-0.07470703,0.1333008,-0.3242188,-0.199707
1666,-99.5625,37.5,-241.375,-1.083496,0.1875,0.1635742,0.1459961,-0.3154297,-0.2041016
1670,19.75,28.75,-234.375,-1.021484,-0.09570313,0.3017578,0.1665039,-0.3007813,-0.206543
1674,80.75,51.875,-224.9375,-0.9555664,0.5722656,0.1748047,0.1865234,-0.2919922,-0.2011719
1678,76.1875,64,-209.5,-1.125977,0.9760742,-0.02441406,0.1987305,-0.2866211,-0.1958008
1682,30.1875,54.9375,-199.125,-1.242188,1.112305,-0.05517578,0.2138672,-0.2768555,-0.1875
1686,-20.125,42.875,-199.25,-1.195801,0.9296875,-0.07861328,0.230957,-0.2641602,-0.1835938
1690,-40.5,42.75,-204.0625,-1.114746,0.5761719,-0.02050781,0.2392578,-0.2504883,-0.1821289
1694,-31.3125,54.5625,-209.375,-1.106934,0.3935547,0.01367188,0.2509766,-0.234375,-0.1821289
1698,-11.6875,70.375,-209.9375,-1.180664,0.3583984,0.03662109,0.2651367,-0.2158203,-0.1767578
1702,2.4375,82.5625,-203.875,-1.331543,0.4594727,0.04785156,0.2758789,-0.203125,-0.1728516
1706,6,85.0625,-197.75,-1.490234,0.5683594,0.04443359,0.2866211,-0.1845703,-0.1630859
1710,4.1875,75.625,-196.75,-1.599121,0.5991211,0.04443359,0.2963867,-0.1645508,-0.1591797
1714,19.625,59.875,-203.0625,-1.618164,0.6459961,0.01708984,0.3032227,-0.1533203,-0.1523438
1718,48.8125,49.5,-204.6875,-1.563965,0.8325195,0.1904297,0.309082,-0.1342773,-0.1469727
1722,99.1875,38.75,-181.0625,-1.657227,1.06543,0.4404297,0.3139648,-0.1166992,-0.1425781
1726,141.625,16.9375,-107.25,-1.641602,1.679688,0.2983398,0.3164063,-0.109375,-0.1357422
1730,57.75,-7.375,-11.5625,-1.149414,2.242676,-0.2285156,0.3173828,-0.1044922,-0.1357422
1734,-82.625,15.8125,24.25,-0.7231445,1.702637,-0.02832031,0.3164063,-0.1054688,-0.1357422
1738,-131.9375,32.75,29.6875,-1.001953,0.8168945,0.3173828,0.3173828,-0.1054688,-0.1347656
1742,-92.8125,8,30.5625,-1.315918,0.1601563,0.5751953,0.3188477,-0.1030273,-0.1357422
1746,-32.125,-29.5,31.125,-1.187988,0.07080078,0.4482422,0.3212891,-0.1054688,-0.1347656
1750,-4.5625,-40.875,25.9375,-0.9365234,0.203125,0.2211914,0.3154297,-0.1069336,-0.1401367
1754,1.4375,-34.6875,20.9375,-0.862793,0.2416992,0.06347656,0.3164063,-0.1083984,-0.1425781
1758,9.25,-28.4375,24.0625,-0.9399414,0.2651367,-0.02441406,0.3139648,-0.1108398,-0.1469727
1762,8.5,-27.8125,31.25,-0.9633789,0.3544922,-0.04394531,0.3129883,-0.1132813,-0.1484375
1766,5.625,-31.375,30.8125,-1.005859,0.3466797,-0.02441406,0.3115234,-0.1166992,-0.1494141
1770,14,-36.5625,34.6875,-1.033203,0.3310547,0.03271484,0.309082,-0.1206055,-0.1538086
1774,32.6875,-39.875,46.0625,-1.060547,0.4052734,0.07128906,0.309082,-0.1245117,-0.1547852
1779,52,-43.8125,62.375,-1.145508,0.5605469,0.06347656,0.3056641,-0.1308594,-0.15625
1783,67.375,-45.5,87.8125,-1.176758,0.7275391,0.02099609,0.3032227,-0.1396484,-0.1606445
1787,70.625,-38.0625,122.125,-1.223145,0.9414063,0.02490234,0.2998047,-0.1479492,-0.1616211
1791,55.125,-33.1875,154.5625,-1.374023,1.146973,0.01708984,0.2949219,-0.1645508,-0.1645508
1795,22.75,-40.5625,172.875,-1.494141,1.189941,0.09033203,0.2866211,-0.1806641,-0.1660156
1799,7.125,-49.8125,187.8125,-1.447754,0.9995117,0.2094727,0.2832031,-0.1918945,-0.1699219
1803,16.1875,-47.875,204.8125,-1.366211,0.875,0.2827148,0.2724609,-0.2094727,-0.1728516
1807,25,-41.5625,218.0625,-1.343262,0.972168,0.2788086,0.2602539,-0.2280273,-0.175293
1811,26.75,-38.75,229.5,-1.327637,1.069336,0.2402344,0.2509766,-0.2407227,-0.175293
1815,28.5625,-29.9375,249.875,-1.296875,1.162598,0.2211914,0.234375,-0.2617188,-0.1796875
1819,14.5,-21.1875,268.4375,-1.370117,1.372559,0.125,0.2177734,-0.2807617,-0.1796875
1823,-22.875,-27.4375,278.875,-1.459473,1.422852,0.07910156,0.203125,-0.2929688,-0.1767578
1827,-44.75,-40.125,286.125,-1.471191,1.158691,0.1328125,0.1831055,-0.3066406,-0.1835938
1831,-37,-44.375,301.6875,-1.331543,0.972168,0.1557617,0.1567383,-0.3208008,-0.1875
1835,-16,-38.125,317.75,-1.23877,0.8598633,0.1479492,0.1401367,-0.328125,-0.1904297
1839,-11.6875,-32.25,331.1875,-1.083496,1.06543,0.02880859,0.112793,-0.3393555,-0.1928711
1843,-52.875,-28.6875,335.25,-1.056641,1.166504,-0.07470703,0.08447266,-0.3481445,-0.1958008
1847,-100.375,-39.625,325.1875,-1.11084,0.9956055,-0.06689453,0.06298828,-0.3491211,-0.199707
1851,-119.625,-55.3125,316.6875,-1.056641,0.6459961,0.05566406,0.03564453,-0.3491211,-0.2109375
1855,-100.5625,-60.875,316.1875,-0.9208984,0.4243164,0.1674805,0.003417969,-0.3417969,-0.2216797
1859,-69.3125,-65.6875,314.3125,-0.796875,0.3544922,0.1748047,-0.01513672,-0.3369141,-0.2255859
1863,-46.4375,-64.6875,314.5625,-0.5605469,0.3779297,0.1518555,-0.04736328,-0.3291016,-0.2299805
1867,-36.125,-55,304.5625,-0.4208984,0.4711914,0.09033203,-0.07324219,-0.3208008,-0.2299805
1871,-47.75,-50.75,288.5,-0.3823242,0.5644531,0.05566406,-0.09130859,-0.3120117,-0.2299805
1875,-50.25,-53.125,268.6875,-0.3588867,0.5683594,0.1098633,-0.1162109,-0.3007813,-0.2324219
1879,-49.5625,-52.125,276,-0.2231445,0.4555664,0.1635742,-0.1411133,-0.2841797,-0.2338867
1883,-39.375,-46.4375,281.8125,-0.1225586,0.4360352,0.1557617,-0.1557617,-0.2729492,-0.2324219
1887,-35.9375,-40.75,281.8125,-0.02197266,0.4321289,0.1635742,-0.1782227,-0.2568359,-0.2338867
1891,-53.8125,-35.4375,271.25,-0.01806641,0.5605469,0.1098633,-0.1972656,-0.2358398,-0.2353516
1895,-69.9375,-47.125,252.9375,0.04345703,0.3818359,0.1289063,-0.2089844,-0.2231445,-0.2324219
1899,-68.5,-52.1875,232.625,0.1518555,0.2768555,0.2558594,-0.2236328,-0.2006836,-0.2338867
1903,-46.5625,-55,231.875,0.1171875,0.2456055,0.3291016,-0.2363281,-0.1791992,-0.230957
1908,-38.3125,-63.6875,239.5625,0.2797852,0.3232422,0.2211914,-0.2446289,-0.1655273,-0.2299805
1912,-57.0625,-63.75,241.125,0.3808594,0.3388672,0.03662109,-0.2568359,-0.1445313,-0.2255859
1916,-105.5,-63.75,229.625,0.5200195,0.1796875,-0.1860352,-0.2661133,-0.1157227,-0.2202148
1920,-165.9375,-59.625,199.4375,0.6518555,-0.1967773,-0.4169922,-0.2724609,-0.09814453,-0.21875
1924,-206.375,-52.75,161.6875,0.7294922,-1.160156,-0.5708008,-0.2792969,-0.07177734,-0.2148438
1928,-177.125,-37.625,115.5,0.9619141,-1.665527,-0.4555664,-0.2817383,-0.04589844,-0.2119141
1932,-87.3125,-12.8125,71.9375,1.059082,-2.073242,-0.3012695,-0.2827148,-0.03320313,-0.2094727
1936,20.875,15.1875,24.5625,1.027832,-1.820801,-0.1513672,-0.2827148,-0.02587891,-0.2080078
1940,86.875,34.625,-18.25,0.8613281,-1.036133,-0.009277344,-0.2807617,-0.02685547,-0.2109375
1944,96.3125,37.8125,-53.0625,0.7060547,-0.3442383,0.07128906,-0.2807617,-0.03320313,-0.2133789
1948,72.8125,30.625,-74.125,0.644043,0.1137695,0.1982422,-0.2783203,-0.04443359,-0.2163086
1952,47.8125,22,-80.75,0.6479492,0.1953125,0.3056641,-0.2768555,-0.05322266,-0.2177734
1956,41.1875,15.4375,-81.9375,0.7412109,0.09423828,0.3134766,-0.2758789,-0.06201172,-0.2202148
1960,46,15.25,-86.1875,0.8613281,-0.01025391,0.2441406,-0.2724609,-0.07080078,-0.2216797
1964,54.5,20.0625,-93.5625,0.8842773,-0.04541016,0.2250977,-0.2700195,-0.08300781,-0.2231445
1968,61.875,23.625,-101.625,0.8652344,-0.04882813,0.1865234,-0.2700195,-0.09082031,-0.2246094
1972,73,30.875,-106.8125,0.7954102,-0.04150391,0.2827148,-0.2661133,-0.1044922,-0.2246094
1976,84,29.75,-110.0625,0.7216797,0.09423828,0.2402344,-0.2617188,-0.1181641,-0.2255859
1980,77.75,27.9375,-121.3125,0.675293,0.2109375,0.2905273,-0.2592773,-0.1279297,-0.2270508
1984,66.1875,19.625,-135.3125,0.59375,0.3120117,0.2290039,-0.2543945,-0.1455078,-0.2270508
1988,41,8.1875,-151.6875,0.5859375,0.4086914,0.1635742,-0.2495117,-0.1606445,-0.2270508
1992,14.75,5.4375,-164.5,0.6518555,0.3818359,0.09033203,-0.2460938,-0.1694336,-0.2246094
1996,2.4375,16.375,-163.5625,0.7138672,0.2299805,0.1171875,-0.2387695,-0.1831055,-0.2285156
2000,28,37.875,-154.1875,0.6362305,0.07470703,0.3056641,-0.2294922,-0.1943359,-0.2270508
2004,65.9375,44.3125,-153.75,0.4077148,0.2299805,0.3364258,-0.2246094,-0.2055664,-0.2299805
2008,73.1875,29.25,-172.1875,0.2758789,0.5722656,0.2441406,-0.2128906,-0.2207031,-0.230957
2012,49.5,13.125,-178.625,0.2993164,0.7817383,0.1982422,-0.2021484,-0.2382813,-0.2285156
2016,35,13.875,-171.625,0.4194336,0.7392578,0.1904297,-0.1948242,-0.2470703,-0.2255859
2020,22.75,28.875,-157.3125,0.4892578,0.7158203,0.1865234,-0.1831055,-0.2568359,-0.2270508
2024,34.125,49.25,-152.4375,0.3032227,0.6772461,0.3095703,-0.1723633,-0.2680664,-0.2255859
2028,50.125,32.5625,-170.375,0.03564453,0.6811523,0.3979492,-0.1625977,-0.2783203,-0.2270508
2032,79.5,12.8125,-168.9375,0.07080078,0.8828125,0.340332,-0.1484375,-0.2895508,-0.2255859
2037,65.9375,13.875,-154.8125,0.2451172,1.232422,0.144043,-0.1342773,-0.3017578,-0.21875
2041,6.9375,30.25,-133.1875,0.3691406,1.418945,-0.06689453,-0.1259766,-0.3081055,-0.21875
2045,-74,50.9375,-116.0625,0.3305664,1.255859,-0.06298828,-0.1152344,-0.3105469,-0.2202148
2049,-129.375,46.6875,-177.25,0.02832031,0.809082,0.2290039,-0.1010742,-0.3095703,-0.2299805
2053,-70.4375,23.8125,-176.3125,-0.1225586,0.2109375,0.5405273,-0.09130859,-0.3081055,-0.2368164
2057,16.5625,32.875,-159.5625,0.05908203,0.4125977,0.5097656,-0.07714844,-0.3120117,-0.2421875
2061,51.875,57.4375,-144.125,0.05908203,0.7626953,0.2597656,-0.06152344,-0.3168945,-0.237793
2065,39.1875,67.9375,-135.5,-0.03320313,0.972168,0.09033203,-0.05224609,-0.3208008,-0.237793
2069,-4,69.875,-154.125,-0.1303711,1.146973,0.1518555,-0.03417969,-0.3242188,-0.2392578
2073,-44.5625,50.5625,-196.875,-0.4985352,1.061523,0.2329102,-0.01855469,-0.3256836,-0.2421875
2077,-45.0625,21.25,-207.875,-0.5141602,0.8129883,0.4443359,-0.005859375,-0.3232422,-0.2421875
2081,-5.0625,23.3125,-190.0625,-0.3935547,0.8671875,0.4326172,0.009277344,-0.3217773,-0.2460938
2085,6.75,38,-163.625,-0.2773438,1.108398,0.2749023,0.02734375,-0.3193359,-0.2460938
2089,-15.3125,53.9375,-141.8125,-0.1728516,1.120117,0.1367188,0.03662109,-0.3178711,-0.2436523
2093,-41.5,69.875,-132.9375,-0.1420898,0.8789063,0.1479492,0.05224609,-0.3154297,-0.2475586
2097,-49.875,79.5625,-158.375,-0.4052734,0.6303711,0.3710938,0.06640625,-0.3105469,-0.2475586
2101,-5.5625,48.3125,-188.125,-0.7231445,0.1367188,0.4980469,0.07958984,-0.3066406,-0.2490234
2105,65.0625,31.375,-188.6875,-0.5683594,0.4052734,0.5634766,0.09521484,-0.3032227,-0.2460938
2109,95.75,38.625,-181.375,-0.5332031,0.7817383,0.3330078,0.1118164,-0.3017578,-0.2421875
2113,74.5625,43.9375,-164.75,-0.4555664,1.108398,0.2060547,0.1210938,-0.3017578,-0.2368164
2117,26.125,51.9375,-150.1875,-0.4248047,1.100586,0.09033203,0.1367188,-0.3007813,-0.230957
2121,-1.625,65.8125,-142.0625,-0.4208984,0.6459961,0.2636719,0.1499023,-0.2954102,-0.2255859
2125,32.625,73.3125,-174.8125,-0.8276367,0.3232422,0.355957,0.1606445,-0.2895508,-0.2246094
2129,75.5625,40.0625,-197.0625,-1.114746,0.4672852,0.3017578,0.1757813,-0.2856445,-0.2163086
2133,94.8125,21.8125,-194.375,-0.9052734,0.7856445,0.2172852,0.1914063,-0.2783203,-0.2109375
2137,78.5,36.75,-183.375,-0.862793,1.01123,0.140625,0.2021484,-0.2729492,-0.2055664
2141,33.8125,37.6875,-174.0625,-0.9790039,1.124023,0.04785156,0.2163086,-0.265625,-0.1972656
2145,-19.9375,26.375,-177.3125,-1.052734,0.9682617,-0.02832031,0.2285156,-0.2558594,-0.1943359
2149,-52.6875,19,-187.5625,-1.001953,0.7080078,-0.001464844,0.2353516,-0.2441406,-0.1958008
2153,-48.375,29.9375,-187,-0.9907227,0.4204102,0.06347656,0.2475586,-0.2270508,-0.1972656
2157,-23.625,52.375,-178.0625,-1.095215,0.3974609,0.1020508,0.2583008,-0.2094727,-0.1958008
2161,-7.3125,62.8125,-166.125,-1.253906,0.5019531,0.07519531,0.2641602,-0.2006836,-0.1918945
2166,-9.0625,56.1875,-158.5625,-1.308105,0.6577148,0.005859375,0.2758789,-0.1870117,-0.1865234
2170,-14.8125,49.375,-159.5625,-1.28125,0.7197266,0.07128906,0.2832031,-0.1704102,-0.1835938
2174,-5.5625,47.6875,-147.6875,-1.312012,0.777832,0.1367188,0.2890625,-0.1606445,-0.1796875
2178,8.6875,42.3125,-117.875,-1.292969,0.9453125,0.144043,0.2939453,-0.1455078,-0.175293
2182,7.75,34.1875,-79.8125,-1.20752,1.084961,0.1367188,0.2973633,-0.1381836,-0.1713867
2186,-7.5625,29.625,-45.1875,-1.125977,1.104492,0.1674805,0.2998047,-0.1333008,-0.1728516
2190,-21.25,25.75,-20.1875,-1.041016,1.003418,0.2480469,0.3022461,-0.1293945,-0.1699219
2194,-28.875,25.875,-3.3125,-1.021484,0.9101563,0.3671875,0.3046875,-0.1254883,-0.1660156
2198,-32.1875,19.75,10.0625,-1.060547,0.8168945,0.4482422,0.3032227,-0.1254883,-0.1674805
2202,-28,8.125,23,-1.067871,0.6845703,0.5058594,0.3032227,-0.1279297,-0.1645508
2206,-17.5,-2.75,31.1875,-1.060547,0.6342773,0.5327148,0.3022461,-0.1269531,-0.1674805
2210,-7.125,-15,34.25,-1.106934,0.6381836,0.4829102,0.3007813,-0.1293945,-0.1660156
2214,1.8125,-30.3125,43.8125,-1.12207,0.6884766,0.3945313,0.2998047,-0.1318359,-0.168457
2218,4.125,-36.5,55.5625,-1.099121,0.7817383,0.3173828,0.2983398,-0.1381836,-0.1728516
2222,7.0625,-40.875,72.625,-1.145508,0.793457,0.2519531,0.2963867,-0.140625,-0.1728516
2226,12.625,-43.75,93.5625,-1.161133,0.8012695,0.2441406,0.2939453,-0.1508789,-0.175293
2230,20.25,-45.4375,114.0625,-1.20752,0.824707,0.2290039,0.2890625,-0.1591797,-0.1796875
2234,23.0625,-50,132.25,-1.199707,0.8710938,0.2329102,0.2841797,-0.1679688,-0.1821289
2238,22.0625,-51.125,145.3125,-1.211426,0.953125,0.2021484,0.2773438,-0.1821289,-0.1835938
2242,7.875,-56.1875,155.1875,-1.292969,1.026855,0.2133789,0.269043,-0.1982422,-0.1904297
2246,-8.5625,-68.125,167.1875,-1.319824,1.034668,0.1943359,0.2626953,-0.2045898,-0.1928711
2250,-21.0625,-74.125,181.4375,-1.253906,0.972168,0.2402344,0.2509766,-0.2182617,-0.2026367
2254,-20.8125,-71.75,196.375,-1.230957,0.8867188,0.2827148,0.2368164,-0.2319336,-0.206543
2258,-9.1875,-70.1875,212.75,-1.215332,0.8481445,0.2597656,0.2270508,-0.2392578,-0.2080078
2262,-6.8125,-64.875,226.9375,-1.129883,0.9375,0.2675781,0.2104492,-0.2568359,-0.2148438
2266,-17.375,-64,233,-1.165039,0.972168,0.2290039,0.1948242,-0.2705078,-0.2216797
2270,-29.125,-68.75,237.375,-1.118652,0.890625,0.2709961,0.1796875,-0.2753906,-0.2216797
2274,-24.375,-69.3125,241.125,-1.083496,0.793457,0.3095703,0.1591797,-0.2841797,-0.2285156
2278,-13.5625,-68.6875,244.8125,-1.013672,0.7856445,0.2866211,0.1391602,-0.296875,-0.2324219
2282,-12.8125,-68.5,248.5625,-0.9594727,0.875,0.2172852,0.1235352,-0.3007813,-0.2338867
2286,-23.125,-65.6875,254.4375,-0.8588867,0.8867188,0.2060547,0.1035156,-0.3095703,-0.237793
2290,-36.875,-64.125,248.625,-0.847168,0.9257813,0.1904297,0.07861328,-0.3129883,-0.2421875
2295,-58.5,-70,250.625,-0.8007813,0.8481445,0.2021484,0.06542969,-0.3154297,-0.2475586
2299,-59.1875,-74.5,245.75,-0.7504883,0.6655273,0.2402344,0.04052734,-0.3144531,-0.25
2303,-44.25,-76.75,251.6875,-0.5874023,0.5253906,0.2636719,0.01416016,-0.3120117,-0.2558594
2307,-33.1875,-69.5625,247.6875,-0.4633789,0.5878906,0.2060547,0,-0.3095703,-0.2568359
2311,-30.6875,-67.25,236.375,-0.4169922,0.5175781,0.2094727,-0.0234375,-0.3095703,-0.2597656
2315,-15.5625,-63,227.125,-0.3432617,0.5566406,0.2827148,-0.04492188,-0.3032227,-0.2597656
2319,-17,-58.3125,222.75,-0.3085938,0.7275391,0.2866211,-0.06054688,-0.2993164,-0.2597656
2323,-36.9375,-61.125,211.3125,-0.3510742,0.8710938,0.2597656,-0.08056641,-0.2929688,-0.2612305
2327,-54.3125,-73.3125,211,-0.3007813,0.6616211,0.3364258,-0.09960938,-0.2817383,-0.2612305
2331,-5.5,-62.6875,195.8125,-0.2192383,0.5097656,0.7368164,-0.112793,-0.2753906,-0.2626953
2335,67.4375,-54.3125,204.8125,-0.3432617,0.7158203,0.7519531,-0.1293945,-0.2670898,-0.2568359
2339,81.75,-77.4375,234.125,-0.2270508,1.20166,0.3481445,-0.1459961,-0.2641602,-0.2514648
2343,13.5,-95.8125,257.75,0.04345703,1.411133,-0.07861328,-0.1616211,-0.2583008,-0.2436523
2347,-99.5,-97.125,264.5625,0.1948242,1.112305,-0.3476563,-0.1865234,-0.2431641,-0.237793
2351,-186.6875,-102.125,255.5625,0.3339844,0.2612305,-0.4208984,-0.206543,-0.2167969,-0.2407227
2355,-195.3125,-90.0625,226.4375,0.5551758,-0.5424805,-0.1860352,-0.21875,-0.1982422,-0.2407227
2359,-139.1875,-66.875,197.5,0.6362305,-1.15625,0.08642578,-0.2329102,-0.1694336,-0.2421875
2363,-48.3125,-48.8125,168.875,0.5898438,-1.164063,0.159668,-0.2436523,-0.1455078,-0.2407227
2367,15.9375,-47.1875,135.625,0.6015625,-0.8764648,0.07128906,-0.2485352,-0.1381836,-0.237793
2371,21.625,-45.0625,106.75,0.6791992,-0.3989258,-0.1015625,-0.2553711,-0.1279297,-0.2338867
2375,-25.5,-40.6875,71.8125,0.8110352,-0.2045898,-0.2553711,-0.2592773,-0.1206055,-0.2285156
2379,-70.9375,-30.3125,23.75,0.8881836,-0.2978516,-0.2744141,-0.2651367,-0.1132813,-0.2299805
2383,-78.3125,-12.5625,-15.125,0.9116211,-0.5073242,-0.1206055,-0.2661133,-0.109375,-0.2285156
2387,-41.4375,7.875,-32.375,0.8842773,-0.6162109,0.05957031,-0.2651367,-0.1054688,-0.2255859
2391,14.0625,24.875,-42.6875,0.8339844,-0.4296875,0.1748047,-0.2651367,-0.1083984,-0.2285156
2395,44.25,34.6875,-53.5625,0.7915039,-0.08398438,0.1982422,-0.2617188,-0.1132813,-0.230957
2399,58.0625,40.25,-58,0.7412109,0.09814453,0.3017578,-0.2568359,-0.1206055,-0.2338867
2403,63,39.9375,-57.75,0.6982422,0.1992188,0.2749023,-0.2543945,-0.1269531,-0.2338867
2407,57.375,32.9375,-62.5625,0.7177734,0.1679688,0.1787109,-0.2495117,-0.1357422,-0.237793
2411,54.75,35.4375,-71.5,0.8222656,0.01269531,0.1674805,-0.2460938,-0.1455078,-0.2368164
2415,64.125,48.1875,-81.5625,0.7836914,-0.1499023,0.1904297,-0.2426758,-0.1508789,-0.2407227
2419,82.1875,57.125,-107.5625,0.6401367,-0.08007813,0.3017578,-0.237793,-0.1630859,-0.2392578
2424,86.1875,47.9375,-133.5,0.4272461,0.1098633,0.2709961,-0.2280273,-0.1782227,-0.2407227
2428,76.1875,26.5,-149.8125,0.3886719,0.2651367,0.1826172,-0.222168,-0.1894531,-0.2421875
2432,61.1875,21.3125,-150.6875,0.5395508,0.3120117,0.08251953,-0.2138672,-0.2045898,-0.2421875
2436,46.0625,38.9375,-152.5625,0.6635742,0.1914063,0.02099609,-0.2045898,-0.2192383,-0.2407227
2440,59.0625,66.8125,-166.8125,0.5859375,-0.06835938,0.1982422,-0.1972656,-0.2280273,-0.2407227
2444,98.3125,78.9375,-202.0625,0.2685547,0.2265625,0.2827148,-0.1816406,-0.2441406,-0.2421875
2448,109.0625,64,-210.875,-0.01806641,0.5019531,0.2480469,-0.1640625,-0.2617188,-0.237793
2452,126.875,37.625,-194.8125,-0.01025391,0.5449219,0.2480469,-0.1533203,-0.2729492,-0.2368164
2456,130.125,39.5,-176.5,0.1791992,0.8325195,0.09814453,-0.1376953,-0.2929688,-0.2285156
2460,90.4375,51.875,-166.9375,0.2685547,0.987793,-0.09375,-0.1210938,-0.3081055,-0.2231445
2464,36.1875,73.125,-176.75,0.140625,0.8364258,0.125,-0.1103516,-0.3144531,-0.21875
2468,50.625,67.6875,-239.9375,-0.3354492,0.5097656,0.3945313,-0.08886719,-0.3232422,-0.2202148
2472,113.5625,28.1875,-245.0625,-0.6342773,0.5722656,0.4018555,-0.06884766,-0.3330078,-0.2163086
2476,156.0625,-3.5,-230.9375,-0.4946289,1.069336,0.1982422,-0.05322266,-0.3442383,-0.2080078
2480,122.625,-7.4375,-209.8125,-0.1845703,1.644531,-0.0859375,-0.03417969,-0.3569336,-0.1943359
2484,18.125,9.9375,-186.5625,-0.01806641,1.831055,-0.2436523,-0.01611328,-0.3603516,-0.1875
2488,-93.3125,32.0625,-188,-0.09130859,1.345215,-0.07080078,-0.004394531,-0.3618164,-0.1889648
2492,-99.1875,39.125,-224.625,-0.4091797,0.5371094,0.2866211,0.01416016,-0.3554688,-0.1987305
2496,21.9375,28.375,-231,-0.746582,0.1333008,0.4750977,0.03564453,-0.3505859,-0.2055664
2500,114.3125,17.5,-215.75,-0.6923828,0.7817383,0.2441406,0.04980469,-0.3505859,-0.2011719
2504,112.8125,18.875,-200.4375,-0.4985352,1.353027,-0.02050781,0.06982422,-0.3544922,-0.1889648
2508,40.125,31.125,-182.5,-0.3510742,1.625,-0.1938477,0.08789063,-0.3530273,-0.1806641
2512,-62.875,40.8125,-165.5,-0.3901367,1.317871,-0.109375,0.09863281,-0.3520508,-0.1806641
2516,-96.375,53.0625,-199.875,-0.6069336,0.6342773,0.2329102,0.1152344,-0.3442383,-0.1875
2520,-25.5625,47,-235.3125,-0.9750977,0.1875,0.409668,0.1342773,-0.3330078,-0.1904297
2524,69.1875,27.0625,-219.5625,-1.091309,0.5292969,0.3095703,0.1484375,-0.3242188,-0.1889648
2528,81.4375,12.6875,-199.1875,-0.9365234,1.077148,0.125,0.1674805,-0.3193359,-0.1806641
2532,19.0625,10.875,-178.5625,-0.7578125,1.353027,-0.06298828,0.1831055,-0.3105469,-0.1782227
2536,-57.0625,16.25,-160.9375,-0.6728516,0.9682617,-0.02441406,0.1928711,-0.3032227,-0.1767578
2540,-61.3125,38,-173.1875,-0.7773438,0.3818359,0.1943359,0.2045898,-0.2905273,-0.1796875
2544,-0.1875,46.75,-198.4375,-1.083496,0.1176758,0.2749023,0.2211914,-0.2768555,-0.1782227
2548,72.8125,34.375,-200.3125,-1.28125,0.269043,0.2441406,0.2294922,-0.2695313,-0.1782227
2553,107.6875,22.4375,-180.5625,-1.257813,0.7041016,0.07519531,0.2436523,-0.2568359,-0.168457
2557,79.625,13.5,-154.625,-1.129883,1.104492,-0.07470703,0.253418,-0.2495117,-0.1616211
2561,7.5,8.375,-131.9375,-0.9868164,1.09668,-0.1474609,0.2592773,-0.2431641,-0.1591797
2565,-32.875,22.6875,-128.9375,-0.9365234,0.6186523,0.01367188,0.269043,-0.234375,-0.1606445
2569,-11.625,40.4375,-149.4375,-1.141602,0.2885742,0.159668,0.2749023,-0.2182617,-0.1577148
2573,34.375,23.4375,-150.25,-1.381836,0.3662109,0.07519531,0.2807617,-0.2104492,-0.1577148
2577,47.25,7.375,-134.4375,-1.25,0.6772461,0.06738281,0.2880859,-0.1982422,-0.1523438
2581,18.6875,-0.375,-116.9375,-1.048828,0.855957,-0.09375,0.2924805,-0.1894531,-0.1538086
2585,-26.9375,5.4375,-109.8125,-0.9365234,0.7509766,-0.06689453,0.2963867,-0.1791992,-0.1508789
2589,-37,20,-106.9375,-0.9438477,0.4204102,0.01367188,0.3007813,-0.1679688,-0.1523438
2593,1,30,-104.6875,-1.246094,0.3081055,0.1210938,0.3032227,-0.1582031,-0.1494141
2597,40.1875,11.125,-78.1875,-1.393555,0.5097656,0.1098633,0.3056641,-0.1494141,-0.1484375
2601,54.375,-1.6875,-52.6875,-1.165039,0.7666016,-0.04736328,0.3081055,-0.1445313,-0.1494141
2605,28.1875,2.375,-30.6875,-1.052734,0.953125,-0.1166992,0.3105469,-0.1430664,-0.144043
2609,-5.8125,0.5625,-21.8125,-1.044922,0.8168945,-0.109375,0.3081055,-0.1420898,-0.144043
2613,-9.5625,0.125,-23.125,-1.083496,0.6616211,0.02099609,0.3105469,-0.1396484,-0.1455078
2617,1.8125,-10.875,-16.25,-1.114746,0.5839844,0.001953125,0.3105469,-0.1367188,-0.144043
2621,10.875,-12.625,2.375,-0.9907227,0.6030273,0.005859375,0.3105469,-0.1367188,-0.1455078
2625,5.1875,-8.8125,14.1875,-0.8974609,0.6538086,-0.06298828,0.309082,-0.1357422,-0.1484375
2629,-9.3125,-3.3125,17.8125,-0.9130859,0.5952148,-0.02441406,0.309082,-0.1396484,-0.1455078
2633,-18.1875,-7.0625,16.375,-0.9365234,0.4829102,0.01367188,0.3105469,-0.140625,-0.1484375
2637,-19.1875,-7.875,14.8125,-0.8935547,0.3818359,0.07128906,0.3081055,-0.1381836,-0.1508789
2641,-7.875,-8.0625,12.5,-0.9555664,0.3427734,0.105957,0.309082,-0.140625,-0.1508789
2645,4.9375,-12.5625,17.125,-1.009766,0.3935547,0.09814453,0.3071289,-0.1420898,-0.1523438
2649,11.75,-14.3125,27.375,-0.9790039,0.4633789,0.07910156,0.3071289,-0.1445313,-0.1547852
2653,11.8125,-13.875,34.1875,-0.9790039,0.5449219,0.05175781,0.3046875,-0.1469727,-0.1547852
2657,7.875,-15.0625,40.6875,-1.017578,0.5683594,0.03271484,0.3032227,-0.1494141,-0.1547852
2661,4.5,-14.5625,47.0625,-1.021484,0.5952148,0.07910156,0.3007813,-0.1542969,-0.15625
2665,4.375,-15.4375,58.125,-1.044922,0.5683594,0.08642578,0.2998047,-0.1591797,-0.1577148
2669,7.875,-14.625,70.3125,-0.9790039,0.5722656,0.105957,0.2983398,-0.1645508,-0.1547852
2673,7.9375,-14.5625,72.875,-1.037109,0.5913086,0.09814453,0.2949219,-0.1704102,-0.1591797
2677,3.4375,-21.375,72.875,-1.056641,0.6303711,0.1132813,0.2915039,-0.1767578,-0.1591797
2682,2.3125,-24.8125,75.25,-1.048828,0.6303711,0.1098633,0.2915039,-0.1831055,-0.1606445
2686,2.6875,-26.125,87.1875,-1.029297,0.6733398,0.1171875,0.2866211,-0.1894531,-0.1630859
2690,0.125,-25.75,97,-1.017578,0.7509766,0.09814453,0.2807617,-0.1992188,-0.1645508
2694,-9.4375,-27.9375,100.5625,-1.067871,0.809082,0.09423828,0.2792969,-0.203125,-0.1674805
2698,-17.9375,-34.625,103.9375,-1.12207,0.8671875,0.1098633,0.2734375,-0.2143555,-0.1713867
2702,-25.875,-38.1875,118.875,-1.037109,0.7817383,0.1020508,0.2666016,-0.2207031,-0.1738281
2706,-26.875,-32.4375,132.6875,-0.9477539,0.7080078,0.1132813,0.2602539,-0.2270508,-0.1767578
2710,-25.875,-33.375,132.375,-1.017578,0.6884766,0.1328125,0.2543945,-0.2392578,-0.1796875
2714,-21.9375,-36.0625,135.5625,-0.9985352,0.7080078,0.1289063,0.2436523,-0.2480469,-0.1850586
2718,-20.375,-35.75,138.75,-0.9594727,0.7353516,0.1479492,0.2392578,-0.2529297,-0.1889648
2722,-15.5625,-38.375,140.8125,-1.005859,0.7236328,0.1518555,0.2270508,-0.2607422,-0.1918945
2726,-6.375,-42.5,144.75,-0.9169922,0.7626953,0.1328125,0.2177734,-0.2695313,-0.1943359
2730,-4.375,-34.1875,151.6875,-0.8237305,0.855957,0.1367188,0.2094727,-0.2768555,-0.1972656
2734,-13.875,-29.5625,162.25,-0.8549805,0.9414063,0.08642578,0.1948242,-0.2856445,-0.1987305
2738,-30.0625,-28.4375,163.875,-0.8857422,0.956543,0.1132813,0.184082,-0.2954102,-0.2026367
2742,-48.4375,-38.125,160.875,-0.9208984,0.9179688,0.1171875,0.1748047,-0.3007813,-0.2041016
2746,-49.625,-47.1875,163.5625,-0.8432617,0.8286133,0.140625,0.1591797,-0.3041992,-0.2094727
2750,-54,-46.875,165,-0.746582,0.8710938,0.1210938,0.144043,-0.3095703,-0.2163086
2754,-59,-44.6875,166.625,-0.7114258,0.7817383,0.1479492,0.1357422,-0.3105469,-0.2202148
2758,-51.8125,-43.375,167.1875,-0.6962891,0.7817383,0.1748047,0.1201172,-0.3129883,-0.2255859
2762,-50.5625,-45.4375,168.625,-0.6533203,0.8286133,0.1635742,0.1035156,-0.3178711,-0.230957
2766,-54.4375,-43.625,173.6875,-0.5756836,0.840332,0.1826172,0.09375,-0.3168945,-0.2353516
2770,-70.4375,-41.6875,176.5625,-0.5063477,0.8208008,0.1479492,0.07714844,-0.3193359,-0.2407227
2774,-85.9375,-42,166.125,-0.4985352,0.7275391,0.1479492,0.06152344,-0.3154297,-0.2475586
2778,-99.3125,-46.5625,156,-0.4365234,0.6459961,0.1479492,0.05078125,-0.3144531,-0.2514648
2782,-100.625,-46.875,143.6875,-0.3432617,0.5019531,0.2172852,0.03564453,-0.3081055,-0.2597656
2786,-88.4375,-43.9375,135.3125,-0.3085938,0.4165039,0.3017578,0.02246094,-0.3017578,-0.2666016
2790,-73.75,-45.4375,130.125,-0.2661133,0.3818359,0.3017578,0.01513672,-0.2954102,-0.2705078
2794,-59.375,-46.0625,117.4375,-0.1767578,0.3544922,0.3442383,0.002441406,-0.2929688,-0.2758789
2798,-43.375,-44.3125,98.5625,-0.1499023,0.4013672,0.4365234,-0.009277344,-0.2880859,-0.2802734
2802,-19.3125,-47.8125,88.125,-0.1533203,0.4516602,0.4790039,-0.01513672,-0.2856445,-0.2788086
2806,-4.4375,-46.75,93.3125,-0.06445313,0.6147461,0.4560547,-0.02587891,-0.2832031,-0.2817383
2811,-2.625,-43.0625,88.75,-0.01416016,0.6923828,0.4672852,-0.03515625,-0.2817383,-0.2802734
2815,13.4375,-37.1875,87.3125,-0.06835938,0.8710938,0.4868164,-0.04248047,-0.2817383,-0.2802734
2819,11.375,-36.875,100.5625,-0.04101563,1.019043,0.4326172,-0.05078125,-0.2807617,-0.2817383
2823,10.8125,-29.375,122.125,0.004882813,1.061523,0.4560547,-0.06054688,-0.2792969,-0.2773438
2827,-0.6875,-29.1875,134.25,0.0009765625,1.088867,0.3945313,-0.06884766,-0.2792969,-0.2773438
2831,-22.75,-36.375,137.4375,0.09765625,1.092773,0.2636719,-0.07958984,-0.2744141,-0.2758789
2835,-49.4375,-35.0625,138.875,0.2177734,0.9643555,0.3095703,-0.09130859,-0.2670898,-0.2802734
2839,-35.3125,-26.25,140.5625,0.2412109,0.7548828,0.4599609,-0.09863281,-0.2631836,-0.2802734
2843,5.625,-19.25,153.1875,0.2177734,0.8051758,0.5405273,-0.1103516,-0.2543945,-0.2817383
2847,30.25,-16.5625,178.625,0.206543,1.077148,0.4057617,-0.1220703,-0.2480469,-0.2788086
2851,-7,-15.9375,206,0.3417969,1.248047,0.1367188,-0.128418,-0.2456055,-0.2749023
2855,-84.1875,-9.4375,207.125,0.4350586,1.069336,-0.01318359,-0.1425781,-0.2358398,-0.2788086
2859,-155.5625,3.125,190.5,0.4389648,0.4907227,0.02099609,-0.1557617,-0.2167969,-0.2817383
2863,-180.375,7.75,164.5,0.3613281,-0.3095703,0.140625,-0.1591797,-0.2016602,-0.2885742
2867,-137,2.5625,121.3125,0.5087891,-0.8105469,0.2866211,-0.1665039,-0.1806641,-0.2949219
2871,-73.3125,1.25,75.1875,0.5161133,-1.280762,0.2558594,-0.168457,-0.1621094,-0.2993164
2875,-0.625,8.125,23,0.5395508,-1.102051,0.2597656,-0.1708984,-0.1567383,-0.2993164
2879,39.75,13.875,-31,0.4658203,-0.5927734,0.2250977,-0.168457,-0.1582031,-0.2993164
2883,48.0625,15.9375,-69.875,0.3999023,-0.2006836,0.2402344,-0.1650391,-0.1630859,-0.2993164
2887,58.5625,16.5,-90.3125,0.3847656,-0.01025391,0.3520508,-0.1640625,-0.1704102,-0.2993164
2891,79.375,16.9375,-101.8125,0.3574219,0.1176758,0.375,-0.1582031,-0.1821289,-0.2993164
2895,94.9375,16.3125,-104.8125,0.3613281,0.2226563,0.3095703,-0.1542969,-0.1933594,-0.2963867
2899,89.8125,19.875,-114.9375,0.4194336,0.2963867,0.2133789,-0.1484375,-0.203125,-0.2895508
2903,77.375,30.375,-136.375,0.3959961,0.3310547,0.1982422,-0.1411133,-0.2158203,-0.2910156
2907,56.625,38.625,-152.5,0.2685547,0.3505859,0.2094727,-0.1318359,-0.2280273,-0.2910156
2911,44.0625,41.3125,-163.6875,0.1791992,0.2416992,0.2133789,-0.1220703,-0.2358398,-0.2856445
2915,49.8125,47,-177.6875,0.140625,0.1640625,0.2402344,-0.1103516,-0.2441406,-0.2871094
2919,71.625,53.6875,-192.5,0.03955078,0.05517578,0.340332,-0.09472656,-0.2568359,-0.2841797
2923,131.125,59.8125,-191,-0.1030273,-0.02197266,0.390625,-0.08398438,-0.2631836,-0.2827148
2927,179.1875,63.75,-190.75,-0.1225586,0.315918,0.1713867,-0.06640625,-0.2807617,-0.2758789
2931,163.875,77.25,-200.5625,-0.1108398,0.7895508,-0.07861328,-0.04833984,-0.2983398,-0.2626953
2935,95.1875,92.9375,-220.1875,-0.2661133,0.8789063,-0.09375,-0.03515625,-0.3095703,-0.2568359
2940,60.5,92.0625,-237.625,-0.5214844,0.5292969,0.2558594,-0.009277344,-0.3168945,-0.2529297
2944,126,69,-244.6875,-0.8354492,0.1992188,0.4287109,0.01269531,-0.3208008,-0.2446289
2948,212.25,37.6875,-259.125,-0.9169922,0.5878906,0.3598633,0.02832031,-0.3291016,-0.2368164
2952,232,24.5,-252.5625,-0.7734375,1.255859,0.005859375,0.05224609,-0.3393555,-0.21875
2956,159.625,33.4375,-239.875,-0.5292969,1.84668,-0.2631836,0.07470703,-0.3466797,-0.199707
2960,16,49.25,-216.9375,-0.5175781,1.850586,-0.3051758,0.09033203,-0.3466797,-0.1928711
2964,-68.6875,66.5,-209.625,-0.7734375,0.9453125,0.03662109,0.109375,-0.3417969,-0.1918945
2968,21.3125,48.0625,-241.0625,-1.246094,0.1523438,0.409668,0.1318359,-0.3305664,-0.1972656
2972,166.3125,11.5,-254.875,-1.401367,0.5488281,0.2749023,0.1474609,-0.3266602,-0.1875
2976,203.625,5.125,-236.25,-1.141602,1.52002,0.009765625,0.1674805,-0.3242188,-0.175293
2980,115,12.3125,-203.9375,-0.8706055,2.145508,-0.3129883,0.1865234,-0.3193359,-0.1630859
2984,-31.875,16.0625,-189.375,-0.7543945,2.067871,-0.3208008,0.1938477,-0.3144531,-0.15625
2988,-131.25,9.25,-182.625,-0.8432617,1.321777,-0.1513672,0.2104492,-0.2993164,-0.1616211
2992,-151.9375,4.6875,-180.25,-0.8510742,0.4086914,0.07910156,0.2246094,-0.2817383,-0.1713867
2996,-88.625,14.9375,-181.1875,-0.765625,-0.06445313,0.2944336,0.2319336,-0.2670898,-0.1767578
3000,17.6875,41.125,-182.5,-0.8857422,-0.2470703,0.425293,0.2426758,-0.2519531,-0.1782227
3004,108.8125,55.125,-173.75,-1.165039,0.237793,0.2983398,0.2543945,-0.2392578,-0.1713867
3008,132.3125,46.0625,-153.1875,-1.296875,0.7739258,0.08642578,0.2626953,-0.234375,-0.1630859
3012,87.625,29.5625,-134.125,-1.157227,1.209473,-0.07861328,0.2709961,-0.2270508,-0.1547852
3016,3.75,18.3125,-131.3125,-1.052734,1.225098,-0.1669922,0.2792969,-0.2167969,-0.1494141
3020,-70.4375,11.75,-135.8125,-0.9946289,0.9179688,-0.1630859,0.2841797,-0.2070313,-0.1484375
3024,-113.75,7.6875,-148.625,-0.9633789,0.5449219,-0.1401367,0.2900391,-0.1933594,-0.1523438
3028,-126.9375,11.375,-158.1875,-0.8935547,0.2265625,-0.05517578,0.2973633,-0.171875,-0.15625
3032,-112.6875,25.5,-162.0625,-0.878418,-0.02197266,0.009765625,0.2998047,-0.1591797,-0.15625
3036,-83.125,43.75,-159.4375,-0.9091797,-0.1459961,0.04443359,0.3056641,-0.1396484,-0.15625
3040,-52.0625,58.4375,-155.5625,-0.9907227,-0.1538086,0.02490234,0.309082,-0.1196289,-0.1577148
3044,-24.375,67.0625,-154.5625,-1.063965,-0.1074219,0.009765625,0.3139648,-0.1083984,-0.1484375
3048,-4.8125,74.125,-157.75,-1.106934,-0.01025391,-0.02050781,0.3173828,-0.09179688,-0.144043
3052,5.1875,78.125,-162.75,-1.211426,0.06689453,-0.05908203,0.3212891,-0.07568359,-0.1357422
3056,9.625,75.125,-168.8125,-1.319824,0.1293945,-0.06689453,0.3237305,-0.06445313,-0.1303711
3060,8.5625,67.625,-171.25,-1.32373,0.2226563,-0.07470703,0.324707,-0.04833984,-0.1235352
3064,6.9375,61.5625,-163.8125,-1.374023,0.2495117,-0.08984375,0.324707,-0.03076172,-0.1166992
3069,2.25,51.1875,-150.75,-1.40918,0.2924805,-0.07080078,0.324707,-0.01708984,-0.112793
3073,-1.0625,40.125,-130.125,-1.397461,0.2924805,-0.04003906,0.324707,-0.001953125,-0.105957
3077,-3.625,26.9375,-106.875,-1.401367,0.3349609,-0.01318359,0.3237305,0.01025391,-0.1044922
3081,-5.125,17.625,-80.5,-1.351074,0.3193359,-0.001464844,0.3222656,0.01513672,-0.1044922
3085,-4.6875,9.1875,-52.9375,-1.285156,0.315918,0.03271484,0.3212891,0.02392578,-0.1020508
3089,-8.9375,0.25,-22.25,-1.265625,0.300293,0.02880859,0.3188477,0.02734375,-0.1005859
3093,-18.6875,-12.4375,0.6875,-1.211426,0.2456055,0.001953125,0.3198242,0.03027344,-0.1005859
3097,-27.0625,-23,12.1875,-1.125977,0.1640625,0.01708984,0.3173828,0.03027344,-0.1035156
3101,-29.5625,-27.25,28.8125,-1.099121,0.05517578,0.02099609,0.3188477,0.02880859,-0.1044922
3105,-29.1875,-35.9375,31.75,-1.048828,0.0009765625,0.02490234,0.3188477,0.02490234,-0.1044922
3109,-25.375,-34.5625,37.5625,-1.001953,-0.06445313,0.01708984,0.3198242,0.02392578,-0.1088867
3113,-19.0625,-41.5,38.375,-1.029297,-0.09179688,-0.01318359,0.3188477,0.02001953,-0.1113281
3117,-9.5625,-41.75,37.875,-0.9672852,-0.1230469,0.01708984,0.3188477,0.01757813,-0.1142578
3121,-4.3125,-41.5,34.5,-0.9868164,-0.08789063,-0.02832031,0.3164063,0.01367188,-0.1166992
