Packet number,Gyroscope X (deg/s),Gyroscope Y (deg/s),Gyroscope Z (deg/s),Accelerometer X (g),Accelerometer Y (g),Accelerometer Z (g),Magnetometer X (G),Magnetometer Y (G),Magnetometer Z (G)
0,-7.8125,-8,2.5625,-0.3432617,0.921875,-0.06298828,0.1186523,-0.3691406,-0.1333008
4,-4.9375,-10.875,3,-0.3354492,0.9101563,-0.06689453,0.1166992,-0.3706055,-0.1303711
8,-1.25,-11.6875,1.375,-0.3242188,0.8984375,-0.08984375,0.1176758,-0.3691406,-0.1318359
12,4.25,-15.5,3,-0.3203125,0.9101563,-0.1054688,0.1166992,-0.3706055,-0.1318359
16,10.5625,-21.875,8.375,-0.3164063,0.9375,-0.09765625,0.1166992,-0.3706055,-0.1303711
20,18.375,-35.625,18.1875,-0.2851563,0.9838867,-0.1015625,0.1166992,-0.3681641,-0.1333008
24,26.875,-46.5625,31.875,-0.1499023,1.038574,-0.1362305,0.1118164,-0.3745117,-0.1318359
28,31.625,-43.1875,45.375,-0.03710938,1.193848,-0.1474609,0.1069336,-0.3745117,-0.1333008
32,24.4375,-33.5625,57.5625,-0.006347656,1.310547,-0.1015625,0.1035156,-0.3779297,-0.1303711
36,15.875,-32.8125,82.125,-0.06445313,1.32959,-0.08984375,0.09521484,-0.3793945,-0.1289063
41,14.125,-37.8125,106.1875,-0.05664063,1.248047,-0.08984375,0.08544922,-0.3803711,-0.1289063
45,14.5,-40.875,120.5,-0.01416016,1.221191,-0.1054688,0.07714844,-0.3842773,-0.1264648
49,15.75,-39.875,119.375,0.07861328,1.225098,-0.0859375,0.06298828,-0.3842773,-0.1279297
53,16.5,-34.6875,120.5625,0.1713867,1.225098,-0.06689453,0.0546875,-0.3867188,-0.1264648
57,15,-30.625,128.5625,0.2490234,1.283203,-0.05908203,0.04150391,-0.3891602,-0.1225586
61,9.875,-21.6875,136.875,0.3188477,1.349121,-0.03222656,0.02734375,-0.390625,-0.1225586
65,2.875,-14.9375,142.1875,0.3417969,1.321777,-0.03613281,0.01660156,-0.3916016,-0.1210938
69,3.5,-12.875,142.4375,0.4233398,1.368652,-0.03613281,0.0009765625,-0.3916016,-0.1210938
73,-0.625,-4.0625,150,0.5820313,1.438477,-0.05517578,-0.01025391,-0.390625,-0.1210938
77,-4.9375,17,164.8125,0.6870117,1.458008,-0.1015625,-0.02099609,-0.3916016,-0.1181641
81,-11.875,47.5625,183.375,0.6674805,1.43457,-0.1054688,-0.03759766,-0.3881836,-0.1196289
85,-19.8125,65.9375,190.8125,0.4931641,1.395996,-0.0859375,-0.05322266,-0.3842773,-0.1225586
89,-24.375,67,188.625,0.3339844,1.418945,-0.03613281,-0.06396484,-0.3818359,-0.125
93,-28.5625,54.9375,188.75,0.3691406,1.46582,0.009765625,-0.08056641,-0.3769531,-0.1264648
97,-28.9375,45.6875,198.4375,0.3886719,1.364746,0.009765625,-0.09863281,-0.3691406,-0.1333008
101,-21.1875,39.6875,212.375,0.4853516,1.356934,-0.02832031,-0.1103516,-0.3642578,-0.1347656
105,-22.625,47.5,219.9375,0.5087891,1.384277,-0.04003906,-0.1269531,-0.3544922,-0.137207
109,-31.875,57.5,219.625,0.5356445,1.430664,-0.05126953,-0.1450195,-0.3417969,-0.1416016
113,-41.5625,69.375,213.6875,0.5317383,1.426758,-0.02441406,-0.1557617,-0.3354492,-0.1416016
117,-48.5,72.5625,215.0625,0.527832,1.418945,-0.02050781,-0.1708984,-0.3208008,-0.1523438
121,-51.0625,70.5625,224.5,0.4931641,1.388184,0.009765625,-0.184082,-0.3056641,-0.1591797
125,-50.375,68.5625,239.8125,0.5087891,1.221191,0.005859375,-0.1948242,-0.2954102,-0.1616211
129,-46.0625,65.0625,238.625,0.4233398,1.186035,0.009765625,-0.2080078,-0.2768555,-0.1713867
133,-50.0625,67.625,233.625,0.4658203,1.143066,0.005859375,-0.2172852,-0.2592773,-0.1782227
137,-52.5625,64.75,221.1875,0.4697266,1.124023,0.03662109,-0.2255859,-0.2470703,-0.1821289
141,-50.1875,58.75,225.625,0.59375,1.049805,0.05566406,-0.234375,-0.2255859,-0.1918945
145,-44.25,59.375,230.5,0.6982422,1.026855,0.07128906,-0.2426758,-0.2080078,-0.1958008
149,-48.875,72.3125,238.8125,0.7797852,1.049805,0.07128906,-0.2485352,-0.1943359,-0.199707
153,-61.3125,85.4375,233.9375,0.7602539,1.034668,0.08251953,-0.253418,-0.171875,-0.2109375
157,-68.6875,92.875,228.875,0.7333984,0.8945313,0.125,-0.2553711,-0.1479492,-0.2202148
161,-70.9375,86.5,231.25,0.7099609,0.8789063,0.1748047,-0.2553711,-0.1342773,-0.2246094
165,-75.5,86.25,231.875,0.7719727,0.7666016,0.2060547,-0.2543945,-0.1108398,-0.2324219
170,-73.4375,80.625,243.0625,0.7060547,0.6772461,0.2060547,-0.253418,-0.08837891,-0.2407227
174,-69.25,68.875,244.4375,0.7255859,0.6884766,0.2329102,-0.2519531,-0.07177734,-0.2436523
178,-70.6875,64.5625,245.8125,0.8300781,0.7236328,0.2636719,-0.2495117,-0.046875,-0.25
182,-75.3125,64.0625,254.25,0.9038086,0.777832,0.2329102,-0.2436523,-0.0234375,-0.2543945
186,-91.0625,72.1875,260.875,0.8300781,0.809082,0.2480469,-0.2387695,-0.005859375,-0.2543945
190,-102.875,76.9375,272.1875,0.675293,0.5913086,0.1943359,-0.2294922,0.02148438,-0.2597656
194,-103.375,80.25,274.6875,0.4970703,0.4013672,0.144043,-0.21875,0.04638672,-0.2636719
198,-107.125,78.6875,265.875,0.2993164,0.3193359,0.1171875,-0.2080078,0.06738281,-0.2666016
202,-112.9375,78.9375,255.125,0.190918,0.1020508,0.06738281,-0.1938477,0.08984375,-0.2651367
206,-113.25,82.8125,245.1875,0.01269531,-0.04541016,-0.02050781,-0.1757813,0.1123047,-0.2666016
210,-116.75,94.25,235.0625,-0.28125,-0.4453125,-0.112793,-0.1665039,0.1264648,-0.2651367
214,-110,99.6875,209.4375,-0.7231445,-0.9541016,-0.3823242,-0.1459961,0.1474609,-0.2666016
218,-80.3125,87.0625,155.6875,-1.137695,-1.354492,-0.5014648,-0.128418,0.1625977,-0.2626953
222,-29.375,37.125,94.6875,-1.436035,-1.696289,-0.5053711,-0.1162109,0.1689453,-0.2626953
226,37.875,-21.4375,34.8125,-1.289063,-1.665527,-0.3325195,-0.109375,0.1723633,-0.2612305
230,89.6875,-64.125,-11.125,-0.8818359,-1.1875,-0.04003906,-0.1113281,0.1689453,-0.2666016
234,99.5625,-85.8125,-50.9375,-0.4130859,-0.6938477,0.2250977,-0.1162109,0.1635742,-0.2651367
238,89.1875,-91.0625,-80.625,-0.04882813,-0.4414063,0.4560547,-0.1269531,0.1538086,-0.269043
242,73.8125,-91.0625,-93.875,0.125,-0.324707,0.5019531,-0.1376953,0.1435547,-0.2734375
246,59.5,-89.875,-101.3125,0.2724609,-0.4067383,0.4790039,-0.1474609,0.1386719,-0.269043
250,49.625,-76.25,-116.9375,0.3227539,-0.4570313,0.409668,-0.1582031,0.1274414,-0.2680664
254,40.3125,-63.1875,-136.1875,0.2797852,-0.5268555,0.3442383,-0.168457,0.1176758,-0.269043
258,43,-61.375,-150.625,0.2373047,-0.565918,0.2905273,-0.1772461,0.1098633,-0.2666016
262,51.9375,-63.125,-164.875,0.2568359,-0.534668,0.2827148,-0.1889648,0.1000977,-0.2636719
266,59.5625,-70.375,-175.5,0.2685547,-0.3520508,0.3173828,-0.2021484,0.08642578,-0.2626953
270,59.5,-78.8125,-182.125,0.3730469,-0.1850586,0.3212891,-0.2089844,0.07275391,-0.2626953
274,55.25,-80.125,-195.0625,0.4194336,-0.1113281,0.3481445,-0.2211914,0.05615234,-0.2568359
278,57.3125,-92.4375,-200.25,0.4970703,-0.01025391,0.3251953,-0.2319336,0.03613281,-0.2543945
282,62.6875,-105.6875,-200.125,0.5859375,0.1176758,0.3017578,-0.2387695,0.02490234,-0.2514648
286,57.1875,-107.875,-193.875,0.7758789,0.21875,0.1904297,-0.2509766,0.006347656,-0.2421875
290,53.5625,-89.9375,-203.5625,0.8457031,0.253418,0.2021484,-0.2592773,-0.01171875,-0.2353516
294,40.875,-80.875,-198.25,0.9350586,0.4672852,0.1787109,-0.2636719,-0.02587891,-0.2299805
299,23.25,-61.5,-198.375,0.9311523,0.4125977,0.2250977,-0.2685547,-0.04443359,-0.2231445
303,17.875,-56.875,-191.75,0.9038086,0.3779297,0.1674805,-0.2734375,-0.06298828,-0.21875
307,8.9375,-29.75,-185.0625,1.047363,0.2807617,0.08251953,-0.2734375,-0.07421875,-0.2163086
311,-0.75,19.0625,-183.6875,1.012207,0.237793,0.03271484,-0.2724609,-0.08935547,-0.2163086
315,-6.625,43.625,-201.8125,0.644043,0.284668,0.09814453,-0.2661133,-0.1083984,-0.2202148
319,3.0625,37.5,-202.75,0.4619141,0.2495117,0.159668,-0.2626953,-0.1196289,-0.2216797
323,38.625,-11.875,-200.5,0.2255859,0.2416992,0.1865234,-0.2568359,-0.1367188,-0.2216797
327,70.4375,-48.9375,-183.375,0.4506836,0.3544922,0.125,-0.2519531,-0.1542969,-0.2202148
331,84.1875,-50.75,-179.375,0.6132813,0.4985352,0.06347656,-0.2495117,-0.1669922,-0.2163086
335,74.3125,-22.3125,-188.0625,0.7177734,0.777832,0.06738281,-0.2460938,-0.1855469,-0.206543
339,37.875,5.625,-230.4375,0.4580078,1.022949,0.1289063,-0.237793,-0.2070313,-0.206543
343,23.75,-9.3125,-247.375,0.3266602,0.9643555,0.1865234,-0.2304688,-0.2182617,-0.2055664
347,39.375,-39.0625,-241.75,0.2954102,0.9916992,0.1518555,-0.2172852,-0.2368164,-0.2041016
351,47.1875,-47.8125,-228.5625,0.5708008,1.026855,0.01708984,-0.2080078,-0.2543945,-0.1958008
355,53.0625,-24.5625,-218.5,0.6518555,1.003418,-0.001464844,-0.1982422,-0.2680664,-0.1928711
359,45.875,2.3125,-237.3125,0.4853516,1.461914,0.125,-0.184082,-0.2832031,-0.1889648
363,4.5,2,-285.9375,0.1791992,1.788086,0.159668,-0.1674805,-0.3017578,-0.1875
367,-3.75,-33.5,-287.4375,0.05517578,1.500488,0.2519531,-0.1533203,-0.3105469,-0.1875
371,44.0625,-93.8125,-251.5,0.1948242,1.438477,0.2060547,-0.1328125,-0.3242188,-0.1875
375,63.625,-111.125,-211.625,0.625,1.652344,0.07128906,-0.1201172,-0.3344727,-0.1782227
379,40.25,-72.375,-189.0625,0.9462891,1.628906,0.02099609,-0.1103516,-0.3442383,-0.1713867
383,10.1875,-9.1875,-174.125,0.8652344,1.458008,0.01367188,-0.09716797,-0.3520508,-0.1674805
387,-17.3125,38.75,-172.625,0.6054688,1.314453,0.03662109,-0.08203125,-0.3579102,-0.168457
391,-33.75,60.5625,-173.75,0.2797852,1.034668,0.02880859,-0.06884766,-0.3603516,-0.1713867
395,-23,56.5625,-177.5,-0.002441406,0.7666016,-0.005371094,-0.05078125,-0.3618164,-0.175293
399,19.8125,23.3125,-177,-0.3085938,0.6459961,0.04052734,-0.03320313,-0.3657227,-0.1782227
403,65.3125,-27.625,-172,-0.3085938,0.8828125,0.07128906,-0.02246094,-0.3691406,-0.1767578
407,83.75,-57.5,-167.4375,-0.08789063,1.166504,0.03271484,-0.006835938,-0.371582,-0.1674805
411,74.875,-60.3125,-168.1875,0.05126953,1.407715,-0.05126953,0.005859375,-0.3769531,-0.1616211
415,47.625,-43.3125,-176.1875,0.1518555,1.547363,-0.07861328,0.01660156,-0.3793945,-0.15625
419,21.3125,-17.75,-181.875,0.159668,1.430664,-0.1323242,0.02978516,-0.3793945,-0.1547852
423,20.375,-3.8125,-177.625,0.03564453,1.294922,-0.1708984,0.04980469,-0.3779297,-0.1547852
428,34.125,-6.4375,-167.1875,-0.1108398,1.32959,-0.1362305,0.05957031,-0.3754883,-0.1508789
432,48.125,-21.875,-152.125,-0.1030273,1.395996,-0.1015625,0.07470703,-0.3745117,-0.1494141
436,56.6875,-35.5,-133.75,-0.02197266,1.523926,-0.05126953,0.08691406,-0.3745117,-0.144043
440,50.25,-40.4375,-114.125,0.09765625,1.694824,-0.02832031,0.09375,-0.371582,-0.1416016
444,38.625,-40.5,-92.1875,0.2177734,1.694824,0.009765625,0.1010742,-0.3691406,-0.1416016
448,35.625,-37.0625,-62.625,0.2797852,1.632813,0.04443359,0.1079102,-0.3681641,-0.1386719
452,25.6875,-29.375,-27.0625,0.3071289,1.617188,0.09814453,0.1118164,-0.3691406,-0.1386719
456,15.9375,-9.9375,10,0.2993164,1.586426,0.1557617,0.1103516,-0.3691406,-0.1318359
460,0.6875,2.3125,31.75,0.140625,1.527832,0.1904297,0.1079102,-0.3691406,-0.1357422
464,-14.9375,7.1875,45.3125,0.04736328,1.415039,0.2709961,0.1079102,-0.3730469,-0.1347656
468,-25.75,4.625,56.375,-0.02197266,1.251953,0.2827148,0.1035156,-0.3730469,-0.137207
472,-26.4375,-7.4375,65.9375,-0.07226563,1.116211,0.2441406,0.09765625,-0.3745117,-0.1386719
476,-22.5,-19.25,70.5,-0.04101563,1.104492,0.1865234,0.09375,-0.3745117,-0.1416016
480,-19.75,-30.75,79.1875,-0.02197266,1.17041,0.144043,0.08447266,-0.3754883,-0.144043
484,-19.5625,-35.1875,87.8125,0.09765625,1.255859,0.09033203,0.07617188,-0.3769531,-0.1469727
488,-27.5,-29.4375,89.625,0.1987305,1.388184,0.04052734,0.06982422,-0.3769531,-0.1469727
492,-36.5625,-22.375,98.9375,0.2294922,1.516113,0.05175781,0.05810547,-0.3779297,-0.1494141
496,-45.375,-21.5625,124.0625,0.2177734,1.590332,0.001953125,0.04980469,-0.3769531,-0.1547852
500,-45,-23.25,150.4375,0.2451172,1.617188,0.02099609,0.04052734,-0.3745117,-0.1577148
504,-40.875,-26.0625,173.3125,0.2216797,1.65625,0.02490234,0.02246094,-0.3769531,-0.1616211
508,-32.75,-35.375,198.125,0.2333984,1.667969,0.03271484,0.005859375,-0.3754883,-0.1645508
512,-25.0625,-35.0625,219.8125,0.3188477,1.706543,0.02490234,-0.006835938,-0.3745117,-0.1660156
516,-26.375,-26.5,233.25,0.3808594,1.769043,0.03271484,-0.03076172,-0.3706055,-0.1674805
520,-31.75,-8.125,245.6875,0.4467773,1.745605,0.02490234,-0.05566406,-0.3657227,-0.168457
524,-31.25,8.875,260.5625,0.4155273,1.660156,0.04052734,-0.06982422,-0.3603516,-0.1713867
528,-34.0625,20.6875,271.4375,0.3847656,1.745605,0.08251953,-0.09228516,-0.3505859,-0.1728516
532,-50,34.9375,273.125,0.3496094,1.81543,0.1328125,-0.1137695,-0.3393555,-0.1767578
536,-68.375,44.5625,275.25,0.3032227,1.757324,0.1367188,-0.1293945,-0.3291016,-0.1796875
540,-69.0625,39.9375,281.5,0.2255859,1.586426,0.1328125,-0.1508789,-0.3154297,-0.1875
544,-55.5,31.5625,295.5625,0.2758789,1.52002,0.1098633,-0.168457,-0.296875,-0.1928711
548,-45.75,34,310.4375,0.3535156,1.508301,0.1098633,-0.1816406,-0.2817383,-0.1958008
552,-61.0625,50.125,315.75,0.3691406,1.543457,0.105957,-0.199707,-0.2592773,-0.2041016
557,-75.375,64.9375,310.5,0.3032227,1.43457,0.1674805,-0.2138672,-0.2358398,-0.2094727
561,-91,72.625,304.25,0.2255859,1.364746,0.1674805,-0.2236328,-0.2192383,-0.2148438
565,-99.6875,65.8125,302.625,0.1289063,1.158691,0.1787109,-0.2304688,-0.1904297,-0.2246094
569,-91.9375,45.875,311.5625,0.03955078,0.8710938,0.1518555,-0.2387695,-0.1591797,-0.2324219
573,-69.25,22.25,311.9375,0.1132813,0.6884766,0.1557617,-0.2436523,-0.1420898,-0.2368164
577,-58.5,16.125,297.9375,0.2529297,0.7158203,0.1518555,-0.2509766,-0.1118164,-0.2392578
581,-61.3125,16.375,285.875,0.3032227,0.6884766,0.1479492,-0.2553711,-0.08203125,-0.237793
585,-64.9375,13.625,275.125,0.3339844,0.5722656,0.1674805,-0.2553711,-0.06689453,-0.2407227
589,-61.75,3.1875,274.9375,0.2954102,0.4013672,0.1904297,-0.2553711,-0.04052734,-0.2421875
593,-44.375,-6.375,276.375,0.4194336,0.300293,0.2329102,-0.2543945,-0.01318359,-0.2407227
597,-53.25,1.875,259.25,0.5820313,0.5878906,0.2402344,-0.2519531,0.002441406,-0.2436523
601,-88.6875,20.3125,233.625,0.5395508,0.6420898,0.2827148,-0.2470703,0.02734375,-0.2392578
605,-102.3125,7.375,236.8125,0.3847656,0.3041992,0.2905273,-0.2412109,0.05126953,-0.237793
609,-88.9375,-25,239.9375,0.3188477,0.04003906,0.3212891,-0.237793,0.06884766,-0.2353516
613,-75.9375,-38.0625,245.125,0.5395508,-0.04150391,0.3017578,-0.2304688,0.09375,-0.2324219
617,-103.6875,15.0625,232.4375,0.6362305,0.140625,0.1674805,-0.2197266,0.1176758,-0.2255859
621,-164,86.1875,212.4375,0.2954102,-0.04541016,-0.05126953,-0.2114258,0.1313477,-0.2246094
625,-202,134.3125,183.0625,-0.2543945,-0.6083984,-0.2631836,-0.1948242,0.15625,-0.2202148
629,-195.25,131.5625,144.375,-0.9169922,-1.436035,-0.5014648,-0.1757813,0.1772461,-0.2148438
633,-125.5625,81.625,94.0625,-1.312012,-2.01123,-0.5864258,-0.1650391,0.1899414,-0.2109375
637,-32.5,14.25,33.75,-1.23877,-1.960449,-0.4208984,-0.1582031,0.1987305,-0.206543
641,28.375,-31.875,-25.3125,-0.8085938,-1.393555,-0.2705078,-0.1567383,0.2001953,-0.206543
645,46.0625,-47.6875,-78.8125,-0.1650391,-0.8378906,-0.06689453,-0.1601563,0.1972656,-0.2080078
649,42.5,-42.75,-105.8125,0.2758789,-0.5151367,0.05566406,-0.168457,0.1899414,-0.2080078
653,41.5625,-42.4375,-108.0625,0.4853516,-0.3754883,0.159668,-0.1772461,0.1811523,-0.2080078
657,45.6875,-53.125,-91.75,0.6401367,-0.3208008,0.1943359,-0.1855469,0.1748047,-0.2080078
661,47.0625,-52.375,-72.375,0.8183594,-0.3442383,0.140625,-0.1938477,0.1689453,-0.2080078
665,46.8125,-40,-59.75,0.7875977,-0.4921875,0.09423828,-0.199707,0.1611328,-0.2094727
669,53.125,-31.4375,-58.5,0.6713867,-0.5893555,0.06738281,-0.2045898,0.1577148,-0.2094727
673,51.5,-18.125,-71.3125,0.675293,-0.5698242,0.07128906,-0.2080078,0.1499023,-0.2094727
677,47.4375,-2.1875,-83.5,0.5898438,-0.550293,0.105957,-0.2138672,0.1411133,-0.2133789
681,43.5,8.75,-101.6875,0.5087891,-0.5737305,0.1787109,-0.2163086,0.1362305,-0.2148438
686,52.625,-0.1875,-109.5,0.3691406,-0.6044922,0.2519531,-0.2211914,0.125,-0.2177734
690,73.8125,-21.5,-110.1875,0.3378906,-0.6318359,0.3056641,-0.2280273,0.1152344,-0.21875
694,95.375,-46.5,-115.25,0.3071289,-0.484375,0.2827148,-0.2319336,0.1049805,-0.2202148
698,90.0625,-51.5625,-133.75,0.559082,-0.2124023,0.2402344,-0.2387695,0.09130859,-0.2202148
702,61.75,-25.0625,-162.9375,0.7412109,0.02832031,0.2749023,-0.2470703,0.07617188,-0.2202148
706,35.6875,-2.3125,-166.625,0.7954102,-0.02587891,0.2675781,-0.2519531,0.06103516,-0.2202148
710,38.75,-1.875,-163,0.6054688,-0.1381836,0.3056641,-0.2568359,0.04882813,-0.2231445
714,56.125,-23.625,-148.625,0.6328125,-0.1733398,0.2211914,-0.2592773,0.03027344,-0.2231445
718,67.75,-27.0625,-142.25,0.6674805,-0.1499023,0.144043,-0.2651367,0.02148438,-0.2202148
722,74.9375,-31.4375,-151.5625,0.6171875,-0.006347656,0.140625,-0.2685547,0.00390625,-0.2216797
726,64.9375,-29.4375,-178.4375,0.6401367,0.1953125,0.1865234,-0.2724609,-0.01318359,-0.21875
730,58.1875,-42.3125,-190.875,0.6635742,0.2573242,0.2211914,-0.2758789,-0.02587891,-0.2177734
734,61.5625,-53.125,-187.875,0.7490234,0.2729492,0.2094727,-0.2792969,-0.046875,-0.2133789
738,65.125,-57.625,-174.1875,0.9389648,0.3623047,0.1865234,-0.2817383,-0.06835938,-0.206543
742,55.1875,-31,-155.3125,1.151855,0.4438477,0.1132813,-0.2807617,-0.07714844,-0.206543
746,30.25,18.6875,-152.1875,1.089844,0.4946289,0.105957,-0.2807617,-0.09570313,-0.2041016
750,13.25,26.1875,-175.8125,0.5009766,0.4516602,0.2290039,-0.2758789,-0.1132813,-0.206543
754,31.1875,-27.3125,-187.3125,0.3691406,0.3779297,0.2480469,-0.2724609,-0.1220703,-0.206543
758,69.3125,-83.25,-189.3125,0.4931641,0.3857422,0.1713867,-0.2700195,-0.1420898,-0.2026367
762,95.1875,-111.25,-172.875,0.9116211,0.7119141,0.08251953,-0.2685547,-0.1621094,-0.1918945
766,77.625,-76.8125,-153.5,1.399902,0.9838867,0.02880859,-0.2675781,-0.1733398,-0.1821289
770,23.0625,13.3125,-139.9375,1.570313,1.131836,0.05957031,-0.2661133,-0.1894531,-0.1767578
774,-58.4375,111.75,-150.5625,1.29541,1.092773,0.06347656,-0.2553711,-0.2016602,-0.1821289
778,-107.8125,157.9375,-171.5,0.4892578,0.5800781,0.04052734,-0.2485352,-0.2094727,-0.1918945
782,-45.0625,74.6875,-181.25,-0.2231445,-0.06835938,0.1635742,-0.2319336,-0.2143555,-0.206543
786,62.5,-18.75,-169.6875,0.03173828,0.2265625,0.1635742,-0.2197266,-0.2280273,-0.206543
790,105.4375,-67.6875,-160.625,0.3266602,0.7587891,0.1132813,-0.2163086,-0.2392578,-0.2041016
794,99.3125,-64.125,-150.1875,0.7797852,1.081055,0.1132813,-0.2104492,-0.2558594,-0.1928711
798,61.3125,-12.625,-146,0.9501953,1.205566,0.1210938,-0.206543,-0.2719727,-0.1835938
802,-2.625,53.5,-161.375,0.7138672,1.353027,0.1518555,-0.1972656,-0.2768555,-0.1835938
806,-33.6875,53.3125,-190.375,0.05517578,0.824707,0.144043,-0.1831055,-0.2880859,-0.1904297
810,20.3125,0.9375,-193.75,-0.1069336,0.6069336,0.1367188,-0.1665039,-0.2983398,-0.1918945
815,74.625,-52.4375,-184.375,0.05908203,0.8945313,0.06738281,-0.1591797,-0.3056641,-0.1918945
819,89.5,-64.25,-166.1875,0.4892578,1.197754,0.06738281,-0.1474609,-0.3178711,-0.1821289
823,71.5625,-27.125,-147.625,0.7529297,1.325684,0.02880859,-0.1376953,-0.3320313,-0.1728516
827,24.9375,35.8125,-153.0625,0.6289063,1.547363,0.105957,-0.1293945,-0.3378906,-0.168457
831,-34.875,75.4375,-180.125,0.1484375,1.291016,0.09033203,-0.1137695,-0.3442383,-0.1713867
835,-28.6875,55.375,-200,-0.2041016,0.8789063,0.144043,-0.09228516,-0.3491211,-0.1767578
839,9.75,15.125,-198.5625,-0.2543945,0.8481445,0.105957,-0.08203125,-0.3520508,-0.1782227
843,35.5625,-8.625,-197.25,-0.1303711,0.9956055,0.09033203,-0.06152344,-0.359375,-0.1767578
847,39,-7.625,-198.375,-0.1303711,1.193848,0.1328125,-0.04394531,-0.3642578,-0.1728516
851,28.5625,-11.125,-199.5625,-0.2583008,1.39209,0.1982422,-0.03173828,-0.3681641,-0.1713867
855,12.6875,-18.125,-213.3125,-0.2773438,1.426758,0.1787109,-0.01416016,-0.371582,-0.168457
859,5.3125,-18.0625,-220.75,-0.1728516,1.279297,0.03662109,0.005859375,-0.3730469,-0.1699219
863,19.9375,-5.5,-220.375,-0.1186523,1.162598,-0.06689453,0.01757813,-0.3745117,-0.1699219
867,42.9375,-1.0625,-207.8125,-0.2231445,1.248047,-0.04003906,0.0390625,-0.371582,-0.168457
871,56.6875,-10.1875,-194.875,-0.3046875,1.555176,0.04052734,0.05810547,-0.371582,-0.1645508
875,38.6875,-23.125,-193.5625,-0.2192383,1.842773,0.09423828,0.06884766,-0.3706055,-0.1616211
879,18.3125,-26.5625,-185.125,0.07861328,1.745605,0.05175781,0.08789063,-0.3706055,-0.1577148
883,15.5625,-15.625,-154.125,0.3227539,1.687012,-0.005371094,0.1010742,-0.3632813,-0.1591797
887,13.5625,-1.625,-104.8125,0.4658203,1.640625,0.01367188,0.109375,-0.3603516,-0.1577148
891,14.625,16.3125,-47.8125,0.5126953,1.559082,0.03662109,0.1166992,-0.359375,-0.1577148
895,10.75,34.875,-7.25,0.3071289,1.512207,0.105957,0.1210938,-0.3579102,-0.1547852
899,0.375,32.875,15.375,0.03564453,1.438477,0.2094727,0.1210938,-0.3569336,-0.1538086
903,-7.625,22.0625,21.75,-0.06835938,1.279297,0.2402344,0.1210938,-0.359375,-0.1508789
907,-6.25,6.125,23.375,-0.1533203,1.17041,0.2329102,0.1176758,-0.359375,-0.1523438
911,-2.9375,-10.5,27.4375,-0.1108398,1.154785,0.2094727,0.1186523,-0.359375,-0.1538086
915,1.625,-22.3125,35.25,-0.04101563,1.189941,0.1479492,0.1142578,-0.359375,-0.1538086
919,2.125,-26.0625,50.125,0.06689453,1.267578,0.09814453,0.1118164,-0.3632813,-0.1547852
923,-0.125,-21.8125,72.5625,0.1210938,1.291016,0.06738281,0.1069336,-0.3642578,-0.1547852
927,-5.625,-10.4375,88.5,0.1132813,1.372559,0.07128906,0.09960938,-0.3681641,-0.15625
931,-16.75,-5.0625,100.625,0.04345703,1.345215,0.03271484,0.08886719,-0.3681641,-0.1547852
935,-17.3125,-7.6875,109.25,-0.01025391,1.337402,0.02490234,0.08300781,-0.3706055,-0.1577148
939,-10.1875,-16.0625,123.75,0.0009765625,1.321777,0.01367188,0.07373047,-0.3691406,-0.1591797
944,0.125,-21.1875,144.25,0.1328125,1.39209,-0.001464844,0.05957031,-0.3745117,-0.1591797
948,6,-12.25,160.4375,0.1948242,1.523926,0.009765625,0.05078125,-0.3745117,-0.1577148
952,-6.125,4.625,172.6875,0.2333984,1.601563,0.01367188,0.03417969,-0.3779297,-0.1577148
956,-15.8125,19.8125,186.375,0.1289063,1.578613,0.02490234,0.01757813,-0.3769531,-0.1577148
960,-22.5,24.8125,207.0625,0.1518555,1.590332,0.005859375,0.004394531,-0.3779297,-0.1606445
964,-16.875,19.5,226.875,0.09033203,1.570801,0.03271484,-0.01416016,-0.3754883,-0.1591797
968,-15.1875,17.6875,233.875,0.1484375,1.648438,0.03662109,-0.03173828,-0.3706055,-0.1606445
972,-12.375,10.25,252.75,0.1713867,1.652344,0.1020508,-0.04980469,-0.3691406,-0.1630859
976,-13.1875,13.3125,268.1875,0.3808594,1.76123,0.1210938,-0.07226563,-0.3666992,-0.1645508
980,-26.375,24.375,285.1875,0.4619141,1.788086,0.07519531,-0.09716797,-0.3554688,-0.1645508
984,-40.0625,47.625,291.3125,0.5356445,1.772461,0.05566406,-0.112793,-0.3466797,-0.1660156
988,-47.4375,56.1875,295,0.3496094,1.601563,0.05957031,-0.1367188,-0.3320313,-0.1728516
992,-41.125,46.0625,306.0625,0.2758789,1.450195,0.08251953,-0.1567383,-0.3144531,-0.1782227
996,-36.1875,45.75,306.875,0.4077148,1.46582,0.1098633,-0.1699219,-0.3032227,-0.1806641
1000,-47.3125,55.875,299.5,0.5009766,1.450195,0.09033203,-0.1899414,-0.2841797,-0.1875
1004,-51.25,67.3125,295.9375,0.5087891,1.36084,0.06347656,-0.2055664,-0.2607422,-0.1918945
1008,-64.3125,79.375,299.75,0.4736328,1.341309,0.02490234,-0.215332,-0.2456055,-0.1958008
1012,-66.875,72.375,303.8125,0.2490234,1.092773,0.04443359,-0.2270508,-0.2192383,-0.206543
1016,-54.5625,58,306.8125,0.4155273,1.038574,0.08642578,-0.2363281,-0.1958008,-0.2133789
1020,-57.1875,59.75,301.25,0.5048828,1.120117,0.1132813,-0.2446289,-0.1757813,-0.2177734
1024,-71.8125,72.5625,291.75,0.5976563,1.04248,0.105957,-0.2495117,-0.1508789,-0.2246094
1028,-78.125,86.25,294.4375,0.5859375,0.8984375,0.09423828,-0.2543945,-0.1206055,-0.2324219
1032,-85.75,94.9375,292,0.3886719,0.7895508,0.09033203,-0.2543945,-0.1030273,-0.237793
1036,-79.125,74.8125,291,0.190918,0.6303711,0.1289063,-0.2509766,-0.07421875,-0.2460938
1040,-75.875,61.4375,279.8125,0.3188477,0.5097656,0.1943359,-0.2470703,-0.04589844,-0.2514648
1044,-77.375,61.1875,278.1875,0.4541016,0.4633789,0.1904297,-0.2470703,-0.02685547,-0.2558594
1048,-90.1875,73.1875,262.75,0.3691406,0.4282227,0.1787109,-0.237793,0,-0.2568359
1052,-90.5,69.1875,253.6875,0.2333984,0.1640625,0.1674805,-0.2294922,0.02490234,-0.2612305
1056,-82.1875,56.75,240.125,0.1557617,0.06689453,0.1982422,-0.222168,0.04003906,-0.2636719
1060,-73.625,34.25,229.4375,0.1713867,-0.01025391,0.2749023,-0.2104492,0.06396484,-0.2651367
1064,-68.3125,18.125,218.9375,0.2568359,-0.04150391,0.2905273,-0.2006836,0.08398438,-0.2636719
1068,-72.3125,18.125,212.75,0.3999023,-0.04882813,0.2519531,-0.1948242,0.09619141,-0.2626953
1073,-84.4375,38.9375,194.25,0.4580078,-0.1347656,0.2211914,-0.1831055,0.1137695,-0.2597656
1077,-95.9375,59.4375,179.875,0.3188477,-0.2275391,0.2021484,-0.1708984,0.1313477,-0.2583008
1081,-104.5625,73.4375,170.1875,0.05908203,-0.484375,0.159668,-0.1601563,0.1425781,-0.2568359
1085,-104.625,68.6875,155.1875,-0.2387695,-0.7563477,0.144043,-0.1459961,0.1577148,-0.2558594
1089,-85.6875,45.125,127.4375,-0.6030273,-1.098145,-0.04736328,-0.1328125,0.1713867,-0.2529297
1093,-55.3125,11.25,94.3125,-0.6650391,-1.315918,-0.109375,-0.1269531,0.1787109,-0.2490234
1097,-26.125,-7.1875,49.0625,-0.6376953,-1.280762,-0.1743164,-0.1201172,0.1835938,-0.2460938
1101,-8.375,-2.8125,1.875,-0.3901367,-1.1875,-0.1401367,-0.1201172,0.1875,-0.2446289
1105,6.25,7.9375,-36.3125,-0.2348633,-0.9931641,-0.009277344,-0.1201172,0.1884766,-0.2446289
1109,16.0625,-3.8125,-61.75,-0.1533203,-0.8300781,0.1748047,-0.1220703,0.1850586,-0.2460938
1113,27.875,-33.5,-73.4375,0.004882813,-0.7485352,0.3173828,-0.1269531,0.1801758,-0.2446289
1117,40.875,-69.1875,-73.4375,0.2451172,-0.5927734,0.3979492,-0.1328125,0.1772461,-0.2490234
1121,41,-90.9375,-72.3125,0.4619141,-0.5463867,0.3945313,-0.1425781,0.1723633,-0.2446289
1125,42.5625,-98.375,-70.6875,0.6054688,-0.6044922,0.3330078,-0.1557617,0.1635742,-0.2436523
1129,39.5,-89.625,-80.1875,0.7875977,-0.5151367,0.3017578,-0.1616211,0.1601563,-0.2421875
1133,25.4375,-64.375,-83.9375,0.8691406,-0.5,0.2558594,-0.1723633,0.1538086,-0.237793
1137,23.3125,-45.625,-81.4375,0.7021484,-0.6474609,0.2675781,-0.1816406,0.1474609,-0.237793
1141,33.4375,-51.75,-72.6875,0.5356445,-0.6787109,0.3134766,-0.184082,0.1435547,-0.2392578
1145,40.0625,-68.1875,-73.0625,0.4272461,-0.5893555,0.3056641,-0.1923828,0.1386719,-0.2368164
1149,37.6875,-81.5,-89.4375,0.3925781,-0.5737305,0.3056641,-0.2021484,0.1289063,-0.2338867
1153,38.8125,-94.9375,-106.9375,0.3769531,-0.5776367,0.2709961,-0.2080078,0.1225586,-0.2338867
1157,45.625,-113,-117.75,0.3886719,-0.5385742,0.2788086,-0.2197266,0.1137695,-0.2255859
1161,52,-134.9375,-116.875,0.5126953,-0.402832,0.2133789,-0.2329102,0.1035156,-0.21875
1165,44.3125,-142,-109.4375,0.574707,-0.340332,0.1713867,-0.2412109,0.09521484,-0.2163086
1169,38.75,-139.625,-117.875,0.6831055,-0.2353516,0.1518555,-0.2543945,0.08496094,-0.2041016
1173,19.1875,-118.5,-131.125,0.8959961,-0.08007813,0.1171875,-0.2651367,0.07275391,-0.1958008
1177,-5.3125,-90.5625,-131.3125,0.8613281,-0.09179688,0.07910156,-0.2724609,0.06494141,-0.1875
1181,-4.625,-84.6875,-98.25,0.8149414,-0.1655273,0.02490234,-0.2807617,0.05371094,-0.1821289
1185,10.4375,-87.625,-103.8125,0.8071289,-0.2666016,0.06738281,-0.2875977,0.04492188,-0.175293
1189,21.5,-79.5625,-112.125,0.9775391,-0.06835938,0.02099609,-0.293457,0.03857422,-0.1674805
1193,-2.3125,-39.8125,-126,1.144043,0.1293945,-0.005371094,-0.2998047,0.02490234,-0.1616211
1197,-33.375,10.5625,-132,0.9970703,-0.01806641,-0.01318359,-0.3017578,0.01513672,-0.1606445
1202,-9.3125,3.5,-136.5625,0.6328125,-0.2006836,0.08251953,-0.3032227,0.007324219,-0.1616211
1206,26.25,-48.6875,-130,0.5239258,-0.1347656,0.06738281,-0.3032227,-0.004394531,-0.1616211
1210,52.8125,-86.75,-126.5625,0.8110352,0.02832031,0.01708984,-0.3081055,-0.01806641,-0.1547852
1214,37,-61.0625,-133.6875,1.186523,0.4165039,0.009765625,-0.3105469,-0.02929688,-0.1484375
1218,-9,6.5,-141.1875,1.275879,0.4125977,-0.02832031,-0.3125,-0.04199219,-0.1455078
1222,-34.875,58.9375,-140.9375,0.7602539,0.06689453,0.01367188,-0.3115234,-0.05566406,-0.1484375
1226,-2.0625,5.375,-142.5,0.1713867,-0.1381836,0.06347656,-0.3105469,-0.06445313,-0.1508789
1230,26.5,-58.1875,-151.5625,0.3999023,0.2070313,0.05957031,-0.3105469,-0.07958984,-0.1508789
1234,24.0625,-77.3125,-152.5,0.8691406,0.4282227,-0.005371094,-0.309082,-0.09326172,-0.144043
1238,8.875,-32.125,-141.125,1.29541,0.4360352,-0.09375,-0.3115234,-0.1054688,-0.1401367
1242,-5.1875,42.125,-134.5,1.128418,0.4399414,-0.03613281,-0.3066406,-0.1196289,-0.1386719
1246,-14.0625,55.375,-152.125,0.3535156,0.3388672,0.02880859,-0.3007813,-0.1318359,-0.144043
1250,-7.4375,-12.1875,-191.875,-0.02587891,0.5019531,0.1171875,-0.2983398,-0.1420898,-0.1469727
1254,8.0625,-88.5625,-207.5,0.3613281,0.6264648,0.07910156,-0.2924805,-0.1621094,-0.144043
1258,17.1875,-108.875,-194.4375,1.078125,0.8828125,-0.06298828,-0.2915039,-0.1791992,-0.1347656
1262,2.5625,-49.5625,-166.9375,1.558594,0.921875,-0.128418,-0.2866211,-0.1904297,-0.1279297
1266,-32.1875,43.1875,-164.875,1.361328,0.9760742,-0.08203125,-0.2792969,-0.2055664,-0.1289063
1270,-64.875,100.0625,-180.3125,0.7216797,0.6147461,-0.08984375,-0.2700195,-0.2182617,-0.1347656
1274,-26.1875,36.5625,-200.5,-0.2661133,0.3466797,0.009765625,-0.2617188,-0.2280273,-0.144043
1278,21.8125,-63.6875,-209.9375,0.08642578,0.7705078,-0.005371094,-0.2460938,-0.2431641,-0.144043
1282,32.25,-98.375,-209.5,0.609375,1.221191,-0.02441406,-0.2402344,-0.2617188,-0.137207
1286,7.3125,-77.8125,-199.1875,1.186523,1.504395,-0.04736328,-0.2329102,-0.2729492,-0.1318359
1290,-23.25,-17.875,-180.375,1.268066,1.337402,-0.0859375,-0.222168,-0.2866211,-0.1279297
1294,-40.5625,40.125,-166.75,1.055176,1.100586,-0.1323242,-0.2104492,-0.2983398,-0.1318359
1298,-40.25,64.5,-171.6875,0.5356445,0.9179688,-0.1362305,-0.2021484,-0.3056641,-0.1333008
1302,-19.6875,45.3125,-180.375,0.1987305,0.809082,-0.07861328,-0.1865234,-0.3144531,-0.1425781
1306,17.25,-1.1875,-181.375,0.140625,0.956543,-0.02441406,-0.168457,-0.3256836,-0.1425781
1310,29.625,-21.875,-165.9375,0.5356445,1.236328,-0.009277344,-0.1616211,-0.3344727,-0.1416016
1314,15.4375,5.375,-154.0625,0.7294922,1.263672,-0.001464844,-0.1474609,-0.3432617,-0.1386719
1318,-1.375,38.875,-147.75,0.5820313,1.178223,-0.03613281,-0.1328125,-0.3505859,-0.1416016
1322,-15.6875,59.125,-160.0625,0.2875977,1.124023,-0.02050781,-0.1235352,-0.3544922,-0.1401367
1326,-15.9375,61.125,-171.125,0.07861328,0.9296875,-0.01318359,-0.1069336,-0.3603516,-0.1455078
1331,0.375,45.0625,-174.375,-0.08007813,0.90625,-0.02832031,-0.08886719,-0.3657227,-0.1494141
1335,16.375,26.6875,-175.3125,-0.1303711,0.9760742,-0.02832031,-0.07568359,-0.3691406,-0.1469727
1339,28.3125,16.75,-175.5,-0.08398438,1.112305,-0.05517578,-0.05908203,-0.3745117,-0.1484375
1343,30.6875,25.0625,-180.0625,-0.01806641,1.186035,-0.07861328,-0.04003906,-0.3793945,-0.1469727
1347,24.25,34.75,-191.4375,-0.1069336,1.376465,-0.06689453,-0.02929688,-0.3803711,-0.144043
1351,17.875,39.4375,-200.125,-0.1499023,1.364746,-0.009277344,-0.0078125,-0.3833008,-0.144043
1355,22.375,20.75,-199.75,-0.2773438,1.395996,0.01367188,0.01269531,-0.3842773,-0.1416016
1359,32.125,-6.1875,-190.5,-0.1342773,1.438477,-0.009277344,0.02587891,-0.3833008,-0.1401367
1363,38.0625,-21.6875,-171.5,0.1289063,1.543457,-0.009277344,0.04492188,-0.3842773,-0.1401367
1367,37,-28.125,-141.4375,0.3886719,1.690918,-0.03222656,0.05712891,-0.3833008,-0.137207
1371,28.5625,-23.125,-101.875,0.609375,1.702637,0.04785156,0.06640625,-0.3833008,-0.1333008
1375,20.4375,-16.625,-53.0625,0.7060547,1.632813,0.06347656,0.07470703,-0.3818359,-0.1318359
1379,7.8125,0.5,-18.8125,0.6362305,1.493164,0.06738281,0.07861328,-0.3818359,-0.1303711
1383,4.3125,11.875,7.3125,0.4194336,1.279297,0.09033203,0.07714844,-0.3803711,-0.1303711
1387,0.9375,15.5625,16.375,0.2451172,1.205566,0.09814453,0.07617188,-0.3818359,-0.1303711
1391,-2.6875,9.375,16.8125,0.07470703,1.186035,0.1674805,0.07714844,-0.3818359,-0.1289063
1395,-2.25,-14.5,19.875,-0.03710938,1.158691,0.140625,0.07373047,-0.3818359,-0.1289063
1399,0.125,-36.6875,26.4375,0.1210938,1.174316,0.05566406,0.07226563,-0.3833008,-0.1303711
1403,2.3125,-45.375,42.8125,0.3149414,1.189941,-0.03222656,0.06787109,-0.3842773,-0.1318359
1407,3,-42.375,65,0.4155273,1.263672,-0.08984375,0.06298828,-0.3833008,-0.1318359
1411,1.4375,-33.875,87.3125,0.4467773,1.325684,-0.1245117,0.0546875,-0.3857422,-0.1303711
1415,-2.5625,-28,107.3125,0.4155273,1.388184,-0.1474609,0.04492188,-0.3867188,-0.1303711
1419,-4.75,-25.1875,123.9375,0.3730469,1.442383,-0.1435547,0.03662109,-0.3881836,-0.1318359
1423,-6.875,-20.9375,137.5,0.3925781,1.469727,-0.128418,0.02246094,-0.3867188,-0.1318359
1427,-10.3125,-13.4375,149.8125,0.4116211,1.527832,-0.08203125,0.01074219,-0.3867188,-0.1318359
1431,-9.6875,-10.25,167.5,0.3959961,1.52002,-0.04394531,-0.0009765625,-0.3881836,-0.1333008
1435,-2.3125,-13.5,186.6875,0.4077148,1.590332,-0.03222656,-0.01855469,-0.3867188,-0.1318359
1439,-3.5,-10.25,202.0625,0.5395508,1.753418,-0.005371094,-0.03662109,-0.3842773,-0.1347656
1443,-18.125,13.25,209.875,0.7060547,1.858398,0.01708984,-0.05224609,-0.3833008,-0.1318359
1447,-31.125,46.4375,225.625,0.8339844,1.81543,-0.01660156,-0.07226563,-0.3793945,-0.1357422
1451,-41.375,68.3125,247.8125,0.5126953,1.733887,-0.02832031,-0.09228516,-0.3691406,-0.1386719
1455,-36.25,63.375,261.375,0.3769531,1.605469,0.03271484,-0.1030273,-0.3603516,-0.1416016
1460,-33.5625,46.9375,270.875,0.2724609,1.586426,0.06738281,-0.1259766,-0.3505859,-0.1484375
1464,-38,42.0625,270.75,0.4389648,1.613281,0.06738281,-0.1494141,-0.3354492,-0.1523438
1468,-46.375,48.5,271.375,0.4931641,1.566895,0.03662109,-0.1625977,-0.3232422,-0.15625
1472,-53.8125,60.8125,272.625,0.5976563,1.586426,-0.02441406,-0.1806641,-0.3066406,-0.1606445
1476,-61.625,78.6875,279.4375,0.6362305,1.523926,-0.05517578,-0.1982422,-0.2866211,-0.1674805
1480,-73.25,96.5625,286.75,0.5395508,1.49707,-0.07080078,-0.2080078,-0.2719727,-0.1728516
1484,-71.875,89.75,290.25,0.3266602,1.267578,-0.01318359,-0.2197266,-0.2495117,-0.1850586
1488,-65.625,75.0625,285.3125,0.3032227,1.209473,0.03271484,-0.2329102,-0.2255859,-0.1943359
1492,-68.1875,61.3125,282.8125,0.3652344,1.135742,0.01708984,-0.2387695,-0.2080078,-0.199707
1496,-69.125,62.1875,275.3125,0.4814453,1.061523,-0.02832031,-0.2470703,-0.1831055,-0.2080078
1500,-71.75,64.3125,271.3125,0.574707,0.9179688,-0.06689453,-0.2553711,-0.1582031,-0.2148438
1504,-76.0625,88.1875,263.6875,0.7216797,0.9179688,-0.08203125,-0.2568359,-0.140625,-0.21875
1508,-80.3125,98.9375,267.6875,0.6210938,0.7548828,-0.05126953,-0.2592773,-0.1142578,-0.2270508
1512,-72.0625,87.625,269.6875,0.3730469,0.6694336,0.07128906,-0.2568359,-0.08837891,-0.2392578
1516,-65.4375,52.375,265,0.2724609,0.5839844,0.2060547,-0.253418,-0.07080078,-0.2421875
1520,-62.4375,20.5625,258.8125,0.3769531,0.5371094,0.2788086,-0.2519531,-0.04443359,-0.2460938
1524,-63.3125,9.8125,250.3125,0.5356445,0.4711914,0.3017578,-0.2509766,-0.01953125,-0.2475586
1528,-66.375,15.9375,251.75,0.6401367,0.4516602,0.2636719,-0.2470703,-0.001953125,-0.2475586
1532,-70.375,35.5625,250.125,0.6791992,0.3974609,0.2519531,-0.2426758,0.02246094,-0.2460938
1536,-75.5,49.9375,248.0625,0.5512695,0.3081055,0.2441406,-0.234375,0.04492188,-0.2490234
1540,-69.25,50.75,249.9375,0.4389648,0.21875,0.3520508,-0.2246094,0.06005859,-0.2490234
1544,-73.125,36.625,248.8125,0.2758789,0.1757813,0.3637695,-0.2163086,0.08251953,-0.2490234
1548,-67.375,18.4375,243.1875,0.2490234,-0.04150391,0.355957,-0.203125,0.1035156,-0.2490234
1552,-62.5,11.4375,233.1875,0.2607422,-0.1308594,0.2944336,-0.1972656,0.1176758,-0.2475586
1556,-65.0625,18.1875,216.375,0.3266602,-0.1269531,0.2558594,-0.1831055,0.1362305,-0.2460938
1560,-71.125,37.8125,201.5625,0.3110352,-0.2275391,0.2250977,-0.168457,0.1513672,-0.2436523
1564,-76.0625,56.75,195,0.2294922,-0.387207,0.1826172,-0.1601563,0.1635742,-0.2421875
1568,-77.5625,73,170.8125,0.07080078,-0.3173828,0.1904297,-0.1435547,0.1738281,-0.2392578
1572,-83,77.75,154.1875,-0.1884766,-0.7524414,0.005859375,-0.128418,0.1899414,-0.237793
1576,-70,77.0625,127.9375,-0.3706055,-0.9350586,-0.112793,-0.1162109,0.1962891,-0.2338867
1580,-51.3125,65.1875,100.625,-0.5175781,-1.152344,-0.2055664,-0.1020508,0.2050781,-0.2338867
1584,-20.6875,45.125,76.125,-0.6030273,-1.312012,-0.2285156,-0.09130859,0.2099609,-0.230957
1589,14.6875,23.4375,54.6875,-0.5795898,-1.327148,-0.1513672,-0.08789063,0.2114258,-0.2338867
1593,38.625,6.75,27.9375,-0.4672852,-1.144531,-0.01660156,-0.08203125,0.2114258,-0.2353516
1597,42.125,-3.25,-9.1875,-0.296875,-0.9194336,0.140625,-0.08300781,0.2075195,-0.2392578
1601,32.1875,-9.125,-42.6875,-0.1303711,-0.7832031,0.2441406,-0.08203125,0.2084961,-0.2407227
1605,27.375,-15.375,-64.3125,0.04345703,-0.7988281,0.3095703,-0.08642578,0.2026367,-0.2436523
1609,31.5,-30.4375,-72.75,0.140625,-0.7446289,0.3789063,-0.09228516,0.1987305,-0.2446289
1613,33.875,-53.0625,-70.25,0.2333984,-0.7094727,0.3867188,-0.09863281,0.1962891,-0.2460938
1617,37.5,-72.5,-69.375,0.3613281,-0.6552734,0.390625,-0.1069336,0.1899414,-0.2460938
1621,35.5,-78.875,-69.5,0.4853516,-0.6318359,0.340332,-0.1176758,0.1850586,-0.2460938
1625,31.375,-70.625,-70.6875,0.59375,-0.6083984,0.2905273,-0.1235352,0.1835938,-0.2436523
1629,27.4375,-51.625,-74.5625,0.6015625,-0.6240234,0.2827148,-0.1342773,0.1801758,-0.2446289
1633,22,-32,-80,0.5473633,-0.6474609,0.2788086,-0.1411133,0.1748047,-0.2446289
1637,22.3125,-24.5625,-88.5,0.3886719,-0.6591797,0.2983398,-0.1459961,0.1699219,-0.2436523
1641,26,-31.1875,-93.5625,0.3417969,-0.6860352,0.2905273,-0.1542969,0.1660156,-0.2446289
1645,33.625,-39.5,-101.375,0.3266602,-0.6552734,0.2944336,-0.1616211,0.1577148,-0.2446289
1649,34.8125,-44.875,-110.25,0.3652344,-0.5698242,0.2788086,-0.1665039,0.1523438,-0.2460938
1653,33.5,-38.125,-121.375,0.4272461,-0.5620117,0.2368164,-0.1772461,0.1435547,-0.2421875
1657,38.5625,-38.625,-133.25,0.3457031,-0.4960938,0.2944336,-0.1875,0.1337891,-0.2446289
1661,38,-52,-136.3125,0.3457031,-0.4335938,0.2827148,-0.1948242,0.1274414,-0.2436523
1665,42.75,-64.0625,-148.125,0.3496094,-0.3793945,0.2905273,-0.203125,0.1162109,-0.2421875
1669,38.9375,-77.5625,-156.25,0.4116211,-0.3173828,0.2402344,-0.215332,0.1010742,-0.237793
1673,39.25,-74.25,-167.9375,0.543457,-0.3095703,0.1787109,-0.222168,0.09375,-0.237793
1677,39,-63,-176.125,0.5668945,-0.2548828,0.1748047,-0.2353516,0.07763672,-0.2324219
1681,45.9375,-66,-178.4375,0.5126953,-0.1967773,0.2060547,-0.2446289,0.06396484,-0.2299805
1685,48.5625,-82.0625,-182.4375,0.4970703,-0.002441406,0.2290039,-0.2509766,0.05273438,-0.2255859
1689,42.4375,-91.0625,-187.6875,0.6289063,0.05908203,0.2021484,-0.2617188,0.03271484,-0.2202148
1693,36.9375,-86.1875,-195.75,0.7680664,0.07470703,0.1289063,-0.2685547,0.01513672,-0.2133789
1697,32.1875,-59.375,-192.8125,0.9389648,0.06298828,0.02490234,-0.2758789,0.002441406,-0.2080078
1701,31.6875,-30.875,-199.5,0.7568359,0.1679688,0.1479492,-0.2807617,-0.01708984,-0.2055664
1705,20.4375,-42.125,-208.4375,0.6210938,0.4013672,0.1713867,-0.2827148,-0.03564453,-0.2026367
1709,24.25,-69,-216.875,0.559082,0.3041992,0.1748047,-0.2851563,-0.04931641,-0.2026367
1713,34,-95.1875,-210.0625,0.7719727,0.3701172,0.09033203,-0.2890625,-0.07080078,-0.1943359
1718,35.875,-75.625,-199.0625,1.124512,0.4125977,0.04052734,-0.2924805,-0.09179688,-0.1865234
1722,22.3125,-16.4375,-190.25,1.26416,0.5952148,0.03662109,-0.2915039,-0.1044922,-0.1821289
1726,-18.3125,38.25,-221.1875,0.7993164,0.7236328,0.09814453,-0.2866211,-0.1230469,-0.1821289
1730,-14.1875,3.625,-234.25,0.4116211,0.4985352,0.1518555,-0.2768555,-0.1420898,-0.1865234
1734,18,-50.875,-223.625,0.4619141,0.5761719,0.1171875,-0.2709961,-0.1567383,-0.1850586
1738,38.3125,-81.8125,-205.625,0.8261719,0.7509766,0.01708984,-0.2685547,-0.1757813,-0.1782227
1742,42.4375,-57.3125,-183.25,1.175293,0.7817383,-0.03613281,-0.2626953,-0.1943359,-0.1699219
1746,30.3125,4.4375,-166.5,1.279785,0.875,-0.02832031,-0.2636719,-0.2070313,-0.1674805
1750,-8.625,66.75,-190.25,0.9350586,1.108398,0.005859375,-0.2519531,-0.2207031,-0.1660156
1754,-39.125,86.4375,-221.75,0.4697266,0.9492188,0.05175781,-0.2353516,-0.2358398,-0.1767578
1758,-5.3125,30.375,-225.8125,0.3378906,0.9643555,0.1557617,-0.2270508,-0.2456055,-0.1796875
1762,22,-11.375,-187.875,0.8071289,1.049805,0.1328125,-0.2128906,-0.2607422,-0.1821289
1766,25.4375,13.625,-155.5,1.144043,1.057617,0.07128906,-0.203125,-0.2744141,-0.1806641
1770,14.25,64.9375,-136.75,1.008301,0.8710938,0.02099609,-0.1948242,-0.2792969,-0.1806641
1774,15.125,103.1875,-138.8125,0.625,0.921875,0.07910156,-0.1831055,-0.2905273,-0.1850586
1778,-1.5625,94.8125,-168.375,0.1289063,0.9799805,0.1171875,-0.1665039,-0.2993164,-0.1889648
1782,16.3125,52.25,-179.4375,-0.01025391,0.7314453,0.1748047,-0.1542969,-0.3056641,-0.1904297
1786,41.3125,8.375,-177.75,0.07861328,0.9453125,0.1904297,-0.1391602,-0.3154297,-0.1928711
1790,45.9375,-9.5,-176.1875,0.2177734,1.049805,0.2021484,-0.1245117,-0.3266602,-0.1889648
1794,43.125,-7.6875,-172.25,0.2685547,1.034668,0.144043,-0.1137695,-0.3330078,-0.1865234
1798,42.8125,3.125,-180.375,0.1445313,1.069336,0.1132813,-0.1010742,-0.3417969,-0.1850586
1802,42,-5.75,-194.25,-0.04882813,1.244141,0.1479492,-0.08544922,-0.3491211,-0.1806641
1806,41.4375,-25,-200.125,-0.006347656,1.298828,0.144043,-0.07470703,-0.3544922,-0.1767578
1810,40.9375,-34.25,-197.4375,0.04736328,1.349121,0.08642578,-0.05419922,-0.3618164,-0.1738281
1814,43.625,-34.4375,-190.0625,0.1054688,1.314453,0.03662109,-0.04003906,-0.3681641,-0.1713867
1818,46.375,-29,-184.8125,0.07861328,1.353027,0.01708984,-0.02929688,-0.3706055,-0.168457
1822,48.9375,-24.3125,-181.3125,0.04345703,1.356934,0.02880859,-0.01269531,-0.3754883,-0.1630859
1826,49.25,-24.4375,-182.0625,0.02832031,1.430664,0.02490234,0.002441406,-0.3779297,-0.1591797
1830,48.125,-26.75,-181,0.07470703,1.426758,-0.005371094,0.01269531,-0.3769531,-0.1547852
1834,47.5,-19.4375,-186.3125,0.2373047,1.446289,-0.009277344,0.02978516,-0.3803711,-0.1523438
1838,43.5,-0.5,-189.375,0.3457031,1.461914,0.02880859,0.04980469,-0.3803711,-0.1494141
1842,39.375,16.75,-184,0.3691406,1.527832,0.02099609,0.05957031,-0.3793945,-0.144043
1847,28.125,28.875,-146,0.4194336,1.597656,0.04052734,0.07714844,-0.3754883,-0.144043
1851,12.625,32.5,-101.125,0.2993164,1.508301,0.05957031,0.09033203,-0.3730469,-0.137207
1855,7.25,17.6875,-52.8125,0.1870117,1.403809,0.09033203,0.09765625,-0.371582,-0.1386719
1859,5.5625,8.4375,-26.5,0.159668,1.345215,0.1171875,0.1020508,-0.371582,-0.1401367
1863,3,2.3125,-16.125,0.125,1.283203,0.1020508,0.1044922,-0.3706055,-0.1386719
1867,1.1875,-4.125,-5.5625,0.1210938,1.244141,0.09423828,0.1035156,-0.3681641,-0.1386719
1871,-2.5,-2.9375,7.25,0.1713867,1.259766,0.09814453,0.1035156,-0.3706055,-0.1357422
1875,-11.4375,5,19.5625,0.1484375,1.283203,0.07128906,0.1044922,-0.3706055,-0.137207
1879,-20.5,7.1875,34.3125,0.1015625,1.294922,0.07519531,0.1020508,-0.3706055,-0.137207
1883,-24.75,4.1875,48.5625,0.08251953,1.294922,0.07519531,0.09863281,-0.371582,-0.1401367
1887,-23.4375,-2.1875,66.125,0.06689453,1.287109,0.07910156,0.09130859,-0.371582,-0.1416016
1891,-25,-7.6875,84.1875,0.05517578,1.337402,0.09033203,0.09033203,-0.3730469,-0.144043
1895,-31.625,-7.5625,93.3125,0.07080078,1.36084,0.09033203,0.07958984,-0.3745117,-0.1484375
1899,-36.75,-4.625,100.375,0.08642578,1.353027,0.06738281,0.07226563,-0.3745117,-0.1508789
1903,-38.5,-6.4375,112.8125,0.07470703,1.403809,0.07519531,0.06396484,-0.3754883,-0.1508789
1907,-38.875,-7.875,129.5,0.1210938,1.454102,0.08642578,0.05224609,-0.3754883,-0.1547852
1911,-43.5625,-2.75,142,0.190918,1.539551,0.09033203,0.04052734,-0.3754883,-0.1591797
1915,-49.9375,2.5625,155.9375,0.159668,1.574707,0.09423828,0.03076172,-0.3745117,-0.1606445
1919,-50.6875,-0.875,177.6875,0.109375,1.535645,0.125,0.01660156,-0.3730469,-0.1674805
1923,-48.1875,-7.0625,196.1875,0.1328125,1.55127,0.1328125,-0.0009765625,-0.3730469,-0.1674805
1927,-47.25,-8.6875,202.3125,0.125,1.559082,0.1132813,-0.01416016,-0.3681641,-0.1713867
1931,-41.125,-13.125,205.125,0.1518555,1.566895,0.1020508,-0.03417969,-0.3642578,-0.1767578
1935,-32.375,-19.75,216.4375,0.2490234,1.601563,0.1098633,-0.05419922,-0.359375,-0.1796875
1939,-32.3125,-15.25,234.625,0.3886719,1.706543,0.105957,-0.06738281,-0.3544922,-0.1796875
1943,-35.5,0.0625,251.625,0.4814453,1.722168,0.105957,-0.08886719,-0.3442383,-0.1835938
1947,-43.875,14.125,266.4375,0.4233398,1.76123,0.105957,-0.1103516,-0.3344727,-0.1850586
1951,-48.625,16.125,278.0625,0.3457031,1.683105,0.1132813,-0.1245117,-0.3266602,-0.1875
1955,-41.875,7.3125,282.125,0.3071289,1.617188,0.09423828,-0.1459961,-0.3105469,-0.1943359
1959,-35.8125,5.6875,286.875,0.5087891,1.632813,0.09423828,-0.1665039,-0.2944336,-0.1958008
1963,-28.5,13.3125,301.1875,0.5239258,1.527832,0.05566406,-0.1791992,-0.2807617,-0.1958008
1967,-14.5625,12.125,324.75,0.5356445,1.458008,0.07128906,-0.1982422,-0.2617188,-0.199707
1971,-22.25,27.875,339.75,0.6557617,1.55127,0.1132813,-0.21875,-0.2392578,-0.2011719
1976,-59.0625,66.5625,337.6875,0.625,1.527832,0.105957,-0.2280273,-0.2207031,-0.2026367
1980,-92.9375,96.625,334.1875,0.4155273,1.333496,0.09423828,-0.2412109,-0.1933594,-0.2119141
1984,-115.1875,111.5,324,0.2026367,1.081055,0.05566406,-0.2470703,-0.1621094,-0.2231445
1988,-106.4375,90.9375,318.1875,-0.03710938,0.7353516,0.08642578,-0.2470703,-0.1396484,-0.230957
1992,-80,54.5,317.5625,-0.02587891,0.6108398,0.1132813,-0.2519531,-0.1069336,-0.2392578
1996,-61.5,25.9375,318.625,0.1484375,0.5214844,0.159668,-0.2519531,-0.07421875,-0.2421875
2000,-60.75,27.6875,304.375,0.3339844,0.6069336,0.140625,-0.253418,-0.05810547,-0.2436523
2004,-76.75,48.3125,282.375,0.3886719,0.5332031,0.1826172,-0.2509766,-0.02929688,-0.2446289
2008,-87.5625,63.6875,269.8125,0.3691406,0.4204102,0.1826172,-0.2446289,-0.001953125,-0.2490234
2012,-94.8125,67.625,266.5625,0.1948242,0.315918,0.2329102,-0.2387695,0.01611328,-0.2543945
2016,-94.0625,55.1875,265.25,0.1445313,0.140625,0.2827148,-0.2294922,0.04394531,-0.2558594
2020,-93.3125,45.25,260.125,0.1367188,0.004882813,0.2290039,-0.21875,0.06884766,-0.2558594
2024,-88.75,37.25,246.875,0.1445313,-0.1113281,0.2480469,-0.2089844,0.08642578,-0.2558594
2028,-89.4375,32.6875,230.4375,0.2138672,-0.1655273,0.2329102,-0.1982422,0.1064453,-0.2543945
2032,-99.875,44.75,208.5,0.3071289,-0.1850586,0.1748047,-0.1865234,0.1264648,-0.2514648
2036,-114.25,74.5625,195.75,0.4155273,-0.2939453,0.1020508,-0.1733398,0.1401367,-0.2490234
2040,-126.5625,107.0625,193.125,0.1328125,-0.484375,-0.05126953,-0.1582031,0.1577148,-0.2490234
2044,-116.0625,102,204.6875,-0.2890625,-0.6513672,-0.3012695,-0.1391602,0.1762695,-0.2460938
2048,-56.1875,58.5625,212.5625,-0.7617188,-1.424316,-0.2246094,-0.1245117,0.1850586,-0.2446289
2052,-3.25,10,172.875,-0.8510742,-1.284668,-0.1708984,-0.1069336,0.1948242,-0.2421875
2056,2.375,-13.75,93.0625,-0.5834961,-1.066895,-0.1938477,-0.09619141,0.1987305,-0.2436523
2060,-7.9375,-0.5,31.625,-0.2504883,-1.008789,-0.1899414,-0.09375,0.2011719,-0.2421875
2064,3.4375,23.6875,0.1875,-0.04882813,-1.02832,-0.05908203,-0.09130859,0.2011719,-0.2421875
2068,22.0625,27.125,-16.0625,-0.08789063,-0.8881836,0.1328125,-0.09033203,0.2026367,-0.2436523
2072,34.5,1.9375,-30.4375,-0.04101563,-0.7641602,0.3442383,-0.09228516,0.1987305,-0.2460938
2076,38.25,-28.0625,-44.5625,0.1210938,-0.6396484,0.4521484,-0.09375,0.1948242,-0.2490234
2080,32.5,-41.625,-59.75,0.3847656,-0.581543,0.4404297,-0.09960938,0.1914063,-0.2490234
2084,23.4375,-33.5,-70.125,0.5820313,-0.5854492,0.3945313,-0.1030273,0.1875,-0.25
2088,18.625,-19.1875,-63.4375,0.6362305,-0.6748047,0.3789063,-0.1103516,0.1850586,-0.2514648
2092,19.1875,-7.4375,-54.375,0.574707,-0.7329102,0.3789063,-0.1152344,0.1826172,-0.25
2096,22.375,-3,-51.25,0.4658203,-0.8105469,0.3789063,-0.1176758,0.1811523,-0.2514648
2100,26.4375,-8.6875,-56.5625,0.2685547,-0.8144531,0.3828125,-0.1220703,0.1748047,-0.2529297
2105,29.625,-29.1875,-65.5,0.1557617,-0.7988281,0.4174805,-0.128418,0.1723633,-0.2558594
2109,31.75,-46.375,-78.4375,0.1328125,-0.7641602,0.390625,-0.1303711,0.1689453,-0.2558594
2113,30.75,-56.875,-95.125,0.1674805,-0.7055664,0.3442383,-0.1401367,0.1611328,-0.2543945
2117,28.75,-58.3125,-111.5625,0.2294922,-0.6630859,0.2675781,-0.1518555,0.15625,-0.2529297
2121,30.125,-53.375,-125.4375,0.2915039,-0.6162109,0.2133789,-0.1582031,0.1499023,-0.2514648
2125,32.0625,-42.1875,-138,0.3188477,-0.5776367,0.1865234,-0.1699219,0.1435547,-0.2529297
2129,36.625,-35.5,-147.1875,0.2568359,-0.5229492,0.2250977,-0.1782227,0.1323242,-0.2514648
2133,42.375,-48.5625,-156.0625,0.1328125,-0.4453125,0.2558594,-0.1865234,0.1235352,-0.2490234
2137,47,-68.375,-171.5,0.159668,-0.3481445,0.3095703,-0.1972656,0.1113281,-0.25
2141,47.75,-92.4375,-181.5,0.2177734,-0.2275391,0.2597656,-0.2104492,0.09619141,-0.2460938
2145,45.0625,-94.4375,-189.875,0.5048828,-0.1889648,0.1713867,-0.2211914,0.08642578,-0.2421875
2149,38.9375,-63.875,-207.5,0.7099609,-0.1074219,0.1210938,-0.2329102,0.06982422,-0.2392578
2153,36.3125,-38.75,-219.75,0.5976563,-0.06835938,0.1943359,-0.2412109,0.05126953,-0.2368164
2157,49.6875,-58.875,-210.3125,0.5048828,0.04394531,0.2558594,-0.2485352,0.03759766,-0.2353516
2161,54.4375,-77.25,-204.875,0.644043,0.2070313,0.2597656,-0.2578125,0.01757813,-0.230957
2165,42.5625,-69.4375,-207.8125,0.8339844,0.2338867,0.1787109,-0.2651367,-0.003417969,-0.2255859
2169,31.1875,-34.8125,-211.75,0.9658203,0.2148438,0.1289063,-0.2685547,-0.015625,-0.2246094
2173,15.5,18.8125,-218.625,1.004395,0.2729492,0.09814453,-0.2724609,-0.03564453,-0.2216797
2177,19.5625,26.625,-233.4375,0.5200195,0.2924805,0.2636719,-0.2700195,-0.0546875,-0.2246094
2181,38.875,-35.625,-222.875,0.3574219,0.5136719,0.3251953,-0.2675781,-0.06835938,-0.2246094
2185,52.625,-87.375,-208.4375,0.675293,0.6108398,0.2636719,-0.2700195,-0.09326172,-0.21875
2189,54.875,-88.6875,-199.125,1.059082,0.6069336,0.1479492,-0.2709961,-0.1118164,-0.2094727
2193,46.8125,-42.875,-181.1875,1.248535,0.5566406,0.1020508,-0.2700195,-0.1254883,-0.206543
2197,37.9375,14.5,-161.5625,1.105469,0.3935547,0.009765625,-0.2675781,-0.1430664,-0.2026367
2201,48.8125,40.6875,-164.125,0.4853516,0.5058594,0.125,-0.2602539,-0.1582031,-0.2055664
2205,38.5,-18.75,-204.0625,-0.08789063,1.104492,0.2749023,-0.2568359,-0.1694336,-0.2041016
2209,19.0625,-102.1875,-237.75,0.2373047,1.09668,0.2905273,-0.2509766,-0.1894531,-0.199707
2213,27.25,-130.6875,-236.625,0.9619141,1.06543,0.09814453,-0.2460938,-0.2080078,-0.1889648
2217,24.25,-83.75,-194.1875,1.46582,0.9643555,0.05566406,-0.2446289,-0.2216797,-0.1835938
2221,13.9375,2.0625,-156.8125,1.275879,0.7895508,-0.009277344,-0.237793,-0.2368164,-0.1782227
2225,18.625,44.625,-144.3125,0.609375,0.5605469,-0.009277344,-0.2270508,-0.2480469,-0.1767578
2229,34.5625,39.3125,-181.4375,0.06689453,1.081055,0.1865234,-0.2172852,-0.2568359,-0.1782227
2234,3.9375,-23.0625,-239.625,-0.04101563,1.314453,0.1982422,-0.206543,-0.2719727,-0.1806641
2238,25.8125,-69.5625,-221.6875,0.4311523,1.131836,0.2329102,-0.1938477,-0.2880859,-0.1767578
2242,34.625,-69.375,-186.125,0.8149414,1.251953,0.1098633,-0.1855469,-0.296875,-0.1738281
2246,22.5625,-34.6875,-170.75,0.7177734,1.259766,0.04785156,-0.1748047,-0.3081055,-0.168457
2250,20.3125,-14.875,-160.375,0.5317383,1.019043,-0.04003906,-0.1625977,-0.3178711,-0.1630859
2254,29.5,-6.5,-166.5625,0.3266602,1.116211,-0.02832031,-0.1542969,-0.3242188,-0.1616211
2258,18.0625,-8.5,-183.875,0.1831055,1.221191,-0.03613281,-0.1411133,-0.3344727,-0.1606445
2262,17.375,-17.25,-197.375,0.1328125,1.146973,-0.05126953,-0.1245117,-0.3457031,-0.1606445
2266,29.125,-25.4375,-193.75,0.2026367,1.131836,-0.08984375,-0.112793,-0.3505859,-0.1577148
2270,35.125,-20.875,-192.875,0.2104492,1.302734,-0.1166992,-0.09716797,-0.359375,-0.1538086
2274,27.0625,-9.75,-202.375,0.1948242,1.36084,-0.112793,-0.07958984,-0.3657227,-0.1508789
2278,24.5,-2.3125,-207.0625,0.1518555,1.372559,-0.1054688,-0.06738281,-0.3706055,-0.1508789
2282,22.25,4.25,-211.75,0.140625,1.426758,-0.1054688,-0.04589844,-0.3754883,-0.1494141
2286,22.8125,6.5625,-209.625,0.1328125,1.426758,-0.1015625,-0.02587891,-0.3803711,-0.1484375
2290,23.6875,7.625,-199.9375,0.2104492,1.493164,-0.0859375,-0.01269531,-0.3803711,-0.1455078
2294,21.5,15.4375,-187.3125,0.3032227,1.52002,-0.05908203,0.006835938,-0.3833008,-0.1425781
2298,19.0625,19,-164.75,0.3188477,1.535645,-0.01318359,0.02490234,-0.3833008,-0.144043
2302,16.8125,13.5,-133.5,0.3691406,1.555176,0.04785156,0.03417969,-0.3842773,-0.1401367
2306,12.5,6.0625,-100,0.4077148,1.527832,0.08251953,0.04736328,-0.3833008,-0.1425781
2310,11.8125,-0.875,-63.3125,0.4853516,1.411133,0.07910156,0.05566406,-0.3803711,-0.1386719
2314,12.5625,4.125,-27.5,0.5317383,1.380371,0.07910156,0.05810547,-0.3818359,-0.1416016
2318,8.125,14.0625,-1.125,0.4428711,1.32959,0.1210938,0.06054688,-0.3818359,-0.137207
2322,2.9375,16.25,12.0625,0.2724609,1.283203,0.159668,0.05957031,-0.3818359,-0.1386719
2326,-0.0625,9.375,16.8125,0.140625,1.240234,0.2021484,0.06152344,-0.3818359,-0.1357422
2330,-1.9375,-4.375,20.25,0.1171875,1.225098,0.1865234,0.05957031,-0.3818359,-0.1357422
2334,-3.75,-15.875,24.375,0.1870117,1.283203,0.1479492,0.05566406,-0.3818359,-0.137207
2338,-6.625,-20.75,39.5625,0.3305664,1.302734,0.08251953,0.05322266,-0.3842773,-0.1386719
2342,-7.5625,-16.5625,58.6875,0.4194336,1.306641,0.02490234,0.04882813,-0.3833008,-0.137207
2346,-11.5,-6.6875,79.125,0.4775391,1.345215,-0.001464844,0.04248047,-0.3833008,-0.1386719
2350,-17.6875,5.8125,96.375,0.4077148,1.461914,-0.005371094,0.03662109,-0.3833008,-0.1386719
2354,-34.5,9.625,106.6875,0.3032227,1.481445,0.01367188,0.02832031,-0.3842773,-0.144043
2358,-34.1875,4.875,120.8125,0.3188477,1.411133,-0.001464844,0.01660156,-0.3842773,-0.1455078
2363,-30.375,5.625,137.4375,0.4077148,1.442383,-0.04003906,0.009277344,-0.3833008,-0.1469727
2367,-27.375,13.5625,158.5625,0.4428711,1.49707,-0.02832031,-0.005859375,-0.3803711,-0.1508789
2371,-31.5625,23,176.25,0.4233398,1.523926,-0.02441406,-0.02001953,-0.3793945,-0.1523438
2375,-34.25,26.5,190.5,0.3417969,1.489258,-0.02832031,-0.03076172,-0.3769531,-0.1538086
2379,-30.5625,28.0625,198.625,0.3339844,1.446289,-0.01660156,-0.04980469,-0.371582,-0.1577148
2383,-32.75,33.0625,201.1875,0.3496094,1.562988,0.01367188,-0.06494141,-0.3666992,-0.1591797
2387,-37.9375,35.6875,209.5,0.3339844,1.504395,0.04785156,-0.078125,-0.3618164,-0.1630859
2391,-36.4375,32,222,0.2797852,1.512207,0.06347656,-0.09375,-0.3554688,-0.1630859
2395,-30.8125,24.3125,237.625,0.3378906,1.458008,0.06347656,-0.112793,-0.3442383,-0.168457
2399,-25.8125,25.375,246.625,0.3959961,1.52002,0.06738281,-0.1259766,-0.3378906,-0.1713867
2403,-26.875,25.1875,254.9375,0.4155273,1.555176,0.07519531,-0.1450195,-0.3242188,-0.1738281
2407,-28.8125,32.1875,259.3125,0.4892578,1.566895,0.08251953,-0.1650391,-0.3095703,-0.175293
2411,-34.8125,36.9375,265.5,0.4389648,1.55127,0.1132813,-0.1757813,-0.2983398,-0.1796875
2415,-28.8125,27.0625,281.8125,0.3959961,1.333496,0.125,-0.1938477,-0.2832031,-0.1821289
2419,-11.5625,16.75,302.625,0.5708008,1.337402,0.1367188,-0.2114258,-0.2607422,-0.1865234
2423,-14.875,30.9375,310.6875,0.7451172,1.399902,0.1289063,-0.2236328,-0.2456055,-0.1889648
2427,-39.25,60.1875,297.875,0.7099609,1.399902,0.1289063,-0.237793,-0.2231445,-0.1904297
2431,-53.25,70.375,292.0625,0.5668945,1.053711,0.07519531,-0.2495117,-0.1982422,-0.1987305
2435,-39.3125,55.5,290.75,0.4541016,0.8828125,0.105957,-0.2519531,-0.1791992,-0.2011719
2439,-31.1875,36.5,299.125,0.5395508,0.855957,0.1479492,-0.2602539,-0.1518555,-0.206543
2443,-35.0625,36.875,294.3125,0.6982422,0.8828125,0.159668,-0.2675781,-0.1254883,-0.2109375
2447,-43.375,56.5,296.125,0.8339844,0.7856445,0.1367188,-0.2700195,-0.1083984,-0.2133789
2451,-52.375,75.0625,289.6875,0.7836914,0.7739258,0.1210938,-0.2709961,-0.07958984,-0.2202148
2455,-63.6875,91.5625,282.875,0.7060547,0.6420898,0.1098633,-0.2685547,-0.05322266,-0.2255859
2459,-73.1875,105.5625,276.25,0.644043,0.5449219,0.09423828,-0.2651367,-0.03466797,-0.2299805
2463,-79.3125,106.25,270.4375,0.3496094,0.3662109,0.1210938,-0.2543945,-0.008300781,-0.2392578
2467,-61.0625,67.6875,281.25,0.140625,0.1137695,0.1635742,-0.2436523,0.02001953,-0.2460938
2471,-56.4375,43.25,267.25,0.2451172,0.1679688,0.1635742,-0.2387695,0.03759766,-0.2475586
2475,-62,53,247.25,0.3886719,0.05908203,0.125,-0.2294922,0.05859375,-0.2490234
2479,-66.5625,72.6875,226.25,0.4155273,0.05908203,0.09814453,-0.2172852,0.08007813,-0.2514648
2483,-70.6875,92.4375,210.5,0.3378906,-0.07617188,0.08251953,-0.206543,0.09375,-0.2514648
2487,-71.625,96.4375,193.1875,0.1484375,-0.08398438,0.1328125,-0.1914063,0.1123047,-0.2558594
2492,-69.0625,81.9375,184.5,-0.01416016,-0.3325195,0.159668,-0.1748047,0.1289063,-0.2583008
2496,-63.4375,61.625,168.5,-0.1381836,-0.6044922,0.09033203,-0.1625977,0.1362305,-0.2568359
2500,-46.4375,38.5625,149.4375,-0.2231445,-0.5927734,0.125,-0.1518555,0.1474609,-0.2583008
2504,-38,23.8125,128.75,-0.1767578,-0.6938477,0.09423828,-0.1425781,0.1601563,-0.2568359
2508,-32.375,28.5,99.5,-0.1147461,-0.7910156,0.04785156,-0.1352539,0.1650391,-0.2568359
2512,-30.3125,46.5625,64.3125,-0.1303711,-0.8613281,0.05175781,-0.1269531,0.1699219,-0.2543945
2516,-28.5,61.625,32.125,-0.2080078,-0.9350586,0.05566406,-0.1220703,0.1748047,-0.2558594
2520,-17.875,56.1875,8.125,-0.3164063,-1.016602,0.1098633,-0.1162109,0.1762695,-0.2558594
2524,-1.875,33.9375,-9.8125,-0.3549805,-1.008789,0.1865234,-0.1113281,0.1748047,-0.2558594
2528,12.4375,1.8125,-27.625,-0.28125,-0.9350586,0.2905273,-0.1113281,0.1748047,-0.2568359
2532,20.5,-26.125,-41.875,-0.01806641,-0.8183594,0.340332,-0.112793,0.1738281,-0.2597656
2536,20.4375,-36.8125,-56.125,0.2412109,-0.6860352,0.3828125,-0.1176758,0.1713867,-0.2583008
2540,13.4375,-34.625,-67.75,0.4892578,-0.6162109,0.4057617,-0.1245117,0.1689453,-0.2583008
2544,10.3125,-26.4375,-66.8125,0.644043,-0.6123047,0.4018555,-0.1303711,0.1689453,-0.2583008
2548,10.625,-20,-59.875,0.7177734,-0.6201172,0.3945313,-0.1352539,0.1625977,-0.2597656
2552,12.5625,-14.75,-53,0.7060547,-0.6044922,0.4057617,-0.1391602,0.1601563,-0.2568359
2556,11.4375,-10.5,-50.4375,0.659668,-0.6396484,0.3789063,-0.1425781,0.1577148,-0.2583008
2560,11.1875,-7.875,-52.3125,0.59375,-0.6240234,0.3671875,-0.1474609,0.1523438,-0.2583008
2564,9.9375,-8.5,-55.875,0.4970703,-0.6669922,0.340332,-0.1494141,0.1499023,-0.2568359
2568,15.875,-14.8125,-61.125,0.3769531,-0.6938477,0.3481445,-0.1518555,0.1489258,-0.2568359
2572,18.9375,-24.6875,-68.375,0.2993164,-0.6435547,0.3291016,-0.1582031,0.1435547,-0.2583008
2576,25.5625,-37.4375,-75.3125,0.2724609,-0.7016602,0.3251953,-0.1640625,0.1401367,-0.2558594
2580,31.4375,-44.8125,-83.9375,0.3032227,-0.581543,0.3017578,-0.1699219,0.1347656,-0.2568359
2584,27.625,-39.0625,-100.875,0.3574219,-0.5307617,0.2709961,-0.1757813,0.125,-0.2568359
2588,21.6875,-28.0625,-124.625,0.3266602,-0.4804688,0.2558594,-0.184082,0.1186523,-0.2558594
2592,20.5,-23.9375,-141,0.2758789,-0.503418,0.2597656,-0.1899414,0.1137695,-0.2558594
2596,26.0625,-34.125,-152.8125,0.2026367,-0.4296875,0.2519531,-0.1982422,0.1025391,-0.2558594
2600,34.3125,-54.0625,-161.875,0.190918,-0.4140625,0.2827148,-0.2080078,0.09130859,-0.2529297
2604,47,-82.9375,-164.1875,0.2646484,-0.3134766,0.2675781,-0.2138672,0.08105469,-0.2490234
2608,55.25,-90.5,-161.9375,0.5317383,-0.2202148,0.1982422,-0.2270508,0.06738281,-0.2475586
2612,44.625,-64.6875,-181.875,0.7255859,0.04736328,0.1865234,-0.2387695,0.04980469,-0.2407227
2616,19.75,-29.0625,-204.75,0.659668,0.03222656,0.1674805,-0.2446289,0.04248047,-0.2407227
2621,28,-35.25,-210.0625,0.3535156,-0.1308594,0.2250977,-0.2509766,0.02246094,-0.237793
2625,53.25,-83,-198.8125,0.2529297,-0.09179688,0.2172852,-0.2578125,0.00390625,-0.2353516
2629,81.25,-125.6875,-181.5625,0.4853516,0.0009765625,0.125,-0.2626953,-0.01074219,-0.230957
2633,104.8125,-123.75,-146.8125,0.9619141,-0.01806641,0.144043,-0.2724609,-0.03076172,-0.2177734
2637,117.8125,-81.625,-123.6875,1.05127,0.3081055,-0.04394531,-0.2783203,-0.04833984,-0.2119141
2641,86.125,-47.0625,-157.125,0.6328125,0.7509766,0.1098633,-0.2792969,-0.05957031,-0.2055664
2645,47.6875,-83.5,-185.125,0.1328125,0.3232422,0.06738281,-0.2817383,-0.078125,-0.2011719
2649,109.875,-181,-147.1875,0.2568359,0.121582,0.01367188,-0.2851563,-0.09960938,-0.1918945
2653,152.4375,-225.375,-94.6875,1.182617,0.6923828,-0.1630859,-0.2900391,-0.109375,-0.175293
2657,120.6875,-147.1875,-78.1875,1.96582,1.197754,-0.1977539,-0.2998047,-0.1245117,-0.15625
2661,28.125,5.6875,-134.9375,1.907715,1.372559,-0.1166992,-0.3007813,-0.1357422,-0.1425781
2665,-59.6875,119.75,-214.9375,1.055176,0.7856445,-0.112793,-0.2958984,-0.1469727,-0.1484375
2669,-34.0625,80.3125,-228.3125,0.03173828,0.1757813,-0.01318359,-0.2841797,-0.1655273,-0.1606445
2673,26.1875,-36.0625,-208.1875,-0.1728516,0.4321289,0.04443359,-0.2744141,-0.1831055,-0.1630859
2677,38.5,-114.75,-205.75,0.3730469,0.9643555,0.04052734,-0.2709961,-0.1967773,-0.1577148
2681,25.4375,-118.75,-207.6875,0.9389648,1.077148,-0.01660156,-0.2636719,-0.2143555,-0.1494141
2685,6.8125,-72.875,-214.9375,1.085938,1.124023,-0.04003906,-0.2602539,-0.234375,-0.137207
2689,-13.8125,-34.75,-231,0.690918,0.9799805,-0.07080078,-0.2519531,-0.2441406,-0.1357422
2693,-4.6875,-54.5,-242.375,0.3652344,0.9604492,-0.109375,-0.2387695,-0.2641602,-0.1347656
2697,0.3125,-86.75,-246.625,0.3847656,1.186035,-0.1166992,-0.2270508,-0.2832031,-0.1279297
2701,0.25,-111.375,-250.375,0.6054688,1.337402,-0.1708984,-0.2172852,-0.2944336,-0.1264648
2705,-6.125,-102.6875,-238.25,0.9272461,1.39209,-0.2207031,-0.2006836,-0.3129883,-0.1166992
2709,-14.4375,-64.3125,-226.5,1.066406,1.341309,-0.2514648,-0.1865234,-0.3266602,-0.1157227
2713,-15.6875,-11.8125,-215.1875,0.9541016,1.240234,-0.2324219,-0.1757813,-0.3354492,-0.112793
2717,-14.25,18.5625,-206.875,0.6791992,1.13916,-0.2167969,-0.1542969,-0.3457031,-0.112793
2721,-2.25,19.4375,-211.625,0.3378906,1.17041,-0.1782227,-0.1352539,-0.3554688,-0.1166992
2725,9.4375,-5.4375,-212.25,0.2954102,1.236328,-0.1552734,-0.1235352,-0.3632813,-0.1181641
2729,16.5,-16.5,-211.625,0.4350586,1.345215,-0.1669922,-0.1030273,-0.3706055,-0.1166992
2733,12.6875,-7.5,-206.8125,0.5820313,1.395996,-0.1938477,-0.08398438,-0.3779297,-0.112793
2737,8.25,17.25,-197.875,0.6674805,1.32959,-0.2363281,-0.07226563,-0.3833008,-0.1166992
2741,9.5625,46.625,-183.4375,0.59375,1.251953,-0.2514648,-0.05078125,-0.3881836,-0.1142578
2745,16.875,66.125,-169.9375,0.4467773,1.182129,-0.2285156,-0.03173828,-0.390625,-0.1142578
2750,26.0625,68.5,-160.5625,0.2177734,1.251953,-0.1323242,-0.01855469,-0.3916016,-0.1142578
2754,27.0625,54.25,-156.4375,0.1015625,1.36084,-0.03613281,-0.001953125,-0.3945313,-0.112793
2758,23.9375,33.9375,-150.9375,0.08642578,1.426758,0.05175781,0.01269531,-0.3945313,-0.1113281
2762,18.375,6.1875,-127.375,0.140625,1.504395,0.04443359,0.02490234,-0.3955078,-0.1098633
2766,12.8125,-9.5,-87.25,0.3925781,1.454102,0.02880859,0.03662109,-0.3930664,-0.1088867
2770,9.875,-7.125,-47,0.5668945,1.438477,0.005859375,0.04492188,-0.3930664,-0.1088867
2774,4.75,5.0625,-12.5625,0.5708008,1.39209,0.04052734,0.04492188,-0.3930664,-0.1088867
2778,0.5625,11.5,15.625,0.4658203,1.384277,0.08251953,0.04736328,-0.3916016,-0.105957
2782,-7.0625,11.875,29.125,0.3691406,1.39209,0.1289063,0.04394531,-0.3930664,-0.1074219
2786,-16.9375,7,41.75,0.2993164,1.395996,0.140625,0.04394531,-0.3930664,-0.1074219
2790,-25.6875,-4.375,58.25,0.2529297,1.415039,0.1132813,0.03808594,-0.3930664,-0.1074219
2794,-30.4375,-13.5625,76.3125,0.3188477,1.321777,0.05175781,0.03076172,-0.3930664,-0.1113281
2798,-28.9375,-16.5625,94.3125,0.3535156,1.287109,-0.009277344,0.02490234,-0.3930664,-0.1113281
2802,-23.8125,-16.0625,109.625,0.3886719,1.255859,-0.05517578,0.01416016,-0.3916016,-0.1157227
2806,-18.6875,-12.6875,123.4375,0.3886719,1.244141,-0.08984375,0.003417969,-0.3916016,-0.1166992
2810,-12.75,-10.9375,132.125,0.3496094,1.259766,-0.1015625,-0.005859375,-0.3916016,-0.1196289
2814,-3.6875,-20.4375,140.625,0.2724609,1.271484,-0.1401367,-0.01757813,-0.3916016,-0.1181641
2818,9.375,-32.8125,153.1875,0.3227539,1.271484,-0.1513672,-0.03417969,-0.3891602,-0.1181641
2822,19.625,-39.75,166.8125,0.3959961,1.353027,-0.1860352,-0.04589844,-0.3881836,-0.1166992
2826,25.75,-41.4375,178.75,0.4931641,1.430664,-0.2089844,-0.06396484,-0.3842773,-0.1157227
2830,30.375,-39.625,188.875,0.5820313,1.566895,-0.2207031,-0.08300781,-0.3818359,-0.1098633
2834,22.25,-32.625,201.6875,0.6791992,1.710449,-0.2592773,-0.09375,-0.3769531,-0.1044922
2838,15.1875,-15.5625,213.625,0.7602539,1.702637,-0.2900391,-0.1162109,-0.3706055,-0.1020508
2842,12.0625,-1.3125,230.125,0.7373047,1.745605,-0.3012695,-0.1367188,-0.3603516,-0.1020508
2846,10.4375,4.6875,246,0.7021484,1.765137,-0.3051758,-0.1508789,-0.3544922,-0.1020508
2850,13.4375,7.5625,260.375,0.7602539,1.749512,-0.3051758,-0.1723633,-0.3393555,-0.09765625
2854,8.1875,25.125,270.8125,0.8613281,1.819336,-0.2861328,-0.1923828,-0.3242188,-0.09912109
2858,-8.125,51,280.4375,0.8999023,1.772461,-0.2861328,-0.2080078,-0.3105469,-0.09765625
2862,-15.625,79.9375,295.1875,0.8959961,1.597656,-0.2705078,-0.2255859,-0.2895508,-0.1044922
2866,-30.75,117.1875,303.9375,0.8842773,1.632813,-0.2592773,-0.2446289,-0.2680664,-0.1113281
2870,-61.6875,157.375,308.0625,0.7641602,1.597656,-0.2475586,-0.253418,-0.2504883,-0.1196289
2874,-96.6875,193.6875,304.25,0.625,1.539551,-0.2397461,-0.2651367,-0.2246094,-0.1386719
2879,-129.5625,221.875,292.75,0.4077148,1.349121,-0.2397461,-0.2709961,-0.1933594,-0.1577148
2883,-130.625,207.75,296.9375,0.1791992,0.9296875,-0.2089844,-0.2724609,-0.1733398,-0.175293
2887,-108,176.375,307.6875,0.03564453,0.6884766,-0.1821289,-0.2709961,-0.1420898,-0.1987305
2891,-81.9375,141.125,308.6875,0.06689453,0.6069336,-0.112793,-0.2709961,-0.1108398,-0.2119141
2895,-72,111.375,290.25,0.1132813,0.6342773,-0.05517578,-0.2685547,-0.08935547,-0.21875
2899,-82.75,100.75,260,0.2490234,0.5761719,-0.03222656,-0.2636719,-0.05957031,-0.2299805
2903,-86.5,97.5625,242.375,0.3188477,0.3974609,0.001953125,-0.2592773,-0.03564453,-0.2392578
2907,-83.875,93.4375,235.125,0.3110352,0.3081055,0.03662109,-0.2553711,-0.01708984,-0.2421875
2911,-76.8125,77.1875,237.4375,0.2373047,0.2265625,0.1210938,-0.2460938,0.00390625,-0.2490234
2915,-68.3125,62.0625,242.3125,0.3266602,0.105957,0.140625,-0.2363281,0.02880859,-0.25
2919,-52.3125,47,243.75,0.2412109,-0.06445313,0.1367188,-0.2304688,0.04248047,-0.2558594
2923,-41.5,28.625,230,0.2255859,0.02441406,0.2329102,-0.2211914,0.06640625,-0.2543945
2927,-48.1875,21,208.125,0.3574219,-0.03369141,0.2636719,-0.2089844,0.08251953,-0.2543945
2931,-48.5625,22.6875,197.125,0.3959961,-0.1113281,0.2944336,-0.203125,0.09375,-0.2558594
2935,-45,15.75,199.25,0.4389648,-0.07226563,0.3330078,-0.1948242,0.1098633,-0.2543945
2939,-47,12.875,210.9375,0.5317383,-0.1928711,0.3520508,-0.184082,0.1264648,-0.2529297
2943,-41,18.4375,215.75,0.4892578,-0.1308594,0.4174805,-0.1748047,0.1362305,-0.2514648
2947,-62.5,31.5625,205.1875,0.3886719,-0.1113281,0.409668,-0.1616211,0.1513672,-0.2514648
2951,-95.875,58.125,174.3125,0.2490234,-0.2626953,0.2558594,-0.1474609,0.1650391,-0.2490234
2955,-120.125,87.875,129.75,0.07470703,-0.2822266,0.04443359,-0.1367188,0.1738281,-0.2475586
2959,-114.125,110.375,116.3125,-0.2080078,-0.8881836,-0.128418,-0.1201172,0.1875,-0.2421875
2963,-101.3125,118.9375,94.5,-0.5683594,-1.183594,-0.2822266,-0.1069336,0.1987305,-0.237793
2967,-76.5625,112.25,52.5,-0.8857422,-1.389648,-0.4248047,-0.09472656,0.2050781,-0.2338867
2971,-44.1875,78.3125,-1.3125,-1.013672,-1.548828,-0.4248047,-0.08789063,0.2099609,-0.2338867
2975,5.8125,24.5,-44.125,-0.9052734,-1.479004,-0.2016602,-0.08300781,0.2114258,-0.2285156
2979,45.125,-30.1875,-68.75,-0.5527344,-1.117676,0.02099609,-0.08886719,0.2114258,-0.2338867
2983,66,-70.1875,-80.8125,-0.1650391,-0.8222656,0.2709961,-0.09619141,0.2050781,-0.2368164
2987,72.25,-93.5625,-82.375,0.2724609,-0.5966797,0.4599609,-0.1054688,0.1987305,-0.2392578
2991,64.875,-99.25,-74,0.6015625,-0.46875,0.4907227,-0.1152344,0.1923828,-0.2421875
2995,52.8125,-84.375,-65.6875,0.8613281,-0.4882813,0.5058594,-0.1259766,0.1850586,-0.2421875
2999,40.375,-56.5,-62.25,0.9697266,-0.4882813,0.4790039,-0.1367188,0.1801758,-0.2421875
3003,24.875,-27.1875,-61,0.9892578,-0.5229492,0.4633789,-0.1401367,0.1772461,-0.2421875
3008,17.0625,-5.75,-56.25,0.9077148,-0.581543,0.4599609,-0.1450195,0.1738281,-0.2407227
3012,11.875,6.3125,-50.3125,0.8149414,-0.6005859,0.4711914,-0.1494141,0.1699219,-0.2436523
3016,7.5625,11.8125,-47.3125,0.7099609,-0.6240234,0.4711914,-0.1533203,0.1674805,-0.2436523
3020,4.1875,10.75,-44.25,0.5976563,-0.6591797,0.4560547,-0.1542969,0.1650391,-0.2460938
3024,3.6875,6.75,-46.625,0.5009766,-0.6748047,0.4365234,-0.1557617,0.1611328,-0.2446289
3028,3.3125,0.8125,-52.3125,0.4233398,-0.7055664,0.3979492,-0.1591797,0.1601563,-0.2446289
3032,6.4375,-8.3125,-57.5,0.3574219,-0.7250977,0.3330078,-0.1601563,0.15625,-0.2460938
3036,10.75,-17.5,-69.375,0.3188477,-0.7094727,0.2827148,-0.1650391,0.1523438,-0.2460938
3040,15.75,-26.6875,-80.125,0.3188477,-0.7211914,0.2441406,-0.1665039,0.1513672,-0.2446289
3044,23.5625,-32.375,-90,0.3266602,-0.6357422,0.2597656,-0.1748047,0.1450195,-0.2460938
3048,22.25,-36.4375,-98.875,0.3613281,-0.5385742,0.2675781,-0.1831055,0.1362305,-0.2436523
3052,18.625,-33,-114.0625,0.3808594,-0.5307617,0.2290039,-0.1875,0.1313477,-0.2446289
3056,17.6875,-28.375,-127.125,0.3730469,-0.534668,0.1674805,-0.1962891,0.1235352,-0.2421875
3060,21.625,-21.6875,-142.0625,0.3691406,-0.5541992,0.1748047,-0.203125,0.1152344,-0.2421875
3064,31.5625,-24.6875,-154.0625,0.3417969,-0.4414063,0.1865234,-0.2104492,0.1074219,-0.2421875
3068,38.1875,-33.5625,-162.1875,0.3188477,-0.3950195,0.2441406,-0.21875,0.09521484,-0.2407227
3072,53.3125,-62.1875,-168.3125,0.2646484,-0.2626953,0.2788086,-0.2280273,0.08007813,-0.2392578
3076,58.1875,-83.5,-169.0625,0.4658203,-0.1811523,0.2558594,-0.2353516,0.06982422,-0.237793
3080,55.9375,-74.0625,-175.5,0.6518555,-0.06445313,0.1787109,-0.2460938,0.05126953,-0.2338867
3084,41.875,-41.375,-183.3125,0.7641602,-0.01416016,0.1289063,-0.253418,0.03515625,-0.2285156
3088,33.25,-19.8125,-206.1875,0.6210938,0.1445313,0.2133789,-0.2578125,0.02246094,-0.2285156
3092,23.1875,-22,-215.5,0.4970703,0.1020508,0.2558594,-0.2617188,0.00390625,-0.2270508
3096,46.5625,-69.375,-215.125,0.3378906,0.1679688,0.2905273,-0.2675781,-0.015625,-0.2246094
3100,62,-113.3125,-202.1875,0.6557617,0.2768555,0.2060547,-0.2724609,-0.03173828,-0.2202148
3104,68.75,-110.6875,-190.1875,0.9736328,0.3193359,0.06738281,-0.2783203,-0.05175781,-0.2094727
3108,63.5,-75.625,-170,1.147949,0.3310547,0.03271484,-0.2841797,-0.06933594,-0.2011719
3112,45.25,-23.625,-181.3125,1.151855,0.7509766,0.1098633,-0.2841797,-0.08544922,-0.1972656
3116,-12.625,17.75,-223.0625,1.039551,0.9414063,0.1904297,-0.2817383,-0.1030273,-0.1987305
3120,-39.5,41.25,-223.5625,1.074219,0.7001953,0.1826172,-0.2758789,-0.1206055,-0.1972656
3124,-39.3125,63.125,-202.25,1.085938,0.5449219,0.1367188,-0.2724609,-0.1318359,-0.2026367
3128,-34.75,93.25,-183.0625,1.078125,0.4399414,0.07519531,-0.2602539,-0.1469727,-0.2109375
3132,-30.875,129.9375,-177.875,0.9233398,0.4516602,0.04785156,-0.2495117,-0.1591797,-0.21875
3137,-30.25,152.1875,-197.1875,0.5708008,0.4790039,0.08642578,-0.2387695,-0.1679688,-0.2270508
3141,-3.875,111.5,-207.6875,0.1367188,0.5566406,0.2172852,-0.2236328,-0.1806641,-0.2407227
3145,33.75,45.25,-204,0.2104492,0.6845703,0.340332,-0.2089844,-0.1992188,-0.2460938
3149,55.125,2.5,-197.5625,0.4233398,0.8828125,0.3364258,-0.199707,-0.2080078,-0.2460938
3153,57.75,-1.4375,-188.75,0.6557617,0.9453125,0.3134766,-0.1914063,-0.2246094,-0.2421875
3157,49.8125,14.3125,-181,0.6982422,0.9257813,0.2519531,-0.1816406,-0.2382813,-0.2421875
3161,34.0625,53.6875,-185,0.6982422,0.972168,0.2172852,-0.1723633,-0.2470703,-0.2392578
3165,15.25,88.375,-205.6875,0.4853516,0.956543,0.2480469,-0.1582031,-0.2583008,-0.2421875
3169,31.1875,71.3125,-220.5625,0.008789063,0.809082,0.3056641,-0.1391602,-0.2705078,-0.2460938
3173,69.3125,14.5625,-207.5,-0.03320313,0.9023438,0.3251953,-0.1245117,-0.2792969,-0.2436523
3177,93.375,-18.9375,-187.1875,0.190918,1.019043,0.2944336,-0.1113281,-0.2954102,-0.2392578
3181,100.0625,-17.9375,-173.25,0.3613281,1.104492,0.2636719,-0.09960938,-0.3066406,-0.2299805
3185,87.9375,4.3125,-172.8125,0.3535156,1.306641,0.2519531,-0.09033203,-0.3154297,-0.2270508
3189,56.25,35.625,-187,0.2758789,1.302734,0.2558594,-0.07714844,-0.3242188,-0.2202148
3193,44.4375,48.5,-198.625,-0.01806641,1.04248,0.2329102,-0.05908203,-0.3344727,-0.21875
3197,64.875,29.9375,-200.25,-0.3393555,0.9604492,0.2094727,-0.04589844,-0.3369141,-0.2163086
3201,96.1875,-19.25,-194.5,-0.4750977,1.124023,0.2402344,-0.02832031,-0.3457031,-0.2109375
3205,113.5625,-56.375,-187.6875,-0.2583008,1.32959,0.2368164,-0.01269531,-0.3530273,-0.2011719
3209,110.3125,-66.5625,-182,-0.06445313,1.52002,0.2133789,-0.005859375,-0.359375,-0.1943359
3213,92.125,-54.0625,-174.5625,0.1171875,1.605469,0.1635742,0.008300781,-0.3642578,-0.1835938
3217,65.8125,-28.125,-169.9375,0.175293,1.628906,0.144043,0.02246094,-0.3681641,-0.1782227
3221,41.375,-1.8125,-162.6875,0.1831055,1.516113,0.1171875,0.03173828,-0.3681641,-0.1767578
3225,34.9375,18.625,-155.9375,0.07080078,1.356934,0.07519531,0.04736328,-0.3706055,-0.1738281
3229,39.25,22.8125,-147.125,-0.08398438,1.287109,0.07519531,0.06298828,-0.3666992,-0.168457
3233,45.1875,14.6875,-143.25,-0.1459961,1.325684,0.1328125,0.07128906,-0.3657227,-0.1660156
3237,46.5,-3.9375,-141,-0.1069336,1.380371,0.1479492,0.08544922,-0.3642578,-0.1616211
3241,39.4375,-11,-131.5,0.06689453,1.422852,0.1171875,0.09521484,-0.3632813,-0.1591797
3245,36.4375,-17.8125,-114.1875,0.1791992,1.446289,0.08251953,0.1044922,-0.3618164,-0.1591797
3249,27.25,-14.3125,-82.3125,0.3496094,1.469727,0.07519531,0.112793,-0.359375,-0.15625
3253,20.875,-8.25,-46.625,0.3730469,1.473633,0.07910156,0.1201172,-0.359375,-0.1523438
3257,15.3125,-8,-16.3125,0.3417969,1.473633,0.1328125,0.1225586,-0.359375,-0.1538086
3261,16.4375,-15.875,14.1875,0.3032227,1.426758,0.1748047,0.1210938,-0.3603516,-0.1538086
3266,12.5625,-15.875,41.8125,0.3613281,1.485352,0.2250977,0.1186523,-0.3618164,-0.1494141
3270,-0.5625,-8.375,64.375,0.3227539,1.539551,0.2402344,0.1142578,-0.3603516,-0.1508789
3274,-15.1875,-1.0625,87.25,0.2607422,1.523926,0.2480469,0.1069336,-0.3642578,-0.1523438
3278,-25.1875,2.3125,106.0625,0.190918,1.49707,0.2519531,0.09863281,-0.3666992,-0.1547852
3282,-30.375,-1.4375,123.625,0.1132813,1.438477,0.2290039,0.09375,-0.3666992,-0.1538086
3286,-27.8125,-8.625,140.125,0.09375,1.469727,0.2060547,0.08056641,-0.3681641,-0.1577148
3290,-32.8125,-10.375,155.375,0.1328125,1.52002,0.1826172,0.06787109,-0.371582,-0.1606445
3294,-37,-10.125,165.3125,0.1484375,1.527832,0.1518555,0.05712891,-0.371582,-0.1606445
3298,-40.375,-7.5,177.375,0.1289063,1.601563,0.1289063,0.04150391,-0.3730469,-0.1645508
3302,-43.5,-14.875,192.8125,0.02441406,1.640625,0.1865234,0.0234375,-0.3706055,-0.1674805
3306,-44.3125,-38.1875,211.8125,-0.08789063,1.640625,0.2094727,0.01074219,-0.371582,-0.1713867
3310,-30.8125,-63.1875,221.5625,0.02441406,1.49707,0.1674805,-0.01171875,-0.3691406,-0.1713867
3314,-12.625,-64.1875,214.5,0.1484375,1.555176,0.1020508,-0.03515625,-0.3657227,-0.1738281
3318,-11.1875,-51.625,212.25,0.3378906,1.718262,0.105957,-0.05078125,-0.3642578,-0.1738281
3322,-17.75,-28.625,226.5,0.3925781,1.858398,0.06347656,-0.07226563,-0.3569336,-0.1738281
3326,-31.25,-11.375,253.6875,0.4389648,1.84668,0.001953125,-0.09472656,-0.3505859,-0.1767578
3330,-32.75,5.125,284.375,0.3959961,1.741699,-0.01318359,-0.109375,-0.3432617,-0.1796875
3334,-25.75,10.3125,306.25,0.3110352,1.687012,0.02099609,-0.1342773,-0.3305664,-0.1806641
3338,-18.8125,5.4375,320.9375,0.2490234,1.632813,0.05566406,-0.1591797,-0.3105469,-0.1806641
3342,-13.0625,-1.625,329.1875,0.3378906,1.562988,0.07519531,-0.1748047,-0.2993164,-0.1821289
3346,-12.375,6.375,334.625,0.4736328,1.535645,0.05566406,-0.1972656,-0.2792969,-0.1806641
3350,-19.3125,26.1875,345.6875,0.6015625,1.516113,0.03271484,-0.2172852,-0.2529297,-0.1835938
3354,-40.3125,56.9375,350.125,0.6171875,1.504395,0.02490234,-0.2270508,-0.2368164,-0.1850586
3358,-63.6875,91,351.25,0.5551758,1.349121,0.005859375,-0.2436523,-0.2070313,-0.1918945
3362,-80.6875,113.125,348.875,0.3886719,1.20166,-0.001464844,-0.253418,-0.1791992,-0.2041016
3366,-96,121.9375,343.75,0.2026367,1.007324,0.02880859,-0.2568359,-0.1557617,-0.2119141
3370,-101.125,124.5625,331,0.1557617,0.7353516,0.04785156,-0.2592773,-0.1220703,-0.2231445
3374,-102.6875,128.1875,316.25,0.1289063,0.5527344,0.06347656,-0.2568359,-0.08935547,-0.2353516
3378,-104.375,129.4375,293.125,0.05517578,0.4086914,0.09814453,-0.2543945,-0.06689453,-0.2421875
3382,-101.8125,108.25,266.9375,0.0009765625,0.3583984,0.1674805,-0.2470703,-0.03808594,-0.2529297
3386,-96.6875,80.875,251.5625,0.07861328,0.203125,0.2133789,-0.2363281,-0.01074219,-0.2612305
3390,-82.8125,60.625,245.1875,0.2255859,0.1137695,0.1982422,-0.2319336,0.006347656,-0.2636719
3395,-68.6875,40,242.625,0.1713867,0.008789063,0.2368164,-0.2246094,0.03125,-0.2651367
3399,-51.25,11.6875,238.75,0.2568359,-0.02978516,0.2675781,-0.215332,0.05126953,-0.2651367
3403,-48.8125,-0.25,222.5,0.3535156,0.02832031,0.3134766,-0.2114258,0.06396484,-0.2626953
3407,-52.375,-4.375,212.875,0.4775391,-0.02197266,0.3017578,-0.203125,0.08251953,-0.2636719
3411,-54.625,9.5625,204.6875,0.6054688,-0.06445313,0.2675781,-0.1962891,0.1000977,-0.2597656
3415,-63.1875,29.6875,190.375,0.5708008,-0.05273438,0.2290039,-0.1875,0.1113281,-0.2597656
3419,-73.1875,41.75,181.6875,0.4658203,-0.1850586,0.1943359,-0.1757813,0.1264648,-0.2568359
3423,-67.5,45.6875,173.5625,0.3457031,-0.3911133,0.2060547,-0.1625977,0.1411133,-0.2558594
3427,-64,49.3125,159.4375,0.2104492,-0.453125,0.2060547,-0.1542969,0.1489258,-0.2558594
3431,-64.9375,52.3125,142.25,0.05517578,-0.6044922,0.1518555,-0.1425781,0.1611328,-0.2543945
3435,-61.4375,56.1875,121.5625,-0.05664063,-0.7753906,0.06347656,-0.1303711,0.1713867,-0.2514648
3439,-52.1875,68.9375,95.9375,-0.1303711,-0.9155273,-0.001464844,-0.1220703,0.1762695,-0.2514648
3443,-43.5,84,68.3125,-0.2348633,-0.9658203,-0.03613281,-0.112793,0.1850586,-0.2514648
3447,-33.375,94.25,35.5625,-0.3823242,-1.08252,-0.05517578,-0.1020508,0.1884766,-0.2514648
3451,-14.625,81.0625,7.1875,-0.5063477,-1.140625,-0.02050781,-0.09472656,0.1914063,-0.2529297
3455,8.375,47.375,-19.125,-0.4985352,-1.098145,0.07910156,-0.09033203,0.1914063,-0.2529297
3459,24.1875,7.25,-42.625,-0.3007813,-0.9038086,0.2211914,-0.09033203,0.1899414,-0.2543945
3463,29.625,-22.1875,-62.0625,0.004882813,-0.7988281,0.3251953,-0.09375,0.1875,-0.2568359
3467,33.625,-36.5,-74.25,0.3188477,-0.6630859,0.4365234,-0.09863281,0.1826172,-0.2583008
3471,30.5,-43.5,-71,0.5512695,-0.565918,0.4829102,-0.1079102,0.1772461,-0.2583008
3475,25.8125,-42.125,-59.875,0.7451172,-0.4960938,0.5249023,-0.1113281,0.1762695,-0.2597656
3479,17.875,-32.625,-49.9375,0.8652344,-0.5463867,0.5136719,-0.1176758,0.1699219,-0.2597656
3483,14.375,-20.9375,-41.6875,0.8691406,-0.534668,0.5136719,-0.1220703,0.1699219,-0.2597656
3487,10.6875,-12.875,-30.75,0.8149414,-0.6318359,0.4672852,-0.1259766,0.1660156,-0.2597656
3491,11.5625,-5.8125,-26,0.6674805,-0.6591797,0.4018555,-0.1293945,0.1635742,-0.2568359
3495,12.8125,-2.8125,-27.5,0.5161133,-0.7368164,0.3598633,-0.1318359,0.1625977,-0.2597656
3499,19.9375,-9.5,-30.4375,0.2568359,-0.8105469,0.3364258,-0.1328125,0.1625977,-0.2583008
3503,29.75,-27,-37.3125,0.109375,-0.8378906,0.2827148,-0.1367188,0.1577148,-0.2612305
3507,36.8125,-37.6875,-56.625,0.04345703,-0.7832031,0.2290039,-0.1401367,0.1547852,-0.2612305
3511,37.75,-42.875,-82.5625,0.02050781,-0.7446289,0.125,-0.1459961,0.1513672,-0.2612305
3515,44.3125,-43.75,-110.75,-0.002441406,-0.7290039,0.1210938,-0.1533203,0.1435547,-0.2612305
3519,52.25,-52.75,-134.4375,-0.01025391,-0.5854492,0.125,-0.1625977,0.1337891,-0.2626953
3524,59.9375,-68.625,-149.5,-0.02978516,-0.5151367,0.1748047,-0.168457,0.1274414,-0.2626953
3528,72.125,-94.5,-158.375,0.01269531,-0.4296875,0.1787109,-0.184082,0.1137695,-0.2597656
3532,80.125,-109.9375,-172.0625,0.1831055,-0.2900391,0.1826172,-0.1982422,0.09863281,-0.2583008
3536,72.6875,-103.75,-195.5625,0.3574219,-0.08789063,0.1748047,-0.2080078,0.08496094,-0.2543945
3540,55.5625,-80.25,-217.4375,0.4931641,0.01269531,0.1826172,-0.222168,0.06640625,-0.2514648
3544,48.5,-69,-238.5,0.4736328,0.1020508,0.2441406,-0.234375,0.04638672,-0.2475586
3548,49.9375,-75.8125,-241.625,0.4541016,0.09814453,0.2636719,-0.2412109,0.03271484,-0.2436523
3552,68.6875,-106.125,-232.8125,0.4467773,0.1992188,0.2709961,-0.2519531,0.01025391,-0.2392578
3556,73.625,-120.875,-220.8125,0.7373047,0.3623047,0.2094727,-0.2626953,-0.01074219,-0.230957
3560,64.75,-93.625,-217.9375,1.008301,0.4633789,0.1865234,-0.2661133,-0.02685547,-0.2246094
3564,41.1875,-33.75,-218,1.155762,0.5175781,0.1171875,-0.2724609,-0.05078125,-0.21875
3568,10.5625,33.0625,-238.5,0.9233398,0.6147461,0.1748047,-0.2724609,-0.07080078,-0.2177734
3572,-3.375,39.3125,-255,0.543457,0.5371094,0.2558594,-0.2685547,-0.08447266,-0.2202148
3576,9.375,6.5625,-261.5625,0.4116211,0.6030273,0.3134766,-0.2626953,-0.1083984,-0.2246094
3580,42.3125,-53.375,-242.875,0.4506836,0.6225586,0.2944336,-0.2568359,-0.1279297,-0.2231445
3584,71.125,-79.5,-211.75,0.8535156,0.7509766,0.2060547,-0.2578125,-0.1445313,-0.2148438
3588,67.625,-49.375,-191,1.128418,0.8945313,0.1479492,-0.2543945,-0.1655273,-0.2109375
3592,39.875,16,-188.5625,1.140137,0.9604492,0.1479492,-0.2495117,-0.1831055,-0.2055664
3596,-3.75,71.75,-215.25,0.6171875,1.015137,0.1674805,-0.2426758,-0.1933594,-0.206543
3600,1.0625,24.625,-243.625,-0.05664063,0.6694336,0.2250977,-0.2280273,-0.2119141,-0.2109375
3604,56.1875,-59.75,-227.5,0.1210938,0.7001953,0.144043,-0.2172852,-0.2280273,-0.2109375
3608,92.25,-100.9375,-216.4375,0.4970703,1.003418,0.09033203,-0.2114258,-0.2416992,-0.2026367
3612,86.75,-87.875,-199.4375,0.8803711,1.189941,0.08642578,-0.203125,-0.2607422,-0.1928711
3616,54.4375,-31.625,-194.3125,1.031738,1.407715,0.1171875,-0.1972656,-0.2783203,-0.1835938
3620,-4.9375,42.875,-211.0625,0.8769531,1.481445,0.144043,-0.1889648,-0.2880859,-0.1821289
3624,-38.3125,80.25,-237.6875,0.3808594,1.084961,0.105957,-0.1674805,-0.2993164,-0.1875
3628,-0.5625,30.4375,-241.8125,-0.1499023,0.890625,0.09814453,-0.1484375,-0.3120117,-0.1928711
3632,57.5,-50.1875,-224.0625,0.0009765625,1.108398,0.1132813,-0.1352539,-0.3208008,-0.1928711
3636,83.6875,-84.0625,-197.125,0.4077148,1.426758,0.105957,-0.1210938,-0.3330078,-0.1835938
3640,67.875,-69.25,-184.8125,0.7138672,1.737793,0.1289063,-0.109375,-0.3457031,-0.1738281
3644,29.4375,-22.8125,-180.125,0.8071289,1.718262,0.144043,-0.1010742,-0.3520508,-0.1713867
3648,3.8125,13.25,-184.4375,0.6015625,1.574707,0.1635742,-0.08398438,-0.3579102,-0.168457
3653,1.1875,20.625,-181.8125,0.4311523,1.380371,0.144043,-0.06396484,-0.3618164,-0.1699219
3657,11.875,1.9375,-161.0625,0.2529297,1.345215,0.1367188,-0.05566406,-0.3642578,-0.1699219
3661,23.625,-22.6875,-127.125,0.3613281,1.287109,0.1171875,-0.04150391,-0.3691406,-0.1699219
3665,27.8125,-18.1875,-101.1875,0.4970703,1.287109,0.07910156,-0.02929688,-0.3730469,-0.1674805
3669,16.3125,5.0625,-84.375,0.5009766,1.248047,0.07128906,-0.0234375,-0.3730469,-0.1660156
3673,2.6875,34.25,-83.5,0.3032227,1.146973,0.09814453,-0.01757813,-0.3745117,-0.1645508
3677,-7.75,48.1875,-90.5625,0.09375,1.022949,0.125,-0.006835938,-0.3745117,-0.1660156
3681,-9.5,42,-100.4375,-0.1572266,0.9335938,0.09423828,0.0009765625,-0.3730469,-0.1645508
3685,-0.6875,24.375,-107.6875,-0.2041016,0.8325195,0.03662109,0.01074219,-0.3745117,-0.1674805
3689,17.5625,7.6875,-115,-0.2080078,0.8789063,-0.009277344,0.0234375,-0.371582,-0.1660156
3693,31.1875,-7.75,-114,-0.1650391,1.04248,-0.005371094,0.03076172,-0.3745117,-0.1660156
3697,32.875,-15,-111.5,-0.06054688,1.205566,-0.01660156,0.04150391,-0.3745117,-0.1606445
3701,28.6875,-13.375,-105.8125,-0.002441406,1.294922,-0.02441406,0.05078125,-0.3745117,-0.1606445
3705,20.5625,-10,-96.375,0.07470703,1.321777,-0.03613281,0.05566406,-0.3730469,-0.1591797
3709,18.25,-3.1875,-81.3125,0.1171875,1.302734,-0.04003906,0.06640625,-0.3730469,-0.15625
3713,15.125,0.8125,-61.625,0.1054688,1.317871,-0.03222656,0.07226563,-0.371582,-0.1547852
3717,13.875,1.625,-40.9375,0.09765625,1.279297,0.009765625,0.07470703,-0.3706055,-0.15625
3721,12.375,1.625,-23.4375,0.09033203,1.298828,0.03271484,0.07958984,-0.371582,-0.1538086
3725,10.4375,-2.9375,-8.5,0.07861328,1.263672,0.07128906,0.08056641,-0.3730469,-0.1547852
3729,10.3125,-6.5,8.3125,0.1171875,1.244141,0.09423828,0.08056641,-0.3730469,-0.1523438
3733,6.875,-4.5625,23.0625,0.159668,1.251953,0.1098633,0.07958984,-0.3730469,-0.1508789
3737,1.125,-1.9375,35.8125,0.1132813,1.248047,0.1328125,0.07470703,-0.3730469,-0.1523438
3741,-2.75,-3.1875,49.25,0.07861328,1.232422,0.1518555,0.07373047,-0.3745117,-0.1508789
3745,-7.125,-5.4375,61.1875,0.06689453,1.232422,0.1674805,0.06884766,-0.3754883,-0.1494141
3749,-11.375,-2.9375,63.0625,0.09375,1.236328,0.1635742,0.06152344,-0.3754883,-0.1523438
3753,-15.0625,-3.25,69.1875,0.05517578,1.251953,0.1826172,0.05810547,-0.3754883,-0.1508789
3757,-17.75,-17.875,80.5,-0.006347656,1.317871,0.2329102,0.05078125,-0.3769531,-0.1547852
3761,-18.5,-34.8125,96,0.1210938,1.345215,0.1826172,0.04248047,-0.3769531,-0.1547852
3765,-17.625,-36.4375,109.625,0.3032227,1.384277,0.05566406,0.03564453,-0.3779297,-0.15625
3769,-17.1875,-23.125,128.9375,0.4272461,1.415039,0.01367188,0.02246094,-0.3769531,-0.1577148
3773,-21.375,-4.625,151.375,0.4194336,1.523926,0.03662109,0.009277344,-0.3769531,-0.1606445
3777,-34,6.9375,164.5625,0.3071289,1.605469,0.05566406,-0.0009765625,-0.3754883,-0.1616211
3782,-41,2.875,177.4375,0.190918,1.559082,0.08642578,-0.01513672,-0.3745117,-0.1630859
3786,-37.0625,-12.5625,192.5,0.2026367,1.52002,0.105957,-0.03417969,-0.3706055,-0.168457
3790,-25.0625,-20.6875,207.125,0.3417969,1.438477,0.09423828,-0.04736328,-0.3666992,-0.1699219
3794,-11.625,-20.8125,227.1875,0.4428711,1.52002,0.1171875,-0.06640625,-0.3632813,-0.1699219
3798,-7.6875,-14.625,249.25,0.527832,1.671875,0.1904297,-0.09228516,-0.3544922,-0.1713867
3802,-11.625,-5.375,265.5,0.5551758,1.694824,0.1865234,-0.1054688,-0.3481445,-0.1699219
3806,-17.4375,7.25,277.1875,0.609375,1.687012,0.2021484,-0.128418,-0.3369141,-0.1728516
3810,-29.6875,28.75,284.75,0.609375,1.644531,0.2329102,-0.1508789,-0.3242188,-0.1713867
3814,-40.1875,41.8125,286.375,0.4658203,1.562988,0.2519531,-0.1640625,-0.3105469,-0.175293
3818,-42.25,40.4375,294.25,0.4580078,1.446289,0.2709961,-0.184082,-0.2929688,-0.1806641
3822,-44.125,45,308,0.5317383,1.380371,0.2211914,-0.203125,-0.2719727,-0.1850586
3826,-56.375,61.5625,312.375,0.5551758,1.317871,0.1865234,-0.2138672,-0.2558594,-0.1889648
3830,-69.3125,84.5625,306,0.527832,1.217285,0.1674805,-0.2270508,-0.2304688,-0.1958008
3834,-86.625,100.8125,293.875,0.3886719,1.124023,0.1479492,-0.237793,-0.2055664,-0.206543
3838,-97.8125,105.3125,278.1875,0.2333984,1.034668,0.1557617,-0.2436523,-0.1845703,-0.2133789
3842,-86.8125,68.125,287.25,0.008789063,0.7158203,0.1635742,-0.2460938,-0.1567383,-0.2255859
3846,-45.875,10.8125,305.125,0.1015625,0.4633789,0.1289063,-0.2519531,-0.1293945,-0.2299805
3850,-9.875,-19.9375,309.5,0.4389648,0.4790039,0.05566406,-0.2568359,-0.1118164,-0.230957
3854,-7.4375,-1.75,294.8125,0.7021484,0.5644531,-0.001464844,-0.2636719,-0.08837891,-0.230957
3858,-24.3125,34.0625,267.75,0.6518555,0.5839844,0.001953125,-0.2636719,-0.06298828,-0.230957
3862,-43.875,48.0625,240.125,0.5048828,0.4985352,0.02099609,-0.2626953,-0.046875,-0.230957
3866,-51.9375,42.4375,225.0625,0.4077148,0.2885742,0.07128906,-0.2592773,-0.02441406,-0.2368164
3870,-36.375,9.3125,233.625,0.3574219,0.06689453,0.05566406,-0.2543945,-0.003417969,-0.2392578
3874,-13.6875,-17.25,239.625,0.5629883,-0.006347656,0.05566406,-0.253418,0.01123047,-0.2368164
3878,-13.4375,1.6875,225.0625,0.8339844,0.1992188,0.07910156,-0.2519531,0.03027344,-0.2353516
3882,-33.9375,44.8125,204,0.7954102,0.105957,0.04785156,-0.2446289,0.04980469,-0.2353516
3886,-46.0625,73.3125,175.1875,0.6054688,-0.08789063,0.08642578,-0.2363281,0.06103516,-0.237793
3890,-49.125,77.4375,154.125,0.3339844,-0.2783203,0.1289063,-0.2270508,0.07617188,-0.2421875
3894,-37.875,55.625,149.3125,0.2451172,-0.355957,0.2749023,-0.21875,0.08984375,-0.2460938
3898,-28.625,32.8125,159.4375,0.1791992,-0.4140625,0.3442383,-0.2104492,0.1000977,-0.2460938
3902,-25.25,30.5625,156.3125,0.159668,-0.5463867,0.340332,-0.2006836,0.1113281,-0.2460938
3906,-28.6875,47,129.5625,0.02441406,-0.5854492,0.3330078,-0.1914063,0.1201172,-0.25
3911,-39.625,65.3125,72.125,-0.2080078,-0.581543,0.355957,-0.184082,0.1264648,-0.2514648
3915,-60.3125,65.5625,25.6875,-0.347168,-0.6396484,0.3291016,-0.1782227,0.1337891,-0.2529297
3919,-52.75,40.9375,6.4375,-0.4208984,-0.8105469,0.2709961,-0.1733398,0.1386719,-0.2514648
3923,-25.875,5.625,-6.25,-0.2890625,-0.8183594,0.2172852,-0.1708984,0.1401367,-0.25
3927,-5.5,-18.125,-22.625,-0.03710938,-0.6748047,0.1328125,-0.1723633,0.1425781,-0.2514648
3931,-2.375,-11.875,-53.3125,0.2758789,-0.5307617,0.07519531,-0.1748047,0.1386719,-0.2490234
3935,-6.0625,12.25,-83.375,0.3808594,-0.4492188,0.01708984,-0.1757813,0.1386719,-0.2490234
3939,-0.25,12.0625,-97.9375,0.2568359,-0.5424805,0.05175781,-0.1816406,0.1337891,-0.2475586
3943,18.75,-12.6875,-105.0625,0.2685547,-0.5,0.1132813,-0.1855469,0.1274414,-0.2490234
3947,28.5,-28.9375,-111.3125,0.4350586,-0.4179688,0.1210938,-0.1923828,0.1210938,-0.25
3951,37.25,-29.1875,-114.4375,0.5473633,-0.453125,0.08642578,-0.1982422,0.1137695,-0.2475586
3955,50.875,-20.3125,-119.5625,0.559082,-0.4375,0.1328125,-0.2055664,0.1025391,-0.2490234
3959,56.4375,-17.75,-127,0.4619141,-0.355957,0.1713867,-0.2089844,0.09521484,-0.2490234
3963,59,-23.75,-141.625,0.3339844,-0.3481445,0.2133789,-0.215332,0.08105469,-0.2529297
3967,60.9375,-37.125,-157.5625,0.2758789,-0.2783203,0.2211914,-0.2236328,0.06738281,-0.25
3971,61.3125,-47.125,-173.5,0.2685547,-0.2084961,0.1865234,-0.2294922,0.05761719,-0.2514648
3975,65.75,-56.125,-184.75,0.3149414,-0.1381836,0.1518555,-0.2353516,0.03759766,-0.2446289
3979,71.5625,-53.5,-191.1875,0.4541016,-0.01806641,0.1171875,-0.2446289,0.02148438,-0.2460938
3983,75.6875,-45.6875,-202.6875,0.5200195,0.04736328,0.105957,-0.2470703,0.007324219,-0.2436523
3987,77.1875,-30.6875,-210,0.5395508,0.1333008,0.08642578,-0.2543945,-0.01464844,-0.2407227
3991,81.5625,-34.5625,-220.9375,0.3652344,0.2265625,0.1289063,-0.2568359,-0.03564453,-0.237793
3995,83.625,-48.25,-225.625,0.4467773,0.2924805,0.1098633,-0.2592773,-0.05175781,-0.237793
3999,94.375,-45.75,-216.375,0.5161133,0.3041992,0.05957031,-0.2602539,-0.07714844,-0.2338867
4003,117.6875,-71.375,-209.9375,0.3886719,0.4125977,0.08642578,-0.2602539,-0.1020508,-0.2270508
4007,126.25,-88.4375,-198.25,0.559082,0.7001953,0.1020508,-0.2617188,-0.1181641,-0.2202148
4011,108.375,-95.9375,-218.625,0.6171875,0.8828125,0.09423828,-0.2626953,-0.1420898,-0.2109375
4015,84.4375,-79.75,-235.8125,0.7641602,0.9995117,0.1171875,-0.2617188,-0.1669922,-0.199707
4019,55.4375,-74.125,-267.8125,0.644043,1.053711,0.1020508,-0.2578125,-0.1831055,-0.1943359
4023,50.1875,-80.8125,-269.1875,0.5551758,0.9140625,0.07519531,-0.2485352,-0.2070313,-0.1850586
4027,71.875,-117.1875,-252.0625,0.5356445,0.9799805,0.03662109,-0.2412109,-0.2294922,-0.1767578
4031,86.4375,-126.625,-231.625,0.8339844,1.131836,-0.07080078,-0.237793,-0.2441406,-0.168457
4035,78.8125,-99.875,-225,0.9658203,1.372559,-0.1015625,-0.2294922,-0.2670898,-0.1547852
4040,35.8125,-43.3125,-246.25,1.031738,1.527832,-0.109375,-0.2163086,-0.2856445,-0.1455078
4044,0.1875,0.625,-270.1875,0.6831055,1.36084,-0.07080078,-0.2055664,-0.2993164,-0.1425781
4048,11,-3.8125,-279.5625,0.3652344,1.12793,-0.02832031,-0.184082,-0.3144531,-0.1455078
4052,41.5625,-58.5625,-263.5625,0.03564453,1.32959,-0.02832031,-0.1640625,-0.3320313,-0.1416016
4056,51.875,-90.3125,-243.1875,0.4892578,1.512207,-0.05517578,-0.1508789,-0.3417969,-0.137207
4060,35.4375,-46.8125,-238.75,0.8496094,1.628906,-0.06689453,-0.1328125,-0.3569336,-0.1303711
4064,0.875,26.9375,-236.0625,0.8032227,1.543457,-0.05126953,-0.1113281,-0.3666992,-0.1279297
4068,-25.9375,94.625,-243.25,0.543457,1.36084,-0.05126953,-0.09228516,-0.3691406,-0.1289063
4072,-26.375,119.5625,-259.3125,-0.1147461,1.158691,-0.06298828,-0.06640625,-0.3793945,-0.1347656
4076,5.125,74.5625,-264.9375,-0.4750977,1.131836,0.04443359,-0.03759766,-0.3803711,-0.1401367
4080,32.5,24.625,-248.625,-0.4287109,1.36084,0.07519531,-0.01855469,-0.3842773,-0.1386719
4084,38.875,-0.1875,-226.0625,-0.1611328,1.49707,0.1098633,0.003417969,-0.3857422,-0.1347656
4088,33.125,6.9375,-208.875,0.01269531,1.527832,0.07910156,0.02587891,-0.3857422,-0.1347656
4092,21.625,32.9375,-200.5625,0.07861328,1.531738,0.02490234,0.04150391,-0.3867188,-0.1318359
4096,2.6875,68.25,-206,0.07861328,1.628906,0.01367188,0.06298828,-0.3842773,-0.1303711
4100,-21.5625,96.8125,-200.9375,-0.01806641,1.566895,0.02490234,0.08447266,-0.3803711,-0.1279297
4104,-21.6875,96.3125,-186.5625,-0.2001953,1.341309,0.08642578,0.09765625,-0.3769531,-0.1289063
4108,-2.5,77.6875,-169.125,-0.3125,1.255859,0.09423828,0.1186523,-0.371582,-0.1289063
4112,13.375,53,-154.5625,-0.246582,1.248047,0.1557617,0.1357422,-0.3632813,-0.1264648
4116,17.25,37.625,-138.5,-0.1728516,1.372559,0.1635742,0.1459961,-0.3603516,-0.1264648
4120,11,32.4375,-124.25,-0.05273438,1.450195,0.1904297,0.1582031,-0.3520508,-0.1225586
4124,-2.125,29,-106.625,-0.04492188,1.403809,0.144043,0.1699219,-0.3466797,-0.1196289
4128,-1.6875,23.625,-80.25,-0.03320313,1.310547,0.1098633,0.1748047,-0.3432617,-0.1181641
4132,-5.5,13.4375,-44.75,-0.08789063,1.333496,0.125,0.1821289,-0.3393555,-0.1181641
4136,-13.3125,3.1875,-11.75,-0.06445313,1.263672,0.1132813,0.1865234,-0.3393555,-0.1181641
4140,-17.8125,4.5,5.75,-0.08398438,1.197754,0.04785156,0.1855469,-0.3369141,-0.1181641
4144,-24,6.8125,18.375,-0.1225586,1.146973,0.01367188,0.1865234,-0.3369141,-0.1210938
4148,-28.75,12.25,27.8125,-0.1342773,1.088867,-0.01660156,0.184082,-0.3378906,-0.1225586
4152,-33.6875,20.125,33.8125,-0.1611328,1.057617,-0.005371094,0.1821289,-0.3378906,-0.1225586
4156,-38.6875,26.3125,38.0625,-0.2270508,1.022949,-0.02050781,0.1806641,-0.3378906,-0.125
4160,-41.5,25.3125,42.3125,-0.3085938,0.9838867,-0.04003906,0.1772461,-0.3393555,-0.1264648
4164,-41.5,19.25,47.75,-0.3549805,0.9296875,-0.04003906,0.1772461,-0.3408203,-0.1279297
4169,-37.375,13.125,50.0625,-0.3510742,0.8945313,-0.06298828,0.1738281,-0.3432617,-0.1303711
4173,-32.75,11.375,48.25,-0.3588867,0.8867188,-0.07861328,0.1689453,-0.3442383,-0.1303711
4177,-30.375,11.9375,45.25,-0.3432617,0.9023438,-0.09375,0.1665039,-0.3442383,-0.1357422
4181,-31.0625,14.4375,41.9375,-0.347168,0.921875,-0.07861328,0.1630859,-0.3481445,-0.137207
4185,-31.8125,14.9375,40.75,-0.4013672,0.8789063,-0.08984375,0.1606445,-0.3481445,-0.1386719
4189,-27.6875,11.375,41.3125,-0.4287109,0.855957,-0.08984375,0.1582031,-0.3466797,-0.1386719
4193,-23.4375,7.3125,40.625,-0.4208984,0.855957,-0.1015625,0.1557617,-0.3481445,-0.1416016
4197,-20.625,4.9375,37.3125,-0.4326172,0.875,-0.08203125,0.1523438,-0.3466797,-0.1425781
4201,-20.25,3.3125,32.625,-0.4326172,0.8828125,-0.08984375,0.1499023,-0.3505859,-0.1425781
4205,-17.875,3.1875,29.6875,-0.4287109,0.8789063,-0.08984375,0.1484375,-0.3505859,-0.144043
4209,-16.75,1.0625,30.5,-0.4365234,0.9140625,-0.09765625,0.144043,-0.3505859,-0.1455078
4213,-16.875,3.3125,30.25,-0.4013672,0.8828125,-0.08984375,0.144043,-0.3520508,-0.1469727
4217,-14.8125,8.75,27.6875,-0.4052734,0.8828125,-0.0859375,0.1401367,-0.3530273,-0.1484375
4221,-15.0625,13.0625,23.625,-0.4208984,0.8984375,-0.05908203,0.1391602,-0.3530273,-0.1494141
