Packet number,Gyroscope X (deg/s),Gyroscope Y (deg/s),Gyroscope Z (deg/s),Accelerometer X (g),Accelerometer Y (g),Accelerometer Z (g),Magnetometer X (G),Magnetometer Y (G),Magnetometer Z (G)
2,42.75,15.625,23.6875,-1.033203,-0.1811523,0.1787109,0.2856445,0.007324219,-0.1850586
6,46,20.25,33.8125,-1.063965,-0.1347656,0.1787109,0.2880859,0,-0.1850586
10,47.3125,21.5625,39.375,-1.071777,-0.1191406,0.2094727,0.2900391,-0.004394531,-0.1835938
14,50.375,20.3125,38.875,-1.071777,-0.1230469,0.1904297,0.2900391,-0.008300781,-0.1821289
18,54.8125,19.5,38.0625,-1.063965,-0.1035156,0.1943359,0.2915039,-0.01464844,-0.1835938
22,54.25,20.375,38,-1.071777,-0.02978516,0.140625,0.2915039,-0.02050781,-0.1796875
26,46.625,20.125,39.625,-1.11084,0.02441406,0.1132813,0.2939453,-0.02587891,-0.1782227
30,42.1875,18.625,41.875,-1.141602,0.03222656,0.09423828,0.2973633,-0.03173828,-0.1796875
34,44.0625,21.3125,51.0625,-1.15332,0.02441406,0.1479492,0.2983398,-0.03710938,-0.1738281
38,53.75,26.1875,56.6875,-1.195801,0.06298828,0.1479492,0.2983398,-0.04199219,-0.175293
42,56.875,25.625,62.25,-1.273438,0.105957,0.09814453,0.2998047,-0.04931641,-0.1728516
46,53,24.5,62.25,-1.304199,0.3271484,0.07910156,0.2998047,-0.05712891,-0.1713867
50,38.3125,25.75,68.4375,-1.40918,0.4165039,0.05175781,0.3032227,-0.06445313,-0.1699219
54,26,20.875,86.6875,-1.525391,0.4829102,0.06738281,0.3032227,-0.07421875,-0.1674805
58,22,7.5625,109.5625,-1.556152,0.4985352,-0.005371094,0.3032227,-0.08447266,-0.1674805
62,13.4375,2.25,130.5,-1.486328,0.5605469,0.05566406,0.3032227,-0.08935547,-0.1660156
66,8.6875,-0.625,145.9375,-1.439941,0.5253906,0.02490234,0.3046875,-0.1054688,-0.1674805
70,10.3125,1,163.375,-1.362793,0.5175781,0.04052734,0.2998047,-0.1181641,-0.1660156
74,9.1875,8.375,177.4375,-1.315918,0.5332031,0.04052734,0.2963867,-0.1318359,-0.1660156
78,7.125,10.9375,190.5,-1.339355,0.5449219,0.01367188,0.2949219,-0.1494141,-0.1674805
82,-1.625,7.375,200.375,-1.331543,0.5722656,0.009765625,0.2880859,-0.1679688,-0.1645508
86,-7.625,6.625,213.625,-1.300781,0.5488281,0.04443359,0.2841797,-0.1806641,-0.1616211
90,-15.0625,5.5625,215,-1.319824,0.5566406,0.05957031,0.2773438,-0.1982422,-0.1630859
94,-17.9375,5.0625,227.75,-1.300781,0.5332031,0.08642578,0.2675781,-0.2167969,-0.1645508
98,-21.1875,4.875,234.6875,-1.308105,0.5371094,0.1098633,0.2602539,-0.2304688,-0.1660156
102,-24.8125,-2.25,243.75,-1.246094,0.5292969,0.08642578,0.2475586,-0.2480469,-0.1660156
107,-28.9375,-5.8125,241.25,-1.215332,0.5019531,0.144043,0.2319336,-0.265625,-0.168457
111,-29.1875,-9.375,250.875,-1.191895,0.4946289,0.140625,0.2211914,-0.2744141,-0.168457
115,-30.9375,-15.5625,247.75,-1.211426,0.5371094,0.140625,0.2045898,-0.2905273,-0.1728516
119,-32.6875,-21.8125,248.8125,-1.129883,0.5292969,0.1479492,0.1865234,-0.3017578,-0.1767578
123,-24.4375,-16.375,251.0625,-1.056641,0.5175781,0.1748047,0.1723633,-0.3105469,-0.1796875
127,-22,-13.6875,257.3125,-1.033203,0.6225586,0.1132813,0.1547852,-0.3208008,-0.1821289
131,-28.9375,-15.6875,262.25,-0.9750977,0.6342773,0.07910156,0.1333008,-0.3330078,-0.1850586
135,-36.125,-15.125,270.25,-0.8354492,0.5991211,0.04052734,0.1176758,-0.3378906,-0.1850586
139,-40.75,-17.9375,258.125,-0.7734375,0.5371094,0.05957031,0.09521484,-0.3442383,-0.1904297
143,-40.25,-23.625,247.4375,-0.699707,0.5058594,0.1020508,0.07226563,-0.3481445,-0.1928711
147,-28,-21.75,247.4375,-0.6342773,0.4790039,0.1518555,0.05712891,-0.3491211,-0.1958008
151,-20.6875,-15.1875,251.9375,-0.5253906,0.6030273,0.125,0.03417969,-0.3505859,-0.2011719
155,-30,-10.0625,257.8125,-0.4482422,0.6538086,0.01367188,0.01171875,-0.3520508,-0.2011719
159,-44.5625,-13.3125,243.8125,-0.4482422,0.6108398,0.06347656,-0.004394531,-0.3505859,-0.2011719
163,-52.25,-32.5625,223.0625,-0.3393555,0.5761719,0.09423828,-0.02490234,-0.3457031,-0.206543
167,-50.8125,-39.375,208.125,-0.3242188,0.5410156,0.1826172,-0.04589844,-0.3417969,-0.2094727
171,-37.1875,-33.3125,213.8125,-0.2270508,0.5644531,0.2519531,-0.05908203,-0.3378906,-0.2119141
175,-21.4375,-25.1875,219.0625,-0.2119141,0.5878906,0.2866211,-0.07958984,-0.3305664,-0.2148438
179,-6.5625,-21.4375,216.625,-0.1381836,0.6884766,0.3212891,-0.09960938,-0.3232422,-0.2163086
183,8.5,-22.25,212.3125,-0.2080078,0.7392578,0.3251953,-0.1103516,-0.3154297,-0.2133789
187,16.5625,-31.25,210.8125,-0.2348633,0.8828125,0.2329102,-0.128418,-0.3095703,-0.2119141
191,1.8125,-51.1875,219,-0.1650391,0.8520508,0.01708984,-0.1474609,-0.2993164,-0.2080078
195,-26.125,-64.5625,228.1875,0.05517578,0.6342773,-0.1474609,-0.1601563,-0.2929688,-0.2055664
199,-52.6875,-73.75,229.9375,0.3535156,0.2265625,-0.2363281,-0.1806641,-0.2792969,-0.2041016
203,-61.75,-71,209.625,0.7099609,-0.2626953,-0.2324219,-0.2021484,-0.2631836,-0.2026367
207,-49.6875,-56.625,170.875,1.109375,-0.550293,-0.1743164,-0.2104492,-0.2504883,-0.2041016
211,-16.5,-26.25,119.6875,1.318359,-0.8105469,-0.1977539,-0.2236328,-0.2368164,-0.2026367
215,8.6875,9.9375,72.3125,1.306641,-0.7094727,-0.2128906,-0.2294922,-0.2294922,-0.199707
219,18.4375,38.75,25,1.171387,-0.4101563,-0.1054688,-0.2294922,-0.2280273,-0.2011719
223,17.5,48.125,-16.4375,0.8300781,-0.1347656,0.09033203,-0.2280273,-0.2280273,-0.2011719
227,17.1875,40.8125,-45.0625,0.6210938,0.06689453,0.3291016,-0.2236328,-0.2304688,-0.206543
231,30.125,36.375,-57.8125,0.5317383,0.1875,0.4980469,-0.222168,-0.2329102,-0.206543
236,46.1875,36.5625,-58.75,0.5668945,0.3466797,0.4672852,-0.215332,-0.2416992,-0.2055664
240,55.0625,36.8125,-56,0.5859375,0.004882813,0.3789063,-0.2104492,-0.2441406,-0.2055664
244,45.3125,37.4375,-66.75,0.675293,0.5214844,0.1748047,-0.2080078,-0.2519531,-0.206543
248,38.1875,35.625,-78.1875,0.6328125,0.4672852,0.1943359,-0.199707,-0.2592773,-0.206543
252,35.0625,32.3125,-89.25,0.6479492,0.4165039,0.1865234,-0.1923828,-0.2670898,-0.2055664
256,31.125,33.0625,-100.5,0.6479492,0.4052734,0.09814453,-0.1875,-0.2719727,-0.2055664
260,11.125,29.6875,-117.4375,0.59375,0.4477539,0.05175781,-0.1782227,-0.2792969,-0.2080078
264,-19.0625,16.5,-137.125,0.4697266,0.4165039,0.1748047,-0.1665039,-0.2880859,-0.2080078
268,-35.4375,1,-155.75,0.3925781,0.284668,0.390625,-0.1601563,-0.2905273,-0.2109375
272,-20.6875,-4.875,-170.6875,0.4116211,0.1523438,0.4829102,-0.1484375,-0.2983398,-0.2119141
276,7.1875,0.625,-187.9375,0.4619141,0.1367188,0.3598633,-0.1352539,-0.3056641,-0.2148438
280,33.6875,14.9375,-202.25,0.4541016,0.21875,0.1826172,-0.1245117,-0.3105469,-0.2133789
284,41.5625,30.75,-209.125,0.2915039,0.4052734,0.01367188,-0.1079102,-0.3193359,-0.2119141
288,36.375,39.75,-213.625,0.109375,0.5800781,0.05175781,-0.08886719,-0.328125,-0.2109375
292,31.8125,39.75,-214.125,-0.08789063,0.6108398,0.05566406,-0.07324219,-0.3344727,-0.2094727
296,29.4375,34.4375,-216.875,-0.2080078,0.6772461,0.1098633,-0.05419922,-0.3417969,-0.2080078
300,24.75,22.125,-218.5,-0.2080078,0.7470703,0.03662109,-0.03417969,-0.3466797,-0.2055664
304,7.25,25.4375,-216.25,-0.1650391,0.8168945,0.06347656,-0.02099609,-0.3481445,-0.206543
308,-4.0625,26.1875,-209.8125,-0.3510742,0.7626953,0.06347656,0,-0.3505859,-0.2055664
312,1.8125,35.125,-209.5,-0.4052734,0.6884766,0.3017578,0.01904297,-0.3491211,-0.206543
316,19.25,37.3125,-202.375,-0.5683594,0.7470703,0.1713867,0.03417969,-0.3481445,-0.206543
320,7.75,22.875,-203.625,-0.6030273,0.8984375,0.09814453,0.05078125,-0.3466797,-0.2055664
324,-16.1875,4.875,-201.375,-0.6108398,0.9760742,-0.01660156,0.07128906,-0.3432617,-0.2041016
328,-54.8125,-10,-208.625,-0.5527344,0.9414063,0.05566406,0.08203125,-0.3393555,-0.2041016
332,-66.4375,-14.75,-203.5,-0.5410156,0.7041016,0.125,0.09863281,-0.3305664,-0.2109375
336,-41.9375,15.5,-200.625,-0.378418,0.3310547,0.4560547,0.1118164,-0.3178711,-0.2163086
340,31.1875,60.9375,-198.4375,-0.5795898,0.2924805,0.4633789,0.125,-0.3105469,-0.2148438
344,57.9375,72.5,-214.1875,-0.9052734,0.777832,0.2944336,0.1416016,-0.3056641,-0.2094727
348,33.5625,50.375,-228.375,-1.15332,0.8984375,0.1635742,0.1591797,-0.3007813,-0.2041016
352,-21.75,33.8125,-232.625,-1.103027,1.081055,0.06738281,0.1748047,-0.2919922,-0.1987305
356,-89.5625,-8.0625,-220.5,-1.161133,1.077148,-0.1860352,0.1904297,-0.2753906,-0.2026367
360,-105.875,-33.125,-199.0625,-0.8046875,0.4243164,0.2060547,0.2045898,-0.2558594,-0.2094727
365,-51.0625,16.5,-177.1875,-0.7114258,0.1523438,0.4326172,0.2070313,-0.2456055,-0.2133789
369,-3.375,56.25,-168.5625,-0.9594727,0.2924805,0.2788086,0.2202148,-0.2319336,-0.2119141
373,2,55.4375,-161.75,-1.087402,0.5097656,0.1943359,0.2319336,-0.2207031,-0.2094727
377,-5.6875,43.9375,-154.3125,-1.095215,0.4633789,0.1982422,0.237793,-0.2143555,-0.206543
381,-21.5625,30.125,-153.3125,-1.060547,0.4165039,0.1713867,0.2460938,-0.2045898,-0.206543
385,-26,12.6875,-166.5,-1.063965,0.1914063,0.2250977,0.253418,-0.1879883,-0.2041016
389,-12.4375,15.75,-168.625,-1.041016,0.1137695,0.2329102,0.2592773,-0.1791992,-0.2041016
393,-3.4375,22.6875,-167.625,-1.005859,0.1445313,0.1748047,0.2666016,-0.1655273,-0.2026367
397,1.9375,36.4375,-159.75,-0.9907227,0.1254883,0.1098633,0.2734375,-0.1518555,-0.2011719
401,0.375,49.9375,-153.5625,-1.017578,0.1333008,0.07128906,0.2758789,-0.1420898,-0.1958008
405,-3.9375,53.6875,-153.625,-1.125977,0.05908203,0.05175781,0.2841797,-0.1293945,-0.1928711
409,-5.125,46.5,-163.3125,-1.273438,0.008789063,0.08642578,0.2890625,-0.1132813,-0.1865234
413,1.5,27.0625,-178.6875,-1.362793,-0.05664063,0.1020508,0.2924805,-0.1044922,-0.1850586
417,11.9375,25.3125,-175.6875,-1.269531,-0.02587891,0.125,0.2963867,-0.08691406,-0.1806641
421,22,39.25,-162.3125,-1.331543,0.0009765625,0.07128906,0.2998047,-0.06933594,-0.1796875
425,24.4375,45.8125,-147.75,-1.401367,0.09033203,0.02880859,0.3007813,-0.06054688,-0.1738281
429,20.5,42.125,-136.8125,-1.455566,0.1601563,-0.03613281,0.3046875,-0.046875,-0.1713867
433,8,31.875,-131,-1.459473,0.237793,-0.05517578,0.3046875,-0.03466797,-0.168457
437,-6.6875,20.4375,-123.125,-1.455566,0.2651367,-0.01318359,0.3056641,-0.02685547,-0.1660156
441,-14.5,17.875,-105.4375,-1.428223,0.15625,0.105957,0.3046875,-0.01171875,-0.1645508
445,-2.1875,19.375,-87.375,-1.393555,0.1254883,0.1982422,0.3032227,-0.004394531,-0.1606445
449,14.3125,24.25,-65.8125,-1.366211,0.1875,0.2211914,0.3032227,0.001464844,-0.1606445
453,22.4375,25.8125,-45.625,-1.335449,0.315918,0.1904297,0.3022461,0.007324219,-0.1591797
457,20.875,23.9375,-24.3125,-1.319824,0.3935547,0.1674805,0.3022461,0.008789063,-0.1577148
461,12.125,18.6875,-6.25,-1.327637,0.4282227,0.125,0.3022461,0.01025391,-0.15625
465,-0.3125,8.5,9.1875,-1.343262,0.4052734,0.140625,0.3022461,0.01025391,-0.1547852
469,-9.0625,-5.125,22.5,-1.343262,0.3310547,0.144043,0.3032227,0.008789063,-0.1547852
473,-13.125,-16,34.125,-1.261719,0.2456055,0.140625,0.3046875,0.006347656,-0.1538086
477,-11.25,-19.8125,43.75,-1.20752,0.1484375,0.1367188,0.3022461,0.00390625,-0.1547852
481,-1.625,-18.25,52.75,-1.199707,0.07861328,0.1518555,0.3032227,0,-0.1577148
485,16.25,-11.8125,66.6875,-1.215332,0.07861328,0.1557617,0.3046875,-0.003417969,-0.1577148
489,31.5625,-5,78.375,-1.347168,0.1835938,0.144043,0.3032227,-0.01171875,-0.1616211
494,38.5625,-9.125,97.1875,-1.447754,0.284668,0.07128906,0.3046875,-0.02197266,-0.1606445
498,32,-11.0625,115.625,-1.436035,0.3974609,0.02099609,0.3071289,-0.02929688,-0.1616211
502,18.6875,-17.25,132.8125,-1.498047,0.3935547,-0.001464844,0.3071289,-0.04052734,-0.1645508
506,12.75,-19,151.5625,-1.501953,0.3388672,0.07910156,0.3071289,-0.05810547,-0.1660156
510,13.25,-20.6875,168.3125,-1.567871,0.315918,0.1020508,0.3071289,-0.06933594,-0.168457
514,20,-21.25,182.9375,-1.587402,0.2573242,0.1748047,0.3022461,-0.08544922,-0.168457
518,31.0625,-13.5,200.5,-1.552246,0.3120117,0.1826172,0.3007813,-0.1069336,-0.1728516
522,29.8125,-7.125,214.5,-1.645508,0.4165039,0.105957,0.2983398,-0.1196289,-0.1713867
526,15.125,-16.0625,229.875,-1.672363,0.4790039,0.05566406,0.2915039,-0.1430664,-0.1728516
530,1.4375,-19.75,244.8125,-1.62207,0.4321289,0.105957,0.2856445,-0.1669922,-0.1738281
534,-4.625,-24.6875,253.9375,-1.641602,0.3896484,0.1171875,0.2773438,-0.1782227,-0.1767578
538,-1.375,-28.8125,264.6875,-1.560059,0.3193359,0.1635742,0.2651367,-0.1992188,-0.1782227
542,3.6875,-19.625,276.125,-1.48291,0.3466797,0.1518555,0.2543945,-0.2231445,-0.1806641
546,3.125,-20.3125,282.3125,-1.498047,0.3818359,0.1367188,0.2426758,-0.2358398,-0.1806641
550,-1.9375,-23.6875,289.4375,-1.416992,0.4052734,0.1171875,0.2260742,-0.2558594,-0.1806641
554,-2.625,-21,297.4375,-1.343262,0.3779297,0.1367188,0.2055664,-0.2744141,-0.1850586
558,-5.125,-22.8125,300.1875,-1.339355,0.4477539,0.04785156,0.1928711,-0.2866211,-0.1850586
562,-20.75,-30.8125,301,-1.285156,0.4946289,0.03271484,0.1723633,-0.3032227,-0.1918945
566,-34.625,-46.5,301.6875,-1.257813,0.4399414,-0.005371094,0.1484375,-0.3168945,-0.1928711
570,-35.1875,-45.6875,304.5625,-1.017578,0.269043,0.07910156,0.1333008,-0.3256836,-0.1958008
574,-18.4375,-29.4375,307.875,-0.8818359,0.1992188,0.07519531,0.1044922,-0.3330078,-0.1987305
578,-2.875,-8.0625,310.6875,-0.7504883,0.2338867,0.09814453,0.07958984,-0.3432617,-0.199707
582,-9,-7.75,301.6875,-0.796875,0.3583984,0.02490234,0.06054688,-0.3481445,-0.2011719
586,-24.375,-22.5,284.6875,-0.7504883,0.4013672,0.05175781,0.03417969,-0.3505859,-0.2011719
590,-37,-40.4375,275.8125,-0.6303711,0.2612305,0.1367188,0.008300781,-0.3505859,-0.2055664
594,-23.75,-40.0625,272.3125,-0.4169922,0.1679688,0.1713867,-0.009277344,-0.3491211,-0.206543
598,-19.625,-36.0625,268.375,-0.2231445,0.2226563,0.144043,-0.03662109,-0.3466797,-0.206543
602,-12.5,-30.9375,258.25,-0.02197266,0.2885742,0.06738281,-0.06152344,-0.3408203,-0.2080078
606,-18.75,-20.9375,237.625,0.06689453,0.3544922,0.1557617,-0.07470703,-0.3354492,-0.2080078
610,-13.5625,-28.125,220,-0.01416016,0.3544922,0.105957,-0.09716797,-0.3266602,-0.2094727
614,-22.6875,-41.0625,207.4375,0.04345703,0.4907227,0.1328125,-0.1152344,-0.3193359,-0.206543
618,-25.375,-47.1875,201.4375,0.1328125,0.4594727,0.1904297,-0.1293945,-0.3129883,-0.2080078
623,-33.0625,-50.75,206.25,0.2724609,0.5371094,0.1210938,-0.1484375,-0.3032227,-0.206543
627,-44.0625,-50.125,203.8125,0.3110352,0.4594727,0.08642578,-0.1640625,-0.2895508,-0.2055664
631,-60.125,-55.4375,207.4375,0.5161133,0.2807617,-0.001464844,-0.1772461,-0.2792969,-0.2080078
635,-61.625,-49.625,202.875,0.7875977,-0.02197266,-0.005371094,-0.1948242,-0.2641602,-0.2080078
639,-43.5,-27.5,193.625,1.059082,-0.371582,-0.05908203,-0.206543,-0.2495117,-0.2109375
643,-28.875,0.9375,165.5625,1.322266,-0.7055664,-0.03613281,-0.2172852,-0.2382813,-0.2094727
647,-12.25,15.5,106.4375,1.353516,-0.6938477,-0.03222656,-0.2255859,-0.2270508,-0.2109375
651,-3.375,8.75,39.5625,1.244629,-0.6513672,-0.128418,-0.2280273,-0.2216797,-0.2109375
655,1.75,0.75,-23.75,1.186523,-0.4726563,-0.03222656,-0.2280273,-0.2192383,-0.2119141
659,15.25,4.625,-71.6875,0.9970703,-0.3286133,0.1098633,-0.2255859,-0.2231445,-0.2119141
663,45.25,13.25,-97.1875,0.8417969,-0.1459961,0.2709961,-0.2236328,-0.2294922,-0.2109375
667,84.0625,26,-111.3125,0.7216797,0.07080078,0.3442383,-0.2172852,-0.2358398,-0.2094727
671,110.75,39.3125,-117.0625,0.5859375,0.4086914,0.2827148,-0.2089844,-0.2480469,-0.206543
675,118.0625,39.75,-119.875,0.5473633,0.793457,0.1943359,-0.199707,-0.2631836,-0.2011719
679,92.1875,33.0625,-116,0.4697266,0.9101563,0.02490234,-0.1914063,-0.2744141,-0.199707
683,56.125,14.5,-119.8125,0.3999023,0.9995117,-0.03222656,-0.184082,-0.2841797,-0.1958008
687,21.5625,-5.1875,-125.625,0.4155273,0.956543,0.09033203,-0.1733398,-0.2944336,-0.1928711
691,5.8125,-17.75,-129.75,0.3808594,0.8632813,0.1479492,-0.168457,-0.2993164,-0.1904297
695,-0.9375,-23.4375,-127.1875,0.4619141,0.8051758,0.2211914,-0.1601563,-0.3056641,-0.1918945
699,2.0625,-15.9375,-120.8125,0.4619141,0.7392578,0.2060547,-0.1508789,-0.3120117,-0.1904297
703,3.625,-7,-116.875,0.5048828,0.7626953,0.1904297,-0.1450195,-0.3168945,-0.1904297
707,4.375,1.3125,-114.875,0.4038086,0.7817383,0.140625,-0.1352539,-0.3232422,-0.1889648
711,0.8125,2,-123.75,0.3188477,0.8012695,0.1904297,-0.1259766,-0.328125,-0.1904297
715,-0.875,-7.4375,-131.75,0.190918,0.8208008,0.1328125,-0.1201172,-0.3291016,-0.1918945
719,-12.3125,-22.75,-138.0625,0.2177734,0.840332,0.09033203,-0.109375,-0.3378906,-0.1889648
723,-19.625,-26.5625,-140.875,0.2607422,0.7119141,0.144043,-0.09863281,-0.3408203,-0.1904297
727,-10.625,-20.625,-142.4375,0.2954102,0.6499023,0.1674805,-0.09228516,-0.3417969,-0.1918945
731,15.1875,-2.375,-147.8125,0.2412109,0.5761719,0.3056641,-0.08056641,-0.3457031,-0.1928711
735,47.375,13.125,-146.6875,0.08642578,0.6264648,0.1865234,-0.06640625,-0.3505859,-0.1904297
739,43.75,15.8125,-138.3125,0.04736328,0.9335938,-0.001464844,-0.05566406,-0.3530273,-0.1865234
743,4.875,2.875,-136.5,-0.01806641,1.077148,-0.1669922,-0.04492188,-0.3579102,-0.1835938
747,-51.8125,-24,-146.25,-0.02587891,1.015137,-0.1899414,-0.03173828,-0.359375,-0.1850586
752,-81.5625,-46.5,-163.8125,0.03955078,0.7119141,0.04052734,-0.02246094,-0.3579102,-0.1889648
756,-48.5625,-31.0625,-176.0625,0.03955078,0.3857422,0.3867188,-0.009277344,-0.3554688,-0.1972656
760,3.875,4.0625,-168.875,-0.002441406,0.4907227,0.3671875,0.005859375,-0.3544922,-0.199707
764,27,28.4375,-163.8125,-0.1108398,0.6499023,0.1518555,0.01416016,-0.3554688,-0.1987305
768,15.9375,31.5,-156.5,-0.1806641,0.8984375,-0.03222656,0.03076172,-0.3544922,-0.1987305
772,-17.9375,26.1875,-158,-0.246582,0.8984375,-0.01660156,0.04492188,-0.3530273,-0.1972656
776,-34.625,11.125,-177.5625,-0.5063477,0.7197266,0.1328125,0.0546875,-0.3481445,-0.1987305
780,-21.5,-14.9375,-198.8125,-0.5834961,0.4946289,0.3056641,0.07226563,-0.3442383,-0.199707
784,13.125,-7.75,-194.5,-0.4829102,0.5253906,0.3330078,0.08691406,-0.3408203,-0.2011719
788,17.25,11.625,-186.25,-0.4326172,0.7392578,0.125,0.09863281,-0.3369141,-0.199707
792,-2.25,17.875,-171.0625,-0.4711914,0.7973633,0.01708984,0.112793,-0.3330078,-0.1987305
796,-8.3125,35.1875,-167.4375,-0.4790039,0.6069336,0.2402344,0.1259766,-0.3242188,-0.1987305
800,8.4375,47.875,-177.0625,-0.8974609,0.5410156,0.2905273,0.1367188,-0.3193359,-0.1972656
804,17.25,16.5,-188.6875,-1.033203,0.6303711,0.1674805,0.1533203,-0.3129883,-0.1943359
808,4.6875,-1.125,-186.5625,-0.9052734,0.777832,0.1098633,0.1674805,-0.3032227,-0.1928711
812,-21.1875,-4.25,-172.75,-0.8007813,0.8012695,0.04785156,0.1772461,-0.2954102,-0.1904297
816,-50.125,-4.8125,-158.375,-0.6923828,0.6772461,0.009765625,0.1879883,-0.2856445,-0.1972656
820,-52.1875,10.8125,-163.375,-0.6650391,0.4243164,0.1982422,0.1972656,-0.2744141,-0.2011719
824,-42.875,11.375,-182.9375,-0.9438477,0.237793,0.2788086,0.2045898,-0.2670898,-0.2011719
828,-4.25,8.875,-201.25,-1.052734,0.1914063,0.3671875,0.2163086,-0.2504883,-0.2026367
832,17.5,24.5625,-190.875,-1.091309,0.4013672,0.2709961,0.2270508,-0.2382813,-0.2011719
836,15.75,30.375,-176.125,-1.129883,0.5761719,0.07519531,0.2353516,-0.2304688,-0.1958008
840,-13.3125,21.5,-153.875,-1.12207,0.6069336,-0.005371094,0.2451172,-0.2192383,-0.1958008
844,-40,14.4375,-142.25,-0.9790039,0.4711914,0.009765625,0.253418,-0.2070313,-0.1943359
848,-50.0625,15,-155.125,-1.025391,0.1992188,0.1748047,0.2568359,-0.1982422,-0.1943359
852,-22.9375,12.4375,-170.9375,-1.149414,0.02832031,0.2709961,0.2641602,-0.1821289,-0.1958008
856,4.375,21.9375,-168.3125,-1.195801,0.140625,0.3134766,0.2724609,-0.1655273,-0.1958008
860,17.25,30.4375,-157,-1.242188,0.2768555,0.1982422,0.2773438,-0.1582031,-0.1943359
864,11.5625,33.1875,-139.875,-1.289063,0.3583984,0.1132813,0.2807617,-0.1455078,-0.1865234
868,-7.625,26.0625,-124.1875,-1.261719,0.4360352,-0.009277344,0.2880859,-0.1318359,-0.1865234
872,-34.875,17.5,-115.125,-1.230957,0.3662109,0.04052734,0.2900391,-0.1245117,-0.1835938
876,-52.375,-0.5,-119.125,-1.234863,0.2226563,0.08251953,0.2915039,-0.1118164,-0.1850586
881,-55.6875,-15.0625,-121.625,-1.103027,0.09423828,0.1328125,0.2939453,-0.09716797,-0.1865234
885,-45.6875,-4.25,-118.8125,-0.9829102,-0.04150391,0.2060547,0.2963867,-0.08691406,-0.1835938
889,-26.6875,16.9375,-119,-1.001953,-0.08789063,0.2094727,0.2949219,-0.07421875,-0.1875
893,-11.125,29.4375,-115.3125,-1.114746,-0.09179688,0.1943359,0.2983398,-0.06201172,-0.1850586
897,1.1875,33.9375,-112.5625,-1.195801,-0.03369141,0.1635742,0.2998047,-0.0546875,-0.1821289
901,1.375,30.25,-110.5,-1.253906,0.06689453,0.09423828,0.2983398,-0.04199219,-0.1767578
905,-7,23.75,-104.3125,-1.257813,0.09033203,0.06347656,0.3007813,-0.03076172,-0.1767578
909,-11.5625,23.9375,-92.4375,-1.23877,0.05908203,0.1132813,0.2983398,-0.02441406,-0.175293
913,-8.5,23.1875,-85.875,-1.319824,0.02050781,0.1674805,0.2983398,-0.015625,-0.1713867
917,-1.875,12.5625,-76.3125,-1.331543,0.03222656,0.1904297,0.2998047,-0.008300781,-0.168457
921,6.0625,12.0625,-59.3125,-1.292969,0.07470703,0.2172852,0.2998047,-0.001953125,-0.1699219
925,10.4375,14.1875,-41.6875,-1.285156,0.15625,0.1557617,0.2998047,0.001464844,-0.1660156
929,4.5625,11.4375,-23.25,-1.273438,0.203125,0.1132813,0.2983398,0.004882813,-0.1674805
933,-4.9375,6.5,-7.75,-1.230957,0.203125,0.1020508,0.2998047,0.006347656,-0.1674805
937,-11.875,-0.0625,3.75,-1.187988,0.1176758,0.1479492,0.2983398,0.006347656,-0.1674805
941,-8.5625,-5.4375,8.1875,-1.129883,0.04736328,0.1787109,0.2983398,0.007324219,-0.1674805
945,2.5625,-2.75,16.125,-1.099121,0.02050781,0.2060547,0.2983398,0.008789063,-0.1674805
949,12.625,0.625,22.8125,-1.161133,0.08642578,0.1557617,0.2973633,0.004882813,-0.1660156
953,11.375,-1.625,33.1875,-1.203613,0.1333008,0.1132813,0.2983398,0.002441406,-0.1660156
957,8.9375,-5.4375,45.5625,-1.223145,0.121582,0.08642578,0.2998047,-0.0004882813,-0.1674805
961,9.3125,-6.5,54.6875,-1.223145,0.1445313,0.1171875,0.3007813,-0.004394531,-0.1674805
965,13.8125,-7.4375,65.6875,-1.300781,0.1176758,0.1210938,0.3007813,-0.01318359,-0.1713867
969,22.9375,-8.125,78.0625,-1.273438,0.1254883,0.144043,0.3032227,-0.01708984,-0.1699219
973,32.125,-4.0625,89.5625,-1.312012,0.1679688,0.1367188,0.3007813,-0.02685547,-0.1713867
977,33.5625,-4.0625,103,-1.366211,0.2416992,0.09814453,0.3032227,-0.03955078,-0.1728516
981,27.25,-6.1875,115.9375,-1.420898,0.3081055,0.09423828,0.3032227,-0.04589844,-0.1713867
985,19.8125,-13.8125,128.125,-1.517578,0.3349609,0.07519531,0.3022461,-0.05957031,-0.1728516
989,7.0625,-24.375,142.25,-1.552246,0.3740234,0.09033203,0.3022461,-0.07080078,-0.1738281
993,-2.75,-32.4375,162.625,-1.494141,0.2885742,0.1020508,0.3032227,-0.08300781,-0.1767578
997,-4.25,-30.25,174.9375,-1.424316,0.2456055,0.1674805,0.2973633,-0.09960938,-0.1796875
1001,-0.6875,-33.875,180.1875,-1.447754,0.1679688,0.2094727,0.2924805,-0.1157227,-0.1850586
1005,12.75,-31,182.375,-1.443848,0.15625,0.2827148,0.2900391,-0.1254883,-0.1835938
1010,26.25,-26.9375,188.9375,-1.486328,0.237793,0.2368164,0.2841797,-0.1455078,-0.1875
1014,25.25,-22.125,204,-1.467285,0.3623047,0.1557617,0.2758789,-0.1630859,-0.1889648
1018,15,-19.6875,220.75,-1.463379,0.3935547,0.1479492,0.2700195,-0.1767578,-0.1904297
1022,8.6875,-23.5625,230.375,-1.413086,0.3120117,0.1713867,0.2617188,-0.1958008,-0.1918945
1026,13.3125,-26.875,228.875,-1.319824,0.2265625,0.2329102,0.2485352,-0.2143555,-0.1943359
1030,27.4375,-16.9375,231,-1.234863,0.2963867,0.2675781,0.2392578,-0.2270508,-0.1958008
1034,31.5,-12,235.375,-1.285156,0.3583984,0.2211914,0.2270508,-0.2431641,-0.1943359
1038,30.75,-13,241.25,-1.32373,0.4477539,0.2021484,0.2128906,-0.2617188,-0.1958008
1042,24.1875,-18.6875,252.6875,-1.292969,0.5058594,0.1479492,0.2045898,-0.2729492,-0.1943359
1046,7.75,-23,262.5625,-1.20752,0.5605469,0.09033203,0.1865234,-0.2895508,-0.1943359
1050,-2.375,-31.125,267.9375,-1.129883,0.4360352,0.1132813,0.1665039,-0.3017578,-0.1958008
1054,3.625,-28.375,266.625,-0.9594727,0.3896484,0.1674805,0.1523438,-0.3105469,-0.1943359
1058,6.9375,-23.375,266.1875,-0.9477539,0.4711914,0.1171875,0.1308594,-0.3242188,-0.1972656
1062,7.5,-23.5,268.0625,-0.8896484,0.4750977,0.1289063,0.1103516,-0.3344727,-0.1958008
1066,4,-21,273.5,-0.8046875,0.4985352,0.140625,0.09521484,-0.3408203,-0.1958008
1070,1.6875,-20.4375,276.5625,-0.7348633,0.5449219,0.1098633,0.06884766,-0.3491211,-0.1958008
1074,-19.125,-29.4375,279.125,-0.6884766,0.5913086,0.05175781,0.04492188,-0.3520508,-0.1972656
1078,-32.9375,-40,277.6875,-0.6186523,0.4985352,0.05957031,0.02587891,-0.3530273,-0.199707
1082,-33.5,-44.9375,273.25,-0.4521484,0.3779297,0.1171875,0.0009765625,-0.3520508,-0.2026367
1086,-26.5,-39.4375,276.5625,-0.2080078,0.3388672,0.07519531,-0.02685547,-0.3491211,-0.2041016
1090,-19.25,-22,269.5625,-0.03320313,0.3271484,0.1367188,-0.04394531,-0.3466797,-0.2041016
1094,-21.625,-15.3125,262,-0.02197266,0.3466797,0.05566406,-0.06884766,-0.3378906,-0.2055664
1098,-26.375,-13.0625,246.6875,0.0009765625,0.3505859,0.09423828,-0.09130859,-0.3305664,-0.206543
1102,-44.8125,-29.625,229.0625,0.09765625,0.4125977,0.02099609,-0.1054688,-0.3256836,-0.2080078
1106,-61.9375,-37.75,205.8125,0.1445313,0.4086914,0.05957031,-0.1245117,-0.3120117,-0.2109375
1110,-70.125,-46.5,188.0625,0.2216797,0.3232422,0.1748047,-0.1435547,-0.3007813,-0.2133789
1114,-52.6875,-44.5625,176.9375,0.2026367,0.2885742,0.3056641,-0.1533203,-0.2919922,-0.2148438
1118,-27,-41.375,178.3125,0.2216797,0.3349609,0.340332,-0.1674805,-0.2807617,-0.2148438
1122,-18.1875,-44.9375,179.75,0.2797852,0.4204102,0.2250977,-0.184082,-0.2670898,-0.2133789
1126,-30.0625,-62.875,173.8125,0.4311523,0.4052734,-0.03613281,-0.1923828,-0.2592773,-0.2109375
1130,-66.625,-87.6875,157.8125,0.690918,0.3505859,-0.2592773,-0.206543,-0.2470703,-0.2094727
1134,-117,-108.1875,126.5625,1.000488,0.203125,-0.4555664,-0.222168,-0.2319336,-0.2094727
1139,-154.4375,-113.4375,94.75,1.217773,-0.2509766,-0.4516602,-0.2304688,-0.2207031,-0.2080078
1143,-150.3125,-93.875,56.0625,1.531738,-0.5776367,-0.34375,-0.2412109,-0.2045898,-0.206543
1147,-111.25,-45.75,12.25,1.663574,-0.7094727,-0.1362305,-0.2485352,-0.1943359,-0.2055664
1151,-48,14,-26.125,1.450195,-0.6552734,0.1289063,-0.2485352,-0.1904297,-0.2080078
1155,13.6875,53.875,-56,1.163574,-0.3950195,0.2519531,-0.2470703,-0.1894531,-0.2094727
1159,54.125,73.5,-84,0.8769531,-0.05273438,0.3173828,-0.237793,-0.1967773,-0.2148438
1163,76.1875,73.5,-103.0625,0.5820313,0.2226563,0.3671875,-0.2329102,-0.2055664,-0.2177734
1167,85.5,58.375,-110.3125,0.4428711,0.5019531,0.2905273,-0.2246094,-0.2167969,-0.2177734
1171,81.9375,44.1875,-100,0.3378906,0.6108398,0.09423828,-0.215332,-0.2319336,-0.2177734
1175,53.9375,40.75,-106.1875,0.4970703,0.8442383,0.1748047,-0.2080078,-0.2392578,-0.2163086
1179,34.3125,34.625,-101.375,0.4428711,0.8364258,0.1713867,-0.199707,-0.2495117,-0.2177734
1183,21.375,31.625,-95.1875,0.4931641,0.8168945,0.2636719,-0.1914063,-0.2568359,-0.2177734
1187,24.0625,34.625,-89.3125,0.4775391,0.7353516,0.3173828,-0.1865234,-0.2631836,-0.21875
1191,31.5625,37.6875,-86.4375,0.5048828,0.7353516,0.3520508,-0.1782227,-0.2670898,-0.2202148
1195,37,39.75,-83.1875,0.4853516,0.7548828,0.2636719,-0.1699219,-0.2768555,-0.2177734
1199,28.9375,36.9375,-82.4375,0.4658203,0.8051758,0.1557617,-0.1665039,-0.2807617,-0.21875
1203,3.625,26.4375,-89.1875,0.4697266,0.840332,0.02880859,-0.1567383,-0.2866211,-0.21875
1207,-23.75,13.75,-105.0625,0.4233398,0.7626953,0.1171875,-0.1494141,-0.2905273,-0.2216797
1211,-29.625,7.25,-113.375,0.4038086,0.5839844,0.2749023,-0.1425781,-0.2929688,-0.2231445
1215,-6.375,18.8125,-114.75,0.4194336,0.4516602,0.4599609,-0.1328125,-0.2983398,-0.2246094
1219,25.375,33,-112.75,0.3769531,0.4790039,0.3637695,-0.1235352,-0.3017578,-0.2270508
1223,37.25,38.625,-114.9375,0.3652344,0.6030273,0.2021484,-0.1176758,-0.3066406,-0.2246094
1227,23.5,33.875,-123,0.3305664,0.7275391,0.001953125,-0.1054688,-0.3129883,-0.2255859
1231,-6.1875,28.9375,-141.0625,0.3149414,0.7509766,0.05957031,-0.09472656,-0.3178711,-0.2246094
1235,-16.8125,25.75,-157.5,0.1367188,0.5991211,0.2094727,-0.08300781,-0.3178711,-0.2246094
1239,3.125,27.4375,-165,0.04345703,0.4868164,0.3710938,-0.06884766,-0.3242188,-0.2270508
1243,31,38.4375,-159.8125,0.02832031,0.5644531,0.3671875,-0.05566406,-0.3291016,-0.2270508
1247,43.75,47.6875,-153.375,0.004882813,0.7080078,0.2021484,-0.04394531,-0.3305664,-0.2246094
1251,28.75,49.6875,-150.125,-0.002441406,0.8598633,0.06347656,-0.03076172,-0.3354492,-0.2231445
1255,-0.375,45.9375,-150.625,-0.06445313,0.8828125,0.02490234,-0.01269531,-0.3369141,-0.2246094
1259,-18.4375,42.0625,-166.8125,-0.1728516,0.7973633,0.2021484,-0.0009765625,-0.3378906,-0.2216797
1263,-15.1875,27.3125,-184.4375,-0.5214844,0.6499023,0.3291016,0.01416016,-0.3369141,-0.2231445
1268,-2.1875,2.6875,-190.1875,-0.5253906,0.7275391,0.3212891,0.03173828,-0.3330078,-0.2255859
1272,-3.6875,-0.4375,-180.0625,-0.378418,0.8325195,0.2597656,0.04150391,-0.3344727,-0.2231445
1276,-18.1875,5.9375,-166.8125,-0.3242188,0.9140625,0.140625,0.0546875,-0.3291016,-0.2255859
1280,-42.6875,13.25,-156.375,-0.2661133,0.8867188,0.1098633,0.06982422,-0.3256836,-0.2270508
1284,-49.8125,32.4375,-148.8125,-0.3203125,0.7080078,0.2402344,0.07861328,-0.3193359,-0.230957
1288,-38.4375,46.375,-151.75,-0.6147461,0.5722656,0.355957,0.09277344,-0.3129883,-0.2338867
1292,-17.375,28.5625,-167.6875,-0.7890625,0.5722656,0.3867188,0.105957,-0.3056641,-0.2368164
1296,-8.5625,14.3125,-171.25,-0.7270508,0.7001953,0.3212891,0.1152344,-0.3017578,-0.2353516
1300,-19.375,15.4375,-162.625,-0.6147461,0.8168945,0.1943359,0.128418,-0.2944336,-0.2338867
1304,-49.25,14.75,-149.125,-0.5795898,0.840332,0.105957,0.1376953,-0.2880859,-0.2368164
1308,-72.5625,18.375,-145.1875,-0.5488281,0.6499023,0.2060547,0.1450195,-0.2792969,-0.2392578
1312,-52.875,39.25,-143.5,-0.6533203,0.2495117,0.4868164,0.1582031,-0.2670898,-0.2392578
1316,15.4375,62.0625,-157.375,-0.847168,0.09033203,0.6826172,0.1674805,-0.2592773,-0.2407227
1320,81.875,81.0625,-154.3125,-0.8666992,0.269043,0.5019531,0.1782227,-0.2529297,-0.2353516
1324,99.0625,97.375,-152.25,-0.9555664,0.5878906,0.2519531,0.1914063,-0.2504883,-0.2270508
1328,80.3125,87.8125,-142.1875,-1.071777,0.840332,0.02490234,0.2045898,-0.2495117,-0.2148438
1332,31.5625,57.875,-133.375,-1.075684,0.987793,-0.07080078,0.2138672,-0.2441406,-0.2080078
1336,-31.0625,21.1875,-127.25,-1.07959,0.8671875,-0.0859375,0.2236328,-0.2382813,-0.2055664
1340,-70.25,-11.75,-125.6875,-0.9169922,0.5019531,0.05957031,0.2319336,-0.2280273,-0.2080078
1344,-57.9375,-4.875,-135.4375,-0.6689453,0.1484375,0.2402344,0.2353516,-0.2182617,-0.2109375
1348,-30.1875,23.875,-146,-0.6845703,0.121582,0.2480469,0.2402344,-0.2045898,-0.2119141
1352,-13.9375,43.4375,-148.875,-0.8432617,0.171875,0.2094727,0.25,-0.1918945,-0.2109375
1356,-10.6875,49.6875,-144.0625,-0.9672852,0.2070313,0.159668,0.2543945,-0.1831055,-0.2094727
1360,-11.375,54.1875,-138.625,-0.9711914,0.1601563,0.1674805,0.2626953,-0.1733398,-0.2026367
1364,0.6875,67,-139.625,-1.044922,-0.002441406,0.2597656,0.2700195,-0.1606445,-0.199707
1368,31.25,72.125,-152.9375,-1.253906,-0.07226563,0.2866211,0.2758789,-0.1518555,-0.1958008
1372,56.875,63.0625,-162.4375,-1.393555,0.04394531,0.2368164,0.2841797,-0.140625,-0.1889648
1376,66.375,55.3125,-159.4375,-1.401367,0.2226563,0.1826172,0.2900391,-0.1269531,-0.1796875
1380,60.25,48.5625,-150.375,-1.432129,0.4438477,0.09423828,0.2949219,-0.1206055,-0.175293
1384,37.125,34.625,-128.5625,-1.486328,0.4555664,-0.001464844,0.2998047,-0.109375,-0.1699219
1388,3.1875,15.6875,-111.3125,-1.416992,0.5214844,-0.04736328,0.3022461,-0.09960938,-0.1674805
1392,-34.75,-1,-100.4375,-1.315918,0.4555664,-0.03613281,0.3032227,-0.09082031,-0.168457
1397,-61.625,-16.3125,-97.625,-1.219238,0.3081055,0.005859375,0.3046875,-0.07958984,-0.1674805
1401,-71.875,-26.0625,-95.25,-1.118652,0.1020508,0.08251953,0.3046875,-0.06689453,-0.1699219
1405,-58,-16.25,-87.3125,-1.005859,-0.07226563,0.2133789,0.3046875,-0.05810547,-0.1699219
1409,-30.25,3.875,-78.375,-1.013672,-0.08789063,0.2675781,0.3022461,-0.046875,-0.1728516
1413,-9.0625,18.4375,-72.3125,-1.095215,-0.04150391,0.2290039,0.3046875,-0.03808594,-0.1699219
1417,3.5625,18.625,-68.625,-1.172852,0.04394531,0.159668,0.3046875,-0.03466797,-0.1699219
1421,5,12.8125,-65.9375,-1.227051,0.1367188,0.09423828,0.3046875,-0.02587891,-0.1674805
1425,-3,3.5,-59.5,-1.230957,0.2070313,0.03662109,0.3046875,-0.0234375,-0.1674805
1429,-14.875,-3.25,-48.5,-1.227051,0.1953125,0.04052734,0.3022461,-0.01806641,-0.1645508
1433,-21.0625,-6.9375,-34.625,-1.227051,0.1254883,0.1020508,0.3007813,-0.01171875,-0.1674805
1437,-13.375,-4,-18.375,-1.165039,0.02050781,0.1635742,0.3007813,-0.008300781,-0.1674805
1441,0.5625,4.6875,-7.6875,-1.133789,-0.002441406,0.1943359,0.3007813,-0.005859375,-0.1660156
1445,9.125,7.4375,-0.8125,-1.180664,0.04394531,0.1635742,0.3022461,-0.006835938,-0.1674805
1449,7.5625,0.75,8.3125,-1.211426,0.1176758,0.1020508,0.3022461,-0.008300781,-0.1645508
1453,1.0625,-5,18,-1.187988,0.121582,0.09814453,0.3007813,-0.006835938,-0.1660156
1457,-2.0625,-7.625,27.125,-1.180664,0.105957,0.1328125,0.3007813,-0.009277344,-0.1674805
1461,2.6875,-5.375,37.75,-1.20752,0.05908203,0.2094727,0.3007813,-0.01318359,-0.1674805
1465,16.9375,-3,46.5625,-1.261719,0.08642578,0.2480469,0.3022461,-0.015625,-0.168457
1469,30.8125,-2.3125,59.0625,-1.343262,0.121582,0.2441406,0.3022461,-0.02197266,-0.1699219
1473,41.0625,0.125,74.5,-1.370117,0.1914063,0.2402344,0.3022461,-0.02929688,-0.1674805
1477,46.9375,1.8125,92,-1.428223,0.2573242,0.2060547,0.3056641,-0.03710938,-0.168457
1481,41.9375,-0.9375,111.0625,-1.471191,0.3193359,0.1713867,0.3032227,-0.04931641,-0.1699219
1485,37.4375,-7.0625,129.75,-1.509766,0.3120117,0.159668,0.3046875,-0.06298828,-0.1713867
1489,33.4375,-12.125,146.3125,-1.48291,0.3081055,0.159668,0.3046875,-0.07421875,-0.1713867
1493,29.875,-17.25,159.375,-1.48291,0.2807617,0.1518555,0.3022461,-0.08935547,-0.1738281
1497,27.3125,-21.875,168.375,-1.40918,0.3041992,0.1210938,0.2983398,-0.1069336,-0.1738281
1501,22.375,-21.0625,174.3125,-1.413086,0.2807617,0.1328125,0.2963867,-0.1196289,-0.175293
1505,28.5625,-16.8125,184.5625,-1.424316,0.2729492,0.1518555,0.2924805,-0.1381836,-0.1782227
1509,29.25,-9.5,199.625,-1.471191,0.4013672,0.1210938,0.2841797,-0.1533203,-0.1796875
1513,16.4375,-12.3125,213.6875,-1.560059,0.4750977,0.07519531,0.2792969,-0.1679688,-0.1796875
1517,-1.0625,-31.625,221.8125,-1.618164,0.4516602,0.03271484,0.2700195,-0.1870117,-0.1796875
1521,-17.5,-50.8125,227.1875,-1.541016,0.4633789,0.04443359,0.2583008,-0.2055664,-0.1835938
1526,-28.0625,-57,234.5625,-1.45166,0.3740234,0.1171875,0.253418,-0.2167969,-0.1865234
1530,-18.125,-49.5625,243.625,-1.405273,0.269043,0.2329102,0.2368164,-0.2319336,-0.1943359
1534,-1.625,-44,250.5625,-1.413086,0.3388672,0.2172852,0.2211914,-0.2480469,-0.1972656
1538,-1.375,-41.5625,260.6875,-1.393555,0.4907227,0.159668,0.2119141,-0.2583008,-0.199707
1542,-6.4375,-41.4375,276.9375,-1.362793,0.4711914,0.1479492,0.1928711,-0.2768555,-0.2041016
1546,-15.5625,-48.375,288,-1.223145,0.5175781,0.07910156,0.1713867,-0.2905273,-0.206543
1550,-29.4375,-54.875,293.25,-1.083496,0.4555664,0.07128906,0.1567383,-0.2993164,-0.2094727
1554,-37,-59.125,296.125,-0.9013672,0.3388672,0.1020508,0.1318359,-0.3129883,-0.2148438
1558,-30.75,-53.625,291.4375,-0.7890625,0.2612305,0.1787109,0.105957,-0.3193359,-0.21875
1562,-20.625,-52.4375,285.75,-0.7036133,0.2265625,0.1943359,0.09033203,-0.3256836,-0.2216797
1566,-8.0625,-50.75,281.5,-0.5756836,0.2495117,0.1904297,0.06396484,-0.3305664,-0.2216797
1570,-5.25,-44.0625,277.3125,-0.4750977,0.3271484,0.1518555,0.03808594,-0.3354492,-0.2246094
1574,-9.3125,-44.0625,268.25,-0.3823242,0.3662109,0.1171875,0.02246094,-0.3369141,-0.2255859
1578,-12.3125,-44.3125,261.5625,-0.3510742,0.3583984,0.1020508,-0.004394531,-0.3344727,-0.2246094
1582,-21.5,-49.3125,254.25,-0.215332,0.3857422,0.07910156,-0.02832031,-0.3320313,-0.2255859
1586,-21.375,-49.125,243.875,-0.1650391,0.269043,0.140625,-0.04394531,-0.3305664,-0.2255859
1590,-14.3125,-49.5,235,0.0009765625,0.2924805,0.1367188,-0.06494141,-0.3256836,-0.2255859
1594,-7.6875,-38.25,220.3125,0.1171875,0.3583984,0.1904297,-0.08789063,-0.3178711,-0.2255859
1598,-7.375,-38.4375,206.25,0.07470703,0.3974609,0.1132813,-0.1020508,-0.3129883,-0.2246094
1602,-14.6875,-48.0625,196.375,0.140625,0.4165039,0.09033203,-0.1201172,-0.3056641,-0.2231445
1606,-16.125,-48.3125,182.375,0.3071289,0.3779297,0.1826172,-0.1376953,-0.2954102,-0.2231445
1610,-7.75,-41.6875,173,0.3652344,0.3544922,0.2021484,-0.1474609,-0.2895508,-0.2216797
1614,-8.875,-41.8125,157.625,0.3378906,0.5175781,0.1171875,-0.1625977,-0.2792969,-0.2202148
1618,-31.25,-60.6875,143.1875,0.3188477,0.5253906,0.02099609,-0.1772461,-0.2695313,-0.2216797
1622,-44.8125,-79.875,136.875,0.4619141,0.3349609,0.02490234,-0.1855469,-0.2631836,-0.2163086
1626,-40.3125,-79.375,135.0625,0.7294922,0.140625,0.06347656,-0.2006836,-0.2519531,-0.2148438
1630,-27.75,-56.75,130.5,0.9853516,0.03613281,0.02490234,-0.2114258,-0.2407227,-0.2119141
1634,-21.5625,-30.5,115.5625,1.175293,-0.02587891,-0.02832031,-0.215332,-0.234375,-0.2109375
1638,-26.375,-13.75,81.3125,1.175293,0.008789063,-0.1054688,-0.2246094,-0.2246094,-0.2109375
1642,-38.75,-14.5625,43.75,1.13623,-0.04882813,-0.1362305,-0.2294922,-0.2182617,-0.2094727
1646,-43.75,-12.75,4.1875,1.22168,-0.05664063,-0.04003906,-0.2319336,-0.2143555,-0.2109375
1650,-39.625,3.625,-30.125,1.147949,-0.03759766,0.105957,-0.2319336,-0.2104492,-0.2119141
1655,-23.625,17.75,-57,0.9658203,0.05517578,0.2133789,-0.2294922,-0.2143555,-0.2148438
1659,-5.0625,25.625,-75.6875,0.8071289,0.1953125,0.3291016,-0.2255859,-0.2167969,-0.2177734
1663,14.9375,31.4375,-88.1875,0.6557617,0.3232422,0.4018555,-0.2197266,-0.2216797,-0.2202148
1667,35.5,32.125,-87.1875,0.5126953,0.4321289,0.3867188,-0.215332,-0.2294922,-0.2202148
1671,46.0625,30.75,-79.875,0.5161133,0.5952148,0.2788086,-0.2104492,-0.2358398,-0.2231445
1675,38.9375,31.6875,-74.5625,0.5708008,0.7197266,0.1748047,-0.2021484,-0.2441406,-0.2163086
1679,26.6875,30.5,-71.75,0.5820313,0.7080078,0.1210938,-0.1962891,-0.2519531,-0.2202148
1683,17.25,28.9375,-77.4375,0.6210938,0.6694336,0.1635742,-0.1923828,-0.2529297,-0.2202148
1687,21.5,33.375,-83.0625,0.6054688,0.5644531,0.2749023,-0.1855469,-0.2607422,-0.2216797
1691,35.8125,39.875,-82.6875,0.6015625,0.5488281,0.2866211,-0.1782227,-0.2680664,-0.2216797
1695,45.25,47.25,-87.0625,0.5668945,0.6069336,0.2519531,-0.1708984,-0.2719727,-0.2216797
1699,45.25,45.8125,-92.5,0.4931641,0.6655273,0.144043,-0.1640625,-0.2783203,-0.2216797
1703,32.625,38.6875,-102.0625,0.4736328,0.7548828,0.1328125,-0.1542969,-0.2880859,-0.2202148
1707,21.3125,36.0625,-114,0.4038086,0.7236328,0.1943359,-0.1459961,-0.2919922,-0.2216797
1711,25.75,35.875,-118.9375,0.3227539,0.6459961,0.2827148,-0.1367188,-0.2983398,-0.2216797
1715,42.1875,41.75,-120.3125,0.2646484,0.6459961,0.3173828,-0.1259766,-0.3041992,-0.2216797
1719,55.0625,45.625,-113.3125,0.2026367,0.7080078,0.2250977,-0.1152344,-0.3120117,-0.2177734
1723,50.1875,44.875,-103.625,0.2451172,0.824707,0.105957,-0.1044922,-0.3193359,-0.2163086
1727,28.25,43.875,-105.8125,0.2758789,0.8945313,0.02880859,-0.09472656,-0.3242188,-0.2133789
1731,10.375,42.9375,-119.125,0.2026367,0.824707,0.1171875,-0.08642578,-0.328125,-0.2163086
1735,10.625,40.3125,-132.4375,0.0009765625,0.7548828,0.2441406,-0.07470703,-0.3330078,-0.2163086
1739,27.4375,29.25,-136.5625,-0.1186523,0.6923828,0.3291016,-0.06054688,-0.3354492,-0.2148438
1743,50,27.9375,-133.75,-0.08789063,0.7895508,0.3095703,-0.05322266,-0.3378906,-0.2148438
1747,47.8125,28.125,-125.125,-0.03320313,0.9916992,0.1132813,-0.0390625,-0.3457031,-0.2094727
1751,16.5,23.5,-120.5625,-0.01025391,1.104492,-0.02441406,-0.02587891,-0.3491211,-0.206543
1755,-26.625,14.5625,-122.0625,0.03173828,1.06543,-0.05126953,-0.02001953,-0.3481445,-0.2080078
1759,-33.5,17.375,-138.25,-0.1069336,0.7041016,0.2905273,-0.006835938,-0.3491211,-0.2109375
1763,3.0625,20,-143.75,-0.2504883,0.6069336,0.4018555,0.005859375,-0.3466797,-0.2109375
1767,44.8125,26.5,-151.5,-0.3046875,0.6962891,0.4521484,0.01660156,-0.3457031,-0.2094727
1771,75,35.875,-140.375,-0.3510742,0.8671875,0.2983398,0.02832031,-0.3481445,-0.2055664
1775,69.8125,41.75,-119.4375,-0.3588867,1.166504,0.09814453,0.04394531,-0.3520508,-0.1987305
1779,24.3125,28.9375,-102.5625,-0.3706055,1.341309,-0.112793,0.05224609,-0.3520508,-0.1943359
1784,-40.875,2.25,-99.25,-0.328125,1.259766,-0.1401367,0.06298828,-0.3505859,-0.1943359
1788,-84.125,-28.75,-114,-0.3242188,0.9335938,0.01708984,0.07128906,-0.3442383,-0.199707
1792,-71.6875,-38.125,-132.875,-0.2504883,0.5292969,0.3330078,0.07617188,-0.3417969,-0.2041016
1796,-19.75,-6.875,-131.9375,-0.1767578,0.4750977,0.4829102,0.08447266,-0.3330078,-0.2094727
1800,17.5,29.1875,-126.125,-0.3242188,0.6538086,0.3095703,0.09521484,-0.3291016,-0.2094727
1804,22.625,37.6875,-119.4375,-0.4248047,0.8671875,0.09814453,0.1035156,-0.328125,-0.2094727
1808,-8.375,32.625,-113.6875,-0.4443359,0.9643555,-0.05908203,0.1152344,-0.3256836,-0.2094727
1812,-56.1875,15.5625,-118,-0.4672852,0.8867188,-0.06298828,0.1259766,-0.3193359,-0.2055664
1816,-83.4375,-8.375,-139.375,-0.4711914,0.5527344,0.1289063,0.1308594,-0.3129883,-0.2119141
1820,-57.0625,-5.6875,-160,-0.4555664,0.2456055,0.3828125,0.1416016,-0.3017578,-0.2177734
1824,-16.375,22.125,-161.3125,-0.4907227,0.3193359,0.3945313,0.1533203,-0.2929688,-0.2216797
1828,9.1875,42.5625,-154.1875,-0.6689453,0.4516602,0.2749023,0.1616211,-0.2856445,-0.21875
1832,5.1875,48.3125,-143.0625,-0.715332,0.6538086,0.1171875,0.1723633,-0.2807617,-0.2177734
1836,-22.375,42.375,-129.3125,-0.6806641,0.6264648,0.009765625,0.1865234,-0.2719727,-0.2148438
1840,-54.0625,40.1875,-136.4375,-0.6884766,0.6030273,0.05566406,0.1904297,-0.2641602,-0.2119141
1844,-71.8125,11.3125,-161.75,-0.8706055,0.2924805,0.1943359,0.199707,-0.2519531,-0.2163086
1848,-42.5,0.1875,-191.125,-0.8237305,0.01660156,0.4633789,0.2094727,-0.2382813,-0.2202148
1852,-1,30.0625,-190.8125,-0.878418,0.1367188,0.4560547,0.21875,-0.2294922,-0.2202148
1856,13.25,48.4375,-175.125,-1.013672,0.3623047,0.2597656,0.2294922,-0.2158203,-0.2163086
1860,-7.5,44.5,-160.875,-1.087402,0.5136719,0.09033203,0.2402344,-0.2055664,-0.2119141
1864,-45.5,26.75,-159.625,-1.165039,0.4438477,0.1098633,0.2451172,-0.1967773,-0.2119141
1868,-63.125,-5.5,-177.9375,-1.304199,0.2265625,0.2329102,0.253418,-0.1821289,-0.2094727
1872,-52.9375,-25.125,-193,-1.269531,0.1293945,0.4018555,0.2568359,-0.1621094,-0.2148438
1876,-40.125,-20.1875,-195.5,-1.211426,0.2109375,0.3598633,0.2617188,-0.1494141,-0.2148438
1880,-45.0625,-14.0625,-184.6875,-1.184082,0.3349609,0.2441406,0.2651367,-0.1318359,-0.2202148
1884,-66.9375,-13.3125,-167.75,-1.145508,0.3583984,0.1674805,0.269043,-0.1132813,-0.2177734
1888,-92.4375,-15.125,-152.3125,-1.129883,0.2416992,0.2060547,0.2700195,-0.09960938,-0.2216797
1892,-100.0625,-19.6875,-145.625,-1.137695,-0.02587891,0.3520508,0.2700195,-0.08056641,-0.2255859
1896,-78.1875,-16.5,-150.6875,-1.037109,-0.1616211,0.4443359,0.2700195,-0.06298828,-0.2270508
1900,-52.1875,3.75,-150.25,-0.9790039,-0.1191406,0.4521484,0.2700195,-0.05078125,-0.2255859
1904,-36.375,24.0625,-140.5625,-1.021484,-0.07617188,0.375,0.269043,-0.03808594,-0.2255859
1908,-28.25,35.625,-123.875,-1.060547,-0.06445313,0.3056641,0.2709961,-0.02197266,-0.2216797
1913,-22.375,46.75,-107.8125,-1.017578,-0.02978516,0.2441406,0.2709961,-0.01171875,-0.2177734
1917,-24.4375,57.0625,-100.125,-1.013672,0.008789063,0.1635742,0.2724609,-0.0004882813,-0.2133789
1921,-33.5625,54.5625,-101.3125,-1.114746,-0.02587891,0.140625,0.2734375,0.007324219,-0.206543
1925,-38.8125,40.875,-104.625,-1.137695,-0.07617188,0.1748047,0.2758789,0.01757813,-0.2041016
1929,-38.875,36.6875,-105.1875,-1.091309,-0.1420898,0.2441406,0.2749023,0.02880859,-0.2011719
1933,-27.1875,39.9375,-102.25,-1.149414,-0.2392578,0.2983398,0.2734375,0.03857422,-0.1958008
1937,-7.3125,44.4375,-92.8125,-1.187988,-0.2626953,0.3134766,0.2724609,0.04736328,-0.1943359
1941,11.75,49.6875,-79.5625,-1.257813,-0.1928711,0.2944336,0.2734375,0.05517578,-0.1904297
1945,24.8125,49.5,-61.0625,-1.331543,-0.1152344,0.2827148,0.2734375,0.06103516,-0.1875
1949,31.25,43.5625,-41.625,-1.37793,-0.06054688,0.2675781,0.2724609,0.06494141,-0.1835938
1953,38.25,34.125,-25.5,-1.397461,-0.01025391,0.3017578,0.2734375,0.0625,-0.1821289
1957,44.0625,28.3125,-10.875,-1.381836,0.05126953,0.3212891,0.2749023,0.06494141,-0.1821289
1961,47.5625,25.875,9.1875,-1.428223,0.07080078,0.3520508,0.2724609,0.06396484,-0.1782227
1965,51.625,21.5625,37.0625,-1.459473,0.09033203,0.3173828,0.2749023,0.05761719,-0.1806641
1969,54.3125,16.625,64.9375,-1.467285,0.1020508,0.3212891,0.2783203,0.04980469,-0.1782227
1973,56.1875,10.3125,88.9375,-1.475098,0.1293945,0.340332,0.2807617,0.04736328,-0.1796875
1977,56.5,1.5625,107.1875,-1.490234,0.121582,0.3291016,0.2832031,0.03369141,-0.1806641
1981,56.3125,-10.8125,124.0625,-1.479004,0.1293945,0.2827148,0.2856445,0.02148438,-0.1835938
1985,54.125,-17.3125,135.1875,-1.428223,0.1601563,0.2441406,0.2880859,0.01123047,-0.1865234
1989,52.6875,-17.8125,145,-1.443848,0.1445313,0.2402344,0.2900391,-0.003417969,-0.1875
1993,54.1875,-18.3125,156.25,-1.467285,0.1367188,0.2402344,0.2915039,-0.02197266,-0.1875
1997,55.9375,-16.5625,170.25,-1.494141,0.15625,0.2558594,0.2915039,-0.03466797,-0.1928711
2001,61.1875,-13.3125,183.8125,-1.571777,0.1640625,0.2636719,0.2915039,-0.05175781,-0.1943359
2005,60.1875,-13.375,204.75,-1.645508,0.253418,0.2094727,0.2915039,-0.07324219,-0.1958008
2009,44.25,-18.75,221.6875,-1.625977,0.3740234,0.1289063,0.2866211,-0.08935547,-0.1972656
2013,22.4375,-27.1875,234.125,-1.637695,0.3041992,0.1328125,0.2841797,-0.1118164,-0.1987305
2017,13.3125,-35.6875,240.75,-1.633789,0.2265625,0.1865234,0.2773438,-0.1342773,-0.2026367
2021,11.75,-37.5,248.5625,-1.583496,0.15625,0.2290039,0.2724609,-0.1508789,-0.2026367
2025,20.5625,-30.3125,261.1875,-1.541016,0.09814453,0.2675781,0.2617188,-0.1694336,-0.206543
2029,35.6875,-20.625,271.25,-1.533203,0.140625,0.2866211,0.25,-0.1943359,-0.2080078
2033,38.5,-15.375,282.625,-1.498047,0.2807617,0.2060547,0.2402344,-0.2094727,-0.2080078
2037,27.4375,-14.6875,296.5,-1.459473,0.3662109,0.140625,0.2270508,-0.2319336,-0.206543
2042,6,-23.5625,303.3125,-1.467285,0.4282227,0.105957,0.2104492,-0.2543945,-0.2080078
2046,-13,-40.75,305.625,-1.385742,0.3349609,0.140625,0.199707,-0.2670898,-0.2094727
2050,-24.4375,-55.3125,304.6875,-1.219238,0.3041992,0.1328125,0.1772461,-0.2817383,-0.2094727
2054,-32.625,-62.5625,304.375,-1.052734,0.203125,0.1518555,0.1533203,-0.296875,-0.2177734
2058,-25.75,-63.8125,301.5,-0.8818359,0.09423828,0.2094727,0.1376953,-0.3041992,-0.2202148
2062,-16.3125,-55.6875,296.9375,-0.746582,0.171875,0.1787109,0.1103516,-0.3129883,-0.2255859
2066,-20.4375,-49.4375,298.8125,-0.6455078,0.2729492,0.105957,0.08447266,-0.3208008,-0.2285156
2070,-31,-44.75,296.1875,-0.5292969,0.2612305,0.140625,0.06787109,-0.3256836,-0.2299805
2074,-34.75,-48.125,281.5625,-0.5644531,0.2768555,0.1132813,0.04150391,-0.328125,-0.2324219
2078,-45.625,-62.375,272.6875,-0.4907227,0.2729492,0.1132813,0.01416016,-0.328125,-0.237793
2082,-38.8125,-69.3125,260,-0.3242188,0.1757813,0.2172852,-0.001953125,-0.3256836,-0.2392578
2086,-22.5625,-62.4375,251,-0.1342773,0.171875,0.2402344,-0.02929688,-0.3232422,-0.2392578
2090,1.5625,-44,243.5625,0.06298828,0.1992188,0.2983398,-0.05078125,-0.3178711,-0.2421875
2094,13.4375,-23.375,232.1875,0.07080078,0.315918,0.2480469,-0.06640625,-0.3154297,-0.237793
2098,6.625,-25.0625,218.0625,0.01660156,0.4165039,0.1210938,-0.08544922,-0.3095703,-0.2368164
2102,-13,-42.25,198.9375,0.08251953,0.5253906,0.02490234,-0.1044922,-0.3041992,-0.2353516
2106,-34.625,-57.25,180.4375,0.1210938,0.4125977,0.09814453,-0.1162109,-0.2983398,-0.2353516
2110,-41.875,-71.125,164.4375,0.2255859,0.4013672,0.06738281,-0.1328125,-0.2880859,-0.2338867
2114,-48.75,-78.375,147.6875,0.4038086,0.3232422,0.09814453,-0.1484375,-0.2783203,-0.2338867
2118,-52.8125,-75.25,131.25,0.5317383,0.3193359,0.1171875,-0.1582031,-0.2719727,-0.2338867
2122,-58.625,-67.5,115.625,0.6015625,0.300293,0.1826172,-0.1723633,-0.2607422,-0.2324219
2126,-57.1875,-62.0625,101.6875,0.6289063,0.2612305,0.2290039,-0.1816406,-0.2495117,-0.2353516
2130,-54.5625,-60.875,86,0.6328125,0.2456055,0.2094727,-0.1914063,-0.2431641,-0.2338867
2134,-61.875,-71.6875,73.4375,0.6982422,0.2495117,0.04052734,-0.1982422,-0.2329102,-0.2324219
2138,-79.75,-87.75,50.1875,0.8613281,0.2495117,-0.06689453,-0.206543,-0.2255859,-0.230957
2142,-89.625,-95.875,25.9375,1.035645,0.1098633,-0.04394531,-0.2128906,-0.2192383,-0.2299805
2146,-79.375,-84.6875,7.5,1.194336,0.004882813,-0.03222656,-0.2211914,-0.2104492,-0.2270508
2150,-59.125,-54.875,-10.0625,1.291504,-0.01416016,0.02099609,-0.2246094,-0.2070313,-0.2255859
2154,-33.1875,-16.4375,-26.4375,1.275879,-0.01025391,0.1020508,-0.2255859,-0.2045898,-0.2246094
2158,-3.75,19.4375,-41.5,1.117188,0.05517578,0.1943359,-0.222168,-0.2070313,-0.2231445
2162,16.625,39.4375,-60.6875,0.9077148,0.237793,0.2329102,-0.2211914,-0.2094727,-0.2285156
2166,22.6875,43.5625,-79.9375,0.7255859,0.4282227,0.2788086,-0.2163086,-0.2128906,-0.2270508
2171,25.8125,43.25,-93.9375,0.59375,0.5332031,0.3979492,-0.2089844,-0.2216797,-0.2299805
2175,35.3125,46.25,-92.1875,0.4697266,0.5605469,0.4633789,-0.2006836,-0.2294922,-0.2324219
2179,50.0625,48.6875,-76.375,0.3769531,0.6069336,0.4443359,-0.1962891,-0.234375,-0.2338867
2183,56.375,46.875,-61.9375,0.4155273,0.7236328,0.3291016,-0.1889648,-0.2431641,-0.2338867
2187,46.375,45.3125,-54.375,0.4619141,0.793457,0.2250977,-0.1816406,-0.2504883,-0.2324219
2191,27,39.3125,-55.9375,0.4814453,0.7817383,0.1518555,-0.1782227,-0.2543945,-0.2338867
2195,12.4375,30.3125,-60.9375,0.5239258,0.6655273,0.1557617,-0.1723633,-0.2592773,-0.2353516
2199,8.25,28.9375,-69.3125,0.6015625,0.5878906,0.1904297,-0.1665039,-0.2631836,-0.2353516
2203,13.625,36.875,-78.875,0.6171875,0.4985352,0.2250977,-0.1625977,-0.2670898,-0.2353516
2207,22.125,47.6875,-86.3125,0.5859375,0.5058594,0.2329102,-0.1533203,-0.2729492,-0.2353516
2211,28.3125,56.625,-93.625,0.4658203,0.5019531,0.2060547,-0.1435547,-0.2783203,-0.237793
2215,26.0625,53.5625,-99.375,0.3925781,0.5800781,0.1328125,-0.1367188,-0.2817383,-0.237793
2219,13.75,49.3125,-112.9375,0.4155273,0.6030273,0.1479492,-0.1259766,-0.2880859,-0.2392578
2223,8.0625,51.8125,-125.6875,0.3496094,0.5253906,0.1982422,-0.112793,-0.2944336,-0.2436523
2227,19.25,56.625,-139.0625,0.3227539,0.4165039,0.3330078,-0.1054688,-0.296875,-0.2407227
2231,42.375,68.25,-148.125,0.2373047,0.3974609,0.3364258,-0.09033203,-0.3032227,-0.2436523
2235,55.3125,73.125,-152.75,0.1557617,0.5175781,0.2250977,-0.07470703,-0.3095703,-0.237793
2239,50.3125,75.125,-157.8125,0.05908203,0.6420898,0.1367188,-0.06298828,-0.3168945,-0.237793
2243,31.125,70.5625,-161.3125,-0.02978516,0.7431641,0.07128906,-0.04492188,-0.3232422,-0.2368164
2247,12.5,67.0625,-166.375,-0.06445313,0.6420898,0.2021484,-0.02685547,-0.3256836,-0.2353516
2251,25.625,77.9375,-173.1875,-0.2348633,0.5214844,0.3212891,-0.01513672,-0.328125,-0.2353516
2255,45,71.875,-174.5,-0.362793,0.4907227,0.3291016,0.003417969,-0.3305664,-0.2324219
2259,73.375,71.75,-177.625,-0.3393555,0.5214844,0.3095703,0.02148438,-0.3330078,-0.2285156
2263,80.125,76.125,-176.25,-0.3393555,0.7041016,0.1289063,0.03417969,-0.3354492,-0.2246094
2267,54.9375,70,-174.3125,-0.3745117,0.8867188,-0.04003906,0.05566406,-0.3393555,-0.2177734
2271,5.625,53.3125,-178.75,-0.4326172,0.9101563,-0.07470703,0.07128906,-0.3369141,-0.2148438
2275,-17.4375,38.625,-200.625,-0.5756836,0.7392578,0.125,0.08300781,-0.3344727,-0.2119141
2279,-1.5,23.375,-216.1875,-0.8125,0.3505859,0.3637695,0.1035156,-0.3256836,-0.2119141
2283,50.4375,18.4375,-224.4375,-0.7617188,0.3081055,0.3867188,0.1201172,-0.3193359,-0.2109375
2287,78.125,36.6875,-217.5625,-0.7114258,0.5991211,0.1748047,0.1342773,-0.3154297,-0.206543
2291,56.875,44.75,-204.3125,-0.7851563,0.8828125,-0.03613281,0.1499023,-0.3095703,-0.1987305
2295,1.5625,28.875,-192.125,-0.831543,1.007324,-0.1821289,0.1689453,-0.3032227,-0.1943359
2300,-46.8125,13.1875,-196.8125,-0.8666992,0.8168945,-0.06298828,0.1782227,-0.2944336,-0.1918945
2304,-69.125,-3.125,-206.9375,-1.067871,0.4750977,0.07910156,0.1904297,-0.2807617,-0.199707
2308,-41.375,-12.25,-206.6875,-0.9711914,0.237793,0.2788086,0.203125,-0.2641602,-0.2055664
2312,-17.3125,13.25,-196.5,-0.9052734,0.4086914,0.2290039,0.2128906,-0.2568359,-0.2041016
2316,-22.875,28,-182.0625,-0.9594727,0.5371094,0.07519531,0.2236328,-0.2416992,-0.2055664
2320,-47,24.4375,-173.0625,-0.9633789,0.5410156,0.005859375,0.2329102,-0.2280273,-0.2041016
2324,-71.5,15.8125,-172.3125,-0.9326172,0.4438477,-0.02441406,0.2392578,-0.2158203,-0.2026367
2328,-92.9375,11.875,-177.3125,-0.8935547,0.253418,0.05957031,0.2475586,-0.1982422,-0.206543
2332,-83.5,12.1875,-196.5625,-0.9326172,-0.1381836,0.2250977,0.2558594,-0.1791992,-0.206543
2336,-37.25,35.375,-206.125,-0.9365234,-0.2861328,0.3789063,0.2602539,-0.1669922,-0.2094727
2340,2.9375,70.0625,-201.8125,-1.07959,-0.1113281,0.2983398,0.2675781,-0.1494141,-0.206543
2344,7.6875,80.75,-191,-1.285156,0.105957,0.1328125,0.2783203,-0.1318359,-0.199707
2348,-12.9375,68.875,-180.5,-1.389648,0.1679688,0.05175781,0.2841797,-0.1220703,-0.1958008
2352,-35.125,49.75,-174.5625,-1.45166,0.06689453,0.06347656,0.2900391,-0.1044922,-0.1850586
2356,-49.5625,23.625,-179.75,-1.443848,-0.02978516,0.06738281,0.2963867,-0.08544922,-0.1850586
2360,-53.6875,10.5,-188.75,-1.28125,-0.1074219,0.144043,0.2963867,-0.07080078,-0.1821289
2364,-43.125,24.4375,-189.75,-1.23877,-0.1459961,0.2133789,0.2963867,-0.05078125,-0.1821289
2368,-31.25,43.9375,-178.25,-1.315918,-0.1269531,0.2172852,0.2983398,-0.02929688,-0.1782227
2372,-23.4375,55.9375,-159.75,-1.45166,-0.08789063,0.2250977,0.2998047,-0.01806641,-0.1728516
2376,-18.4375,53.6875,-141.5,-1.544922,-0.05664063,0.2290039,0.2998047,-0.0004882813,-0.1699219
2380,-14.5,38.3125,-129.5,-1.583496,-0.006347656,0.2519531,0.2973633,0.01269531,-0.1645508
2384,-12.0625,21.5625,-115.375,-1.505859,0.05908203,0.2749023,0.2983398,0.02148438,-0.1616211
2388,-12.75,14.4375,-100.5,-1.424316,0.1254883,0.2636719,0.2939453,0.03369141,-0.1616211
2392,-14.5625,12.5,-81.75,-1.381836,0.140625,0.2558594,0.2915039,0.04150391,-0.1577148
2396,-14.1875,14,-60.3125,-1.339355,0.1176758,0.2558594,0.2915039,0.04638672,-0.15625
2400,-10.0625,16.375,-36.6875,-1.339355,0.05908203,0.2788086,0.2900391,0.05517578,-0.1547852
2404,3.0625,14.8125,-10.8125,-1.389648,0.004882813,0.2866211,0.2890625,0.05517578,-0.1547852
2408,13.25,7.0625,4.625,-1.351074,0.06298828,0.2558594,0.2880859,0.05615234,-0.1538086
2412,20.25,-1.375,10.9375,-1.308105,0.03222656,0.2290039,0.2924805,0.05517578,-0.1538086
2416,34.375,-0.5625,22.625,-1.304199,0.05908203,0.1826172,0.2915039,0.05126953,-0.1523438
2420,41.5625,5.875,42.25,-1.327637,0.1176758,0.1098633,0.2915039,0.04980469,-0.1538086
2424,44,6.125,63.5625,-1.370117,0.1484375,0.06738281,0.2924805,0.04248047,-0.1547852
2429,41.8125,3.5,79.9375,-1.385742,0.1914063,0.04785156,0.2949219,0.03613281,-0.15625
2433,39.25,0,94.5625,-1.439941,0.1601563,0.07519531,0.2983398,0.02734375,-0.1591797
2437,41.75,-5.625,109.375,-1.48291,0.1367188,0.105957,0.2998047,0.01757813,-0.1577148
2441,42.8125,-11.875,125.375,-1.509766,0.121582,0.1132813,0.3007813,0.00390625,-0.1606445
2445,42.0625,-19.875,142.625,-1.529297,0.1293945,0.1098633,0.3032227,-0.006835938,-0.1616211
2449,40.75,-22.6875,160,-1.459473,0.1640625,0.105957,0.3046875,-0.02197266,-0.1660156
2453,32.5625,-18.875,177,-1.459473,0.1796875,0.08642578,0.3046875,-0.04199219,-0.168457
2457,23.0625,-18.5,192.8125,-1.471191,0.1640625,0.1020508,0.3046875,-0.05566406,-0.168457
2461,19.6875,-21.75,200.75,-1.494141,0.1176758,0.1479492,0.3056641,-0.07568359,-0.1713867
2465,20.3125,-28.875,206.125,-1.541016,0.09033203,0.1748047,0.2998047,-0.09716797,-0.175293
2469,21.8125,-38.8125,212.625,-1.525391,0.09814453,0.1557617,0.2973633,-0.109375,-0.1767578
2473,18.5,-42.75,219.5,-1.424316,0.15625,0.1132813,0.2915039,-0.1318359,-0.1796875
2477,16.5,-39.8125,222.1875,-1.339355,0.140625,0.1328125,0.2817383,-0.1508789,-0.1821289
2481,23.3125,-30.875,226.625,-1.335449,0.1254883,0.1557617,0.2773438,-0.1655273,-0.1850586
2485,30.25,-27,230.8125,-1.397461,0.2109375,0.1367188,0.2666016,-0.1870117,-0.1865234
2489,23.25,-37.1875,232.4375,-1.420898,0.3120117,0.07519531,0.2558594,-0.2055664,-0.1889648
2493,11.875,-51.4375,233.1875,-1.401367,0.3193359,0.08251953,0.2475586,-0.2182617,-0.1889648
2497,10.75,-56,236.875,-1.277344,0.2768555,0.140625,0.2329102,-0.2358398,-0.1928711
2501,20.1875,-41.3125,246.0625,-1.184082,0.3081055,0.1826172,0.2177734,-0.2529297,-0.1958008
2505,23.5625,-29.75,253.5625,-1.242188,0.4125977,0.1132813,0.2080078,-0.2641602,-0.1972656
2509,14.625,-34.8125,260.3125,-1.219238,0.5097656,0.06738281,0.1889648,-0.2817383,-0.1972656
2513,2.6875,-41.8125,263.5625,-1.103027,0.5371094,0.03662109,0.1713867,-0.2983398,-0.199707
2517,-16.0625,-51.8125,262.4375,-1.017578,0.5253906,0.03271484,0.1582031,-0.3041992,-0.2026367
2521,-19.4375,-53.625,261.0625,-0.8354492,0.3818359,0.1328125,0.1342773,-0.3178711,-0.2041016
2525,-5.5625,-41.6875,263.875,-0.7617188,0.3310547,0.2060547,0.1118164,-0.3256836,-0.2080078
2529,0.9375,-35.75,271,-0.7192383,0.4013672,0.159668,0.09521484,-0.3320313,-0.2109375
2533,-3.4375,-37.8125,271.5,-0.6611328,0.5019531,0.1020508,0.07226563,-0.3408203,-0.2094727
2537,-28.4375,-52,269.375,-0.6030273,0.5952148,0.001953125,0.04638672,-0.3442383,-0.2119141
2541,-53.5625,-69.25,264.25,-0.4443359,0.4868164,-0.001464844,0.02978516,-0.3432617,-0.2133789
2545,-60.8125,-73.125,254.75,-0.2192383,0.315918,0.1210938,0.002441406,-0.3442383,-0.21875
2549,-35.0625,-55.6875,244,-0.09521484,0.140625,0.2827148,-0.02246094,-0.3369141,-0.2216797
2553,-1.5,-33.5625,239.3125,-0.04492188,0.253418,0.2709961,-0.0390625,-0.3354492,-0.2216797
2558,4.125,-29.375,239.375,-0.01806641,0.4516602,0.1020508,-0.06054688,-0.3305664,-0.2216797
2562,-17.1875,-32.375,230.8125,-0.01806641,0.5878906,-0.02441406,-0.08056641,-0.3242188,-0.2216797
2566,-45.4375,-40.5,225.5,0.1674805,0.5371094,-0.04003906,-0.09619141,-0.3178711,-0.2202148
2570,-58.5,-44.625,206.625,0.1948242,0.3583984,0.06347656,-0.1137695,-0.3081055,-0.2216797
2574,-44.0625,-43.8125,190.0625,0.3535156,0.203125,0.2133789,-0.1342773,-0.2954102,-0.2270508
2578,-16.4375,-28.5,185.75,0.4350586,0.2338867,0.2558594,-0.1435547,-0.2880859,-0.2255859
2582,0.25,-13.0625,189.3125,0.3847656,0.4555664,0.1098633,-0.1582031,-0.2792969,-0.2246094
2586,-27.0625,-13.125,185.5625,0.4350586,0.7392578,-0.1362305,-0.1733398,-0.2695313,-0.2246094
2590,-77.75,-28.375,161.0625,0.4194336,0.7392578,-0.2514648,-0.1806641,-0.2592773,-0.2246094
2594,-125.4375,-55.4375,136.9375,0.4658203,0.5566406,-0.1630859,-0.1899414,-0.2441406,-0.2285156
2598,-128.9375,-64.75,131.9375,0.6054688,0.1796875,0.1518555,-0.2055664,-0.2270508,-0.230957
2602,-83.375,-43.6875,141.375,0.8613281,-0.1074219,0.390625,-0.2128906,-0.2158203,-0.2324219
2606,-27.8125,-2.3125,138.5625,1.082031,-0.1113281,0.4057617,-0.2197266,-0.2006836,-0.2338867
2610,0.3125,25.9375,114.4375,1.039551,0.05517578,0.2441406,-0.2255859,-0.1904297,-0.2324219
2614,-14.3125,18.8125,77.6875,0.8574219,0.2768555,0.03271484,-0.2255859,-0.1845703,-0.2338867
2618,-60,-7.75,44,0.8222656,0.3388672,-0.06689453,-0.2294922,-0.1782227,-0.2392578
2622,-100.9375,-23.1875,17.25,0.9077148,0.1445313,0.07128906,-0.2329102,-0.1704102,-0.2392578
2626,-97.375,-18.875,3,0.9697266,-0.1772461,0.375,-0.234375,-0.1669922,-0.2392578
2630,-48.25,-2.5,-9.5,0.9853516,-0.3173828,0.5712891,-0.2353516,-0.1582031,-0.2407227
2634,7.625,15.625,-21.4375,0.9116211,-0.1269531,0.605957,-0.2329102,-0.1582031,-0.2436523
2638,37.125,18.6875,-35.0625,0.7875977,0.1523438,0.4868164,-0.2319336,-0.1621094,-0.2446289
2642,43,11.75,-52.0625,0.7255859,0.3583984,0.3828125,-0.2294922,-0.1694336,-0.2436523
2646,30.125,0.9375,-63.8125,0.690918,0.4946289,0.2788086,-0.2294922,-0.1743164,-0.2436523
2650,11.75,-3.25,-70,0.7216797,0.4790039,0.2788086,-0.2255859,-0.1791992,-0.2436523
2654,10.875,0.4375,-74.375,0.7490234,0.3857422,0.3095703,-0.2236328,-0.1845703,-0.2407227
2658,21.6875,10.5625,-77.8125,0.7758789,0.3271484,0.340332,-0.2197266,-0.1918945,-0.2421875
2662,33.1875,19.9375,-86.125,0.7294922,0.3505859,0.2749023,-0.2163086,-0.1958008,-0.2436523
2666,31.8125,18.4375,-100.9375,0.690918,0.3974609,0.1479492,-0.2089844,-0.2055664,-0.2421875
2670,16.125,14.3125,-117.3125,0.7021484,0.4204102,0.07128906,-0.2045898,-0.2143555,-0.2436523
2674,7.8125,19,-127.125,0.7333984,0.284668,0.1674805,-0.1982422,-0.2182617,-0.2421875
2678,23.4375,34.375,-132.9375,0.690918,0.1992188,0.2788086,-0.1899414,-0.2280273,-0.2436523
2682,45.5,47.0625,-137.75,0.6210938,0.203125,0.3173828,-0.1806641,-0.2382813,-0.2421875
2687,68.4375,56.5625,-149.25,0.4892578,0.2729492,0.3251953,-0.1748047,-0.2456055,-0.2436523
2691,69.8125,49.75,-163.375,0.3266602,0.5488281,0.1210938,-0.1591797,-0.2607422,-0.2436523
2695,41.875,36.5625,-176.6875,0.3110352,0.6845703,0.105957,-0.1450195,-0.2705078,-0.2436523
2699,27.6875,32.625,-183.0625,0.2138672,0.6577148,0.2172852,-0.1367188,-0.2792969,-0.2421875
2703,19.8125,31.875,-174.375,0.1367188,0.7080078,0.2402344,-0.1210938,-0.2880859,-0.237793
2707,19.25,33.75,-174.375,0.1289063,0.6923828,0.3017578,-0.1054688,-0.2954102,-0.2421875
2711,17.25,32.25,-177.9375,0.05126953,0.7470703,0.2480469,-0.09619141,-0.3007813,-0.2421875
2715,6.375,26.5,-182,0.05517578,0.8012695,0.1787109,-0.07958984,-0.3095703,-0.2421875
2719,0.125,30.0625,-189.75,0.159668,0.6811523,0.355957,-0.06396484,-0.3120117,-0.2436523
2723,28.1875,46.75,-191.8125,-0.02197266,0.4790039,0.4829102,-0.05322266,-0.3144531,-0.2421875
2727,69.5,68.25,-181,-0.1342773,0.5952148,0.5097656,-0.03662109,-0.3208008,-0.2392578
2731,80.8125,80.75,-163.5625,-0.3549805,0.9760742,0.2519531,-0.01513672,-0.3291016,-0.2353516
2735,38.875,57.8125,-159.875,-0.5605469,1.255859,0.05566406,-0.004394531,-0.3320313,-0.230957
2739,-29.625,4,-167.5,-0.5952148,1.294922,-0.03613281,0.01269531,-0.3330078,-0.2285156
2743,-90.25,-28.4375,-170.625,-0.3242188,1.034668,0.07519531,0.02734375,-0.3266602,-0.2338867
2747,-97.625,-29.5625,-179.3125,-0.09521484,0.4985352,0.3710938,0.03417969,-0.3217773,-0.2392578
2751,-38.5,14.375,-180.25,-0.02978516,0.2226563,0.605957,0.04638672,-0.3144531,-0.2460938
2755,21.125,65.8125,-170.4375,-0.2270508,0.3583984,0.4941406,0.06152344,-0.3095703,-0.2460938
2759,46.8125,90.9375,-159.4375,-0.4482422,0.6655273,0.2905273,0.07470703,-0.3095703,-0.2446289
2763,26.5,87.875,-152.0625,-0.6923828,0.921875,0.105957,0.09277344,-0.3095703,-0.2407227
2767,-32.625,37.3125,-162.3125,-0.9052734,1.030762,-0.05126953,0.1079102,-0.3032227,-0.2353516
2771,-106.625,-33.0625,-188.0625,-0.7890625,0.9023438,0.005859375,0.1166992,-0.2983398,-0.237793
2775,-110.4375,-43.3125,-208.6875,-0.4521484,0.2148438,0.5522461,0.128418,-0.2817383,-0.2475586
2779,-29.0625,17.9375,-200.75,-0.4365234,0.0009765625,0.7866211,0.1376953,-0.2670898,-0.2558594
2783,37.875,76.9375,-181.375,-0.6767578,0.2495117,0.5556641,0.1474609,-0.2617188,-0.2529297
2787,57.8125,106.25,-156.0625,-0.8198242,0.6147461,0.3056641,0.1640625,-0.2583008,-0.2460938
2791,33.875,106.375,-137.6875,-0.9516602,0.8168945,0.07519531,0.1796875,-0.2529297,-0.237793
2795,-19.8125,61.125,-149.6875,-1.315918,0.855957,0.005859375,0.1889648,-0.2480469,-0.2324219
2799,-90.6875,-27.75,-171.9375,-1.07959,0.7895508,-0.02050781,0.1987305,-0.2368164,-0.2353516
2803,-115.625,-33.875,-180.1875,-0.6572266,0.269043,0.3481445,0.2055664,-0.2167969,-0.2407227
2807,-64.3125,14.0625,-175.6875,-0.6264648,-0.06835938,0.5595703,0.2104492,-0.2055664,-0.2446289
2811,-20.6875,57.75,-164.3125,-0.8164063,0.1333008,0.390625,0.21875,-0.1904297,-0.2436523
2816,-14.125,69,-157.4375,-0.9790039,0.2768555,0.2675781,0.2285156,-0.1791992,-0.2407227
2820,-29,57.3125,-161.125,-1.12207,0.315918,0.2133789,0.2368164,-0.1704102,-0.237793
2824,-53.0625,30.875,-167.5625,-1.12207,0.284668,0.1787109,0.2451172,-0.1567383,-0.2353516
2828,-71.625,20.0625,-175.25,-0.9907227,0.1254883,0.2441406,0.2509766,-0.1381836,-0.2338867
2832,-63.5,29.25,-181.125,-0.9672852,-0.09570313,0.3095703,0.2558594,-0.1279297,-0.2353516
2836,-37.375,52.1875,-179.6875,-1.013672,-0.2006836,0.375,0.2602539,-0.109375,-0.2324219
2840,-14.6875,73.875,-175.3125,-1.165039,-0.08398438,0.3212891,0.2666016,-0.09179688,-0.2285156
2844,-10.6875,77.4375,-163.4375,-1.358887,0.02441406,0.2636719,0.2724609,-0.08056641,-0.2231445
2848,-22.0625,62.75,-153.3125,-1.439941,0.1098633,0.2060547,0.2758789,-0.06591797,-0.2177734
2852,-43.3125,43,-146.5625,-1.420898,0.09814453,0.1713867,0.2807617,-0.05175781,-0.2109375
2856,-56.8125,31.75,-140.875,-1.319824,0.02832031,0.1635742,0.2817383,-0.04052734,-0.2109375
2860,-56.375,34.5,-134.125,-1.261719,-0.08789063,0.2441406,0.2817383,-0.02441406,-0.206543
2864,-42.1875,44.875,-123.5625,-1.246094,-0.1152344,0.3291016,0.2841797,-0.008300781,-0.2026367
2868,-27.125,51,-112.6875,-1.343262,-0.07226563,0.3671875,0.2841797,-0.001953125,-0.1958008
2872,-15.5625,41.75,-101.3125,-1.405273,-0.01025391,0.390625,0.2832031,0.01123047,-0.1918945
2876,-8.3125,32.0625,-87.375,-1.389648,0.09033203,0.3945313,0.2841797,0.02246094,-0.1889648
2880,-1.5,26.375,-68.4375,-1.370117,0.1367188,0.3979492,0.2832031,0.02636719,-0.1875
2884,2.75,24.3125,-45.6875,-1.343262,0.1953125,0.3828125,0.2817383,0.03125,-0.1850586
2888,5.875,22.9375,-23.625,-1.339355,0.1992188,0.3945313,0.2817383,0.03369141,-0.1806641
2892,7.375,12.125,-5.25,-1.351074,0.171875,0.3945313,0.2841797,0.03759766,-0.1821289
2896,9.625,3.3125,7.0625,-1.246094,0.1445313,0.3945313,0.2832031,0.03759766,-0.1806641
2900,17.875,1.25,17.25,-1.20752,0.06689453,0.390625,0.2856445,0.03515625,-0.1806641
2904,26.75,1.0625,27.5625,-1.20752,0.08251953,0.3330078,0.2856445,0.03515625,-0.1821289
2908,34.75,-0.375,37.75,-1.23877,0.08642578,0.3017578,0.2832031,0.02734375,-0.1821289
2912,41.75,-0.9375,52.4375,-1.257813,0.1293945,0.2480469,0.2856445,0.02490234,-0.1835938
2916,42.9375,-3.3125,65.1875,-1.289063,0.1523438,0.2172852,0.2880859,0.01855469,-0.1850586
2920,46.1875,-9.9375,73.125,-1.343262,0.1679688,0.2402344,0.2890625,0.008789063,-0.1835938
2924,51.4375,-13,88.25,-1.385742,0.1757813,0.2709961,0.2900391,0,-0.1875
2928,55.25,-12.125,105.5,-1.443848,0.2416992,0.2519531,0.2900391,-0.008300781,-0.1904297
2932,50.6875,-14.75,125.6875,-1.521484,0.300293,0.2094727,0.2924805,-0.0234375,-0.1918945
2936,41.625,-23.625,147.25,-1.625977,0.2963867,0.2250977,0.2900391,-0.03710938,-0.1918945
2940,38.375,-34.1875,168.25,-1.618164,0.2299805,0.2636719,0.2890625,-0.04931641,-0.1928711
2945,48.25,-29.3125,186.5625,-1.563965,0.15625,0.3520508,0.2880859,-0.06835938,-0.199707
2949,63.3125,-18.4375,203.4375,-1.587402,0.1757813,0.3481445,0.2866211,-0.08837891,-0.2011719
2953,71.375,-11.3125,220.0625,-1.657227,0.2495117,0.3095703,0.2817383,-0.1044922,-0.2026367
2957,69.375,-8.625,239.6875,-1.684082,0.3583984,0.2368164,0.2783203,-0.1279297,-0.2011719
2961,53.1875,-11.5625,256.125,-1.70752,0.4516602,0.1635742,0.2724609,-0.1518555,-0.2041016
2965,30.9375,-22.4375,270,-1.687988,0.4672852,0.1328125,0.2666016,-0.1704102,-0.2011719
2969,14.6875,-29.8125,279.9375,-1.629883,0.4165039,0.1713867,0.2543945,-0.1943359,-0.2041016
2973,8.25,-35.25,288.5625,-1.575684,0.3349609,0.2133789,0.2392578,-0.2158203,-0.206543
2977,16,-37.0625,293.6875,-1.494141,0.2612305,0.2636719,0.2294922,-0.2304688,-0.2080078
2981,20.625,-30.8125,301.1875,-1.37793,0.3623047,0.2329102,0.2119141,-0.2495117,-0.2109375
2985,15.5625,-31.125,308.125,-1.389648,0.4086914,0.1943359,0.1928711,-0.2705078,-0.2094727
2989,-4.0625,-39.3125,318.875,-1.319824,0.5253906,0.09033203,0.1772461,-0.2817383,-0.2119141
2993,-28.25,-51.25,323,-1.246094,0.4282227,0.09033203,0.1533203,-0.2993164,-0.2133789
2997,-42.8125,-67.375,318.875,-1.095215,0.3310547,0.105957,0.1259766,-0.3095703,-0.21875
3001,-50,-75.6875,311,-0.9248047,0.2573242,0.1171875,0.109375,-0.3154297,-0.2231445
3005,-48.75,-80.3125,301.5625,-0.746582,0.1137695,0.1904297,0.08300781,-0.3217773,-0.2285156
3009,-28.25,-67.9375,296.6875,-0.5913086,0.105957,0.1943359,0.05224609,-0.3242188,-0.2324219
3013,-21.4375,-55.5625,297.1875,-0.4404297,0.1757813,0.1518555,0.03417969,-0.3256836,-0.2338867
3017,-15.6875,-49.875,288.4375,-0.3666992,0.1523438,0.125,0.006835938,-0.3266602,-0.2353516
3021,-10.8125,-45.1875,269.8125,-0.2387695,0.1757813,0.144043,-0.01855469,-0.3232422,-0.2368164
3025,-4.9375,-42.75,250.875,-0.230957,0.2109375,0.1904297,-0.03417969,-0.3232422,-0.237793
3029,-13.125,-48.25,240.1875,-0.1923828,0.3623047,0.105957,-0.05664063,-0.3193359,-0.2368164
3033,-24.8125,-53.0625,232.25,-0.06054688,0.284668,0.159668,-0.07958984,-0.3105469,-0.237793
3037,-22.0625,-48.8125,221.25,0.09375,0.2070313,0.1943359,-0.09228516,-0.3056641,-0.237793
3041,-12.625,-43,208.25,0.1054688,0.2299805,0.1826172,-0.1113281,-0.2983398,-0.2368164
3045,-22.25,-48.9375,188.1875,0.1015625,0.3583984,0.1479492,-0.1303711,-0.2880859,-0.2368164
3049,-24.625,-64,170.25,0.1948242,0.3544922,0.1518555,-0.1425781,-0.2817383,-0.2338867
3053,-31,-71.625,155.9375,0.3574219,0.3193359,0.1132813,-0.1567383,-0.2729492,-0.2353516
3057,-34.0625,-68.6875,140.625,0.5009766,0.3388672,0.1098633,-0.1733398,-0.2617188,-0.2324219
3061,-36.625,-65.4375,128.9375,0.578125,0.3466797,0.06738281,-0.1816406,-0.2543945,-0.2299805
3065,-46.25,-64.625,116.875,0.6132813,0.3271484,0.04052734,-0.1923828,-0.2441406,-0.2285156
3069,-52.1875,-64,108.1875,0.7412109,0.2338867,0.04052734,-0.203125,-0.2329102,-0.2270508
3074,-52,-60.3125,91.9375,0.9038086,0.15625,0.04785156,-0.2089844,-0.2270508,-0.2246094
3078,-45.5,-54.9375,68.625,1.02002,0.03222656,0.06347656,-0.21875,-0.2182617,-0.2246094
3082,-34.4375,-43.875,43.25,1.101563,-0.006347656,0.07519531,-0.2236328,-0.2094727,-0.2216797
3086,-24.875,-27.5,23.9375,1.109375,0.03222656,0.04785156,-0.2294922,-0.2070313,-0.2202148
3090,-21.8125,-13.4375,8.0625,1.0625,0.07470703,0.05175781,-0.2304688,-0.203125,-0.2216797
3094,-22.1875,-3.375,-7.5,1.027832,0.1601563,0.04052734,-0.2319336,-0.2016602,-0.2202148
3098,-26.5,4.0625,-24.9375,0.9350586,0.2070313,0.08251953,-0.2294922,-0.2016602,-0.2202148
3102,-24.4375,6.625,-41.5625,0.8378906,0.2299805,0.159668,-0.2280273,-0.203125,-0.2216797
3106,-14.5625,12.1875,-53.625,0.8378906,0.269043,0.2329102,-0.2270508,-0.2045898,-0.2246094
3110,-0.125,24.4375,-61.3125,0.7836914,0.284668,0.2944336,-0.222168,-0.2055664,-0.2255859
3114,20.375,35.625,-63.75,0.7138672,0.315918,0.3173828,-0.21875,-0.2128906,-0.2270508
3118,30.1875,40.625,-70,0.6401367,0.4633789,0.2402344,-0.2138672,-0.2192383,-0.230957
3122,21.125,35.1875,-79.375,0.5976563,0.5991211,0.159668,-0.2104492,-0.2231445,-0.2285156
3126,1.4375,27,-89.0625,0.5512695,0.6420898,0.144043,-0.2021484,-0.2294922,-0.2299805
3130,-12,20.75,-93.4375,0.5668945,0.5683594,0.1982422,-0.1962891,-0.2358398,-0.2338867
3134,-13.875,26.9375,-92.25,0.644043,0.4790039,0.2329102,-0.1899414,-0.2392578,-0.2353516
3138,-3.625,42.375,-93.9375,0.690918,0.3623047,0.2749023,-0.1831055,-0.2431641,-0.2353516
3142,17.4375,59.75,-101.5625,0.6713867,0.315918,0.3017578,-0.1748047,-0.2495117,-0.2407227
3146,25.8125,64.5625,-119.9375,0.4736328,0.5019531,0.2021484,-0.1665039,-0.2543945,-0.2421875
3150,8.1875,52.75,-139.3125,0.3188477,0.6616211,0.1982422,-0.1542969,-0.2641602,-0.2436523
3154,-12.5,36.125,-144.25,0.2294922,0.6577148,0.2021484,-0.1435547,-0.2680664,-0.2460938
3158,-10.75,38.5625,-142.0625,0.3808594,0.4516602,0.425293,-0.1352539,-0.2729492,-0.2490234
3162,29.125,68.3125,-134.375,0.3999023,0.284668,0.5097656,-0.1220703,-0.2783203,-0.25
3166,68.4375,93.3125,-130.4375,0.3574219,0.3583984,0.4213867,-0.1069336,-0.2856445,-0.25
3170,83.625,95.5625,-145,0.1674805,0.5527344,0.2250977,-0.09619141,-0.2944336,-0.25
3174,54.0625,69.625,-169.125,-0.06054688,0.890625,0.03662109,-0.07958984,-0.3056641,-0.2460938
3178,-4.1875,22.25,-194.9375,-0.1962891,0.9375,0.03662109,-0.06054688,-0.3105469,-0.2460938
3182,-21.6875,5.875,-197.25,-0.03710938,0.5878906,0.3979492,-0.05078125,-0.3120117,-0.2436523
3186,29.6875,43.25,-176.0625,-0.03320313,0.269043,0.6137695,-0.03515625,-0.3129883,-0.2490234
3190,92.8125,85.75,-150.4375,-0.01416016,0.4013672,0.5019531,-0.01611328,-0.3193359,-0.2436523
3194,115.1875,104.4375,-152.0625,-0.1728516,0.7197266,0.1826172,-0.004394531,-0.3242188,-0.2392578
3198,79.625,74,-173.75,-0.4829102,1.038574,-0.02441406,0.01269531,-0.3320313,-0.2270508
3203,21.0625,15.5,-199.125,-0.6225586,1.057617,0.001953125,0.03173828,-0.3330078,-0.2246094
3207,-16.3125,-15.125,-213.125,-0.4946289,0.8828125,0.1865234,0.04492188,-0.3330078,-0.2255859
3211,-2.625,-1.3125,-209.25,-0.4013672,0.5371094,0.4326172,0.06054688,-0.328125,-0.2231445
3215,37.8125,28.25,-193.625,-0.4868164,0.5683594,0.3828125,0.07617188,-0.3242188,-0.2255859
3219,52,39.0625,-185.8125,-0.6303711,0.7314453,0.2211914,0.08789063,-0.3232422,-0.2216797
3223,32.875,17.9375,-198.125,-0.7851563,0.90625,0.09814453,0.105957,-0.3217773,-0.2163086
3227,0,-20.6875,-224.6875,-0.7114258,0.7626953,0.1787109,0.1201172,-0.3144531,-0.2177734
3231,15,-13.25,-246.0625,-0.6689453,0.4594727,0.3979492,0.1308594,-0.3095703,-0.2163086
3235,40.375,2.0625,-253.375,-0.7773438,0.5136719,0.3291016,0.1484375,-0.2954102,-0.2163086
3239,48.9375,9,-259.4375,-0.8974609,0.6616211,0.2290039,0.1674805,-0.2895508,-0.2119141
3243,26.4375,-7.625,-264.875,-1.083496,0.7856445,0.1132813,0.1796875,-0.2832031,-0.2094727
3247,-10.25,-35.8125,-262.125,-1.025391,0.793457,0.09033203,0.1962891,-0.265625,-0.2094727
3251,-36.5625,-48,-259.0625,-0.8935547,0.5371094,0.2133789,0.2094727,-0.2495117,-0.2148438
3255,-24.875,-31.375,-257.1875,-0.8393555,0.1992188,0.355957,0.2138672,-0.2368164,-0.2148438
3259,-1.9375,-7.9375,-250.375,-0.862793,0.2612305,0.2944336,0.2260742,-0.2207031,-0.21875
3263,-4.6875,7.6875,-238.1875,-1.001953,0.3818359,0.1826172,0.237793,-0.2006836,-0.2177734
3267,-21.8125,2.5625,-218.375,-1.125977,0.4013672,0.1635742,0.2426758,-0.1879883,-0.2177734
3271,-43.375,-13.9375,-193.9375,-1.184082,0.3701172,0.1674805,0.2519531,-0.171875,-0.2202148
3275,-63.9375,-36.5625,-177.875,-1.106934,0.2148438,0.1904297,0.2568359,-0.1542969,-0.2216797
3279,-69,-39.8125,-174.375,-0.9594727,-0.01806641,0.2827148,0.2583008,-0.140625,-0.2255859
3283,-51.875,-19.875,-165.625,-0.8745117,-0.1420898,0.3364258,0.2602539,-0.1230469,-0.230957
3287,-38.9375,6.0625,-157.8125,-0.9438477,-0.07617188,0.2709961,0.2617188,-0.1044922,-0.2324219
3291,-43.25,9.1875,-147.4375,-1.106934,-0.04150391,0.2133789,0.2641602,-0.09423828,-0.2285156
3295,-52.1875,1.125,-134.25,-1.145508,-0.06835938,0.2402344,0.2675781,-0.07958984,-0.2285156
3299,-64.625,-13.8125,-127.75,-1.161133,-0.09179688,0.2250977,0.2675781,-0.06445313,-0.230957
3303,-79.0625,-31.5,-131,-1.099121,-0.1928711,0.2480469,0.2666016,-0.05566406,-0.230957
3307,-79.875,-30.6875,-134.8125,-0.9829102,-0.3134766,0.3017578,0.2651367,-0.03808594,-0.2353516
3311,-75.125,-16.4375,-128.9375,-0.9750977,-0.3481445,0.3017578,0.2617188,-0.02050781,-0.2353516
3315,-69.4375,-1.125,-118.5,-0.9750977,-0.3325195,0.2788086,0.2592773,-0.01074219,-0.2338867
3319,-69.3125,12,-110,-1.021484,-0.3208008,0.2636719,0.2592773,0.002441406,-0.2324219
3323,-68.875,14.875,-107.5625,-1.114746,-0.4257813,0.2944336,0.2583008,0.01611328,-0.2299805
3327,-57.75,16.8125,-112.0625,-1.106934,-0.4765625,0.3710938,0.2583008,0.02636719,-0.2285156
3332,-46.625,22.6875,-113.4375,-1.145508,-0.4101563,0.3867188,0.2543945,0.03857422,-0.2255859
3336,-38.5625,27.3125,-107.625,-1.219238,-0.3364258,0.390625,0.253418,0.05126953,-0.2202148
3340,-31.9375,28.125,-92.5,-1.265625,-0.2822266,0.4057617,0.2509766,0.06005859,-0.2216797
3344,-27.5625,26.375,-74.4375,-1.304199,-0.2045898,0.3945313,0.2509766,0.06738281,-0.2148438
3348,-28.125,18.5625,-57.5625,-1.308105,-0.1347656,0.3828125,0.2475586,0.07519531,-0.2133789
3352,-30.375,7.9375,-44.4375,-1.277344,-0.1381836,0.4174805,0.2475586,0.08007813,-0.2119141
3356,-27.8125,3,-31.9375,-1.199707,-0.1538086,0.4521484,0.2451172,0.08398438,-0.2094727
3360,-21,3.75,-18.125,-1.161133,-0.1733398,0.4868164,0.2451172,0.08740234,-0.2080078
3364,-11.75,3.625,-7.5625,-1.137695,-0.1850586,0.4907227,0.2451172,0.08886719,-0.2080078
3368,0.625,4.1875,-1.1875,-1.149414,-0.2163086,0.5019531,0.2451172,0.08886719,-0.206543
3372,16.625,10.125,10.75,-1.161133,-0.1655273,0.4790039,0.2460938,0.09130859,-0.2080078
3376,28.375,16.8125,27.875,-1.227051,-0.1191406,0.4174805,0.2460938,0.08642578,-0.2055664
3380,34.8125,14.1875,42.8125,-1.304199,-0.08398438,0.375,0.2485352,0.08398438,-0.2080078
3384,40.375,11.4375,57.5,-1.335449,-0.08789063,0.375,0.2509766,0.07763672,-0.2080078
3388,47.5,10.1875,75.875,-1.362793,-0.07226563,0.355957,0.253418,0.07275391,-0.2094727
3392,50.75,6.875,93.0625,-1.405273,-0.04541016,0.3251953,0.2568359,0.0625,-0.2080078
3396,49.8125,1.3125,107.8125,-1.413086,-0.02978516,0.3212891,0.2617188,0.04980469,-0.2109375
3400,50.9375,-2.3125,123.9375,-1.463379,-0.06054688,0.3520508,0.2626953,0.04492188,-0.2119141
3404,56.125,-4.0625,142.3125,-1.490234,-0.05273438,0.3671875,0.2666016,0.02880859,-0.2148438
3408,56.25,-5.3125,164.125,-1.505859,-0.01806641,0.355957,0.2700195,0.01269531,-0.2148438
3412,56,-7,180.8125,-1.563965,-0.07226563,0.3945313,0.2724609,-0.001953125,-0.2163086
3416,60.75,-8.0625,194.625,-1.541016,-0.06445313,0.3979492,0.2734375,-0.02050781,-0.21875
3420,59.8125,-3.1875,209.5,-1.556152,0.004882813,0.3598633,0.2749023,-0.04199219,-0.2202148
3424,50.625,-1.5625,225,-1.583496,0.04736328,0.3017578,0.2749023,-0.05810547,-0.2202148
3428,40.25,1.0625,238,-1.583496,0.05126953,0.2866211,0.2749023,-0.08203125,-0.2202148
3432,31.375,5.3125,249.9375,-1.560059,0.04394531,0.2905273,0.2724609,-0.1044922,-0.2202148
3436,22.9375,10.4375,257.875,-1.533203,0.05908203,0.2368164,0.2675781,-0.1220703,-0.2202148
3440,4.5625,8.25,247.3125,-1.471191,0.1367188,0.2021484,0.2617188,-0.1420898,-0.21875
3444,-17.875,6.8125,236.1875,-1.432129,0.1601563,0.1787109,0.2568359,-0.1606445,-0.21875
3448,-38.9375,14.6875,230.375,-1.439941,0.1137695,0.2788086,0.2509766,-0.171875,-0.2202148
3452,-38.9375,10.8125,239,-1.498047,0.03613281,0.2675781,0.2436523,-0.1879883,-0.2202148
3456,-33.8125,1.25,254.3125,-1.501953,-0.02197266,0.2709961,0.2329102,-0.2045898,-0.2216797
3461,-20.25,-5.1875,271.6875,-1.432129,-0.03369141,0.3134766,0.2260742,-0.2128906,-0.2216797
3465,-14.6875,-15.25,287.875,-1.374023,0.07470703,0.2519531,0.2119141,-0.2319336,-0.2246094
3469,-22.125,-28.8125,295.75,-1.292969,0.1757813,0.1787109,0.1962891,-0.2480469,-0.2270508
3473,-39.25,-54.125,296.6875,-1.253906,0.1796875,0.1210938,0.184082,-0.2592773,-0.230957
3477,-52.8125,-86.3125,293.75,-1.176758,0.1293945,0.1210938,0.1616211,-0.2729492,-0.2353516
3481,-52.5625,-102,296.625,-0.9326172,0.02050781,0.159668,0.1357422,-0.2817383,-0.2436523
3485,-34.5,-96.0625,303.5625,-0.7426758,-0.1035156,0.2441406,0.1186523,-0.2905273,-0.2490234
3489,-1.4375,-78.375,310,-0.5527344,-0.09179688,0.2944336,0.09130859,-0.2983398,-0.2543945
3493,11.125,-67.875,312.5,-0.4829102,0.15625,0.1635742,0.06298828,-0.3056641,-0.2529297
3497,-7.25,-75.6875,300.4375,-0.4208984,0.3310547,0.06347656,0.04638672,-0.3105469,-0.2543945
3501,-23.6875,-80.875,280.625,-0.2661133,0.203125,0.1635742,0.01660156,-0.3120117,-0.2543945
3505,-26.5625,-80.125,269,-0.2119141,0.1679688,0.1635742,-0.01025391,-0.3105469,-0.2568359
3509,-20.75,-79.9375,258.6875,-0.07617188,0.1601563,0.1982422,-0.02832031,-0.3081055,-0.2583008
3513,-22.75,-71.75,253.125,0.06298828,0.3466797,0.09033203,-0.05224609,-0.3017578,-0.2583008
3517,-32.75,-70.3125,236.625,0.125,0.284668,0.09033203,-0.07568359,-0.2954102,-0.2558594
3521,-36.375,-65.375,214.375,0.2607422,0.2612305,0.1674805,-0.09033203,-0.2866211,-0.2583008
3525,-36.1875,-64,191.0625,0.3417969,0.2299805,0.1635742,-0.109375,-0.2792969,-0.2597656
3529,-34.75,-65,170.5,0.4467773,0.2070313,0.1713867,-0.1259766,-0.2680664,-0.2583008
3533,-34.75,-62.1875,153.75,0.5668945,0.1796875,0.144043,-0.1352539,-0.2631836,-0.2568359
3537,-32.0625,-57.0625,142.125,0.7021484,0.1137695,0.1328125,-0.1508789,-0.2519531,-0.2558594
3541,-25,-47.1875,127.6875,0.8613281,0.03222656,0.140625,-0.1616211,-0.2416992,-0.2529297
3545,-18.375,-31.75,102.6875,1.004395,0.04736328,0.1098633,-0.1699219,-0.2382813,-0.2543945
3549,-18.1875,-21.25,70.0625,1.035645,0.07861328,0.07910156,-0.1757813,-0.2304688,-0.2543945
3553,-19.1875,-16.125,30.25,1.016113,0.07861328,0.1210938,-0.1806641,-0.2294922,-0.2529297
3557,-15.125,-12.5625,-0.8125,0.9658203,0.06298828,0.140625,-0.1831055,-0.2255859,-0.2514648
3561,-6.25,-2.3125,-26.1875,0.9541016,0.140625,0.2060547,-0.1816406,-0.2255859,-0.2543945
3565,1.6875,9.75,-45.625,0.8613281,0.237793,0.2133789,-0.1816406,-0.2255859,-0.2529297
3569,7.75,22.5625,-61.75,0.7602539,0.3779297,0.2675781,-0.1782227,-0.2280273,-0.2543945
3573,14.0625,31.5625,-74.4375,0.6401367,0.4829102,0.3134766,-0.1733398,-0.234375,-0.2529297
3577,19.5625,36.8125,-83.75,0.5009766,0.5761719,0.3867188,-0.1665039,-0.2382813,-0.2558594
3581,24.6875,34.5,-85.625,0.3730469,0.6538086,0.3867188,-0.1591797,-0.2431641,-0.2543945
3585,25.4375,29.8125,-79.5625,0.3496094,0.7041016,0.3710938,-0.1518555,-0.2480469,-0.2558594
3590,22.75,28.125,-71.3125,0.3613281,0.7470703,0.3364258,-0.1459961,-0.2543945,-0.2568359
3594,15.75,26.125,-66,0.3999023,0.7353516,0.2905273,-0.1411133,-0.2583008,-0.2558594
3598,8.6875,24.875,-66.3125,0.4658203,0.6538086,0.2749023,-0.1367188,-0.2607422,-0.2568359
3602,6.9375,24.0625,-76.5,0.5317383,0.5800781,0.2709961,-0.1293945,-0.265625,-0.2583008
3606,9.125,28.125,-91.5,0.4970703,0.5214844,0.3017578,-0.1259766,-0.2670898,-0.2597656
3610,16.8125,27.8125,-105.9375,0.4311523,0.4711914,0.3251953,-0.1176758,-0.2729492,-0.2597656
3614,28.75,32.0625,-112.8125,0.3925781,0.4516602,0.3251953,-0.1079102,-0.2783203,-0.2583008
3618,39.0625,38.625,-117.4375,0.3730469,0.4985352,0.3095703,-0.1020508,-0.2832031,-0.2597656
3622,43.625,46.875,-121.125,0.3227539,0.5527344,0.2675781,-0.08789063,-0.2895508,-0.2568359
3626,43.8125,51.6875,-128.8125,0.2915039,0.5878906,0.2480469,-0.07568359,-0.2983398,-0.2558594
3630,43.5625,59.75,-137.25,0.2333984,0.5913086,0.2368164,-0.06982422,-0.3007813,-0.2529297
3634,48.5625,69.5625,-143.5625,0.1484375,0.5605469,0.2749023,-0.05224609,-0.3066406,-0.2529297
3638,58.25,69.5,-152.25,0.01660156,0.5097656,0.2944336,-0.03662109,-0.3144531,-0.2514648
3642,75.6875,71.4375,-162.8125,-0.06835938,0.5214844,0.2983398,-0.02587891,-0.3168945,-0.2475586
3646,81.6875,65.875,-168.0625,-0.2119141,0.6577148,0.1982422,-0.0078125,-0.3242188,-0.2407227
3650,64.1875,49,-171.5625,-0.328125,0.8789063,0.07910156,0.009277344,-0.328125,-0.2353516
3654,23.5625,25.875,-172.6875,-0.3164063,0.9335938,0.05175781,0.02001953,-0.3305664,-0.2324219
3658,10.4375,24.9375,-189.4375,-0.1962891,0.6733398,0.2290039,0.03808594,-0.3305664,-0.2324219
3662,25.0625,38.8125,-192.875,-0.3203125,0.5292969,0.2597656,0.05566406,-0.328125,-0.2299805
3666,55.9375,54.75,-189.3125,-0.3862305,0.4360352,0.3173828,0.06640625,-0.3266602,-0.2270508
3670,77.875,65.875,-182.6875,-0.5141602,0.6811523,0.1748047,0.08447266,-0.3256836,-0.2216797
3674,57.875,55.5625,-176.125,-0.6342773,0.972168,-0.009277344,0.1020508,-0.3256836,-0.2133789
3678,6.875,33.25,-172.25,-0.6611328,0.9956055,-0.02832031,0.1118164,-0.3242188,-0.2109375
3682,-12.125,29.6875,-177.625,-0.6533203,0.6538086,0.1787109,0.128418,-0.3178711,-0.2094727
3686,10.4375,31.1875,-185.625,-0.7387695,0.3740234,0.3017578,0.1459961,-0.3066406,-0.2080078
3690,54.5,48.25,-188.5,-0.765625,0.3740234,0.3291016,0.1547852,-0.3032227,-0.2094727
3694,73.375,62.1875,-182.25,-0.8666992,0.6538086,0.1328125,0.1699219,-0.2983398,-0.1987305
3698,47.3125,50.6875,-167.3125,-1.001953,0.956543,-0.06298828,0.1865234,-0.2919922,-0.1918945
3702,-11.625,18.1875,-151.625,-1.021484,1.053711,-0.128418,0.1938477,-0.2866211,-0.1875
3706,-71.75,-21,-143.0625,-0.9326172,0.7973633,-0.07080078,0.2045898,-0.2753906,-0.1889648
3710,-72.9375,-38.875,-170.3125,-0.7695313,0.1137695,0.2749023,0.2119141,-0.2607422,-0.1987305
3714,-9.5,-17.6875,-197.375,-0.78125,-0.06835938,0.4213867,0.2177734,-0.2504883,-0.2011719
3719,35.875,20.125,-201.6875,-0.9052734,0.2612305,0.2983398,0.2270508,-0.2392578,-0.199707
3723,38.0625,35.875,-185.125,-1.168945,0.5761719,0.1210938,0.2392578,-0.2280273,-0.1943359
3727,6.875,19.25,-160.625,-1.315918,0.7236328,0.03271484,0.2451172,-0.2182617,-0.1928711
3731,-41.375,-15.8125,-142,-1.234863,0.7470703,-0.03222656,0.253418,-0.2055664,-0.1918945
3735,-89.625,-49.0625,-142.0625,-1.118652,0.5332031,0.005859375,0.2592773,-0.1904297,-0.1958008
3739,-99.4375,-64.4375,-157.3125,-0.9750977,0.1137695,0.2211914,0.2592773,-0.1782227,-0.2011719
3743,-68.1875,-45.625,-169.125,-0.8974609,-0.03759766,0.340332,0.2626953,-0.1621094,-0.2094727
3747,-41.125,-9.4375,-162.0625,-0.9438477,0.06298828,0.3442383,0.2666016,-0.1430664,-0.2133789
3751,-28.75,10.4375,-147.5625,-1.125977,0.121582,0.2788086,0.2675781,-0.1333008,-0.2133789
3755,-34.1875,1.875,-134.6875,-1.312012,0.1914063,0.2133789,0.2724609,-0.1196289,-0.2148438
3759,-56.75,-30.0625,-130.3125,-1.319824,0.2338867,0.1635742,0.2734375,-0.1069336,-0.2119141
3763,-80.3125,-58.0625,-139.125,-1.211426,0.15625,0.2172852,0.2734375,-0.09814453,-0.2177734
3767,-85.1875,-63.0625,-149.5,-1.001953,-0.006347656,0.3095703,0.2700195,-0.07958984,-0.2246094
3771,-64.9375,-35.4375,-148.875,-0.8818359,-0.1191406,0.3598633,0.2700195,-0.06201172,-0.2285156
3775,-37.1875,6.3125,-132.75,-0.8549805,-0.1230469,0.3212891,0.269043,-0.05078125,-0.2285156
3779,-25.375,43.9375,-111.1875,-0.9169922,0.02050781,0.2211914,0.2700195,-0.03808594,-0.2299805
3783,-29.125,60.6875,-97.8125,-1.063965,-0.002441406,0.2290039,0.2709961,-0.02832031,-0.2231445
3787,-32.375,54.5625,-93.625,-1.203613,-0.07226563,0.2250977,0.2724609,-0.02050781,-0.2177734
3791,-41.3125,36.75,-97.9375,-1.199707,-0.06445313,0.2480469,0.2749023,-0.009277344,-0.2148438
3795,-48.3125,23.8125,-104.1875,-1.149414,-0.1230469,0.2636719,0.2758789,0.002441406,-0.2094727
3799,-48.875,23.5625,-103.5,-1.060547,-0.1616211,0.2675781,0.2758789,0.01123047,-0.206543
3803,-39.9375,36.6875,-96.125,-1.048828,-0.2275391,0.2675781,0.2734375,0.02392578,-0.2055664
3807,-30.375,51.625,-87.5,-1.091309,-0.2275391,0.2519531,0.2734375,0.03369141,-0.199707
3811,-22.875,54.5625,-83.4375,-1.234863,-0.2470703,0.2749023,0.2749023,0.03857422,-0.1972656
3815,-15.125,43.375,-79.75,-1.327637,-0.2314453,0.3017578,0.2734375,0.04980469,-0.1928711
3819,-8.8125,27.1875,-76.125,-1.381836,-0.1694336,0.340332,0.2734375,0.05615234,-0.1850586
3823,-3.875,13.8125,-63.125,-1.358887,-0.09179688,0.3330078,0.2709961,0.0625,-0.1850586
3827,0.125,11.9375,-39.75,-1.300781,-0.05273438,0.3330078,0.2700195,0.06738281,-0.1850586
3831,10.125,17.8125,-11.375,-1.277344,-0.05664063,0.3173828,0.2700195,0.06884766,-0.1850586
3835,17.9375,20.75,17.0625,-1.257813,-0.01025391,0.3095703,0.2700195,0.06738281,-0.1821289
3839,17.875,17.4375,32.875,-1.246094,0.02832031,0.2983398,0.2734375,0.06494141,-0.1806641
3843,16.4375,7.5625,41.125,-1.273438,-0.02587891,0.355957,0.2734375,0.05859375,-0.1806641
3848,23.125,-3.125,46.6875,-1.261719,-0.05664063,0.409668,0.2734375,0.05761719,-0.1796875
3852,35.4375,-3.1875,58.0625,-1.265625,-0.06445313,0.4018555,0.2758789,0.05273438,-0.1821289
3856,46.9375,0.75,75.1875,-1.296875,-0.01806641,0.3789063,0.2773438,0.04248047,-0.1865234
3860,52.875,4.5625,94.5,-1.366211,0.03613281,0.3364258,0.2792969,0.03857422,-0.1835938
3864,54.9375,1.625,115.0625,-1.397461,0.05517578,0.2983398,0.2832031,0.02636719,-0.1865234
3868,52.1875,-4.125,133.3125,-1.420898,0.05126953,0.2788086,0.2866211,0.01123047,-0.1875
3872,49.5625,-13.6875,146.8125,-1.397461,0.03613281,0.2675781,0.2890625,0,-0.1889648
3876,46.25,-18.75,153.125,-1.351074,0.02441406,0.2636719,0.2880859,-0.01708984,-0.1904297
3880,45.8125,-19.6875,158.75,-1.331543,0.0009765625,0.2329102,0.2900391,-0.03320313,-0.1958008
3884,49.0625,-15.75,167.4375,-1.343262,-0.02197266,0.2441406,0.2890625,-0.04589844,-0.1958008
3888,54.5,-10.875,180.4375,-1.358887,0.02050781,0.2094727,0.2900391,-0.06445313,-0.1987305
3892,52.4375,-9.125,194.0625,-1.381836,0.1020508,0.1748047,0.2866211,-0.08447266,-0.199707
3896,43.9375,-13.125,202.6875,-1.428223,0.1679688,0.1367188,0.2841797,-0.09716797,-0.1987305
3900,27.25,-27,205.75,-1.447754,0.2070313,0.1132813,0.2792969,-0.1181641,-0.199707
3904,13.25,-40.625,207.0625,-1.381836,0.1757813,0.144043,0.2749023,-0.1381836,-0.2055664
3908,10.375,-40.5625,211.4375,-1.289063,0.1098633,0.2060547,0.2675781,-0.1494141,-0.206543
3912,18.8125,-33,220.25,-1.296875,0.07080078,0.2368164,0.2592773,-0.1694336,-0.2080078
3916,31.9375,-24.75,228.6875,-1.277344,0.1601563,0.2402344,0.2509766,-0.1879883,-0.2109375
3920,29.625,-17.875,240.3125,-1.308105,0.3081055,0.1748047,0.2436523,-0.1992188,-0.2109375
3924,17.25,-17.125,251,-1.339355,0.4360352,0.1328125,0.2319336,-0.2207031,-0.2119141
3928,-4.375,-25.5,260.1875,-1.335449,0.4907227,0.125,0.2177734,-0.2368164,-0.2119141
3932,-20.625,-37.6875,265.5,-1.227051,0.4321289,0.1557617,0.2080078,-0.2480469,-0.2119141
3936,-23.9375,-30.6875,273.3125,-1.118652,0.3388672,0.2402344,0.1889648,-0.2631836,-0.21875
3940,-23.3125,-14.5625,290.9375,-1.021484,0.4399414,0.2250977,0.1723633,-0.2792969,-0.21875
3944,-34.3125,-8.875,303.375,-1.037109,0.5566406,0.1328125,0.1591797,-0.2880859,-0.2246094
3948,-50,-25,303.5,-1.005859,0.5488281,0.09033203,0.1391602,-0.2993164,-0.2285156
3952,-59.375,-38.25,293.5625,-0.8393555,0.5019531,0.140625,0.1142578,-0.3081055,-0.230957
3956,-65.5625,-48.1875,278.3125,-0.78125,0.5214844,0.144043,0.09863281,-0.3095703,-0.2353516
3960,-73.375,-63.6875,269,-0.7192383,0.5097656,0.1787109,0.07373047,-0.3120117,-0.2392578
3964,-65.5,-64.5625,270.25,-0.5874023,0.3896484,0.2441406,0.04882813,-0.3144531,-0.2490234
3968,-56.1875,-66.5,263.875,-0.5566406,0.4672852,0.2172852,0.03173828,-0.3129883,-0.2514648
3972,-58.0625,-75.3125,258.125,-0.4248047,0.5058594,0.2172852,0.005859375,-0.3095703,-0.2568359
3977,-60.8125,-78.6875,250.25,-0.3242188,0.4750977,0.2172852,-0.01757813,-0.3041992,-0.2597656
3981,-59,-80.6875,242.25,-0.2080078,0.3857422,0.2402344,-0.03417969,-0.3007813,-0.2626953
3985,-52.1875,-78.25,233.875,-0.02587891,0.3544922,0.2441406,-0.05664063,-0.2929688,-0.2636719
3989,-54.5,-76.875,227.25,0.01660156,0.4013672,0.1518555,-0.08056641,-0.2841797,-0.2666016
3993,-70.625,-82.4375,211.5,0.09765625,0.4477539,0.04052734,-0.09375,-0.2768555,-0.2666016
3997,-91.625,-92.5,191.4375,0.1171875,0.3388672,0.06347656,-0.1137695,-0.2607422,-0.269043
4001,-98.375,-101.9375,171.3125,0.3071289,0.237793,0.1171875,-0.1318359,-0.2480469,-0.269043
4005,-100.6875,-100.3125,153.3125,0.5009766,0.140625,0.1171875,-0.1450195,-0.2368164,-0.2734375
4009,-98.4375,-94.5625,136.375,0.5976563,0.05126953,0.1020508,-0.1616211,-0.2231445,-0.2719727
4013,-95.1875,-83.75,117.3125,0.7641602,-0.006347656,0.1713867,-0.1748047,-0.2080078,-0.2705078
4017,-80.75,-68.1875,100,0.7680664,-0.1152344,0.2094727,-0.1806641,-0.1992188,-0.2705078
4021,-60.5625,-52.8125,85.8125,0.7954102,-0.1191406,0.2558594,-0.1914063,-0.1855469,-0.269043
4025,-41.3125,-39.6875,70.875,0.8339844,-0.09179688,0.2827148,-0.1972656,-0.1767578,-0.269043
4029,-22.6875,-29.125,55.0625,0.8842773,-0.06445313,0.2827148,-0.2006836,-0.171875,-0.269043
4033,-6.0625,-18.3125,33.1875,0.9350586,-0.02197266,0.2866211,-0.2045898,-0.1679688,-0.2666016
4037,7.125,-10.5,10.625,0.8959961,0.04394531,0.3017578,-0.206543,-0.1655273,-0.2651367
4041,17.9375,-3.8125,-5.1875,0.8769531,0.121582,0.3056641,-0.2080078,-0.1655273,-0.2651367
4045,27.6875,6.5,-14.3125,0.8417969,0.1601563,0.3364258,-0.206543,-0.1669922,-0.2651367
4049,38.8125,14.125,-22.875,0.7836914,0.2495117,0.3481445,-0.2045898,-0.1704102,-0.2651367
4053,43.875,16.125,-33.5625,0.7373047,0.3779297,0.3291016,-0.203125,-0.1743164,-0.2636719
4057,43,17.1875,-42.625,0.6791992,0.4672852,0.3291016,-0.2021484,-0.1821289,-0.2626953
4061,41.25,18.25,-45.5,0.6635742,0.5136719,0.3481445,-0.199707,-0.1870117,-0.2626953
4065,40.25,22.75,-45.875,0.6479492,0.5449219,0.340332,-0.1962891,-0.1918945,-0.2626953
4069,39.5625,26.125,-44.5,0.6362305,0.5214844,0.3134766,-0.1914063,-0.1967773,-0.2612305
4073,40.25,30.1875,-45.6875,0.6635742,0.5175781,0.2944336,-0.1899414,-0.2045898,-0.2636719
4077,39.125,29.5625,-54.875,0.6289063,0.5136719,0.2827148,-0.1865234,-0.2055664,-0.2636719
4081,38.75,27,-64.5,0.625,0.4985352,0.2597656,-0.1791992,-0.2128906,-0.2626953
4085,38.9375,29.1875,-74.625,0.6171875,0.4711914,0.2597656,-0.1757813,-0.2216797,-0.2626953
4089,41,30.8125,-83.125,0.59375,0.4633789,0.2250977,-0.1699219,-0.2246094,-0.2612305
4093,38,36.9375,-87.6875,0.574707,0.4829102,0.2021484,-0.1625977,-0.2329102,-0.2626953
4097,30.3125,42.25,-94,0.574707,0.4790039,0.1635742,-0.1557617,-0.2392578,-0.2636719
4101,23.125,48.6875,-105.6875,0.5668945,0.4633789,0.1943359,-0.1474609,-0.2456055,-0.2612305
4106,25.1875,48.9375,-123.0625,0.3925781,0.4165039,0.2827148,-0.1401367,-0.2529297,-0.2651367
4110,33.8125,45.9375,-136.6875,0.2954102,0.4243164,0.3330078,-0.128418,-0.2607422,-0.2651367
4114,40.375,44.0625,-141,0.2333984,0.5097656,0.3134766,-0.1186523,-0.2670898,-0.2597656
4118,37.9375,47.375,-141.125,0.2529297,0.5913086,0.2329102,-0.1069336,-0.2744141,-0.2626953
4122,24.1875,56.8125,-139.25,0.3032227,0.6381836,0.144043,-0.09228516,-0.2807617,-0.2651367
4126,13.1875,64.75,-148.1875,0.2490234,0.5253906,0.2402344,-0.08398438,-0.2841797,-0.2636719
4130,32.75,62.4375,-167.6875,-0.006347656,0.3505859,0.4057617,-0.06738281,-0.2895508,-0.2651367
4134,67.9375,60.75,-179.8125,-0.03710938,0.3388672,0.5405273,-0.05078125,-0.2983398,-0.2612305
4138,111.5625,69.6875,-184.3125,-0.1806641,0.4052734,0.4829102,-0.0390625,-0.3032227,-0.2583008
4142,126.3125,79.1875,-175.125,-0.2270508,0.7548828,0.2675781,-0.02001953,-0.3154297,-0.2490234
4146,97.125,80.0625,-163.25,-0.2773438,1.069336,0.02490234,-0.0009765625,-0.3232422,-0.2421875
4150,31.4375,65.8125,-158.0625,-0.3164063,1.197754,-0.08984375,0.009277344,-0.328125,-0.237793
4154,-16.9375,29.8125,-182.25,-0.5410156,0.8598633,0.1367188,0.02978516,-0.3256836,-0.2368164
4158,-11.9375,-1.1875,-207.6875,-0.4555664,0.5722656,0.3945313,0.04248047,-0.3232422,-0.237793
4162,21.625,14.875,-206.8125,-0.3666992,0.5058594,0.4560547,0.05322266,-0.3193359,-0.237793
4166,49.5,44.9375,-187.0625,-0.4443359,0.7001953,0.3364258,0.07226563,-0.3178711,-0.2353516
4170,42.875,58.375,-169.1875,-0.5371094,0.9179688,0.1367188,0.08886719,-0.3168945,-0.230957
4174,1.625,54.8125,-156.5,-0.5175781,1.030762,0.001953125,0.09960938,-0.3144531,-0.2270508
4178,-48.75,39.9375,-158.1875,-0.6533203,0.8984375,0.005859375,0.1152344,-0.3095703,-0.2270508
4182,-75.1875,-9.0625,-195.3125,-0.8857422,0.6225586,0.1713867,0.1269531,-0.2983398,-0.230957
4186,-55.25,-21.3125,-209.9375,-0.6264648,0.3740234,0.4790039,0.1367188,-0.2895508,-0.2353516
4190,-20.1875,16.0625,-192.6875,-0.6108398,0.4204102,0.4326172,0.1499023,-0.2792969,-0.2392578
4194,-7.6875,43.5625,-172.3125,-0.699707,0.5878906,0.2636719,0.1630859,-0.2670898,-0.237793
4198,-14.375,59.4375,-160.625,-0.6342773,0.6381836,0.1748047,0.1738281,-0.2607422,-0.2368164
4202,-39.875,62.5625,-157.4375,-0.7426758,0.5683594,0.07128906,0.184082,-0.2519531,-0.2324219
4206,-49.5625,40.4375,-179.875,-1.052734,0.3041992,0.2558594,0.1972656,-0.2392578,-0.2338867
4210,-13.5,27.875,-204.6875,-0.9013672,0.08251953,0.4868164,0.2045898,-0.2304688,-0.230957
4214,21.1875,58.1875,-201.6875,-0.9477539,0.1953125,0.4174805,0.2163086,-0.2182617,-0.230957
4218,38.9375,71.625,-188.75,-1.091309,0.3466797,0.2441406,0.2294922,-0.2055664,-0.2231445
4222,23.5625,71.5625,-178,-1.129883,0.5175781,0.105957,0.2368164,-0.1967773,-0.2202148
4226,-8.375,60.5625,-169.9375,-1.149414,0.5332031,0.03271484,0.2485352,-0.1855469,-0.2163086
4230,-35.0625,46.0625,-167.75,-1.176758,0.2807617,0.1367188,0.2583008,-0.171875,-0.2119141
4235,-22.4375,38.5625,-176.4375,-1.106934,0.02050781,0.2636719,0.2626953,-0.1621094,-0.2080078
4239,1.625,49.9375,-180.4375,-1.071777,0.02832031,0.3056641,0.269043,-0.1445313,-0.2055664
4243,17.125,62.875,-172.5625,-1.223145,0.1020508,0.2441406,0.2783203,-0.1308594,-0.2011719
4247,16.6875,64.4375,-156.4375,-1.312012,0.237793,0.1865234,0.2817383,-0.1196289,-0.1958008
4251,2.5625,57.9375,-143.5,-1.35498,0.2807617,0.1210938,0.2890625,-0.1083984,-0.1889648
4255,-16,44.875,-137,-1.319824,0.253418,0.1020508,0.2949219,-0.09326172,-0.1821289
4259,-28.4375,32.1875,-140.0625,-1.319824,0.1254883,0.140625,0.2963867,-0.08447266,-0.1821289
4263,-29.5625,19,-144.1875,-1.230957,0.05908203,0.1674805,0.2998047,-0.06835938,-0.1796875
4267,-25.0625,23.375,-140.6875,-1.161133,-0.006347656,0.2094727,0.2998047,-0.05322266,-0.1782227
4271,-14.625,32.625,-132.625,-1.20752,-0.04882813,0.2094727,0.3022461,-0.04443359,-0.175293
4275,-7.1875,35.9375,-124.625,-1.25,-0.02197266,0.1713867,0.3022461,-0.02929688,-0.1728516
4279,-3.625,35,-114.4375,-1.296875,-0.01416016,0.1557617,0.3046875,-0.01708984,-0.1713867
4283,5,31.9375,-101.1875,-1.358887,-0.04541016,0.1748047,0.3022461,-0.009277344,-0.1645508
4287,15.875,22.4375,-90.3125,-1.351074,0.004882813,0.159668,0.3007813,-0.0004882813,-0.1645508
4291,17.875,19.5,-78.3125,-1.269531,0.07080078,0.1367188,0.3007813,0.006347656,-0.1630859
4295,20.5625,20.3125,-62.5625,-1.28125,0.08251953,0.1210938,0.2998047,0.01025391,-0.1630859
4299,22.1875,21.5625,-43.25,-1.277344,0.1293945,0.1098633,0.2983398,0.01513672,-0.1591797
4303,21.625,21.8125,-25.75,-1.265625,0.140625,0.1132813,0.3007813,0.01855469,-0.1591797
4307,20.6875,17.1875,-13.3125,-1.28125,0.1523438,0.1098633,0.2998047,0.02001953,-0.1547852
4311,19.4375,9.1875,-1.5625,-1.285156,0.1333008,0.125,0.2998047,0.01757813,-0.15625
4315,19.5,4.3125,13.0625,-1.23877,0.1445313,0.1289063,0.2973633,0.01757813,-0.15625
4319,16.5,0.5,25.5625,-1.199707,0.15625,0.09423828,0.3022461,0.01611328,-0.1547852
4323,9.25,-4.0625,34.3125,-1.176758,0.1445313,0.05957031,0.3032227,0.01367188,-0.1577148
4327,4.25,-8.125,42.0625,-1.168945,0.07080078,0.07519531,0.3007813,0.01025391,-0.1577148
4331,4.5,-12.1875,49,-1.145508,0.03613281,0.07519531,0.3022461,0.00390625,-0.1591797
4335,5.3125,-13,54.3125,-1.087402,0.02441406,0.07519531,0.3007813,0.001464844,-0.1591797
4339,6.25,-10.375,57.125,-1.07959,0.004882813,0.07128906,0.3046875,-0.004394531,-0.1630859
4343,6.875,-10.5,61.625,-1.11084,-0.01806641,0.07519531,0.3032227,-0.009277344,-0.1616211
4347,9.875,-13,64.875,-1.125977,-0.006347656,0.07519531,0.3046875,-0.015625,-0.1645508
4351,10.5625,-13.4375,70.5,-1.12207,0.01269531,0.07128906,0.3032227,-0.02050781,-0.1645508
4355,10.3125,-12.6875,76.0625,-1.129883,0.02832031,0.07519531,0.3046875,-0.02832031,-0.1645508
4359,12.375,-12.625,81.375,-1.133789,0.02050781,0.08251953,0.3046875,-0.03564453,-0.168457
4364,17.8125,-9.5,86.75,-1.141602,0.04003906,0.1020508,0.3046875,-0.04443359,-0.168457
4368,23.625,-5.125,92.8125,-1.180664,0.09423828,0.07519531,0.3032227,-0.05175781,-0.1674805
4372,23.125,-0.125,105.4375,-1.211426,0.1523438,0.04785156,0.3032227,-0.06201172,-0.168457
4376,17.625,-1.0625,116.1875,-1.261719,0.2070313,0.01367188,0.3046875,-0.07177734,-0.1699219
4380,10.1875,-3.25,127.1875,-1.25,0.21875,0.04785156,0.3046875,-0.08203125,-0.1699219
4384,9.875,-5,135.375,-1.253906,0.1914063,0.06738281,0.3022461,-0.09570313,-0.168457
4388,8.625,-4.5625,144.0625,-1.172852,0.2338867,0.03662109,0.3007813,-0.1108398,-0.1713867
4392,4.1875,-2.875,148.8125,-1.125977,0.2573242,0.009765625,0.2973633,-0.1196289,-0.1699219
4396,-3.8125,-3.3125,148.5,-1.091309,0.2885742,0.01708984,0.2963867,-0.1333008,-0.1713867
4400,-3.6875,-2.375,148.125,-1.161133,0.2148438,0.1171875,0.2900391,-0.1469727,-0.1713867
4404,11.125,-2.5,158.0625,-1.20752,0.2148438,0.1865234,0.2880859,-0.1557617,-0.168457
4408,20.6875,0.8125,172.0625,-1.184082,0.3544922,0.1479492,0.2817383,-0.1704102,-0.1728516
4412,13.375,-2.875,180.625,-1.172852,0.4985352,0.04052734,0.2758789,-0.1894531,-0.1713867
4416,-7.8125,-11.6875,184.375,-1.12207,0.5605469,-0.02832031,0.269043,-0.1982422,-0.1728516
4420,-24.625,-22.3125,181.5,-1.07959,0.4555664,0.001953125,0.2602539,-0.2128906,-0.1738281
4424,-25.6875,-27.125,175.75,-0.9829102,0.3701172,0.1020508,0.2519531,-0.2270508,-0.1767578
4428,-13.4375,-23,169.8125,-0.9750977,0.3544922,0.1713867,0.2451172,-0.2329102,-0.1782227
4432,8.8125,-16.6875,179.6875,-0.9672852,0.3583984,0.2094727,0.2329102,-0.2441406,-0.1796875
4436,27.5,-18.625,181.5625,-0.9711914,0.6069336,0.125,0.2236328,-0.2607422,-0.1821289
4440,0.0625,-15.75,189.5625,-0.9477539,0.6884766,0.07128906,0.2163086,-0.2695313,-0.1806641
4444,-16.25,-17.1875,187.875,-0.9438477,0.7275391,0.04443359,0.2021484,-0.2792969,-0.1806641
4448,-30.5,-28.375,184.1875,-0.9052734,0.6499023,0.07519531,0.1889648,-0.2905273,-0.1865234
4452,-25.9375,-33.3125,183.6875,-0.862793,0.6186523,0.1289063,0.1821289,-0.296875,-0.1875
4456,-22.8125,-33.4375,178.6875,-0.7543945,0.6459961,0.1635742,0.1665039,-0.3041992,-0.1928711
4460,-12.3125,-24,179.25,-0.699707,0.6264648,0.2133789,0.1523438,-0.3120117,-0.1928711
4464,-1.3125,-15.875,183.875,-0.6806641,0.7119141,0.1943359,0.1416016,-0.3193359,-0.1958008
4468,-1.375,-15.0625,184.5625,-0.6884766,0.809082,0.1674805,0.1269531,-0.3256836,-0.1987305
4472,-12.5625,-22.75,180.25,-0.7231445,0.9257813,0.08642578,0.1118164,-0.3330078,-0.1972656
4476,-38.3125,-39.8125,174,-0.6650391,0.9335938,0.08251953,0.1010742,-0.3369141,-0.1987305
4480,-47.5,-49.375,167.5,-0.5756836,0.8129883,0.1904297,0.08447266,-0.3369141,-0.2055664
4484,-32.9375,-48.9375,166.8125,-0.5175781,0.7431641,0.2866211,0.06884766,-0.3369141,-0.2094727
4488,-0.875,-33.25,177.3125,-0.4985352,0.7080078,0.409668,0.05712891,-0.3408203,-0.2094727
4493,36.6875,-14.0625,197.9375,-0.4404297,0.8168945,0.3291016,0.0390625,-0.3442383,-0.2109375
4497,40.25,-4.625,214.75,-0.4130859,1.077148,0.140625,0.02148438,-0.3481445,-0.206543
4501,3.0625,-11.1875,216.4375,-0.4052734,1.225098,0.005859375,0.01074219,-0.3505859,-0.2026367
4505,-48.8125,-32.875,203.875,-0.4169922,1.150879,-0.001464844,-0.01025391,-0.3481445,-0.2055664
4509,-66.4375,-52.25,193.6875,-0.328125,0.8286133,0.1982422,-0.03173828,-0.3442383,-0.2109375
4513,-42.125,-48.6875,210.3125,-0.230957,0.6577148,0.2368164,-0.04248047,-0.3408203,-0.2148438
4517,-29.125,-40,228.0625,-0.06445313,0.6655273,0.1479492,-0.06396484,-0.3344727,-0.2133789
4521,-37.4375,-33.25,233.6875,0.08642578,0.6303711,0.02490234,-0.08544922,-0.3266602,-0.2148438
4525,-54.625,-28.8125,228.5,0.1791992,0.5058594,0.01708984,-0.09960938,-0.3208008,-0.21875
4529,-73.9375,-24.1875,210.4375,0.2294922,0.4555664,0.03271484,-0.1176758,-0.3066406,-0.21875
4533,-96.6875,-41.0625,186.5625,0.2568359,0.315918,0.001953125,-0.1376953,-0.2954102,-0.2246094
4537,-101.75,-59.8125,164,0.3652344,0.1640625,0.07910156,-0.1484375,-0.2841797,-0.2285156
4541,-92.3125,-64.875,148.5625,0.5708008,0.05517578,0.1132813,-0.1625977,-0.2695313,-0.2324219
4545,-71.375,-55.8125,131,0.7216797,-0.04882813,0.1479492,-0.1757813,-0.2568359,-0.2353516
4549,-50.4375,-37.0625,113.1875,0.8110352,-0.03759766,0.1367188,-0.1831055,-0.2480469,-0.2324219
4553,-35.8125,-20.125,92.125,0.8417969,-0.02587891,0.144043,-0.1899414,-0.2382813,-0.2338867
4557,-23.8125,-11.0625,66.1875,0.8261719,0.008789063,0.140625,-0.1972656,-0.2294922,-0.2353516
4561,-19.4375,-12.4375,38.3125,0.8222656,0.08642578,0.1171875,-0.1982422,-0.2280273,-0.2353516
4565,-20.625,-14,14.9375,0.8183594,0.1367188,0.1132813,-0.2021484,-0.2246094,-0.2353516
4569,-19.875,-10.1875,-1.875,0.8613281,0.1523438,0.1713867,-0.203125,-0.2231445,-0.2338867
4573,-14.625,1.75,-16.8125,0.8730469,0.1640625,0.2290039,-0.2045898,-0.2216797,-0.2368164
4577,-1.875,13.625,-31.4375,0.8222656,0.2070313,0.2905273,-0.2006836,-0.2216797,-0.237793
4581,13.4375,22.25,-44.1875,0.7412109,0.2729492,0.3212891,-0.1982422,-0.2246094,-0.2392578
4585,30,24.625,-54.5,0.6870117,0.3505859,0.3945313,-0.1948242,-0.2280273,-0.2392578
4589,51.0625,30.125,-58.875,0.6171875,0.4438477,0.4018555,-0.1899414,-0.2358398,-0.2392578
4593,59.6875,28,-63,0.5317383,0.6069336,0.340332,-0.1855469,-0.2431641,-0.2353516
4597,51.75,18.125,-67.875,0.4970703,0.7236328,0.2866211,-0.1816406,-0.2480469,-0.2338867
4601,36.1875,7.6875,-67.5,0.4970703,0.8129883,0.2021484,-0.1772461,-0.2543945,-0.2368164
4605,11.5625,1.9375,-66.75,0.5356445,0.840332,0.1557617,-0.1723633,-0.2607422,-0.2324219
4609,-12.6875,2.625,-68.875,0.5629883,0.7626953,0.1289063,-0.168457,-0.2631836,-0.2338867
4613,-28.75,2.625,-76.125,0.5898438,0.6147461,0.1982422,-0.1640625,-0.2641602,-0.2338867
4617,-23,9.75,-84.9375,0.5629883,0.4360352,0.2866211,-0.1591797,-0.2670898,-0.2353516
4622,-4.375,13.4375,-94.25,0.5551758,0.3896484,0.3251953,-0.1542969,-0.2705078,-0.2368164
4626,15.5625,24.3125,-99.5,0.4970703,0.3974609,0.3364258,-0.1484375,-0.2744141,-0.237793
4630,26.5,28,-103.125,0.4428711,0.4516602,0.2558594,-0.1391602,-0.2792969,-0.237793
4634,29.375,30.9375,-109.5,0.4233398,0.4985352,0.2060547,-0.1318359,-0.2841797,-0.2368164
4638,23.4375,30.9375,-120.75,0.3886719,0.5449219,0.1787109,-0.1220703,-0.2905273,-0.2368164
4642,18.9375,27,-140.6875,0.3110352,0.4907227,0.2368164,-0.1103516,-0.2983398,-0.2353516
4646,26.625,20.5625,-155.125,0.2797852,0.4594727,0.2866211,-0.1030273,-0.3032227,-0.2338867
4650,45.9375,26.6875,-166.8125,0.2104492,0.4672852,0.3481445,-0.08886719,-0.3105469,-0.2338867
4654,63,33.25,-160.4375,0.09033203,0.6069336,0.2402344,-0.07226563,-0.3178711,-0.230957
4658,58.3125,37.8125,-151.5,0.07470703,0.8012695,0.1020508,-0.06494141,-0.3208008,-0.230957
4662,26.1875,40.875,-153.75,0.03564453,0.9023438,0.05175781,-0.05078125,-0.3291016,-0.2270508
4666,-2.3125,29.75,-178.75,-0.1303711,0.809082,0.1826172,-0.03320313,-0.3344727,-0.2255859
4670,3.6875,9.1875,-195.1875,-0.1845703,0.5761719,0.340332,-0.02246094,-0.3330078,-0.2270508
4674,46.3125,20.1875,-197.0625,-0.1264648,0.4868164,0.5058594,-0.004394531,-0.3344727,-0.2231445
4678,91.125,45.0625,-181.375,-0.2041016,0.6225586,0.3173828,0.01171875,-0.3393555,-0.21875
4682,94.625,58.6875,-158.3125,-0.2851563,0.972168,0.02490234,0.0234375,-0.3442383,-0.2133789
4686,38.5625,47.8125,-157.1875,-0.4326172,1.244141,-0.1821289,0.04052734,-0.3466797,-0.2080078
4690,-43.5,4.1875,-186.4375,-0.6533203,1.150879,-0.03613281,0.05712891,-0.3432617,-0.206543
4694,-63.75,-42.75,-209.1875,-0.6416016,0.7587891,0.1713867,0.06787109,-0.3378906,-0.2094727
4698,-31.9375,-31.6875,-208.0625,-0.4169922,0.5605469,0.5444336,0.08203125,-0.328125,-0.2163086
4702,25.875,16.125,-187.3125,-0.5175781,0.5761719,0.4560547,0.09521484,-0.3232422,-0.2148438
4706,48.4375,38.625,-159,-0.5756836,0.8286133,0.1982422,0.1079102,-0.3208008,-0.2148438
4710,27.25,43.8125,-141.125,-0.5874023,0.9916992,0.001953125,0.1225586,-0.3193359,-0.2094727
4714,-15.9375,31.9375,-140.8125,-0.6572266,0.953125,-0.02441406,0.1333008,-0.3144531,-0.2080078
4718,-51.4375,-4.625,-171,-0.8198242,0.7509766,0.105957,0.1425781,-0.3095703,-0.206543
4722,-42.0625,-31.875,-197.375,-0.765625,0.4013672,0.425293,0.1547852,-0.2983398,-0.2119141
4726,10.9375,-7.9375,-191.625,-0.7036133,0.4013672,0.4790039,0.1650391,-0.2856445,-0.2133789
4730,40.3125,26.875,-166.6875,-0.7075195,0.6186523,0.3364258,0.1738281,-0.2817383,-0.2148438
4734,33.9375,43.1875,-147.375,-0.8085938,0.7895508,0.09814453,0.1865234,-0.2753906,-0.2109375
4738,0.4375,37.4375,-138.625,-0.8276367,0.8520508,-0.01660156,0.1972656,-0.2680664,-0.2055664
4742,-41.6875,21.6875,-140.9375,-0.8896484,0.7431641,-0.001464844,0.2055664,-0.2631836,-0.2055664
4746,-77.25,-14.6875,-162.4375,-1.009766,0.4985352,0.06738281,0.2119141,-0.2480469,-0.206543
4751,-60.75,-26.0625,-177.25,-0.8046875,0.09814453,0.4443359,0.2202148,-0.234375,-0.2119141
4755,-6.5,15.125,-175.5625,-0.7773438,0.1254883,0.4599609,0.2246094,-0.2246094,-0.2119141
4759,18.8125,44.6875,-162.8125,-0.9750977,0.3081055,0.2709961,0.2353516,-0.2143555,-0.2119141
4763,18.5,49.375,-154,-1.056641,0.4360352,0.1479492,0.2460938,-0.2006836,-0.2080078
4767,-3,37.625,-154.9375,-1.12207,0.4594727,0.07128906,0.2519531,-0.1943359,-0.2055664
4771,-32.625,15.5625,-162.0625,-1.129883,0.4165039,0.02880859,0.2602539,-0.1821289,-0.2041016
4775,-54.1875,-5.125,-171.125,-1.106934,0.237793,0.09033203,0.2651367,-0.1645508,-0.2011719
4779,-54.5625,-8.3125,-173.6875,-1.025391,0.05517578,0.1943359,0.2700195,-0.1533203,-0.206543
4783,-38,8,-171.625,-0.9985352,-0.03759766,0.2636719,0.2734375,-0.1357422,-0.206543
4787,-21.9375,30.375,-167.4375,-1.056641,-0.02587891,0.2597656,0.2792969,-0.1196289,-0.2041016
4791,-13.1875,42.9375,-163.8125,-1.191895,-0.002441406,0.2211914,0.2817383,-0.1083984,-0.2026367
4795,-10.5625,39.375,-162.375,-1.315918,0.02050781,0.1865234,0.2880859,-0.09179688,-0.199707
4799,-9.6875,30.5,-160.0625,-1.374023,0.03222656,0.1713867,0.2915039,-0.07421875,-0.1958008
4803,-4.8125,24.25,-151,-1.374023,0.02832031,0.1865234,0.2924805,-0.06689453,-0.1918945
4807,7.5,29.0625,-138.4375,-1.351074,0.02050781,0.2368164,0.2915039,-0.05078125,-0.1904297
4811,23.75,39.0625,-120.4375,-1.366211,0.07080078,0.2441406,0.2949219,-0.03955078,-0.1889648
4815,34.5625,43.1875,-98.6875,-1.428223,0.1835938,0.2211914,0.2924805,-0.03320313,-0.1850586
4819,35.0625,34.3125,-77.6875,-1.471191,0.2768555,0.1865234,0.2949219,-0.02441406,-0.1821289
4823,27.625,19.375,-57.125,-1.405273,0.3544922,0.1479492,0.2963867,-0.02050781,-0.1796875
4827,13.4375,11.125,-38.75,-1.32373,0.3896484,0.1367188,0.2983398,-0.01708984,-0.1782227
4831,-1.1875,4.8125,-22.0625,-1.269531,0.3466797,0.1328125,0.2963867,-0.01464844,-0.1782227
4835,-9.875,-0.6875,-6.75,-1.20752,0.2495117,0.2094727,0.2963867,-0.01318359,-0.1767578
4839,-4.5,0,2.5,-1.141602,0.1367188,0.2749023,0.2963867,-0.01318359,-0.1767578
4843,8.9375,1.625,9.6875,-1.11084,0.1176758,0.2866211,0.2949219,-0.01318359,-0.1782227
4847,18.6875,3.6875,14.6875,-1.137695,0.140625,0.2709961,0.2973633,-0.01464844,-0.1767578
4851,24.125,1.9375,22.0625,-1.184082,0.1796875,0.2060547,0.2973633,-0.015625,-0.1767578
4855,25.5625,0.4375,32.5,-1.219238,0.1914063,0.1943359,0.2973633,-0.01953125,-0.1796875
4859,28,-2.0625,46,-1.289063,0.1992188,0.1826172,0.2983398,-0.02441406,-0.1782227
4863,31,-8.9375,60.0625,-1.292969,0.2265625,0.1635742,0.2983398,-0.02929688,-0.1796875
4867,30.75,-9.6875,74.3125,-1.269531,0.237793,0.1635742,0.2983398,-0.03710938,-0.1806641
4871,30.5,-8.5625,87.3125,-1.300781,0.2456055,0.1479492,0.2998047,-0.04589844,-0.1806641
4875,26,-11.875,100.8125,-1.351074,0.2729492,0.1479492,0.2983398,-0.05322266,-0.1821289
4880,21.1875,-17.9375,115.125,-1.351074,0.2416992,0.140625,0.2973633,-0.06591797,-0.1835938
4884,21.3125,-18.9375,128.6875,-1.315918,0.21875,0.1748047,0.2973633,-0.07568359,-0.1835938
4888,24.125,-16.75,141.3125,-1.285156,0.2148438,0.1713867,0.2924805,-0.08544922,-0.1865234
4892,24.25,-11.125,153.5625,-1.28125,0.2651367,0.159668,0.2915039,-0.1020508,-0.1875
4896,18.5,-9,163.125,-1.312012,0.2885742,0.1479492,0.2900391,-0.1196289,-0.1889648
4900,13.25,-13.3125,169.625,-1.319824,0.2768555,0.1518555,0.2866211,-0.1279297,-0.1904297
4904,10.875,-20.1875,173.5,-1.257813,0.2573242,0.144043,0.2832031,-0.1455078,-0.1889648
4908,12.375,-18.25,177,-1.172852,0.2416992,0.1865234,0.2758789,-0.1630859,-0.1928711
4912,16.75,-10,182.25,-1.141602,0.2612305,0.1713867,0.2709961,-0.1733398,-0.1928711
4916,13.8125,-4.75,185.125,-1.137695,0.3349609,0.1210938,0.2651367,-0.1879883,-0.1928711
4920,6.375,-8.8125,187.4375,-1.125977,0.3857422,0.07910156,0.2568359,-0.2045898,-0.1918945
4924,-1.875,-13.1875,184.625,-1.071777,0.3857422,0.1210938,0.2485352,-0.2143555,-0.1943359
4928,0.6875,-12.8125,181.4375,-1.075684,0.284668,0.1865234,0.2412109,-0.2294922,-0.1958008
4932,16.4375,-11.75,180.3125,-1.044922,0.3232422,0.2211914,0.2294922,-0.2416992,-0.1958008
4936,22.625,-2.5625,185,-1.037109,0.4750977,0.1826172,0.222168,-0.2504883,-0.1972656
4940,13.4375,-3.3125,187.3125,-1.106934,0.6147461,0.1020508,0.2128906,-0.2617188,-0.1958008
4944,-8.125,-16,190.1875,-1.071777,0.6381836,0.06347656,0.199707,-0.2753906,-0.1972656
4948,-14.125,-23.1875,187.6875,-0.9829102,0.5332031,0.1210938,0.1889648,-0.2807617,-0.1972656
4952,-11.1875,-21.5,188.75,-0.9052734,0.5175781,0.1826172,0.1772461,-0.2929688,-0.1987305
4956,2.3125,-15.125,190.75,-0.8706055,0.5332031,0.2094727,0.1616211,-0.3017578,-0.199707
4960,15.625,-6.6875,189.5,-0.8974609,0.5683594,0.2866211,0.1533203,-0.3056641,-0.2011719
4964,37.5,5.875,201.25,-0.9013672,0.6962891,0.2519531,0.1401367,-0.3168945,-0.199707
4968,33.9375,14.8125,211.8125,-0.862793,0.9257813,0.1210938,0.1235352,-0.328125,-0.1958008
4972,9.125,6.8125,222.25,-0.8818359,0.987793,0.03271484,0.1142578,-0.3344727,-0.1918945
4976,-4.9375,-2.0625,220.125,-0.8666992,0.8671875,0.1518555,0.09521484,-0.3417969,-0.1928711
4980,0,-6.4375,225.1875,-0.7578125,0.8208008,0.2060547,0.07714844,-0.3466797,-0.1928711
4984,10.8125,1.4375,233.125,-0.7192383,0.8520508,0.1826172,0.06396484,-0.3505859,-0.1943359
4988,9.0625,7.1875,248,-0.6225586,0.9101563,0.1479492,0.04150391,-0.3554688,-0.1928711
4992,6.25,10.5,258.5625,-0.5292969,0.8051758,0.125,0.01904297,-0.359375,-0.1904297
4996,-9.25,7.5625,261.5,-0.4013672,0.8789063,-0.005371094,0.004394531,-0.3579102,-0.1904297
5000,-48.3125,-9.0625,257.1875,-0.3706055,0.8168945,-0.07861328,-0.01757813,-0.3579102,-0.1918945
5004,-89.9375,-34.875,242.9375,-0.296875,0.6923828,-0.06298828,-0.04150391,-0.3505859,-0.1972656
5009,-114,-55.25,230.8125,-0.1689453,0.5097656,0.02099609,-0.05664063,-0.3442383,-0.2011719
5013,-123.75,-57.5,218,-0.02587891,0.4282227,0.159668,-0.078125,-0.3330078,-0.2109375
5017,-114.875,-59.375,217.0625,-0.08007813,0.253418,0.1748047,-0.1020508,-0.3193359,-0.21875
5021,-105.75,-69.1875,211.875,0.1132813,0.2148438,0.1518555,-0.1137695,-0.3081055,-0.2202148
5025,-102.5,-74.1875,194.3125,0.3188477,0.1445313,0.1289063,-0.1367188,-0.2954102,-0.2270508
5029,-102.3125,-81.875,171.5,0.4467773,0.07861328,0.02490234,-0.1542969,-0.2783203,-0.2285156
5033,-102.5625,-86.3125,145.5625,0.6401367,0.01269531,0.01367188,-0.1640625,-0.2670898,-0.230957
5037,-101.875,-87.3125,118.5625,0.7641602,-0.07617188,-0.02832031,-0.1791992,-0.2529297,-0.2324219
5041,-88.875,-80.375,95.1875,0.9233398,-0.2626953,0.01367188,-0.1914063,-0.2392578,-0.2338867
5045,-62.75,-60.4375,71.0625,1.121094,-0.2978516,0.07128906,-0.1972656,-0.2319336,-0.2353516
5049,-30.75,-26.8125,39.9375,1.132324,-0.2861328,0.140625,-0.2045898,-0.2246094,-0.2338867
5053,1.25,0,10.375,1.004395,-0.1381836,0.1865234,-0.206543,-0.2207031,-0.2324219
5057,24.375,13.3125,-13.1875,0.9233398,-0.04541016,0.1865234,-0.206543,-0.2216797,-0.230957
5061,41.8125,24.375,-34.875,0.8803711,0.09033203,0.2441406,-0.2055664,-0.2246094,-0.2324219
5065,55.75,35.25,-53.875,0.7758789,0.2456055,0.2827148,-0.2021484,-0.2294922,-0.230957
5069,64.1875,40.4375,-68.625,0.6635742,0.4243164,0.3056641,-0.1972656,-0.234375,-0.230957
5073,74.375,41.8125,-76.8125,0.543457,0.5488281,0.3520508,-0.1914063,-0.2441406,-0.2285156
5077,86.6875,44.0625,-74.8125,0.4736328,0.6694336,0.375,-0.184082,-0.2543945,-0.2270508
5081,94.875,48.8125,-65.1875,0.4233398,0.7739258,0.3251953,-0.1772461,-0.2607422,-0.2246094
5085,90.125,45.4375,-55.625,0.4077148,0.875,0.2290039,-0.1708984,-0.2719727,-0.2216797
5089,74.9375,37.5625,-53.625,0.4272461,0.9296875,0.1748047,-0.1640625,-0.2807617,-0.21875
5093,52.8125,24,-54,0.4311523,0.9257813,0.08251953,-0.1616211,-0.2841797,-0.2177734
5097,30.1875,12.375,-60.875,0.4697266,0.855957,0.1132813,-0.1542969,-0.2880859,-0.2148438
5101,18.25,7,-64.4375,0.4892578,0.7587891,0.144043,-0.1518555,-0.2954102,-0.2133789
5105,13.375,9.5625,-66.625,0.5161133,0.7041016,0.159668,-0.1474609,-0.296875,-0.2119141
5109,14,15.3125,-67.4375,0.4658203,0.6459961,0.1557617,-0.1401367,-0.3041992,-0.2119141
5113,10.8125,12.4375,-73,0.4506836,0.6772461,0.09033203,-0.1342773,-0.3056641,-0.2119141
5117,-0.875,7.9375,-85.125,0.4541016,0.6845703,0.05175781,-0.1303711,-0.3081055,-0.2148438
5121,-14.1875,5.8125,-99.625,0.4853516,0.6616211,0.08251953,-0.1220703,-0.3105469,-0.2163086
5125,-5.6875,15.5625,-114.0625,0.3847656,0.4790039,0.2827148,-0.112793,-0.3144531,-0.2163086
5129,26.8125,28.875,-112.6875,0.3417969,0.4633789,0.3017578,-0.109375,-0.3168945,-0.2163086
5133,52.0625,45.625,-114.375,0.3227539,0.5566406,0.2636719,-0.09472656,-0.3242188,-0.2148438
5138,61,55.0625,-117.125,0.2451172,0.6655273,0.1098633,-0.08398438,-0.3305664,-0.2119141
5142,44.5625,53.4375,-123,0.1791992,0.840332,-0.001464844,-0.07568359,-0.3344727,-0.2094727
5146,7.6875,36.75,-140.3125,0.02050781,0.9179688,-0.05517578,-0.06152344,-0.3417969,-0.2080078
5150,-30.0625,8.3125,-166.875,-0.06835938,0.890625,0.07910156,-0.04736328,-0.3417969,-0.2109375
5154,-40.25,-5.3125,-182.625,-0.1420898,0.7041016,0.2709961,-0.03515625,-0.3417969,-0.2094727
5158,-16.625,1,-169.4375,-0.08398438,0.6069336,0.3364258,-0.02246094,-0.3432617,-0.2119141
5162,9.4375,21.625,-155,0.008789063,0.6655273,0.2749023,-0.006835938,-0.3432617,-0.2163086
5166,14.0625,40.375,-146.1875,0.04345703,0.7548828,0.1210938,0.0009765625,-0.3442383,-0.2148438
5170,1.625,56.9375,-142.5625,0.03955078,0.7626953,0.04052734,0.01904297,-0.3432617,-0.2148438
5174,-19.9375,60.25,-153.25,-0.2080078,0.777832,0.01367188,0.03417969,-0.3432617,-0.2148438
5178,-50.25,15.25,-189,-0.4404297,0.7275391,0.01708984,0.04394531,-0.3408203,-0.2177734
5182,-51.625,-8.6875,-230.0625,-0.3393555,0.5722656,0.2827148,0.06152344,-0.3320313,-0.21875
5186,-38.625,2.5625,-237.875,-0.4790039,0.4790039,0.355957,0.07958984,-0.328125,-0.2255859
5190,-10.875,20.75,-217.9375,-0.5063477,0.4946289,0.340332,0.09130859,-0.3178711,-0.2255859
5194,-0.75,38.6875,-190.75,-0.4868164,0.6616211,0.1748047,0.109375,-0.3120117,-0.2246094
5198,-19.75,53.1875,-177.375,-0.4633789,0.7705078,0.04443359,0.1259766,-0.3056641,-0.2255859
5202,-53,59.1875,-171.6875,-0.5488281,0.7236328,-0.02832031,0.1376953,-0.2993164,-0.2246094
5206,-68.5,53.3125,-201.75,-0.8125,0.4086914,0.2558594,0.1523438,-0.2880859,-0.2285156
5210,-40.6875,29.25,-231.25,-1.106934,0.1757813,0.3671875,0.1699219,-0.2729492,-0.2255859
5214,-6.25,15.5,-235.4375,-1.017578,0.269043,0.4326172,0.1796875,-0.2617188,-0.2285156
5218,17.1875,35.375,-215.75,-0.9594727,0.3544922,0.3710938,0.1938477,-0.2495117,-0.2255859
5222,21.1875,56,-192.3125,-1.009766,0.4907227,0.2094727,0.2070313,-0.2382813,-0.2216797
5226,-2.75,51.4375,-171.1875,-1.063965,0.6420898,0.07128906,0.215332,-0.2319336,-0.2202148
5230,-41.9375,29.25,-166.875,-1.099121,0.6030273,0.005859375,0.2270508,-0.2192383,-0.2148438
5234,-71.3125,3.4375,-176.3125,-1.017578,0.3310547,0.1289063,0.2368164,-0.2045898,-0.2177734
5238,-63.4375,4.25,-188.4375,-0.8896484,0.05908203,0.3056641,0.2412109,-0.1918945,-0.2216797
5242,-34.5625,30,-189.8125,-0.8818359,-0.02978516,0.355957,0.25,-0.1743164,-0.2216797
5246,-13.125,57.25,-185.1875,-0.9672852,0.05517578,0.2866211,0.2583008,-0.1557617,-0.2148438
5250,-13.875,68.375,-176.8125,-1.106934,0.1176758,0.1943359,0.2641602,-0.1479492,-0.2133789
5254,-30.3125,58.75,-171.6875,-1.234863,0.121582,0.1557617,0.2700195,-0.1333008,-0.2094727
5258,-41.5625,38.3125,-170.625,-1.273438,-0.02587891,0.2094727,0.2773438,-0.1142578,-0.2055664
