Packet number,Gyroscope X (deg/s),Gyroscope Y (deg/s),Gyroscope Z (deg/s),Accelerometer X (g),Accelerometer Y (g),Accelerometer Z (g),Magnetometer X (G),Magnetometer Y (G),Magnetometer Z (G)
2,18.1875,-4.0625,-2.5,-0.9633789,0.171875,-0.07080078,0.3139648,-0.1142578,-0.1303711
6,15.5625,-2.5,-2.0625,-0.9711914,0.1601563,-0.07470703,0.3129883,-0.1142578,-0.1289063
10,15.5,-1.625,-2.875,-0.9829102,0.1523438,-0.03222656,0.3154297,-0.1142578,-0.1303711
14,15.125,-1.75,-3.9375,-1.001953,0.15625,-0.03613281,0.3139648,-0.1157227,-0.1303711
18,16.3125,-2.9375,-3.25,-1.017578,0.1523438,-0.009277344,0.3139648,-0.1166992,-0.1289063
22,18.0625,-3.9375,-4.0625,-1.017578,0.171875,-0.001464844,0.3139648,-0.1166992,-0.1318359
26,17.25,-4.875,-3,-1.041016,0.21875,-0.009277344,0.3139648,-0.1166992,-0.1303711
30,16.1875,-5.4375,-0.5625,-1.033203,0.2573242,0.005859375,0.3139648,-0.1166992,-0.1303711
34,10.5,-3.125,1.6875,-1.048828,0.2963867,-0.001464844,0.3139648,-0.1196289,-0.1303711
38,5.875,-2.6875,3.8125,-1.087402,0.2963867,0.01367188,0.3139648,-0.1166992,-0.1289063
42,3.8125,-5.4375,8.875,-1.137695,0.3193359,0.04052734,0.3154297,-0.1181641,-0.1289063
46,7.0625,-10.3125,14.6875,-1.129883,0.2963867,0.05175781,0.3154297,-0.1181641,-0.1303711
50,14,-12.8125,19.5,-1.095215,0.3388672,0.06738281,0.3129883,-0.1220703,-0.1333008
54,17.75,-13.375,26.1875,-1.114746,0.4204102,0.03662109,0.3115234,-0.1230469,-0.1318359
58,16,-14.1875,35.9375,-1.099121,0.4985352,0.009765625,0.3115234,-0.1269531,-0.1333008
62,10.4375,-11.6875,47.125,-1.052734,0.5292969,-0.01318359,0.3105469,-0.1293945,-0.1347656
66,5.8125,-8.3125,57.0625,-1.063965,0.5058594,-0.009277344,0.3105469,-0.1318359,-0.1347656
70,7.8125,-7.875,63.5625,-1.071777,0.4985352,-0.009277344,0.3081055,-0.1396484,-0.1357422
74,9.75,-4.6875,72.125,-1.052734,0.5488281,-0.005371094,0.3071289,-0.1455078,-0.1386719
79,5.3125,-3.875,80.8125,-1.025391,0.5952148,-0.04003906,0.3032227,-0.1518555,-0.137207
83,1.5625,2.25,87.875,-0.9790039,0.5683594,-0.07080078,0.3022461,-0.1606445,-0.137207
87,-0.0625,27.625,90.9375,-0.8354492,0.5058594,0.001953125,0.2998047,-0.1669922,-0.1347656
91,3.75,22.625,103.0625,-1.067871,0.5175781,-0.1245117,0.2973633,-0.1757813,-0.1333008
95,0.625,3,103.3125,-1.037109,0.5449219,-0.08203125,0.2949219,-0.1855469,-0.1333008
99,-8.5625,-15.4375,87.25,-1.071777,0.5527344,-0.07470703,0.2939453,-0.1918945,-0.1347656
103,-3,-36.5,91.625,-1.137695,0.4243164,-0.01660156,0.2890625,-0.1967773,-0.1347656
107,12.3125,-45.0625,98.3125,-0.9248047,0.4052734,-0.01318359,0.2856445,-0.2055664,-0.137207
111,32.1875,-33.1875,109.6875,-0.7695313,0.4946289,-0.07080078,0.2773438,-0.2158203,-0.1416016
115,33.4375,-15.25,134.625,-1.005859,0.4438477,-0.5053711,0.2749023,-0.2231445,-0.1386719
119,6.4375,-34.1875,163.6875,-0.9516602,1.061523,-0.02441406,0.2651367,-0.2382813,-0.1425781
123,-7.5,-26.625,139.5,-0.6533203,0.8710938,-0.07861328,0.2558594,-0.2495117,-0.1455078
127,-10.4375,-11.4375,150.6875,-0.7929688,0.9335938,-0.06298828,0.2509766,-0.2558594,-0.144043
131,-17.1875,-6.75,160,-0.8237305,0.9760742,-0.1401367,0.2402344,-0.2680664,-0.1469727
135,-34.8125,-3.625,171.6875,-0.8666992,0.9604492,-0.128418,0.2319336,-0.2792969,-0.1484375
139,-44,-6.0625,184.9375,-0.8818359,0.7666016,-0.04003906,0.2260742,-0.2856445,-0.1508789
143,-42.6875,-8.3125,190.375,-0.7890625,0.7705078,0.02880859,0.2104492,-0.296875,-0.1538086
147,-35.3125,-14.3125,183.6875,-0.7543945,0.7895508,0.04052734,0.1962891,-0.3081055,-0.15625
151,-19.4375,-15.25,169.875,-0.5449219,0.809082,0.07910156,0.1879883,-0.3144531,-0.1591797
155,-2.0625,-10.125,161.6875,-0.6962891,0.9375,0.1367188,0.1738281,-0.3217773,-0.1591797
159,3.0625,-18.375,176.75,-0.7426758,1.143066,0.06738281,0.1606445,-0.3330078,-0.1616211
163,-7.4375,-14.125,188.5625,-0.5952148,1.251953,0.08251953,0.1474609,-0.3378906,-0.1630859
167,-16.0625,-10.5625,192.5,-0.5913086,1.244141,0.06347656,0.1318359,-0.3442383,-0.1630859
171,-22.4375,-9.125,194.5,-0.5722656,1.267578,0.06347656,0.1166992,-0.3530273,-0.1660156
175,-29.1875,-8.5625,198.3125,-0.5292969,1.36084,0.06738281,0.1020508,-0.3554688,-0.1660156
179,-35.375,-4.75,202.875,-0.4750977,1.39209,0.08642578,0.08300781,-0.3579102,-0.1699219
183,-32.4375,1.75,220.875,-0.4594727,1.411133,0.1328125,0.06640625,-0.3618164,-0.1738281
187,-32.5625,6,238.375,-0.4829102,1.531738,0.1289063,0.0546875,-0.3642578,-0.175293
191,-38.9375,7.4375,254.25,-0.4985352,1.605469,0.140625,0.03076172,-0.3632813,-0.1767578
195,-54,8.8125,269.625,-0.4287109,1.621094,0.1479492,0.006835938,-0.3632813,-0.1821289
199,-68.1875,10.375,279.1875,-0.4633789,1.574707,0.1367188,-0.006835938,-0.3579102,-0.1865234
203,-73.875,7.875,288.6875,-0.4443359,1.422852,0.1904297,-0.03320313,-0.3554688,-0.1918945
208,-70.75,3.0625,295.375,-0.4829102,1.388184,0.2060547,-0.05810547,-0.3432617,-0.1972656
212,-69.6875,-4.4375,300.1875,-0.3935547,1.325684,0.1904297,-0.07470703,-0.3354492,-0.2011719
216,-61.75,-6.25,312.9375,-0.3745117,1.228516,0.2211914,-0.09863281,-0.3256836,-0.2055664
220,-57.875,-9.75,321.125,-0.28125,1.228516,0.1674805,-0.1245117,-0.3095703,-0.2094727
224,-70.4375,-5.9375,322.375,-0.2231445,1.294922,0.08642578,-0.1391602,-0.2993164,-0.2133789
228,-95.75,-3.625,316.3125,-0.230957,1.267578,0.07910156,-0.1640625,-0.2783203,-0.2163086
232,-107.9375,-10.25,317.125,-0.2890625,0.9643555,0.08642578,-0.184082,-0.2543945,-0.2231445
236,-93.1875,-16.4375,321.125,-0.2348633,0.6694336,0.1479492,-0.1982422,-0.2368164,-0.2246094
240,-61.3125,-23.9375,321.875,-0.1728516,0.4946289,0.1826172,-0.2163086,-0.2080078,-0.2299805
244,-38.1875,-31.5625,318.125,-0.09912109,0.5449219,0.1171875,-0.2319336,-0.1831055,-0.2285156
248,-32.1875,-31,307.875,-0.03710938,0.6733398,0.1098633,-0.2426758,-0.1679688,-0.2270508
252,-49.625,-34.5,294.6875,-0.01025391,0.7509766,0.06347656,-0.253418,-0.1396484,-0.2270508
256,-73.875,-31.8125,289.125,0.02832031,0.6499023,0.02880859,-0.2617188,-0.1108398,-0.2216797
260,-86.9375,-29.875,291.25,-0.01806641,0.3623047,0.03662109,-0.2685547,-0.09082031,-0.2216797
264,-92.5,-29.5,289.6875,0.01269531,0.04736328,0.01708984,-0.2724609,-0.05957031,-0.2202148
268,-97.3125,-31,281.4375,0.01269531,-0.4335938,-0.1054688,-0.2734375,-0.02685547,-0.21875
272,-98.1875,-31.3125,257,-0.1069336,-1.739258,-0.324707,-0.2724609,-0.009277344,-0.2148438
276,-83.0625,-32.5625,201.125,0.07080078,-1.486816,-0.2822266,-0.2734375,0.01611328,-0.2109375
280,-49.9375,-33.5,142.25,0.140625,-1.90625,-0.3515625,-0.2700195,0.03759766,-0.2080078
284,-5.9375,-30.25,75.625,0.2797852,-1.964355,-0.309082,-0.2700195,0.04492188,-0.2041016
288,29.0625,-15.8125,20.9375,0.4155273,-1.591309,-0.1938477,-0.2700195,0.04882813,-0.2026367
292,41.3125,-3,-27.9375,0.4467773,-1.032227,-0.02050781,-0.2700195,0.04980469,-0.2026367
296,34.6875,-0.3125,-63.25,0.4931641,-0.5966797,0.1674805,-0.2709961,0.04638672,-0.2041016
300,29.8125,-1.25,-85.875,0.5356445,-0.3364258,0.3637695,-0.2724609,0.03759766,-0.2026367
304,37.5625,-10.5,-92.3125,0.5317383,-0.2241211,0.4521484,-0.2744141,0.02636719,-0.2055664
308,49.9375,-17.875,-87.0625,0.6713867,-0.1733398,0.3945313,-0.2758789,0.02148438,-0.2041016
312,55.5625,-13.625,-83.5,0.7915039,-0.1616211,0.2402344,-0.2783203,0.008789063,-0.2041016
316,43.125,-0.5625,-91.25,0.8457031,-0.1459961,0.07910156,-0.2817383,-0.0004882813,-0.2041016
320,27.1875,12.375,-112.3125,0.7875977,-0.2275391,0.159668,-0.2827148,-0.01074219,-0.2041016
324,21,10.625,-130.8125,0.59375,-0.2861328,0.2060547,-0.2827148,-0.02050781,-0.2080078
328,21.25,5.5625,-149.3125,0.5708008,-0.3481445,0.2290039,-0.2827148,-0.03466797,-0.206543
332,30,3.875,-172.4375,0.4853516,-0.3989258,0.1367188,-0.2817383,-0.04443359,-0.206543
337,42.25,4.625,-197.1875,0.4580078,-0.3364258,0.06738281,-0.2817383,-0.06298828,-0.2080078
341,53.5625,9.4375,-221.625,0.3730469,-0.1772461,0.140625,-0.2792969,-0.08447266,-0.206543
345,63.5,0.3125,-230.6875,0.1948242,0.05517578,0.1479492,-0.2768555,-0.09960938,-0.2094727
349,62.875,-1.25,-225.3125,0.3959961,0.2299805,0.09033203,-0.2709961,-0.1230469,-0.206543
353,58.0625,15.3125,-219.75,0.4814453,0.4555664,0.03662109,-0.2651367,-0.1455078,-0.2055664
357,32.8125,23.5,-232.9375,0.3959961,0.3896484,0.009765625,-0.2602539,-0.1621094,-0.2080078
361,12,21.5625,-253,0.2836914,0.3310547,0.02880859,-0.2495117,-0.1821289,-0.2080078
365,25.8125,20.375,-259.125,0.2993164,0.1445313,0.2172852,-0.2363281,-0.203125,-0.2094727
369,67.75,21.8125,-240.3125,0.2216797,0.2148438,0.1826172,-0.2280273,-0.2182617,-0.2094727
373,95.9375,32.9375,-220.1875,0.2758789,0.5058594,0.144043,-0.2138672,-0.2368164,-0.2055664
377,81.8125,39.5625,-214.3125,0.159668,0.855957,0.005859375,-0.1982422,-0.2568359,-0.2041016
381,7.375,34.625,-279.5,-0.03710938,1.209473,0.1098633,-0.1865234,-0.2695313,-0.2041016
385,-23.875,1.3125,-311.5,-0.2543945,0.777832,0.2675781,-0.1650391,-0.2866211,-0.206543
389,45.3125,-15.8125,-312.3125,-0.2231445,0.3974609,0.5712891,-0.1435547,-0.3017578,-0.2055664
393,116.5625,-22,-282.1875,-0.1962891,0.8710938,0.2290039,-0.128418,-0.3144531,-0.199707
397,119.5,-0.75,-226.8125,0.1367188,1.39209,0.03271484,-0.1069336,-0.3291016,-0.1904297
401,68.5,40.0625,-183.6875,0.1987305,1.601563,-0.1206055,-0.08886719,-0.3417969,-0.1835938
405,-9.375,62.875,-191.6875,-0.2504883,1.578613,-0.03613281,-0.07714844,-0.3466797,-0.1835938
409,-62.125,13.6875,-282.9375,-0.8046875,1.04248,0.1713867,-0.05664063,-0.3505859,-0.1850586
413,5.4375,-41.5,-317.5,-0.8007813,0.6811523,0.4907227,-0.03173828,-0.3520508,-0.1889648
417,83.8125,-44.1875,-289,-0.4985352,1.135742,0.3017578,-0.01416016,-0.3554688,-0.1875
421,82.6875,-21.375,-240.125,-0.28125,1.765137,0.02880859,0.005859375,-0.3618164,-0.1806641
425,16.625,5.4375,-207.25,-0.2080078,1.850586,-0.1015625,0.02832031,-0.3632813,-0.1767578
429,-37.5625,34.0625,-184.375,-0.2192383,1.306641,-0.08984375,0.0390625,-0.3603516,-0.175293
433,-21.9375,59.8125,-176.6875,-0.5292969,0.8481445,0.08251953,0.05566406,-0.3579102,-0.1796875
437,10,33.8125,-227.625,-1.149414,0.8710938,0.1367188,0.07861328,-0.3554688,-0.1782227
441,36.625,-17.8125,-249.75,-1.013672,1.197754,0.09814453,0.09130859,-0.3520508,-0.1728516
445,30.9375,-7.75,-223.3125,-0.5952148,1.481445,0.1171875,0.1118164,-0.3466797,-0.175293
449,-3.8125,17.375,-198.4375,-0.6069336,1.527832,-0.05517578,0.1293945,-0.3408203,-0.1728516
453,-31.9375,33.875,-186.9375,-0.6533203,1.279297,-0.06689453,0.1450195,-0.3344727,-0.1728516
457,-30.25,47.75,-181.1875,-0.715332,1.01123,-0.1054688,0.1591797,-0.3242188,-0.175293
461,-7.3125,58.75,-175.0625,-0.8393555,0.9682617,-0.03222656,0.1757813,-0.3144531,-0.1728516
466,8,57.5625,-167.0625,-0.9711914,1.077148,0.05175781,0.1855469,-0.3066406,-0.1713867
470,15.5625,42.0625,-154.4375,-1.067871,1.135742,0.1020508,0.2021484,-0.296875,-0.168457
474,18.6875,23.5625,-149.5625,-0.9868164,1.174316,0.1020508,0.2138672,-0.2866211,-0.1630859
478,18.5,10.9375,-149.8125,-0.8237305,1.225098,0.02490234,0.2202148,-0.2832031,-0.1630859
482,11.8125,18.3125,-137.25,-0.6069336,1.271484,0.02880859,0.2294922,-0.2719727,-0.1591797
486,-1.5,37.75,-119.8125,-0.5488281,1.321777,0.03271484,0.237793,-0.2631836,-0.1577148
490,-9.625,51.625,-97.3125,-0.6884766,1.248047,0.2060547,0.2451172,-0.2568359,-0.15625
494,-3.9375,33.25,-71.625,-1.033203,1.225098,0.3212891,0.2509766,-0.2495117,-0.1547852
498,14.3125,-11.9375,-57.625,-0.9750977,1.112305,0.3867188,0.2558594,-0.2441406,-0.1538086
502,34.25,-30.6875,-43.5625,-0.6572266,1.209473,0.2368164,0.2583008,-0.2392578,-0.1523438
506,29.75,-21.25,-18.625,-0.4829102,1.356934,0.09423828,0.2568359,-0.2392578,-0.1538086
510,8.375,-7.25,9.625,-0.4946289,1.364746,0.03271484,0.2568359,-0.2416992,-0.1547852
514,-6.875,-0.125,33.6875,-0.5834961,1.174316,0.05957031,0.2592773,-0.2392578,-0.1538086
518,-7.375,-4.625,43.75,-0.7270508,1.030762,0.1289063,0.2543945,-0.2441406,-0.1523438
522,-2.25,-19.4375,51.4375,-0.765625,0.9492188,0.09423828,0.253418,-0.2480469,-0.1538086
526,6.4375,-25.875,61,-0.7114258,0.9257813,0.08642578,0.25,-0.2504883,-0.1547852
530,12.75,-26.8125,71.5625,-0.715332,0.9799805,0.07128906,0.2475586,-0.2583008,-0.15625
534,16.9375,-29.375,84,-0.7192383,1.038574,0.07128906,0.2402344,-0.2617188,-0.1591797
538,18.75,-28.625,96.25,-0.715332,1.120117,0.05566406,0.2353516,-0.2680664,-0.1606445
542,12.4375,-27.8125,107.3125,-0.730957,1.255859,0.05175781,0.2270508,-0.2744141,-0.1577148
546,-0.25,-26.5625,116.5,-0.7348633,1.310547,0.06347656,0.2202148,-0.2832031,-0.1616211
550,-13.4375,-28.5625,121.25,-0.831543,1.364746,0.1020508,0.2128906,-0.2895508,-0.1630859
554,-20.1875,-39.125,135.5,-0.9169922,1.310547,0.1557617,0.203125,-0.296875,-0.1645508
558,-8.625,-44.6875,157.375,-0.7851563,1.20166,0.1787109,0.1904297,-0.3041992,-0.1699219
562,5.125,-35.5,179.4375,-0.6923828,1.225098,0.1787109,0.1821289,-0.3095703,-0.1699219
566,7.375,-27.25,196.3125,-0.7426758,1.341309,0.159668,0.1650391,-0.3217773,-0.1713867
570,-1.3125,-28,203.9375,-0.7773438,1.411133,0.1674805,0.1499023,-0.3291016,-0.1738281
574,-10.5625,-32.8125,202.875,-0.8198242,1.442383,0.1904297,0.1367188,-0.3354492,-0.1728516
578,-16.5,-36.1875,211.125,-0.746582,1.418945,0.159668,0.1166992,-0.3457031,-0.175293
582,-11.5625,-30.125,228.875,-0.6884766,1.407715,0.144043,0.09521484,-0.3491211,-0.1782227
586,-12.9375,-20.4375,252.3125,-0.6728516,1.523926,0.105957,0.08300781,-0.3544922,-0.1796875
590,-21.875,-15.6875,265.5,-0.6845703,1.461914,0.05957031,0.05810547,-0.3579102,-0.1796875
595,-26.25,-12.875,268,-0.6845703,1.469727,0.1132813,0.03417969,-0.359375,-0.1806641
599,-46.3125,-19.625,260.6875,-0.746582,1.547363,0.1132813,0.01757813,-0.359375,-0.1865234
603,-60.8125,-27.5625,262.0625,-0.6416016,1.407715,0.1328125,-0.005859375,-0.3554688,-0.1918945
607,-56.0625,-23.0625,280.9375,-0.5292969,1.228516,0.125,-0.03076172,-0.3505859,-0.1943359
611,-38.9375,-14.625,304.3125,-0.4482422,1.100586,0.1132813,-0.04833984,-0.3457031,-0.1972656
615,-27.1875,-6.75,312.5625,-0.3862305,1.158691,0.1098633,-0.07324219,-0.3378906,-0.1972656
619,-40.6875,-4.6875,305.375,-0.3862305,1.294922,0.06738281,-0.09960938,-0.3266602,-0.2041016
623,-71.125,-7.0625,295.3125,-0.3046875,1.209473,0.05957031,-0.1162109,-0.3193359,-0.2041016
627,-86.625,-5.5625,291.3125,-0.3393555,1.022949,0.125,-0.1391602,-0.3017578,-0.2109375
631,-72.9375,-19.5,299.625,-0.362793,0.6499023,0.1943359,-0.1601563,-0.2807617,-0.2133789
635,-35.9375,-27.0625,305.125,-0.1572266,0.5019531,0.2402344,-0.1757813,-0.2680664,-0.2148438
639,-8.875,-26.1875,305.0625,-0.02587891,0.5605469,0.2094727,-0.1962891,-0.2480469,-0.2163086
643,-20.375,-22.75,296.0625,0.05908203,0.793457,0.09033203,-0.2163086,-0.2280273,-0.2148438
647,-51.25,-17.25,277.1875,0.125,0.7041016,0.06738281,-0.2270508,-0.2143555,-0.2133789
651,-71.0625,-10.125,264.3125,0.1870117,0.5058594,0.08251953,-0.2387695,-0.1904297,-0.2163086
655,-60.75,-8.375,258.8125,0.07470703,0.2885742,0.2329102,-0.2509766,-0.1655273,-0.2177734
659,-24.75,-26.375,269.75,0.03564453,0.09033203,0.2983398,-0.2578125,-0.1479492,-0.2148438
663,10.875,-37.375,270.8125,0.2797852,0.07861328,0.2983398,-0.2675781,-0.1245117,-0.2133789
667,18.1875,-36.875,254.3125,0.3417969,0.3232422,0.2021484,-0.2734375,-0.1030273,-0.2109375
671,-10,-40.6875,229.6875,0.4038086,0.3818359,0.144043,-0.2792969,-0.08837891,-0.2080078
675,-25.1875,-34.0625,218.5,0.4775391,0.2612305,0.2094727,-0.2841797,-0.06689453,-0.2026367
679,-31.9375,-34.3125,218.375,0.4467773,0.2573242,0.2402344,-0.2875977,-0.04443359,-0.2026367
683,-35.3125,-44.8125,219.75,0.4272461,0.1367188,0.2329102,-0.2875977,-0.03076172,-0.199707
687,-37.75,-59.4375,220.0625,0.4077148,-0.2666016,0.1210938,-0.2875977,-0.008300781,-0.1943359
691,-28.8125,-57.25,209.8125,0.543457,-0.9467773,0.005859375,-0.2875977,0.01513672,-0.1889648
695,-41.8125,-37.625,174.4375,0.4814453,-1.424316,-0.2324219,-0.2866211,0.02636719,-0.1821289
699,-50.4375,-17.6875,102.1875,0.3032227,-1.871094,-0.3632813,-0.2851563,0.04248047,-0.1796875
703,-27.6875,-18,26.625,0.2216797,-2.073242,-0.2705078,-0.2851563,0.05273438,-0.1782227
707,34.875,-34.3125,-36.25,0.2177734,-1.657715,-0.001464844,-0.2851563,0.05273438,-0.175293
711,79.0625,-49.8125,-64.375,0.4311523,-0.6821289,0.07910156,-0.2890625,0.04492188,-0.1728516
715,64.0625,-41.1875,-70.9375,0.7412109,0.1293945,0.02880859,-0.2915039,0.03613281,-0.1713867
719,14.5625,-19.8125,-61.5625,0.9038086,0.2338867,0.02099609,-0.293457,0.03125,-0.1699219
724,-11.625,-2.875,-55.3125,0.8574219,0.04003906,0.04443359,-0.2958984,0.02490234,-0.1699219
728,-7.125,1.75,-54.875,0.8183594,-0.2939453,0.1020508,-0.2973633,0.02246094,-0.168457
732,16.625,-0.8125,-60.1875,0.7993164,-0.5463867,0.105957,-0.2983398,0.01611328,-0.1699219
736,39.125,-5.375,-75.1875,0.8032227,-0.6201172,0.05566406,-0.2983398,0.008789063,-0.1699219
740,52.625,-5,-100.4375,0.7451172,-0.581543,0.05175781,-0.3032227,-0.0004882813,-0.1674805
744,42.3125,-3.4375,-126.25,0.7294922,-0.3095703,0.04443359,-0.3017578,-0.01074219,-0.1699219
748,12.625,4.75,-140.125,0.7529297,-0.1035156,0.08642578,-0.3017578,-0.0234375,-0.1699219
752,-12.9375,17.375,-146.5,0.7490234,-0.09960938,0.09033203,-0.3017578,-0.03808594,-0.1699219
756,-14.6875,18.875,-158,0.625,-0.2900391,0.1826172,-0.3032227,-0.04833984,-0.1728516
760,6.9375,6.3125,-171.75,0.5239258,-0.3173828,0.1943359,-0.3007813,-0.06201172,-0.1738281
764,29.1875,-3.4375,-183.6875,0.5859375,-0.2509766,0.1674805,-0.2973633,-0.07958984,-0.1767578
768,49.4375,-8.4375,-191.8125,0.5395508,0.04736328,0.1289063,-0.2983398,-0.09326172,-0.1738281
772,32.5,-6.25,-189.5625,0.6870117,0.5058594,-0.02441406,-0.2949219,-0.1118164,-0.1728516
776,-6.25,13.125,-186.8125,0.7412109,0.6069336,-0.02441406,-0.2915039,-0.1318359,-0.1728516
780,-44.4375,27.125,-184.375,0.7099609,0.5566406,0.005859375,-0.2866211,-0.1420898,-0.1728516
784,-40.1875,28.9375,-191.1875,0.5708008,0.1757813,0.2211914,-0.2792969,-0.1567383,-0.1782227
788,-5.75,12.4375,-198.125,0.4892578,0.2070313,0.2250977,-0.2685547,-0.1733398,-0.1796875
792,14.5,10.375,-192.375,0.675293,0.4125977,0.09814453,-0.2675781,-0.1845703,-0.1806641
796,5.5,34.8125,-171.25,0.8261719,0.6030273,-0.0859375,-0.2553711,-0.2006836,-0.1821289
800,-30.625,72,-164.4375,0.7373047,0.6733398,-0.1166992,-0.2446289,-0.2158203,-0.1875
804,-61.75,79.5625,-201.0625,0.3032227,0.6420898,0.1210938,-0.237793,-0.2207031,-0.1958008
808,-43.625,35.25,-238.5,-0.04101563,0.2729492,0.4135742,-0.222168,-0.2329102,-0.2011719
812,40.3125,0.9375,-235.3125,0.1132813,0.2416992,0.5019531,-0.2055664,-0.2495117,-0.2055664
816,95.875,-4.5625,-212.625,0.3305664,0.7548828,0.2060547,-0.1962891,-0.2617188,-0.2011719
820,86.375,18.125,-176.1875,0.5629883,1.12793,-0.009277344,-0.184082,-0.2792969,-0.1958008
824,19.4375,52.3125,-175.1875,0.3339844,1.590332,-0.01318359,-0.1699219,-0.2919922,-0.1928711
828,-83.8125,22.8125,-249.4375,-0.1069336,1.251953,0.06738281,-0.1591797,-0.2993164,-0.1943359
832,-59.375,3,-253.3125,0.1054688,0.5527344,0.4057617,-0.1376953,-0.3056641,-0.2011719
836,18.6875,8.375,-232.75,0.004882813,0.6459961,0.3481445,-0.1186523,-0.3154297,-0.2041016
840,56.3125,9.875,-197.8125,0.1171875,1.003418,0.1674805,-0.1069336,-0.3217773,-0.2041016
844,42.5625,30.4375,-172.9375,0.206543,1.259766,0.03271484,-0.09033203,-0.3305664,-0.199707
848,-6.9375,44.1875,-173.875,-0.01806641,1.345215,0.02490234,-0.07324219,-0.3378906,-0.199707
853,-52.25,31.625,-213.25,-0.2387695,0.953125,0.1171875,-0.06298828,-0.3408203,-0.2011719
857,-27.4375,27.6875,-232.6875,-0.2387695,0.5800781,0.2866211,-0.04248047,-0.3378906,-0.206543
861,24.75,14.9375,-241.3125,-0.5214844,0.7158203,0.2983398,-0.02246094,-0.3432617,-0.2080078
865,63.75,5.6875,-223.9375,-0.3935547,1.01123,0.2060547,-0.006835938,-0.3442383,-0.2041016
869,66.25,21.375,-189.5,-0.2192383,1.356934,0.06347656,0.01074219,-0.3481445,-0.199707
873,30.25,44,-167.5625,-0.2661133,1.450195,-0.02441406,0.02832031,-0.3544922,-0.1958008
877,-26.75,45.25,-191.1875,-0.6030273,1.345215,0.01708984,0.04150391,-0.3520508,-0.1958008
881,-36.8125,24.9375,-221.6875,-0.6689453,0.8632813,0.2133789,0.05957031,-0.3481445,-0.1987305
885,-1.9375,15.3125,-227.625,-0.6923828,0.840332,0.2558594,0.08056641,-0.3408203,-0.1987305
889,21.625,13.6875,-209.75,-0.6108398,1.084961,0.2060547,0.09277344,-0.3378906,-0.1987305
893,13.625,26.5,-186.75,-0.5488281,1.255859,0.140625,0.1118164,-0.3330078,-0.1958008
897,-9.0625,38.9375,-168.6875,-0.5605469,1.182129,0.105957,0.1293945,-0.3305664,-0.1943359
901,-17.1875,52.25,-158.125,-0.5795898,0.9760742,0.1210938,0.1391602,-0.3266602,-0.1918945
905,-19.3125,57.875,-164.375,-0.765625,0.9453125,0.1289063,0.1523438,-0.3154297,-0.1928711
909,-13.4375,51.125,-173.0625,-0.8198242,0.890625,0.2060547,0.1689453,-0.3066406,-0.1904297
913,-3.5625,46.75,-168.875,-0.8393555,0.9296875,0.2368164,0.1796875,-0.2993164,-0.1918945
917,-1.875,46.5,-161.5625,-0.8510742,1.038574,0.2133789,0.1938477,-0.2880859,-0.1865234
921,-9.125,46.875,-154.3125,-0.8198242,1.108398,0.159668,0.2070313,-0.2807617,-0.1850586
925,-16.875,52.75,-142.375,-0.730957,1.100586,0.1132813,0.2138672,-0.2729492,-0.1850586
929,-20.4375,65.8125,-126.5625,-0.6689453,1.088867,0.08642578,0.2260742,-0.2631836,-0.1821289
933,-17.8125,76.8125,-101.4375,-0.7929688,1.092773,0.105957,0.2353516,-0.2529297,-0.1782227
937,-19.25,77.375,-80,-0.8276367,1.17041,0.1943359,0.2426758,-0.2470703,-0.1738281
941,-20.125,69.4375,-63.3125,-0.9985352,1.213379,0.3330078,0.2485352,-0.2416992,-0.1699219
945,-18.5625,36.625,-55.3125,-1.103027,1.178223,0.3979492,0.2543945,-0.2368164,-0.1674805
949,-3.8125,3.6875,-42.25,-0.9208984,1.092773,0.425293,0.2558594,-0.2319336,-0.1645508
953,16.625,-5.4375,-17.6875,-0.7192383,1.116211,0.3520508,0.2583008,-0.2294922,-0.1660156
957,22.75,-4.875,12.4375,-0.6728516,1.193848,0.2402344,0.2602539,-0.2294922,-0.1645508
961,10.3125,-2.3125,34.5,-0.6884766,1.197754,0.2060547,0.2592773,-0.2294922,-0.1660156
965,-10.1875,-4.0625,45.5,-0.7192383,1.073242,0.1826172,0.2558594,-0.2358398,-0.1645508
969,-21.75,-7.75,45.625,-0.746582,0.8364258,0.1865234,0.2509766,-0.2358398,-0.1630859
973,-17.625,-15.3125,42.1875,-0.7617188,0.6733398,0.1826172,0.2509766,-0.2392578,-0.1674805
977,-2.5625,-24.75,34.125,-0.7695313,0.6499023,0.1787109,0.25,-0.2407227,-0.168457
982,15.25,-33.375,34.75,-0.7773438,0.7431641,0.159668,0.2460938,-0.2431641,-0.1728516
986,34.1875,-41.625,46.625,-0.78125,0.875,0.1557617,0.2426758,-0.2480469,-0.1728516
990,43.625,-44.25,65.125,-0.7578125,1.06543,0.1098633,0.2392578,-0.2543945,-0.1728516
994,36.6875,-41.8125,85.5,-0.7036133,1.217285,0.05175781,0.2319336,-0.2607422,-0.1728516
998,19.25,-38.375,96.8125,-0.7387695,1.263672,0.05175781,0.2270508,-0.2670898,-0.175293
1002,4.6875,-39,106.375,-0.8007813,1.240234,0.1098633,0.2202148,-0.2729492,-0.1767578
1006,3.75,-42,118.375,-0.8198242,1.154785,0.1904297,0.2119141,-0.2817383,-0.1782227
1010,16.875,-43.875,135.875,-0.8237305,1.131836,0.2441406,0.203125,-0.2856445,-0.1782227
1014,35.5,-46.0625,156.1875,-0.862793,1.189941,0.2675781,0.1928711,-0.296875,-0.1806641
1018,46.5,-48.125,176.625,-0.831543,1.368652,0.2519531,0.1757813,-0.3066406,-0.1806641
1022,37.375,-46.3125,190.3125,-0.7543945,1.535645,0.1787109,0.1665039,-0.3168945,-0.1796875
1026,15.6875,-37.4375,203,-0.730957,1.586426,0.144043,0.1474609,-0.3266602,-0.1796875
1030,-1.4375,-30.3125,215.625,-0.730957,1.527832,0.1171875,0.128418,-0.3344727,-0.1796875
1034,-4.9375,-23.875,230.375,-0.7348633,1.438477,0.1518555,0.1166992,-0.3408203,-0.1806641
1038,-0.0625,-21.3125,244.6875,-0.7270508,1.384277,0.144043,0.09521484,-0.3481445,-0.1821289
1042,-2,-18.375,254.625,-0.7192383,1.46582,0.1210938,0.07470703,-0.3530273,-0.1821289
1046,-18.3125,-13.625,264.1875,-0.6225586,1.49707,0.1020508,0.05712891,-0.3579102,-0.1821289
1050,-42.9375,-7.375,268.5,-0.6069336,1.508301,0.05957031,0.03417969,-0.3579102,-0.1850586
1054,-70.9375,-6.0625,269.125,-0.6376953,1.426758,0.08251953,0.009277344,-0.3544922,-0.1889648
1058,-71.9375,-11.625,275.75,-0.6689453,1.158691,0.1635742,-0.006835938,-0.3520508,-0.1943359
1062,-51.75,-16.5,281.125,-0.5913086,1.112305,0.2250977,-0.03076172,-0.3466797,-0.199707
1066,-46.9375,-15.75,290.4375,-0.4750977,1.283203,0.1787109,-0.05566406,-0.3417969,-0.2041016
1070,-57.9375,-10.75,291.875,-0.4750977,1.380371,0.1787109,-0.07128906,-0.3330078,-0.2055664
1074,-79,-9.875,291.3125,-0.4672852,1.493164,0.1787109,-0.09619141,-0.3217773,-0.2109375
1078,-104,-10.875,301.375,-0.4091797,1.356934,0.144043,-0.1201172,-0.3081055,-0.2133789
1082,-109.875,-10.5625,309.125,-0.3935547,1.06543,0.2060547,-0.1352539,-0.2929688,-0.2216797
1086,-101.625,-23.0625,321.5,-0.4443359,0.9101563,0.2060547,-0.1601563,-0.2719727,-0.2285156
1090,-85.625,-35.625,323.25,-0.28125,0.6577148,0.2749023,-0.1806641,-0.2495117,-0.230957
1094,-67.9375,-41.8125,324.5,-0.1806641,0.5722656,0.2329102,-0.1948242,-0.2329102,-0.2324219
1098,-67.6875,-44.125,316.875,-0.08789063,0.5527344,0.1943359,-0.2138672,-0.2080078,-0.2324219
1102,-79.0625,-44.125,310.25,-0.04492188,0.5253906,0.1328125,-0.2294922,-0.1791992,-0.2338867
1106,-93,-43.1875,303.375,-0.01025391,0.3310547,0.07128906,-0.2412109,-0.1591797,-0.2324219
1111,-96.6875,-34.625,295.875,0.01660156,0.2299805,0.1132813,-0.2519531,-0.1279297,-0.230957
1115,-107.5,-39.125,288.0625,0.004882813,0.1333008,0.03662109,-0.2617188,-0.09814453,-0.230957
1119,-116.8125,-38.125,276.3125,0.140625,-0.1035156,-0.03613281,-0.2661133,-0.07714844,-0.2285156
1123,-119.375,-29.375,245.6875,0.2177734,-0.3134766,-0.005371094,-0.2700195,-0.046875,-0.2255859
1127,-104.1875,-34.6875,224.5,0.1132813,-0.581543,0.009765625,-0.2709961,-0.01806641,-0.2202148
1131,-68.5625,-48.375,212.875,0.2177734,-0.9389648,0.09423828,-0.2709961,-0.001953125,-0.2202148
1135,-15.5625,-51,205.1875,0.3769531,-1.062988,0.009765625,-0.2700195,0.02148438,-0.2133789
1139,23.75,-45.9375,188.125,0.4814453,-1.098145,-0.08984375,-0.2685547,0.03759766,-0.2109375
1143,36.4375,-35.9375,151.625,0.574707,-1.043945,-0.2475586,-0.2661133,0.04492188,-0.2080078
1147,23.875,-20.0625,98.0625,0.6557617,-0.9892578,-0.309082,-0.2651367,0.05517578,-0.2055664
1151,-0.1875,-3.3125,41.9375,0.6328125,-0.9350586,-0.2705078,-0.2636719,0.06103516,-0.2080078
1155,-12.8125,6.125,-1.9375,0.6015625,-0.9814453,-0.1591797,-0.2636719,0.06396484,-0.2055664
1159,-2.5,14.8125,-31.4375,0.5976563,-0.9658203,0.001953125,-0.2626953,0.06396484,-0.2055664
1163,15.5625,13.3125,-53.4375,0.559082,-0.8027344,0.07519531,-0.2636719,0.06005859,-0.2055664
1167,32.8125,7.1875,-73.125,0.5976563,-0.6513672,0.1748047,-0.2626953,0.05517578,-0.2080078
1171,46.9375,-0.75,-89.8125,0.6015625,-0.4804688,0.2021484,-0.2651367,0.04492188,-0.2094727
1175,54.5625,-8.625,-100.4375,0.6713867,-0.3754883,0.1943359,-0.2685547,0.03613281,-0.2094727
1179,58.25,-9.875,-109.375,0.7490234,-0.3056641,0.1289063,-0.2700195,0.02734375,-0.2119141
1183,54.4375,-4.9375,-118.4375,0.7680664,-0.2978516,0.07910156,-0.2744141,0.01367188,-0.2133789
1187,56.0625,0.5625,-128.8125,0.7490234,-0.3364258,0.08251953,-0.2734375,-0.001953125,-0.2133789
1191,66,6.1875,-141.3125,0.6831055,-0.3325195,0.1865234,-0.2768555,-0.01074219,-0.2148438
1195,81.125,0.875,-148.6875,0.5356445,-0.2431641,0.2250977,-0.2768555,-0.02685547,-0.2133789
1199,88,-9.375,-160.125,0.559082,-0.1152344,0.2060547,-0.2768555,-0.04833984,-0.2148438
1203,81.125,-12.9375,-178,0.5668945,-0.01025391,0.1367188,-0.2783203,-0.06054688,-0.2133789
1207,63.1875,-10.5,-194.875,0.6635742,0.1293945,0.09423828,-0.2768555,-0.07958984,-0.2119141
1211,58.5625,-1.375,-208,0.5859375,0.1757813,0.2402344,-0.2744141,-0.1005859,-0.2119141
1215,65.1875,-8.375,-205.3125,0.4541016,0.1796875,0.2866211,-0.2709961,-0.1157227,-0.2094727
1219,91.375,-19.8125,-201.1875,0.4541016,0.2109375,0.3291016,-0.2675781,-0.1396484,-0.2080078
1223,97.125,-26.375,-193.5,0.5200195,0.4907227,0.1826172,-0.2626953,-0.1606445,-0.2055664
1227,65.0625,-19.75,-193.8125,0.6713867,0.7314453,0.03271484,-0.2578125,-0.1757813,-0.199707
1231,4.75,3.875,-199.25,0.7797852,0.8364258,-0.05517578,-0.2495117,-0.1933594,-0.1958008
1235,-48.3125,26,-211.3125,0.6401367,0.6577148,0.02880859,-0.2402344,-0.2070313,-0.199707
1240,-19.9375,21.9375,-221.375,0.2797852,0.15625,0.3867188,-0.2319336,-0.2182617,-0.2026367
1244,66.5,-10.8125,-218.625,0.07861328,0.21875,0.4633789,-0.2197266,-0.234375,-0.2041016
1248,125.75,-32.375,-203.875,0.3032227,0.6772461,0.2636719,-0.2089844,-0.2529297,-0.1972656
1252,122.1875,-23.625,-183.8125,0.5087891,1.143066,0.02880859,-0.2021484,-0.2680664,-0.1889648
1256,63.625,1,-159.5625,0.6401367,1.438477,-0.109375,-0.1899414,-0.2832031,-0.1835938
1260,-19.5625,34.4375,-152.5,0.6054688,1.399902,-0.112793,-0.1782227,-0.2954102,-0.1821289
1264,-70.875,47.25,-169.5,0.2138672,0.9643555,0.1367188,-0.168457,-0.2993164,-0.1875
1268,-32.3125,3.5,-208.375,-0.2080078,0.5449219,0.3637695,-0.1533203,-0.3056641,-0.1918945
1272,40.75,-22.3125,-197.9375,0.109375,0.6616211,0.3134766,-0.1367188,-0.3144531,-0.1928711
1276,87.8125,-14.875,-171.8125,0.2373047,1.022949,0.1479492,-0.128418,-0.3217773,-0.1889648
1280,70.9375,1,-142.25,0.3652344,1.450195,-0.02832031,-0.1162109,-0.3344727,-0.1821289
1284,15.375,31.5,-116.4375,0.4931641,1.461914,-0.109375,-0.1030273,-0.3417969,-0.1767578
1288,-37.6875,68.0625,-105.875,0.3574219,1.244141,-0.04003906,-0.09472656,-0.3432617,-0.1782227
1292,-66.9375,63.375,-145.9375,-0.296875,1.030762,0.1289063,-0.08203125,-0.3432617,-0.1835938
1296,-31.0625,3.0625,-181.5625,-0.4907227,0.6499023,0.3291016,-0.06738281,-0.3432617,-0.1904297
1300,40.6875,-11.875,-172.8125,-0.006347656,0.7973633,0.2827148,-0.05810547,-0.3457031,-0.1918945
1304,55.125,5.375,-147.3125,0.03173828,1.294922,0.06347656,-0.04248047,-0.3520508,-0.1875
1308,12.875,20.375,-130.125,0.09375,1.504395,-0.03222656,-0.02929688,-0.3579102,-0.1850586
1312,-36.1875,44.4375,-118.5625,0.159668,1.236328,-0.005371094,-0.0234375,-0.3579102,-0.1850586
1316,-53.5,66.5,-117.3125,-0.05273438,0.8789063,0.09423828,-0.009277344,-0.3544922,-0.1889648
1320,-23.6875,50.875,-141.0625,-0.5292969,0.6459961,0.2636719,0.005859375,-0.3520508,-0.1918945
1324,29.5625,10.0625,-155.375,-0.5644531,0.7587891,0.2749023,0.01416016,-0.3520508,-0.1918945
1328,57.5,2.75,-146.875,-0.2583008,1.088867,0.144043,0.02734375,-0.3554688,-0.1918945
1332,39.5625,19.3125,-135.9375,-0.1845703,1.380371,0.04052734,0.04248047,-0.3569336,-0.1850586
1336,-6.875,33.9375,-128.3125,-0.1923828,1.341309,0.001953125,0.05078125,-0.3569336,-0.1835938
1340,-27.125,48.25,-124.9375,-0.28125,0.90625,0.1171875,0.06298828,-0.3530273,-0.1850586
1344,-4.875,46.625,-132.125,-0.5605469,0.7509766,0.1904297,0.07617188,-0.3491211,-0.1850586
1348,27.6875,19.4375,-150.625,-0.7773438,0.7895508,0.2250977,0.08691406,-0.3491211,-0.1821289
1352,56.125,-0.9375,-158.1875,-0.6264648,1.003418,0.1518555,0.09960938,-0.3481445,-0.1821289
1356,50.875,6,-145.1875,-0.4482422,1.298828,0.04785156,0.1103516,-0.3442383,-0.175293
1360,3.875,26.8125,-130.5,-0.3588867,1.446289,-0.03222656,0.1225586,-0.3417969,-0.1738281
1364,-48.3125,45.6875,-131.5625,-0.4130859,1.189941,-0.01318359,0.1333008,-0.3369141,-0.1738281
1369,-52.5,49.25,-138.25,-0.6728516,0.7001953,0.140625,0.1459961,-0.3291016,-0.1767578
1373,-11.8125,31.3125,-144.5625,-0.7773438,0.5952148,0.1787109,0.1567383,-0.3242188,-0.175293
1377,5.375,29.375,-143.5625,-0.5952148,0.8286133,0.09033203,0.1674805,-0.3168945,-0.1767578
1381,-15.5,42.1875,-148.5625,-0.6225586,1.01123,0.04443359,0.184082,-0.3081055,-0.175293
1385,-44.125,46.5625,-157.5625,-0.7504883,0.987793,0.07519531,0.1904297,-0.3007813,-0.175293
1389,-41.625,38.125,-163.4375,-0.8510742,0.7817383,0.1635742,0.2045898,-0.2880859,-0.175293
1393,-8.875,26.25,-161.5625,-0.8818359,0.809082,0.1748047,0.2177734,-0.2783203,-0.1738281
1397,4.875,23.75,-150.75,-0.8237305,1.088867,0.1557617,0.2236328,-0.2695313,-0.175293
1401,-7.3125,24.875,-134.75,-0.7543945,1.197754,0.140625,0.234375,-0.2592773,-0.1713867
1405,-21.8125,29.6875,-118.625,-0.7387695,1.124023,0.159668,0.2412109,-0.2480469,-0.1728516
1409,-28.375,33.3125,-106.25,-0.7192383,1.034668,0.2172852,0.2475586,-0.2407227,-0.168457
1413,-31.4375,30.9375,-101.0625,-0.7617188,0.9492188,0.2250977,0.2558594,-0.234375,-0.1699219
1417,-28.3125,26.0625,-107.1875,-0.746582,0.8364258,0.2827148,0.2602539,-0.2231445,-0.168457
1421,-2.5,14.5,-93,-0.9438477,0.7817383,0.3867188,0.2651367,-0.2167969,-0.1674805
1425,25.3125,-10.8125,-61.25,-0.9907227,0.9682617,0.3251953,0.2675781,-0.2104492,-0.1660156
1429,29.25,-23,-25.4375,-0.7504883,1.213379,0.2749023,0.2700195,-0.2070313,-0.1674805
1433,23.1875,-21.75,5.25,-0.6923828,1.283203,0.2250977,0.2700195,-0.2045898,-0.1674805
1437,22.75,-23.875,35.0625,-0.7348633,1.279297,0.2402344,0.2675781,-0.2094727,-0.1699219
1441,23.8125,-27.8125,66.0625,-0.8198242,1.271484,0.2480469,0.2666016,-0.2158203,-0.168457
1445,25.875,-38.25,89.5,-0.8276367,1.275391,0.2211914,0.2602539,-0.2182617,-0.1699219
1449,26.9375,-43.1875,110.0625,-0.847168,1.271484,0.2329102,0.2568359,-0.2280273,-0.1713867
1453,29.625,-48.8125,133.625,-0.8896484,1.236328,0.2290039,0.2485352,-0.2382813,-0.1738281
1457,30.3125,-51.5625,153.5625,-0.8085938,1.251953,0.1943359,0.2392578,-0.2456055,-0.175293
1461,25.875,-42.375,169.375,-0.7617188,1.267578,0.2368164,0.230957,-0.2607422,-0.1767578
1465,21.625,-38.9375,177.5,-0.8706055,1.317871,0.2519531,0.2163086,-0.2744141,-0.1782227
1469,9.875,-46.4375,186.3125,-0.9594727,1.341309,0.2636719,0.2094727,-0.2817383,-0.1796875
1473,4.3125,-57.9375,195.1875,-0.9594727,1.186035,0.2905273,0.1914063,-0.2944336,-0.1821289
1477,19.25,-60.9375,209.5625,-0.8666992,1.077148,0.3017578,0.1757813,-0.3066406,-0.1850586
1481,25.9375,-54.75,220.25,-0.8164063,1.189941,0.2675781,0.1630859,-0.3144531,-0.1850586
1485,11.1875,-50.125,225.3125,-0.7734375,1.353027,0.1904297,0.1416016,-0.3242188,-0.1850586
1489,-16.6875,-43.25,227,-0.7773438,1.376465,0.2021484,0.125,-0.3330078,-0.1889648
1493,-27.1875,-47.375,230.9375,-0.8818359,1.217285,0.2250977,0.105957,-0.3369141,-0.1889648
1498,-12.5,-53.1875,240.125,-0.8007813,1.061523,0.2597656,0.08544922,-0.3432617,-0.1943359
1502,13.375,-51.9375,249.875,-0.7387695,1.053711,0.2558594,0.06298828,-0.3481445,-0.1928711
1506,23.3125,-49.8125,257.4375,-0.6455078,1.255859,0.1826172,0.04638672,-0.3520508,-0.1943359
1510,5.9375,-40.3125,263,-0.5410156,1.461914,0.1171875,0.01904297,-0.3544922,-0.1904297
1514,-24.4375,-33.125,266.125,-0.4946289,1.461914,0.07519531,-0.003417969,-0.3544922,-0.1943359
1518,-41.25,-27.4375,267.5625,-0.4946289,1.317871,0.1020508,-0.02099609,-0.3505859,-0.1928711
1522,-48.25,-25.625,271,-0.4750977,1.263672,0.125,-0.04589844,-0.3442383,-0.1987305
1526,-46.25,-31.75,277.5625,-0.4365234,1.06543,0.1210938,-0.06982422,-0.3378906,-0.2011719
1530,-30.625,-29.625,287.5625,-0.2387695,0.953125,0.1518555,-0.08642578,-0.3320313,-0.2041016
1534,-32.3125,-17.8125,294.25,-0.1611328,1.081055,0.06738281,-0.1113281,-0.3193359,-0.2041016
1538,-56.125,-12.125,286.625,-0.1611328,1.069336,0.06347656,-0.1328125,-0.3066406,-0.2055664
1542,-75,-16.0625,271.6875,-0.1767578,0.8867188,0.08251953,-0.1484375,-0.296875,-0.2080078
1546,-64,-23.375,273.875,-0.1147461,0.5761719,0.1904297,-0.1699219,-0.2753906,-0.2148438
1550,-39.3125,-22.75,287.125,0.02832031,0.4946289,0.1557617,-0.1914063,-0.2568359,-0.2133789
1554,-36,-17.1875,284.5625,0.140625,0.4907227,0.06738281,-0.2021484,-0.2441406,-0.2119141
1558,-50.9375,-14.5,256.1875,0.125,0.5058594,0.06347656,-0.21875,-0.2246094,-0.2148438
1562,-62,-28.8125,215.0625,0.08251953,0.3505859,0.1098633,-0.2304688,-0.2006836,-0.2163086
1566,-49.375,-44.5625,191.3125,0.1948242,0.2573242,0.2060547,-0.2402344,-0.1894531,-0.2148438
1570,-20.8125,-57.25,187.125,0.1831055,0.3081055,0.2709961,-0.2509766,-0.171875,-0.2148438
1574,-7.75,-67.9375,207.75,0.4389648,0.3193359,0.1098633,-0.2592773,-0.1557617,-0.2094727
1578,-11.3125,-48.875,204.8125,0.5668945,0.4086914,0.08642578,-0.2675781,-0.1430664,-0.2041016
1582,-34.4375,-35.8125,183.75,0.625,0.4360352,0.04052734,-0.2758789,-0.1245117,-0.199707
1586,-58.125,-29.8125,170.4375,0.4892578,0.2416992,0.001953125,-0.2807617,-0.1069336,-0.199707
1590,-45.9375,-32.5625,156.3125,0.543457,-0.002441406,0.1171875,-0.2841797,-0.09179688,-0.1987305
1594,-19.875,-31.5625,159.1875,0.5629883,-0.04150391,0.09814453,-0.2890625,-0.07568359,-0.1958008
1598,6.3125,-35.125,165.875,0.5898438,0.01660156,0.09033203,-0.2900391,-0.06054688,-0.1918945
1602,12.1875,-27.1875,164.25,0.7138672,0.2109375,0.1479492,-0.2924805,-0.05078125,-0.1889648
1606,-12.5,-20.75,156.6875,0.6401367,0.3388672,0.1748047,-0.2915039,-0.03710938,-0.1875
1610,-56.5,-19.6875,152.875,0.6557617,0.1796875,0.125,-0.2949219,-0.01953125,-0.1850586
1614,-93.6875,-8.375,149.75,0.6948242,-0.2084961,0.09033203,-0.2949219,-0.008300781,-0.1835938
1618,-96.5625,0.5,145.25,0.5859375,-0.8842773,0.04052734,-0.2924805,0.01025391,-0.1806641
1622,-78.9375,-1.6875,126.5,0.6328125,-1.245605,-0.04394531,-0.2900391,0.02880859,-0.1796875
1627,-47.1875,5.9375,88.1875,0.6132813,-1.408691,-0.1323242,-0.2875977,0.03613281,-0.1767578
1631,-21,9.875,39.75,0.5820313,-1.366211,-0.2016602,-0.2890625,0.04638672,-0.1796875
1635,-1.0625,12.0625,-8.6875,0.609375,-1.11377,-0.1513672,-0.2827148,0.04882813,-0.1782227
1639,7,15.625,-47.3125,0.659668,-0.8027344,-0.07080078,-0.2866211,0.04736328,-0.1806641
1643,13.9375,20.1875,-72.8125,0.6713867,-0.6044922,0.04443359,-0.2851563,0.04248047,-0.1821289
1647,27.5,13.1875,-85.125,0.5512695,-0.4101563,0.08642578,-0.2866211,0.03369141,-0.1835938
1651,38.9375,4.75,-87.9375,0.6870117,-0.3637695,0.07910156,-0.2851563,0.02734375,-0.1835938
1655,51.75,10.6875,-94.3125,0.7758789,-0.387207,0.02490234,-0.2890625,0.01611328,-0.1875
1659,59.8125,16.6875,-106.4375,0.7255859,-0.3793945,0.03271484,-0.2900391,0.004882813,-0.1875
1663,66.75,15.375,-125.25,0.6362305,-0.3173828,0.07128906,-0.2915039,-0.004394531,-0.1875
1667,72.375,6.25,-146.125,0.5708008,-0.1967773,0.1479492,-0.2900391,-0.02050781,-0.1943359
1671,77.25,-1.875,-153.25,0.6132813,0.0009765625,0.1479492,-0.2924805,-0.03955078,-0.1928711
1675,62.5,7.8125,-149.1875,0.7758789,0.2612305,0.02490234,-0.2915039,-0.05175781,-0.1928711
1679,24.125,30.5625,-153.0625,0.9077148,0.5878906,-0.06689453,-0.2890625,-0.06689453,-0.1928711
1683,-23.5,51,-161.625,0.7641602,0.203125,-0.0859375,-0.2851563,-0.08056641,-0.1972656
1687,-13.75,52.875,-181.75,0.5668945,-0.2124023,0.2250977,-0.2827148,-0.08935547,-0.2026367
1691,54.5625,30.5625,-185.5,0.3535156,-0.3989258,0.3637695,-0.2768555,-0.1054688,-0.206543
1695,124.125,10.5,-178.25,0.4428711,-0.1381836,0.2944336,-0.2709961,-0.1293945,-0.206543
1699,133.125,17.75,-170.8125,0.6674805,0.6264648,0.02099609,-0.2685547,-0.1455078,-0.2041016
1703,65.375,43.1875,-169.0625,0.7216797,1.007324,-0.1401367,-0.2617188,-0.1655273,-0.2041016
1707,-11.6875,58.9375,-192.25,0.5048828,0.8520508,0.1020508,-0.2519531,-0.1821289,-0.2080078
1711,-26,32.4375,-228.125,0.2216797,0.3896484,0.3173828,-0.2436523,-0.1904297,-0.2109375
1715,41.1875,1.0625,-234.4375,0.2026367,0.1757813,0.5522461,-0.2294922,-0.2080078,-0.2119141
1719,104.125,-10.5625,-209.375,0.3691406,0.7119141,0.3056641,-0.21875,-0.2304688,-0.2094727
1723,78.875,13.9375,-178.1875,0.7255859,1.407715,0.005859375,-0.2114258,-0.2431641,-0.2055664
1727,-10,58.75,-146.8125,0.8417969,1.446289,-0.1591797,-0.2021484,-0.2568359,-0.2055664
1731,-54.25,93.9375,-134.5,0.4892578,0.6655273,0.159668,-0.1875,-0.2641602,-0.2109375
1735,-22.0625,55.875,-196.0625,-0.1611328,0.4243164,0.3867188,-0.1772461,-0.2670898,-0.2148438
1739,42.0625,-4.0625,-225.3125,-0.01025391,0.4672852,0.4941406,-0.1616211,-0.2807617,-0.21875
1743,98.125,-4.375,-198.625,0.2993164,0.9604492,0.3056641,-0.1474609,-0.2929688,-0.2133789
1747,70.4375,27.875,-156.5,0.5629883,1.687012,0.05175781,-0.1376953,-0.3041992,-0.2080078
1751,-25.8125,70.1875,-121.9375,0.6210938,1.690918,-0.128418,-0.1235352,-0.3129883,-0.206543
1756,-97.375,107.875,-122,0.3730469,1.06543,0.07128906,-0.109375,-0.3129883,-0.2148438
1760,-82,72.6875,-180,-0.3666992,0.2963867,0.375,-0.09716797,-0.3105469,-0.2246094
1764,33.625,10.3125,-195.4375,-0.3242188,0.140625,0.640625,-0.08203125,-0.3144531,-0.2270508
1768,125.375,1.875,-175.625,-0.05664063,0.8632813,0.4174805,-0.06640625,-0.3242188,-0.2231445
1772,115.4375,10.3125,-146.5625,0.140625,1.679688,0.1557617,-0.05810547,-0.3320313,-0.2148438
1776,31.9375,33.875,-117.375,0.2104492,1.772461,0.001953125,-0.04394531,-0.3393555,-0.2094727
1780,-40.1875,64.0625,-111.4375,0.2177734,1.407715,0.08642578,-0.03173828,-0.3417969,-0.2080078
1784,-59.1875,48.125,-157.0625,-0.3823242,0.7236328,0.2983398,-0.02490234,-0.3408203,-0.2119141
1788,22.5,-4.8125,-174.8125,-0.4365234,0.4477539,0.4980469,-0.009277344,-0.3369141,-0.21875
1792,96.4375,-8.25,-152.9375,-0.1611328,0.956543,0.3637695,0.005859375,-0.3417969,-0.2119141
1796,87.25,2.5,-131.3125,-0.05664063,1.601563,0.1328125,0.01416016,-0.3481445,-0.206543
1800,16.1875,20.3125,-118,0.0009765625,1.718262,0.06738281,0.02490234,-0.3505859,-0.2011719
1804,-42.5,32.625,-115.875,-0.1264648,1.154785,0.1289063,0.03564453,-0.3491211,-0.2011719
1808,-12.4375,20.6875,-129.25,-0.4091797,0.4985352,0.3637695,0.04492188,-0.3466797,-0.2041016
1812,59.625,0.4375,-131.5,-0.4404297,0.6811523,0.3442383,0.05712891,-0.3457031,-0.2026367
1816,83.25,-7.1875,-125.4375,-0.3510742,1.209473,0.1635742,0.06640625,-0.3466797,-0.1987305
1820,51.625,0.8125,-116.0625,-0.2387695,1.469727,0.07128906,0.07617188,-0.3481445,-0.1918945
1824,-2.6875,18.875,-107.9375,-0.1650391,1.345215,0.03271484,0.08447266,-0.3481445,-0.1889648
1828,-31.875,29.375,-118.8125,-0.3666992,0.953125,0.09814453,0.09521484,-0.3442383,-0.1889648
1832,-19.8125,22.625,-125.625,-0.4907227,0.6694336,0.1943359,0.1044922,-0.3417969,-0.1889648
1836,17.75,13.6875,-127.6875,-0.5449219,0.7041016,0.2250977,0.1142578,-0.3369141,-0.1928711
1840,33.375,13.25,-123.0625,-0.5102539,0.9760742,0.1635742,0.1269531,-0.3330078,-0.1904297
1844,14.25,19.125,-113.875,-0.4482422,1.131836,0.02880859,0.1342773,-0.3305664,-0.1865234
1848,-19.5625,37.125,-112.875,-0.4443359,1.019043,0.04785156,0.144043,-0.3256836,-0.1865234
1852,-37.375,41.375,-122.375,-0.6416016,0.840332,0.140625,0.1557617,-0.3217773,-0.1865234
1856,-26.25,28.1875,-136,-0.746582,0.6381836,0.2060547,0.1616211,-0.3144531,-0.1875
1860,2.875,21.375,-131,-0.7426758,0.7353516,0.2480469,0.1748047,-0.3041992,-0.1875
1864,11.875,17.5625,-122,-0.7695313,0.987793,0.1328125,0.184082,-0.2993164,-0.1865234
1868,-0.375,21.625,-112.8125,-0.6923828,1.034668,0.1289063,0.1904297,-0.2944336,-0.1821289
1872,-11.4375,26.3125,-104.625,-0.7036133,0.953125,0.07128906,0.199707,-0.2895508,-0.1835938
1876,-20.1875,36.25,-101.6875,-0.6806641,0.9023438,0.1171875,0.2080078,-0.2807617,-0.1806641
1880,-22.3125,35.125,-101.625,-0.796875,0.8208008,0.140625,0.2128906,-0.2753906,-0.1835938
1885,-19,29.3125,-97.375,-0.862793,0.8012695,0.1943359,0.2211914,-0.2680664,-0.1806641
1889,-11.625,22.625,-90.75,-0.8354492,0.7392578,0.2329102,0.2285156,-0.2592773,-0.1796875
1893,0.625,20.125,-82.1875,-0.8666992,0.7470703,0.1982422,0.234375,-0.2568359,-0.1796875
1897,3.75,20.0625,-74.125,-0.8393555,0.809082,0.159668,0.237793,-0.2495117,-0.1782227
1901,-2.375,21.375,-70.1875,-0.78125,0.890625,0.1020508,0.2436523,-0.2431641,-0.175293
1905,-15.75,26.25,-63.6875,-0.730957,0.90625,0.06347656,0.2451172,-0.2382813,-0.1738281
1909,-8.4375,27.3125,-47.875,-0.746582,0.6733398,0.125,0.2485352,-0.2358398,-0.175293
1913,12.75,22.0625,-41.0625,-0.847168,0.7119141,0.2329102,0.253418,-0.2304688,-0.1728516
1917,30.0625,-1.3125,-36.0625,-0.8935547,0.809082,0.2480469,0.253418,-0.2294922,-0.1728516
1921,37.375,-12.75,-26.625,-0.7036133,0.953125,0.1674805,0.2583008,-0.2280273,-0.1713867
1925,32.9375,-11.875,-15.1875,-0.6264648,1.022949,0.08642578,0.2583008,-0.2280273,-0.1699219
1929,26.125,-8.1875,-2.1875,-0.5756836,1.049805,0.07128906,0.2583008,-0.2294922,-0.1699219
1933,25.625,-5.6875,11.8125,-0.5952148,1.057617,0.1098633,0.2583008,-0.2294922,-0.168457
1937,28.5,-8.1875,24.75,-0.6376953,1.143066,0.159668,0.2568359,-0.2329102,-0.168457
1941,23.625,-15.3125,36.75,-0.6689453,1.248047,0.1748047,0.2568359,-0.234375,-0.168457
1945,20,-20.875,53.4375,-0.6455078,1.244141,0.2250977,0.2519531,-0.2392578,-0.1660156
1949,22,-24.0625,74.6875,-0.6572266,1.267578,0.1904297,0.2485352,-0.2441406,-0.1674805
1953,21.4375,-24.875,96.75,-0.6186523,1.333496,0.1865234,0.2475586,-0.2504883,-0.1699219
1957,13.75,-19.6875,120.375,-0.5991211,1.372559,0.125,0.2392578,-0.2592773,-0.1674805
1961,-5.3125,-10,132.3125,-0.6225586,1.364746,0.125,0.2294922,-0.2680664,-0.168457
1965,-22.6875,-8.6875,137.75,-0.699707,1.275391,0.1479492,0.222168,-0.2753906,-0.168457
1969,-29.6875,-11.875,141.75,-0.78125,1.162598,0.2133789,0.2138672,-0.2832031,-0.1738281
1973,-25.4375,-24.4375,146.0625,-0.8974609,1.09668,0.2368164,0.2045898,-0.2919922,-0.175293
1977,-6.5,-38.5,156.875,-0.8432617,0.9995117,0.2441406,0.1948242,-0.296875,-0.1782227
1981,16.6875,-41.25,170.1875,-0.7578125,1.04248,0.1635742,0.184082,-0.3066406,-0.1796875
1985,23.875,-35.125,180.4375,-0.7270508,1.232422,0.07910156,0.1665039,-0.3154297,-0.1806641
1989,9.125,-29.4375,184.3125,-0.765625,1.356934,0.06347656,0.1557617,-0.3217773,-0.1796875
1993,-9.875,-28.25,183.125,-0.8007813,1.353027,0.09423828,0.1425781,-0.3320313,-0.1806641
1997,-16.1875,-34.0625,182.9375,-0.8510742,1.209473,0.1289063,0.1235352,-0.3378906,-0.1821289
2001,-4.25,-41.875,193.3125,-0.7543945,1.053711,0.1210938,0.112793,-0.3417969,-0.1835938
2005,13.4375,-37.3125,205.75,-0.6264648,1.015137,0.125,0.09375,-0.3466797,-0.1865234
2009,23.0625,-31.75,210.25,-0.6342773,1.09668,0.1132813,0.07226563,-0.3530273,-0.1835938
2014,20.25,-34,211.1875,-0.5795898,1.143066,0.1098633,0.06054688,-0.3569336,-0.1806641
2018,17,-30.4375,207.625,-0.4672852,1.166504,0.140625,0.0390625,-0.359375,-0.1821289
2022,4.3125,-27.875,202.4375,-0.4790039,1.302734,0.125,0.02001953,-0.3618164,-0.1806641
2026,-12.8125,-32.8125,199.1875,-0.4287109,1.275391,0.125,0.006835938,-0.3632813,-0.1806641
2030,-15.0625,-27.3125,206.6875,-0.3125,1.186035,0.1865234,-0.01416016,-0.3603516,-0.1821289
2034,-14.4375,-25.125,227.8125,-0.328125,1.197754,0.1635742,-0.03320313,-0.3579102,-0.1806641
2038,-18.9375,-17.75,241.375,-0.1845703,1.225098,0.1865234,-0.04736328,-0.3554688,-0.1835938
2042,-38.8125,-15.1875,238.625,-0.2270508,1.225098,0.144043,-0.06884766,-0.3481445,-0.1865234
2046,-49.625,-24.375,231.75,-0.1499023,0.9956055,0.1479492,-0.09033203,-0.3393555,-0.1889648
2050,-46.5625,-21.1875,230.5,-0.06445313,0.8867188,0.1674805,-0.1044922,-0.3330078,-0.1904297
2054,-42.4375,-21.8125,239.3125,0.004882813,0.8481445,0.1289063,-0.1235352,-0.3232422,-0.1918945
2058,-37.875,-17.3125,247.1875,0.08642578,0.7236328,0.1132813,-0.1459961,-0.3105469,-0.1943359
2062,-31.8125,-14,245.5625,0.109375,0.7431641,0.125,-0.1567383,-0.3007813,-0.1958008
2066,-40.0625,-14,238.9375,0.1132813,0.8286133,0.09814453,-0.1782227,-0.2856445,-0.1958008
2070,-58.1875,-18,228.1875,0.1674805,0.6655273,0.09033203,-0.1938477,-0.2705078,-0.1972656
2074,-54.9375,-19.125,216.6875,0.2138672,0.4438477,0.1328125,-0.2055664,-0.2583008,-0.2011719
2078,-40.75,-20,215.3125,0.2607422,0.3857422,0.1210938,-0.2172852,-0.2382813,-0.199707
2082,-32.375,-15.3125,210.5,0.3535156,0.4204102,0.1098633,-0.2304688,-0.2216797,-0.2026367
2086,-25.875,-14.25,205.25,0.3266602,0.3544922,0.09814453,-0.2387695,-0.2119141,-0.2011719
2090,-12.5625,-13.875,195.5,0.4697266,0.315918,0.1328125,-0.2495117,-0.1933594,-0.199707
2094,-14.625,-14,179.75,0.4658203,0.4086914,0.04443359,-0.2568359,-0.1767578,-0.2011719
2098,-25.875,-9.0625,170.625,0.578125,0.3740234,0.05566406,-0.2636719,-0.1669922,-0.1987305
2102,-30.375,-1.4375,162.75,0.5512695,0.3427734,0.09423828,-0.2685547,-0.1494141,-0.2011719
2106,-28.4375,-5.625,152.5,0.5668945,0.3310547,0.1904297,-0.2734375,-0.1342773,-0.199707
2110,-18.75,-10.25,153.4375,0.625,0.3662109,0.2788086,-0.2768555,-0.1230469,-0.2011719
2114,-11.625,-17.125,162.375,0.659668,0.4594727,0.2636719,-0.2807617,-0.109375,-0.1987305
2118,-21.75,-16.25,170.5,0.7915039,0.5097656,0.1865234,-0.2841797,-0.09423828,-0.1987305
2122,-46.8125,-9.6875,167.5625,0.7954102,0.4360352,0.125,-0.2851563,-0.08203125,-0.1987305
2126,-64.4375,-9.5625,159.9375,0.7490234,0.2495117,0.09033203,-0.2890625,-0.06591797,-0.1958008
2130,-68.5625,-5.0625,163,0.7680664,0.04003906,0.09814453,-0.2900391,-0.04296875,-0.1958008
2134,-62.0625,0.25,172.9375,0.7373047,-0.2275391,0.02490234,-0.2900391,-0.03173828,-0.1958008
2138,-49.1875,12.5625,174.3125,0.7138672,-0.519043,-0.05126953,-0.2890625,-0.01318359,-0.1943359
2143,-43,20.375,162.5,0.7412109,-0.6123047,-0.01318359,-0.2851563,0.00390625,-0.1958008
2147,-38.375,27.8125,128,0.5898438,-0.7680664,-0.02441406,-0.2827148,0.01513672,-0.1958008
2151,-37.8125,22.375,91,0.5512695,-0.8999023,-0.01318359,-0.2807617,0.02734375,-0.1987305
2155,-19.0625,20.9375,64.125,0.5395508,-1.152344,0.05957031,-0.2768555,0.03759766,-0.1987305
2159,21.25,18.625,37.125,0.5317383,-1.183594,0.1171875,-0.2758789,0.04003906,-0.199707
2163,49.5625,7,-2.8125,0.4580078,-0.8457031,0.2211914,-0.2734375,0.04003906,-0.2041016
2167,52.0625,-15.4375,-40.875,0.5048828,-0.4921875,0.2480469,-0.2734375,0.03613281,-0.2055664
2171,48.75,-23.875,-64.4375,0.6479492,-0.2783203,0.3134766,-0.2734375,0.03125,-0.2026367
2175,41.625,-29.5625,-76.125,0.6870117,-0.02587891,0.2709961,-0.2783203,0.02148438,-0.2026367
2179,24.8125,-29,-73.875,0.8378906,0.08642578,0.1787109,-0.2807617,0.01367188,-0.2011719
2183,13.9375,-15.125,-70,0.9580078,0.04736328,0.1289063,-0.2827148,0.007324219,-0.199707
2187,2.5625,-2.8125,-71.3125,0.9580078,0.02441406,0.08251953,-0.2841797,0.001464844,-0.1987305
2191,-3.9375,2.9375,-79.125,0.9077148,-0.06054688,0.1289063,-0.2851563,-0.005859375,-0.199707
2195,-0.6875,2.5,-84.625,0.8842773,-0.1655273,0.1674805,-0.2866211,-0.01074219,-0.1987305
2199,11.625,2,-86.625,0.8457031,-0.1694336,0.2172852,-0.2875977,-0.01708984,-0.1987305
2203,17.5,-1,-89.375,0.8535156,-0.1035156,0.1904297,-0.2866211,-0.02587891,-0.1987305
2207,14.125,1.9375,-93.4375,0.8769531,-0.006347656,0.1713867,-0.2875977,-0.03173828,-0.1987305
2211,-1.625,9.625,-96.8125,0.9038086,0.05517578,0.1020508,-0.2866211,-0.04199219,-0.199707
2215,-20.8125,19.9375,-108.8125,0.8959961,0.05517578,0.08642578,-0.2866211,-0.05078125,-0.199707
2219,-28.6875,24.3125,-117,0.8032227,-0.1191406,0.159668,-0.2851563,-0.05810547,-0.2026367
2223,-4.8125,15.625,-127.5625,0.690918,-0.2275391,0.2866211,-0.2817383,-0.06689453,-0.2041016
2227,27.0625,-4.25,-133.4375,0.6054688,-0.1538086,0.2749023,-0.2817383,-0.078125,-0.2055664
2231,41.3125,-13.375,-134.8125,0.7719727,0.105957,0.1479492,-0.2792969,-0.08691406,-0.2041016
2235,16.0625,5.125,-133.4375,0.9233398,0.4052734,-0.05517578,-0.2792969,-0.1030273,-0.2041016
2239,-41,39.1875,-142.0625,0.9931641,0.4946289,-0.128418,-0.2758789,-0.1132813,-0.2055664
2243,-83.4375,61.5,-161.375,0.7641602,0.1445313,0.005859375,-0.2724609,-0.1206055,-0.2094727
2247,-39.375,43.9375,-177.6875,0.3535156,-0.3911133,0.409668,-0.2651367,-0.1308594,-0.2177734
2251,51.3125,3.3125,-182.8125,0.2797852,-0.3173828,0.5249023,-0.2568359,-0.1445313,-0.2177734
2255,119.9375,-24.625,-175.25,0.4311523,0.237793,0.3364258,-0.2543945,-0.1582031,-0.2163086
2259,112.625,-17.5625,-158.875,0.8149414,1.034668,0.05566406,-0.2485352,-0.1791992,-0.2094727
2263,38.1875,20.75,-139.5,0.9697266,1.20166,-0.1474609,-0.2426758,-0.1967773,-0.206543
2267,-52.9375,69.8125,-135.875,0.9423828,1.081055,-0.1362305,-0.237793,-0.2045898,-0.2080078
2272,-101.75,77.0625,-175.125,0.4467773,0.5449219,0.1210938,-0.2255859,-0.2094727,-0.2202148
2276,-51.5625,46.3125,-184.0625,0.2373047,-0.01025391,0.4633789,-0.2114258,-0.2182617,-0.2270508
2280,47.1875,23.25,-178.3125,0.2875977,0.15625,0.5483398,-0.2055664,-0.2246094,-0.2285156
2284,95.4375,14.75,-149.5,0.4350586,0.8671875,0.2944336,-0.1948242,-0.2407227,-0.2270508
2288,66.125,38.9375,-119.5,0.7255859,1.291016,0.09033203,-0.1855469,-0.2558594,-0.2216797
2292,3.375,78.9375,-96.125,0.7915039,1.236328,-0.04003906,-0.1772461,-0.2617188,-0.2246094
2296,-62,124.875,-93.375,0.7060547,1.038574,-0.08984375,-0.1650391,-0.265625,-0.2285156
2300,-123.3125,131.875,-157.75,0.2255859,0.7817383,0.08642578,-0.1484375,-0.2641602,-0.2421875
2304,-89.6875,81,-206.875,-0.1459961,0.09423828,0.5097656,-0.1367188,-0.2641602,-0.2514648
2308,16.25,54.3125,-193.6875,-0.06054688,0.3818359,0.7407227,-0.1186523,-0.2695313,-0.2597656
2312,64.6875,47.4375,-150.9375,0.07470703,1.213379,0.5444336,-0.1030273,-0.2792969,-0.2558594
2316,28.375,61.0625,-116.125,0.3266602,1.617188,0.2827148,-0.09472656,-0.2841797,-0.2568359
2320,-39.0625,91.25,-97.5625,0.5161133,1.43457,0.1098633,-0.08300781,-0.2866211,-0.2568359
2324,-91.8125,134.8125,-90.5625,0.4736328,0.987793,0.08642578,-0.06640625,-0.2856445,-0.2636719
2328,-93.8125,137.1875,-120.6875,-0.03320313,0.253418,0.2749023,-0.05566406,-0.2817383,-0.2705078
2332,-4.1875,93.125,-157.25,-0.3706055,-0.2470703,0.6713867,-0.03759766,-0.2783203,-0.2773438
2336,104.3125,56.6875,-152.3125,-0.4829102,0.2573242,0.7480469,-0.02001953,-0.2832031,-0.2758789
2340,156.875,28.375,-128.625,-0.230957,1.244141,0.5175781,-0.01171875,-0.2919922,-0.269043
2344,139.5625,32.625,-112.4375,-0.01416016,1.325684,0.3173828,-0.0009765625,-0.3032227,-0.2583008
2348,74.3125,57.375,-112.6875,-0.01806641,1.407715,0.1904297,0.008300781,-0.3129883,-0.2475586
2352,7.125,58.375,-141.6875,-0.2583008,1.073242,0.2133789,0.01904297,-0.3154297,-0.2475586
2356,19.5625,38.6875,-169.8125,-0.4868164,0.3974609,0.5175781,0.03320313,-0.3129883,-0.2490234
2360,101.5625,8.375,-180.75,-0.6689453,0.4086914,0.6210938,0.04980469,-0.3144531,-0.2436523
2364,149.4375,-20.8125,-169.9375,-0.6376953,0.956543,0.3671875,0.05810547,-0.3168945,-0.2353516
2368,131.6875,-14.875,-153.9375,-0.296875,1.403809,0.2211914,0.06982422,-0.3256836,-0.2246094
2372,70.25,6.5625,-145.75,-0.2583008,1.504395,0.105957,0.08203125,-0.3291016,-0.2202148
2376,23,20.1875,-149.8125,-0.347168,1.182129,0.1635742,0.08886719,-0.3291016,-0.2119141
2380,18.0625,21.5625,-154.5625,-0.4946289,0.875,0.2329102,0.1020508,-0.3242188,-0.2133789
2384,35.25,16.625,-158.25,-0.5605469,0.7973633,0.2441406,0.1152344,-0.3217773,-0.2094727
2388,47.4375,14.4375,-158.3125,-0.6069336,0.90625,0.1865234,0.125,-0.3208008,-0.2080078
2392,42.4375,16.9375,-154.625,-0.5795898,1.019043,0.1635742,0.1391602,-0.3168945,-0.2041016
2396,27,24.1875,-148.625,-0.5722656,1.015137,0.1171875,0.1508789,-0.3105469,-0.2011719
2401,14.4375,33.4375,-146,-0.6376953,0.9101563,0.1098633,0.1591797,-0.3081055,-0.1972656
2405,12.9375,38.625,-147.75,-0.6884766,0.8325195,0.1210938,0.1713867,-0.3041992,-0.1928711
2409,15.3125,35.5,-153.625,-0.847168,0.8168945,0.105957,0.1855469,-0.2929688,-0.1943359
2413,16.625,33.9375,-156.5625,-0.8237305,0.875,0.1328125,0.1938477,-0.2895508,-0.1904297
2417,14.6875,35.375,-153.0625,-0.8935547,0.9375,0.140625,0.2070313,-0.2807617,-0.1865234
2421,12.5625,31.5,-144.3125,-0.9287109,0.9335938,0.1479492,0.2163086,-0.2705078,-0.1835938
2425,16.125,29.375,-133.5625,-0.878418,0.9375,0.1557617,0.2236328,-0.2641602,-0.1806641
2429,19,28,-123.0625,-0.8896484,0.9799805,0.1328125,0.2329102,-0.2543945,-0.1806641
2433,21.4375,23,-112.3125,-0.8588867,1.026855,0.1518555,0.2392578,-0.2480469,-0.175293
2437,20,20.0625,-99.75,-0.831543,1.081055,0.1674805,0.2451172,-0.2431641,-0.175293
2441,15,16.5,-81.5,-0.8276367,1.112305,0.2094727,0.2509766,-0.2358398,-0.1728516
2445,9.375,12.8125,-61.125,-0.796875,1.088867,0.2329102,0.2558594,-0.2294922,-0.1674805
2449,3.4375,11.9375,-42.6875,-0.7426758,1.022949,0.2441406,0.2558594,-0.2270508,-0.1713867
2453,0.375,9.625,-31.875,-0.7617188,0.953125,0.2558594,0.2592773,-0.2255859,-0.1674805
2457,2.5625,3.4375,-23,-0.7617188,0.8671875,0.2749023,0.2641602,-0.2231445,-0.168457
2461,8.25,-0.5625,-14.6875,-0.7387695,0.8520508,0.2211914,0.2626953,-0.2231445,-0.1674805
2465,4.375,-1.0625,-8.6875,-0.7387695,0.8828125,0.1943359,0.2626953,-0.2216797,-0.1660156
2469,-1.3125,-4.3125,-2.75,-0.7426758,0.8051758,0.1557617,0.2641602,-0.2216797,-0.1674805
2473,-0.75,-6.625,2.3125,-0.7231445,0.7353516,0.1367188,0.2641602,-0.2207031,-0.168457
2477,4.75,-8.1875,6.125,-0.7348633,0.7080078,0.1132813,0.2641602,-0.2207031,-0.168457
2481,9.1875,-10.875,10,-0.765625,0.7509766,0.09423828,0.2617188,-0.2207031,-0.1699219
2485,13.375,-17.0625,16.4375,-0.78125,0.8051758,0.08251953,0.2602539,-0.2231445,-0.168457
2489,19.3125,-19.6875,28.3125,-0.7348633,0.8442383,0.07519531,0.2592773,-0.2246094,-0.1699219
2493,23.125,-20.25,40.6875,-0.7231445,0.9023438,0.05957031,0.2583008,-0.2294922,-0.168457
2497,23.25,-22.1875,52.5,-0.765625,0.9643555,0.07519531,0.2558594,-0.2294922,-0.1713867
2501,23.5625,-26.0625,64.625,-0.7387695,0.9995117,0.1020508,0.25,-0.2392578,-0.1713867
2505,25.0625,-26.5625,77.1875,-0.7543945,1.057617,0.1132813,0.2460938,-0.2441406,-0.1728516
2509,18,-26.625,89.1875,-0.7348633,1.13916,0.1098633,0.2426758,-0.2480469,-0.1713867
2513,4.3125,-24.125,97.125,-0.730957,1.158691,0.1367188,0.2353516,-0.2568359,-0.1738281
2517,-2.1875,-24.3125,109.1875,-0.730957,1.06543,0.1713867,0.2294922,-0.2641602,-0.175293
2521,1.5625,-22.125,118.9375,-0.7270508,0.9995117,0.2211914,0.222168,-0.2695313,-0.1738281
2525,8.625,-25.9375,127.875,-0.7851563,0.9604492,0.2402344,0.2138672,-0.2768555,-0.175293
2530,16.1875,-29.5625,134.1875,-0.7426758,0.9682617,0.2441406,0.2070313,-0.2866211,-0.175293
2534,21.125,-32.3125,135.4375,-0.7192383,0.9799805,0.2133789,0.1972656,-0.2919922,-0.1782227
2538,24.75,-32.125,137.4375,-0.6845703,1.026855,0.2133789,0.1855469,-0.3017578,-0.1796875
2542,29.375,-33,143.1875,-0.6962891,1.022949,0.2290039,0.1738281,-0.3129883,-0.1782227
2546,38.4375,-38.25,152.0625,-0.746582,1.030762,0.2329102,0.1665039,-0.3168945,-0.1767578
2550,46.875,-44.125,161.875,-0.6767578,1.049805,0.2060547,0.1523438,-0.3266602,-0.1782227
2554,50.625,-42.25,168.25,-0.5952148,1.12793,0.144043,0.1367188,-0.3378906,-0.1738281
2558,40.75,-37.3125,169.375,-0.5527344,1.225098,0.06347656,0.125,-0.3442383,-0.1728516
2562,25.5625,-31.0625,167.4375,-0.5292969,1.251953,0.04443359,0.1103516,-0.3481445,-0.1713867
2566,14.75,-25.125,167.1875,-0.5371094,1.255859,0.04052734,0.09375,-0.3554688,-0.1699219
2570,11.6875,-23.25,173.0625,-0.5834961,1.279297,0.03662109,0.08447266,-0.359375,-0.168457
2574,15.75,-23.0625,187.75,-0.5214844,1.244141,0.02880859,0.06542969,-0.3618164,-0.168457
2578,17.6875,-15,200.625,-0.4404297,1.310547,0.005859375,0.04638672,-0.3666992,-0.1660156
2582,5.5,-10.1875,201.0625,-0.4443359,1.39209,-0.02441406,0.03564453,-0.3666992,-0.1645508
2586,-15.75,-12.125,197.8125,-0.4130859,1.368652,-0.05517578,0.01416016,-0.3691406,-0.1660156
2590,-27.375,-8.5,194.3125,-0.3510742,1.221191,-0.009277344,-0.003417969,-0.3657227,-0.1674805
2594,-24.625,-5.8125,199.875,-0.3320313,1.108398,0.01367188,-0.01416016,-0.3657227,-0.1674805
2598,-14.875,-6.0625,206.375,-0.3242188,1.09668,0.08251953,-0.03320313,-0.3632813,-0.1728516
2602,-8.75,-5.3125,217.375,-0.262207,1.112305,0.1132813,-0.05224609,-0.3603516,-0.1699219
2606,-12.9375,-1.8125,223.8125,-0.1650391,1.213379,0.09033203,-0.06396484,-0.3569336,-0.1713867
2610,-43.0625,-1,219.125,-0.1689453,1.271484,-0.001464844,-0.08544922,-0.3520508,-0.175293
2614,-73.5625,1.1875,227.3125,-0.09912109,1.120117,-0.009277344,-0.1044922,-0.3408203,-0.1782227
2618,-77.625,3.625,232.6875,-0.09521484,0.855957,0.05175781,-0.1176758,-0.3320313,-0.1835938
2622,-49.5,1.9375,246.375,-0.05664063,0.6420898,0.1748047,-0.1367188,-0.3168945,-0.1904297
2626,-17.0625,-2,252.4375,0.01660156,0.6811523,0.2133789,-0.1557617,-0.3041992,-0.1918945
2630,-13,-1.4375,252.6875,0.1557617,0.7817383,0.1635742,-0.1674805,-0.2954102,-0.1904297
2634,-29.375,2.1875,238.3125,0.1713867,0.8325195,0.1020508,-0.1855469,-0.2832031,-0.1918945
2638,-54.75,-1.5,214.5625,0.2026367,0.7626953,0.08642578,-0.2006836,-0.265625,-0.1943359
2642,-64.5,-2.125,202.8125,0.2646484,0.5952148,0.08642578,-0.2114258,-0.2519531,-0.1928711
2646,-56.625,-0.125,200.0625,0.3378906,0.4750977,0.1132813,-0.2211914,-0.2358398,-0.1987305
2650,-43.75,-0.125,196.25,0.3417969,0.4204102,0.140625,-0.2319336,-0.2182617,-0.2011719
2654,-26.125,-4.375,196.5625,0.3730469,0.315918,0.1826172,-0.2387695,-0.2080078,-0.2011719
2659,-7.1875,-3.9375,194.4375,0.4814453,0.2729492,0.1982422,-0.2470703,-0.1918945,-0.2041016
2663,-11.25,-0.0625,181.75,0.527832,0.4321289,0.1289063,-0.2568359,-0.1733398,-0.2041016
2667,-26.9375,2.375,167.8125,0.5708008,0.3779297,0.144043,-0.2602539,-0.1645508,-0.2041016
2671,-45.75,2.1875,149.0625,0.5473633,0.4013672,0.125,-0.2675781,-0.1479492,-0.2041016
2675,-51.1875,0,142.375,0.6054688,0.284668,0.2172852,-0.2709961,-0.1333008,-0.2041016
2679,-39.1875,-2.6875,146.4375,0.6289063,0.1679688,0.2788086,-0.2734375,-0.1220703,-0.206543
2683,-19.625,-8.6875,157.375,0.6328125,0.15625,0.2866211,-0.2783203,-0.1083984,-0.2041016
2687,-7.0625,-13,161.75,0.7099609,0.1293945,0.2709961,-0.2792969,-0.09179688,-0.2055664
2691,-10.125,-11.9375,150.4375,0.7836914,0.2729492,0.1982422,-0.2817383,-0.08203125,-0.2041016
2695,-41.0625,-9,135,0.7993164,0.3701172,0.1367188,-0.2841797,-0.06689453,-0.2026367
2699,-64.6875,-4.4375,136.75,0.8110352,0.3544922,0.1479492,-0.2851563,-0.05175781,-0.2026367
2703,-69.5625,3,171.5,0.7138672,0.01660156,0.1479492,-0.2851563,-0.03955078,-0.2011719
2707,-36.25,4.5,202.4375,0.59375,-0.4375,0.2675781,-0.2851563,-0.02050781,-0.2041016
2711,20.5,-17.875,219.3125,0.3305664,-0.7949219,0.3134766,-0.2841797,-0.001953125,-0.2011719
2715,45.625,-45.625,186.6875,0.625,-0.9116211,0.06738281,-0.2827148,0.007324219,-0.1987305
2719,40,-28.875,130.625,0.9736328,-0.6240234,-0.2246094,-0.2807617,0.02246094,-0.1987305
2723,1.25,9.1875,89.0625,0.8613281,-0.534668,-0.3398438,-0.2792969,0.03125,-0.1943359
2727,-40.5,39.1875,56.75,0.6518555,-0.7524414,-0.2744141,-0.2768555,0.03515625,-0.1987305
2731,-44.5625,47.5,16.9375,0.4619141,-1.086426,-0.02832031,-0.2744141,0.04150391,-0.1987305
2735,-14.4375,32.0625,-28.625,0.4389648,-1.066895,0.1904297,-0.2700195,0.04394531,-0.2026367
2739,12,16.6875,-61.75,0.5317383,-0.6821289,0.2827148,-0.2724609,0.04248047,-0.2041016
2743,23.9375,-5.125,-77.5625,0.5395508,-0.3364258,0.3481445,-0.2724609,0.03613281,-0.2080078
2747,28.4375,-21.75,-82.1875,0.7954102,-0.1459961,0.3710938,-0.2758789,0.02734375,-0.2055664
2751,25.125,-17.1875,-77,0.9619141,-0.01416016,0.3173828,-0.2758789,0.02148438,-0.2041016
2755,15.5625,-10.4375,-70.0625,1.008301,0.04003906,0.2441406,-0.2783203,0.01269531,-0.2041016
2759,6.625,-1.5625,-64.1875,1.085938,-0.006347656,0.1904297,-0.2807617,0.006347656,-0.2041016
2763,1.5625,8.5,-61.625,1.023926,-0.1074219,0.1557617,-0.2817383,0.002441406,-0.2026367
2767,3.4375,14.5,-61.1875,0.9931641,-0.1538086,0.1904297,-0.2807617,-0.001953125,-0.2055664
2771,5.125,15.5625,-65.5625,0.8881836,-0.1269531,0.2480469,-0.2807617,-0.009277344,-0.206543
2775,8.9375,9.1875,-65.4375,0.8535156,-0.1577148,0.2749023,-0.2807617,-0.01318359,-0.2055664
2779,14.4375,6,-69.5625,0.8417969,-0.1577148,0.3134766,-0.2807617,-0.02050781,-0.2055664
2783,15.5625,-1.0625,-74.875,0.8149414,-0.08007813,0.2675781,-0.2827148,-0.02685547,-0.2080078
2788,10.25,-1.75,-76.9375,0.9116211,-0.02587891,0.2021484,-0.2792969,-0.03466797,-0.206543
2792,1.875,4.75,-88.9375,0.9155273,0.03613281,0.2094727,-0.2817383,-0.04199219,-0.2094727
2796,-0.875,2.0625,-90.4375,0.8183594,0.05126953,0.1982422,-0.2827148,-0.04833984,-0.206543
2800,-0.9375,3,-89.25,0.8769531,0.07861328,0.1826172,-0.2827148,-0.0546875,-0.2094727
2804,-1.4375,6.9375,-85.375,0.8183594,0.04736328,0.1787109,-0.2807617,-0.06201172,-0.2094727
2808,1.4375,8.5625,-84,0.8378906,-0.04541016,0.1748047,-0.2792969,-0.06689453,-0.2094727
2812,9.625,11.3125,-93.125,0.7680664,-0.1230469,0.1982422,-0.2783203,-0.07568359,-0.2109375
2816,17.875,3.375,-106.8125,0.6870117,-0.07617188,0.1904297,-0.2758789,-0.08300781,-0.2119141
2820,17.875,-4,-122.4375,0.7490234,0.1484375,0.159668,-0.2768555,-0.09423828,-0.2109375
2824,3.6875,4.0625,-122.3125,0.8183594,0.2963867,0.1020508,-0.2768555,-0.1030273,-0.2094727
2828,-11.4375,19.5625,-121.125,0.8261719,0.2495117,0.1171875,-0.2724609,-0.1118164,-0.2119141
2832,-3.75,22.3125,-122.125,0.6948242,0.1098633,0.2597656,-0.2661133,-0.1220703,-0.2119141
2836,19.75,12.125,-125.25,0.6289063,0.07470703,0.3017578,-0.2636719,-0.1308594,-0.2148438
2840,42.6875,4.9375,-125.6875,0.6557617,0.1796875,0.2905273,-0.2602539,-0.1430664,-0.2163086
2844,44.125,-3.5625,-141.625,0.6362305,0.3662109,0.2094727,-0.2568359,-0.1557617,-0.2148438
2848,28.3125,-3.5,-149.6875,0.7021484,0.6069336,0.1674805,-0.2509766,-0.1655273,-0.2119141
2852,-1.25,7,-151,0.7836914,0.7817383,0.144043,-0.2485352,-0.1791992,-0.2119141
2856,-14.5625,22.5625,-130.4375,0.7138672,0.5878906,0.2402344,-0.2402344,-0.1904297,-0.2133789
2860,9.5,21,-120,0.609375,0.3349609,0.2905273,-0.2353516,-0.1958008,-0.2148438
2864,43.875,21.4375,-110.75,0.6401367,0.2651367,0.2597656,-0.2294922,-0.2045898,-0.2163086
2868,55.125,23.625,-122.8125,0.5395508,0.4438477,0.1904297,-0.222168,-0.2167969,-0.2163086
2872,30.5,13.0625,-150.625,0.4580078,0.7158203,0.1132813,-0.2172852,-0.2255859,-0.2163086
2876,-13.8125,6.0625,-188.875,0.4814453,0.9101563,0.159668,-0.206543,-0.2368164,-0.2148438
2880,-25.625,7.8125,-180.375,0.4541016,0.8012695,0.2597656,-0.1962891,-0.2480469,-0.2177734
2884,-5.9375,17.8125,-146.3125,0.5317383,0.7470703,0.2827148,-0.1875,-0.2543945,-0.21875
2888,18.1875,33.75,-114.375,0.574707,0.7041016,0.2250977,-0.1782227,-0.2631836,-0.21875
2892,19.4375,47.625,-114.5625,0.3886719,0.90625,0.2060547,-0.168457,-0.2705078,-0.2231445
2896,-18.6875,25.4375,-157.0625,0.1948242,0.953125,0.144043,-0.1601563,-0.2753906,-0.2216797
2900,-23.0625,13.1875,-168.375,0.3378906,0.6616211,0.2983398,-0.1484375,-0.2817383,-0.2231445
2904,11.0625,14.875,-177.1875,0.1791992,0.6030273,0.4326172,-0.1352539,-0.2905273,-0.2285156
2908,45.9375,-1.0625,-158.6875,0.1289063,0.9257813,0.3017578,-0.1269531,-0.2954102,-0.2246094
2912,39.75,12.9375,-126.5625,0.4155273,1.232422,0.2094727,-0.1176758,-0.3041992,-0.2231445
2917,6.5,41,-97,0.4194336,1.217285,0.04785156,-0.1069336,-0.3066406,-0.2202148
2921,-23,59.4375,-98,0.2373047,0.9375,0.1713867,-0.09960938,-0.3120117,-0.2216797
2925,-24.4375,43.3125,-143.5625,-0.08398438,0.6694336,0.2905273,-0.08886719,-0.3129883,-0.2270508
2929,18.6875,8.125,-161.1875,-0.2080078,0.5371094,0.4829102,-0.07470703,-0.3178711,-0.2299805
2933,78.625,-14.625,-159.875,-0.1611328,0.7041016,0.4057617,-0.06640625,-0.3217773,-0.2270508
2937,105.4375,-13.125,-140.6875,0.1445313,1.189941,0.2480469,-0.05419922,-0.3305664,-0.2163086
2941,68.125,16.8125,-122.0625,0.2294922,1.39209,0.005859375,-0.04248047,-0.3378906,-0.2109375
2945,1.875,44.625,-99.25,0.1948242,1.349121,-0.02050781,-0.03515625,-0.3408203,-0.2094727
2949,-46.5,63.875,-109.125,-0.01416016,0.972168,0.09033203,-0.0234375,-0.3417969,-0.2094727
2953,-41.625,42.3125,-157.9375,-0.4829102,0.5878906,0.3520508,-0.01025391,-0.3393555,-0.2148438
2957,16.875,-4.3125,-179.75,-0.5644531,0.6303711,0.4213867,-0.0009765625,-0.3393555,-0.2163086
2961,56.875,-14.6875,-174.5,-0.2661133,0.9916992,0.3710938,0.01269531,-0.3408203,-0.2163086
2965,49.6875,7,-152.1875,-0.08789063,1.353027,0.1865234,0.02734375,-0.3442383,-0.2109375
2969,2.5625,27.3125,-138.625,-0.1650391,1.411133,0.04443359,0.03564453,-0.3442383,-0.2080078
2973,-35.125,33.125,-132.75,-0.215332,1.069336,0.05957031,0.04980469,-0.3432617,-0.2080078
2977,-20.4375,42.3125,-129.125,-0.3432617,0.6147461,0.2558594,0.06396484,-0.3378906,-0.2109375
2981,34.1875,31.25,-143.0625,-0.5991211,0.6811523,0.3364258,0.07128906,-0.3369141,-0.2109375
2985,60.8125,10.3125,-152.1875,-0.5913086,1.007324,0.2402344,0.08447266,-0.3354492,-0.206543
2989,55.5625,8.3125,-148.125,-0.4555664,1.232422,0.2211914,0.09863281,-0.3369141,-0.2026367
2993,25.9375,19.1875,-142.4375,-0.4052734,1.310547,0.1289063,0.1079102,-0.3354492,-0.1987305
2997,-10.25,32.5,-141.0625,-0.3588867,1.205566,0.07910156,0.1210938,-0.3305664,-0.1958008
3001,-33.1875,51.5,-146.1875,-0.3862305,0.9760742,0.09423828,0.1333008,-0.3232422,-0.1987305
3005,-32.0625,58.4375,-136.75,-0.6147461,0.8051758,0.1171875,0.1425781,-0.3178711,-0.1987305
3009,-16.3125,55.4375,-126.5,-0.6689453,0.6772461,0.1635742,0.1567383,-0.3120117,-0.199707
3013,4.0625,57.0625,-123.25,-0.6650391,0.6733398,0.144043,0.1689453,-0.3041992,-0.1958008
3017,9.875,65.375,-125.6875,-0.6845703,0.7895508,0.144043,0.1748047,-0.3007813,-0.1918945
3021,2.25,66.4375,-136.375,-0.7773438,0.8481445,0.1098633,0.1889648,-0.2929688,-0.1875
3025,-5.625,62.8125,-150.3125,-0.8354492,0.8051758,0.1171875,0.2011719,-0.2832031,-0.1835938
3029,-3.4375,59.8125,-154.8125,-0.9013672,0.7548828,0.125,0.2119141,-0.2768555,-0.1806641
3033,10.5625,48,-140.75,-1.067871,0.777832,0.1674805,0.2236328,-0.2670898,-0.1796875
3037,21.375,30.25,-129.3125,-0.9750977,0.8867188,0.1865234,0.2329102,-0.2583008,-0.175293
3041,29.3125,22.6875,-122.125,-0.8857422,0.9375,0.1713867,0.237793,-0.2529297,-0.1713867
3046,33.125,16.9375,-114.5,-0.8549805,1.049805,0.159668,0.2451172,-0.2456055,-0.1699219
3050,30.875,8.5625,-99.625,-0.8745117,1.150879,0.1787109,0.2519531,-0.2368164,-0.1674805
3054,25.125,-2.6875,-74.4375,-0.8164063,1.225098,0.1787109,0.2568359,-0.234375,-0.1616211
3058,13.8125,-3.125,-46.375,-0.6650391,1.236328,0.1865234,0.2592773,-0.2304688,-0.1645508
3062,1.625,1.25,-25.4375,-0.6650391,1.182129,0.2094727,0.2617188,-0.2270508,-0.1630859
3066,-5.5625,-1.9375,-7.0625,-0.6923828,1.09668,0.2329102,0.2617188,-0.2255859,-0.1630859
3070,-9.5,-3.375,5.25,-0.6611328,1.026855,0.2558594,0.2626953,-0.2246094,-0.1660156
3074,-12.5625,-5.375,12.375,-0.6962891,0.9643555,0.2290039,0.2617188,-0.2255859,-0.1660156
3078,-15.8125,-14.5,14.4375,-0.796875,0.9023438,0.2211914,0.2617188,-0.2270508,-0.1674805
3082,-12.8125,-26.75,18.4375,-0.7617188,0.8012695,0.2021484,0.2583008,-0.2255859,-0.1699219
3086,-2.4375,-30.125,21.625,-0.7036133,0.7817383,0.1904297,0.2583008,-0.2255859,-0.1713867
3090,8.125,-31.625,28.125,-0.7348633,0.8129883,0.159668,0.2543945,-0.2304688,-0.1738281
3094,17.125,-36.6875,41.3125,-0.7695313,0.921875,0.159668,0.2509766,-0.2319336,-0.1738281
3098,22.1875,-41.8125,55.9375,-0.746582,0.9682617,0.1826172,0.2475586,-0.2368164,-0.1767578
3102,29.3125,-45.1875,72.125,-0.765625,1.01123,0.1748047,0.2460938,-0.2407227,-0.1782227
3106,30,-47.5625,90,-0.7270508,1.077148,0.125,0.237793,-0.2470703,-0.1806641
3110,23.75,-44.5625,101.8125,-0.7075195,1.104492,0.1210938,0.230957,-0.2568359,-0.1796875
3114,14,-40.8125,109.9375,-0.7348633,1.120117,0.1289063,0.2260742,-0.2617188,-0.1821289
3118,8.3125,-40.1875,115.6875,-0.7734375,1.100586,0.1713867,0.2177734,-0.2680664,-0.1850586
3122,6.75,-40.6875,121.5,-0.8198242,1.116211,0.2060547,0.2080078,-0.2792969,-0.1865234
3126,8.5625,-45.6875,131.3125,-0.847168,1.150879,0.2290039,0.199707,-0.2856445,-0.1889648
3130,7.875,-48.8125,145.125,-0.765625,1.205566,0.2021484,0.1904297,-0.2919922,-0.1904297
3134,6.125,-44.25,166.3125,-0.699707,1.189941,0.2060547,0.1748047,-0.3017578,-0.1904297
3138,4.4375,-39.0625,178.625,-0.6884766,1.17041,0.1865234,0.1665039,-0.3081055,-0.1928711
3142,1.5,-37.375,182.25,-0.715332,1.150879,0.2021484,0.1508789,-0.3154297,-0.1943359
3146,1.125,-38.9375,181.375,-0.6923828,1.131836,0.2133789,0.1333008,-0.3256836,-0.1972656
3150,-0.8125,-35.125,185.4375,-0.6225586,1.221191,0.2368164,0.1225586,-0.3305664,-0.1943359
3154,-11.9375,-34.25,190.25,-0.6845703,1.364746,0.2329102,0.1035156,-0.3344727,-0.199707
3158,-21.9375,-36.875,208.75,-0.6728516,1.345215,0.2441406,0.08691406,-0.3393555,-0.2011719
3162,-17.6875,-36.9375,222.375,-0.6650391,1.248047,0.2519531,0.07373047,-0.3432617,-0.2011719
3166,-5.6875,-39.0625,231.6875,-0.5834961,1.197754,0.2402344,0.05322266,-0.3442383,-0.2026367
3170,-5,-35.1875,233.25,-0.5141602,1.248047,0.1904297,0.02978516,-0.3481445,-0.2041016
3175,-11.0625,-37,227.375,-0.5253906,1.232422,0.2290039,0.01416016,-0.3481445,-0.2055664
3179,-9.125,-40,232.5,-0.4868164,1.186035,0.2788086,-0.005859375,-0.3466797,-0.2055664
3183,2.125,-41.125,241.25,-0.3862305,1.186035,0.2675781,-0.02832031,-0.3457031,-0.2055664
3187,2.25,-38.0625,246.4375,-0.3549805,1.294922,0.2133789,-0.04394531,-0.3432617,-0.2055664
3191,-16.125,-35.5,252.0625,-0.215332,1.306641,0.140625,-0.06738281,-0.3378906,-0.2041016
3195,-34.875,-29.1875,251.875,-0.2231445,1.116211,0.1557617,-0.08886719,-0.3291016,-0.2055664
3199,-32.125,-32.625,249.6875,-0.2231445,0.890625,0.2133789,-0.1044922,-0.3232422,-0.2055664
3203,-17.1875,-35.25,250.75,-0.1225586,0.8286133,0.2441406,-0.1259766,-0.3105469,-0.206543
3207,-7.375,-35.25,256.5,-0.07617188,0.7587891,0.2368164,-0.1459961,-0.2993164,-0.2055664
3211,-8.9375,-31.625,260.9375,0.05908203,0.7666016,0.1518555,-0.1616211,-0.2905273,-0.2055664
3215,-28.125,-22.5,250.3125,0.1557617,0.6845703,0.1132813,-0.1791992,-0.2753906,-0.2041016
3219,-41.4375,-19.6875,236.0625,0.140625,0.4165039,0.1479492,-0.1972656,-0.2583008,-0.2041016
3223,-33.625,-24.6875,209.8125,0.1674805,0.3662109,0.2021484,-0.2080078,-0.2480469,-0.2055664
3227,-31.3125,-34,200.0625,0.1948242,0.315918,0.1713867,-0.2197266,-0.2304688,-0.2041016
3231,-17.5,-40.5625,191.375,0.3188477,0.2495117,0.144043,-0.2329102,-0.2158203,-0.2041016
3235,-0.9375,-41.0625,181.9375,0.3925781,0.2416992,0.1518555,-0.2412109,-0.2045898,-0.2011719
3239,13.5,-41.4375,176.0625,0.4311523,0.2924805,0.1787109,-0.2509766,-0.1943359,-0.1972656
3243,24.5625,-46.4375,168.5,0.4116211,0.3505859,0.1982422,-0.2617188,-0.1782227,-0.1943359
3247,30.4375,-52.875,158.0625,0.5551758,0.4594727,0.1674805,-0.2661133,-0.1704102,-0.1889648
3251,19.625,-43.75,163.375,0.6362305,0.6225586,0.07519531,-0.2758789,-0.1567383,-0.1850586
3255,-12.875,-35.3125,158.875,0.6982422,0.6577148,-0.05126953,-0.2817383,-0.1420898,-0.1806641
3259,-42.5625,-15.375,167.4375,0.7373047,0.5566406,-0.02832031,-0.2875977,-0.1318359,-0.1782227
3263,-52.6875,-4,171.5625,0.6328125,0.3120117,0.07519531,-0.2915039,-0.1142578,-0.1782227
3267,-37,-8.625,175.25,0.5820313,0.06298828,0.1865234,-0.2958984,-0.09326172,-0.1796875
3271,-17,-15.25,172.5625,0.6171875,-0.01025391,0.159668,-0.2973633,-0.08203125,-0.1767578
3275,-6.9375,-16.1875,167.0625,0.6870117,-0.04882813,0.09033203,-0.2983398,-0.06591797,-0.1782227
3279,-7.75,-10.8125,159,0.7641602,0.008789063,0.02099609,-0.3017578,-0.04931641,-0.1738281
3283,-28.4375,2,146.6875,0.8110352,0.05908203,0.01708984,-0.2998047,-0.03955078,-0.1728516
3287,-55.625,13.5625,135.125,0.7412109,-0.01025391,0.03271484,-0.2983398,-0.02050781,-0.175293
3291,-64.4375,12.8125,132.4375,0.6635742,-0.3286133,0.07128906,-0.2983398,-0.006835938,-0.1767578
3295,-44.25,13.4375,128.5625,0.7021484,-0.5966797,0.1098633,-0.2973633,0.001464844,-0.1767578
3299,-30.1875,6,107.125,0.6674805,-0.7832031,0.05175781,-0.2949219,0.01611328,-0.1767578
3304,-18.5,-1.125,76.75,0.659668,-0.7871094,-0.02050781,-0.293457,0.02636719,-0.175293
3308,-7,-4.5,49.0625,0.7177734,-0.8574219,-0.112793,-0.2915039,0.03027344,-0.1738281
3312,-2.9375,6.875,23.9375,0.7875977,-0.7910156,-0.1552734,-0.2924805,0.03369141,-0.175293
3316,-9.375,20.5625,-5.0625,0.7373047,-0.6513672,-0.1206055,-0.2900391,0.03759766,-0.1767578
3320,-13.25,19.5,-34.0625,0.6518555,-0.6240234,-0.02050781,-0.2890625,0.03613281,-0.1782227
3324,3.375,9.625,-57.3125,0.6557617,-0.6162109,0.1171875,-0.2915039,0.03271484,-0.1782227
3328,29.9375,-0.1875,-72.3125,0.6791992,-0.4726563,0.1904297,-0.2915039,0.02392578,-0.1796875
3332,45.8125,-12.0625,-79.0625,0.7412109,-0.2353516,0.1479492,-0.2915039,0.01855469,-0.1796875
3336,44.4375,-12.625,-78.125,0.8842773,-0.06445313,0.05175781,-0.2924805,0.01123047,-0.1782227
3340,30.3125,-1.25,-79.8125,0.9233398,-0.06835938,0.125,-0.2958984,0,-0.1796875
3344,17.25,7.875,-84.9375,0.9423828,0.0009765625,0.05957031,-0.2958984,-0.005859375,-0.1782227
3348,8.9375,12.5625,-90.75,0.9311523,-0.03759766,0.09033203,-0.2958984,-0.01464844,-0.1796875
3352,13.375,14.625,-96.5625,0.8574219,-0.08789063,0.1787109,-0.2958984,-0.0234375,-0.1821289
3356,21.6875,8.3125,-96.125,0.8261719,-0.03369141,0.1635742,-0.2973633,-0.03076172,-0.1806641
3360,26,8.25,-94.3125,0.8881836,-0.006347656,0.1557617,-0.2949219,-0.04052734,-0.1850586
3364,22.875,14.875,-93.375,0.8920898,0.07470703,0.08251953,-0.2958984,-0.04931641,-0.1835938
3368,5.625,25,-97.8125,0.9194336,0.1293945,0.01708984,-0.2949219,-0.05957031,-0.1865234
3372,-14.6875,39.75,-109.8125,0.8881836,0.08642578,0.06347656,-0.2924805,-0.06835938,-0.1889648
3376,-15.9375,36.375,-127.4375,0.659668,-0.02978516,0.2060547,-0.2900391,-0.07714844,-0.1918945
3380,10.375,13.375,-136.25,0.59375,-0.05273438,0.2983398,-0.2875977,-0.08544922,-0.1943359
3384,38.5625,3.875,-127,0.7333984,0.1098633,0.2558594,-0.2851563,-0.09814453,-0.1958008
3388,41.125,14.9375,-116.1875,0.8496094,0.3701172,0.1132813,-0.2827148,-0.1118164,-0.1958008
3392,15.25,34.625,-111.3125,0.9462891,0.6225586,-0.02050781,-0.2817383,-0.1196289,-0.1972656
3396,-30.875,61.5625,-113.25,0.8730469,0.4165039,-0.09375,-0.2758789,-0.1308594,-0.199707
3400,-41.625,69.6875,-132.4375,0.5820313,0.01660156,0.2172852,-0.2675781,-0.1396484,-0.2055664
3404,4.75,36.125,-156.8125,0.3071289,-0.1850586,0.3945313,-0.2636719,-0.1445313,-0.2119141
3408,72,4.5,-163.875,0.4155273,0.03613281,0.4560547,-0.2553711,-0.1591797,-0.2119141
3412,103.0625,2.6875,-143.3125,0.6171875,0.5371094,0.2094727,-0.2485352,-0.1791992,-0.2094727
3416,75.5625,23.8125,-129.375,0.8110352,0.9335938,-0.005371094,-0.2460938,-0.1879883,-0.2080078
3420,9.25,61.1875,-113.4375,0.8613281,0.9838867,-0.1054688,-0.237793,-0.203125,-0.206543
3424,-50.125,98.1875,-121,0.7451172,0.7197266,0.03662109,-0.2280273,-0.2104492,-0.2148438
3428,-60.5,90.4375,-162.8125,0.1791992,0.4243164,0.3330078,-0.2197266,-0.2143555,-0.2216797
3433,-15.3125,30.4375,-185.5625,0.09765625,0.2338867,0.4287109,-0.206543,-0.2231445,-0.2299805
3437,47.375,23.25,-163.6875,0.5048828,0.4438477,0.4482422,-0.1948242,-0.234375,-0.230957
3441,63.5625,50.8125,-132.3125,0.6132813,0.8789063,0.1713867,-0.1865234,-0.2441406,-0.2299805
3445,15.6875,78,-112.875,0.6210938,1.077148,-0.02832031,-0.1757813,-0.2558594,-0.2299805
3449,-41.875,104,-116.125,0.4970703,0.840332,0.05175781,-0.1640625,-0.2617188,-0.2353516
3453,-51.25,91.4375,-166.6875,0.02050781,0.4711914,0.4057617,-0.1533203,-0.2617188,-0.2407227
3457,17.375,29.625,-199.875,-0.3085938,0.3427734,0.6445313,-0.1367188,-0.2695313,-0.2475586
3461,91.5,-0.75,-191.375,0.01660156,0.5952148,0.6137695,-0.1220703,-0.2792969,-0.2436523
3465,117.4375,6.9375,-173,0.2373047,1.081055,0.3291016,-0.1137695,-0.2895508,-0.2392578
3469,72.625,29.625,-153.875,0.3339844,1.438477,0.07910156,-0.09863281,-0.3017578,-0.2324219
3473,-2.5,53.8125,-145.8125,0.3032227,1.263672,0.001953125,-0.08789063,-0.3105469,-0.2299805
3477,-39.0625,69.0625,-153.75,0.09765625,0.777832,0.1674805,-0.07568359,-0.3120117,-0.2324219
3481,-12,56.5625,-181.5625,-0.2270508,0.3857422,0.3789063,-0.06152344,-0.3129883,-0.2368164
3485,47.875,31.8125,-205.25,-0.3666992,0.4125977,0.4174805,-0.04394531,-0.3168945,-0.2368164
3489,86.8125,19.625,-213.5625,-0.3203125,0.7080078,0.3017578,-0.03076172,-0.3217773,-0.2338867
3493,81.625,24.3125,-212.125,-0.2348633,1.045898,0.1865234,-0.01269531,-0.3305664,-0.2270508
3497,42.125,39.5,-206.125,-0.2231445,1.217285,0.05175781,0.004394531,-0.3369141,-0.2202148
3501,-4.6875,55.625,-205.0625,-0.3242188,1.026855,0.04443359,0.01757813,-0.3354492,-0.2202148
3505,-10.9375,60.5,-217.625,-0.5566406,0.6694336,0.2060547,0.04052734,-0.3344727,-0.2202148
3509,29.5,46.6875,-242.5,-0.862793,0.6147461,0.3134766,0.06298828,-0.3305664,-0.21875
3513,62.875,27.0625,-257.3125,-0.9091797,0.9023438,0.2983398,0.07617188,-0.328125,-0.2177734
3517,66.75,21.5,-254.4375,-0.8276367,1.205566,0.2094727,0.09765625,-0.328125,-0.2109375
3521,41.875,33.5,-239,-0.8046875,1.39209,0.1748047,0.1201172,-0.3242188,-0.2055664
3525,6.1875,39.3125,-222.0625,-0.8745117,1.380371,0.1098633,0.1318359,-0.3178711,-0.2041016
3529,-12.8125,42.5,-209.5625,-0.8549805,1.166504,0.1674805,0.1508789,-0.3095703,-0.2026367
3533,-5.625,46.1875,-205.25,-0.8935547,1.069336,0.2172852,0.1699219,-0.2983398,-0.199707
3537,4.4375,46.5,-195.4375,-0.9130859,1.120117,0.2402344,0.1806641,-0.2919922,-0.199707
3541,4.6875,47.125,-180.875,-0.8745117,1.197754,0.2675781,0.1962891,-0.2783203,-0.1972656
3545,-1.5,47,-162.125,-0.9013672,1.182129,0.2944336,0.2119141,-0.2680664,-0.1943359
3549,-3.1875,40.5,-145.4375,-0.8935547,1.108398,0.3291016,0.21875,-0.2607422,-0.1904297
3553,3.875,34.375,-129.5625,-0.8510742,1.069336,0.3212891,0.2270508,-0.2504883,-0.1889648
3557,13.0625,28.125,-117.625,-0.8237305,1.084961,0.3442383,0.2368164,-0.2416992,-0.1850586
3562,23.9375,17.4375,-103.625,-0.831543,1.112305,0.375,0.2426758,-0.2368164,-0.1865234
3566,39.1875,4.6875,-82.25,-0.7773438,1.158691,0.4018555,0.2475586,-0.2304688,-0.1821289
3570,44.875,-3.4375,-59.0625,-0.6923828,1.248047,0.3789063,0.2519531,-0.2270508,-0.1806641
3574,44.0625,-10.375,-38.1875,-0.6533203,1.302734,0.3251953,0.2543945,-0.2255859,-0.1796875
3578,36.5625,-14.5625,-18.8125,-0.5952148,1.337402,0.2709961,0.253418,-0.2270508,-0.1767578
3582,25.0625,-14.5,0,-0.5795898,1.314453,0.2402344,0.253418,-0.2255859,-0.1782227
3586,11.125,-15.4375,14.125,-0.5991211,1.283203,0.1748047,0.253418,-0.2255859,-0.1782227
3590,-1.0625,-16.6875,27,-0.6186523,1.221191,0.1518555,0.2509766,-0.2270508,-0.1782227
3594,-9.125,-15.125,42.375,-0.6455078,1.135742,0.1557617,0.25,-0.2319336,-0.1782227
3598,-9.9375,-14.625,56.75,-0.6884766,1.081055,0.1557617,0.2460938,-0.2319336,-0.1806641
3602,-7.625,-17,68.9375,-0.7270508,1.053711,0.1674805,0.2436523,-0.2368164,-0.1821289
3606,-1.3125,-22.625,77.6875,-0.7773438,1.04248,0.2172852,0.2392578,-0.2431641,-0.1850586
3610,10.25,-30.9375,90.3125,-0.8007813,1.077148,0.2636719,0.234375,-0.2470703,-0.1835938
3614,18.5625,-35.375,109.5,-0.7773438,1.178223,0.2480469,0.2270508,-0.2529297,-0.1865234
3618,15.875,-36.3125,128.75,-0.7734375,1.302734,0.2021484,0.21875,-0.2617188,-0.1875
3622,3.4375,-36.5625,142.9375,-0.7773438,1.337402,0.1865234,0.2128906,-0.2695313,-0.1904297
3626,-5.375,-36.5625,157.75,-0.8354492,1.32959,0.2290039,0.203125,-0.2792969,-0.1904297
3630,-10.4375,-41.5,173.1875,-0.9013672,1.279297,0.2749023,0.1879883,-0.2895508,-0.1943359
3634,-4.125,-53.1875,182.6875,-0.9287109,1.13916,0.2944336,0.1806641,-0.296875,-0.1958008
3638,14.25,-63.5625,190,-0.878418,1.088867,0.3442383,0.1616211,-0.3066406,-0.199707
3642,36.6875,-70.0625,196.9375,-0.8745117,1.189941,0.3330078,0.1450195,-0.3154297,-0.1987305
3646,36.75,-71.4375,206.0625,-0.7929688,1.422852,0.2211914,0.1318359,-0.3232422,-0.199707
3650,6.125,-59.5625,212.4375,-0.6572266,1.559082,0.1479492,0.1103516,-0.3320313,-0.199707
3654,-23.125,-46.1875,242.3125,-0.6376953,1.356934,0.1289063,0.09033203,-0.3378906,-0.2026367
3658,-30.0625,-36.875,252.125,-0.6767578,1.150879,0.1826172,0.07373047,-0.3408203,-0.2026367
3662,-26.25,-35.625,252.875,-0.7231445,1.038574,0.2094727,0.04980469,-0.3417969,-0.2080078
3666,-20.8125,-42.375,246.75,-0.7114258,0.987793,0.2172852,0.02587891,-0.3442383,-0.2109375
3670,-6.25,-46.25,238,-0.6030273,0.8789063,0.2636719,0.01171875,-0.3442383,-0.2109375
3674,16.4375,-44.0625,237.875,-0.5063477,0.9335938,0.2866211,-0.01025391,-0.3432617,-0.2109375
3678,22.625,-42,243.6875,-0.3935547,1.13916,0.2094727,-0.03417969,-0.3432617,-0.206543
3682,-0.5,-29.3125,249.375,-0.2543945,1.32959,0.1674805,-0.04736328,-0.3408203,-0.2055664
3686,-34.875,-22.625,249,-0.3393555,1.228516,0.1787109,-0.07128906,-0.3344727,-0.206543
3691,-46.3125,-25.1875,245.6875,-0.296875,1.003418,0.2827148,-0.09375,-0.3256836,-0.2094727
3695,-32.375,-30.4375,243.625,-0.2041016,0.8325195,0.340332,-0.1054688,-0.3178711,-0.2094727
3699,-11.75,-31.375,250.4375,-0.09912109,0.7895508,0.3291016,-0.128418,-0.3056641,-0.2119141
3703,2,-28.9375,259.375,0.004882813,0.9257813,0.2749023,-0.1474609,-0.2929688,-0.2094727
3707,-11.375,-22.5,266.9375,0.06298828,1.022949,0.2133789,-0.1616211,-0.2895508,-0.2109375
3711,-39.1875,-18.4375,268.0625,0.125,0.9453125,0.140625,-0.1816406,-0.2705078,-0.2080078
3715,-60.8125,-13.9375,256.0625,0.140625,0.7587891,0.1748047,-0.199707,-0.2519531,-0.2094727
3719,-72.0625,-15.125,251.625,0.1171875,0.6069336,0.1518555,-0.2104492,-0.2368164,-0.2119141
3723,-63,-25.0625,238.5,0.1171875,0.3271484,0.2172852,-0.2236328,-0.2167969,-0.2163086
3727,-29.0625,-29.25,247.0625,0.2607422,0.2612305,0.2290039,-0.237793,-0.1943359,-0.2148438
3731,-8.4375,-23.75,254.9375,0.3417969,0.3701172,0.159668,-0.2460938,-0.1821289,-0.2119141
3735,-15.875,-13.75,260.125,0.4467773,0.5839844,0.04785156,-0.2553711,-0.1591797,-0.2119141
3739,-62.125,-1.125,242.8125,0.4853516,0.6733398,-0.02832031,-0.2661133,-0.1357422,-0.2109375
3743,-108,-2.625,202,0.3417969,0.4360352,0.02880859,-0.2685547,-0.1206055,-0.2109375
3747,-107.125,-14.8125,187.8125,0.3730469,-0.03759766,0.1713867,-0.2744141,-0.09570313,-0.2133789
3751,-53.9375,-18.5,207.5,0.4619141,-0.340332,0.2597656,-0.2758789,-0.07421875,-0.2119141
3755,2.8125,-24.0625,227.5625,0.5009766,-0.387207,0.1865234,-0.2768555,-0.06054688,-0.2109375
3759,31.125,-22.375,224.5625,0.6557617,-0.3017578,0.05175781,-0.2817383,-0.03955078,-0.2080078
3763,15,-9.875,197.9375,0.6791992,-0.2006836,-0.08984375,-0.2807617,-0.02441406,-0.2094727
3767,-22.9375,-4.75,150.625,0.6831055,-0.3442383,-0.128418,-0.2817383,-0.01171875,-0.2055664
3771,-38.9375,5.5625,117.25,0.6557617,-0.5698242,-0.04736328,-0.2792969,0.002441406,-0.206543
3775,-24.25,4.0625,100.75,0.4775391,-0.8300781,0.05566406,-0.2768555,0.01367188,-0.206543
3779,10.625,-2.5,85,0.5551758,-0.9077148,0.1367188,-0.2758789,0.02001953,-0.2055664
3783,30.5,-5.25,62.5625,0.6054688,-0.6669922,0.1210938,-0.2758789,0.02636719,-0.206543
3787,18.875,-2.875,33.75,0.7060547,-0.4570313,0.07519531,-0.2744141,0.02880859,-0.206543
3791,-0.8125,5.125,5.875,0.7333984,-0.4921875,0.07128906,-0.2734375,0.03125,-0.206543
3795,-7.4375,8.5625,-20.75,0.6982422,-0.5776367,0.1289063,-0.2744141,0.03027344,-0.2080078
3799,1.375,3.875,-42.625,0.6635742,-0.5698242,0.1826172,-0.2734375,0.02734375,-0.2080078
3803,12.1875,-3.9375,-59.25,0.7255859,-0.4296875,0.2021484,-0.2744141,0.02392578,-0.2041016
3807,16.8125,-5,-68.625,0.7875977,-0.3017578,0.1713867,-0.2758789,0.01855469,-0.2055664
3811,17.5625,-0.8125,-73.4375,0.8496094,-0.2241211,0.1674805,-0.2768555,0.01269531,-0.2094727
3815,15.1875,7.375,-71.3125,0.8881836,-0.1889648,0.09423828,-0.2783203,0.006347656,-0.2080078
3820,10.9375,21.3125,-71.5,0.8652344,-0.2470703,0.05566406,-0.2758789,0,-0.2094727
3824,7.5625,28.5625,-85.1875,0.7602539,-0.3208008,0.02490234,-0.2768555,-0.008300781,-0.2119141
3828,2,28.625,-112.1875,0.690918,-0.3481445,0.03271484,-0.2758789,-0.01171875,-0.2133789
3832,8.3125,31.75,-132.75,0.659668,-0.371582,0.09423828,-0.2758789,-0.02587891,-0.2148438
3836,17.25,28,-147.3125,0.5551758,-0.2353516,0.1328125,-0.2734375,-0.03808594,-0.2163086
3840,31.875,31.5,-147.25,0.6054688,-0.2124023,0.1674805,-0.2724609,-0.046875,-0.2216797
3844,42,33.25,-155.75,0.543457,-0.002441406,0.2060547,-0.2700195,-0.06298828,-0.2216797
3848,29.8125,25.0625,-179.0625,0.5395508,0.2148438,0.2368164,-0.2675781,-0.078125,-0.2255859
3852,21.0625,22.375,-195.625,0.5820313,0.3427734,0.3017578,-0.2636719,-0.08935547,-0.2270508
3856,20.75,25.1875,-183.1875,0.6210938,0.4555664,0.2788086,-0.2602539,-0.1083984,-0.2285156
3860,18.5,35.25,-164.0625,0.7719727,0.4594727,0.1904297,-0.2543945,-0.1220703,-0.2324219
3864,6.8125,62,-145.125,0.8110352,0.4204102,0.07910156,-0.2509766,-0.1333008,-0.2299805
3868,-0.625,69.0625,-156.6875,0.5820313,0.269043,0.159668,-0.2402344,-0.1445313,-0.237793
3872,14.875,57.5,-176.375,0.4541016,0.2109375,0.340332,-0.2304688,-0.1567383,-0.2407227
3876,43.375,41.375,-185.9375,0.4506836,0.4829102,0.4287109,-0.2246094,-0.1669922,-0.2446289
3880,47.3125,47.75,-160.3125,0.6870117,0.8364258,0.2480469,-0.215332,-0.1855469,-0.2446289
3884,15.8125,86.875,-124.5625,0.8652344,0.9375,0.02880859,-0.203125,-0.1958008,-0.2490234
3888,-37.5,132.9375,-109.5,0.7099609,0.921875,-0.04003906,-0.1972656,-0.203125,-0.2543945
3892,-87.1875,132.375,-151.625,0.2836914,0.3896484,0.2021484,-0.1806641,-0.2070313,-0.2651367
3896,-28.375,94.375,-192.9375,-0.03320313,-0.1074219,0.7480469,-0.1650391,-0.2094727,-0.2719727
3900,46.3125,60.6875,-191.0625,0.06689453,0.4360352,0.6826172,-0.1542969,-0.2158203,-0.2773438
3904,48.4375,68,-167.625,0.4077148,1.092773,0.4599609,-0.1391602,-0.2294922,-0.2758789
3908,2.3125,102.25,-136.1875,0.527832,1.088867,0.2597656,-0.1235352,-0.2368164,-0.2788086
3912,-28.75,135.1875,-126.5625,0.3227539,0.6733398,0.2788086,-0.112793,-0.2407227,-0.2802734
3916,-23.0625,123.0625,-157.375,-0.1342773,0.3896484,0.4907227,-0.09375,-0.2441406,-0.2871094
3920,31.0625,79.3125,-192.9375,-0.3242188,0.1523438,0.8173828,-0.07470703,-0.2480469,-0.2924805
3924,98.375,42.3125,-217.8125,-0.3862305,0.4672852,0.8022461,-0.06396484,-0.2519531,-0.2924805
3928,116.8125,23.875,-207.5,-0.1030273,0.9682617,0.5751953,-0.04833984,-0.2641602,-0.2856445
3932,88.3125,51.9375,-172.125,0.1328125,1.213379,0.3481445,-0.03320313,-0.2783203,-0.2773438
3936,46.625,83.75,-146.75,0.04345703,0.890625,0.2133789,-0.02099609,-0.2807617,-0.2749023
3940,29,99.4375,-163.8125,-0.2543945,0.7314453,0.3173828,-0.006835938,-0.2856445,-0.2719727
3944,41.9375,57.6875,-220.25,-0.7270508,0.6459961,0.6098633,0.01416016,-0.2866211,-0.2705078
3949,83.875,15.125,-250.9375,-0.6806641,0.7041016,0.7060547,0.02587891,-0.2905273,-0.2680664
3953,111.4375,0.4375,-254.3125,-0.6303711,0.9296875,0.5405273,0.04492188,-0.2944336,-0.2612305
3957,102.5625,-1.5,-245.5,-0.5024414,1.150879,0.3637695,0.06152344,-0.3007813,-0.2543945
3961,70.4375,16.9375,-225.5,-0.4052734,1.232422,0.2250977,0.07470703,-0.3017578,-0.2514648
3965,41.6875,38.625,-208.375,-0.4365234,1.030762,0.144043,0.09033203,-0.3007813,-0.2460938
3969,43,56.375,-202.9375,-0.5410156,0.8598633,0.159668,0.1079102,-0.2983398,-0.2392578
3973,54.625,59.75,-205.5,-0.8046875,0.8442383,0.2133789,0.1225586,-0.296875,-0.2368164
3977,67.6875,52.125,-210,-0.862793,0.9414063,0.2866211,0.1401367,-0.2919922,-0.230957
3981,62.9375,51.8125,-205.5,-0.9091797,1.116211,0.2636719,0.1582031,-0.2880859,-0.2255859
3985,41.6875,48.6875,-197.375,-0.9365234,1.189941,0.1557617,0.1674805,-0.2817383,-0.2216797
3989,19.25,52.8125,-188.25,-0.8432617,1.146973,0.1328125,0.184082,-0.2719727,-0.2163086
3993,9.5625,63.25,-179.9375,-0.8354492,1.022949,0.144043,0.1987305,-0.2641602,-0.2109375
3997,13.375,65.75,-171.375,-0.9438477,0.9643555,0.1865234,0.2094727,-0.2558594,-0.2094727
4001,21.25,58.6875,-160.25,-0.9946289,0.956543,0.2133789,0.2236328,-0.2456055,-0.2026367
4005,30.0625,50.9375,-148.3125,-0.9868164,0.9916992,0.2827148,0.2329102,-0.234375,-0.199707
4009,36.0625,43.3125,-136.3125,-0.9750977,1.049805,0.2983398,0.2402344,-0.2294922,-0.1943359
4013,38.75,33.5625,-121,-0.9477539,1.112305,0.3056641,0.2475586,-0.2207031,-0.1889648
4017,38.4375,24.75,-99.5625,-0.862793,1.182129,0.3251953,0.2543945,-0.2128906,-0.1850586
4021,35.875,20.25,-76.6875,-0.7851563,1.213379,0.355957,0.2592773,-0.2094727,-0.1835938
4025,33.6875,14,-52.3125,-0.78125,1.255859,0.3867188,0.2651367,-0.2070313,-0.1782227
4029,27.9375,6.625,-28,-0.765625,1.240234,0.4287109,0.2651367,-0.203125,-0.1767578
4033,24.1875,-2.8125,-7.8125,-0.746582,1.213379,0.4365234,0.2666016,-0.2045898,-0.1767578
4037,20.3125,-12.125,9.1875,-0.7231445,1.189941,0.3979492,0.2675781,-0.203125,-0.1767578
4041,12.6875,-19.75,21.375,-0.7075195,1.182129,0.375,0.2651367,-0.2070313,-0.1767578
4045,3.125,-25.75,34.375,-0.7231445,1.166504,0.3291016,0.2626953,-0.2070313,-0.1782227
4049,-5.25,-30.75,48.0625,-0.7270508,1.158691,0.3017578,0.2617188,-0.2119141,-0.1796875
4053,-10.0625,-36.1875,63,-0.7695313,1.108398,0.3017578,0.2568359,-0.2158203,-0.1821289
4057,-3,-42.375,83.25,-0.7929688,1.015137,0.3291016,0.2558594,-0.2182617,-0.1850586
4061,16.3125,-47.1875,101.75,-0.8164063,1.007324,0.3330078,0.2451172,-0.2280273,-0.1875
4065,30,-54.25,119.0625,-0.8588867,1.13916,0.3330078,0.2392578,-0.2358398,-0.1918945
4069,30.6875,-60.375,137.4375,-0.862793,1.248047,0.3173828,0.2329102,-0.2431641,-0.1928711
4073,20.25,-63.3125,149.875,-0.8432617,1.314453,0.3134766,0.2211914,-0.2543945,-0.1943359
4078,8.375,-65.1875,162.5,-0.8745117,1.310547,0.3095703,0.2094727,-0.2641602,-0.1987305
4082,7,-71.0625,174.5625,-0.9208984,1.251953,0.3481445,0.1987305,-0.2744141,-0.1987305
4086,18.25,-73.1875,190.5,-0.8666992,1.263672,0.3520508,0.184082,-0.2841797,-0.2041016
4090,30.375,-66.4375,214.1875,-0.8706055,1.399902,0.3173828,0.1674805,-0.296875,-0.2055664
4094,21.0625,-63.375,235.0625,-0.8857422,1.512207,0.2675781,0.1547852,-0.3041992,-0.206543
4098,4.4375,-63.3125,246.1875,-0.8974609,1.489258,0.2558594,0.1308594,-0.3154297,-0.206543
4102,-7.0625,-64,251.4375,-0.8510742,1.446289,0.2675781,0.1069336,-0.3242188,-0.2094727
4106,-14.6875,-59.6875,259.5,-0.7695313,1.418945,0.2250977,0.09277344,-0.3266602,-0.2109375
4110,-17.625,-53.5625,274.0625,-0.7231445,1.345215,0.2172852,0.06787109,-0.3354492,-0.2133789
4114,-16.75,-47.625,287.0625,-0.7075195,1.263672,0.2558594,0.04150391,-0.3354492,-0.2177734
4118,-10.875,-48.6875,294.125,-0.6923828,1.174316,0.2709961,0.02587891,-0.3378906,-0.2177734
4122,-9.4375,-46.375,296.5625,-0.5722656,1.20166,0.2597656,-0.001953125,-0.3369141,-0.21875
4126,-20.5625,-45.8125,297.0625,-0.5644531,1.213379,0.2211914,-0.03076172,-0.3330078,-0.21875
4130,-27.5,-46.4375,293.8125,-0.4985352,1.13916,0.2250977,-0.04833984,-0.3291016,-0.21875
4134,-32.5625,-42,295.625,-0.3862305,1.049805,0.2133789,-0.07324219,-0.3217773,-0.2202148
4138,-32.5,-38,302.8125,-0.3901367,0.9682617,0.2060547,-0.09863281,-0.3095703,-0.2231445
4142,-36.9375,-41.125,301,-0.296875,0.8828125,0.1713867,-0.1186523,-0.3017578,-0.2231445
4146,-38.875,-34.6875,300,-0.1572266,0.7666016,0.1635742,-0.1411133,-0.2880859,-0.2231445
4150,-40.6875,-24.8125,299.75,-0.1069336,0.6772461,0.1171875,-0.1625977,-0.2719727,-0.2246094
4154,-45.25,-16.75,293,-0.08007813,0.6459961,0.1289063,-0.1782227,-0.2568359,-0.2255859
4158,-55.375,-20.875,275.1875,-0.09521484,0.4868164,0.1210938,-0.1972656,-0.2368164,-0.2255859
4162,-50.0625,-30.75,253.125,0.04345703,0.2807617,0.1479492,-0.2128906,-0.2167969,-0.2255859
4166,-30.375,-30.1875,239.125,0.206543,0.203125,0.1518555,-0.222168,-0.2006836,-0.2270508
4170,-23.5625,-22.25,237.0625,0.3378906,0.3740234,0.09033203,-0.2353516,-0.1845703,-0.2255859
4174,-41.6875,-10.625,228,0.3652344,0.4633789,0.05566406,-0.2446289,-0.1645508,-0.2255859
4178,-56.1875,-4.375,218.0625,0.3730469,0.3466797,0.1367188,-0.2485352,-0.1508789,-0.2255859
4182,-52.25,-6.25,213.25,0.3652344,0.09033203,0.1826172,-0.2568359,-0.1279297,-0.2270508
4186,-34.4375,-11.375,205.375,0.3266602,0.02441406,0.2749023,-0.2617188,-0.109375,-0.2270508
4190,-17.125,-28.0625,198.875,0.3769531,-0.03369141,0.2788086,-0.2636719,-0.09716797,-0.2255859
4194,-6.0625,-32.625,187.125,0.5239258,-0.006347656,0.2636719,-0.2700195,-0.07714844,-0.2231445
4198,-6.125,-32.75,173.5,0.5820313,0.01660156,0.1674805,-0.2734375,-0.06201172,-0.2202148
4202,-16.0625,-26.625,161,0.6479492,0.08642578,0.1098633,-0.2734375,-0.05322266,-0.2163086
4207,-30.3125,-18.0625,155.375,0.6791992,0.004882813,0.04443359,-0.2744141,-0.03710938,-0.2148438
4211,-42.875,-4.75,141.5,0.7216797,-0.09960938,0.05566406,-0.2758789,-0.01806641,-0.2133789
4215,-50.25,3.8125,127.25,0.6479492,-0.2241211,0.05175781,-0.2734375,-0.01074219,-0.2133789
4219,-48.25,6.8125,118,0.625,-0.4453125,0.07519531,-0.2734375,0.001464844,-0.2163086
4223,-35.0625,6,114.0625,0.5087891,-0.9580078,0.03271484,-0.2709961,0.01367188,-0.2119141
4227,-14.5,6.8125,88.875,0.6054688,-0.8066406,0.1289063,-0.2700195,0.02246094,-0.2133789
4231,9.375,3,69.1875,0.5820313,-0.8378906,0.1289063,-0.2675781,0.03125,-0.2148438
4235,22.8125,-0.25,44.5625,0.644043,-0.7368164,0.1367188,-0.2675781,0.03369141,-0.2133789
4239,20.5,0.125,17.4375,0.6948242,-0.6435547,0.1020508,-0.2661133,0.03515625,-0.2148438
4243,9.9375,7.75,-6.4375,0.7641602,-0.534668,0.125,-0.2661133,0.03613281,-0.2163086
4247,-2.25,11.1875,-27.6875,0.7333984,-0.484375,0.140625,-0.2651367,0.03271484,-0.2163086
4251,-5.3125,12.5,-44.625,0.7719727,-0.4882813,0.2060547,-0.2661133,0.03271484,-0.2148438
4255,3.8125,8.0625,-55.875,0.7490234,-0.4492188,0.2290039,-0.2661133,0.02734375,-0.21875
4259,15.4375,1.625,-64.875,0.7680664,-0.340332,0.2675781,-0.2675781,0.02246094,-0.2163086
4263,23.8125,-5.8125,-68.625,0.7993164,-0.2431641,0.2558594,-0.2675781,0.01855469,-0.2177734
4267,26.5,-7.8125,-71.1875,0.8300781,-0.1733398,0.2675781,-0.2700195,0.01025391,-0.21875
4271,22.4375,-9.25,-75.0625,0.8339844,-0.1113281,0.2368164,-0.2700195,0.001464844,-0.21875
4275,14,-4.9375,-78.5,0.8691406,-0.1459961,0.2060547,-0.2709961,-0.001953125,-0.21875
4279,8.5,3.0625,-87.3125,0.8535156,-0.2006836,0.2094727,-0.2734375,-0.009277344,-0.2177734
4283,5.8125,2.5,-99.75,0.7529297,-0.2045898,0.2133789,-0.2734375,-0.01953125,-0.21875
4287,10.5625,-1.1875,-113.875,0.7412109,-0.2353516,0.2866211,-0.2744141,-0.02685547,-0.2202148
4291,17.8125,-7.25,-127.1875,0.6635742,-0.1308594,0.2905273,-0.2744141,-0.03808594,-0.2177734
4295,18.0625,-10.625,-132.8125,0.7216797,-0.04541016,0.2329102,-0.2768555,-0.04931641,-0.2177734
4299,11.875,-2.3125,-137.3125,0.7719727,0.03613281,0.1713867,-0.2758789,-0.05712891,-0.2177734
4303,-3.5625,12.375,-143.5,0.7836914,0.09423828,0.1020508,-0.2734375,-0.07080078,-0.2177734
4307,-20,23.875,-156.4375,0.7060547,0.06689453,0.1635742,-0.2734375,-0.08300781,-0.2202148
4311,-22.875,18.8125,-175.625,0.5473633,0.008789063,0.2368164,-0.2675781,-0.09082031,-0.2216797
4315,1.9375,4.625,-188.75,0.4931641,-0.07617188,0.3442383,-0.2661133,-0.1030273,-0.2216797
4319,35.9375,-7.125,-188.8125,0.4931641,0.04736328,0.3330078,-0.2602539,-0.1206055,-0.2231445
4323,50.9375,-7.1875,-178,0.6132813,0.3623047,0.2094727,-0.2578125,-0.1342773,-0.2231445
4327,34.5,12.1875,-166.4375,0.7333984,0.5913086,0.1171875,-0.2519531,-0.1518555,-0.2216797
4331,-5.1875,37.0625,-162.625,0.7216797,0.6772461,0.04443359,-0.2470703,-0.1655273,-0.2216797
4336,-45.625,46.1875,-186.125,0.4970703,0.6108398,0.1479492,-0.2426758,-0.1757813,-0.2246094
4340,-43.3125,27.875,-221.0625,0.3378906,0.2612305,0.4174805,-0.2304688,-0.1855469,-0.2299805
4344,17.1875,4.3125,-230.625,0.2177734,0.1992188,0.5327148,-0.21875,-0.2016602,-0.2324219
4348,72.5625,-11.5625,-205.625,0.3378906,0.5683594,0.4057617,-0.2114258,-0.2128906,-0.230957
4352,73.5625,5.4375,-172.5625,0.644043,1.015137,0.1518555,-0.2021484,-0.2319336,-0.2270508
4356,21.375,38.5625,-162.5,0.5859375,1.236328,0.105957,-0.1914063,-0.2441406,-0.2270508
4360,-39.9375,43.1875,-177.3125,0.3339844,1.131836,0.159668,-0.1831055,-0.2504883,-0.2270508
4364,-59.5,44.75,-197.1875,0.3378906,0.8671875,0.3291016,-0.168457,-0.2592773,-0.2338867
4368,-43.6875,43,-199.375,0.1831055,0.7626953,0.4018555,-0.1542969,-0.265625,-0.237793
4372,-13.1875,36.25,-198.875,0.1831055,0.7509766,0.4326172,-0.1425781,-0.2719727,-0.2407227
4376,10.875,39.1875,-191.8125,0.190918,0.8632813,0.3828125,-0.1269531,-0.2792969,-0.2421875
4380,16.5,41.5625,-181.125,0.07861328,0.9799805,0.3481445,-0.1103516,-0.2856445,-0.2436523
4384,12.5625,35.875,-183.875,0.04345703,1.04248,0.3945313,-0.09960938,-0.2919922,-0.2436523
4388,8.1875,34.6875,-185.125,0.02441406,1.077148,0.409668,-0.08398438,-0.2983398,-0.2460938
4392,-2.375,31.0625,-185.5625,-0.01806641,1.120117,0.3789063,-0.07226563,-0.3032227,-0.2436523
4396,-20.3125,29.625,-180.125,0.03564453,1.057617,0.2983398,-0.05908203,-0.3056641,-0.2446289
4400,-29.8125,38.25,-166.625,0.08642578,0.90625,0.2597656,-0.04248047,-0.3081055,-0.2490234
4404,-28.25,51.4375,-148.5,0.1054688,0.7236328,0.2133789,-0.02685547,-0.3066406,-0.2543945
4408,-4.75,63.875,-143.6875,-0.02978516,0.6030273,0.3095703,-0.01855469,-0.3081055,-0.2529297
4412,9.875,57.0625,-160.625,-0.2583008,0.7275391,0.3056641,-0.003417969,-0.3095703,-0.2543945
4416,11.3125,47.0625,-181.0625,-0.3007813,0.8945313,0.3251953,0.01269531,-0.3081055,-0.2514648
4420,1.5625,44.6875,-187.25,-0.230957,0.9140625,0.2866211,0.0234375,-0.3105469,-0.2529297
4424,-5.6875,56,-173.5625,-0.2231445,0.8867188,0.2402344,0.04052734,-0.3081055,-0.2514648
4428,-7.6875,72.5625,-154.75,-0.2583008,0.7817383,0.2709961,0.05712891,-0.3041992,-0.2529297
4432,9.5,85,-149.625,-0.4750977,0.6733398,0.3056641,0.06787109,-0.3032227,-0.25
4436,37.4375,80.75,-158,-0.78125,0.7353516,0.375,0.08691406,-0.2993164,-0.2490234
4440,54.6875,58.125,-170.5,-0.8007813,0.9453125,0.3671875,0.1020508,-0.2993164,-0.2436523
4444,54.8125,59.9375,-164.4375,-0.6342773,1.131836,0.3481445,0.1118164,-0.3007813,-0.2368164
4448,35.75,68.5625,-153.3125,-0.6806641,1.287109,0.2983398,0.1259766,-0.2954102,-0.2338867
4452,17.25,72.25,-147.125,-0.7426758,1.244141,0.3598633,0.1416016,-0.2929688,-0.2299805
4456,12.5,72.375,-133.4375,-0.7851563,1.217285,0.3637695,0.1523438,-0.2905273,-0.2246094
4460,8,69.5625,-112.75,-0.796875,1.213379,0.3330078,0.1650391,-0.2841797,-0.2202148
4465,-2.3125,62.0625,-92.4375,-0.7695313,1.186035,0.2827148,0.1772461,-0.2768555,-0.2177734
4469,-13.9375,59.375,-79.875,-0.6884766,1.088867,0.2749023,0.184082,-0.2753906,-0.2148438
4473,-20.1875,59.9375,-71.8125,-0.6494141,0.9643555,0.2519531,0.1914063,-0.2705078,-0.2119141
4477,-23.1875,62.1875,-67.875,-0.6147461,0.8671875,0.2558594,0.2021484,-0.2641602,-0.2119141
4481,-27,66.3125,-68.25,-0.6030273,0.8286133,0.2368164,0.2055664,-0.2607422,-0.2094727
4485,-30.75,71,-70.0625,-0.6147461,0.7705078,0.2368164,0.2128906,-0.2543945,-0.206543
4489,-27.9375,71.25,-65.75,-0.7387695,0.6694336,0.2441406,0.2211914,-0.2480469,-0.2026367
4493,-15.375,63.75,-58.6875,-0.765625,0.6225586,0.2675781,0.2260742,-0.2441406,-0.2011719
4497,-2.375,60.0625,-54.8125,-0.7695313,0.6538086,0.2709961,0.2319336,-0.2392578,-0.1972656
4501,1.8125,55.0625,-59.25,-0.796875,0.7392578,0.2519531,0.237793,-0.2358398,-0.1943359
4505,0.25,49,-66.4375,-0.8007813,0.7587891,0.2329102,0.2426758,-0.2319336,-0.1889648
4509,-2.3125,47.0625,-69.25,-0.8085938,0.777832,0.2558594,0.2475586,-0.2280273,-0.1875
4513,0.3125,43.125,-63.875,-0.8666992,0.7587891,0.2636719,0.2543945,-0.2207031,-0.1821289
4517,6.875,36.0625,-53.1875,-0.8974609,0.7666016,0.2675781,0.2558594,-0.2182617,-0.1796875
4521,16.8125,26.375,-38.25,-0.9130859,0.7666016,0.2709961,0.2602539,-0.2128906,-0.1782227
4525,22.0625,17.9375,-25.125,-0.8588867,0.8286133,0.2597656,0.2617188,-0.2119141,-0.1767578
4529,19.3125,13.3125,-15.4375,-0.8510742,0.8632813,0.2402344,0.2651367,-0.2143555,-0.1728516
4533,12.5,5.0625,-10.375,-0.8549805,0.8671875,0.2250977,0.2651367,-0.2104492,-0.1713867
4537,12.375,-3.1875,-4.5625,-0.8432617,0.8286133,0.2402344,0.2651367,-0.2104492,-0.1728516
4541,18.8125,-10.375,6.4375,-0.8432617,0.8442383,0.2597656,0.2666016,-0.2119141,-0.1728516
4545,24.375,-18.875,19.25,-0.831543,0.8867188,0.2519531,0.2641602,-0.2119141,-0.1728516
4549,30.9375,-24.75,30.3125,-0.796875,0.8984375,0.2866211,0.2626953,-0.2158203,-0.1728516
4553,38.9375,-32,41.5,-0.8432617,0.9643555,0.2983398,0.2592773,-0.2207031,-0.1713867
4557,42.1875,-43.6875,56.9375,-0.8549805,1.026855,0.2749023,0.2568359,-0.2270508,-0.1738281
4561,42.8125,-52.75,70.125,-0.8125,1.049805,0.2788086,0.2509766,-0.2329102,-0.175293
4565,41.75,-58.25,83.25,-0.7851563,1.100586,0.2519531,0.2485352,-0.2392578,-0.175293
4569,40.1875,-61.0625,96.9375,-0.7890625,1.12793,0.2749023,0.237793,-0.2456055,-0.1796875
4573,37.0625,-64.4375,111.125,-0.8125,1.182129,0.2944336,0.2319336,-0.2568359,-0.1806641
4577,31.3125,-71.1875,125.9375,-0.8510742,1.221191,0.2905273,0.2211914,-0.2617188,-0.1835938
4581,27.5625,-77.375,143.125,-0.7929688,1.193848,0.2749023,0.2128906,-0.2729492,-0.1850586
4585,25.875,-72.875,160.6875,-0.7075195,1.193848,0.2402344,0.1972656,-0.2832031,-0.1889648
4589,20.6875,-65.5,177.8125,-0.7075195,1.263672,0.2021484,0.1904297,-0.2919922,-0.1904297
4594,8.4375,-56.4375,190.1875,-0.6728516,1.321777,0.1865234,0.1748047,-0.3032227,-0.1918945
4598,-3.4375,-51.1875,200.5,-0.765625,1.317871,0.1982422,0.1557617,-0.3105469,-0.1928711
4602,-10.25,-53.8125,208.3125,-0.765625,1.271484,0.2250977,0.1425781,-0.3193359,-0.1972656
4606,-12.5,-54.4375,213.5,-0.7348633,1.267578,0.2250977,0.1225586,-0.3256836,-0.199707
4610,-13.375,-50.5625,226,-0.6572266,1.302734,0.2094727,0.1044922,-0.3330078,-0.199707
4614,-14.8125,-42.625,240.25,-0.6845703,1.341309,0.2172852,0.08789063,-0.3369141,-0.2026367
4618,-20.9375,-43.375,250.625,-0.6728516,1.384277,0.1865234,0.06640625,-0.3393555,-0.206543
4622,-32.5,-40.4375,258.75,-0.5722656,1.283203,0.1982422,0.04394531,-0.3432617,-0.2080078
4626,-29.8125,-39.1875,255.6875,-0.5488281,1.154785,0.2290039,0.02587891,-0.3432617,-0.2109375
4630,-25.0625,-42.3125,255.5625,-0.5332031,1.143066,0.2597656,0.0009765625,-0.3417969,-0.2133789
4634,-24.4375,-45.5,261.875,-0.4443359,1.182129,0.2441406,-0.02099609,-0.3408203,-0.2163086
4638,-30.875,-45.25,264.75,-0.3549805,1.20166,0.2290039,-0.03759766,-0.3344727,-0.2148438
4642,-45.75,-40.125,272.5,-0.2929688,1.162598,0.1904297,-0.06152344,-0.3291016,-0.2177734
4646,-52.375,-39.125,273,-0.2426758,0.9414063,0.1943359,-0.08544922,-0.3208008,-0.2216797
4650,-31.125,-41.8125,270.3125,-0.215332,0.6303711,0.2441406,-0.1020508,-0.3095703,-0.2202148
4654,32,-60.375,262.5625,-0.2734375,0.284668,0.375,-0.1269531,-0.2993164,-0.2202148
4658,131.125,-84.875,264.625,-0.08789063,0.3232422,0.4018555,-0.1474609,-0.2919922,-0.2133789
4662,159.625,-76.25,275.375,0.2954102,1.120117,0.07128906,-0.1650391,-0.2905273,-0.2026367
4666,72.1875,-37.875,274.875,0.4541016,1.714355,-0.1435547,-0.1875,-0.2817383,-0.1875
4670,-41.6875,-6.25,271.9375,0.3188477,1.399902,-0.1630859,-0.206543,-0.265625,-0.1835938
4674,-89.5625,6.75,260.5,0.1674805,0.6733398,-0.02441406,-0.21875,-0.2504883,-0.1865234
4678,-73.8125,6.9375,250.3125,0.1328125,0.2495117,0.1171875,-0.2329102,-0.2294922,-0.1918945
4682,-37.5625,-3.5,246.0625,0.09033203,0.121582,0.1557617,-0.2446289,-0.2070313,-0.1943359
4686,-20.1875,-18.0625,236,0.2026367,0.2109375,0.08251953,-0.2519531,-0.1918945,-0.1943359
4690,-17.5625,-17.625,224.3125,0.3999023,0.1953125,0.04443359,-0.2651367,-0.1704102,-0.1943359
4694,-16.375,-7.9375,215.4375,0.4580078,0.1254883,0.02880859,-0.2734375,-0.1518555,-0.1928711
4698,-13.25,-2.1875,211.125,0.4506836,0.02832031,0.06347656,-0.2768555,-0.1367188,-0.1928711
4702,1.0625,2.625,196.5,0.59375,-0.01025391,0.1943359,-0.2841797,-0.1181641,-0.1928711
4706,13.4375,-7.9375,176.125,0.4038086,-0.04882813,0.140625,-0.2866211,-0.1044922,-0.1904297
4710,18.3125,-28.125,154.9375,0.527832,0.008789063,0.140625,-0.2890625,-0.09179688,-0.1904297
4714,14.875,-30.625,145.0625,0.6713867,-0.05273438,0.07519531,-0.2924805,-0.078125,-0.1875
4718,16.9375,-24.1875,133.0625,0.7490234,-0.1035156,0.08251953,-0.2949219,-0.06591797,-0.1865234
4723,15.375,-18.9375,128.6875,0.6948242,-0.05664063,0.08251953,-0.2949219,-0.05810547,-0.1835938
4727,13.4375,-20.0625,131.3125,0.7177734,-0.1074219,0.06347656,-0.2958984,-0.046875,-0.1806641
4731,13.125,-13.875,132.6875,0.7797852,-0.1577148,0.06347656,-0.2973633,-0.03466797,-0.1796875
4735,8.75,-8.9375,116.8125,0.8222656,-0.2163086,0.04052734,-0.2998047,-0.02441406,-0.1782227
4739,-2.5,-1.6875,94.0625,0.8417969,-0.1967773,0.04052734,-0.2998047,-0.015625,-0.1782227
4743,-17.5,3.625,79.1875,0.7915039,-0.2006836,0.05175781,-0.2983398,-0.009277344,-0.1796875
4747,-23.1875,10.5,79.5,0.8110352,-0.3793945,0.06738281,-0.2973633,-0.0004882813,-0.1782227
4751,-21.9375,20.75,68.75,0.8920898,0.1796875,0.2172852,-0.2949219,0.004882813,-0.1806641
4755,-19.125,24.625,63.25,0.7915039,-0.453125,0.140625,-0.293457,0.01367188,-0.1821289
4759,-24.8125,25,42.875,0.7602539,-0.4179688,0.125,-0.2900391,0.01855469,-0.1821289
4763,-27.125,19.5,22,0.7529297,-0.5073242,0.1865234,-0.2890625,0.02246094,-0.1850586
4767,-20.5625,12.4375,1.4375,0.7490234,-0.5112305,0.2133789,-0.2866211,0.02246094,-0.1850586
4771,-8.4375,2.125,-12.25,0.7490234,-0.4765625,0.2441406,-0.2866211,0.02490234,-0.1850586
4775,3.0625,-6.4375,-18.75,0.8071289,-0.355957,0.2094727,-0.2875977,0.02490234,-0.1835938
4779,5.6875,-10.0625,-24.8125,0.9155273,-0.1811523,0.1674805,-0.2900391,0.02148438,-0.1850586
4783,-0.6875,-9.0625,-27.75,0.9775391,-0.09960938,0.140625,-0.2915039,0.02001953,-0.1835938
4787,-5.1875,-5.3125,-28.25,1.008301,-0.08007813,0.1328125,-0.2900391,0.01757813,-0.1821289
4791,-4.6875,-4.8125,-24,1.004395,-0.06445313,0.1367188,-0.2915039,0.01513672,-0.1835938
4795,-1.6875,-6.25,-17.4375,1.02002,-0.07226563,0.1635742,-0.293457,0.01367188,-0.1821289
4799,0.5,-4.25,-11.25,1.05127,-0.05664063,0.144043,-0.293457,0.01269531,-0.1821289
4803,-1.125,-2.375,-6.9375,1.016113,-0.09179688,0.125,-0.2924805,0.01123047,-0.1796875
4807,-1.3125,-1.5,-6.8125,0.9970703,-0.1538086,0.1171875,-0.293457,0.01025391,-0.1821289
4811,-2.3125,1.9375,-8.875,0.9501953,-0.2045898,0.140625,-0.2949219,0.01025391,-0.1806641
4815,-4.5,2,-14.5625,0.8769531,-0.2861328,0.125,-0.293457,0.01123047,-0.1806641
4819,-1.9375,-0.875,-25.1875,0.8032227,-0.4101563,0.1674805,-0.293457,0.008789063,-0.1806641
4823,8.375,-10.0625,-39.75,0.7412109,-0.4804688,0.1748047,-0.2949219,0.006347656,-0.1806641
4827,19.375,-17,-52.1875,0.7490234,-0.453125,0.125,-0.2949219,0.001464844,-0.1821289
4831,19.0625,-16.0625,-64.1875,0.7875977,-0.3481445,0.04052734,-0.2958984,-0.0004882813,-0.1782227
4835,6.5,-7.625,-79.3125,0.8183594,-0.2978516,-0.009277344,-0.2973633,-0.009277344,-0.1796875
4839,0.9375,-3.4375,-99,0.7412109,-0.3134766,0.04052734,-0.2973633,-0.01806641,-0.1767578
4843,6.875,-7.125,-111.3125,0.7021484,-0.2744141,0.07519531,-0.2983398,-0.02587891,-0.1782227
4847,15.4375,-10.1875,-119.5,0.7255859,-0.1694336,0.07519531,-0.2983398,-0.03564453,-0.1767578
4852,13.75,-7.375,-125.4375,0.7836914,0.01660156,0.01708984,-0.3007813,-0.04833984,-0.1738281
4856,-7.1875,5.25,-129.3125,0.8535156,0.1333008,-0.04003906,-0.2998047,-0.05810547,-0.175293
4860,-21.8125,17.8125,-137.5625,0.8032227,-0.002441406,0.03662109,-0.2973633,-0.06933594,-0.175293
4864,-15.875,20.125,-147,0.7138672,-0.1381836,0.1171875,-0.2983398,-0.08056641,-0.1782227
4868,11.0625,10.125,-157.25,0.6015625,-0.1347656,0.1982422,-0.2973633,-0.09179688,-0.1796875
4872,24.9375,-3.625,-166.4375,0.6132813,0.08642578,0.1132813,-0.2924805,-0.1083984,-0.1796875
4876,8.25,1.125,-174.5625,0.7680664,0.3974609,-0.001464844,-0.2875977,-0.1230469,-0.1806641
4880,-26.25,23.6875,-170.1875,0.7451172,0.1875,-0.04394531,-0.2841797,-0.1342773,-0.1806641
4884,-39.375,37.8125,-174.625,0.690918,0.1914063,0.09033203,-0.2792969,-0.1469727,-0.1850586
4888,3.125,34.5,-170.4375,0.5473633,0.01269531,0.2749023,-0.2700195,-0.1630859,-0.1889648
4892,55.3125,15.3125,-174.375,0.4194336,0.1445313,0.2709961,-0.2661133,-0.1743164,-0.1889648
4896,72.5625,-3.5,-185.5625,0.4931641,0.5292969,0.140625,-0.2578125,-0.1918945,-0.1889648
4900,38,3.8125,-190.625,0.7021484,0.9492188,-0.04394531,-0.2495117,-0.2104492,-0.1865234
4904,-40.5,39.125,-184.875,0.7954102,1.073242,-0.1245117,-0.2412109,-0.2207031,-0.1850586
4908,-85.6875,65,-186.5,0.578125,0.5410156,0.08251953,-0.2294922,-0.2304688,-0.1928711
4912,-15.9375,48.625,-188.625,0.1948242,-0.04882813,0.4287109,-0.215332,-0.2392578,-0.2011719
4916,89.75,13.3125,-189.9375,0.07470703,0.3310547,0.4633789,-0.2080078,-0.2519531,-0.199707
4920,118.0625,-19.3125,-203.6875,0.2177734,1.007324,0.2021484,-0.1938477,-0.2695313,-0.1958008
4924,69.6875,-16.1875,-210,0.4892578,1.49707,0.01367188,-0.1806641,-0.2866211,-0.1875
4928,-31.1875,18.1875,-195.6875,0.6210938,1.652344,-0.09375,-0.1723633,-0.296875,-0.1875
4932,-122.375,53,-183,0.5048828,1.182129,-0.02441406,-0.1557617,-0.3041992,-0.1918945
4936,-91.4375,54.5,-186.6875,0.1132813,0.203125,0.3828125,-0.1376953,-0.3056641,-0.206543
4940,43.5,30.9375,-188.75,-0.09912109,0.2612305,0.5327148,-0.1269531,-0.3081055,-0.2080078
4944,104.9375,2.125,-188,-0.08007813,0.972168,0.2519531,-0.1113281,-0.3208008,-0.2041016
4948,81.9375,-1.75,-184.6875,0.1948242,1.473633,0.05957031,-0.09716797,-0.3320313,-0.1958008
4952,9.0625,25.8125,-173.125,0.3110352,1.597656,-0.03613281,-0.08789063,-0.3393555,-0.1928711
4956,-77.8125,54.125,-173.25,0.2646484,1.345215,-0.05126953,-0.06884766,-0.3417969,-0.1972656
4960,-124.3125,77.5625,-175.1875,0.1054688,0.8442383,0.07128906,-0.05322266,-0.3393555,-0.206543
4964,-78.9375,71.8125,-192,-0.2348633,0.2148438,0.3212891,-0.0390625,-0.3354492,-0.2133789
4968,14.8125,50.375,-206.1875,-0.4052734,0.3427734,0.3789063,-0.01757813,-0.3354492,-0.21875
4972,59.75,35.25,-210.6875,-0.362793,0.8286133,0.2558594,0.002441406,-0.3378906,-0.2163086
4976,48.75,39.3125,-208,-0.2890625,1.17041,0.159668,0.01269531,-0.3417969,-0.2119141
4981,2.1875,50.75,-201.625,-0.296875,1.294922,0.05957031,0.03173828,-0.3417969,-0.2119141
4985,-52.625,64.8125,-196.3125,-0.362793,1.12793,0.06738281,0.0546875,-0.3378906,-0.2109375
4989,-44.5,65.75,-203.875,-0.5952148,0.5761719,0.2675781,0.06787109,-0.3354492,-0.2133789
4993,34.75,59.1875,-210.3125,-0.8549805,0.5136719,0.3945313,0.08789063,-0.3305664,-0.2133789
4997,84.9375,34.625,-204.375,-0.8818359,0.9335938,0.2636719,0.1069336,-0.3256836,-0.2109375
5001,84.875,29.3125,-191,-0.7075195,1.325684,0.1904297,0.1186523,-0.3242188,-0.2055664
5005,45.125,38.5,-179,-0.6611328,1.43457,0.1289063,0.1367188,-0.3217773,-0.1987305
5009,-16.125,45.9375,-153.1875,-0.6611328,1.469727,0.04052734,0.1508789,-0.3154297,-0.1928711
5013,-67.375,51.75,-145.25,-0.6376953,1.221191,0.05175781,0.1591797,-0.3120117,-0.1928711
5017,-90.375,56.8125,-148.5625,-0.6806641,0.9101563,0.1098633,0.1723633,-0.2983398,-0.1958008
5021,-78.5,59.5,-148.1875,-0.6962891,0.6108398,0.1518555,0.1879883,-0.2856445,-0.199707
5025,-49.4375,70.625,-144.1875,-0.7114258,0.5410156,0.2368164,0.1972656,-0.2768555,-0.199707
5029,-20.6875,76.125,-135.75,-0.8935547,0.5449219,0.2827148,0.2080078,-0.265625,-0.1987305
5033,6.6875,65.6875,-128.8125,-1.021484,0.5683594,0.2905273,0.2211914,-0.2568359,-0.1928711
5037,28.125,53.375,-129.5,-1.041016,0.6845703,0.2944336,0.2270508,-0.2519531,-0.1889648
5041,34.375,40.5625,-138.75,-1.052734,0.8442383,0.2368164,0.2392578,-0.2431641,-0.1850586
5045,30.6875,27.8125,-141.6875,-1.017578,0.9335938,0.2094727,0.2475586,-0.2329102,-0.1796875
5049,31,22.3125,-129,-0.9750977,0.9643555,0.2402344,0.253418,-0.2270508,-0.1767578
5053,34.25,17.6875,-110.6875,-0.9248047,1.015137,0.2172852,0.2592773,-0.2182617,-0.175293
5057,37.1875,16.75,-90,-0.878418,1.061523,0.2558594,0.2666016,-0.2104492,-0.1713867
5061,37.5625,13.9375,-65.625,-0.8857422,1.104492,0.2597656,0.269043,-0.2080078,-0.1713867
5065,31.875,9.1875,-42.375,-0.8706055,1.146973,0.2368164,0.2700195,-0.2045898,-0.1674805
5069,15.0625,7.375,-21.5625,-0.796875,1.178223,0.1982422,0.2724609,-0.2016602,-0.1674805
5073,-7.3125,9.5,-4.625,-0.7543945,1.092773,0.2021484,0.2734375,-0.2006836,-0.1674805
5077,-19.3125,7.1875,10.75,-0.8125,0.8710938,0.2094727,0.2749023,-0.2016602,-0.1660156
5081,-13.9375,-0.5,21.75,-0.8237305,0.7041016,0.2060547,0.2749023,-0.2016602,-0.1660156
5085,-2.25,-6.875,23.1875,-0.7773438,0.6459961,0.1865234,0.2724609,-0.203125,-0.1630859
5089,7.3125,-9.9375,19.5625,-0.7578125,0.6655273,0.1557617,0.2724609,-0.2055664,-0.1660156
5093,13.8125,-13,15.9375,-0.7734375,0.7353516,0.1289063,0.2700195,-0.2055664,-0.1660156
5097,16.75,-17.75,18.9375,-0.78125,0.8364258,0.1020508,0.2700195,-0.2070313,-0.1660156
5101,18.125,-18.8125,32.5,-0.7890625,0.9023438,0.105957,0.2666016,-0.2094727,-0.168457
5105,20.25,-18.8125,49.4375,-0.765625,0.956543,0.09814453,0.2641602,-0.2128906,-0.1699219
5110,18.8125,-18.0625,64.5,-0.78125,1.030762,0.08642578,0.2626953,-0.2182617,-0.1699219
5114,16.0625,-18.625,80.4375,-0.8046875,1.073242,0.1098633,0.2592773,-0.2255859,-0.168457
5118,12.5625,-21.5,94.0625,-0.8588867,1.112305,0.1713867,0.2543945,-0.2329102,-0.168457
5122,11.625,-30.25,108.125,-0.9013672,1.112305,0.1826172,0.2485352,-0.2382813,-0.1713867
5126,11.5,-35.4375,122.1875,-0.8588867,1.174316,0.1943359,0.2412109,-0.2480469,-0.1738281
5130,5.4375,-37.0625,137.75,-0.8393555,1.213379,0.1328125,0.2368164,-0.2568359,-0.1738281
5134,-5.75,-34.8125,152.6875,-0.8237305,1.283203,0.1328125,0.2285156,-0.2670898,-0.1767578
5138,-20,-34.3125,166.9375,-0.8549805,1.244141,0.1479492,0.215332,-0.2753906,-0.1767578
5142,-25.5625,-38.125,174,-0.9052734,1.158691,0.1943359,0.203125,-0.2841797,-0.1835938
5146,-26.1875,-47.0625,175.625,-0.9130859,1.108398,0.1748047,0.1938477,-0.2905273,-0.1835938
5150,-22.5625,-49.375,173.625,-0.8354492,1.061523,0.159668,0.1782227,-0.3007813,-0.1904297
5154,-13.5,-45.375,174,-0.8432617,1.092773,0.140625,0.1630859,-0.3081055,-0.1928711
5158,-7.1875,-39.0625,183.8125,-0.8666992,1.236328,0.08251953,0.1523438,-0.3129883,-0.1943359
5162,-23.1875,-35.5625,200.8125,-0.8393555,1.388184,0.05957031,0.1367188,-0.3193359,-0.199707
5166,-45.3125,-35.5625,211.9375,-0.8237305,1.294922,0.140625,0.1166992,-0.3266602,-0.2011719
5170,-46.4375,-41.875,213.5625,-0.8164063,1.049805,0.2250977,0.1035156,-0.3305664,-0.206543
5174,-26.9375,-45.875,216.3125,-0.7387695,0.890625,0.3017578,0.08447266,-0.3344727,-0.2094727
5178,-12.3125,-47.8125,217.8125,-0.6376953,0.953125,0.2944336,0.06396484,-0.3369141,-0.2133789
5182,-14.9375,-52.25,216.4375,-0.5722656,0.9492188,0.2636719,0.05224609,-0.3369141,-0.2133789
5186,-14.75,-54.9375,211.25,-0.4443359,0.9335938,0.2788086,0.02978516,-0.3408203,-0.2163086
5190,-21.3125,-49.75,211.125,-0.3588867,1.061523,0.2866211,0.009277344,-0.3378906,-0.2163086
5194,-42,-43.8125,213.875,-0.246582,1.166504,0.2558594,-0.005859375,-0.3369141,-0.21875
5198,-59.0625,-35.25,219.9375,-0.246582,1.100586,0.2944336,-0.02587891,-0.3344727,-0.2231445
5202,-61.5625,-35.875,231.5625,-0.2543945,0.9799805,0.3134766,-0.04394531,-0.3266602,-0.2270508
5206,-59.75,-35.9375,234.5625,-0.1342773,0.8945313,0.3212891,-0.05810547,-0.3217773,-0.2285156
5210,-53.8125,-33.375,235.8125,-0.08789063,0.8442383,0.3134766,-0.078125,-0.3105469,-0.2299805
5214,-51.75,-31.3125,239.5,-0.02587891,0.8129883,0.3134766,-0.1010742,-0.2993164,-0.2368164
5218,-50.875,-33.9375,236.375,-0.06054688,0.7895508,0.3056641,-0.1103516,-0.2929688,-0.2368164
5222,-45,-43.4375,232.0625,-0.02197266,0.6772461,0.3212891,-0.1328125,-0.2807617,-0.2392578
5226,-35.625,-45,232.1875,0.1132813,0.6694336,0.2749023,-0.1484375,-0.2680664,-0.237793
5230,-32.0625,-41.25,234.6875,0.1674805,0.6845703,0.2558594,-0.1616211,-0.2583008,-0.2368164
5234,-34.875,-38.1875,238,0.2333984,0.6772461,0.2094727,-0.1782227,-0.2407227,-0.2421875
5239,-43.3125,-31.5,235.5625,0.2490234,0.6811523,0.1674805,-0.1962891,-0.2270508,-0.237793
5243,-58.0625,-29.5,231.3125,0.3227539,0.6186523,0.159668,-0.203125,-0.2158203,-0.237793
5247,-63.375,-27.625,219.4375,0.3032227,0.3857422,0.2094727,-0.2163086,-0.1943359,-0.237793
5251,-48.9375,-35.75,208.3125,0.3188477,0.203125,0.2441406,-0.2270508,-0.1757813,-0.237793
5255,-26.0625,-37.25,201.5625,0.4233398,0.1796875,0.2866211,-0.2319336,-0.1606445,-0.237793
5259,-11.875,-34.625,199.75,0.5048828,0.3466797,0.2597656,-0.2436523,-0.1455078,-0.2368164
5263,-22.5,-32.5,199.75,0.4931641,0.4243164,0.2060547,-0.2519531,-0.1279297,-0.2338867
5267,-34.875,-29.75,191.375,0.574707,0.3896484,0.1904297,-0.2568359,-0.1166992,-0.230957
