Packet number,Gyroscope X (deg/s),Gyroscope Y (deg/s),Gyroscope Z (deg/s),Accelerometer X (g),Accelerometer Y (g),Accelerometer Z (g),Magnetometer X (G),Magnetometer Y (G),Magnetometer Z (G)
0,-7.9375,3.0625,3.375,0.8613281,0.6303711,0.005859375,-0.1757813,-0.2456055,-0.05029297
4,-17.125,8.4375,0,0.8691406,0.6303711,-0.02832031,-0.1733398,-0.2441406,-0.05029297
9,-21.5625,8,-2.875,0.8300781,0.6420898,-0.05126953,-0.1733398,-0.2441406,-0.05273438
13,-29.5,7.4375,-9.375,0.8261719,0.6577148,-0.1015625,-0.1733398,-0.2441406,-0.05419922
17,-31.5625,4.4375,-10.875,0.8339844,0.6225586,-0.1166992,-0.1733398,-0.2441406,-0.05566406
21,-35.375,5.1875,-13.25,0.8300781,0.6616211,-0.1015625,-0.1723633,-0.2431641,-0.05712891
25,-38.125,5.3125,-16.0625,0.8339844,0.6884766,-0.1206055,-0.1699219,-0.2441406,-0.05859375
29,-42.6875,4.25,-14.625,0.7954102,0.6923828,-0.128418,-0.1699219,-0.2470703,-0.0625
33,-41.8125,-0.4375,-16.625,0.7373047,0.6538086,-0.1708984,-0.1699219,-0.2470703,-0.06542969
37,-36.3125,-6,-19.4375,0.7451172,0.6577148,-0.1435547,-0.1699219,-0.2470703,-0.06640625
41,-24.5,-3.9375,-28.5,0.7529297,0.7470703,-0.128418,-0.168457,-0.2480469,-0.06640625
45,-27.625,-5.5625,-32.5625,0.7294922,0.793457,-0.1206055,-0.1665039,-0.2495117,-0.06640625
49,-33.1875,-10.625,-35.1875,0.675293,0.8632813,-0.0859375,-0.1640625,-0.2519531,-0.06640625
53,-30,-16.5625,-37.6875,0.7373047,0.840332,-0.01660156,-0.1650391,-0.2519531,-0.06933594
57,-28.125,-9.5,-45.5,0.7836914,0.956543,0.03271484,-0.1625977,-0.2529297,-0.06787109
61,-26.4375,-5.625,-47.4375,0.7529297,1.045898,0.09033203,-0.1591797,-0.2543945,-0.06787109
65,-36.75,-6.4375,-55.5625,0.6791992,1.217285,0.08251953,-0.1591797,-0.2583008,-0.06933594
69,-53.5,-13.9375,-58.8125,0.6713867,1.251953,0.144043,-0.1557617,-0.2568359,-0.07080078
73,-56.75,-13.4375,-65.8125,0.7021484,1.20166,0.1518555,-0.1518555,-0.2607422,-0.06933594
77,-42.0625,-3.625,-73.375,0.7797852,1.193848,0.1748047,-0.1494141,-0.2617188,-0.06933594
81,-26,9.5,-86.4375,0.6982422,1.341309,0.1904297,-0.1459961,-0.2641602,-0.07177734
85,-27.8125,7.4375,-91.0625,0.6328125,1.485352,0.2402344,-0.1391602,-0.2680664,-0.07177734
89,-43.0625,3.3125,-98.25,0.625,1.625,0.2480469,-0.1342773,-0.2705078,-0.06933594
93,-56.875,0.875,-109.1875,0.6831055,1.671875,0.2558594,-0.1269531,-0.2729492,-0.06933594
97,-69.25,-0.8125,-127.8125,0.7294922,1.671875,0.2250977,-0.1176758,-0.2783203,-0.06787109
101,-75.5625,-1.875,-140.6875,0.8149414,1.52002,0.2172852,-0.1137695,-0.2832031,-0.07080078
105,-67.625,2.125,-147.4375,0.8881836,1.411133,0.2402344,-0.09960938,-0.2905273,-0.07080078
109,-59.8125,8.625,-155.5,0.9233398,1.430664,0.2597656,-0.08886719,-0.2954102,-0.07324219
113,-64.375,12.3125,-159.5625,0.8959961,1.442383,0.2519531,-0.08056641,-0.3017578,-0.07470703
117,-70.9375,12.5,-162,0.9155273,1.337402,0.2558594,-0.06738281,-0.3056641,-0.07861328
121,-70.5,16.1875,-164.1875,0.9970703,1.310547,0.2597656,-0.05224609,-0.3154297,-0.08154297
125,-65.125,23.75,-172.4375,1.004395,1.248047,0.2709961,-0.04248047,-0.3178711,-0.08691406
129,-60.875,29.6875,-171.6875,0.9697266,1.186035,0.2519531,-0.02832031,-0.3232422,-0.09228516
133,-56.5625,28.5625,-170.125,0.8881836,1.146973,0.2636719,-0.01416016,-0.3256836,-0.1005859
138,-56.9375,25.4375,-164.625,0.8652344,1.209473,0.2675781,-0.001953125,-0.328125,-0.1044922
142,-63.8125,25.0625,-163.25,0.8920898,1.244141,0.2944336,0.01074219,-0.3266602,-0.1142578
146,-68.1875,29.75,-167.25,0.8803711,1.197754,0.3173828,0.0234375,-0.3256836,-0.1196289
150,-59,36.6875,-165.8125,0.8149414,1.088867,0.3212891,0.03417969,-0.3242188,-0.1235352
154,-43.0625,40.875,-162.8125,0.7680664,1.045898,0.3251953,0.04638672,-0.3193359,-0.1318359
158,-34.5,41.875,-158.875,0.7294922,1.124023,0.3364258,0.06054688,-0.3154297,-0.1318359
162,-37.9375,39.875,-155.625,0.7060547,1.158691,0.3291016,0.07128906,-0.3105469,-0.1333008
166,-43.5,37.0625,-156.5625,0.6054688,1.232422,0.3134766,0.08056641,-0.3066406,-0.1333008
170,-60.5625,32.1875,-155.8125,0.59375,1.240234,0.2944336,0.09521484,-0.3017578,-0.1333008
174,-77.9375,25.1875,-153.1875,0.574707,1.104492,0.2749023,0.1010742,-0.2983398,-0.1318359
178,-83.3125,27.9375,-150.5625,0.6054688,0.9838867,0.2827148,0.1142578,-0.2954102,-0.1318359
182,-76.1875,33.75,-153.25,0.5161133,0.8051758,0.2094727,0.128418,-0.2919922,-0.1357422
186,-70.0625,35.625,-149.9375,0.5009766,0.7626953,0.2094727,0.1357422,-0.2895508,-0.137207
190,-62.375,38.625,-149.75,0.3886719,0.6811523,0.1748047,0.1484375,-0.2866211,-0.1416016
194,-58.8125,36.5,-143.5,0.3339844,0.6694336,0.2021484,0.1630859,-0.2841797,-0.144043
198,-63.1875,35.5,-135.5,0.2915039,0.6655273,0.2290039,0.1699219,-0.2792969,-0.1469727
202,-67.75,32.25,-131.125,0.2138672,0.6069336,0.2133789,0.1806641,-0.2768555,-0.1508789
206,-68,34.1875,-126.5625,0.2026367,0.4086914,0.1748047,0.1914063,-0.2719727,-0.1577148
210,-55.0625,37.125,-121.625,0.159668,0.2265625,0.140625,0.199707,-0.2695313,-0.1616211
214,-48.0625,36.375,-113.25,0.06298828,0.2109375,0.06738281,0.2094727,-0.2631836,-0.1645508
218,-51.75,28.125,-103.5625,-0.05664063,0.1333008,0.02490234,0.2163086,-0.2558594,-0.1699219
222,-56.0625,15.75,-93.125,-0.1069336,-0.01025391,-0.009277344,0.2246094,-0.2519531,-0.1728516
226,-51.9375,8.5,-82.375,0.02832031,-0.1967773,0.02490234,0.2319336,-0.2441406,-0.1796875
230,-34.6875,10,-65.9375,0.05908203,-0.5385742,0.105957,0.2329102,-0.2407227,-0.1821289
234,-10.5625,14.3125,-62.375,-0.08789063,-0.6318359,0.1674805,0.2368164,-0.2358398,-0.1850586
238,0.8125,8.375,-44.6875,0.1015625,-0.46875,0.3291016,0.2412109,-0.234375,-0.1865234
242,-10.125,14.5625,-23.6875,0.140625,-0.402832,0.4907227,0.2436523,-0.2304688,-0.1865234
246,-22,27.25,0.6875,0.07080078,-0.4414063,0.4365234,0.2451172,-0.2294922,-0.1875
250,-17.6875,34,17.6875,-0.07226563,-0.3676758,0.2983398,0.2451172,-0.2304688,-0.1850586
254,-18.5625,36.625,25.5,-0.2929688,-0.1035156,0.1479492,0.2475586,-0.2304688,-0.1865234
258,-31.5625,19.25,35.0625,-0.4287109,0.04003906,0.09814453,0.2475586,-0.234375,-0.1821289
262,-41,2.5625,45.0625,-0.3745117,-0.002441406,0.07519531,0.2485352,-0.234375,-0.1821289
267,-31.75,-2.625,55.625,-0.3125,-0.1074219,0.07519531,0.2451172,-0.2382813,-0.1835938
271,-8.875,-0.375,68.375,-0.2426758,-0.09960938,0.09423828,0.2426758,-0.2392578,-0.1806641
275,17.25,3.9375,74.9375,-0.2890625,-0.01025391,0.04443359,0.2402344,-0.2441406,-0.1821289
279,43.125,6.5625,75.9375,-0.3085938,0.2338867,0.08642578,0.2353516,-0.2519531,-0.1767578
283,44.125,3.1875,72.0625,-0.2543945,0.7626953,0.1557617,0.234375,-0.2583008,-0.1713867
287,25.8125,-9.4375,78.3125,-0.4052734,0.6694336,0.1479492,0.2285156,-0.2631836,-0.1660156
291,10.9375,-20.5,79.5,-0.2543945,0.5566406,0.1674805,0.2236328,-0.2695313,-0.1616211
295,13.5,-20.5625,80.5,-0.215332,0.4052734,0.1674805,0.21875,-0.2719727,-0.1591797
299,21.9375,-22.25,86.125,-0.1225586,0.3818359,0.1904297,0.2104492,-0.2783203,-0.15625
303,29.8125,-20.875,91.5625,-0.1499023,0.4399414,0.1826172,0.203125,-0.2832031,-0.1508789
307,28.6875,-24.5625,92.4375,-0.1499023,0.5566406,0.159668,0.1987305,-0.2856445,-0.1484375
311,24.625,-34.75,98.375,-0.1225586,0.5952148,0.2250977,0.1889648,-0.2856445,-0.144043
315,17.5625,-42.125,103.1875,-0.02587891,0.5952148,0.3017578,0.1796875,-0.2866211,-0.1425781
319,20.25,-43,107.8125,0.05517578,0.6342773,0.3867188,0.1738281,-0.2919922,-0.1401367
323,26,-33.9375,107.5,0.125,0.5878906,0.3134766,0.1606445,-0.2895508,-0.1357422
327,33.4375,-34.875,108.3125,0.05517578,0.6381836,0.2211914,0.1508789,-0.2905273,-0.137207
331,32.125,-39.375,114.9375,0.1015625,0.6225586,0.1748047,0.1425781,-0.2919922,-0.1347656
335,35.4375,-48.125,121.5,0.125,0.6655273,0.2172852,0.1342773,-0.2895508,-0.1347656
339,39.3125,-48.8125,125.5625,0.2529297,0.7626953,0.375,0.1201172,-0.2895508,-0.1357422
343,36.875,-48.4375,129.9375,0.2529297,0.890625,0.4633789,0.1103516,-0.2880859,-0.1357422
347,34.5625,-45.5625,127.4375,0.3227539,0.956543,0.4790039,0.1010742,-0.2895508,-0.1401367
351,23,-39.6875,122.1875,0.3305664,0.8984375,0.3828125,0.09130859,-0.2905273,-0.1425781
355,36.25,-46.125,120.9375,0.3266602,0.7236328,0.2866211,0.08544922,-0.2929688,-0.1469727
359,46.1875,-44.4375,127.25,0.5048828,0.7548828,0.3671875,0.07373047,-0.2954102,-0.1484375
363,48.3125,-45.75,129.5625,0.5161133,0.9257813,0.4711914,0.06396484,-0.3007813,-0.1494141
367,38.6875,-42.1875,139,0.578125,0.953125,0.5136719,0.05810547,-0.3041992,-0.1494141
371,44.5625,-36.625,137.75,0.5668945,0.9140625,0.4404297,0.04638672,-0.3120117,-0.1508789
375,53.625,-31.75,136.25,0.5473633,0.8364258,0.2709961,0.03173828,-0.3178711,-0.1484375
379,62.5625,-36.5,131.375,0.6518555,0.921875,0.2675781,0.0234375,-0.3208008,-0.1425781
383,45.5625,-45.8125,136.9375,0.7529297,0.9643555,0.3330078,0.01416016,-0.3291016,-0.1357422
387,48.3125,-39.9375,160.625,0.8378906,0.7158203,0.390625,-0.0009765625,-0.3320313,-0.1279297
391,77.875,-31.6875,149.25,0.7529297,0.9414063,0.3291016,-0.01025391,-0.3320313,-0.1210938
396,78.5625,-25.875,145.5625,0.8183594,1.092773,0.2749023,-0.02490234,-0.3305664,-0.105957
400,78.5,-26.375,138.25,0.8496094,1.049805,0.1982422,-0.03759766,-0.3266602,-0.09765625
404,56.25,-30.0625,143.75,0.8730469,1.182129,0.2021484,-0.04736328,-0.3242188,-0.08984375
408,40.25,-37.3125,152.9375,0.8613281,0.972168,0.1943359,-0.06054688,-0.3168945,-0.08544922
412,47.3125,-40.1875,156,0.8149414,1.01123,0.1713867,-0.07324219,-0.3081055,-0.08300781
416,62.5,-40.5,151.1875,0.8999023,0.9760742,0.1518555,-0.08300781,-0.3007813,-0.07861328
420,75.8125,-35.3125,149.125,1.0625,1.073242,0.1904297,-0.09619141,-0.2905273,-0.08007813
424,81.125,-27.9375,144.4375,1.217773,1.131836,0.2636719,-0.1054688,-0.2832031,-0.07861328
428,79.1875,-15.1875,152.125,1.008301,1.193848,0.2021484,-0.1137695,-0.2783203,-0.08007813
432,78.4375,-18.6875,142.5,0.9272461,1.368652,0.1635742,-0.1235352,-0.2729492,-0.08300781
436,69.625,-19.25,136.5,0.8842773,1.32959,0.1518555,-0.1328125,-0.2670898,-0.08300781
440,77.1875,-17.9375,126.8125,0.9736328,1.162598,0.144043,-0.1367188,-0.2670898,-0.08447266
444,88.6875,-9.5,119.375,1.05127,1.007324,0.1635742,-0.1459961,-0.2631836,-0.08447266
448,89.75,7.5,122,0.9462891,1.251953,0.1635742,-0.1518555,-0.2617188,-0.08300781
452,73,0.75,111.5,0.7216797,1.302734,0.05957031,-0.1582031,-0.2607422,-0.08007813
456,56.375,-13.0625,108.8125,0.7451172,1.213379,0.02490234,-0.1625977,-0.2583008,-0.08007813
460,60.5,-17.5,101,0.9038086,1.053711,0.03662109,-0.168457,-0.2583008,-0.07470703
464,72.75,-10.8125,97.875,1.039551,0.9414063,0.1171875,-0.1748047,-0.2583008,-0.07470703
468,76.9375,9.625,98,0.9155273,1.298828,0.1289063,-0.1791992,-0.2558594,-0.06933594
472,62.125,10.25,81.875,0.6831055,1.438477,0.07910156,-0.1865234,-0.2519531,-0.06542969
476,-40.4375,-35.5,70.125,-0.2001953,3.439453,0.409668,-0.1899414,-0.2529297,-0.06640625
480,-213.125,-113.9375,25.6875,-0.08398438,3.575684,0.1289063,-0.1923828,-0.2495117,-0.06787109
484,-212.9375,-97.3125,-18.4375,0.9619141,0.9296875,-0.3398438,-0.1962891,-0.2431641,-0.07470703
488,-95.625,-54.25,-1.75,1.097656,-0.4492188,-0.1245117,-0.1982422,-0.2407227,-0.07861328
492,11.75,-29.625,22.8125,1.225586,-0.02197266,0.1787109,-0.1982422,-0.2392578,-0.07861328
496,62.25,13.875,14.3125,1.229492,0.5800781,0.3330078,-0.2006836,-0.2392578,-0.07763672
500,71.875,41.75,-26.75,0.9541016,0.8325195,0.1210938,-0.1982422,-0.2392578,-0.07470703
504,81.5,54.125,-33.25,0.7529297,0.9916992,0.01367188,-0.1982422,-0.2416992,-0.07324219
508,36.75,29.5625,-39.0625,0.4389648,1.341309,-0.04003906,-0.1962891,-0.2456055,-0.07080078
512,-24.5625,-11.5,-41.6875,0.4389648,1.477539,-0.02441406,-0.1923828,-0.2456055,-0.07177734
516,-80.6875,-36.75,-43.75,0.6518555,1.310547,0.06347656,-0.1899414,-0.2470703,-0.07177734
520,-100.9375,-39.875,-53.9375,0.8300781,1.112305,0.1367188,-0.1889648,-0.2456055,-0.07617188
525,-99.6875,-29.875,-63,1.016113,0.890625,0.1674805,-0.1865234,-0.2456055,-0.07763672
529,-80.375,-13.25,-68.9375,1.055176,0.8481445,0.1713867,-0.184082,-0.2470703,-0.08007813
533,-60.5,1.9375,-75,1.02002,0.921875,0.1635742,-0.1772461,-0.2495117,-0.08300781
537,-44.8125,13.375,-81.8125,0.9077148,1.053711,0.1518555,-0.1772461,-0.2495117,-0.08447266
541,-42.9375,15,-87.9375,0.8378906,1.236328,0.1674805,-0.1699219,-0.2519531,-0.08300781
545,-52.625,11.4375,-94.5,0.7719727,1.388184,0.2060547,-0.1625977,-0.2529297,-0.08544922
549,-69.0625,6.75,-101.25,0.7875977,1.454102,0.2094727,-0.1591797,-0.2583008,-0.08447266
553,-76.9375,4.1875,-112.375,0.8339844,1.368652,0.2172852,-0.1533203,-0.2592773,-0.08544922
557,-72.5,9.4375,-120.1875,0.9580078,1.283203,0.3017578,-0.1450195,-0.2641602,-0.08691406
561,-68.625,18.875,-127.4375,1.004395,1.325684,0.3520508,-0.1391602,-0.2680664,-0.08544922
565,-69.625,27.6875,-136.125,1.066406,1.376465,0.4057617,-0.1269531,-0.2729492,-0.08837891
569,-79.375,35.625,-138.8125,1.070313,1.442383,0.3867188,-0.1152344,-0.2792969,-0.08544922
573,-95.125,35.5,-143.75,1.047363,1.504395,0.3520508,-0.1103516,-0.2832031,-0.08984375
577,-110.9375,35.375,-147.5,1.078125,1.39209,0.2983398,-0.09716797,-0.2905273,-0.09521484
581,-106.875,41.625,-151.8125,1.155762,1.150879,0.2788086,-0.08300781,-0.2993164,-0.1005859
585,-89.625,56,-155.875,1.256348,1.06543,0.3671875,-0.07568359,-0.3032227,-0.105957
589,-78.8125,71.5625,-153.9375,1.248535,1.100586,0.4018555,-0.06152344,-0.3095703,-0.1157227
593,-75.875,84.5625,-154.0625,1.182617,1.255859,0.355957,-0.04736328,-0.3129883,-0.125
597,-83.125,88.6875,-157.75,1.016113,1.341309,0.2060547,-0.03662109,-0.3168945,-0.1303711
601,-92.25,82.375,-161.125,0.8842773,1.259766,0.04785156,-0.02246094,-0.3154297,-0.1425781
605,-83.375,73.9375,-164.75,0.7993164,1.104492,-0.03222656,-0.006835938,-0.3144531,-0.1538086
609,-66.75,69.8125,-172.3125,0.8300781,1.09668,0.04443359,0.003417969,-0.3105469,-0.1591797
613,-57.5,67.5625,-176.75,0.7836914,1.007324,0.105957,0.02148438,-0.3056641,-0.1645508
617,-52.8125,64.25,-171.4375,0.7954102,0.972168,0.1865234,0.03662109,-0.3007813,-0.1674805
621,-44.5625,61.4375,-170.625,0.7138672,0.9101563,0.2250977,0.04736328,-0.296875,-0.1674805
625,-37.75,62.625,-169.1875,0.7060547,0.9414063,0.2636719,0.05957031,-0.2919922,-0.168457
629,-40.75,60.375,-171.1875,0.6479492,0.987793,0.3134766,0.07373047,-0.2895508,-0.1674805
633,-55.1875,55.75,-169.4375,0.6401367,0.9760742,0.3212891,0.08447266,-0.2880859,-0.1660156
637,-69,51.5,-166.625,0.5668945,0.8286133,0.2788086,0.09960938,-0.2841797,-0.1674805
641,-71.4375,48.8125,-162.1875,0.543457,0.6420898,0.2519531,0.1142578,-0.2817383,-0.168457
645,-58.9375,47.5,-155.5625,0.4814453,0.5175781,0.2597656,0.1225586,-0.2817383,-0.1713867
649,-52.4375,49.25,-150.5,0.4619141,0.5292969,0.2944336,0.1357422,-0.2744141,-0.175293
654,-51.6875,50.25,-144.25,0.4155273,0.4711914,0.3212891,0.1499023,-0.2719727,-0.1782227
658,-59.4375,49.6875,-136.1875,0.2836914,0.4633789,0.2905273,0.1582031,-0.2705078,-0.1821289
662,-68.9375,42,-126.1875,0.1674805,0.3740234,0.2172852,0.1699219,-0.2641602,-0.1875
666,-72.5,31.9375,-120.375,0.1713867,0.315918,0.2250977,0.1806641,-0.2583008,-0.1928711
670,-72.3125,30.3125,-115.5,0.1674805,0.1835938,0.2290039,0.1879883,-0.2529297,-0.1958008
674,-71.625,26,-105.5,0.1557617,0.105957,0.2827148,0.1948242,-0.2456055,-0.2026367
678,-74.0625,27.3125,-92.3125,0.1367188,0.1098633,0.3134766,0.203125,-0.2358398,-0.2109375
682,-85.1875,27.75,-79.875,-0.04492188,0.171875,0.2250977,0.2055664,-0.2304688,-0.2148438
686,-96.9375,17,-71.9375,-0.1884766,0.1098633,0.1098633,0.2128906,-0.2216797,-0.2202148
690,-96.75,3.875,-63.375,-0.296875,-0.04882813,0.07128906,0.2163086,-0.2104492,-0.2255859
694,-81.375,-7.75,-55.6875,-0.246582,-0.2084961,0.1635742,0.21875,-0.2055664,-0.2299805
698,-54.9375,-3.8125,-50,-0.04101563,-0.2900391,0.3364258,0.21875,-0.1958008,-0.237793
702,-32.25,12.1875,-36.9375,0.004882813,-0.3017578,0.4326172,0.2211914,-0.1904297,-0.2421875
706,-20.1875,24.375,-22.5,-0.1264648,-0.2163086,0.4018555,0.222168,-0.1879883,-0.2407227
710,-10.3125,23.375,-12.5,-0.2583008,-0.1772461,0.3212891,0.2270508,-0.1855469,-0.2407227
714,-1.875,18.5625,-4.625,-0.3320313,-0.1381836,0.2827148,0.2270508,-0.1870117,-0.2407227
718,7.375,13.5,2.0625,-0.3125,-0.1152344,0.3173828,0.2285156,-0.1845703,-0.2407227
722,11.4375,11.1875,9.375,-0.296875,-0.05273438,0.3251953,0.230957,-0.1879883,-0.2392578
726,14.25,8.75,17.5625,-0.3125,-0.02197266,0.3330078,0.2294922,-0.1870117,-0.2368164
730,14.375,6.5,22.375,-0.3393555,0.02441406,0.3017578,0.230957,-0.1904297,-0.2368164
734,14.75,0.25,27.875,-0.3745117,0.02050781,0.2597656,0.2294922,-0.1918945,-0.2338867
738,19,-6.8125,35.1875,-0.3242188,0.02832031,0.2827148,0.2270508,-0.1943359,-0.2324219
742,27.625,-7.6875,39,-0.3164063,0.03222656,0.2983398,0.2260742,-0.1982422,-0.230957
746,33.6875,-9.375,42.6875,-0.2734375,0.1098633,0.3173828,0.2260742,-0.203125,-0.2299805
750,35,-10.75,46.375,-0.2851563,0.1445313,0.3056641,0.2211914,-0.2094727,-0.2255859
754,31.75,-16.375,52.0625,-0.2734375,0.1484375,0.2944336,0.2202148,-0.2119141,-0.2246094
758,32.4375,-24.1875,61.3125,-0.2661133,0.09423828,0.2905273,0.2177734,-0.2182617,-0.2216797
762,38.5,-28.5,69.8125,-0.1264648,0.1367188,0.355957,0.2119141,-0.2216797,-0.2177734
766,46.6875,-25.3125,73.5,-0.1342773,0.1796875,0.390625,0.2070313,-0.2255859,-0.2177734
770,51.8125,-28.5625,79.3125,-0.1147461,0.2729492,0.425293,0.2021484,-0.2329102,-0.2119141
774,45.3125,-30.0625,82.6875,-0.06054688,0.3857422,0.4672852,0.1948242,-0.2392578,-0.2080078
778,39.3125,-34.375,88.75,-0.06054688,0.3857422,0.4829102,0.1914063,-0.2431641,-0.2041016
783,34.8125,-38.5,96.8125,-0.04492188,0.3662109,0.4980469,0.1855469,-0.2504883,-0.2041016
787,44.375,-40.5625,102.9375,0.08251953,0.2963867,0.5791016,0.1757813,-0.2543945,-0.1958008
791,60.6875,-30.0625,106.3125,0.2412109,0.3935547,0.6943359,0.1689453,-0.2583008,-0.1958008
795,62.875,-12.4375,109,0.3417969,0.5332031,0.6713867,0.1606445,-0.2641602,-0.1889648
799,62.6875,1.9375,113.5625,0.2451172,0.5019531,0.5136719,0.1523438,-0.2695313,-0.1806641
803,69.375,3.1875,116.75,0.1328125,0.5644531,0.3442383,0.1484375,-0.2719727,-0.175293
807,71.5,-1.4375,122.875,0.159668,0.6108398,0.2636719,0.1376953,-0.2783203,-0.1674805
811,78.4375,-6,128.5625,0.1367188,0.6577148,0.2211914,0.128418,-0.2792969,-0.1616211
815,79.75,-12.1875,130.3125,0.2138672,0.8168945,0.2368164,0.1225586,-0.2792969,-0.1577148
819,66.9375,-18,132.1875,0.2373047,0.9375,0.2519531,0.112793,-0.2832031,-0.1538086
823,44.5,-28.4375,138,0.3149414,0.9023438,0.2480469,0.1010742,-0.2866211,-0.1508789
827,48.8125,-33.1875,141.4375,0.3110352,0.8325195,0.2441406,0.09619141,-0.2866211,-0.1494141
831,51.9375,-36,138.0625,0.4077148,0.956543,0.2944336,0.08203125,-0.2880859,-0.1508789
835,55.125,-31.5,135.6875,0.4658203,0.8481445,0.2749023,0.07373047,-0.2919922,-0.1523438
839,63.4375,-30.3125,135.625,0.5087891,0.8671875,0.2636719,0.06542969,-0.296875,-0.1523438
843,59.875,-30.0625,143.0625,0.5512695,0.956543,0.2519531,0.0546875,-0.3007813,-0.1523438
847,59.625,-32.5625,149.8125,0.578125,0.9492188,0.2441406,0.04394531,-0.3095703,-0.1508789
851,75.9375,-30.0625,149.3125,0.574707,1.034668,0.2558594,0.03662109,-0.3154297,-0.1484375
855,81.6875,-27.125,140.125,0.625,1.131836,0.2905273,0.02246094,-0.3266602,-0.1386719
859,78.9375,-26.4375,137.25,0.6557617,1.174316,0.3173828,0.009277344,-0.3330078,-0.1289063
863,79.1875,-24.125,145,0.625,1.053711,0.2983398,0.002441406,-0.3378906,-0.1210938
867,91.625,-26.125,139.9375,0.6479492,1.193848,0.355957,-0.01025391,-0.3417969,-0.105957
871,85.625,-26.625,141.375,0.6948242,1.345215,0.4711914,-0.02490234,-0.3408203,-0.09228516
875,63.875,-33.125,146.9375,0.7138672,1.442383,0.5791016,-0.03173828,-0.3378906,-0.08154297
879,27.875,-42.0625,147.75,0.8071289,1.562988,0.590332,-0.04736328,-0.3320313,-0.07080078
883,-13.9375,-42.6875,143.75,0.8574219,1.493164,0.409668,-0.05908203,-0.3232422,-0.06542969
887,-20.375,-40.5,131.6875,0.7568359,1.01123,0.2788086,-0.06640625,-0.3178711,-0.06542969
891,22.0625,-35.75,128.4375,0.7412109,0.7973633,0.140625,-0.08056641,-0.3066406,-0.06396484
895,52.875,-30.0625,120.9375,0.7915039,0.9179688,0.1518555,-0.09033203,-0.296875,-0.0625
899,58.9375,-28.875,118.5,0.8183594,0.972168,0.1674805,-0.09619141,-0.2919922,-0.05957031
903,58.125,-27.4375,115.625,0.9501953,0.9643555,0.2480469,-0.1079102,-0.2832031,-0.05859375
907,55.1875,-15.8125,113.6875,1.027832,0.9838867,0.2709961,-0.1176758,-0.2744141,-0.05957031
912,42.875,-3.4375,112.5,0.9194336,1.045898,0.1518555,-0.1220703,-0.2680664,-0.05957031
916,40.75,-5.5,100,0.8032227,0.921875,0.02099609,-0.1318359,-0.2592773,-0.0625
920,40,-13.1875,96.375,0.8378906,0.8208008,-0.05908203,-0.1376953,-0.2529297,-0.06787109
924,50.375,-19.6875,95.3125,0.9077148,0.5878906,-0.07080078,-0.1401367,-0.2504883,-0.07177734
928,78.375,-13.75,104.9375,1.05127,0.4946289,-0.04003906,-0.1459961,-0.2480469,-0.07617188
932,108.5,1.5,106.3125,1.05127,0.7509766,0.005859375,-0.1518555,-0.2441406,-0.07324219
936,116.25,11.25,102.25,0.8691406,1.100586,-0.03613281,-0.1567383,-0.2456055,-0.07617188
940,101.1875,3.6875,92.9375,0.7641602,1.321777,0.01367188,-0.1601563,-0.2470703,-0.07617188
944,79.0625,-4.4375,80.875,0.7641602,1.36084,0.05566406,-0.1650391,-0.2495117,-0.07324219
948,71.8125,-5,69.1875,0.8496094,1.088867,0.1132813,-0.1650391,-0.2480469,-0.07324219
952,86.5,4.9375,63.4375,0.9541016,0.956543,0.1171875,-0.1699219,-0.2495117,-0.07080078
956,105.25,21.4375,57.125,0.9233398,0.987793,0.09814453,-0.1723633,-0.2495117,-0.06640625
960,115.0625,34,50.375,0.8378906,1.150879,0.04443359,-0.1733398,-0.2504883,-0.06542969
964,105.9375,35.4375,40.875,0.6831055,1.317871,0.001953125,-0.1733398,-0.2543945,-0.05859375
968,85.25,25.4375,29.375,0.574707,1.376465,-0.01318359,-0.1748047,-0.2543945,-0.05419922
972,60.4375,11.1875,16.9375,0.609375,1.317871,0.03271484,-0.1757813,-0.2529297,-0.05273438
976,40.875,6.3125,10.4375,0.7060547,1.182129,0.07128906,-0.1772461,-0.2543945,-0.04736328
980,28.375,6.75,4.0625,0.7568359,1.069336,0.1020508,-0.1772461,-0.2558594,-0.04638672
984,7.5625,8.5,2.0625,0.6132813,1.244141,0.02490234,-0.1757813,-0.2558594,-0.04345703
988,-23.75,-6.875,-6.4375,0.5048828,1.193848,-0.001464844,-0.1772461,-0.2558594,-0.04638672
992,-48.1875,-23.6875,-11.625,0.6015625,1.09668,0.01708984,-0.1772461,-0.2543945,-0.04638672
996,-68.9375,-32.5,-16.625,0.7641602,1.007324,0.04052734,-0.1782227,-0.2568359,-0.05029297
1000,-74.6875,-27.75,-24.375,0.8959961,0.8520508,0.09423828,-0.1772461,-0.2529297,-0.05175781
1004,-66.625,-14.1875,-28.4375,0.9233398,0.8168945,0.03662109,-0.1772461,-0.2543945,-0.05419922
1008,-57.5,-7,-37.625,0.8378906,0.875,0.02099609,-0.1748047,-0.2519531,-0.05957031
1012,-62.75,-6.9375,-37.9375,0.7719727,1.06543,-0.04394531,-0.1733398,-0.2529297,-0.05859375
1016,-74.75,-14.375,-44.0625,0.6831055,1.158691,-0.06689453,-0.1708984,-0.2519531,-0.06396484
1020,-84.9375,-23.75,-50.125,0.6791992,1.221191,-0.07861328,-0.1723633,-0.2529297,-0.06542969
1024,-91.875,-29.6875,-58.9375,0.7177734,1.228516,-0.03613281,-0.168457,-0.2495117,-0.06933594
1028,-93.375,-29.875,-66.125,0.8110352,1.236328,0.03271484,-0.1674805,-0.2504883,-0.06933594
1032,-86.9375,-22.1875,-76.5,0.8730469,1.189941,0.105957,-0.1650391,-0.2504883,-0.07080078
1036,-69.5,-9.25,-89.6875,0.9155273,1.17041,0.1289063,-0.1601563,-0.2480469,-0.07177734
1041,-52.625,0.3125,-100,0.8730469,1.232422,0.159668,-0.1582031,-0.2495117,-0.06933594
1045,-42.5625,5.5625,-112.8125,0.8803711,1.317871,0.1674805,-0.1533203,-0.2519531,-0.06933594
1049,-41.9375,7.1875,-123.0625,0.8730469,1.411133,0.1826172,-0.1459961,-0.2568359,-0.06542969
1053,-47.75,4.0625,-128.5,0.8959961,1.422852,0.2368164,-0.1376953,-0.2592773,-0.05957031
1057,-53.125,4.625,-134.4375,0.9775391,1.458008,0.2905273,-0.1328125,-0.2641602,-0.05712891
1061,-65.8125,9.9375,-143.5625,1.055176,1.500488,0.3330078,-0.1235352,-0.2719727,-0.05175781
1065,-78,15.4375,-151,1.074219,1.388184,0.2827148,-0.1113281,-0.2832031,-0.04736328
1069,-75.5,21.875,-156.3125,1.121094,1.228516,0.2519531,-0.1030273,-0.2880859,-0.04736328
1073,-60.875,31.875,-160.8125,1.140137,1.154785,0.2636719,-0.09228516,-0.3017578,-0.04882813
1077,-49.3125,40.125,-164.5,1.070313,1.182129,0.2402344,-0.078125,-0.3154297,-0.05175781
1081,-48.1875,41.625,-167.375,1.043457,1.275391,0.2368164,-0.06982422,-0.3242188,-0.05419922
1085,-56.375,40.5625,-169.6875,0.9970703,1.271484,0.2094727,-0.05322266,-0.3344727,-0.0625
1089,-64.8125,37.8125,-170.1875,1.023926,1.228516,0.2250977,-0.0390625,-0.3417969,-0.07763672
1093,-67.6875,41.25,-171.1875,1.016113,1.116211,0.2329102,-0.02832031,-0.3442383,-0.08691406
1097,-61.9375,44.5,-170.8125,0.9775391,1.026855,0.2368164,-0.01171875,-0.3432617,-0.09912109
1101,-50.625,51.25,-170.625,0.9775391,0.9296875,0.2597656,0.005859375,-0.3417969,-0.1142578
1105,-29.125,63.75,-171.1875,0.8920898,0.8598633,0.2250977,0.01660156,-0.3369141,-0.1181641
1109,-9.875,66.625,-171.6875,0.7138672,0.9375,0.1826172,0.03076172,-0.3266602,-0.1225586
1113,-9.9375,61.5,-174.375,0.659668,1.088867,0.1865234,0.04638672,-0.3178711,-0.1210938
1117,-25.9375,53.5625,-171.25,0.559082,1.154785,0.1904297,0.05712891,-0.3120117,-0.1157227
1121,-47.3125,40.25,-168.6875,0.5126953,1.112305,0.1674805,0.06982422,-0.3066406,-0.112793
1125,-61.8125,31.1875,-166.0625,0.5239258,0.9643555,0.1479492,0.08300781,-0.3017578,-0.1074219
1129,-61.75,30.625,-167.875,0.5859375,0.7973633,0.1557617,0.09130859,-0.3007813,-0.1074219
1133,-55.4375,33.5,-166,0.5161133,0.6655273,0.1328125,0.1020508,-0.3007813,-0.1044922
1137,-51.375,30.8125,-157.8125,0.4272461,0.5566406,0.1328125,0.1186523,-0.2993164,-0.1035156
1141,-38.75,29.5625,-149.6875,0.3730469,0.4399414,0.1328125,0.1269531,-0.3007813,-0.1035156
1145,-25.8125,29.5,-139.375,0.2993164,0.4711914,0.1557617,0.1401367,-0.3017578,-0.1044922
1149,-25.0625,26.875,-130.5,0.2255859,0.5449219,0.1865234,0.1523438,-0.3032227,-0.105957
1153,-33.1875,24.1875,-124,0.1674805,0.5566406,0.1943359,0.1606445,-0.3032227,-0.1098633
1157,-38.5625,21.25,-120.125,0.09375,0.4829102,0.1748047,0.1723633,-0.3032227,-0.1113281
1161,-36.8125,17.375,-116.375,0.05126953,0.3544922,0.144043,0.1831055,-0.2993164,-0.1181641
1165,-30.4375,15.625,-107.375,0.02441406,0.2573242,0.1518555,0.1904297,-0.2993164,-0.1225586
1170,-25.5,13.25,-95.625,-0.01806641,0.2807617,0.1865234,0.199707,-0.2954102,-0.1279297
1174,-31.9375,9.375,-86.375,-0.06054688,0.3310547,0.1826172,0.2070313,-0.2919922,-0.1333008
1178,-40.125,4.9375,-80.875,-0.1342773,0.3041992,0.1865234,0.2119141,-0.2866211,-0.1357422
1182,-45.1875,1,-72.1875,-0.1572266,0.1914063,0.1943359,0.2163086,-0.2832031,-0.144043
1186,-38.3125,-1.9375,-65.75,-0.2001953,0.1020508,0.1982422,0.2236328,-0.2783203,-0.1494141
1190,-25.875,-0.9375,-61,-0.1689453,0.08642578,0.2329102,0.2260742,-0.2744141,-0.1547852
1194,-15.6875,1.4375,-52.9375,-0.1806641,0.07861328,0.2788086,0.2285156,-0.2705078,-0.1577148
1198,-13.4375,4.0625,-41.875,-0.230957,0.1254883,0.3017578,0.2319336,-0.2670898,-0.1606445
1202,-13.25,2.875,-31.625,-0.2890625,0.140625,0.2944336,0.234375,-0.2631836,-0.1645508
1206,-11.6875,0.0625,-25.25,-0.3203125,0.1445313,0.2866211,0.237793,-0.2617188,-0.1660156
1210,-8.1875,-1.5,-19.4375,-0.328125,0.1484375,0.3134766,0.2368164,-0.2592773,-0.1674805
1214,-2.625,-3.5,-14,-0.3046875,0.1254883,0.355957,0.237793,-0.2607422,-0.1674805
1218,2.5625,-0.8125,-5.9375,-0.2700195,0.121582,0.3828125,0.2402344,-0.2583008,-0.1660156
1222,5.625,2.625,3,-0.3393555,0.1796875,0.3671875,0.2392578,-0.2583008,-0.1674805
1226,13.25,1.9375,6.3125,-0.378418,0.1445313,0.3520508,0.2402344,-0.2568359,-0.1674805
1230,21.125,0.625,13.25,-0.3432617,0.1914063,0.3520508,0.237793,-0.2583008,-0.1660156
1234,26.125,3.125,17.875,-0.3354492,0.253418,0.3637695,0.237793,-0.2617188,-0.1645508
1238,29.125,3.625,21.3125,-0.3901367,0.3120117,0.3671875,0.237793,-0.2631836,-0.1616211
1242,24.75,0.375,25.9375,-0.3823242,0.3974609,0.3789063,0.2353516,-0.265625,-0.1577148
1246,15.125,-2.5,29.6875,-0.378418,0.4165039,0.3671875,0.2319336,-0.2680664,-0.15625
1250,9.4375,-7.125,34.375,-0.3549805,0.3544922,0.3330078,0.2329102,-0.2695313,-0.1547852
1254,11.1875,-9.3125,39.8125,-0.2890625,0.3349609,0.3442383,0.230957,-0.2719727,-0.1508789
1258,9.4375,-9.1875,45,-0.2543945,0.3466797,0.340332,0.2270508,-0.2744141,-0.1538086
1262,9.1875,-7.5625,49.375,-0.2583008,0.3349609,0.2788086,0.2236328,-0.2768555,-0.1494141
1266,9.1875,-11.25,53.5625,-0.2773438,0.3120117,0.2597656,0.2202148,-0.2783203,-0.1484375
1270,11.3125,-15.375,61.125,-0.246582,0.2729492,0.2519531,0.215332,-0.2807617,-0.144043
1274,13.1875,-17.875,69.5625,-0.1962891,0.2963867,0.2402344,0.2104492,-0.2832031,-0.1425781
1278,16.625,-20.8125,78.3125,-0.1572266,0.3427734,0.2329102,0.203125,-0.2866211,-0.1416016
1282,17.9375,-24.25,82.75,-0.1533203,0.3779297,0.2329102,0.1972656,-0.2895508,-0.137207
1286,16.25,-28.4375,90.9375,-0.1420898,0.3857422,0.2558594,0.1928711,-0.2905273,-0.1347656
1290,15,-33.5625,103.6875,-0.09912109,0.3779297,0.2636719,0.184082,-0.2944336,-0.1333008
1294,19.375,-38.75,115.9375,-0.03320313,0.5019531,0.3056641,0.1748047,-0.296875,-0.1333008
1299,26.5,-39.375,119.1875,0.01269531,0.5952148,0.3291016,0.1665039,-0.2983398,-0.1279297
1303,33.875,-43.125,120.5,0.008789063,0.6030273,0.3134766,0.1547852,-0.2993164,-0.1264648
1307,49.8125,-47.4375,126.375,0.1171875,0.5214844,0.3134766,0.144043,-0.3017578,-0.1225586
1311,71.6875,-37.6875,126,0.2529297,0.6147461,0.3671875,0.1357422,-0.3056641,-0.1196289
1315,81.4375,-23.375,124,0.2724609,0.7856445,0.4018555,0.1259766,-0.3032227,-0.1181641
1319,71.875,-18.6875,124.875,0.2177734,0.9643555,0.3710938,0.1142578,-0.3041992,-0.1113281
1323,51,-22.875,125.9375,0.2294922,1.019043,0.340332,0.1069336,-0.3041992,-0.1098633
1327,42.625,-23.75,127.6875,0.2451172,0.9140625,0.2709961,0.09619141,-0.3041992,-0.1088867
1331,45.25,-24.25,122.0625,0.2451172,0.8984375,0.2094727,0.08691406,-0.3041992,-0.112793
1335,48.6875,-24.4375,116.5625,0.3110352,0.8867188,0.1748047,0.07958984,-0.3032227,-0.1098633
1339,43,-27.625,117.875,0.3847656,0.890625,0.1787109,0.07128906,-0.3066406,-0.112793
1343,34.8125,-32.5625,124,0.4541016,0.8867188,0.1865234,0.06152344,-0.3066406,-0.1157227
1347,36.0625,-33.9375,130.5,0.4853516,0.8671875,0.2060547,0.05322266,-0.3120117,-0.1166992
1351,39.9375,-31.9375,130.375,0.5356445,0.9179688,0.2250977,0.04394531,-0.3168945,-0.1196289
1355,46,-26.4375,129.1875,0.5629883,0.890625,0.2172852,0.03320313,-0.3232422,-0.1166992
1359,61.375,-20.8125,124,0.543457,0.9799805,0.1865234,0.02587891,-0.328125,-0.1157227
1363,58.0625,-19.875,119,0.578125,1.124023,0.1748047,0.01513672,-0.3354492,-0.1113281
1367,46.4375,-24.25,120.4375,0.6210938,1.146973,0.1865234,0.004394531,-0.3408203,-0.1035156
1371,43.0625,-26,128.625,0.6210938,1.073242,0.1982422,-0.0009765625,-0.3442383,-0.09667969
1375,41.5625,-26.375,125.125,0.6401367,1.088867,0.1713867,-0.01269531,-0.3457031,-0.08691406
1379,45.625,-26.125,124.3125,0.6713867,1.166504,0.2094727,-0.0234375,-0.3466797,-0.07617188
1383,41.625,-25.125,122.625,0.7451172,1.189941,0.2133789,-0.03076172,-0.3442383,-0.06787109
1387,44.5,-21.5625,114.125,0.6791992,1.182129,0.2172852,-0.0390625,-0.3393555,-0.06103516
1391,40.8125,-20.125,108.9375,0.7373047,1.131836,0.2094727,-0.05078125,-0.3330078,-0.05273438
1395,47.625,-17.75,109.125,0.7490234,1.073242,0.2060547,-0.05566406,-0.3291016,-0.04882813
1399,53.5625,-13.25,107.875,0.8032227,1.069336,0.1865234,-0.06396484,-0.3217773,-0.04492188
1403,56.6875,-8.9375,106.6875,0.8261719,1.193848,0.1748047,-0.07324219,-0.3144531,-0.03808594
1407,50.25,-6.875,98.375,0.7758789,1.189941,0.1171875,-0.078125,-0.3095703,-0.03515625
1411,51.875,-6.6875,94.5625,0.7680664,0.9179688,0.03662109,-0.08886719,-0.3017578,-0.03369141
1415,76.5625,-1.375,101.25,0.9155273,0.7705078,0.07128906,-0.09619141,-0.2944336,-0.03271484
1419,90.875,9.25,108,0.8691406,0.9956055,0.07910156,-0.1010742,-0.2880859,-0.02978516
1423,78.5625,8.5,107.5625,0.8959961,1.189941,0.09423828,-0.1103516,-0.2817383,-0.02978516
1428,45.5625,2.9375,105.6875,0.9077148,1.228516,0.09033203,-0.1176758,-0.2753906,-0.02978516
1432,20.875,-5,100.6875,0.8691406,0.9257813,0.04443359,-0.1235352,-0.2719727,-0.03125
1436,24,-6,99.875,1.008301,0.6733398,0.07519531,-0.1303711,-0.2680664,-0.03515625
1440,46.5,8.625,96.1875,0.9619141,0.6030273,0.01708984,-0.1376953,-0.2631836,-0.03955078
1444,57.9375,13.1875,96.625,0.8149414,0.8012695,-0.05517578,-0.1425781,-0.2617188,-0.04052734
1448,54,3.9375,91.5,0.7641602,0.9140625,-0.08203125,-0.1484375,-0.2568359,-0.04199219
1452,45.8125,-8,85.4375,0.8535156,0.8168945,-0.07080078,-0.1542969,-0.2529297,-0.04492188
1456,45.25,-7.9375,85.25,1.000488,0.7548828,0.009765625,-0.1582031,-0.2543945,-0.04492188
1460,52.9375,0,83.9375,0.9311523,0.7705078,-0.005371094,-0.1640625,-0.2504883,-0.04638672
1464,57.75,1.4375,72.625,0.8691406,0.8325195,-0.03613281,-0.1674805,-0.2504883,-0.04736328
1468,54.375,-1.1875,68.0625,0.8730469,0.8481445,-0.03222656,-0.168457,-0.2504883,-0.04638672
1472,48.3125,-6.8125,71.4375,0.9077148,0.793457,-0.02832031,-0.1748047,-0.2480469,-0.04638672
1476,52.625,-6,72.8125,0.9853516,0.7739258,-0.03222656,-0.1806641,-0.2480469,-0.04492188
1480,74.75,2.8125,63.1875,0.8999023,0.8129883,-0.05126953,-0.1806641,-0.2456055,-0.04345703
1484,85.9375,7,53.125,0.9311523,0.9140625,-0.02441406,-0.184082,-0.2456055,-0.04052734
1488,91.75,14.9375,49.25,0.9541016,0.9375,-0.01318359,-0.1865234,-0.2441406,-0.03515625
1492,91.875,23.6875,40.9375,0.9194336,1.030762,-0.01318359,-0.1889648,-0.2456055,-0.03369141
1496,79.875,29.5625,35.75,0.7797852,1.217285,-0.09765625,-0.1914063,-0.2456055,-0.02978516
1500,48.1875,18.75,27.25,0.543457,1.259766,-0.2167969,-0.1938477,-0.2470703,-0.02441406
1504,15.9375,-4.4375,22.875,0.5512695,1.186035,-0.2246094,-0.1948242,-0.2441406,-0.02587891
1508,-6.6875,-16.9375,17.75,0.7060547,1.007324,-0.1474609,-0.1938477,-0.2431641,-0.02587891
1512,-21.0625,-22.8125,15.3125,0.8339844,0.8325195,-0.09375,-0.1948242,-0.2407227,-0.02441406
1516,-22.125,-12.1875,9.625,0.9736328,0.8051758,-0.0859375,-0.1962891,-0.2431641,-0.02587891
1520,-20.125,0,-2.25,0.8183594,0.8168945,-0.1708984,-0.1972656,-0.2416992,-0.02294922
1524,-23.8125,-7.125,-6.875,0.7373047,0.7856445,-0.1899414,-0.1982422,-0.2416992,-0.02587891
1528,-27.125,-11.6875,-8.9375,0.7915039,0.793457,-0.1821289,-0.1962891,-0.2407227,-0.02587891
1532,-28.6875,-11.6875,-18.0625,0.7602539,0.8632813,-0.1630859,-0.1962891,-0.2416992,-0.02734375
1536,-34.75,-15.75,-20.875,0.7875977,0.9414063,-0.1245117,-0.1962891,-0.2416992,-0.02832031
1540,-47.9375,-17.9375,-27,0.8222656,1.092773,-0.0859375,-0.1923828,-0.2407227,-0.02832031
1544,-62.9375,-18.4375,-34.5,0.8652344,1.081055,-0.08203125,-0.1938477,-0.2441406,-0.03125
1548,-73.625,-17.4375,-42.75,0.8535156,1.135742,-0.09375,-0.1923828,-0.2441406,-0.03271484
1552,-80.1875,-17.5625,-51.25,0.8339844,1.092773,-0.1401367,-0.1899414,-0.2431641,-0.03662109
1557,-71.3125,-16.3125,-62.125,0.8261719,1.038574,-0.1245117,-0.1875,-0.2431641,-0.03955078
1561,-60.9375,-15.625,-67.625,0.8691406,1.092773,-0.08203125,-0.1831055,-0.2470703,-0.03955078
1565,-48.625,-10.4375,-76.375,0.9038086,1.17041,-0.02832031,-0.1791992,-0.2456055,-0.04052734
1569,-42.75,-4.1875,-87.5625,0.9194336,1.298828,0.05566406,-0.1782227,-0.2480469,-0.03955078
1573,-46.8125,0,-97.25,0.8574219,1.426758,0.05957031,-0.1708984,-0.2504883,-0.04199219
1577,-60.125,-4.1875,-106.8125,0.8457031,1.493164,0.06738281,-0.1665039,-0.2504883,-0.03955078
1581,-72.375,-5.5,-119.6875,0.9736328,1.461914,0.07128906,-0.1582031,-0.2543945,-0.03808594
1585,-73.625,0,-132.125,1.097656,1.337402,0.105957,-0.1508789,-0.2583008,-0.03515625
1589,-71.625,7.5625,-140.5625,1.163574,1.287109,0.09423828,-0.1459961,-0.2631836,-0.03515625
1593,-68.4375,16.125,-144.25,1.182617,1.267578,0.1210938,-0.1352539,-0.2695313,-0.03125
1597,-72.4375,21.3125,-148.75,1.155762,1.314453,0.1132813,-0.1245117,-0.2753906,-0.02978516
1601,-77.1875,23.75,-154.125,1.121094,1.298828,0.07128906,-0.1152344,-0.2832031,-0.02734375
1605,-83.5625,23.75,-160.3125,1.117188,1.310547,0.06347656,-0.1044922,-0.2919922,-0.02734375
1609,-89.375,24.9375,-165,1.147949,1.189941,0.05566406,-0.09130859,-0.3041992,-0.02832031
1613,-79.125,30.6875,-168.1875,1.16748,1.003418,0.05957031,-0.08203125,-0.3120117,-0.03125
1617,-59.875,40,-168.875,1.186523,0.9643555,0.08642578,-0.06640625,-0.3242188,-0.03808594
1621,-46.6875,49.0625,-172.5,1.085938,1.069336,0.1020508,-0.05224609,-0.3354492,-0.04199219
1625,-51.6875,48.75,-174.375,0.9931641,1.174316,0.07910156,-0.04394531,-0.3408203,-0.05029297
1629,-64.8125,42.3125,-172,0.9233398,1.124023,0.03271484,-0.02832031,-0.3481445,-0.06103516
1633,-69.5,34.9375,-169.875,0.9116211,1.049805,0.05175781,-0.01269531,-0.3491211,-0.07763672
1637,-63.8125,35,-171.5625,0.9077148,0.9453125,0.09033203,-0.001953125,-0.3466797,-0.08447266
1641,-54,38.0625,-169.3125,0.9116211,0.8671875,0.1479492,0.01269531,-0.3417969,-0.09521484
1645,-39.875,43.9375,-165.75,0.8300781,0.8129883,0.1518555,0.02734375,-0.3344727,-0.1020508
1649,-33.8125,48.0625,-163.375,0.7954102,0.890625,0.1518555,0.03808594,-0.3266602,-0.105957
1653,-38.875,46.5625,-158.3125,0.6791992,0.90625,0.140625,0.05078125,-0.3193359,-0.1035156
1657,-47.375,40.625,-156.125,0.5898438,0.8710938,0.1210938,0.06298828,-0.3105469,-0.1020508
1661,-51.3125,37.625,-152.0625,0.5668945,0.7856445,0.09814453,0.06884766,-0.3095703,-0.09667969
1665,-45.5,35.625,-151.0625,0.4736328,0.7001953,0.1020508,0.08203125,-0.3066406,-0.09228516
1669,-38.625,34.875,-145.625,0.4697266,0.6733398,0.1479492,0.09375,-0.3041992,-0.09082031
1673,-41.5,35.8125,-137.375,0.4155273,0.6884766,0.1943359,0.1020508,-0.3056641,-0.08544922
1677,-45.3125,35.6875,-132.0625,0.3574219,0.6577148,0.1713867,0.1118164,-0.3056641,-0.08300781
1681,-45,35.1875,-127.1875,0.2529297,0.5761719,0.1289063,0.1259766,-0.3105469,-0.08447266
1686,-31.6875,34,-124.375,0.125,0.4672852,0.07519531,0.1318359,-0.3105469,-0.08447266
1690,-5.625,31,-123.4375,0.004882813,0.4204102,0.1328125,0.144043,-0.3129883,-0.08447266
1694,6.1875,25.75,-129.875,0.1445313,0.5292969,0.3251953,0.1557617,-0.3144531,-0.08154297
1698,-16.0625,30.125,-126.3125,0.3730469,0.5991211,0.425293,0.1640625,-0.3144531,-0.08447266
1702,-55.875,36.75,-113.9375,0.2568359,0.4438477,0.3364258,0.1748047,-0.3120117,-0.08837891
1706,-73.125,33.0625,-103.375,0.06689453,0.09814453,0.125,0.1855469,-0.3105469,-0.09228516
1710,-57.375,28.375,-87.9375,0.06298828,-0.2314453,-0.01660156,0.1938477,-0.3095703,-0.09912109
1714,-15.9375,31.125,-72.9375,-0.03710938,-0.3325195,0.02880859,0.2021484,-0.3081055,-0.1020508
1718,8.9375,29.875,-54.125,-0.1303711,-0.06445313,0.04443359,0.2094727,-0.3032227,-0.1035156
1722,9.9375,28.5625,-43,-0.1845703,0.2109375,0.05566406,0.2104492,-0.3032227,-0.09912109
1726,-0.1875,24.6875,-32.5,-0.378418,0.2807617,-0.009277344,0.215332,-0.3017578,-0.1005859
1730,-10.4375,8.6875,-26.4375,-0.4868164,0.3388672,0.01367188,0.2202148,-0.3017578,-0.1005859
1734,-22.75,-8.25,-17,-0.3935547,0.3544922,0.07519531,0.2211914,-0.2993164,-0.1005859
1738,-27.0625,-13.0625,-7.0625,-0.3549805,0.3041992,0.1328125,0.2202148,-0.2993164,-0.1074219
1742,-23.5,-14.4375,-2.625,-0.3125,0.2807617,0.1674805,0.2211914,-0.2993164,-0.1088867
1746,-21.5625,-13.9375,2.75,-0.3085938,0.2495117,0.1826172,0.2211914,-0.2993164,-0.112793
1750,-14.75,-13.5625,11.6875,-0.2890625,0.1953125,0.1713867,0.21875,-0.2983398,-0.1157227
1754,2.625,-11.9375,14.25,-0.3393555,0.2109375,0.1713867,0.2163086,-0.2993164,-0.1166992
1758,14.4375,-14.5,21.0625,-0.3046875,0.2885742,0.2329102,0.2177734,-0.296875,-0.1166992
1762,19.625,-13.1875,25.75,-0.2773438,0.3193359,0.3056641,0.215332,-0.296875,-0.1142578
1766,21.9375,-11.6875,28.375,-0.2504883,0.3896484,0.3056641,0.2119141,-0.3017578,-0.1113281
1770,17.6875,-10.75,35.6875,-0.2543945,0.4086914,0.2788086,0.2094727,-0.3007813,-0.1113281
1774,15.25,-13.75,40.375,-0.3046875,0.3896484,0.2558594,0.2055664,-0.3007813,-0.1098633
1778,14.3125,-20.8125,46.25,-0.262207,0.3857422,0.2675781,0.2021484,-0.3032227,-0.1074219
1782,14.6875,-21.625,51.25,-0.1499023,0.3857422,0.3056641,0.1987305,-0.3017578,-0.105957
1786,18.625,-17.75,54.6875,-0.1030273,0.3662109,0.3134766,0.1938477,-0.3032227,-0.1074219
1790,22.625,-13.9375,56.8125,-0.08398438,0.3935547,0.2788086,0.1879883,-0.3056641,-0.1044922
1794,23.3125,-12.5,61.875,-0.08398438,0.4125977,0.2368164,0.184082,-0.3056641,-0.1005859
1798,23.25,-15.3125,69.4375,-0.1264648,0.3935547,0.1826172,0.1806641,-0.3056641,-0.09765625
1802,25.5,-22.3125,79.3125,-0.09130859,0.4399414,0.1826172,0.1713867,-0.3081055,-0.09521484
1806,26.375,-26.5,86.25,-0.03710938,0.5097656,0.2172852,0.1650391,-0.3066406,-0.09082031
1810,26.5625,-28.375,92.375,0.03173828,0.5488281,0.2519531,0.1567383,-0.3066406,-0.09082031
1815,25.6875,-27,95.8125,0.07861328,0.5800781,0.2480469,0.1459961,-0.3056641,-0.08984375
1819,28.9375,-26.375,98.1875,0.07470703,0.5913086,0.2021484,0.1401367,-0.3041992,-0.09082031
1823,37.3125,-28.6875,101.625,0.125,0.6381836,0.2290039,0.1318359,-0.3041992,-0.08984375
1827,39.25,-26.375,106.8125,0.1713867,0.7158203,0.2290039,0.1225586,-0.3032227,-0.08984375
1831,38.125,-27.6875,109.4375,0.159668,0.7666016,0.1943359,0.1186523,-0.3032227,-0.09082031
1835,37.1875,-30.375,115.1875,0.1831055,0.8051758,0.1713867,0.1079102,-0.3017578,-0.09228516
1839,42.75,-32.5,116.4375,0.1674805,0.8286133,0.159668,0.09863281,-0.3041992,-0.09521484
1843,46.25,-35.8125,115.375,0.2568359,0.8710938,0.1982422,0.09375,-0.3056641,-0.09765625
1847,46.8125,-37.0625,117.6875,0.3959961,0.8945313,0.2250977,0.08447266,-0.3041992,-0.09765625
1851,55.75,-29.875,126.5,0.4428711,0.8168945,0.1982422,0.07617188,-0.3120117,-0.1020508
1855,67.5,-25.875,122.875,0.3886719,0.9760742,0.1826172,0.06884766,-0.3154297,-0.1020508
1859,55.625,-31.375,121.625,0.3999023,1.073242,0.1826172,0.05957031,-0.3232422,-0.1020508
1863,40.5,-39.0625,128.0625,0.6015625,0.8364258,0.1982422,0.04980469,-0.3266602,-0.09765625
1867,72.1875,-27.0625,139.875,0.6791992,0.5683594,0.1557617,0.04150391,-0.3320313,-0.09667969
1871,122.125,-9.6875,135.3125,0.7490234,0.7817383,0.1328125,0.03173828,-0.3408203,-0.08984375
1875,144.875,6.5,134.125,0.7177734,1.038574,0.08642578,0.02148438,-0.3457031,-0.07324219
1879,142.625,9.6875,128.875,0.6479492,1.321777,0.09423828,0.01074219,-0.3481445,-0.06103516
1883,101.5625,2.5,131.125,0.625,1.547363,0.159668,0.0009765625,-0.3505859,-0.04492188
1887,51.5,-8.5,139.375,0.644043,1.438477,0.144043,-0.01025391,-0.3466797,-0.03369141
1891,33.375,-10.125,138.4375,0.574707,1.275391,0.06347656,-0.01855469,-0.3432617,-0.02978516
1895,39.8125,-14.3125,124.0625,0.5708008,1.197754,0.009765625,-0.02929688,-0.3393555,-0.02294922
1899,43.625,-17,116.625,0.7255859,1.221191,0.09814453,-0.04003906,-0.3344727,-0.01904297
1903,24.75,-13.375,114.75,0.8110352,1.314453,0.1518555,-0.04589844,-0.3291016,-0.01367188
1907,-0.375,-17.9375,116.4375,0.7680664,1.291016,0.1479492,-0.05664063,-0.3232422,-0.01464844
1911,-9.6875,-17.9375,124.125,0.7719727,1.12793,0.07128906,-0.06494141,-0.3154297,-0.01464844
1915,-7.625,-18.5,112,0.7177734,1.12793,0.01367188,-0.07470703,-0.3120117,-0.01611328
1919,3.4375,-19.4375,108.1875,0.7255859,0.987793,-0.05908203,-0.08203125,-0.3041992,-0.02148438
1923,17.5,-19.375,100.625,0.8149414,0.972168,-0.01318359,-0.09033203,-0.2993164,-0.02148438
1927,25.9375,-13.875,98.8125,0.8378906,1.015137,-0.001464844,-0.09716797,-0.2954102,-0.02294922
1931,22.9375,-13.375,97.875,0.7915039,1.146973,0.02880859,-0.1044922,-0.2895508,-0.02441406
1935,6.5,-18.1875,94.8125,0.7529297,1.228516,0.03662109,-0.112793,-0.2856445,-0.02978516
1939,-9,-21.375,92.8125,0.8183594,1.124023,0.02880859,-0.1176758,-0.2817383,-0.03125
1944,-17.125,-25.5,89.3125,0.7568359,1.030762,-0.03613281,-0.1245117,-0.2783203,-0.03515625
1948,-11.0625,-29.1875,80.875,0.8417969,0.8710938,-0.03222656,-0.1293945,-0.2729492,-0.03808594
1952,2.8125,-21.6875,76.4375,0.9038086,0.793457,-0.02050781,-0.1352539,-0.2695313,-0.03955078
1956,15.875,-13.625,75.0625,0.8574219,0.7666016,-0.03613281,-0.1411133,-0.2680664,-0.04199219
1960,30.125,-11.3125,73.875,0.8222656,0.8442383,-0.03222656,-0.1484375,-0.265625,-0.04199219
1964,35.25,-8.5625,73.6875,0.7797852,0.9101563,-0.05126953,-0.1494141,-0.2641602,-0.04638672
1968,40.25,-9.875,66.1875,0.7680664,0.9799805,-0.02441406,-0.1557617,-0.2631836,-0.04638672
1972,40.125,-8.8125,57.4375,0.8222656,0.9995117,0.001953125,-0.1601563,-0.2617188,-0.04492188
1976,32.625,-8.0625,51.75,0.8378906,0.9492188,-0.001464844,-0.1640625,-0.2592773,-0.04638672
1980,28.5,-8.625,50.625,0.8574219,0.8867188,0.02099609,-0.1665039,-0.2607422,-0.04345703
1984,23.375,-5.0625,48.5,0.8535156,0.90625,0.005859375,-0.1708984,-0.2583008,-0.04345703
1988,17.1875,-4.375,47.375,0.7993164,0.8828125,0.001953125,-0.1723633,-0.2583008,-0.04199219
1992,13.5625,-6.75,43.9375,0.7954102,0.8325195,-0.009277344,-0.1757813,-0.2558594,-0.04199219
1996,14.375,-6.4375,39.75,0.8417969,0.7817383,-0.001464844,-0.1791992,-0.2543945,-0.04345703
2000,17.0625,-3.375,35.375,0.8730469,0.7275391,0.009765625,-0.1791992,-0.2543945,-0.03955078
2004,21.3125,1,31.125,0.8920898,0.6923828,-0.001464844,-0.1816406,-0.2504883,-0.04199219
2008,34.375,9.8125,19.25,0.9892578,0.5566406,0.01367188,-0.1855469,-0.2504883,-0.03808594
2012,57.375,28,10.5625,1.012207,0.4516602,-0.07470703,-0.1865234,-0.2519531,-0.03808594
2016,85.3125,41.5,9,1.008301,0.3427734,-0.1054688,-0.1855469,-0.2529297,-0.03808594
2020,103.1875,50.375,25.5,0.9311523,0.6108398,-0.1323242,-0.1865234,-0.2543945,-0.03662109
2024,90.5625,49,28,0.6870117,1.015137,-0.1435547,-0.1875,-0.2529297,-0.03369141
2028,51.4375,29.125,23.5625,0.4736328,1.193848,-0.1860352,-0.1875,-0.2529297,-0.03125
2032,7.3125,-0.625,16.3125,0.4775391,1.228516,-0.1362305,-0.1899414,-0.2519531,-0.02978516
2036,-28.6875,-15.6875,8.6875,0.6289063,1.13916,-0.07861328,-0.1914063,-0.2519531,-0.02832031
2040,-49.125,-19.6875,3.625,0.6870117,1.049805,-0.05126953,-0.1899414,-0.2529297,-0.03125
2044,-57.75,-21.625,-2.8125,0.7177734,1.007324,-0.05908203,-0.1914063,-0.2519531,-0.03125
2048,-65.625,-21.625,-4.1875,0.7099609,1.112305,-0.07861328,-0.1938477,-0.2519531,-0.03369141
2052,-73.5,-23.8125,-12.25,0.6948242,1.197754,-0.05126953,-0.1914063,-0.2495117,-0.03662109
2056,-82.9375,-24.0625,-23.75,0.6713867,1.271484,-0.04394531,-0.1914063,-0.2495117,-0.03955078
2060,-88.1875,-25.1875,-38.4375,0.6948242,1.294922,0.001953125,-0.1889648,-0.2495117,-0.04199219
2064,-96.125,-25.4375,-50.1875,0.7294922,1.279297,0.01367188,-0.1865234,-0.2495117,-0.04638672
2068,-95.8125,-23.625,-59.625,0.7719727,1.213379,0.01708984,-0.1831055,-0.2504883,-0.04882813
2073,-91.25,-20.6875,-69.75,0.8378906,1.20166,0.08251953,-0.1816406,-0.2504883,-0.05175781
2077,-86.25,-13.9375,-78.125,0.9311523,1.197754,0.105957,-0.1757813,-0.2529297,-0.05273438
2081,-85.3125,-7.0625,-84.75,0.9462891,1.248047,0.1713867,-0.1708984,-0.2543945,-0.05712891
2085,-93.875,-3.6875,-90.4375,0.9038086,1.302734,0.140625,-0.1650391,-0.2568359,-0.05859375
2089,-97.25,-0.8125,-98.1875,0.9116211,1.251953,0.1328125,-0.1591797,-0.2592773,-0.06103516
2093,-92.4375,5.0625,-108.625,0.9814453,1.146973,0.1328125,-0.1518555,-0.2607422,-0.0625
2097,-78.5625,13.8125,-113.8125,1.016113,1.069336,0.1367188,-0.1474609,-0.2641602,-0.0625
2101,-60.25,24.25,-120.6875,1.039551,1.112305,0.159668,-0.1376953,-0.2695313,-0.0625
2105,-59.1875,29.8125,-126.125,1.027832,1.228516,0.1635742,-0.1259766,-0.2744141,-0.0625
2109,-60.0625,33.0625,-129.3125,0.9970703,1.221191,0.1674805,-0.1210938,-0.2792969,-0.0625
2113,-62.125,33.4375,-133.6875,0.9970703,1.244141,0.1748047,-0.1103516,-0.2866211,-0.06103516
2117,-56.8125,36.625,-139.9375,1.031738,1.193848,0.2250977,-0.09863281,-0.2954102,-0.06396484
2121,-53.5,44.75,-145.625,1.074219,1.225098,0.2329102,-0.09033203,-0.2993164,-0.06396484
2125,-54.25,51.8125,-152.375,1.070313,1.244141,0.2290039,-0.07568359,-0.3095703,-0.06542969
2129,-61.9375,54.125,-156.1875,1.027832,1.259766,0.1557617,-0.06152344,-0.3178711,-0.07177734
2133,-69.1875,52,-156.5625,0.9619141,1.186035,0.09033203,-0.05322266,-0.3242188,-0.07617188
2137,-69,48.5,-156.125,0.9462891,1.104492,0.06738281,-0.0390625,-0.3291016,-0.08691406
2141,-66.9375,47.3125,-155.125,0.9462891,1.084961,0.1210938,-0.02490234,-0.3354492,-0.09521484
2145,-67.9375,49.1875,-154.75,0.9462891,1.120117,0.1518555,-0.01611328,-0.3369141,-0.1035156
2149,-73.9375,50.3125,-154.1875,0.8959961,1.053711,0.140625,-0.003417969,-0.3344727,-0.1157227
2153,-57.9375,57.4375,-144.875,0.8535156,0.7973633,0.09423828,0.009277344,-0.3291016,-0.1210938
2157,23,82.25,-144.625,0.6210938,0.5991211,0.03271484,0.02001953,-0.3256836,-0.1289063
2161,100.375,93.4375,-186.375,0.5239258,1.146973,0.04443359,0.03417969,-0.3232422,-0.1235352
2165,94.75,86.1875,-199.125,0.578125,1.508301,0.105957,0.05078125,-0.3208008,-0.1113281
2169,45.9375,66.125,-186.0625,0.4736328,1.543457,0.1132813,0.06298828,-0.3178711,-0.1035156
2173,0.6875,37.5,-177.5,0.3691406,1.461914,0.06347656,0.07714844,-0.3129883,-0.09667969
2177,-37.5625,12.0625,-170.625,0.4116211,1.341309,0.01367188,0.09130859,-0.3081055,-0.09082031
2181,-58.375,-1.4375,-165.5,0.5161133,1.038574,0.03662109,0.09863281,-0.3066406,-0.08837891
2185,-64.25,-9.75,-157.0625,0.559082,0.824707,0.07128906,0.112793,-0.3056641,-0.08984375
2189,-69.4375,-12.9375,-149.25,0.5976563,0.7275391,0.1328125,0.1269531,-0.3041992,-0.08984375
2193,-77.5625,-6.4375,-138.8125,0.6054688,0.5527344,0.1367188,0.1333008,-0.3041992,-0.09228516
2197,-73.1875,0.8125,-128,0.4697266,0.3896484,0.09423828,0.1425781,-0.3056641,-0.09765625
2202,-61.625,6,-122.1875,0.3652344,0.3310547,0.07519531,0.1567383,-0.3041992,-0.1035156
2206,-56.75,7.75,-118.375,0.2797852,0.3271484,0.07910156,0.1616211,-0.3017578,-0.105957
2210,-63.0625,7.125,-109.6875,0.1948242,0.3120117,0.07910156,0.1723633,-0.3017578,-0.1157227
2214,-78.625,1,-99.625,0.1328125,0.2573242,0.04443359,0.1806641,-0.2983398,-0.1235352
2218,-89.625,-4.5,-86.4375,0.09765625,0.05517578,0.02880859,0.1855469,-0.296875,-0.1279297
2222,-78.8125,-4.1875,-73.625,0.1132813,-0.1538086,0.02880859,0.1928711,-0.2919922,-0.1401367
2226,-54.75,2.75,-64,0.07470703,-0.2163086,0.06738281,0.1962891,-0.2856445,-0.1469727
2230,-35.9375,7.4375,-55.125,-0.006347656,-0.1577148,0.125,0.199707,-0.2832031,-0.1508789
2234,-30.125,8.0625,-42.5625,-0.07226563,-0.06835938,0.1557617,0.203125,-0.2807617,-0.1538086
2238,-27.0625,7.75,-31.25,-0.1533203,-0.03369141,0.1479492,0.2055664,-0.2783203,-0.1577148
2242,-17.5625,8,-26.8125,-0.215332,0.02050781,0.1479492,0.2080078,-0.2753906,-0.1577148
2246,-11.375,4.3125,-20.25,-0.2348633,0.09814453,0.1826172,0.2104492,-0.2729492,-0.1630859
2250,-11,1,-7.375,-0.28125,0.1523438,0.2133789,0.2128906,-0.2729492,-0.1645508
2254,-10.8125,-6.25,3.625,-0.3549805,0.2226563,0.2636719,0.2104492,-0.2744141,-0.1660156
2258,-6.0625,-9.8125,7.5,-0.3393555,0.2651367,0.3017578,0.2094727,-0.2719727,-0.1660156
2262,4.25,-10.3125,8.3125,-0.3046875,0.315918,0.3598633,0.2080078,-0.2705078,-0.1660156
2266,8.5,-7.75,12.75,-0.262207,0.4321289,0.3945313,0.2070313,-0.2729492,-0.1660156
2270,5.75,-4.5625,15.375,-0.3393555,0.4868164,0.3710938,0.2070313,-0.2729492,-0.1660156
2274,3.9375,-11.8125,19.25,-0.4365234,0.4672852,0.3442383,0.2055664,-0.2729492,-0.1660156
2278,6.5625,-21.8125,20.8125,-0.3164063,0.4165039,0.3637695,0.2045898,-0.2753906,-0.1630859
2282,8.5625,-17.5625,23.4375,-0.2270508,0.4282227,0.375,0.199707,-0.2744141,-0.1674805
2286,9.4375,-18.4375,27.8125,-0.2270508,0.3310547,0.355957,0.2011719,-0.2753906,-0.1660156
2290,16.0625,-18.625,31.625,-0.1533203,0.2924805,0.3364258,0.1987305,-0.2768555,-0.1660156
2294,19.5625,-14.8125,36.375,-0.1069336,0.2963867,0.3134766,0.1938477,-0.2768555,-0.1645508
2298,23.1875,-15.375,42,-0.1342773,0.2416992,0.2597656,0.1904297,-0.2807617,-0.1616211
2302,29.875,-17.1875,51.0625,-0.09130859,0.2416992,0.2480469,0.1879883,-0.2807617,-0.1606445
2306,35.625,-17.1875,56.9375,-0.09130859,0.269043,0.2250977,0.1831055,-0.2832031,-0.1577148
2310,35.375,-19.0625,63.875,-0.09521484,0.3740234,0.2172852,0.1782227,-0.2841797,-0.1538086
2314,30.125,-27,70.875,-0.09130859,0.3505859,0.1826172,0.1723633,-0.2866211,-0.1523438
2318,29.8125,-34.375,84,0.01269531,0.3740234,0.1904297,0.1665039,-0.2895508,-0.1508789
2322,31.9375,-36.1875,94.875,0.01660156,0.4052734,0.1982422,0.1616211,-0.2919922,-0.1469727
2326,33.375,-42.875,102.9375,-0.02978516,0.5292969,0.2021484,0.1523438,-0.2919922,-0.1484375
2331,33.3125,-49.875,106.4375,0.008789063,0.5878906,0.2094727,0.144043,-0.2944336,-0.1455078
2335,37.0625,-54.3125,106,0.07470703,0.5800781,0.2133789,0.1333008,-0.2954102,-0.1469727
2339,54.75,-55.8125,106.9375,0.1987305,0.5332031,0.2172852,0.125,-0.296875,-0.144043
2343,74.8125,-50.75,109.125,0.3188477,0.6225586,0.2827148,0.1152344,-0.2983398,-0.144043
2347,83.4375,-40.5625,108.75,0.3730469,0.793457,0.3017578,0.1044922,-0.3017578,-0.1386719
2351,73.125,-37.4375,112.5625,0.3496094,0.9492188,0.2636719,0.09863281,-0.3017578,-0.137207
2355,58.6875,-40.125,116.9375,0.2915039,0.9101563,0.2290039,0.08789063,-0.3041992,-0.1357422
2359,55.4375,-49.375,112.8125,0.2993164,0.8632813,0.2060547,0.07714844,-0.3056641,-0.137207
2363,55.375,-54.9375,117.75,0.4541016,0.824707,0.2133789,0.07128906,-0.3081055,-0.1357422
2367,61.125,-54.5,120.0625,0.59375,0.7973633,0.2558594,0.05712891,-0.3105469,-0.1347656
2371,72.3125,-41.9375,119.875,0.6479492,0.8984375,0.2675781,0.04882813,-0.3154297,-0.1318359
2375,68.125,-31.75,110.375,0.644043,0.9799805,0.2441406,0.04248047,-0.3168945,-0.1303711
2379,56.9375,-30.875,112.75,0.6518555,0.9604492,0.1674805,0.03076172,-0.3193359,-0.1264648
2383,56.625,-31.0625,127.5625,0.6791992,0.8051758,0.144043,0.02246094,-0.3242188,-0.1235352
2387,74.1875,-29.5625,132,0.6401367,0.8598633,0.08642578,0.01513672,-0.3266602,-0.1196289
2391,83.9375,-29.625,124.625,0.6791992,1.061523,0.09423828,0.004394531,-0.328125,-0.112793
2395,78.25,-29.5,117.5,0.7216797,1.17041,0.1210938,-0.006835938,-0.3291016,-0.1044922
2399,55.9375,-34.4375,106,0.7216797,1.205566,0.1098633,-0.01171875,-0.3320313,-0.09667969
2403,48.375,-37.6875,112.1875,0.7993164,0.9414063,0.09423828,-0.02099609,-0.3305664,-0.09082031
2407,67,-36.375,113.625,0.8032227,0.9604492,0.05566406,-0.03173828,-0.3291016,-0.08300781
2411,83.25,-27.5625,101.375,0.7568359,1.143066,0.06347656,-0.03759766,-0.3266602,-0.08154297
2415,80.125,-28.4375,77.3125,0.6831055,1.259766,0.01708984,-0.04589844,-0.3242188,-0.07324219
2419,68.5625,-42.9375,63.4375,0.7568359,1.182129,0.01708984,-0.05224609,-0.3208008,-0.06542969
2423,72.25,-49.5625,67.1875,0.9501953,1.077148,0.07910156,-0.05810547,-0.3178711,-0.06103516
2427,74.9375,-35.1875,83.6875,1.035645,1.189941,0.1020508,-0.06396484,-0.3129883,-0.05566406
2431,63.9375,-16.4375,93.5625,0.9233398,1.255859,0.04785156,-0.07128906,-0.3120117,-0.04882813
2435,50.8125,-14,96.125,0.7138672,1.271484,-0.03613281,-0.078125,-0.3081055,-0.04882813
2439,37.1875,-29.125,87.9375,0.6635742,1.263672,-0.09765625,-0.08642578,-0.3017578,-0.04882813
2443,44.5,-33.375,92.8125,0.8496094,1.061523,-0.08203125,-0.09472656,-0.296875,-0.04736328
2447,60.5625,-22.8125,89.5625,0.8691406,1.100586,-0.06689453,-0.1010742,-0.2944336,-0.04638672
2451,78.8125,-11.5625,84.0625,0.8730469,1.077148,-0.07470703,-0.1079102,-0.2905273,-0.04199219
2455,95.5625,2.0625,78.4375,0.8691406,1.084961,-0.05908203,-0.1176758,-0.2880859,-0.03955078
2460,93.625,13.4375,74.3125,0.7836914,1.263672,-0.07080078,-0.1220703,-0.2841797,-0.03662109
2464,70.625,9,71.1875,0.7021484,1.321777,-0.07080078,-0.1269531,-0.2817383,-0.03662109
2468,51.8125,3.9375,81.625,0.7954102,1.197754,-0.08203125,-0.1328125,-0.2817383,-0.03369141
2472,48,6.25,82.6875,0.7954102,1.108398,-0.0859375,-0.1376953,-0.2817383,-0.03271484
2476,57.8125,12.625,77,0.8339844,1.026855,-0.08984375,-0.1435547,-0.2768555,-0.03271484
2480,72.625,28.75,67.5,0.8920898,1.003418,-0.1245117,-0.1494141,-0.2729492,-0.02978516
2484,80.125,48.75,66.4375,0.8222656,1.038574,-0.1938477,-0.1542969,-0.2729492,-0.03125
2488,83.125,58.75,65.625,0.6870117,1.022949,-0.2514648,-0.1591797,-0.2719727,-0.02832031
2492,89.8125,59.5625,62.3125,0.5629883,1.061523,-0.3012695,-0.1650391,-0.2695313,-0.02734375
2496,95.875,52.875,54.625,0.4658203,1.174316,-0.3051758,-0.1665039,-0.2695313,-0.02587891
2500,89.625,38.25,47.5,0.4272461,1.43457,-0.2939453,-0.1699219,-0.2670898,-0.02148438
2504,57,20.1875,35.8125,0.4467773,1.636719,-0.2016602,-0.1723633,-0.265625,-0.01904297
2508,9.875,4.9375,26.9375,0.4194336,1.586426,-0.1821289,-0.1757813,-0.265625,-0.01757813
2512,-20.8125,-12.1875,10.875,0.4580078,1.411133,-0.1401367,-0.1748047,-0.2641602,-0.01611328
2516,-36.6875,-23.625,-2.9375,0.5629883,1.255859,-0.1015625,-0.1757813,-0.2641602,-0.01904297
2520,-43.4375,-24.5625,-11.25,0.7138672,1.13916,-0.07080078,-0.1757813,-0.2631836,-0.01904297
2524,-44,-14.8125,-16.625,0.7641602,1.092773,-0.07861328,-0.1748047,-0.2641602,-0.02148438
2528,-44.6875,-7.5625,-21.875,0.7216797,1.073242,-0.109375,-0.1733398,-0.2631836,-0.02294922
2532,-43,-7.125,-31.6875,0.6362305,1.069336,-0.1206055,-0.1733398,-0.2641602,-0.02441406
2536,-43.25,-13.5625,-43.5,0.6362305,1.092773,-0.09765625,-0.168457,-0.265625,-0.02587891
2540,-45.8125,-15.3125,-51.8125,0.690918,1.166504,-0.04003906,-0.1674805,-0.2680664,-0.02978516
2544,-54.25,-13.3125,-60.75,0.7412109,1.186035,-0.009277344,-0.1650391,-0.2695313,-0.02832031
2548,-65.625,-12.5,-65.75,0.7216797,1.186035,-0.02832031,-0.1601563,-0.2719727,-0.03125
2552,-72.125,-14.75,-70.625,0.7451172,1.12793,-0.04003906,-0.1542969,-0.2729492,-0.03271484
2556,-74.375,-13.0625,-73.75,0.8183594,1.12793,-0.01660156,-0.1518555,-0.2744141,-0.03369141
2560,-73.8125,-6.4375,-78.25,0.8300781,1.100586,-0.03222656,-0.1474609,-0.2768555,-0.03662109
2564,-69.9375,-2.3125,-83.6875,0.8378906,1.112305,-0.009277344,-0.1376953,-0.2792969,-0.03662109
2568,-67.875,3,-87.9375,0.8535156,1.135742,0.001953125,-0.1342773,-0.2783203,-0.03955078
2572,-69.5,7.3125,-92.4375,0.8496094,1.17041,0.01708984,-0.128418,-0.2807617,-0.03808594
2576,-73.625,10.625,-95.6875,0.8261719,1.217285,0.02490234,-0.1186523,-0.2856445,-0.04345703
2580,-81.0625,11.25,-98.5625,0.7993164,1.240234,-0.001464844,-0.112793,-0.2880859,-0.04345703
2584,-87.75,8.875,-102.0625,0.7993164,1.232422,-0.02832031,-0.1030273,-0.2929688,-0.04638672
2589,-91.3125,8.5625,-105.125,0.8110352,1.193848,-0.04003906,-0.09472656,-0.2954102,-0.04882813
2593,-88,9.5,-109.625,0.8457031,1.150879,-0.009277344,-0.09130859,-0.2993164,-0.04882813
2597,-82.75,14.125,-114.125,0.8652344,1.13916,0.05566406,-0.078125,-0.3041992,-0.05273438
2601,-80.125,20.1875,-115.875,0.8803711,1.186035,0.07910156,-0.06884766,-0.3105469,-0.05859375
2605,-80.8125,26.0625,-117.5625,0.8730469,1.162598,0.09814453,-0.05908203,-0.3120117,-0.05957031
2609,-77.125,32.75,-117.3125,0.8535156,1.150879,0.07128906,-0.05078125,-0.3193359,-0.06640625
2613,-68.9375,39.0625,-119.6875,0.7915039,1.12793,0.06347656,-0.03759766,-0.3232422,-0.07177734
2617,-54.4375,46.125,-123.5625,0.7568359,1.116211,0.09814453,-0.03173828,-0.3256836,-0.07617188
2621,-36.75,58.8125,-119.0625,0.7060547,1.120117,0.1289063,-0.02001953,-0.3320313,-0.07861328
2625,-6.625,77.4375,-114.3125,0.6210938,1.20166,0.1171875,-0.01025391,-0.3344727,-0.08691406
2629,25.5625,92.25,-130.5625,0.4931641,1.418945,0.02880859,-0.001953125,-0.3378906,-0.08691406
2633,47.25,94.3125,-166.125,0.3808594,1.613281,-0.04003906,0.01074219,-0.3378906,-0.08691406
2637,42.6875,77.8125,-193.0625,0.3496094,1.706543,-0.09375,0.02832031,-0.3369141,-0.08691406
2641,17.3125,50.9375,-197.0625,0.3886719,1.706543,-0.1015625,0.04150391,-0.3369141,-0.08544922
2645,-21.3125,22.5625,-187,0.4697266,1.597656,-0.05126953,0.0546875,-0.3320313,-0.08544922
2649,-55.125,2.3125,-174.0625,0.5356445,1.426758,-0.02050781,0.06982422,-0.3256836,-0.08984375
2653,-75.625,-9.9375,-166.875,0.5512695,1.248047,-0.02832031,0.07714844,-0.3217773,-0.09082031
2657,-81.25,-16.0625,-166.6875,0.6054688,1.057617,0.005859375,0.09033203,-0.3129883,-0.09667969
2661,-77.25,-13.6875,-167.75,0.6713867,0.9101563,0.04443359,0.1010742,-0.3081055,-0.09765625
2665,-72.375,-1.875,-166.625,0.690918,0.840332,0.07519531,0.1118164,-0.3041992,-0.09912109
2669,-72.875,7.875,-161.4375,0.5976563,0.7353516,0.07910156,0.1235352,-0.3007813,-0.1005859
2673,-72.5,10,-149.3125,0.4194336,0.6694336,0.05566406,0.1367188,-0.296875,-0.1035156
2677,-79.0625,0.6875,-142.75,0.3188477,0.6616211,0.03271484,0.1450195,-0.2929688,-0.1044922
2681,-87.5625,-8,-132.125,0.3110352,0.5839844,0.05566406,0.1557617,-0.2919922,-0.1098633
2685,-94.3125,-9.875,-120.0625,0.2724609,0.4907227,0.06347656,0.1650391,-0.2880859,-0.1157227
2689,-93.25,-10.8125,-107.5,0.2026367,0.3544922,0.07519531,0.1723633,-0.2841797,-0.1225586
2693,-83.0625,-9.8125,-99.0625,0.1445313,0.3081055,0.105957,0.1806641,-0.2807617,-0.1303711
2697,-72.5625,-8.6875,-94.625,0.1015625,0.269043,0.1328125,0.1889648,-0.2783203,-0.1386719
2701,-65.5625,-8.625,-88.5,0.08251953,0.253418,0.1674805,0.1928711,-0.2729492,-0.1425781
2705,-64.625,-4.625,-80.25,0.08642578,0.2651367,0.1826172,0.1987305,-0.2695313,-0.1508789
2709,-68.75,0.3125,-71.3125,0.02050781,0.2226563,0.144043,0.2021484,-0.265625,-0.15625
2713,-61.1875,1.3125,-65.5,-0.1030273,0.09423828,0.1171875,0.2070313,-0.2607422,-0.1616211
2718,-42.8125,-2.0625,-61.6875,-0.1611328,0.02441406,0.1367188,0.2104492,-0.2583008,-0.1674805
2722,-29.8125,-5.8125,-59.3125,-0.1303711,0.05517578,0.1865234,0.2138672,-0.2529297,-0.1728516
2726,-26.125,-4.5,-49.6875,-0.08789063,0.07861328,0.2211914,0.215332,-0.2504883,-0.1738281
2730,-29.0625,-1.25,-36.1875,-0.1767578,0.05126953,0.2060547,0.21875,-0.2456055,-0.1782227
2734,-24.1875,-4.5,-27.1875,-0.2543945,-0.05273438,0.1557617,0.2177734,-0.2431641,-0.1821289
2738,-9.1875,-12.4375,-13.75,-0.2231445,-0.05664063,0.1787109,0.2202148,-0.2416992,-0.1835938
2742,4.1875,-12.9375,-0.9375,-0.2119141,0.03613281,0.2636719,0.2211914,-0.2416992,-0.1850586
2746,9.875,-11.5,4.75,-0.2192383,0.1601563,0.3330078,0.2202148,-0.2416992,-0.1835938
2750,6.125,-9.9375,9.0625,-0.2348633,0.2573242,0.3520508,0.2202148,-0.2431641,-0.1850586
2754,2.625,-11.125,14.0625,-0.2661133,0.2226563,0.3637695,0.2163086,-0.2416992,-0.1865234
2758,5.5,-12.875,19.5,-0.2543945,0.2416992,0.340332,0.2177734,-0.2416992,-0.1865234
2762,9.375,-12.8125,24.1875,-0.2192383,0.2456055,0.340332,0.215332,-0.2441406,-0.1850586
2766,14.875,-12.375,31.4375,-0.246582,0.237793,0.3173828,0.2128906,-0.2456055,-0.1835938
2770,19.625,-13.9375,39.6875,-0.2700195,0.2885742,0.3251953,0.2104492,-0.2470703,-0.1821289
2774,24.125,-17.375,45.25,-0.2700195,0.3120117,0.3364258,0.2094727,-0.2495117,-0.1821289
2778,29.5625,-17.4375,46.125,-0.2231445,0.3818359,0.3598633,0.203125,-0.2504883,-0.1821289
2782,35.1875,-16.875,46.375,-0.1923828,0.3935547,0.3828125,0.199707,-0.2543945,-0.1782227
2786,40.625,-14.1875,46,-0.1147461,0.4204102,0.409668,0.1972656,-0.2583008,-0.1767578
2790,42.875,-9,51.375,-0.07226563,0.4750977,0.4018555,0.1938477,-0.2592773,-0.1738281
2794,39,-5,55.3125,-0.09130859,0.4907227,0.390625,0.1904297,-0.2631836,-0.1713867
2798,37.5625,-6.375,59.375,-0.1225586,0.4243164,0.3251953,0.1889648,-0.2641602,-0.168457
2802,43.6875,-6.625,63.8125,-0.04882813,0.4052734,0.2709961,0.1806641,-0.2670898,-0.1660156
2806,52.625,-5.625,68.125,-0.02587891,0.3623047,0.2558594,0.1782227,-0.2705078,-0.1616211
2810,66.875,-5,74.375,0.05908203,0.4125977,0.2519531,0.1757813,-0.2719727,-0.1577148
2814,76.6875,2.25,80.5625,0.1635742,0.4985352,0.2827148,0.1674805,-0.2729492,-0.1523438
2818,79.625,12.4375,89.1875,0.1445313,0.6420898,0.2983398,0.1616211,-0.2783203,-0.1455078
2822,74.1875,15.125,92.875,0.03955078,0.7314453,0.2558594,0.1582031,-0.2807617,-0.1416016
2826,68.6875,11.625,100.0625,0.02441406,0.777832,0.1904297,0.1499023,-0.2832031,-0.1347656
2830,64.25,4.5625,100.4375,-0.006347656,0.8129883,0.144043,0.1425781,-0.2866211,-0.1318359
2834,68.25,-5.6875,103.3125,0.09375,0.7739258,0.1328125,0.1367188,-0.2905273,-0.125
2838,80.625,-2.75,102,0.2412109,0.7895508,0.2021484,0.128418,-0.2929688,-0.125
2842,93.875,9,104.375,0.2797852,0.8168945,0.2094727,0.1201172,-0.296875,-0.1210938
2847,103.75,20.125,108.6875,0.2451172,0.9335938,0.2021484,0.1152344,-0.3007813,-0.1181641
2851,101.3125,23.125,111.875,0.2026367,1.077148,0.1635742,0.1079102,-0.3041992,-0.1098633
2855,88.75,16.5625,114,0.1713867,1.205566,0.1367188,0.09960938,-0.3105469,-0.1044922
2859,71.375,7.375,118.625,0.2490234,1.209473,0.1132813,0.09521484,-0.3144531,-0.1020508
2863,64.4375,4.4375,126.625,0.2451172,1.182129,0.105957,0.08544922,-0.3208008,-0.09667969
2867,63.8125,2.8125,121.8125,0.2177734,1.178223,0.105957,0.07714844,-0.3242188,-0.09228516
2871,64.0625,0.875,112.75,0.2797852,1.236328,0.1328125,0.06982422,-0.328125,-0.08984375
2875,48.9375,-0.6875,111.5,0.3652344,1.294922,0.125,0.06054688,-0.3305664,-0.08300781
2879,33.0625,-4,118.0625,0.4428711,1.225098,0.125,0.05224609,-0.3344727,-0.08007813
2883,34.6875,1.0625,125.625,0.4038086,1.193848,0.06738281,0.04736328,-0.3369141,-0.07617188
2887,41.3125,1.8125,112.75,0.3730469,1.189941,0.04052734,0.03564453,-0.3369141,-0.07177734
2891,49.625,1,104.6875,0.4311523,1.124023,0.04785156,0.02734375,-0.3378906,-0.06787109
2895,43,-1,101.8125,0.4970703,1.213379,0.1020508,0.02148438,-0.3408203,-0.0625
2899,23.875,-4.875,114.3125,0.59375,1.143066,0.1171875,0.01416016,-0.3378906,-0.05957031
2903,17.5,-1.375,126.1875,0.5859375,1.131836,0.08251953,0.003417969,-0.3369141,-0.05273438
2907,24.75,4.375,124.625,0.543457,1.116211,0.02099609,-0.003417969,-0.3354492,-0.05273438
2911,35.75,5.0625,111.5625,0.5317383,1.154785,-0.005371094,-0.01416016,-0.3320313,-0.04882813
2915,34.5,1.5,98.375,0.559082,1.193848,-0.001464844,-0.02246094,-0.3266602,-0.04638672
2919,18.0625,-7.375,93.5,0.6289063,1.174316,0.01708984,-0.02929688,-0.3242188,-0.04199219
2923,-5.1875,-14.75,103,0.7373047,1.069336,0.05566406,-0.0390625,-0.3217773,-0.04199219
2927,-2.5625,-11.125,120.4375,0.7099609,0.9101563,-0.01318359,-0.04736328,-0.3178711,-0.04492188
2931,13.8125,-9.125,115.4375,0.644043,0.9375,-0.04394531,-0.05566406,-0.3144531,-0.04345703
2935,30.1875,-8.375,108.875,0.690918,0.9760742,-0.05126953,-0.06494141,-0.3095703,-0.04638672
2939,39.375,-6,97.375,0.7529297,1.019043,-0.001464844,-0.07324219,-0.3056641,-0.04492188
2943,38.3125,-0.75,95.9375,0.8691406,1.038574,0.04052734,-0.08056641,-0.3017578,-0.04345703
2947,40.5,7.3125,96.625,0.8032227,1.007324,-0.009277344,-0.08886719,-0.2954102,-0.04492188
2951,42.5,10.125,99.75,0.7602539,1.022949,-0.05517578,-0.09619141,-0.2929688,-0.04492188
2955,41.125,9.3125,100.4375,0.7060547,1.084961,-0.07861328,-0.1020508,-0.2905273,-0.04492188
2959,39.5625,5.125,95.375,0.7177734,1.06543,-0.0859375,-0.1113281,-0.2856445,-0.04638672
2963,39.625,2.625,85.375,0.7758789,0.9760742,-0.1245117,-0.1176758,-0.2817383,-0.04882813
2967,54.4375,4.625,71.8125,0.9233398,0.7353516,-0.1591797,-0.1220703,-0.2817383,-0.04882813
2971,98.9375,23.125,49.9375,1.151855,0.4204102,-0.1821289,-0.1269531,-0.2783203,-0.04736328
2976,155.4375,59.625,48.4375,1.322266,0.3505859,-0.1899414,-0.128418,-0.2817383,-0.04345703
2980,186,96.75,69.625,1.26416,0.6303711,-0.1552734,-0.1352539,-0.2817383,-0.04052734
2984,167.4375,113.6875,95.0625,0.8730469,1.057617,-0.2631836,-0.1401367,-0.2807617,-0.03369141
2988,132.25,94.75,99.4375,0.4970703,1.267578,-0.3359375,-0.1474609,-0.2807617,-0.02734375
2992,91.1875,56.5625,91.3125,0.2026367,1.461914,-0.4169922,-0.1494141,-0.2783203,-0.02587891
2996,49.625,16.375,76.3125,0.2797852,1.458008,-0.3168945,-0.1557617,-0.2783203,-0.02441406
3000,10.8125,-9.1875,68.875,0.4970703,1.321777,-0.2167969,-0.1601563,-0.2768555,-0.02148438
3004,-8.5625,-17,69.5625,0.7177734,1.131836,-0.128418,-0.1625977,-0.2744141,-0.02148438
3008,-8.75,-7.1875,66.75,0.8378906,1.057617,-0.07861328,-0.1708984,-0.2705078,-0.02148438
3012,-7.5,7.1875,49.5,0.5009766,1.590332,-0.1054688,-0.1748047,-0.2719727,-0.02294922
3016,-92.625,-42,38.3125,-0.3007813,2.763672,-0.1435547,-0.1757813,-0.2695313,-0.02441406
3020,-162.25,-64,-17.6875,0.3457031,1.811523,-0.1591797,-0.1782227,-0.2680664,-0.02832031
3024,-142.375,-54.125,-29.8125,0.675293,0.875,-0.2705078,-0.1772461,-0.2695313,-0.03662109
3028,-98,-41.875,2.3125,0.8149414,0.4282227,-0.1435547,-0.1772461,-0.2680664,-0.03808594
3032,-50.0625,-29.0625,22.4375,0.9272461,0.3896484,-0.01318359,-0.1757813,-0.2670898,-0.04492188
3036,-5.6875,-5.125,30.75,0.9658203,0.5800781,0.09033203,-0.1782227,-0.2641602,-0.04345703
3040,12.75,15,7.6875,0.8339844,1.073242,0.144043,-0.1791992,-0.2631836,-0.04345703
3044,8.875,25.125,-26.25,0.675293,1.345215,0.1210938,-0.1816406,-0.2631836,-0.04492188
3048,-17.375,16.75,-53.6875,0.4892578,1.454102,0.1098633,-0.1782227,-0.2631836,-0.04492188
3052,-55.0625,-8.4375,-64.9375,0.4541016,1.461914,0.04785156,-0.1748047,-0.2641602,-0.04638672
3056,-87.375,-28.5625,-63.125,0.5820313,1.353027,0.02880859,-0.1699219,-0.2670898,-0.04736328
3060,-97.25,-36.8125,-63.875,0.7021484,1.209473,0.05957031,-0.1650391,-0.2670898,-0.05273438
3064,-88.75,-30.3125,-67.6875,0.8803711,1.217285,0.125,-0.1625977,-0.2680664,-0.05419922
3068,-80.875,-12.6875,-79.1875,0.9580078,1.317871,0.1943359,-0.1582031,-0.2680664,-0.05712891
3072,-80,1.4375,-92.375,0.8959961,1.422852,0.1865234,-0.1542969,-0.2705078,-0.06103516
3076,-79.5625,8.4375,-102.9375,0.8652344,1.442383,0.1865234,-0.1474609,-0.2695313,-0.0625
3080,-78.25,15.75,-114.25,0.8803711,1.438477,0.1674805,-0.1401367,-0.2719727,-0.06396484
3084,-75.5,22.1875,-121.5,0.8959961,1.450195,0.1479492,-0.1328125,-0.2768555,-0.06396484
3088,-77.125,25.0625,-128.375,0.9155273,1.485352,0.1171875,-0.1245117,-0.2792969,-0.06396484
3092,-83.3125,25.5,-136.0625,0.9389648,1.500488,0.09423828,-0.1152344,-0.2841797,-0.06640625
3096,-90.9375,26.125,-145.6875,0.9736328,1.527832,0.105957,-0.1020508,-0.2895508,-0.06640625
3100,-102.3125,26.9375,-154,1.012207,1.485352,0.09814453,-0.09472656,-0.2929688,-0.06640625
3105,-107.25,28,-158.75,1.059082,1.364746,0.05175781,-0.08203125,-0.3017578,-0.07080078
3109,-105.125,28.8125,-159.4375,1.089844,1.294922,0.05175781,-0.06738281,-0.3105469,-0.07470703
3113,-103.4375,32.625,-157.125,1.078125,1.225098,0.02099609,-0.05810547,-0.3154297,-0.08007813
3117,-102.9375,35.5,-155.5,1.02002,1.162598,0.04443359,-0.04492188,-0.3217773,-0.08837891
3121,-98.6875,36.0625,-153,0.9501953,1.131836,0.04785156,-0.03076172,-0.3266602,-0.1005859
3125,-94,36.8125,-153.5,0.9194336,1.09668,0.07519531,-0.02001953,-0.328125,-0.1098633
3129,-83.875,39.5,-151.75,0.8691406,1.088867,0.08251953,-0.0078125,-0.328125,-0.1210938
3133,-69,41.25,-153.9375,0.7993164,1.015137,0.08642578,0.005859375,-0.3256836,-0.1318359
3137,-51.125,41.4375,-151.75,0.7255859,0.921875,0.1098633,0.01513672,-0.3217773,-0.1386719
3141,-36.75,39.9375,-153.6875,0.7373047,0.9838867,0.1748047,0.02734375,-0.3178711,-0.144043
3145,-38.875,43.5,-155.0625,0.7294922,1.069336,0.1943359,0.04150391,-0.3129883,-0.1455078
3149,-44.75,43.1875,-158.1875,0.6557617,1.015137,0.1748047,0.04882813,-0.3105469,-0.1469727
3153,-46.8125,40.75,-160.9375,0.6015625,0.9140625,0.159668,0.06152344,-0.3017578,-0.1484375
3157,-40.5,38.5,-161.25,0.5859375,0.8129883,0.1713867,0.07373047,-0.296875,-0.1469727
3161,-36.8125,38.1875,-154.1875,0.5668945,0.7856445,0.2094727,0.08300781,-0.2983398,-0.144043
3165,-35.0625,37.875,-147.1875,0.4853516,0.7548828,0.2211914,0.09619141,-0.2944336,-0.144043
3169,-35.5,37.0625,-147.375,0.4038086,0.7314453,0.2021484,0.1103516,-0.2929688,-0.1425781
3173,-31.4375,37.375,-148.75,0.3925781,0.6694336,0.2211914,0.1186523,-0.2919922,-0.1416016
3177,-29.8125,38.5,-144.5,0.3496094,0.6694336,0.2250977,0.1318359,-0.2895508,-0.1416016
3181,-32.3125,36.75,-140.0625,0.2294922,0.6303711,0.2211914,0.144043,-0.2895508,-0.1425781
3185,-35.1875,31.3125,-132.1875,0.1870117,0.5761719,0.2133789,0.1508789,-0.2880859,-0.1416016
3189,-38.0625,27.6875,-126.875,0.1484375,0.5097656,0.2211914,0.1640625,-0.2841797,-0.1469727
3193,-39.5625,24.1875,-121.1875,0.1484375,0.4399414,0.2172852,0.1748047,-0.2792969,-0.1484375
3197,-37.125,24.0625,-110.5,0.05517578,0.3427734,0.1865234,0.1806641,-0.2783203,-0.1508789
3201,-30.25,19.25,-100.375,0.004882813,0.284668,0.1982422,0.1904297,-0.2744141,-0.1547852
3205,-22.5625,17.25,-92.625,-0.02587891,0.2651367,0.2133789,0.1987305,-0.2680664,-0.1591797
3209,-18.6875,14.25,-85.25,-0.03710938,0.3041992,0.2558594,0.2021484,-0.2670898,-0.1591797
3213,-24.8125,13.75,-77,-0.06445313,0.3310547,0.2558594,0.2104492,-0.2617188,-0.1630859
3217,-32.125,12.625,-70.125,-0.1225586,0.284668,0.2441406,0.2138672,-0.2592773,-0.1660156
3221,-32.8125,8.9375,-63.1875,-0.1845703,0.171875,0.2250977,0.21875,-0.2568359,-0.168457
3225,-23.625,6.4375,-56.375,-0.1962891,0.06298828,0.2290039,0.222168,-0.2529297,-0.1728516
3229,-8.5625,8.25,-47,-0.1806641,0.01269531,0.2749023,0.2246094,-0.2480469,-0.1738281
3234,4.125,12.3125,-38.875,-0.1689453,0.1098633,0.3173828,0.2294922,-0.2470703,-0.1738281
3238,6.5,16.375,-33.9375,-0.215332,0.2226563,0.3481445,0.2294922,-0.2456055,-0.1738281
3242,-0.3125,16.625,-28.875,-0.3242188,0.2573242,0.2944336,0.2329102,-0.2431641,-0.1738281
3246,-3.625,7.9375,-21.375,-0.3666992,0.1875,0.2749023,0.234375,-0.2416992,-0.175293
3250,0,2.375,-16.625,-0.3085938,0.1601563,0.3095703,0.2353516,-0.2431641,-0.1738281
3254,2.6875,2.75,-10.1875,-0.2504883,0.203125,0.3598633,0.2353516,-0.2416992,-0.1738281
3258,0.6875,4.375,0.125,-0.3125,0.2148438,0.3442383,0.237793,-0.2407227,-0.1767578
3262,-0.375,0.8125,5.625,-0.347168,0.2070313,0.3017578,0.2368164,-0.2392578,-0.1738281
3266,1.6875,-2.4375,9.8125,-0.3432617,0.1640625,0.2636719,0.2353516,-0.2407227,-0.1738281
3270,4.1875,-5.1875,15.375,-0.3164063,0.1293945,0.2636719,0.2353516,-0.2407227,-0.1713867
3274,10.625,-8,21.3125,-0.28125,0.08251953,0.2597656,0.234375,-0.2416992,-0.1728516
3278,17.3125,-8.875,32.125,-0.1884766,0.1098633,0.2827148,0.2319336,-0.2431641,-0.1713867
3282,23.8125,-3.6875,39.9375,-0.1845703,0.1796875,0.2827148,0.2294922,-0.2441406,-0.168457
3286,22.9375,-2.25,45.4375,-0.2700195,0.2612305,0.2636719,0.2294922,-0.2480469,-0.1660156
3290,17.375,-9.5,51.1875,-0.3007813,0.2651367,0.2172852,0.2260742,-0.2519531,-0.1630859
3294,18.5,-16.3125,58,-0.2231445,0.1992188,0.1904297,0.222168,-0.2529297,-0.1616211
3298,27.8125,-19,65.4375,-0.1381836,0.2070313,0.2211914,0.2177734,-0.2568359,-0.1616211
3302,35,-16.5,72.875,-0.08398438,0.3349609,0.2709961,0.2128906,-0.2617188,-0.1591797
3306,30.875,-16.625,79.5625,-0.1186523,0.4399414,0.2827148,0.2094727,-0.2641602,-0.1577148
3310,28,-17.25,83.5625,-0.1108398,0.4086914,0.2788086,0.2021484,-0.2670898,-0.1547852
3314,37.75,-15.75,86.875,-0.03710938,0.3623047,0.2709961,0.1948242,-0.2695313,-0.1508789
3318,51.75,-10.1875,90.6875,0.02441406,0.4711914,0.2749023,0.1914063,-0.2729492,-0.1469727
3322,55.5,-7.75,95.125,0.004882813,0.6225586,0.2866211,0.1855469,-0.2753906,-0.1425781
3326,50.125,-11.4375,98.5625,-0.02197266,0.7314453,0.2905273,0.1757813,-0.2783203,-0.1386719
3330,39.6875,-19.25,106,-0.02587891,0.7275391,0.2709961,0.1699219,-0.2807617,-0.1347656
3334,39.625,-20.3125,111.9375,0.09375,0.6577148,0.2944336,0.1606445,-0.2841797,-0.1333008
3338,51.5625,-12,116.0625,0.1713867,0.7041016,0.2983398,0.1499023,-0.2856445,-0.1318359
3342,57.5,-6.8125,119,0.1557617,0.8710938,0.2944336,0.1450195,-0.2880859,-0.1279297
3346,53.6875,-8.625,123.1875,0.1367188,1.003418,0.3095703,0.1333008,-0.2895508,-0.1264648
3350,35.6875,-19.375,135.625,0.09033203,1.077148,0.3173828,0.1259766,-0.2929688,-0.125
3354,16.625,-41.1875,153.3125,0.06298828,1.057617,0.3056641,0.1166992,-0.2954102,-0.125
3358,15.0625,-47.5,154.625,0.2138672,0.9414063,0.2788086,0.1035156,-0.2993164,-0.1279297
3363,35,-41.9375,144.8125,0.2758789,0.8598633,0.2749023,0.09033203,-0.3017578,-0.1303711
3367,52.8125,-33.0625,136.8125,0.4077148,0.9643555,0.2983398,0.08300781,-0.3041992,-0.1318359
3371,51.3125,-29.1875,136.25,0.3730469,1.112305,0.3056641,0.07128906,-0.3081055,-0.1318359
3375,35.25,-31,140.5,0.4506836,1.146973,0.3134766,0.06054688,-0.3144531,-0.1289063
3379,28,-30.5,137.375,0.4389648,1.108398,0.2749023,0.05224609,-0.3193359,-0.1303711
3383,27,-29.5625,134,0.4619141,0.9760742,0.2060547,0.04248047,-0.3232422,-0.1264648
3387,37.875,-26.5625,130.6875,0.5512695,0.890625,0.1865234,0.03076172,-0.3266602,-0.125
3391,61.5625,-18.75,128.8125,0.5473633,0.8828125,0.1826172,0.02490234,-0.328125,-0.1196289
3395,69.0625,-18.5,124.8125,0.5976563,1.073242,0.2675781,0.01269531,-0.3330078,-0.1142578
3399,57.875,-17.375,125.25,0.7177734,1.092773,0.3251953,0.003417969,-0.3320313,-0.1044922
3403,48.125,-13.4375,133.75,0.7954102,0.987793,0.3173828,-0.004394531,-0.3344727,-0.09912109
3407,53.125,-3.3125,136.125,0.8222656,1.022949,0.2905273,-0.01611328,-0.3330078,-0.09082031
3411,60.5625,5.8125,131.1875,0.6791992,1.124023,0.2211914,-0.02685547,-0.3330078,-0.08447266
3415,57.75,0.25,121.875,0.5859375,1.236328,0.1865234,-0.03515625,-0.3291016,-0.07861328
3419,46.125,-8.5,113.1875,0.659668,1.182129,0.2094727,-0.04248047,-0.3266602,-0.07177734
3423,31.5,-16.1875,115.1875,0.6948242,1.057617,0.2133789,-0.05322266,-0.3208008,-0.06542969
3427,33.5625,-20.625,118.6875,0.8613281,0.8945313,0.2597656,-0.05810547,-0.3154297,-0.0625
3431,52.8125,-1,118,0.9580078,0.953125,0.2709961,-0.07128906,-0.3095703,-0.05957031
3435,68.0625,12.0625,103.1875,0.7993164,1.088867,0.1787109,-0.08056641,-0.3032227,-0.05566406
3439,71,15.625,91.625,0.7529297,1.081055,0.07910156,-0.08642578,-0.2993164,-0.05175781
3443,70.75,14.8125,79.8125,0.7993164,1.030762,-0.01318359,-0.09375,-0.2919922,-0.05029297
3447,71.125,12.4375,75.375,0.8222656,0.8789063,-0.07470703,-0.1010742,-0.2880859,-0.04882813
3451,80.25,16.6875,82.125,0.9423828,0.7197266,-0.08203125,-0.1030273,-0.2832031,-0.04492188
3455,104.4375,25.375,84.625,0.9423828,0.7197266,-0.112793,-0.1113281,-0.2783203,-0.04736328
3459,123.5,32.4375,87.75,0.8920898,0.8442383,-0.1708984,-0.1176758,-0.2744141,-0.04638672
3463,123.875,30.375,96.3125,0.9311523,0.9838867,-0.1669922,-0.1220703,-0.2719727,-0.04492188
3467,113.6875,34.75,104.6875,1.023926,1.09668,-0.1323242,-0.1293945,-0.2695313,-0.04492188
3471,97.125,48.5,107.6875,0.9501953,1.146973,-0.109375,-0.1352539,-0.2670898,-0.04492188
3475,68.3125,46.125,116.5,0.6557617,1.298828,-0.2670898,-0.1401367,-0.2670898,-0.04736328
3479,38.125,20.25,121.125,0.5200195,1.217285,-0.2939453,-0.1459961,-0.2617188,-0.04736328
3483,25.5,-7.625,126.625,0.559082,1.057617,-0.2397461,-0.1533203,-0.2617188,-0.05029297
3487,27.375,-18.5,121.8125,0.7954102,1.04248,-0.09765625,-0.1591797,-0.2592773,-0.04882813
3492,32.3125,-9.875,108.4375,0.9423828,0.9995117,0.01367188,-0.1665039,-0.2568359,-0.05029297
3496,44.9375,9.5625,90.875,0.9814453,0.9643555,0.001953125,-0.1708984,-0.2529297,-0.04638672
3500,52.375,22.0625,78,0.8183594,1.081055,-0.04003906,-0.1757813,-0.2529297,-0.04638672
3504,42.625,16.125,66.5,0.6713867,1.135742,-0.09765625,-0.1782227,-0.2519531,-0.04736328
3508,28.5,6.0625,56.3125,0.644043,1.104492,-0.112793,-0.1816406,-0.2504883,-0.04345703
3512,16.5625,-2.1875,51.125,0.6948242,0.9838867,-0.0859375,-0.1831055,-0.2480469,-0.04345703
3516,20.125,-2.3125,43.8125,0.7602539,0.855957,-0.05908203,-0.1855469,-0.2470703,-0.04345703
3520,31.9375,0.8125,33.375,0.7915039,0.8442383,-0.03613281,-0.1875,-0.2480469,-0.04199219
3524,32.25,2.75,26.625,0.7490234,1.225098,0.03662109,-0.1865234,-0.2456055,-0.04052734
3528,-3.8125,-5.8125,17.0625,0.690918,1.450195,0.09033203,-0.1923828,-0.2441406,-0.04052734
3532,-33.875,-10.3125,-2.625,0.7412109,1.158691,0.01367188,-0.1899414,-0.2441406,-0.03955078
3536,-33.5625,-12.0625,-13.5625,0.8222656,0.7626953,-0.04736328,-0.1899414,-0.2431641,-0.04052734
3540,-20.0625,-5.8125,-16.5,0.9350586,0.6845703,0.03662109,-0.1889648,-0.2431641,-0.04199219
3544,-12.9375,2.625,-17.875,0.8691406,0.875,0.06347656,-0.1875,-0.2441406,-0.04199219
3548,-15.375,11.25,-29.75,0.8183594,1.053711,0.03271484,-0.1875,-0.2431641,-0.04345703
3552,-31.4375,6.9375,-42.5625,0.6635742,1.228516,-0.009277344,-0.1865234,-0.2456055,-0.04345703
3556,-57.625,-4.125,-50.875,0.7021484,1.314453,0.02490234,-0.184082,-0.2480469,-0.04736328
3560,-81.3125,-11.1875,-58.375,0.690918,1.345215,0.02880859,-0.1816406,-0.2495117,-0.05029297
3564,-99.1875,-18.4375,-71.9375,0.7451172,1.353027,0.02490234,-0.1791992,-0.2470703,-0.05273438
3568,-107.125,-17.6875,-82.6875,0.8769531,1.225098,0.02880859,-0.1757813,-0.2470703,-0.05957031
3572,-98.0625,-9.125,-92.5,0.9541016,1.120117,0.04443359,-0.1723633,-0.2495117,-0.06103516
3576,-82.9375,0.1875,-98.875,0.9697266,1.158691,0.06347656,-0.168457,-0.2480469,-0.06396484
3580,-68.1875,10.875,-104.375,0.9619141,1.182129,0.09033203,-0.1625977,-0.2495117,-0.06542969
3584,-49.4375,18.25,-113.8125,0.8842773,1.228516,0.08642578,-0.1567383,-0.2495117,-0.06542969
3588,-33.125,22.25,-127.625,0.8730469,1.356934,0.1171875,-0.1508789,-0.2519531,-0.06396484
3592,-32.125,24.1875,-141.6875,0.9155273,1.539551,0.1557617,-0.1435547,-0.2568359,-0.05957031
3596,-48.75,24.3125,-152.3125,0.9389648,1.617188,0.1713867,-0.1376953,-0.2583008,-0.05419922
3600,-69.5625,19.75,-160.3125,0.9194336,1.586426,0.1210938,-0.128418,-0.2631836,-0.04882813
3604,-87.4375,14,-163.5,0.9892578,1.46582,0.08251953,-0.1152344,-0.2705078,-0.04345703
3608,-93.4375,14.5,-163.0625,1.027832,1.291016,0.06347656,-0.1079102,-0.2768555,-0.03955078
3612,-87.1875,17.25,-164.5625,1.008301,1.221191,0.05175781,-0.09472656,-0.2880859,-0.03808594
3616,-77.9375,20.5,-170.375,1.02002,1.174316,0.04443359,-0.07958984,-0.3041992,-0.03955078
3621,-74.4375,22.6875,-175.1875,0.9970703,1.193848,0.05175781,-0.06884766,-0.3120117,-0.03808594
3625,-73.9375,24.3125,-177.5,0.9350586,1.124023,0.03271484,-0.05566406,-0.3256836,-0.04492188
3629,-59.125,26,-174.625,0.8535156,0.987793,0.01367188,-0.0390625,-0.3378906,-0.05419922
3633,-32.3125,24.75,-176.9375,0.7602539,1.116211,0.04443359,-0.02685547,-0.3442383,-0.06103516
3637,-20.4375,20.9375,-189.4375,0.8417969,1.217285,0.125,-0.01025391,-0.3505859,-0.07763672
3641,-19.5625,21.8125,-195.625,0.9155273,1.291016,0.2094727,0.005859375,-0.3520508,-0.08984375
3645,-29.5625,23.75,-192.25,0.8881836,1.240234,0.2558594,0.01757813,-0.3491211,-0.09375
3649,-38.1875,24.3125,-189.5625,0.8496094,1.209473,0.2675781,0.03564453,-0.3408203,-0.1074219
3653,-43.6875,26.75,-188.75,0.8457031,1.12793,0.2558594,0.05078125,-0.3305664,-0.1157227
3657,-47.6875,27.5625,-189.125,0.7915039,1.084961,0.2329102,0.06054688,-0.3217773,-0.1157227
3661,-57.375,26.5,-183.25,0.7412109,1.030762,0.2094727,0.07373047,-0.3095703,-0.1157227
3665,-65.25,28.1875,-170.5,0.6401367,0.9682617,0.1713867,0.08789063,-0.3007813,-0.1142578
3669,-68.6875,27,-164.875,0.5395508,0.9140625,0.125,0.09765625,-0.2944336,-0.112793
3673,-64.875,24.9375,-159.25,0.4541016,0.824707,0.08251953,0.1069336,-0.2895508,-0.1074219
3677,-58.625,20,-161.375,0.3305664,0.8129883,0.05175781,0.1210938,-0.2866211,-0.1044922
3681,-57.3125,8.9375,-163.5,0.2993164,0.7470703,0.06738281,0.1269531,-0.2856445,-0.1035156
3685,-58.3125,3.25,-160.625,0.3574219,0.6459961,0.1098633,0.1401367,-0.2856445,-0.1044922
3689,-59.6875,3.5,-148.75,0.3378906,0.5371094,0.140625,0.1547852,-0.2866211,-0.1074219
3693,-61.6875,2.1875,-130.5,0.2915039,0.4243164,0.1289063,0.1630859,-0.2841797,-0.1098633
3697,-58.3125,2.125,-112.0625,0.1791992,0.3232422,0.1132813,0.1748047,-0.2832031,-0.1181641
3701,-47.375,0.25,-98.5,0.1054688,0.2768555,0.1020508,0.1831055,-0.2817383,-0.1235352
3705,-35.875,-2.8125,-92.9375,0.04345703,0.300293,0.125,0.1914063,-0.2792969,-0.1279297
3709,-31.6875,-0.9375,-88.375,0.06298828,0.3583984,0.2172852,0.1962891,-0.2783203,-0.1333008
3713,-34.5,2.5625,-81.4375,-0.01806641,0.3623047,0.2290039,0.203125,-0.2744141,-0.1416016
3717,-34.1875,2.3125,-72.625,-0.08007813,0.300293,0.2290039,0.2080078,-0.2719727,-0.1455078
3721,-30.375,4.375,-67.25,-0.1069336,0.2651367,0.2329102,0.2128906,-0.2695313,-0.1508789
3725,-22.4375,4.25,-63.125,-0.1767578,0.2109375,0.2250977,0.2177734,-0.2641602,-0.1547852
3729,-15.5625,0.3125,-56.8125,-0.1923828,0.2109375,0.2480469,0.222168,-0.2641602,-0.1577148
3733,-16.0625,-3.1875,-47.4375,-0.2001953,0.2338867,0.2597656,0.2246094,-0.2607422,-0.1591797
3737,-23.6875,-5.625,-41.1875,-0.2192383,0.2807617,0.2866211,0.2260742,-0.2583008,-0.1660156
3741,-27,-6.625,-34.125,-0.246582,0.1796875,0.2788086,0.2270508,-0.2568359,-0.168457
3745,-21.5,-8.8125,-28.4375,-0.2929688,0.1333008,0.2749023,0.2294922,-0.2519531,-0.1699219
3750,-12.875,-10.875,-21.6875,-0.2929688,0.1137695,0.2944336,0.230957,-0.2504883,-0.1767578
3754,-4.1875,-12.25,-14.8125,-0.2773438,0.1176758,0.3291016,0.2329102,-0.2480469,-0.1767578
3758,1.3125,-11.625,-8.375,-0.2504883,0.1640625,0.3598633,0.2294922,-0.2495117,-0.1782227
3762,4.5,-8.0625,-3.875,-0.262207,0.1757813,0.3828125,0.230957,-0.2480469,-0.1806641
3766,4.5625,-6.25,-1.25,-0.2773438,0.2148438,0.3828125,0.2294922,-0.2470703,-0.1796875
3770,4.8125,-7.4375,2.4375,-0.2929688,0.1914063,0.375,0.230957,-0.2480469,-0.1821289
3774,5.125,-9.875,7.9375,-0.2661133,0.1875,0.3789063,0.2285156,-0.2480469,-0.1806641
3778,5.1875,-10.125,14.875,-0.2504883,0.171875,0.355957,0.2294922,-0.2480469,-0.1796875
3782,4.625,-11.5,22.875,-0.2773438,0.15625,0.3251953,0.2270508,-0.2480469,-0.1806641
3786,7.875,-15.375,30.9375,-0.2661133,0.1254883,0.2788086,0.2260742,-0.2504883,-0.1796875
3790,15.1875,-17.875,38.3125,-0.230957,0.1445313,0.2827148,0.2211914,-0.2519531,-0.1782227
3794,21.25,-17.3125,42.125,-0.2001953,0.1914063,0.3095703,0.2177734,-0.2543945,-0.1806641
3798,21.25,-16.375,47.0625,-0.1767578,0.2729492,0.3173828,0.2163086,-0.2568359,-0.1767578
3802,18,-16.625,52.8125,-0.1884766,0.2573242,0.2983398,0.2128906,-0.2583008,-0.175293
3806,20.75,-20.5,59.8125,-0.1611328,0.2573242,0.2636719,0.2070313,-0.2617188,-0.1728516
3810,24.9375,-22.6875,67.1875,-0.1264648,0.2885742,0.2675781,0.2045898,-0.265625,-0.1699219
3814,30.3125,-23.875,72.6875,-0.09912109,0.3232422,0.2788086,0.199707,-0.265625,-0.1674805
3818,34.25,-24.5,76.8125,-0.08398438,0.3896484,0.2944336,0.1938477,-0.2695313,-0.1645508
3822,33.875,-26.875,81.75,-0.05273438,0.4438477,0.2983398,0.1865234,-0.2729492,-0.1606445
3826,35.375,-29.0625,88.75,0.008789063,0.4516602,0.2983398,0.1796875,-0.2744141,-0.1591797
3830,42.5625,-26.375,93.8125,0.06689453,0.4907227,0.2944336,0.1738281,-0.2768555,-0.1591797
3834,51,-23.4375,94.4375,0.05908203,0.5605469,0.2749023,0.1640625,-0.2792969,-0.1538086
3838,56,-21.3125,94.125,0.1289063,0.6459961,0.2905273,0.1606445,-0.2807617,-0.1508789
3842,56.625,-18.8125,95.6875,0.1289063,0.6733398,0.2905273,0.1499023,-0.2841797,-0.1469727
3846,52.9375,-20.375,103.375,0.1328125,0.7041016,0.2675781,0.1401367,-0.2832031,-0.1455078
3850,49.6875,-25.125,111.5,0.1210938,0.7470703,0.2519531,0.1342773,-0.2841797,-0.1416016
3854,51.4375,-26.9375,114.875,0.175293,0.7548828,0.2290039,0.125,-0.2856445,-0.1401367
3858,61.625,-27.625,114.5,0.206543,0.8051758,0.2290039,0.1142578,-0.2856445,-0.1401367
3862,67.625,-31.375,111.5625,0.2685547,0.8984375,0.2788086,0.109375,-0.2880859,-0.1386719
3866,64.5,-28.9375,113.875,0.4467773,0.972168,0.3710938,0.09960938,-0.2919922,-0.1401367
3870,57.4375,-18.5625,119.875,0.4619141,1.015137,0.3481445,0.08886719,-0.2944336,-0.1386719
3874,50.4375,-12.1875,125,0.3574219,1.034668,0.2519531,0.08447266,-0.296875,-0.1386719
3879,49.8125,-18.0625,126,0.2529297,0.9799805,0.1787109,0.07470703,-0.3017578,-0.1386719
3883,59.4375,-29.3125,119,0.2836914,0.9414063,0.159668,0.06542969,-0.3081055,-0.137207
3887,65.5,-36.6875,117.3125,0.4931641,1.007324,0.2675781,0.05810547,-0.3129883,-0.1347656
3891,62.8125,-33.25,127.625,0.6518555,1.038574,0.3442383,0.04736328,-0.3178711,-0.1333008
3895,63,-21.9375,140.875,0.5976563,1.09668,0.3134766,0.03662109,-0.3256836,-0.125
3899,65.625,-18.5625,136.9375,0.5126953,1.189941,0.2675781,0.03076172,-0.328125,-0.1210938
3903,69.3125,-14.875,123.125,0.574707,1.189941,0.2329102,0.01904297,-0.3330078,-0.1113281
3907,74,-12,106.3125,0.609375,1.143066,0.2290039,0.01074219,-0.3344727,-0.1020508
3911,69.875,-10.3125,113.625,0.7758789,1.061523,0.2709961,0.005859375,-0.3354492,-0.09521484
3915,76.5625,2.4375,129.75,0.690918,1.108398,0.2060547,-0.004394531,-0.3344727,-0.08447266
3919,79.75,2.8125,122.875,0.559082,1.213379,0.1328125,-0.01416016,-0.3320313,-0.07470703
3923,78.8125,-1.8125,116.1875,0.5898438,1.248047,0.08642578,-0.02001953,-0.3291016,-0.06787109
3927,72.875,-7.8125,102,0.675293,1.240234,0.1098633,-0.02929688,-0.3256836,-0.06103516
3931,56.5,-7.8125,106.875,0.8574219,1.116211,0.1674805,-0.04150391,-0.3208008,-0.05566406
3935,58.375,5.5,120.8125,0.7602539,1.053711,0.07519531,-0.04492188,-0.3193359,-0.05175781
3939,62.75,6.8125,117.4375,0.5551758,1.135742,-0.02832031,-0.05664063,-0.3120117,-0.04882813
3943,62.0625,-4.9375,110.25,0.4931641,1.120117,-0.112793,-0.06640625,-0.3032227,-0.04345703
3947,60.75,-17.25,105.0625,0.5473633,1.084961,-0.1166992,-0.07128906,-0.3017578,-0.04345703
3951,52.6875,-32.4375,103.4375,0.690918,1.022949,-0.08203125,-0.08203125,-0.2944336,-0.04052734
3955,55,-30.4375,116.0625,0.9389648,0.9179688,-0.03613281,-0.09228516,-0.2895508,-0.04199219
3959,73.4375,-13.5625,108.9375,0.8769531,1.088867,-0.02050781,-0.09863281,-0.2866211,-0.04199219
3963,78.4375,-9.625,96.3125,0.7568359,1.158691,-0.04003906,-0.109375,-0.2817383,-0.04199219
3967,70.625,-16.5,90.0625,0.7412109,1.259766,-0.03613281,-0.1152344,-0.2783203,-0.04199219
3971,55,-21.9375,83.8125,0.7719727,1.248047,-0.02050781,-0.1186523,-0.2753906,-0.04052734
3975,44.5,-25.75,76.3125,0.8652344,1.057617,-0.001464844,-0.1259766,-0.2744141,-0.04199219
3979,49.6875,-22,71.1875,0.9931641,0.8364258,0.005859375,-0.1328125,-0.2719727,-0.04199219
3983,66.6875,-4.5,75.75,1.171387,0.777832,0.06347656,-0.1367188,-0.2719727,-0.04052734
3987,68.125,22.25,81.9375,0.9619141,0.9995117,-0.06689453,-0.1411133,-0.2695313,-0.03808594
3991,52.3125,17.9375,78.5625,0.6713867,1.045898,-0.1899414,-0.1484375,-0.2680664,-0.03808594
3995,34.8125,-2.625,84.3125,0.59375,1.022949,-0.2436523,-0.1508789,-0.2670898,-0.03808594
3999,22.9375,-23.4375,84.125,0.6674805,0.9682617,-0.1708984,-0.1582031,-0.2641602,-0.03808594
4003,20.3125,-29.875,79.625,0.8535156,0.890625,-0.08203125,-0.1625977,-0.2617188,-0.03662109
4008,30.875,-21.25,69.1875,1.000488,0.7119141,-0.05908203,-0.1650391,-0.2592773,-0.03808594
4012,59.3125,1.6875,63.625,1.151855,0.6499023,-0.05126953,-0.1733398,-0.2568359,-0.03369141
4016,77.5625,32.0625,57.5,1.109375,0.840332,-0.04394531,-0.1757813,-0.2568359,-0.03271484
4020,69.875,48.125,54.75,0.8535156,0.9916992,-0.1015625,-0.1791992,-0.2558594,-0.03125
4024,51.0625,38.375,56.8125,0.6289063,1.015137,-0.1860352,-0.1816406,-0.2543945,-0.03125
4028,37.5625,20.0625,56.0625,0.6210938,0.972168,-0.1938477,-0.1865234,-0.2519531,-0.03125
4032,28.5625,10.625,51.875,0.6831055,0.9414063,-0.1708984,-0.1865234,-0.2495117,-0.02978516
4036,24.125,7.8125,48.25,0.7836914,0.921875,-0.1323242,-0.1899414,-0.2495117,-0.02832031
4040,17.75,12.9375,53.75,0.7568359,1.081055,-0.1323242,-0.1914063,-0.2441406,-0.02832031
4044,-13.25,7.0625,46.125,0.543457,1.504395,-0.1977539,-0.1962891,-0.2431641,-0.02734375
4048,-46.6875,-5.375,16.3125,0.4428711,1.372559,-0.2397461,-0.1972656,-0.2407227,-0.03125
4052,-53.625,-18.625,0.6875,0.5668945,1.06543,-0.2397461,-0.1982422,-0.2407227,-0.03369141
4056,-52.75,-22.8125,-0.8125,0.7373047,0.9453125,-0.2089844,-0.1982422,-0.2407227,-0.03271484
4060,-39.375,-17.0625,-5.625,0.7719727,0.9414063,-0.1474609,-0.1982422,-0.2382813,-0.03369141
4064,-35,-14.8125,-18,0.7797852,1.088867,-0.1323242,-0.199707,-0.2407227,-0.03515625
4068,-37.0625,-10.375,-34.375,0.8300781,1.174316,-0.09375,-0.199707,-0.2407227,-0.03369141
4072,-41.25,-5.5625,-52.5625,0.7836914,1.162598,-0.1054688,-0.1948242,-0.2407227,-0.03515625
4076,-39.25,-7.3125,-68.375,0.8149414,1.174316,-0.08203125,-0.1923828,-0.2431641,-0.03662109
4080,-45.125,-7.0625,-79,0.8652344,1.259766,-0.07470703,-0.1899414,-0.2456055,-0.03662109
4084,-60.4375,-9.75,-84.75,0.8535156,1.294922,-0.07861328,-0.184082,-0.2480469,-0.03955078
4088,-73,-15.9375,-86.5625,0.8574219,1.267578,-0.04736328,-0.1782227,-0.2519531,-0.03955078
4092,-81.875,-17.5,-91.625,0.9272461,1.275391,-0.01318359,-0.1733398,-0.2519531,-0.03955078
4096,-87,-13.0625,-102.625,0.9892578,1.287109,0.04785156,-0.168457,-0.2558594,-0.04052734
4100,-92.1875,-6.25,-114.5,1.070313,1.279297,0.05957031,-0.1591797,-0.2607422,-0.04345703
4104,-95.0625,2.875,-120.75,1.066406,1.236328,0.02490234,-0.1533203,-0.2631836,-0.04345703
4108,-89.0625,8.375,-127.25,1.047363,1.17041,0.009765625,-0.1459961,-0.2680664,-0.04492188
4112,-78.25,15.3125,-135.9375,1.082031,1.205566,0.001953125,-0.1352539,-0.2753906,-0.04736328
4116,-72.125,22.25,-145.375,1.082031,1.255859,0.02099609,-0.128418,-0.2768555,-0.04882813
4120,-72,24.5,-149.5625,1.05127,1.263672,-0.001464844,-0.1152344,-0.2841797,-0.04882813
4124,-68.3125,24.1875,-149.3125,1.09375,1.236328,0.02880859,-0.1020508,-0.2919922,-0.04882813
4128,-56.25,32.125,-147.75,1.105469,1.259766,0.02099609,-0.09228516,-0.2983398,-0.05029297
4132,-46.0625,40.5,-156.625,1.031738,1.376465,-0.001464844,-0.08203125,-0.3041992,-0.05273438
4137,-52.6875,41.875,-167.3125,0.9462891,1.547363,-0.07080078,-0.06640625,-0.3154297,-0.05859375
4141,-79.8125,30.4375,-171.125,0.8110352,1.539551,-0.2167969,-0.05664063,-0.3193359,-0.05957031
4145,-92.8125,9.875,-165.625,0.7797852,1.333496,-0.2207031,-0.04248047,-0.3242188,-0.07080078
4149,-82.5625,1.6875,-171.125,0.9194336,1.244141,-0.07861328,-0.02929688,-0.3291016,-0.08007813
4153,-70.5,9.125,-185,1.066406,1.267578,0.04785156,-0.01855469,-0.3330078,-0.08544922
4157,-75,17.625,-185.9375,1.082031,1.302734,0.105957,-0.004394531,-0.3330078,-0.09667969
4161,-95.8125,24.1875,-178.375,1.012207,1.240234,0.04052734,0.009277344,-0.3320313,-0.1035156
4165,-99.8125,23.1875,-174.375,0.8535156,1.01123,-0.04003906,0.02001953,-0.328125,-0.1113281
4169,-86.75,22.25,-176.0625,0.8691406,0.9179688,-0.04736328,0.03320313,-0.3242188,-0.1210938
4173,-75.3125,23.3125,-176.8125,0.8032227,0.9140625,0.02099609,0.04882813,-0.3178711,-0.1264648
4177,-79.1875,18.8125,-168.4375,0.7602539,0.9296875,0.07128906,0.05712891,-0.3144531,-0.1279297
4181,-88.125,17.1875,-158.25,0.6982422,0.8867188,0.1171875,0.06982422,-0.3095703,-0.1318359
4185,-91.8125,15.625,-151.375,0.659668,0.7856445,0.144043,0.08203125,-0.3056641,-0.1357422
4189,-83.25,20.4375,-146.1875,0.644043,0.6616211,0.1674805,0.09033203,-0.3017578,-0.137207
4193,-68.8125,29.375,-146.0625,0.6401367,0.6225586,0.2021484,0.1035156,-0.3007813,-0.1416016
4197,-61.375,37.25,-144.75,0.5668945,0.6264648,0.2021484,0.1152344,-0.296875,-0.144043
4201,-65.625,41,-135.9375,0.4541016,0.5913086,0.144043,0.1235352,-0.2954102,-0.1455078
4205,-69.25,36.9375,-123.9375,0.2568359,0.4829102,0.09033203,0.1357422,-0.2919922,-0.1484375
4209,-60.625,28.1875,-114.0625,0.1713867,0.3857422,0.09423828,0.1450195,-0.2895508,-0.1538086
4213,-47.4375,24.4375,-110.4375,0.2026367,0.4165039,0.125,0.1533203,-0.2856445,-0.15625
4217,-42.0625,25.1875,-110.125,0.1635742,0.4243164,0.1479492,0.1616211,-0.2832031,-0.1591797
4221,-48.5,22.1875,-106.1875,0.1015625,0.4360352,0.1557617,0.1723633,-0.2807617,-0.1630859
4225,-62,16.8125,-95.75,0.02832031,0.3740234,0.1210938,0.1772461,-0.2753906,-0.1660156
4229,-71.125,8.3125,-80.5,-0.04882813,0.2573242,0.1020508,0.1831055,-0.2705078,-0.1713867
4233,-67.3125,0.25,-68,-0.08789063,0.09814453,0.105957,0.1879883,-0.2670898,-0.1782227
4237,-47.75,-4.8125,-63.1875,-0.09130859,0.02441406,0.140625,0.1904297,-0.2631836,-0.1796875
4241,-29.0625,-5.125,-57.6875,-0.1030273,0.04003906,0.1826172,0.1938477,-0.2607422,-0.1875
4245,-21.0625,-6.375,-48.0625,-0.1030273,0.09033203,0.2060547,0.1987305,-0.2568359,-0.1918945
4249,-17.25,-1.875,-41.125,-0.09521484,0.1176758,0.2709961,0.1987305,-0.2543945,-0.1928711
4253,-12.3125,3.6875,-37.625,-0.1611328,0.1176758,0.2749023,0.2011719,-0.2504883,-0.1943359
4257,-6.625,3.1875,-32.6875,-0.1806641,0.1333008,0.2983398,0.2021484,-0.2504883,-0.1972656
4261,-6.375,4.25,-24.5,-0.1923828,0.15625,0.2983398,0.2055664,-0.2480469,-0.199707
4266,-10.4375,2.5,-13,-0.2504883,0.15625,0.2905273,0.2055664,-0.2470703,-0.1972656
4270,-12.875,-3.4375,-1.1875,-0.3354492,0.1254883,0.2675781,0.2070313,-0.2470703,-0.199707
4274,-4.5625,-11.375,4.5625,-0.3046875,0.1020508,0.3056641,0.2080078,-0.2456055,-0.2011719
4278,7.6875,-13.0625,5.4375,-0.2348633,0.1445313,0.3442383,0.2045898,-0.2470703,-0.2011719
4282,16.0625,-8.125,5,-0.1923828,0.1953125,0.3789063,0.203125,-0.2495117,-0.2026367
4286,17.5,-3.3125,10.25,-0.2041016,0.2416992,0.4018555,0.203125,-0.2470703,-0.2011719
4290,13.75,-3.1875,18.4375,-0.2504883,0.2612305,0.3671875,0.2045898,-0.2480469,-0.199707
4294,13.6875,-6.0625,26.625,-0.28125,0.2299805,0.3330078,0.2011719,-0.2504883,-0.199707
4298,21.5,-11.75,33.5,-0.2734375,0.2148438,0.3291016,0.199707,-0.2519531,-0.1972656
4302,30.375,-14.25,39.125,-0.215332,0.2768555,0.3637695,0.1962891,-0.2543945,-0.1943359
4306,36,-14.375,42.625,-0.1923828,0.3583984,0.4174805,0.1938477,-0.2568359,-0.1943359
4310,33.25,-10.75,45.6875,-0.1420898,0.4711914,0.4443359,0.1928711,-0.2592773,-0.1904297
4314,22.875,-7.4375,49.625,-0.215332,0.4750977,0.4135742,0.1904297,-0.2617188,-0.1875
4318,22.9375,-13.4375,51.5625,-0.1923828,0.4360352,0.390625,0.1831055,-0.2641602,-0.1865234
4322,30.25,-11.6875,53.4375,-0.09912109,0.4052734,0.390625,0.1821289,-0.2670898,-0.1850586
4326,42.125,-6.25,55.25,-0.04882813,0.4243164,0.4018555,0.1772461,-0.2705078,-0.1821289
4330,40.9375,-0.0625,59.5625,-0.09130859,0.5566406,0.3828125,0.1738281,-0.2705078,-0.1782227
4334,31.5,-4.3125,66.1875,-0.1533203,0.5991211,0.3251953,0.1689453,-0.2753906,-0.1767578
4338,26.4375,-9.75,70.8125,-0.1533203,0.5488281,0.2749023,0.1650391,-0.2783203,-0.1713867
4342,42,-14.8125,72.1875,-0.09130859,0.4711914,0.2983398,0.1591797,-0.2817383,-0.168457
4346,59.625,-11.875,70.5625,0.06689453,0.5839844,0.3637695,0.1557617,-0.2817383,-0.1660156
4350,63.0625,-0.625,72.9375,0.1328125,0.6962891,0.390625,0.1523438,-0.2856445,-0.1616211
4354,50.75,3.625,80.0625,0.01269531,0.8051758,0.3481445,0.1450195,-0.2866211,-0.1547852
4358,36.375,-2.375,86.3125,-0.02978516,0.7817383,0.2636719,0.1401367,-0.2905273,-0.1523438
4362,36.875,-9.3125,90.9375,-0.03320313,0.6845703,0.2094727,0.1357422,-0.2905273,-0.1494141
4366,55.25,-14.5625,89.75,0.04736328,0.6655273,0.2211914,0.1259766,-0.2929688,-0.1484375
4370,70.9375,-11.3125,87.9375,0.1870117,0.7817383,0.3056641,0.1225586,-0.296875,-0.144043
4374,68.6875,-4.375,89.6875,0.2412109,0.9375,0.3481445,0.1152344,-0.2983398,-0.1401367
4378,53.625,-2.1875,96.3125,0.2216797,1.019043,0.3364258,0.1069336,-0.2993164,-0.1347656
4382,37.625,-2.8125,99.6875,0.1635742,0.9956055,0.2597656,0.1035156,-0.3017578,-0.1357422
4386,32.75,-7.125,100.5,0.1445313,0.8828125,0.1904297,0.09375,-0.3041992,-0.1333008
4390,42.875,-10.0625,101,0.1948242,0.8481445,0.1479492,0.08789063,-0.3056641,-0.1318359
4395,51.125,-15.5,98.375,0.2451172,0.8789063,0.1713867,0.08056641,-0.3081055,-0.1347656
4399,54.1875,-15.25,104.9375,0.3691406,0.9682617,0.1904297,0.07373047,-0.3120117,-0.1289063
4403,48.5625,-13.4375,108.75,0.3378906,1.04248,0.2133789,0.06396484,-0.3120117,-0.1264648
4407,43.875,-13.8125,107.0625,0.3110352,1.045898,0.1943359,0.05957031,-0.3154297,-0.1264648
4411,43,-15,100.875,0.3691406,1.019043,0.1865234,0.05078125,-0.3193359,-0.125
4415,39.8125,-17.5,105.875,0.3808594,0.9838867,0.1518555,0.04248047,-0.3217773,-0.1210938
4419,43.9375,-21.0625,108.6875,0.5009766,0.9140625,0.1635742,0.03662109,-0.3256836,-0.1196289
4423,54,-16.75,109.625,0.5551758,0.9682617,0.1787109,0.02587891,-0.328125,-0.1166992
4427,56.25,-12.0625,107.75,0.6289063,0.9995117,0.1713867,0.01757813,-0.3305664,-0.1088867
4431,52.375,-10.9375,105.9375,0.6054688,1.022949,0.1635742,0.01269531,-0.3291016,-0.105957
4435,36,-12.3125,106.3125,0.6831055,1.030762,0.1479492,0.004394531,-0.3305664,-0.09912109
4439,28.25,-12.375,117.5625,0.6362305,0.8632813,0.05175781,-0.001953125,-0.3330078,-0.09375
4443,42.1875,-15.3125,126.1875,0.6674805,0.8442383,0.02099609,-0.009277344,-0.3305664,-0.09228516
4447,53.0625,-14.3125,119.3125,0.6401367,1.030762,0.001953125,-0.02099609,-0.3266602,-0.08544922
4451,43.4375,-23.6875,113.3125,0.6870117,1.174316,0.05566406,-0.02929688,-0.328125,-0.07763672
4455,15.625,-33.0625,108.4375,0.7993164,1.283203,0.1098633,-0.03759766,-0.3232422,-0.07617188
4459,-22.75,-39,111.875,0.8339844,1.186035,0.1210938,-0.04736328,-0.3208008,-0.07617188
4463,-48.3125,-44.25,125.1875,0.8110352,1.120117,0.1098633,-0.05810547,-0.3154297,-0.07763672
4467,-60.4375,-50.5,133.375,0.7490234,1.026855,0.02490234,-0.06494141,-0.3105469,-0.08007813
4471,-57.125,-56.875,123.0625,0.7490234,0.9682617,-0.001464844,-0.07714844,-0.3017578,-0.08544922
4475,-40.25,-56.1875,111.0625,0.7797852,0.8325195,-0.02050781,-0.08886719,-0.2929688,-0.08984375
4479,-12.125,-54.6875,92.75,0.7993164,0.7817383,-0.009277344,-0.09472656,-0.2880859,-0.09082031
4483,8.375,-53.5,80.8125,0.9155273,0.809082,0.02880859,-0.1030273,-0.2841797,-0.09082031
4487,28,-46.125,86.875,1.039551,0.7431641,0.05566406,-0.112793,-0.2783203,-0.09228516
4491,50.625,-32.3125,102.1875,1.02002,0.8286133,0.07519531,-0.1186523,-0.2744141,-0.09375
4495,67.5,-23.4375,106.75,0.8999023,0.9257813,0.05957031,-0.128418,-0.2695313,-0.08984375
4499,83.9375,-19.5,102.8125,0.8417969,0.972168,0.04785156,-0.1376953,-0.2670898,-0.08837891
4503,96.375,-15.75,93.75,0.8417969,1.04248,0.09814453,-0.1425781,-0.2617188,-0.08544922
4507,102.25,-11.625,82.75,0.8457031,1.053711,0.125,-0.1494141,-0.2607422,-0.08300781
4511,104.6875,-5.9375,82.1875,0.8803711,1.084961,0.1479492,-0.1567383,-0.2607422,-0.07617188
4515,97.25,-2.0625,84.125,0.8300781,1.158691,0.1713867,-0.1591797,-0.2583008,-0.07763672
4519,87.375,-0.75,79.8125,0.7993164,1.174316,0.1826172,-0.1674805,-0.2543945,-0.07324219
4524,79.625,2.9375,72.125,0.8149414,1.135742,0.1826172,-0.1733398,-0.2543945,-0.06933594
4528,82.375,9.875,59.5,0.8222656,1.038574,0.1748047,-0.1748047,-0.2543945,-0.06787109
4532,88.375,17.875,50.6875,0.8071289,1.069336,0.1674805,-0.1772461,-0.2529297,-0.06396484
4536,82.0625,23.1875,40.1875,0.7373047,1.193848,0.1098633,-0.1816406,-0.2519531,-0.06103516
4540,72.4375,22.125,30.5625,0.5976563,1.081055,0.07128906,-0.1831055,-0.2529297,-0.05957031
4544,74.3125,13.3125,23.5625,0.5898438,1.057617,0.05566406,-0.184082,-0.2529297,-0.05859375
4548,74.1875,11.25,14.875,0.7529297,1.092773,0.1328125,-0.1875,-0.2529297,-0.05419922
4552,64.875,17.1875,12.875,0.7915039,1.255859,0.1943359,-0.1855469,-0.2519531,-0.05273438
4556,44.25,23.9375,3.875,0.8261719,1.368652,0.1982422,-0.1855469,-0.2529297,-0.04736328
4560,19.375,30.875,-10.375,0.690918,1.345215,0.06347656,-0.1865234,-0.2543945,-0.05029297
4564,1.125,20.9375,-19.3125,0.5551758,1.255859,0.005859375,-0.1816406,-0.2519531,-0.05175781
4568,-17,7.875,-26.6875,0.5859375,1.228516,-0.001464844,-0.1816406,-0.2529297,-0.05175781
4572,-31.9375,2.375,-31.6875,0.6362305,1.209473,-0.001464844,-0.1806641,-0.2543945,-0.05419922
4576,-46.5625,-1,-39.625,0.659668,1.221191,-0.01660156,-0.1782227,-0.2543945,-0.05273438
4580,-63.5625,-4.8125,-48,0.675293,1.228516,-0.04394531,-0.1757813,-0.2558594,-0.05712891
4584,-76.6875,-9.75,-53.125,0.6870117,1.150879,-0.04736328,-0.1723633,-0.2558594,-0.05957031
4588,-79.875,-11.6875,-57.0625,0.7216797,1.112305,-0.02050781,-0.1723633,-0.2558594,-0.06396484
4592,-79.1875,-10.1875,-63.9375,0.7719727,1.146973,0.02099609,-0.1674805,-0.2583008,-0.06640625
4596,-77.8125,-7.125,-73.875,0.8110352,1.213379,0.06738281,-0.1625977,-0.2568359,-0.06640625
4600,-81.5,-2.75,-81.9375,0.8149414,1.279297,0.07519531,-0.1582031,-0.2583008,-0.07080078
4604,-82.5,-0.25,-88,0.7758789,1.248047,0.08251953,-0.1542969,-0.2592773,-0.07177734
4608,-75.4375,3.25,-94,0.8071289,1.244141,0.1210938,-0.1474609,-0.2592773,-0.07324219
4612,-63.75,10.4375,-103.8125,0.8300781,1.263672,0.1518555,-0.1435547,-0.2631836,-0.07324219
4616,-52.9375,18.8125,-113.875,0.8803711,1.345215,0.2021484,-0.1342773,-0.2641602,-0.07080078
4620,-50.375,27.6875,-122.375,0.9077148,1.461914,0.2402344,-0.1245117,-0.2695313,-0.07177734
4624,-59.6875,35.1875,-131.5625,0.9077148,1.527832,0.2211914,-0.1176758,-0.2729492,-0.06933594
4628,-70.125,38.125,-135.1875,0.8574219,1.481445,0.1557617,-0.1069336,-0.2783203,-0.06933594
4632,-70.4375,37.25,-140.4375,0.8652344,1.407715,0.1367188,-0.09228516,-0.2856445,-0.06640625
4636,-60.0625,39.625,-149.9375,0.8920898,1.380371,0.140625,-0.08398438,-0.2919922,-0.06640625
4640,-50.125,42.375,-160.125,0.9423828,1.442383,0.1748047,-0.07128906,-0.2993164,-0.06933594
4644,-53.0625,45.5625,-167.8125,0.9697266,1.535645,0.1865234,-0.05419922,-0.3105469,-0.07080078
4648,-68.375,45.6875,-168.5625,0.9311523,1.531738,0.159668,-0.04394531,-0.3144531,-0.07470703
4653,-81.6875,42.375,-166,0.8730469,1.422852,0.09814453,-0.02832031,-0.3242188,-0.08300781
4657,-80.75,38.875,-169.3125,0.8574219,1.267578,0.04443359,-0.01513672,-0.328125,-0.09228516
4661,-64.5625,40.0625,-176.1875,0.8959961,1.178223,0.08251953,-0.004394531,-0.3320313,-0.1020508
4665,-56.1875,40.9375,-179.625,0.8769531,1.232422,0.1328125,0.01074219,-0.3330078,-0.1113281
4669,-61.875,39.125,-179.6875,0.8535156,1.251953,0.1674805,0.02587891,-0.3305664,-0.1210938
4673,-67.125,38.1875,-174.25,0.7954102,1.120117,0.1826172,0.03417969,-0.3266602,-0.1279297
4677,-60,40.75,-167.6875,0.7875977,1.015137,0.1943359,0.04882813,-0.3193359,-0.1357422
4681,-42.125,49.5,-165.875,0.7680664,0.9838867,0.2329102,0.06152344,-0.3095703,-0.1401367
4685,-34.6875,52.0625,-171.3125,0.6870117,1.108398,0.2290039,0.06982422,-0.3041992,-0.1386719
4689,-46.75,47.375,-170,0.6210938,1.13916,0.2172852,0.08447266,-0.2983398,-0.1386719
4693,-67.625,41.5625,-165.125,0.5859375,1.053711,0.1982422,0.09960938,-0.2895508,-0.1357422
4697,-78.3125,37.25,-156.0625,0.527832,0.8789063,0.125,0.105957,-0.2895508,-0.1333008
4701,-77.25,32.1875,-153.4375,0.5048828,0.7626953,0.08642578,0.1186523,-0.2832031,-0.1333008
4705,-78.75,28.875,-150.6875,0.4658203,0.7041016,0.08251953,0.1333008,-0.2807617,-0.1333008
4709,-84.4375,23.25,-141.9375,0.3886719,0.6420898,0.08642578,0.1416016,-0.2768555,-0.1357422
4713,-98.5,20.0625,-140.875,0.4116211,0.6962891,0.1020508,0.1547852,-0.2768555,-0.1386719
4717,-123.375,22.375,-142.3125,0.4155273,0.7041016,0.1132813,0.1665039,-0.2719727,-0.1469727
4721,-147.9375,23.5625,-137.375,0.3149414,0.5761719,0.08642578,0.1748047,-0.2670898,-0.1494141
4725,-157.0625,17.1875,-129.6875,0.09765625,0.3349609,0.04052734,0.1865234,-0.2592773,-0.1630859
4729,-141.5625,4.9375,-126.125,-0.02978516,0.140625,0.05175781,0.1948242,-0.2480469,-0.175293
4733,-116.375,0.375,-124.3125,-0.01025391,0.1020508,0.140625,0.2021484,-0.2431641,-0.1835938
4737,-94.125,3.9375,-122.6875,0.01269531,0.15625,0.2709961,0.2094727,-0.2319336,-0.1943359
4741,-83.875,13.375,-122.0625,0.03564453,0.2456055,0.3330078,0.2163086,-0.2216797,-0.2026367
4745,-76.8125,19.625,-119.6875,-0.05664063,0.1992188,0.3251953,0.2202148,-0.2119141,-0.206543
4749,-68.0625,20.1875,-110.9375,-0.1381836,0.09033203,0.2905273,0.2270508,-0.2016602,-0.2109375
4753,-55.5625,16.8125,-101.5625,-0.1728516,0.03222656,0.2441406,0.2319336,-0.1904297,-0.2177734
4757,-40.375,14.125,-90.125,-0.2270508,-0.03369141,0.2480469,0.2368164,-0.1870117,-0.21875
4761,-28,9.4375,-79.25,-0.3046875,-0.06445313,0.2329102,0.2426758,-0.1782227,-0.2216797
4765,-14.875,-0.1875,-62.4375,-0.3549805,-0.1230469,0.2905273,0.2436523,-0.1694336,-0.2246094
4769,-2.875,-8.875,-40.1875,-0.3085938,-0.09179688,0.355957,0.2451172,-0.1669922,-0.2270508
4773,3.8125,-9.25,-24.5625,-0.2041016,0.04003906,0.4135742,0.2460938,-0.1655273,-0.2285156
4777,4.875,2.5,-17.875,-0.2080078,0.121582,0.4633789,0.2460938,-0.1621094,-0.230957
4782,6.125,11.75,-16.9375,-0.296875,0.1293945,0.4521484,0.2475586,-0.1630859,-0.2299805
4786,7.9375,13.1875,-16.4375,-0.347168,0.07861328,0.4057617,0.2485352,-0.1606445,-0.2285156
4790,13.6875,9.375,-11.9375,-0.362793,0.05126953,0.3637695,0.25,-0.1621094,-0.2270508
4794,14.9375,4.8125,-5.0625,-0.3354492,0.05517578,0.3364258,0.2509766,-0.1621094,-0.2270508
4798,16.5,-1.4375,5.75,-0.3588867,0.02832031,0.3291016,0.25,-0.1630859,-0.2285156
4802,15.9375,-7.6875,16.625,-0.3242188,0.07080078,0.3095703,0.2509766,-0.1655273,-0.2246094
4806,14.75,-10.25,23.8125,-0.3085938,0.06689453,0.2983398,0.2485352,-0.1669922,-0.2246094
4810,16.625,-10.8125,25.4375,-0.2851563,0.09814453,0.2788086,0.2460938,-0.1694336,-0.2255859
4814,20.4375,-10.875,26.0625,-0.3007813,0.05126953,0.2480469,0.2451172,-0.1704102,-0.2246094
4818,25.3125,-16.5625,30.75,-0.2929688,0.06298828,0.2290039,0.2451172,-0.1733398,-0.2231445
4822,27.4375,-20.9375,35.875,-0.2583008,0.06298828,0.2290039,0.2426758,-0.1767578,-0.21875
4826,28.0625,-22.4375,39.1875,-0.1806641,0.1679688,0.2636719,0.2392578,-0.1806641,-0.2202148
4830,25.0625,-19.8125,35.3125,-0.1806641,0.2495117,0.2827148,0.2368164,-0.1821289,-0.2177734
4834,18.625,-18.9375,26.875,-0.1689453,0.3232422,0.3095703,0.2329102,-0.1870117,-0.2177734
4838,13.0625,-19.25,18.25,-0.1420898,0.3427734,0.3212891,0.2329102,-0.1855469,-0.2163086
4842,11.625,-21.5625,16.5,-0.1264648,0.269043,0.2983398,0.2270508,-0.1855469,-0.2148438
4846,11.75,-22.5,23.4375,-0.08007813,0.2885742,0.3291016,0.2270508,-0.1870117,-0.2133789
4850,13.1875,-20.8125,30.75,-0.08789063,0.269043,0.3173828,0.2246094,-0.1870117,-0.2109375
4854,24.5625,-19.8125,34.9375,-0.1147461,0.1640625,0.2866211,0.2211914,-0.1845703,-0.2080078
4858,45.625,-20.9375,43.75,-0.09912109,0.1484375,0.2944336,0.2177734,-0.1870117,-0.2080078
4862,64,-20.8125,55.5625,0.0009765625,0.3041992,0.3481445,0.2104492,-0.1904297,-0.2026367
4866,71.25,-15.5,72.375,0.08251953,0.4204102,0.425293,0.2080078,-0.1933594,-0.1972656
4870,74.4375,-7.6875,85.3125,0.06689453,0.4750977,0.4287109,0.2021484,-0.1967773,-0.1958008
4874,80.5,-4.625,99.6875,0.05908203,0.5371094,0.4287109,0.1962891,-0.2006836,-0.1918945
4878,88.0625,-3.6875,113.5625,0.01269531,0.5800781,0.4213867,0.1889648,-0.2070313,-0.1875
4882,96.0625,-6.4375,125.0625,-0.01416016,0.7001953,0.4213867,0.1821289,-0.2128906,-0.1850586
4886,96.375,-12.3125,138.1875,0.03173828,0.8129883,0.4404297,0.1713867,-0.2216797,-0.1806641
4890,91.125,-17.625,148.9375,0.04736328,0.9335938,0.4326172,0.1650391,-0.2255859,-0.1796875
4894,88.4375,-21.6875,156.75,0.1015625,0.9995117,0.4560547,0.1547852,-0.234375,-0.175293
4898,86.3125,-21.0625,153.5,0.1289063,1.100586,0.4560547,0.1450195,-0.2431641,-0.1767578
4902,82.0625,-19.1875,151.125,0.1328125,1.100586,0.4482422,0.1376953,-0.2504883,-0.1738281
4906,85.0625,-19.75,149.75,0.125,1.069336,0.4482422,0.1293945,-0.2592773,-0.1728516
4911,86.6875,-20.8125,148.0625,0.1367188,1.146973,0.4521484,0.1186523,-0.2695313,-0.1713867
4915,81.6875,-25.375,150.875,0.2026367,1.193848,0.4711914,0.1118164,-0.2729492,-0.168457
4919,76.625,-27.375,156.875,0.2836914,1.209473,0.4829102,0.1020508,-0.2856445,-0.1660156
4923,79.75,-20,156.875,0.3769531,1.244141,0.5019531,0.09033203,-0.2954102,-0.1591797
4927,84.125,-7.125,150,0.3730469,1.267578,0.4790039,0.08447266,-0.3017578,-0.1538086
4931,88.25,0.1875,141.9375,0.3457031,1.294922,0.4482422,0.07373047,-0.3066406,-0.144043
4935,84.25,1.0625,134.8125,0.3339844,1.337402,0.4213867,0.06298828,-0.3154297,-0.1333008
4939,71.75,-5.1875,133.5625,0.3769531,1.291016,0.409668,0.05566406,-0.3168945,-0.1279297
4943,79.125,2.875,143.625,0.4467773,1.189941,0.3710938,0.04394531,-0.3193359,-0.1166992
4947,82.75,12.0625,138.5,0.4428711,1.325684,0.375,0.03173828,-0.3193359,-0.1098633
4951,81.375,18.5625,132.25,0.4155273,1.341309,0.3134766,0.02490234,-0.3193359,-0.1035156
4955,80.125,18.9375,119.4375,0.4038086,1.306641,0.2480469,0.01416016,-0.3208008,-0.09521484
4959,78.4375,16.375,107.375,0.4580078,1.263672,0.2329102,0.004394531,-0.3168945,-0.08544922
4963,66.5,7.8125,104.125,0.5161133,1.244141,0.2329102,-0.0009765625,-0.3154297,-0.08154297
4967,60.5,6.875,118.0625,0.659668,1.084961,0.1982422,-0.01269531,-0.3129883,-0.07861328
4971,75.1875,18.0625,123.9375,0.6870117,0.9799805,0.1518555,-0.02490234,-0.3095703,-0.07324219
4975,89.6875,32.1875,124.5625,0.7758789,1.100586,0.1518555,-0.03076172,-0.3081055,-0.07324219
4979,95.625,49.3125,118.6875,0.7641602,1.178223,0.08642578,-0.04150391,-0.3041992,-0.06933594
4983,97.875,57.1875,111.125,0.6557617,1.166504,0.005859375,-0.05224609,-0.3007813,-0.06542969
4987,92.9375,51.1875,104.5625,0.5898438,1.213379,-0.06689453,-0.05810547,-0.296875,-0.06396484
4991,77.5,36.4375,103.5625,0.578125,1.244141,-0.07861328,-0.06494141,-0.2954102,-0.06542969
4995,53,21,107,0.59375,1.395996,-0.005371094,-0.07470703,-0.2954102,-0.0625
4999,11.125,4.125,100.375,0.4931641,1.671875,0.02490234,-0.07958984,-0.2944336,-0.06542969
5003,-36.125,-19.6875,70.5625,0.2993164,1.648438,0.01367188,-0.08544922,-0.2929688,-0.06933594
5007,-69.5,-55.375,51,0.1948242,1.364746,-0.02832031,-0.08886719,-0.2919922,-0.07763672
5011,-81.5,-86.25,46.0625,0.3417969,1.09668,0.02099609,-0.09375,-0.2895508,-0.08154297
5015,-77.75,-95.8125,48.9375,0.5668945,0.8828125,0.09814453,-0.09863281,-0.2895508,-0.08691406
5019,-47.6875,-73.5625,51.125,0.8730469,0.7666016,0.2480469,-0.1030273,-0.2866211,-0.09082031
5023,-11.8125,-28.1875,55.9375,0.8300781,0.7275391,0.2558594,-0.1079102,-0.2866211,-0.09228516
5027,29.875,7.125,63.25,0.6982422,0.793457,0.2519531,-0.1113281,-0.2856445,-0.09667969
5031,54.9375,29.6875,76.8125,0.5512695,0.9414063,0.2402344,-0.1152344,-0.2841797,-0.09375
5035,80.5625,48.8125,79.4375,0.4541016,1.045898,0.2329102,-0.1201172,-0.2856445,-0.09375
5040,106.375,65.25,79.8125,0.3652344,1.283203,0.2597656,-0.1210938,-0.2856445,-0.08984375
5044,112.375,75.125,67.9375,0.1557617,1.65625,0.3056641,-0.1245117,-0.2856445,-0.08544922
5048,79.3125,61.375,37.125,-0.1342773,2.134277,0.3330078,-0.1259766,-0.2866211,-0.08447266
5052,16.75,25.0625,2.4375,-0.1108398,2.122559,0.2866211,-0.1259766,-0.2866211,-0.08007813
5056,-16.9375,8.25,-27.0625,0.2333984,1.52002,0.2480469,-0.1259766,-0.2866211,-0.08007813
5060,-30.25,-3.5,-42.1875,0.2915039,1.263672,0.1826172,-0.1245117,-0.2866211,-0.08154297
5064,-46,-18.5,-40.5,0.4389648,1.174316,0.1787109,-0.1210938,-0.2866211,-0.08300781
5068,-55.625,-21.3125,-40.375,0.543457,1.057617,0.2060547,-0.1186523,-0.2866211,-0.08691406
5072,-53,-15.125,-48.875,0.5976563,1.069336,0.2172852,-0.1186523,-0.2841797,-0.08691406
5076,-55.375,-9.3125,-57.75,0.5087891,1.158691,0.2250977,-0.1137695,-0.2856445,-0.08984375
5080,-63.25,-13.875,-68.9375,0.4467773,1.236328,0.2211914,-0.112793,-0.2856445,-0.09228516
5084,-76.3125,-23,-75,0.4116211,1.263672,0.2133789,-0.109375,-0.2832031,-0.09521484
5088,-88.25,-31.4375,-79.875,0.4389648,1.302734,0.2250977,-0.1044922,-0.2832031,-0.09667969
5092,-98.9375,-38.9375,-84,0.4775391,1.314453,0.2211914,-0.1010742,-0.2832031,-0.1005859
5096,-105.5625,-39.5,-85.75,0.5708008,1.294922,0.2636719,-0.09863281,-0.2817383,-0.1005859
5100,-104.1875,-34.625,-89.375,0.559082,1.221191,0.2866211,-0.09375,-0.2807617,-0.1035156
5104,-94.1875,-26.5625,-93.1875,0.6015625,1.225098,0.3291016,-0.08886719,-0.2807617,-0.1044922
5108,-81.875,-11.8125,-101.4375,0.6328125,1.291016,0.3828125,-0.08398438,-0.2807617,-0.1044922
5112,-74,2.0625,-108.375,0.609375,1.364746,0.4174805,-0.07714844,-0.2841797,-0.1035156
5116,-70.0625,12.8125,-114.75,0.5708008,1.39209,0.425293,-0.06884766,-0.2832031,-0.1035156
5120,-63.25,21.6875,-122.75,0.543457,1.395996,0.4287109,-0.06152344,-0.2866211,-0.1020508
5124,-60.125,30.6875,-130,0.543457,1.473633,0.4365234,-0.04980469,-0.2919922,-0.1020508
5128,-60.875,37.9375,-135.375,0.4814453,1.442383,0.4213867,-0.03759766,-0.296875,-0.1020508
5132,-62.6875,36.25,-135.625,0.3652344,1.461914,0.4213867,-0.02832031,-0.3007813,-0.1020508
5136,-66.6875,28.625,-136.5625,0.3339844,1.477539,0.4599609,-0.01416016,-0.3081055,-0.1044922
5140,-61.9375,31.1875,-131.1875,0.2797852,1.43457,0.5556641,0.0009765625,-0.3120117,-0.105957
5144,-58.1875,28.1875,-139.25,0.2412109,1.753418,0.6713867,0.009277344,-0.3154297,-0.112793
5148,-77.1875,19.3125,-159.75,0.3730469,2.134277,0.7558594,0.02490234,-0.3178711,-0.1210938
5152,-120.75,5.875,-175.375,0.4970703,2.219727,0.7558594,0.03808594,-0.3193359,-0.1357422
5156,-159.4375,-2.5,-181.25,0.6791992,1.95166,0.6674805,0.04882813,-0.3168945,-0.1484375
5160,-170.0625,3.25,-186.6875,0.8574219,1.59375,0.5366211,0.06298828,-0.3041992,-0.1713867
5164,-157.375,19.3125,-187.75,0.9658203,1.267578,0.4521484,0.07470703,-0.2880859,-0.1889648
5169,-134.3125,41.6875,-185.0625,0.9423828,1.081055,0.3637695,0.08300781,-0.2753906,-0.1958008
5173,-114.4375,56.3125,-179.5625,0.7954102,0.9799805,0.2709961,0.09277344,-0.2568359,-0.2026367
5177,-95.375,63.875,-170.9375,0.6982422,0.9023438,0.2172852,0.105957,-0.2431641,-0.199707
5181,-72.625,71.8125,-165,0.6171875,0.855957,0.2290039,0.1142578,-0.2358398,-0.1972656
5185,-58.8125,78.1875,-168.4375,0.5200195,0.9335938,0.2133789,0.128418,-0.2280273,-0.1918945
5189,-57.6875,77.5625,-166.9375,0.4311523,0.9023438,0.1787109,0.1425781,-0.2246094,-0.1875
5193,-55.625,72.3125,-163.125,0.3110352,0.7666016,0.1289063,0.1523438,-0.2216797,-0.1835938
5197,-47,63.625,-159.3125,0.2104492,0.6225586,0.08642578,0.1674805,-0.2167969,-0.1806641
5201,-38.25,50.5,-151.25,0.140625,0.5371094,0.06347656,0.1821289,-0.2143555,-0.1806641
5205,-30.6875,33.0625,-134.375,0.05517578,0.3740234,0.04443359,0.1904297,-0.2119141,-0.1796875
5209,-25.125,16.75,-117.5625,0.1132813,0.4750977,0.105957,0.2021484,-0.2080078,-0.1835938
5213,-32.3125,14.875,-115.625,0.2177734,0.6381836,0.1943359,0.2128906,-0.2080078,-0.1875
5217,-45.375,21.8125,-119.25,0.1484375,0.5253906,0.1982422,0.2163086,-0.2006836,-0.1918945
5221,-45.9375,21.75,-118.6875,0.05908203,0.315918,0.1674805,0.2246094,-0.1933594,-0.1972656
5225,-35.625,21.875,-114.375,0.01660156,0.1293945,0.1289063,0.2294922,-0.1855469,-0.2026367
5229,-13.8125,25.4375,-106.875,0.0009765625,-0.03759766,0.1865234,0.2368164,-0.1821289,-0.2041016
5233,5.8125,26.4375,-92.375,-0.08398438,-0.05664063,0.1787109,0.2436523,-0.1743164,-0.2080078
5237,15.8125,15.9375,-72,-0.1689453,-0.01416016,0.1713867,0.2485352,-0.1704102,-0.2080078
5241,14.375,6.25,-54.25,-0.1147461,0.1484375,0.2368164,0.2509766,-0.1694336,-0.2094727
5245,5.5625,11.75,-53.0625,-0.1186523,0.2456055,0.2866211,0.2519531,-0.1645508,-0.2133789
5249,4.625,21.625,-59.1875,-0.1806641,0.1679688,0.3212891,0.2558594,-0.1606445,-0.2133789
5253,12.625,26,-63.1875,-0.28125,0.04736328,0.3134766,0.2543945,-0.1582031,-0.2133789
5257,19.9375,21.4375,-56.8125,-0.3085938,0.03222656,0.340332,0.2602539,-0.1557617,-0.2163086
5261,17.25,11.375,-42.875,-0.3242188,0.07861328,0.4018555,0.2626953,-0.1508789,-0.2133789
5265,10.0625,5,-27.125,-0.3125,0.1333008,0.4482422,0.2626953,-0.1518555,-0.2119141
5269,0.6875,3.3125,-19.5625,-0.3085938,0.1992188,0.4633789,0.2626953,-0.1479492,-0.2148438
5273,-5,3.25,-17.75,-0.3745117,0.1523438,0.4404297,0.2626953,-0.1469727,-0.2133789
5277,-4.5625,-1.375,-14.8125,-0.4208984,0.1137695,0.425293,0.2641602,-0.1455078,-0.2148438
5281,-4.3125,-10.625,-11.625,-0.4091797,0.121582,0.4404297,0.2666016,-0.1469727,-0.2163086
