Packet number,Gyroscope X (deg/s),Gyroscope Y (deg/s),Gyroscope Z (deg/s),Accelerometer X (g),Accelerometer Y (g),Accelerometer Z (g),Magnetometer X (G),Magnetometer Y (G),Magnetometer Z (G)
0,5.1875,13.5,-1.6875,-0.3432617,-0.9428711,0.03662109,0.5795898,0.2114258,-0.02587891
4,4.5,8.75,-2.1875,-0.3510742,-1.004883,0.05957031,0.559082,0.2011719,-0.04345703
8,8.8125,4.1875,-7.3125,-0.246582,-1.043945,0.06347656,0.5258789,0.1875,-0.06396484
12,10.375,-2.6875,-9.8125,-0.1572266,-1.094238,0.04052734,0.4912109,0.1748047,-0.07861328
16,14.75,1.3125,-25.0625,0.09375,-1.152344,0.01367188,0.4189453,0.1601563,-0.1020508
20,18.75,13.875,-42.375,0.2758789,-1.276855,0.05957031,0.3198242,0.1635742,-0.1210938
24,31.3125,36.3125,-65.8125,0.4658203,-1.405273,0.1171875,0.2460938,0.1699219,-0.1279297
28,47.8125,71.75,-85.1875,0.5551758,-1.48291,0.1904297,0.1499023,0.1884766,-0.1279297
32,61.9375,108.625,-97.3125,0.4428711,-1.517578,0.1826172,0.08447266,0.2026367,-0.1225586
36,71.5625,130.125,-99.0625,0.2255859,-1.572266,0.1748047,0.05712891,0.2099609,-0.1196289
40,78.9375,132.375,-104.4375,0.03955078,-1.552734,0.1518555,0.03417969,0.2124023,-0.1166992
44,81.125,117.625,-108,-0.06054688,-1.486816,0.1210938,0.02001953,0.2124023,-0.1181641
48,73.3125,98.5625,-115.125,-0.08007813,-1.424316,0.1713867,0.01416016,0.2099609,-0.1181641
52,67.4375,75.9375,-122.5,-0.1689453,-1.513672,0.2709961,0.009277344,0.2060547,-0.1166992
56,71.625,51.6875,-129.5625,-0.1303711,-1.525391,0.3442383,0.003417969,0.2026367,-0.1157227
60,72.4375,37.6875,-132.3125,-0.08007813,-1.525391,0.3481445,-0.0009765625,0.2011719,-0.1113281
64,69,24.6875,-136.25,-0.07617188,-1.479004,0.3442383,-0.0078125,0.1987305,-0.105957
68,65.625,14.5,-140.9375,-0.03320313,-1.560547,0.3945313,-0.01855469,0.2001953,-0.09765625
72,69.5,13.6875,-144.3125,0.004882813,-1.61084,0.4599609,-0.0234375,0.2001953,-0.08837891
76,75.625,20.25,-145.3125,0.02441406,-1.630371,0.4829102,-0.03759766,0.1987305,-0.07861328
80,83.5625,25.375,-148.6875,0.0009765625,-1.61084,0.425293,-0.05566406,0.2036133,-0.07177734
84,85,21.0625,-153.125,-0.1108398,-1.544922,0.3710938,-0.06640625,0.2060547,-0.07080078
88,81.0625,5.4375,-157.1875,-0.1611328,-1.564453,0.3710938,-0.08886719,0.2084961,-0.06542969
93,81.8125,-6.4375,-161.375,-0.1069336,-1.587891,0.4560547,-0.1103516,0.2124023,-0.06933594
97,89,-10.75,-163.375,-0.05273438,-1.599121,0.4750977,-0.1259766,0.2138672,-0.07470703
101,97.8125,-6.4375,-161.6875,-0.01806641,-1.568359,0.4633789,-0.1474609,0.2138672,-0.08691406
105,99.9375,-5.9375,-159.5625,-0.06054688,-1.401367,0.3291016,-0.1640625,0.2124023,-0.1020508
109,81.25,-24.0625,-154.25,-0.1381836,-1.269043,0.2749023,-0.1733398,0.2075195,-0.1166992
113,66.25,-49.25,-159.375,-0.08789063,-1.374023,0.3481445,-0.184082,0.1972656,-0.1333008
117,69.125,-59,-167.875,0.1054688,-1.447754,0.4907227,-0.1938477,0.1835938,-0.1494141
121,73.9375,-47.75,-166.5625,0.206543,-1.358398,0.4711914,-0.2006836,0.1689453,-0.1547852
125,71.625,-36.625,-163.6875,0.1674805,-1.327148,0.4560547,-0.2021484,0.1474609,-0.1645508
129,74.3125,-33.625,-164.25,0.1210938,-1.331055,0.4521484,-0.203125,0.1264648,-0.1660156
133,80.125,-28.875,-165.875,0.125,-1.338867,0.4868164,-0.206543,0.1113281,-0.1606445
137,89.3125,-21.625,-164.5,0.1132813,-1.207031,0.4135742,-0.2104492,0.09521484,-0.1523438
141,87.25,-22.9375,-162.1875,0.01269531,-1.032227,0.3134766,-0.215332,0.08007813,-0.1455078
145,75.8125,-39.25,-162.125,0.008789063,-0.8647461,0.2368164,-0.2211914,0.07519531,-0.1386719
149,57.875,-56.4375,-159.125,0.05126953,-0.8144531,0.2597656,-0.2304688,0.06494141,-0.1279297
153,51.5,-61.875,-159.125,0.1948242,-0.9116211,0.3671875,-0.2436523,0.05761719,-0.1181641
157,64,-45.625,-155.875,0.3808594,-1.008789,0.4672852,-0.2519531,0.05517578,-0.1157227
161,83.6875,-13.5625,-149.8125,0.4580078,-0.8725586,0.4018555,-0.2661133,0.04638672,-0.112793
165,85.5625,5.75,-142.875,0.2915039,-0.6240234,0.2094727,-0.2817383,0.04003906,-0.112793
169,70.875,-7.625,-142.375,0.125,-0.4335938,0.07910156,-0.2875977,0.03369141,-0.1166992
173,55,-29,-145.3125,0.109375,-0.4414063,0.125,-0.2983398,0.02392578,-0.1225586
177,51.6875,-29,-138.1875,0.1987305,-0.4257813,0.1982422,-0.309082,0.01123047,-0.125
181,55.1875,-15.6875,-123.625,0.2216797,-0.3598633,0.1904297,-0.3173828,0.002441406,-0.1289063
185,56.0625,-7.625,-111.75,0.190918,-0.1694336,0.09814453,-0.3208008,-0.008300781,-0.137207
189,45.0625,-6.8125,-103.9375,0.190918,-0.05273438,0.05566406,-0.3232422,-0.01708984,-0.1425781
193,34.25,-10.9375,-97.6875,0.190918,-0.002441406,0.06347656,-0.3271484,-0.02685547,-0.1455078
197,24.75,-12.25,-93.5,0.206543,0.04736328,0.1132813,-0.3295898,-0.03710938,-0.1508789
201,19.25,-13.6875,-85.625,0.1132813,0.09423828,0.1328125,-0.3295898,-0.04589844,-0.1547852
205,16.25,-18.5625,-74.625,0.07861328,0.2226563,0.1098633,-0.3305664,-0.05322266,-0.15625
209,3.5,-22.6875,-61.375,0.008789063,0.2885742,0.105957,-0.3305664,-0.06201172,-0.1577148
213,-6,-34.8125,-51.375,-0.07617188,0.3740234,0.09033203,-0.3330078,-0.06445313,-0.1577148
217,-13.375,-52.5625,-42.6875,-0.1264648,0.3505859,0.09423828,-0.331543,-0.06835938,-0.15625
222,-19.6875,-71.5625,-33.0625,0.03955078,0.3388672,0.1748047,-0.3364258,-0.07080078,-0.1523438
226,-18.1875,-68.5625,-23.1875,0.2104492,0.2226563,0.3134766,-0.3364258,-0.07324219,-0.1455078
230,-17.25,-50.6875,-20.25,0.3110352,0.3271484,0.2709961,-0.3378906,-0.07324219,-0.1425781
234,-14.625,-34.875,3.75,0.3071289,0.2807617,0.2558594,-0.3413086,-0.07421875,-0.1386719
238,-16.6875,-16.6875,19.9375,0.3769531,0.21875,0.3251953,-0.3413086,-0.07421875,-0.1333008
242,-11.9375,-1.1875,27.3125,0.3457031,0.171875,0.3637695,-0.3413086,-0.07080078,-0.1347656
246,-2.375,9.625,35.9375,0.3266602,0.1137695,0.3789063,-0.3422852,-0.06835938,-0.1333008
250,8.8125,16.0625,43.625,0.3110352,0.1640625,0.2788086,-0.3413086,-0.06445313,-0.1303711
254,1.6875,16.5625,54,0.3378906,0.2768555,0.1982422,-0.3413086,-0.06054688,-0.1289063
258,-10,19.5,62.875,0.3378906,0.237793,0.1748047,-0.3413086,-0.05712891,-0.1318359
262,-23,17.375,73.375,0.2954102,0.1601563,0.2290039,-0.3398438,-0.04833984,-0.1289063
266,-27.75,12.0625,83.4375,0.3071289,-0.04150391,0.3095703,-0.3413086,-0.04296875,-0.1289063
270,-24.75,7.0625,88,0.4116211,-0.03759766,0.3173828,-0.3398438,-0.03320313,-0.1264648
274,-28.375,10.5,92,0.4970703,-0.08789063,0.3212891,-0.3378906,-0.02441406,-0.1210938
278,-29.0625,15.625,92.75,0.4931641,-0.1811523,0.3173828,-0.3354492,-0.01708984,-0.1196289
282,-25.5625,18,91.125,0.4541016,-0.2124023,0.2983398,-0.3330078,-0.006835938,-0.1166992
286,-26.6875,18.4375,93.375,0.4467773,-0.2084961,0.2788086,-0.3295898,0,-0.1113281
290,-31.4375,23.6875,99.8125,0.4506836,-0.2241211,0.2709961,-0.3256836,0.007324219,-0.1113281
294,-38,27.5625,109.1875,0.3808594,-0.2431641,0.2290039,-0.3198242,0.01611328,-0.1074219
298,-48.5,22.8125,107.8125,0.3266602,-0.3208008,0.2290039,-0.3139648,0.02490234,-0.1044922
302,-51.6875,12.625,109.9375,0.3730469,-0.453125,0.2827148,-0.3056641,0.03125,-0.1005859
306,-57.0625,7.75,111.6875,0.3535156,-0.5620117,0.3134766,-0.2998047,0.03857422,-0.09912109
310,-52.125,3.1875,110.1875,0.4233398,-0.565918,0.3442383,-0.2875977,0.04638672,-0.09082031
314,-53.8125,8.1875,116.5625,0.4272461,-0.6123047,0.3330078,-0.2817383,0.04882813,-0.08837891
318,-55.125,7.9375,121.125,0.3769531,-0.6357422,0.2636719,-0.2685547,0.05517578,-0.08984375
322,-59.75,2.5625,121.125,0.3339844,-0.6977539,0.2480469,-0.2568359,0.06103516,-0.09082031
326,-58.1875,2.625,121.0625,0.3999023,-0.7832031,0.2788086,-0.2509766,0.06005859,-0.08984375
330,-54.625,11.4375,122.1875,0.3847656,-0.8686523,0.3134766,-0.2412109,0.06494141,-0.09765625
334,-52.25,12.75,121.25,0.3535156,-0.8066406,0.2944336,-0.2329102,0.07128906,-0.1044922
338,-56.3125,8.875,120.875,0.2993164,-0.8647461,0.3291016,-0.2280273,0.07617188,-0.1098633
342,-59,0.6875,119.1875,0.2646484,-0.9155273,0.3095703,-0.2236328,0.08398438,-0.1181641
346,-56.4375,-1.3125,123.75,0.2954102,-1.129395,0.3481445,-0.2197266,0.09130859,-0.1264648
351,-49.5,0.625,128.5,0.3417969,-1.098145,0.3330078,-0.2172852,0.1049805,-0.1318359
355,-46.5625,7.875,129.5,0.3535156,-1.144531,0.3291016,-0.21875,0.1201172,-0.1386719
359,-45.125,12,131.6875,0.3730469,-1.136719,0.3134766,-0.222168,0.1386719,-0.1401367
363,-44.125,17.0625,128.875,0.3925781,-1.136719,0.3330078,-0.2236328,0.1523438,-0.1386719
367,-43,23.4375,124.1875,0.3730469,-1.207031,0.3710938,-0.2255859,0.1713867,-0.1289063
371,-35.375,28.5625,124.1875,0.3032227,-1.249512,0.3637695,-0.2236328,0.1899414,-0.1157227
375,-36.25,25.625,122.375,0.1635742,-1.226563,0.3056641,-0.2236328,0.1987305,-0.105957
379,-43,11.4375,121.5625,0.175293,-1.207031,0.2866211,-0.2163086,0.2084961,-0.08837891
383,-44.4375,10.9375,117.6875,0.3266602,-1.334961,0.3671875,-0.2055664,0.2138672,-0.06787109
387,-35.75,25.75,115.25,0.4580078,-1.397461,0.4018555,-0.199707,0.2148438,-0.05566406
391,-21,61.875,108.125,0.527832,-1.439941,0.4521484,-0.1855469,0.2163086,-0.04492188
395,-9.5,95.625,111.4375,0.3574219,-1.37793,0.3520508,-0.1699219,0.2138672,-0.04199219
399,-14.5,100.3125,117.4375,0.1870117,-1.183594,0.2250977,-0.1582031,0.2138672,-0.03808594
403,-31.1875,84,107.8125,0.07080078,-1.094238,0.1865234,-0.1401367,0.2084961,-0.03808594
407,-49.9375,59.6875,99.75,0.01269531,-1.125488,0.2133789,-0.1201172,0.2075195,-0.03808594
411,-59.4375,43.5625,90,0.04345703,-1.249512,0.3134766,-0.1054688,0.2050781,-0.03955078
415,-54.5,41,89.5,-0.002441406,-1.37793,0.355957,-0.08642578,0.1987305,-0.04345703
419,-52.6875,30.75,102.375,-0.05664063,-1.272949,0.3017578,-0.06884766,0.1962891,-0.05175781
423,-61.75,15.875,106.3125,-0.04492188,-1.233887,0.2749023,-0.05566406,0.1938477,-0.05957031
427,-71.625,-4,102.875,-0.006347656,-1.245605,0.2827148,-0.04003906,0.1899414,-0.06933594
431,-75.9375,-20,90.6875,0.02832031,-1.304199,0.3134766,-0.02685547,0.1899414,-0.08154297
435,-70.8125,-28.9375,77.25,0.008789063,-1.358398,0.3291016,-0.02490234,0.1899414,-0.08691406
439,-64.1875,-34.4375,69,-0.09130859,-1.327148,0.3251953,-0.02001953,0.1899414,-0.09667969
443,-55.5625,-41.9375,75.125,-0.1650391,-1.408691,0.2636719,-0.01416016,0.1923828,-0.1044922
447,-50.6875,-51,84.5,-0.1845703,-1.269043,0.1479492,-0.01513672,0.1923828,-0.1044922
451,-59.4375,-63.5625,87.375,-0.1499023,-1.117676,0.02490234,-0.01269531,0.1948242,-0.112793
455,-78.0625,-81,82.9375,-0.2270508,-1.024414,-0.05908203,-0.01171875,0.2011719,-0.1157227
459,-99.4375,-111.875,75.4375,-0.3549805,-1.043945,-0.09375,-0.01171875,0.2036133,-0.1142578
463,-110.4375,-149.4375,76.625,-0.378418,-1.288574,-0.05126953,-0.01269531,0.2099609,-0.1142578
467,-96.625,-167.125,87.6875,-0.04492188,-1.479004,0.001953125,-0.01269531,0.2172852,-0.1098633
471,-78.875,-148.5625,93.25,0.2490234,-1.350586,0.009765625,-0.009277344,0.2226563,-0.1098633
475,-80.75,-123.6875,93.625,0.2646484,-1.183594,-0.05126953,-0.003417969,0.2299805,-0.105957
480,-89.8125,-113.625,82.25,0.175293,-1.164063,-0.08203125,0.008300781,0.2363281,-0.1088867
484,-84.75,-106.3125,77.875,0.2607422,-1.432129,0.01708984,0.01757813,0.2451172,-0.1142578
488,-58.6875,-76.3125,73.9375,0.4931641,-1.486816,0.1210938,0.03320313,0.2597656,-0.1264648
492,-35.8125,-25.6875,69.0625,0.5820313,-1.338867,0.1171875,0.04394531,0.2797852,-0.1538086
496,-27.5625,8.8125,58.875,0.3652344,-1.245605,0.07128906,0.04492188,0.2924805,-0.1699219
500,-21.625,19.6875,47.9375,0.2451172,-1.300293,0.09814453,0.04052734,0.3100586,-0.1865234
504,-6.875,30.75,33.9375,0.2333984,-1.37793,0.1557617,0.03320313,0.3173828,-0.1943359
508,9.3125,29.6875,16.375,0.05908203,-1.308105,0.04052734,0.03173828,0.3188477,-0.1958008
512,12.3125,17.25,2.6875,-0.06835938,-1.148438,-0.02832031,0.03417969,0.3149414,-0.1918945
516,4.875,1.875,-8.9375,-0.1225586,-1.036133,-0.08203125,0.03564453,0.3110352,-0.1850586
520,-0.875,-4.5625,-15.5625,-0.09521484,-1.105957,-0.02832031,0.03808594,0.3022461,-0.1767578
524,2.9375,-0.5625,-11.8125,-0.02587891,-1.183594,0.009765625,0.03417969,0.2963867,-0.1660156
528,12.9375,15.0625,-12.5625,0.08642578,-1.179688,0.03662109,0.03808594,0.2851563,-0.1523438
532,16.875,26.5625,-19.1875,0.1210938,-1.167969,0.02099609,0.03808594,0.2773438,-0.1425781
536,25.4375,40.3125,-30.1875,0.2138672,-1.272949,0.08642578,0.03417969,0.2685547,-0.1264648
540,40.625,62.5,-42.8125,0.2216797,-1.385742,0.144043,0.02832031,0.2548828,-0.1142578
544,54.375,78.5625,-50.6875,0.09765625,-1.370117,0.1171875,0.0234375,0.2509766,-0.1074219
548,57.5,76.9375,-55.375,-0.05273438,-1.350586,0.04443359,0.01757813,0.2426758,-0.1005859
552,52.3125,56.9375,-59.8125,-0.1030273,-1.319336,0.02099609,0.01074219,0.2348633,-0.09765625
556,47.6875,38.6875,-70,0.03173828,-1.447754,0.07519531,0.006835938,0.2324219,-0.09521484
560,54.4375,35.1875,-79.0625,0.2138672,-1.560547,0.1367188,0.0009765625,0.2285156,-0.09765625
564,59.8125,44.1875,-87.3125,0.3071289,-1.564453,0.144043,-0.001953125,0.2236328,-0.09667969
568,61.375,48.75,-94.9375,0.2685547,-1.568359,0.1289063,-0.005859375,0.2172852,-0.09667969
572,60.625,42.125,-105.875,0.1791992,-1.572266,0.1171875,-0.0078125,0.2138672,-0.09521484
576,59.9375,29.5,-118,0.1674805,-1.591309,0.1132813,-0.01171875,0.2084961,-0.09228516
580,59.3125,22.75,-129,0.1870117,-1.626465,0.1518555,-0.01513672,0.2036133,-0.08691406
584,62.625,22.0625,-138.625,0.1831055,-1.67334,0.1787109,-0.01855469,0.2001953,-0.07763672
588,65.4375,21.875,-146.25,0.1132813,-1.665527,0.1904297,-0.02587891,0.1972656,-0.06396484
592,68,17.375,-153.25,0.04345703,-1.626465,0.1982422,-0.03320313,0.1972656,-0.05419922
596,68.8125,8.5,-159.0625,-0.01806641,-1.576172,0.2021484,-0.04833984,0.1987305,-0.03515625
600,68.5625,-0.25,-163.75,0.0009765625,-1.513672,0.2060547,-0.06982422,0.2050781,-0.01757813
604,62.5625,-8.4375,-167.75,-0.04101563,-1.412598,0.1748047,-0.08398438,0.2075195,-0.01220703
609,52.25,-19.8125,-170.5625,-0.04882813,-1.517578,0.2402344,-0.1113281,0.2138672,-0.00390625
613,52.625,-23.0625,-174.8125,0.04736328,-1.587891,0.3520508,-0.1411133,0.2172852,-0.005371094
617,63.0625,-9.9375,-178.375,0.07080078,-1.700195,0.4287109,-0.1582031,0.2197266,-0.009277344
621,78.9375,0,-179.1875,0.004882813,-1.661621,0.3945313,-0.184082,0.2226563,-0.02294922
625,89.375,6.25,-176.875,-0.05664063,-1.572266,0.3251953,-0.206543,0.2226563,-0.04492188
629,95.0625,7.875,-170.5,-0.1264648,-1.432129,0.2597656,-0.2172852,0.2211914,-0.06640625
633,87.9375,-4.3125,-161.5625,-0.1303711,-1.269043,0.1787109,-0.2294922,0.2084961,-0.09375
637,80.5625,-13.5,-161.6875,-0.002441406,-1.257324,0.2172852,-0.2304688,0.1884766,-0.1210938
641,78.4375,-16.75,-163.5,0.06689453,-1.22998,0.2402344,-0.2319336,0.1689453,-0.1347656
645,77.3125,-21.625,-161.5,0.05126953,-1.109863,0.1479492,-0.2255859,0.1401367,-0.144043
649,64.125,-31.4375,-159.875,0.1054688,-1.032227,0.1328125,-0.21875,0.1123047,-0.1401367
653,55.0625,-39.375,-157.1875,0.159668,-1.012695,0.1210938,-0.2172852,0.09619141,-0.1333008
657,47.9375,-39,-153.3125,0.2758789,-0.9970703,0.1865234,-0.2197266,0.08105469,-0.1166992
661,48,-33.1875,-149.125,0.2954102,-0.9467773,0.1826172,-0.222168,0.06884766,-0.1005859
665,40.25,-38.625,-139.875,0.2568359,-0.7949219,0.07128906,-0.2255859,0.06640625,-0.08691406
669,22.75,-57.75,-143.25,0.3339844,-0.6860352,0.02099609,-0.2353516,0.05859375,-0.07324219
673,10.3125,-68.8125,-153.9375,0.4814453,-0.7524414,0.08251953,-0.2470703,0.05517578,-0.05712891
677,10,-53.3125,-158.9375,0.6518555,-0.8066406,0.1943359,-0.2553711,0.05371094,-0.04882813
681,21.1875,-19,-153.75,0.6289063,-0.7988281,0.2133789,-0.2724609,0.04882813,-0.04052734
685,28.3125,8.4375,-142.6875,0.4541016,-0.6669922,0.1518555,-0.2875977,0.04150391,-0.03808594
689,33.125,20.625,-130.5625,0.3149414,-0.5776367,0.1171875,-0.2973633,0.03857422,-0.04052734
693,30,19.1875,-120.25,0.1870117,-0.4804688,0.1171875,-0.3081055,0.03271484,-0.04882813
697,29.0625,10.625,-110.9375,0.2294922,-0.3676758,0.1210938,-0.3222656,0.02636719,-0.05419922
701,25.9375,10.5625,-104.9375,0.3032227,-0.2314453,0.1367188,-0.328125,0.01855469,-0.05957031
705,16.3125,11.5,-101.9375,0.2685547,-0.1381836,0.144043,-0.3354492,0.01269531,-0.07080078
709,11,8.25,-102.25,0.1987305,-0.1811523,0.2060547,-0.3398438,0.001464844,-0.07763672
713,15.375,6.3125,-95.75,0.1870117,-0.1850586,0.2558594,-0.34375,-0.005859375,-0.08007813
717,23.125,9.25,-83.375,0.175293,-0.06445313,0.2368164,-0.3486328,-0.015625,-0.08837891
721,17.125,5.875,-73.3125,0.09033203,0.1875,0.1518555,-0.3486328,-0.0234375,-0.09667969
725,-4.6875,-12.5,-65.25,-0.05664063,0.1992188,0.09423828,-0.3505859,-0.02685547,-0.09912109
729,-14.25,-33.9375,-46.4375,0.02441406,0.008789063,0.2480469,-0.3505859,-0.03173828,-0.1005859
733,-9.3125,-34.4375,-38.0625,0.2797852,-0.04541016,0.3637695,-0.3544922,-0.03710938,-0.09912109
738,11.5,-21.1875,-32.3125,0.4506836,-0.01806641,0.355957,-0.3544922,-0.03564453,-0.09765625
742,19.6875,-0.375,-22.5625,0.5126953,0.1176758,0.2788086,-0.3554688,-0.04199219,-0.09765625
746,13.8125,13.6875,-16.5625,0.4580078,0.2148438,0.2094727,-0.3554688,-0.04443359,-0.1005859
750,6.1875,15.75,-9.625,0.3496094,0.1953125,0.2250977,-0.3530273,-0.04443359,-0.1020508
754,4.0625,12.5625,0,0.3149414,0.105957,0.2788086,-0.3530273,-0.04589844,-0.1035156
758,7.6875,11,12.3125,0.3847656,0.1333008,0.2788086,-0.3530273,-0.04296875,-0.105957
762,3.125,12.3125,21.3125,0.4311523,0.1875,0.2402344,-0.3520508,-0.04296875,-0.1044922
766,-4.1875,8.6875,27.75,0.4038086,0.1484375,0.2441406,-0.3520508,-0.04199219,-0.105957
770,-7.6875,0.5,31.3125,0.4194336,0.08251953,0.2827148,-0.3505859,-0.03710938,-0.1044922
774,-10,-4.1875,34.1875,0.4931641,0.07470703,0.3017578,-0.3530273,-0.03710938,-0.1044922
778,-10.0625,-2.75,37.75,0.5356445,-0.01025391,0.3095703,-0.3520508,-0.03320313,-0.1020508
782,-4.875,1.4375,40.6875,0.543457,-0.02197266,0.3095703,-0.3505859,-0.02832031,-0.1005859
786,-2.5,7.5,47,0.5356445,-0.002441406,0.2827148,-0.3520508,-0.02441406,-0.09912109
790,-8.375,12.3125,54.5625,0.4892578,0.004882813,0.2675781,-0.3496094,-0.02197266,-0.09375
794,-10.125,13.6875,59.6875,0.4428711,-0.08398438,0.2905273,-0.3486328,-0.015625,-0.09228516
798,-8.125,14.1875,65.0625,0.4272461,-0.1308594,0.2866211,-0.3461914,-0.01464844,-0.09082031
802,-6.875,11.1875,65.625,0.3959961,-0.08398438,0.2675781,-0.34375,-0.004394531,-0.08691406
806,-4.6875,11.9375,66.9375,0.3886719,-0.06835938,0.2290039,-0.3422852,0,-0.08447266
810,-9.875,13.0625,73.5625,0.2875977,-0.03369141,0.1674805,-0.3354492,0.004882813,-0.08300781
814,-20.4375,12.0625,82.9375,0.2373047,-0.06445313,0.1826172,-0.3330078,0.01123047,-0.07763672
818,-30.125,13.8125,94,0.125,-0.2163086,0.2368164,-0.3271484,0.01757813,-0.07470703
822,-34.125,4.5,109,0.01660156,-0.355957,0.2636719,-0.3208008,0.02392578,-0.07080078
826,-28.875,-8.875,118.5,0.1289063,-0.4882813,0.3134766,-0.3115234,0.03125,-0.06640625
830,-19.6875,-13.3125,121.6875,0.3110352,-0.5,0.2597656,-0.2998047,0.03857422,-0.05859375
834,-23.6875,-6.125,126,0.3999023,-0.4375,0.2021484,-0.2924805,0.04150391,-0.05419922
838,-35.4375,0.875,130.3125,0.3959961,-0.4960938,0.1943359,-0.2807617,0.04638672,-0.05175781
842,-41.0625,9.1875,139.1875,0.3110352,-0.7485352,0.2788086,-0.2651367,0.04980469,-0.05419922
846,-37.3125,5.125,146.5,0.3227539,-0.7602539,0.2788086,-0.2568359,0.05371094,-0.05957031
850,-39.25,-2.1875,145.25,0.3535156,-0.8027344,0.2636719,-0.2436523,0.05615234,-0.06542969
854,-37.3125,-5.875,140.75,0.4311523,-0.8613281,0.2675781,-0.2329102,0.06005859,-0.07324219
858,-33,3.8125,137.875,0.4697266,-0.9350586,0.3173828,-0.2255859,0.06640625,-0.08300781
862,-29.75,18.5,146.8125,0.3925781,-0.9697266,0.2597656,-0.2197266,0.07275391,-0.09667969
867,-34.125,20.75,155.9375,0.3227539,-0.9541016,0.1982422,-0.2163086,0.08251953,-0.112793
871,-42.0625,14.375,153.75,0.3769531,-0.9931641,0.2290039,-0.2138672,0.09375,-0.125
875,-46.25,10.625,151.3125,0.3339844,-1.040039,0.2172852,-0.21875,0.1152344,-0.1357422
879,-52.0625,6.25,149.125,0.2685547,-1.11377,0.1982422,-0.2294922,0.1435547,-0.144043
883,-51.6875,1.8125,147.375,0.2568359,-1.15625,0.1518555,-0.234375,0.1650391,-0.1416016
887,-55.8125,7.3125,150.125,0.3227539,-1.179688,0.1635742,-0.2412109,0.1972656,-0.1235352
891,-59.75,16.9375,159,0.2216797,-1.26123,0.1328125,-0.2436523,0.2250977,-0.09521484
895,-70.25,11.125,161.0625,0.1518555,-1.22998,0.1210938,-0.2426758,0.2363281,-0.06933594
899,-85.375,-8.5,160.625,0.09375,-1.280762,0.1132813,-0.2280273,0.2451172,-0.03369141
903,-90.9375,-29.625,153.25,0.2177734,-1.443848,0.1904297,-0.206543,0.2436523,-0.002441406
907,-84.5,-32.375,142.1875,0.3652344,-1.548828,0.2905273,-0.1948242,0.2397461,0.01855469
911,-64.6875,-11,131.3125,0.3847656,-1.653809,0.3867188,-0.1708984,0.2324219,0.03759766
915,-43.125,6.1875,137.8125,0.1289063,-1.603027,0.2558594,-0.1474609,0.2260742,0.04589844
919,-52.1875,-3.875,141.375,0.109375,-1.226563,0.09423828,-0.1259766,0.2211914,0.04980469
923,-69.4375,-31.125,122.4375,-0.006347656,-1.304199,0.02490234,-0.09716797,0.2124023,0.04736328
927,-78.5,-56,106.5625,0.02832031,-1.389648,0.1210938,-0.07128906,0.2026367,0.03759766
931,-63.3125,-49.8125,98.5,0.3227539,-1.591309,0.2788086,-0.05566406,0.1972656,0.02685547
935,-33.3125,-5.875,95.125,0.4233398,-1.61084,0.3330078,-0.03759766,0.1938477,0.006347656
939,-15.5,35,111.0625,0.3496094,-1.405273,0.159668,-0.02587891,0.1914063,-0.01464844
943,-25.5625,66.8125,120.625,0.3149414,-1.074707,-0.02050781,-0.02099609,0.1914063,-0.03125
947,-69.5625,49.3125,98.3125,-0.1689453,-0.9077148,-0.2089844,-0.01611328,0.1899414,-0.04736328
951,-92.375,-9.875,66.9375,-0.3823242,-1.312012,-0.109375,-0.01611328,0.1938477,-0.05957031
955,-73.375,-38.8125,51.5625,-0.06445313,-1.517578,0.1289063,-0.01757813,0.1962891,-0.06396484
959,-47.0625,-15.6875,63.75,0.109375,-1.622559,0.2172852,-0.02099609,0.2011719,-0.07080078
963,-25.6875,14.8125,90.625,0.08642578,-1.48291,0.1020508,-0.0234375,0.2075195,-0.07617188
967,-29.5625,14.125,104.3125,-0.06835938,-1.195313,-0.109375,-0.02099609,0.2075195,-0.07861328
971,-54,-13.5,91.25,-0.1499023,-1.059082,-0.1782227,-0.01757813,0.2099609,-0.08007813
975,-73.25,-53.5625,71.6875,-0.215332,-1.195313,-0.1669922,-0.01855469,0.21875,-0.08007813
979,-76.75,-82.5,63.8125,-0.09130859,-1.37793,-0.03222656,-0.01513672,0.2226563,-0.08007813
983,-61,-81.3125,59.4375,0.1328125,-1.471191,0.04443359,-0.01416016,0.2275391,-0.07617188
987,-41.0625,-60.1875,61.1875,0.2373047,-1.432129,0.05957031,-0.01025391,0.2348633,-0.07080078
991,-29.875,-35,63.9375,0.1870117,-1.29248,-0.02441406,-0.005859375,0.2387695,-0.07177734
996,-28.8125,-24.875,60.875,0.07080078,-1.179688,-0.1015625,0,0.2460938,-0.07177734
1000,-34,-27.875,55.25,-0.02978516,-1.133301,-0.1401367,0.01074219,0.2539063,-0.07324219
1004,-36.25,-36.1875,44.0625,0.03955078,-1.160156,-0.08984375,0.01660156,0.2587891,-0.07470703
1008,-35.8125,-33,38.125,0.03564453,-1.195313,-0.06298828,0.02587891,0.2700195,-0.07763672
1012,-32,-30.1875,33.875,-0.01025391,-1.203125,-0.04736328,0.03417969,0.28125,-0.08154297
1016,-25.875,-31.9375,30.1875,-0.04882813,-1.222656,-0.06689453,0.03808594,0.2900391,-0.08447266
1020,-19.75,-34.4375,29.6875,-0.02587891,-1.21875,-0.08203125,0.04492188,0.3012695,-0.09228516
1024,-9.8125,-22.5625,32.5,0.1484375,-1.237793,-0.06689453,0.04882813,0.3149414,-0.09912109
1028,-1,2.1875,32.0625,0.2646484,-1.222656,-0.05908203,0.04980469,0.3198242,-0.1044922
1032,3.8125,21.4375,18.6875,0.2685547,-1.129395,-0.0859375,0.05322266,0.3222656,-0.1113281
1036,6.375,30.1875,-1.4375,0.2177734,-1.171875,-0.06298828,0.05322266,0.3198242,-0.1088867
1040,11.4375,34.3125,-15.9375,0.1132813,-1.249512,-0.005371094,0.04980469,0.3125,-0.1044922
1044,22.4375,36.0625,-19.5,0.02832031,-1.296387,0.01708984,0.04736328,0.3022461,-0.09521484
1048,29.75,35.8125,-25.3125,0.07861328,-1.257324,-0.009277344,0.04492188,0.2900391,-0.08984375
1052,34.9375,39.8125,-30.8125,0.1328125,-1.312012,-0.009277344,0.04052734,0.28125,-0.08544922
1056,42,51.375,-38.3125,0.2138672,-1.385742,0.01367188,0.03173828,0.2675781,-0.08007813
1060,51.3125,65.625,-43.5,0.2026367,-1.366211,-0.009277344,0.0234375,0.2563477,-0.07617188
1064,50.3125,65.5625,-50.5625,0.1054688,-1.358398,-0.04003906,0.01904297,0.2509766,-0.07470703
1068,50.5625,54.75,-60.3125,0.09033203,-1.405273,-0.001464844,0.008300781,0.2436523,-0.07617188
1072,54.0625,46.625,-71.75,0.1210938,-1.513672,0.05566406,0.002441406,0.2363281,-0.07324219
1076,65.9375,45.1875,-81.875,0.175293,-1.583984,0.05566406,-0.003417969,0.2338867,-0.07763672
1080,74.625,51.625,-87.5625,0.2412109,-1.548828,0.02099609,-0.006835938,0.2275391,-0.07861328
1084,78.875,59.875,-94.6875,0.2026367,-1.509766,-0.04736328,-0.006835938,0.2197266,-0.08154297
1088,75,57.9375,-105.5,0.1367188,-1.439941,-0.08984375,-0.01025391,0.2138672,-0.08007813
1092,69.5625,51.6875,-113.125,0.06298828,-1.479004,-0.09375,-0.01171875,0.2084961,-0.07617188
1096,65.5,41.9375,-121.625,0.02050781,-1.501953,-0.02441406,-0.01513672,0.2026367,-0.07324219
1100,66.3125,36.75,-124.8125,0.05908203,-1.552734,0.009765625,-0.01757813,0.1972656,-0.06396484
1104,70.4375,36.5,-128.5,0.1171875,-1.564453,0.02880859,-0.02246094,0.1948242,-0.05175781
1108,69.0625,36.5,-133.0625,0.1054688,-1.494629,0.001953125,-0.03076172,0.1948242,-0.03515625
1112,62.1875,28.25,-139.8125,0.03173828,-1.533203,0.03662109,-0.0390625,0.1923828,-0.02148438
1116,61.9375,18.0625,-145.25,0.05908203,-1.580078,0.09033203,-0.05664063,0.1962891,-0.005371094
1120,66.125,18.25,-149.0625,0.1289063,-1.599121,0.1367188,-0.08300781,0.2011719,0.009277344
1125,67.875,21.125,-153.125,0.1015625,-1.552734,0.125,-0.1020508,0.2099609,0.01318359
1129,66.4375,18.625,-155.875,0.04345703,-1.509766,0.105957,-0.1318359,0.2138672,0.01318359
1133,63.8125,12.1875,-158.8125,0.03955078,-1.525391,0.144043,-0.1591797,0.2211914,0.006347656
1137,66.6875,11.9375,-161.1875,0.07861328,-1.587891,0.2250977,-0.1733398,0.2236328,-0.005371094
1141,74.6875,16.625,-160.6875,0.1132813,-1.560547,0.2441406,-0.1938477,0.2260742,-0.02441406
1145,77.25,17.3125,-157.8125,0.03955078,-1.408691,0.159668,-0.2128906,0.2260742,-0.05175781
1149,70.8125,6.875,-158.6875,-0.002441406,-1.327148,0.125,-0.2211914,0.21875,-0.07177734
1153,61.875,-9,-162.875,0.03955078,-1.29248,0.1826172,-0.2280273,0.2075195,-0.09765625
1157,60.25,-12,-163.6875,0.140625,-1.374023,0.2749023,-0.2255859,0.1850586,-0.1196289
1161,69.25,-2.5,-160.125,0.1674805,-1.37793,0.2944336,-0.2255859,0.1660156,-0.1303711
1165,75.0625,3.1875,-151.8125,0.125,-1.241699,0.2329102,-0.2197266,0.1401367,-0.1357422
1169,72.75,-0.5625,-149.5625,0.125,-1.117676,0.1635742,-0.2114258,0.1162109,-0.1347656
1173,69.5625,-5.25,-150.875,0.140625,-1.086426,0.1557617,-0.2138672,0.1025391,-0.125
1177,66.625,-5.75,-148.6875,0.1831055,-0.9580078,0.1367188,-0.2163086,0.08496094,-0.1142578
1181,57.625,-4.5625,-141.0625,0.1870117,-0.8959961,0.159668,-0.2211914,0.07617188,-0.1020508
1185,53.875,-6.5625,-138.375,0.1987305,-0.8378906,0.1479492,-0.2255859,0.07128906,-0.09228516
1189,46.875,-8.125,-134.125,0.206543,-0.7641602,0.1635742,-0.237793,0.06494141,-0.08447266
1193,42.5,-8.9375,-129.0625,0.1987305,-0.7250977,0.1635742,-0.2509766,0.06005859,-0.07617188
1197,36.5625,-11.8125,-121.8125,0.2026367,-0.6591797,0.1557617,-0.2578125,0.06005859,-0.07177734
1201,33.625,-14.5,-119.0625,0.2490234,-0.5541992,0.1557617,-0.2724609,0.05615234,-0.07080078
1205,29.875,-19.0625,-118.625,0.1987305,-0.5463867,0.1210938,-0.2866211,0.05273438,-0.06787109
1209,26,-24.5625,-113.625,0.2875977,-0.4335938,0.1479492,-0.293457,0.04882813,-0.06933594
1213,21.0625,-18.9375,-107.25,0.3535156,-0.4375,0.1713867,-0.3066406,0.04492188,-0.06933594
1217,22.625,-7.625,-96.125,0.3457031,-0.387207,0.1479492,-0.3164063,0.04003906,-0.07470703
1221,18.875,-0.3125,-84.8125,0.3266602,-0.2548828,0.1098633,-0.324707,0.03271484,-0.07763672
1225,9.25,1.75,-72.875,0.2993164,-0.1499023,0.08251953,-0.3305664,0.02734375,-0.08447266
1229,-3.5,-2.9375,-64.5,0.2797852,-0.1694336,0.1020508,-0.3330078,0.02392578,-0.08837891
1233,-8.4375,-12,-63.8125,0.3149414,-0.1538086,0.1479492,-0.3378906,0.02148438,-0.09082031
1237,-7.375,-23.3125,-70.1875,0.3691406,-0.1850586,0.2021484,-0.3422852,0.01611328,-0.09521484
1241,-0.5,-24,-74.5,0.4697266,-0.1420898,0.2749023,-0.3447266,0.008789063,-0.09912109
1245,3,-13.4375,-71.375,0.4619141,-0.1499023,0.2827148,-0.347168,0.004882813,-0.09912109
1249,8,-5.5,-63.5625,0.4311523,-0.08007813,0.2636719,-0.3486328,0,-0.09912109
1254,11.125,2.875,-54.5625,0.4233398,-0.05273438,0.2827148,-0.3505859,-0.006835938,-0.1035156
1258,11.6875,8.8125,-45.75,0.3691406,0.06298828,0.2368164,-0.3496094,-0.008300781,-0.1088867
1262,3.5,7.5,-35.6875,0.2875977,0.1098633,0.2172852,-0.3505859,-0.01464844,-0.1113281
1266,-3.3125,-0.1875,-26.5,0.2758789,0.06689453,0.2519531,-0.3496094,-0.015625,-0.112793
1270,-2.5,-4.625,-19,0.3769531,0.02441406,0.3291016,-0.3486328,-0.01708984,-0.1166992
1274,0,-1.625,-11.9375,0.4467773,0.03222656,0.3598633,-0.3496094,-0.01708984,-0.1142578
1278,1.125,0.5625,-6.8125,0.4506836,0.04003906,0.3442383,-0.3496094,-0.01806641,-0.1166992
1282,-0.1875,-1.1875,-1.0625,0.4311523,0.004882813,0.3364258,-0.3505859,-0.01806641,-0.1166992
1286,0.1875,-2.6875,5.75,0.4697266,0.004882813,0.3251953,-0.3486328,-0.01953125,-0.1166992
1290,-0.8125,-0.5,12.4375,0.5087891,0.03222656,0.3442383,-0.3486328,-0.01708984,-0.1166992
1294,0.75,4.1875,18.3125,0.5126953,0.004882813,0.3212891,-0.3520508,-0.01806641,-0.1142578
1298,-0.125,3.8125,21.125,0.4541016,0.07470703,0.2597656,-0.3486328,-0.015625,-0.1142578
1302,-2.875,-0.9375,26,0.4311523,0.06298828,0.2480469,-0.347168,-0.01464844,-0.112793
1306,-8,-1.9375,34.125,0.4389648,0.04003906,0.2368164,-0.3496094,-0.015625,-0.1113281
1310,-12.5625,-1.5,41.25,0.4428711,0.0009765625,0.2368164,-0.3505859,-0.009277344,-0.1088867
1314,-17,-3.3125,47.4375,0.4311523,-0.002441406,0.2250977,-0.3496094,-0.004394531,-0.105957
1318,-21.875,-8.4375,49.5,0.3886719,-0.06835938,0.2329102,-0.3461914,-0.001953125,-0.105957
1322,-20.5,-12.0625,52.9375,0.4116211,-0.1308594,0.2597656,-0.3447266,0.00390625,-0.1020508
1326,-15.3125,-9.875,60.4375,0.4233398,-0.2392578,0.2866211,-0.3447266,0.006347656,-0.09375
1330,-9.75,-5.1875,69,0.4389648,-0.2163086,0.2441406,-0.3398438,0.01269531,-0.09082031
1334,-11.5625,-1.8125,75.4375,0.4233398,-0.1655273,0.2060547,-0.3364258,0.01855469,-0.08837891
1338,-16.5,-1.75,79.8125,0.3847656,-0.1616211,0.1713867,-0.3354492,0.02392578,-0.08154297
1342,-22.75,-5.3125,84.8125,0.3457031,-0.2353516,0.1787109,-0.3305664,0.02734375,-0.07763672
1346,-25.625,-6.125,97.25,0.3808594,-0.3364258,0.1787109,-0.324707,0.03515625,-0.07324219
1350,-25.5,-4.4375,105.8125,0.4428711,-0.4453125,0.2133789,-0.3164063,0.04248047,-0.06787109
1354,-22.25,2.5625,106.8125,0.4428711,-0.4960938,0.2290039,-0.3115234,0.04638672,-0.06396484
1358,-23.625,-1.3125,107.75,0.3417969,-0.4765625,0.1674805,-0.3032227,0.04980469,-0.06103516
1362,-28.1875,-12.25,107.5625,0.3535156,-0.5268555,0.2060547,-0.2915039,0.05615234,-0.05712891
1366,-24.8125,-12.5625,111.5,0.4311523,-0.6318359,0.1865234,-0.2851563,0.05761719,-0.05566406
1370,-20.625,2.25,115.8125,0.4736328,-0.6860352,0.2290039,-0.2744141,0.0625,-0.05712891
1374,-16.875,14,120.8125,0.3769531,-0.6162109,0.140625,-0.2626953,0.06494141,-0.06103516
1378,-30.125,9.1875,123.0625,0.206543,-0.6005859,0.08251953,-0.2543945,0.06982422,-0.06542969
1383,-44.8125,-10.1875,130.9375,0.125,-0.7329102,0.07128906,-0.2460938,0.07519531,-0.07324219
1387,-48.4375,-25.875,135.5,0.2954102,-0.8725586,0.1479492,-0.2363281,0.08007813,-0.07617188
1391,-43.625,-20.6875,133,0.4736328,-0.9541016,0.2060547,-0.2270508,0.08886719,-0.08300781
1395,-36.3125,-4.375,128.5625,0.5087891,-0.9467773,0.2094727,-0.2236328,0.09619141,-0.09228516
1399,-35.75,10.0625,126.75,0.3110352,-1.047363,0.2021484,-0.2211914,0.1074219,-0.1035156
1403,-37.9375,4.6875,139.3125,0.190918,-1.008789,0.1132813,-0.21875,0.1176758,-0.1088867
1407,-49.0625,-5.75,142.9375,0.2138672,-1.047363,0.1171875,-0.2163086,0.1347656,-0.1142578
1411,-54,-7.125,141.375,0.3227539,-1.11377,0.1674805,-0.2197266,0.1538086,-0.112793
1415,-51.9375,-0.1875,138.5625,0.2529297,-1.214844,0.1748047,-0.2255859,0.1674805,-0.105957
1419,-46,1.5625,143.125,0.2216797,-1.249512,0.1904297,-0.2236328,0.1860352,-0.09912109
1423,-53.1875,-1.1875,146,0.1987305,-1.195313,0.1132813,-0.2211914,0.2026367,-0.08154297
1427,-63.3125,-13.25,138.625,0.1831055,-1.276855,0.140625,-0.21875,0.2099609,-0.06542969
1431,-62.9375,-23,132.0625,0.1445313,-1.405273,0.140625,-0.206543,0.21875,-0.04638672
1435,-56.125,-27.75,127.8125,0.1674805,-1.467285,0.2133789,-0.1948242,0.2211914,-0.02587891
1439,-45.5625,-25.0625,137.125,0.2954102,-1.381836,0.1210938,-0.1865234,0.2211914,-0.01757813
1443,-48.25,-13.8125,129.25,0.3496094,-1.331055,0.1020508,-0.168457,0.2197266,-0.00390625
1447,-48.375,-3.375,120.9375,0.206543,-1.334961,0.05566406,-0.1508789,0.2172852,0.002441406
1451,-47.5625,-1.625,120.1875,0.01269531,-1.45166,0.09814453,-0.1367188,0.2172852,0.004882813
1455,-51.8125,-13.8125,125,-0.05273438,-1.304199,0.009765625,-0.1201172,0.2114258,0.004882813
1459,-58.25,-27.875,121.1875,0.008789063,-1.350586,-0.001464844,-0.09960938,0.2075195,0.002441406
1463,-62.5625,-38.3125,110.875,-0.01025391,-1.304199,0.02099609,-0.08789063,0.2075195,-0.002441406
1467,-62.875,-44.625,101.75,-0.02978516,-1.374023,0.07519531,-0.07324219,0.2050781,-0.008300781
1471,-53.8125,-40.5625,103.125,-0.09912109,-1.498535,0.1367188,-0.05908203,0.2050781,-0.01904297
1475,-41.4375,-38.375,119,-0.07226563,-1.455566,0.02490234,-0.05419922,0.2026367,-0.02587891
1479,-44,-34.4375,123.3125,0.03955078,-1.327148,-0.06689453,-0.04394531,0.2036133,-0.03662109
1483,-57.375,-37.0625,115.4375,0.008789063,-1.249512,-0.09375,-0.03662109,0.2084961,-0.04492188
1487,-69.625,-48.375,100,-0.1225586,-1.319336,-0.03613281,-0.03515625,0.2084961,-0.04882813
1491,-67.5,-61.5,86.625,-0.215332,-1.428223,0.06738281,-0.03173828,0.2138672,-0.05175781
1495,-49.75,-69.6875,89.8125,-0.1264648,-1.661621,0.1479492,-0.03076172,0.21875,-0.05859375
1499,-24,-54.375,106.8125,0.1132813,-1.537109,0.001953125,-0.02832031,0.2211914,-0.05712891
1503,-21.4375,-40,106.3125,0.1210938,-1.315918,-0.1054688,-0.02490234,0.2260742,-0.06103516
1507,-40.3125,-48,97.8125,-0.02587891,-1.160156,-0.2207031,-0.01757813,0.2299805,-0.0625
1512,-57.0625,-69.1875,80.625,-0.1459961,-1.22998,-0.2016602,-0.01513672,0.2338867,-0.06103516
1516,-62.125,-93.625,68.1875,-0.2119141,-1.405273,-0.1206055,-0.009277344,0.2412109,-0.0625
1520,-39.75,-92,74.75,0.175293,-1.564453,0.005859375,-0.004394531,0.2460938,-0.06640625
1524,-15.25,-53.6875,79.375,0.3769531,-1.498535,0.001953125,-0.001953125,0.25,-0.07324219
1528,-4.75,-20.1875,76.5,0.3071289,-1.300293,-0.1054688,0.002441406,0.2587891,-0.08837891
1532,-7.5625,-9.9375,65.125,0.1445313,-1.203125,-0.1860352,0.005859375,0.2709961,-0.105957
1536,-12.8125,-19.5,54.125,0.05126953,-1.296387,-0.1669922,0,0.2773438,-0.1196289
1540,-2.625,-18.625,47.4375,0.2758789,-1.370117,-0.1323242,-0.01757813,0.2885742,-0.1401367
1544,7.875,10.4375,49.625,0.8803711,-1.498535,0.07128906,-0.04003906,0.2988281,-0.15625
1548,28.4375,55.5,9.5,0.6831055,-1.408691,-0.04394531,-0.04736328,0.3012695,-0.1606445
1552,32.5,51.75,-15.75,0.09765625,-1.26123,-0.2016602,-0.03759766,0.2973633,-0.1660156
1556,23.8125,25.1875,-19,-0.1572266,-1.191406,-0.2128906,-0.02001953,0.293457,-0.1645508
1560,18.625,16.8125,-10.5625,-0.002441406,-1.195313,-0.09375,-0.01025391,0.2885742,-0.1538086
1564,16.375,18.25,-15.75,0.1054688,-1.207031,-0.1166992,0.004394531,0.28125,-0.1416016
1568,17.3125,25.625,-27.1875,0.1948242,-1.237793,-0.07080078,0.01269531,0.2700195,-0.1264648
1572,19.1875,36,-38.3125,0.206543,-1.338867,0.001953125,0.01757813,0.2636719,-0.1142578
1576,30.125,44.9375,-50.125,0.2294922,-1.408691,0.01367188,0.01757813,0.2539063,-0.09667969
1580,38.5,52.5625,-65.0625,0.2216797,-1.471191,0.09033203,0.01416016,0.2485352,-0.08544922
1584,53.6875,62.0625,-73.875,0.206543,-1.556641,0.1210938,0.01171875,0.2426758,-0.08007813
1588,64,66.125,-81.0625,0.08642578,-1.490723,0.04785156,0.004394531,0.2373047,-0.08007813
1592,66.5,63.875,-87.0625,0.06689453,-1.48291,0.005859375,0,0.2338867,-0.07861328
1596,66.5,61.25,-94.3125,0.05908203,-1.501953,-0.01318359,-0.003417969,0.2285156,-0.07763672
1600,66.5,54,-103.25,0.07080078,-1.509766,-0.009277344,-0.0078125,0.2236328,-0.07763672
1604,62.75,49.6875,-109.375,0.07861328,-1.521484,0.04443359,-0.01025391,0.21875,-0.07763672
1608,59.375,41.1875,-114.6875,0.03955078,-1.521484,0.06347656,-0.01416016,0.2163086,-0.07324219
1612,59.375,30,-123.3125,0.08642578,-1.649902,0.1132813,-0.01757813,0.2114258,-0.06787109
1616,68.4375,28.6875,-136.0625,0.1674805,-1.692383,0.1518555,-0.0234375,0.2075195,-0.05957031
1620,75.625,36.1875,-142.9375,0.1484375,-1.696289,0.144043,-0.02587891,0.2026367,-0.05029297
1624,81.5,40.5,-148.8125,0.04345703,-1.688477,0.1132813,-0.03662109,0.2011719,-0.04052734
1628,86.5625,37.375,-156.3125,-0.02197266,-1.614746,0.04785156,-0.05419922,0.2026367,-0.02294922
1632,84.375,33.3125,-157.9375,-0.06835938,-1.529297,0.04443359,-0.06494141,0.2060547,-0.01757813
1636,79.1875,27.375,-158.25,-0.1069336,-1.494629,0.05566406,-0.08886719,0.2114258,-0.009277344
1641,73.3125,18.375,-157.125,-0.1147461,-1.490723,0.07519531,-0.1152344,0.2148438,-0.005371094
1645,74.1875,10.1875,-159.3125,-0.08007813,-1.517578,0.125,-0.1293945,0.21875,-0.008300781
1649,80.3125,10.125,-162.125,0.008789063,-1.509766,0.1479492,-0.1542969,0.2236328,-0.01904297
1653,85,16.5625,-162.75,-0.006347656,-1.408691,0.1098633,-0.1791992,0.2250977,-0.03369141
1657,84,20.625,-160.125,-0.01806641,-1.342773,0.08642578,-0.1875,0.2260742,-0.04882813
1661,82.25,19.6875,-157.5,-0.1069336,-1.249512,0.07910156,-0.203125,0.2226563,-0.07324219
1665,76.3125,11.6875,-150,-0.09521484,-1.171875,0.07128906,-0.2104492,0.2099609,-0.09912109
1669,69.25,6.375,-147.4375,-0.04492188,-1.11377,0.09814453,-0.215332,0.2001953,-0.112793
1673,68.5,4.75,-144.75,0.02441406,-1.167969,0.1713867,-0.215332,0.1772461,-0.1318359
1677,73.6875,6.9375,-143.5,0.08251953,-1.102051,0.1865234,-0.2128906,0.1547852,-0.1416016
1681,76,12.6875,-141.8125,0.1054688,-0.9931641,0.1518555,-0.2138672,0.1362305,-0.1425781
1685,66.5,8,-139.3125,0.0009765625,-0.7602539,0.07519531,-0.2114258,0.1186523,-0.1401367
1689,38.4375,-17.8125,-132.125,-0.1303711,-0.6669922,0.06347656,-0.2114258,0.1035156,-0.1357422
1693,14.1875,-54.75,-126,0.008789063,-0.7719727,0.1826172,-0.215332,0.09619141,-0.1279297
1697,13.8125,-65.4375,-129.1875,0.2993164,-0.9970703,0.3710938,-0.2197266,0.08496094,-0.1142578
1701,21.6875,-65.0625,-111.0625,0.4311523,-0.8261719,0.2402344,-0.2294922,0.08105469,-0.1005859
1705,-19.0625,-81,-112.75,0.5859375,-0.4960938,0.2519531,-0.2319336,0.07617188,-0.09228516
1709,-51.75,-111.3125,-146,0.5859375,-1.008789,0.3291016,-0.2426758,0.07373047,-0.07763672
1713,-13.4375,-100.625,-176.4375,0.8842773,-1.385742,0.5634766,-0.2543945,0.06494141,-0.0625
1717,36.625,-26.875,-166.9375,1.031738,-1.26123,0.6557617,-0.2626953,0.06103516,-0.05419922
1721,79.375,58.875,-143.75,0.7294922,-1.02832,0.3979492,-0.2768555,0.05371094,-0.05029297
1725,98.4375,96,-119.625,0.2797852,-0.6787109,0.02099609,-0.2890625,0.04492188,-0.05712891
1729,81.1875,79.125,-107,-0.03710938,-0.1459961,-0.2285156,-0.2949219,0.04248047,-0.06396484
1733,37.8125,33.8125,-105,-0.1069336,-0.02978516,-0.1552734,-0.3032227,0.03515625,-0.07470703
1737,19.1875,9.25,-107.6875,0.01269531,-0.2241211,0.05957031,-0.3125,0.03125,-0.07861328
1741,30.5,6.8125,-95.1875,0.07470703,-0.3911133,0.1787109,-0.3188477,0.02490234,-0.08300781
1745,43.0625,7.125,-74.875,0.2026367,-0.1694336,0.144043,-0.3256836,0.01611328,-0.08984375
1749,31.75,11.375,-72.875,0.3149414,-0.01806641,0.1748047,-0.3295898,0.01025391,-0.09667969
1753,24.125,8.0625,-63.25,0.2451172,-0.06054688,0.09423828,-0.3305664,0.00390625,-0.09765625
1757,16.25,2.875,-61,0.2685547,0.008789063,0.1787109,-0.3339844,0.001464844,-0.1044922
1761,14.3125,2.25,-54.875,0.2607422,-0.05273438,0.2211914,-0.3364258,-0.006835938,-0.1074219
1765,15.1875,4.5625,-43.4375,0.2529297,0.06298828,0.2558594,-0.3378906,-0.006835938,-0.1098633
1770,8.5625,3.25,-29.5625,0.190918,0.04003906,0.2290039,-0.3378906,-0.01171875,-0.112793
1774,1.625,-10.25,-19.3125,0.2373047,0.06689453,0.1982422,-0.3364258,-0.01464844,-0.1142578
1778,-2.875,-16.5625,-15.3125,0.3808594,0.06298828,0.2597656,-0.3378906,-0.01074219,-0.1157227
1782,-5.5625,-14.125,-12.875,0.4506836,0.05126953,0.2788086,-0.3388672,-0.01708984,-0.1166992
1786,-6,-10,-7.5625,0.4467773,0.06689453,0.2905273,-0.3388672,-0.01464844,-0.112793
1790,-11.5,-4.9375,1.625,0.3959961,0.07861328,0.3173828,-0.3364258,-0.015625,-0.112793
1794,-14.6875,-7.9375,11.5,0.3535156,-0.03759766,0.3442383,-0.3378906,-0.01318359,-0.112793
1798,-7.75,-9.25,18.5,0.4077148,-0.09570313,0.3481445,-0.3388672,-0.01318359,-0.112793
1802,-3.0625,-3.9375,25.3125,0.5048828,-0.01025391,0.2944336,-0.3388672,-0.01171875,-0.1098633
1806,-5.5625,3.4375,27.5625,0.4970703,0.06689453,0.2402344,-0.3388672,-0.009277344,-0.1074219
1810,-13.3125,3.25,30.125,0.4116211,0.07470703,0.2021484,-0.3378906,-0.006835938,-0.1074219
1814,-20,-3.125,35.5,0.3188477,0.004882813,0.2094727,-0.3364258,-0.008300781,-0.1044922
1818,-23.5625,-9.6875,44.5,0.3188477,-0.02978516,0.2133789,-0.3378906,-0.003417969,-0.1035156
1822,-26,-12.3125,52,0.3339844,-0.06835938,0.2250977,-0.3339844,0.002441406,-0.09912109
1826,-27.75,-11.3125,60,0.3305664,-0.1035156,0.2211914,-0.3330078,0.004882813,-0.09667969
1830,-27.8125,-10.625,66.125,0.3227539,-0.1269531,0.1787109,-0.3295898,0.01123047,-0.08984375
1834,-31.3125,-10.5625,71.75,0.3110352,-0.1269531,0.1865234,-0.3256836,0.01611328,-0.08544922
1838,-33.75,-8.75,75.25,0.2685547,-0.1889648,0.1674805,-0.3208008,0.02392578,-0.08447266
1842,-32.9375,-7.5,83.3125,0.2216797,-0.2939453,0.1635742,-0.3149414,0.02490234,-0.07861328
1846,-28.6875,-2.8125,99.75,0.2836914,-0.3364258,0.1328125,-0.309082,0.03125,-0.07324219
1850,-29.4375,10.0625,112.6875,0.4116211,-0.2861328,0.144043,-0.3032227,0.03857422,-0.07470703
1854,-40.125,21.4375,112.4375,0.3227539,-0.2978516,0.1479492,-0.293457,0.04492188,-0.07324219
1858,-41.25,28.6875,111.5,0.109375,-0.550293,0.1982422,-0.2841797,0.04980469,-0.07470703
1862,-36.8125,19.0625,120.125,-0.1186523,-0.6279297,0.07128906,-0.2768555,0.05273438,-0.07470703
1866,-38.625,-5.0625,134.3125,0.02050781,-0.5307617,-0.04003906,-0.2636719,0.06103516,-0.07861328
1870,-51.1875,-5.0625,134.6875,0.2724609,-0.5463867,0.03271484,-0.2543945,0.06640625,-0.08300781
1874,-62.125,14.625,138.6875,0.2373047,-0.5893555,0.140625,-0.2495117,0.06982422,-0.08544922
1878,-69.25,29.5625,152.625,-0.08007813,-1.02832,0.2480469,-0.2387695,0.07763672,-0.09375
1882,-64.25,5.875,173.625,-0.1767578,-0.9931641,0.08642578,-0.2319336,0.08886719,-0.09912109
1886,-72.6875,-24.0625,167.625,0.09033203,-1.024414,0.08642578,-0.2294922,0.09765625,-0.1044922
1890,-72.875,-26.0625,154.5625,0.3535156,-1.179688,0.144043,-0.2246094,0.1123047,-0.1098633
1894,-64.0625,-4.8125,152.75,0.3574219,-1.207031,0.2290039,-0.2246094,0.1313477,-0.1098633
1899,-66.125,8.8125,164.5625,0.1210938,-1.272949,0.2441406,-0.222168,0.1450195,-0.1113281
1903,-66.5,1,175.4375,0.02050781,-1.327148,0.1787109,-0.222168,0.1660156,-0.1044922
1907,-72.5,-16.6875,175.25,0.159668,-1.34668,0.1787109,-0.2172852,0.1850586,-0.09228516
1911,-69.5,-15.4375,168.5625,0.3227539,-1.471191,0.2480469,-0.2128906,0.1948242,-0.08300781
1915,-62.1875,-3.75,156.0625,0.2797852,-1.541016,0.3173828,-0.203125,0.2060547,-0.0625
1919,-48.9375,-2.3125,158.25,0.08251953,-1.544922,0.1904297,-0.1914063,0.2148438,-0.04638672
1923,-54.625,-13.5,155.875,0.125,-1.455566,0.1518555,-0.1791992,0.2163086,-0.03808594
1927,-56.1875,-14.4375,156.0625,0.1870117,-1.533203,0.1132813,-0.1625977,0.2163086,-0.02587891
1931,-57.75,-11.6875,150.8125,0.1518555,-1.560547,0.159668,-0.1435547,0.2148438,-0.01757813
1935,-61.6875,-19.75,150.5625,0.008789063,-1.45166,0.08642578,-0.1303711,0.2124023,-0.01367188
1939,-73.5,-40.375,145,-0.01025391,-1.521484,0.1635742,-0.1079102,0.2099609,-0.01220703
1943,-69.8125,-59.4375,138.6875,0.07470703,-1.681152,0.1713867,-0.08642578,0.2060547,-0.01464844
1947,-58.4375,-62.375,135.4375,0.2797852,-1.661621,0.09423828,-0.078125,0.2050781,-0.01464844
1951,-54.6875,-50.25,124.1875,0.3999023,-1.634277,0.1210938,-0.05908203,0.2036133,-0.02441406
1955,-43.8125,-34.9375,110.75,0.3071289,-1.606934,0.06347656,-0.04736328,0.2050781,-0.03125
1959,-41.125,-26.9375,104.9375,0.1015625,-1.548828,0.1210938,-0.04248047,0.2036133,-0.03955078
1963,-32.0625,-25.6875,110.25,-0.006347656,-1.513672,0.02880859,-0.03320313,0.2075195,-0.04882813
1967,-38.1875,-38.875,106.75,-0.05664063,-1.327148,-0.05517578,-0.02832031,0.2084961,-0.05566406
1971,-49.4375,-57.1875,101.9375,0.01660156,-1.319336,-0.1435547,-0.02490234,0.2124023,-0.0625
1975,-57,-68.1875,89,0.06689453,-1.389648,-0.1015625,-0.02099609,0.2172852,-0.06396484
1979,-52.625,-69.1875,76,0.07861328,-1.416504,-0.04003906,-0.01855469,0.2197266,-0.06640625
1983,-44.125,-63.5625,71.875,0.04345703,-1.45166,0.005859375,-0.01611328,0.2236328,-0.06787109
1987,-32.3125,-51.25,73.0625,0.07861328,-1.354492,-0.005371094,-0.01757813,0.2260742,-0.06933594
1991,-24.125,-37.5,75.5625,0.1015625,-1.334961,-0.02832031,-0.009277344,0.2314453,-0.07324219
1995,-21.0625,-27.8125,73.1875,0.05126953,-1.222656,-0.0859375,-0.0078125,0.2324219,-0.07177734
1999,-25.6875,-29.3125,65.9375,-0.04101563,-1.167969,-0.112793,-0.001953125,0.2363281,-0.07617188
2003,-30.0625,-37.625,56.6875,-0.1225586,-1.207031,-0.1401367,0.004394531,0.2412109,-0.08300781
2007,-30.0625,-47.125,54.125,-0.05664063,-1.288574,-0.1166992,0.009277344,0.2426758,-0.08447266
2011,-15.875,-36.125,53.125,0.2758789,-1.393555,-0.02050781,0.01757813,0.2460938,-0.09521484
2015,-1.125,-6.9375,48,0.3613281,-1.308105,-0.03613281,0.02490234,0.2539063,-0.1113281
2019,3.625,17.875,41.375,0.2685547,-1.21875,-0.07470703,0.03173828,0.2573242,-0.1264648
2023,2.1875,26.6875,30.375,0.1132813,-1.210938,-0.1015625,0.03662109,0.2651367,-0.1425781
2028,5.8125,18.125,20.3125,-0.02197266,-1.203125,-0.1474609,0.03808594,0.2685547,-0.1547852
2032,0.625,2.4375,12.625,0.008789063,-1.102051,-0.1899414,0.0390625,0.2749023,-0.1630859
2036,-6.125,-3.125,4.0625,0.1518555,-1.199219,-0.109375,0.03417969,0.2749023,-0.1674805
2040,-1.125,4.75,-5.0625,0.2373047,-1.272949,-0.04003906,0.02978516,0.2739258,-0.1616211
2044,6.25,17.9375,-16.75,0.2216797,-1.280762,0.02490234,0.02587891,0.2739258,-0.15625
2048,15.3125,28.5625,-27.625,0.1367188,-1.26123,0.01367188,0.02734375,0.2661133,-0.1401367
2052,20.0625,33.875,-35.625,0.03955078,-1.288574,0.04052734,0.02490234,0.2587891,-0.1235352
2056,29.125,37.9375,-38.375,-0.01416016,-1.304199,0.009765625,0.02148438,0.2539063,-0.112793
2060,31.3125,36.9375,-40.9375,-0.01416016,-1.183594,-0.07080078,0.01757813,0.2475586,-0.1020508
2064,22.3125,33.5625,-44,0.02832031,-1.1875,-0.02832031,0.01269531,0.2436523,-0.09082031
2068,17.75,30.125,-52.3125,0.03173828,-1.308105,-0.005371094,0.01074219,0.2412109,-0.08447266
2072,23.25,23.5,-61.6875,0.09765625,-1.467285,0.1132813,0.004394531,0.2363281,-0.08007813
2076,37.3125,26.75,-74.75,0.206543,-1.537109,0.1787109,-0.003417969,0.2324219,-0.07861328
2080,51.25,36.25,-85.0625,0.2294922,-1.552734,0.1635742,-0.003417969,0.2299805,-0.07470703
2084,58.1875,40.875,-92.9375,0.140625,-1.486816,0.06738281,-0.009277344,0.2250977,-0.07324219
2088,53.5625,32.625,-101.5625,0.02050781,-1.381836,-0.02441406,-0.01171875,0.2211914,-0.07177734
2092,42.8125,16.375,-104.625,0.03173828,-1.455566,0.03271484,-0.01513672,0.2197266,-0.07324219
2096,41.8125,9.25,-113.75,0.1484375,-1.548828,0.105957,-0.02099609,0.2148438,-0.06933594
2100,50.8125,13.9375,-121.8125,0.2529297,-1.649902,0.1748047,-0.02490234,0.2114258,-0.0625
2104,63.1875,27.8125,-127.375,0.2568359,-1.696289,0.1826172,-0.02685547,0.2084961,-0.0625
2108,73,34.0625,-137.375,0.1328125,-1.618652,0.1020508,-0.03076172,0.2075195,-0.04882813
2112,75.125,28.8125,-146,0.03564453,-1.591309,0.05566406,-0.04003906,0.2050781,-0.03955078
2116,75.5,24.3125,-151.25,-0.01416016,-1.513672,0.005859375,-0.04833984,0.2050781,-0.02978516
2120,71.0625,18.4375,-154.0625,-0.02587891,-1.471191,0.001953125,-0.06298828,0.2075195,-0.01611328
2124,66.875,16.4375,-153.5,-0.02587891,-1.439941,0.04785156,-0.08300781,0.2148438,-0.005371094
2128,63,13.1875,-148.25,-0.04492188,-1.408691,0.03662109,-0.1010742,0.2163086,-0.001464844
2132,56.1875,3.625,-150.6875,-0.02197266,-1.393555,0.07519531,-0.1245117,0.2226563,0
2136,57,0,-156.0625,0.1015625,-1.479004,0.1787109,-0.1494141,0.2260742,-0.001464844
2140,66.9375,12.6875,-156.9375,0.1484375,-1.517578,0.2402344,-0.1665039,0.2285156,-0.006835938
2144,77.9375,25,-153.75,0.05517578,-1.381836,0.1518555,-0.1889648,0.2299805,-0.02587891
2148,73.6875,21.5625,-149.9375,-0.05664063,-1.207031,0.07910156,-0.2055664,0.2275391,-0.04736328
2152,61.4375,4.1875,-144.375,-0.06835938,-1.152344,0.05566406,-0.2138672,0.2226563,-0.06542969
2157,51.375,-5.9375,-144.5,0.07861328,-1.148438,0.159668,-0.2236328,0.2084961,-0.08837891
2161,55.9375,-4.1875,-149,0.1367188,-1.300293,0.2402344,-0.2255859,0.1899414,-0.1074219
2165,68,4.625,-148.375,0.140625,-1.195313,0.2558594,-0.2236328,0.1772461,-0.1181641
2169,69.3125,7.5,-139.5,0.1132813,-1.055176,0.1713867,-0.2197266,0.1489258,-0.1279297
2173,62.1875,0.5,-142.1875,0.07080078,-0.9077148,0.1132813,-0.2172852,0.1289063,-0.1264648
2177,51.8125,-9.5625,-139.9375,0.09375,-0.8920898,0.1518555,-0.215332,0.1162109,-0.1235352
2181,48.9375,-10.6875,-134.75,0.1484375,-0.9194336,0.2250977,-0.215332,0.1000977,-0.1157227
2185,54.4375,-3,-127.1875,0.2138672,-0.8803711,0.2402344,-0.21875,0.09130859,-0.105957
2189,54.3125,0.0625,-122.25,0.2026367,-0.7602539,0.2133789,-0.222168,0.08251953,-0.09765625
2193,49.75,-4.3125,-119.625,0.1713867,-0.6787109,0.2021484,-0.2280273,0.07763672,-0.08984375
2197,44.5625,-13.5625,-115.375,0.159668,-0.6552734,0.1943359,-0.234375,0.07275391,-0.08154297
2201,38.9375,-23.8125,-113.875,0.2607422,-0.5776367,0.2021484,-0.2426758,0.06640625,-0.07470703
2205,36.625,-21.4375,-112.875,0.3457031,-0.6240234,0.2636719,-0.253418,0.06396484,-0.06640625
2209,46.5625,-6.125,-106.1875,0.3925781,-0.5698242,0.2133789,-0.2636719,0.06103516,-0.0625
2213,44.125,2.9375,-92.9375,0.3496094,-0.421875,0.1367188,-0.2700195,0.05615234,-0.06103516
2217,31.9375,-0.875,-92.5,0.3149414,-0.2241211,0.04443359,-0.2807617,0.05371094,-0.0625
2221,9.8125,-12.8125,-88.75,0.2529297,-0.2241211,0.09033203,-0.2900391,0.04980469,-0.0625
2225,-0.375,-18.75,-82.625,0.2607422,-0.2900391,0.1943359,-0.293457,0.04882813,-0.0625
2229,2.875,-18.125,-79.25,0.2568359,-0.3325195,0.2866211,-0.3041992,0.04394531,-0.06103516
2233,17.125,-12.875,-77.125,0.2568359,-0.2431641,0.2402344,-0.3115234,0.03857422,-0.06396484
2237,16.75,-3.9375,-71.9375,0.190918,0.008789063,0.125,-0.3115234,0.03857422,-0.06787109
2241,-5.0625,-12.5,-50.9375,-0.03320313,0.06298828,0.04443359,-0.3208008,0.03271484,-0.06787109
2245,-23.375,-39.125,-33.6875,0.0009765625,0.02050781,0.1171875,-0.3232422,0.03027344,-0.06542969
2249,-24.125,-50.5,-20.875,0.2915039,-0.09570313,0.2480469,-0.3232422,0.02734375,-0.06396484
2253,-15.5625,-40.9375,-19.9375,0.4892578,-0.1538086,0.3056641,-0.3256836,0.02734375,-0.05957031
2257,-2.375,-19.375,-15.125,0.5161133,-0.1850586,0.3134766,-0.3295898,0.02490234,-0.05859375
2261,5.5625,-3.8125,-4.6875,0.4467773,-0.1459961,0.2480469,-0.3295898,0.02392578,-0.05712891
2265,7.5,3.5,5.4375,0.4541016,-0.05273438,0.1826172,-0.331543,0.02392578,-0.05566406
2269,1.8125,7.375,13.0625,0.4775391,-0.03759766,0.159668,-0.3295898,0.02490234,-0.05566406
2273,-6.3125,10,21.4375,0.4697266,-0.04541016,0.1479492,-0.3295898,0.02490234,-0.05712891
2277,-15.875,2.8125,27.375,0.4658203,-0.08789063,0.1943359,-0.3271484,0.02636719,-0.05419922
2281,-19.625,-8.125,29.5,0.5048828,-0.2275391,0.2944336,-0.324707,0.03027344,-0.05859375
2286,-14.3125,-13.9375,34,0.6054688,-0.3364258,0.3056641,-0.324707,0.03271484,-0.05419922
2290,-11.9375,-16.5625,33.1875,0.7412109,-0.2705078,0.2749023,-0.3222656,0.03369141,-0.05273438
2294,-13.375,-10.125,30.0625,0.8261719,-0.3095703,0.2636719,-0.3188477,0.03613281,-0.04736328
2298,-12.4375,-0.3125,30.75,0.8149414,-0.2900391,0.2636719,-0.3149414,0.04003906,-0.04882813
2302,-16.5625,7.125,33.875,0.7333984,-0.340332,0.3134766,-0.3125,0.04248047,-0.04882813
2306,-11.75,9.6875,36.25,0.6713867,-0.3950195,0.3364258,-0.309082,0.04248047,-0.04638672
2310,-4.9375,11.75,37.6875,0.6479492,-0.4296875,0.3364258,-0.3081055,0.04394531,-0.04736328
2314,-1.625,14.0625,38.25,0.6171875,-0.2822266,0.2558594,-0.3056641,0.04638672,-0.05029297
2318,-11.5625,10.1875,40.375,0.5395508,-0.2666016,0.2211914,-0.2998047,0.04882813,-0.05029297
2322,-18.125,3.125,41.5625,0.4853516,-0.2822266,0.2441406,-0.2973633,0.04638672,-0.04736328
2326,-21.75,0,45.75,0.4658203,-0.3754883,0.3212891,-0.293457,0.04980469,-0.04736328
2330,-13.4375,4.5625,50.6875,0.4580078,-0.4765625,0.3442383,-0.2866211,0.05273438,-0.05029297
2334,-1.8125,13.3125,57.5625,0.4853516,-0.4375,0.3056641,-0.2827148,0.05273438,-0.04736328
2338,-0.625,23.5625,62.25,0.4541016,-0.2978516,0.2133789,-0.2768555,0.05517578,-0.05029297
2342,-11.9375,23.5,69.0625,0.3032227,-0.2548828,0.1328125,-0.2709961,0.05859375,-0.05419922
2346,-28.125,9.125,75.875,0.1791992,-0.3286133,0.1674805,-0.2675781,0.05859375,-0.05712891
2350,-36.75,-7.1875,83.75,0.2216797,-0.4804688,0.2480469,-0.2602539,0.0625,-0.05859375
2354,-31.1875,-12.375,87.25,0.3496094,-0.6591797,0.3251953,-0.2543945,0.06396484,-0.06103516
2358,-19.375,-5.6875,88.5,0.4658203,-0.5966797,0.2709961,-0.2470703,0.06884766,-0.06542969
2362,-23.4375,0.75,88.6875,0.4194336,-0.5385742,0.2133789,-0.2402344,0.07128906,-0.06933594
2366,-27.25,2.625,93.375,0.3417969,-0.6279297,0.1787109,-0.2353516,0.07617188,-0.07763672
2370,-33.0625,3.5625,101.4375,0.2993164,-0.6748047,0.2368164,-0.2319336,0.08251953,-0.08300781
2374,-35.5,0.1875,111.375,0.2915039,-0.7871094,0.2441406,-0.2280273,0.08642578,-0.09082031
2378,-30.125,-2.3125,107.5,0.3847656,-0.8417969,0.2983398,-0.2236328,0.09619141,-0.09912109
2382,-26.1875,-0.8125,108.8125,0.3535156,-0.8339844,0.2368164,-0.2255859,0.1025391,-0.1044922
2386,-28.375,-2.5625,105.375,0.3149414,-0.7988281,0.1557617,-0.2236328,0.1123047,-0.1098633
2390,-33.9375,-2.9375,111.4375,0.2646484,-0.8842773,0.1674805,-0.2255859,0.1274414,-0.1142578
2394,-34.875,-2.375,117.875,0.2529297,-0.9853516,0.1982422,-0.2280273,0.1362305,-0.1142578
2398,-35.0625,-1.1875,124.5,0.3305664,-0.9506836,0.159668,-0.2319336,0.1547852,-0.112793
2402,-37.5,0.3125,119.4375,0.3227539,-1.02832,0.1635742,-0.234375,0.1772461,-0.105957
2406,-40.0625,-5.4375,116.1875,0.2177734,-1.016602,0.1210938,-0.2353516,0.1884766,-0.09765625
2410,-45.875,-16.25,114.1875,0.1518555,-1.062988,0.1635742,-0.2353516,0.2036133,-0.07861328
2415,-43.8125,-23.875,120.5625,0.1635742,-1.191406,0.1635742,-0.2304688,0.2172852,-0.05712891
2419,-43.1875,-23.5625,123.8125,0.3149414,-1.175781,0.1713867,-0.2246094,0.2260742,-0.04199219
2423,-39.6875,-17.25,120.8125,0.3999023,-1.245605,0.1674805,-0.2114258,0.2299805,-0.02148438
2427,-31.5,-0.8125,114.5,0.3999023,-1.253418,0.2094727,-0.1972656,0.2314453,-0.00390625
2431,-26.4375,15.9375,112.875,0.2138672,-1.265137,0.2441406,-0.1865234,0.2314453,0.002441406
2435,-24.125,16.375,118.375,-0.03710938,-1.160156,0.09033203,-0.1699219,0.2275391,0.01074219
2439,-41.25,-11.375,121.125,-0.09130859,-1.078613,-0.05908203,-0.1484375,0.2260742,0.01708984
2443,-59.4375,-34.8125,116.9375,0.1171875,-1.160156,-0.01660156,-0.1352539,0.2226563,0.02294922
2447,-63.875,-37.8125,111,0.1870117,-1.354492,0.09423828,-0.112793,0.21875,0.02392578
2451,-53.0625,-31.3125,101.375,0.1210938,-1.405273,0.144043,-0.09228516,0.2114258,0.01855469
2455,-38.1875,-22.6875,107.625,0.03955078,-1.467285,0.1557617,-0.08300781,0.2060547,0.01611328
2459,-37.6875,-25.75,115.125,0.05908203,-1.245605,-0.01660156,-0.06494141,0.2011719,0.00390625
2463,-47.8125,-31.4375,111.5,0.1791992,-1.22998,-0.07080078,-0.05322266,0.1987305,-0.01220703
2467,-54.1875,-30.125,104.5625,0.2104492,-1.304199,-0.001464844,-0.04736328,0.1972656,-0.01757813
2471,-52.375,-24.8125,95.9375,0.09033203,-1.334961,0.07128906,-0.04003906,0.1948242,-0.03271484
2475,-46.6875,-24,90.4375,-0.03710938,-1.342773,0.1289063,-0.03759766,0.2001953,-0.04199219
2479,-40.5,-26.375,95.625,-0.2119141,-1.374023,0.08251953,-0.03320313,0.2026367,-0.04882813
2483,-44.4375,-50.625,101.625,-0.1342773,-1.203125,-0.0859375,-0.03320313,0.2050781,-0.05712891
2487,-54.4375,-61.8125,91.625,0.06298828,-1.253418,-0.04736328,-0.03173828,0.2084961,-0.06103516
2491,-53.25,-57.75,86.875,0.1289063,-1.342773,-0.009277344,-0.03173828,0.2138672,-0.06640625
2495,-49.75,-50.625,78.3125,0.03564453,-1.296387,0.01367188,-0.03173828,0.2172852,-0.06640625
2499,-46.625,-50.375,73.125,-0.1069336,-1.29248,0.02099609,-0.02929688,0.2211914,-0.06542969
2503,-38.6875,-53.0625,79.1875,-0.1342773,-1.374023,0.005859375,-0.02832031,0.2250977,-0.06787109
2507,-29.25,-50.5,85.625,0.07470703,-1.412598,0.03271484,-0.02685547,0.2285156,-0.06933594
2511,-18.75,-33.25,83.75,0.2646484,-1.288574,-0.02050781,-0.02246094,0.2338867,-0.06933594
2515,-14.625,-11.5,71.1875,0.2607422,-1.269043,-0.04394531,-0.01611328,0.2348633,-0.07080078
2519,-10.1875,0.4375,61.6875,0.109375,-1.22998,-0.1015625,-0.01171875,0.2387695,-0.07324219
2523,-11.5,2.1875,52.5,-0.02978516,-1.125488,-0.112793,-0.004394531,0.2436523,-0.07861328
2527,-20.875,-9.375,44.625,-0.2231445,-1.08252,-0.128418,0.0009765625,0.2436523,-0.08154297
2531,-27.25,-31.125,43.9375,-0.3046875,-1.179688,-0.1054688,0.006835938,0.25,-0.09082031
2535,-25.8125,-48.75,47.4375,-0.08789063,-1.210938,-0.1015625,0.01171875,0.2587891,-0.105957
2539,-18.875,-43.8125,37.125,0.1987305,-1.222656,-0.04003906,0.01513672,0.2651367,-0.1157227
2544,-10.875,-16.3125,28.375,0.3188477,-1.203125,-0.02050781,0.01269531,0.2763672,-0.137207
2548,-0.625,4.9375,21.875,0.2177734,-1.241699,-0.04003906,0.008300781,0.2861328,-0.1547852
2552,8.5,18.3125,15.75,0.1674805,-1.195313,-0.04394531,0.004394531,0.293457,-0.1674805
2556,10.625,25.125,9.875,0.07470703,-1.136719,-0.07470703,-0.001953125,0.2963867,-0.175293
2560,9.875,24.1875,3.75,-0.01025391,-1.125488,-0.07861328,-0.001953125,0.2973633,-0.1782227
2564,7.4375,16.0625,-2.4375,-0.09130859,-1.121582,-0.07470703,-0.001953125,0.2963867,-0.1796875
2568,8.4375,6.8125,-10.25,-0.08007813,-1.144531,-0.05517578,0,0.2924805,-0.1728516
2572,11.8125,7.3125,-18.0625,-0.002441406,-1.144531,-0.01318359,0.005859375,0.2875977,-0.1660156
2576,18.9375,19.25,-19.9375,0.08251953,-1.214844,0.01367188,0.01074219,0.28125,-0.15625
2580,24.1875,34.5625,-22.375,0.09033203,-1.175781,-0.009277344,0.01660156,0.2724609,-0.144043
2584,25.8125,40.1875,-28.875,0.008789063,-1.140625,-0.03613281,0.01757813,0.262207,-0.1279297
2588,25.4375,35.875,-33.5625,-0.01416016,-1.269043,0.02490234,0.01904297,0.2563477,-0.1157227
2592,36.4375,39.9375,-40.25,0.1054688,-1.29248,0.03662109,0.01513672,0.2485352,-0.1035156
2596,43.6875,49.25,-46.4375,0.125,-1.323242,0.03271484,0.008300781,0.2436523,-0.09521484
2600,47.375,55.625,-51.4375,0.125,-1.312012,0.02490234,0.004394531,0.2387695,-0.08837891
2604,47.8125,56.6875,-56.3125,0.1054688,-1.350586,0.03662109,-0.0009765625,0.2348633,-0.08300781
2608,48.5,52.4375,-64.9375,0.1289063,-1.397461,0.06347656,-0.005859375,0.2314453,-0.08300781
2612,53.8125,49.3125,-73.5625,0.190918,-1.552734,0.125,-0.0078125,0.2299805,-0.08447266
2616,66.9375,54.8125,-81.375,0.3110352,-1.61084,0.1479492,-0.01269531,0.2236328,-0.08544922
2620,76.6875,62.25,-93.875,0.2490234,-1.564453,0.08642578,-0.01611328,0.2172852,-0.08300781
2624,74.875,51.0625,-102.3125,0.1054688,-1.475098,-0.009277344,-0.01611328,0.2148438,-0.08447266
2628,60.4375,25.6875,-110.8125,0.04345703,-1.447754,-0.02441406,-0.01855469,0.2124023,-0.08447266
2632,52.5625,6.8125,-122.5,0.2026367,-1.599121,0.07128906,-0.01757813,0.2060547,-0.07763672
2636,59.0625,12.5625,-133.5,0.3110352,-1.661621,0.1210938,-0.02246094,0.2026367,-0.07080078
2640,66.9375,25.6875,-139.1875,0.2915039,-1.645996,0.1020508,-0.02490234,0.2011719,-0.05957031
2644,69,33.75,-144.5625,0.175293,-1.595215,0.1020508,-0.03076172,0.2011719,-0.04345703
2648,69.625,33.3125,-149.75,0.08251953,-1.564453,0.07910156,-0.04150391,0.2011719,-0.02978516
2652,66.8125,28.3125,-154.625,-0.006347656,-1.541016,0.1098633,-0.05810547,0.2084961,-0.01074219
2656,66.4375,20.8125,-157.125,-0.06445313,-1.521484,0.1289063,-0.08056641,0.2163086,0.002441406
2660,65.8125,11.25,-159.1875,-0.04882813,-1.475098,0.1328125,-0.1020508,0.2236328,0.009277344
2664,65.375,8.625,-160.75,0.004882813,-1.463379,0.159668,-0.1342773,0.2299805,0.009277344
2668,66.8125,11.125,-159.5625,0.04345703,-1.439941,0.1787109,-0.1625977,0.2324219,-0.001464844
2673,66.8125,12.9375,-156.1875,0.03173828,-1.397461,0.1787109,-0.1782227,0.2373047,-0.01464844
2677,67.75,12.25,-156.9375,0.05908203,-1.354492,0.1943359,-0.1982422,0.2373047,-0.03662109
2681,67.125,8.3125,-158.1875,0.06298828,-1.284668,0.1557617,-0.215332,0.2299805,-0.06542969
2685,63.625,2.875,-159.5625,0.05908203,-1.249512,0.1557617,-0.2197266,0.2250977,-0.08837891
2689,63.625,4.625,-160.125,0.125,-1.26123,0.2290039,-0.2255859,0.2026367,-0.1113281
2693,69.4375,10.375,-155.625,0.1171875,-1.245605,0.1943359,-0.2246094,0.1772461,-0.1318359
2697,71.875,17.875,-151.5625,0.1132813,-1.098145,0.159668,-0.21875,0.1577148,-0.1401367
2701,65.9375,15.0625,-148,0.03955078,-0.9580078,0.1171875,-0.2138672,0.1313477,-0.1425781
2705,60.3125,9.875,-146.5625,-0.006347656,-0.9541016,0.1518555,-0.2104492,0.1098633,-0.137207
2709,54.5625,-2.1875,-140.0625,0.02050781,-0.8222656,0.1479492,-0.2138672,0.09619141,-0.1303711
2713,47.625,-4.1875,-134.6875,0.1484375,-0.8066406,0.2133789,-0.215332,0.08496094,-0.1210938
2717,51.9375,5.75,-133.1875,0.1987305,-0.8457031,0.2636719,-0.21875,0.07763672,-0.1098633
2721,63.4375,21.625,-121.3125,0.1713867,-0.7641602,0.2519531,-0.2246094,0.07128906,-0.1020508
2725,61.6875,25.8125,-110.9375,0.02832031,-0.5737305,0.159668,-0.2329102,0.06494141,-0.09667969
2729,52.1875,13,-103.3125,0.03564453,-0.4492188,0.144043,-0.2426758,0.06103516,-0.09228516
2733,41.5625,2.6875,-99.0625,0.04345703,-0.4570313,0.1982422,-0.2470703,0.06005859,-0.08984375
2737,41.25,-5.4375,-93.875,0.140625,-0.4453125,0.2290039,-0.2592773,0.05615234,-0.08984375
2741,42.875,-1.75,-86.0625,0.2568359,-0.402832,0.2675781,-0.2675781,0.05273438,-0.08691406
2745,42.125,5.6875,-79.25,0.2993164,-0.2978516,0.2441406,-0.2709961,0.04980469,-0.08984375
2749,33.75,6.25,-72.9375,0.2333984,-0.1850586,0.1787109,-0.2807617,0.04736328,-0.09228516
2753,18.4375,-5.0625,-67.625,0.1713867,-0.2084961,0.2441406,-0.2875977,0.04394531,-0.08984375
2757,19,-10.1875,-62.375,0.2607422,-0.3095703,0.3481445,-0.2915039,0.04394531,-0.09375
2761,26.625,-6.5,-56.75,0.2875977,-0.2705078,0.3671875,-0.2958984,0.04150391,-0.09667969
2765,29.875,-0.75,-47.875,0.3032227,-0.1499023,0.2866211,-0.2998047,0.03613281,-0.09667969
2769,22.0625,0,-42.6875,0.2412109,0.0009765625,0.2211914,-0.3056641,0.03369141,-0.09912109
2773,6.625,-9.0625,-33.75,0.1210938,-0.07226563,0.2329102,-0.3081055,0.03027344,-0.09912109
2777,4.375,-20.75,-19,0.2373047,-0.1035156,0.2905273,-0.3105469,0.03027344,-0.1035156
2781,2.9375,-19.4375,-14.5,0.3925781,-0.09179688,0.3212891,-0.3149414,0.02734375,-0.1005859
2785,6.25,-11.6875,-10.4375,0.4467773,-0.1152344,0.3095703,-0.3164063,0.02490234,-0.09765625
2789,5.875,-0.9375,-5.9375,0.3886719,-0.06445313,0.2749023,-0.3188477,0.02636719,-0.09765625
2793,0.875,0.8125,4.9375,0.3032227,-0.08007813,0.2480469,-0.3188477,0.02636719,-0.09765625
2797,-3.3125,-6.375,9.25,0.3149414,-0.07617188,0.2480469,-0.3173828,0.02636719,-0.09667969
2802,-1.75,-7,10.375,0.3886719,-0.1035156,0.2558594,-0.3188477,0.02392578,-0.09521484
2806,-3.5,0.25,18.5,0.3691406,-0.05273438,0.2211914,-0.3149414,0.02880859,-0.09667969
2810,-8.3125,3.5,27.25,0.2797852,-0.04882813,0.1748047,-0.3139648,0.03125,-0.09375
2814,-14,1.875,39.5625,0.3227539,-0.02978516,0.144043,-0.3115234,0.03369141,-0.09228516
2818,-26,0.25,45.3125,0.3266602,-0.05664063,0.1557617,-0.3081055,0.03613281,-0.08984375
2822,-31.0625,-1.75,50.125,0.3886719,-0.1733398,0.2172852,-0.3041992,0.04003906,-0.08984375
2826,-32.6875,-1.875,54.375,0.4194336,-0.2353516,0.2597656,-0.2998047,0.04248047,-0.08691406
2830,-35.5,-0.25,59.125,0.4272461,-0.2939453,0.2749023,-0.293457,0.04394531,-0.08447266
2834,-37.1875,-6.375,60.875,0.4155273,-0.3173828,0.2905273,-0.2900391,0.04638672,-0.08154297
2838,-38.1875,-6.875,64.9375,0.4853516,-0.387207,0.3212891,-0.2817383,0.04882813,-0.08154297
2842,-37.75,-3.4375,70.3125,0.5200195,-0.421875,0.3134766,-0.2807617,0.04980469,-0.07861328
2846,-37.625,3.3125,72.6875,0.5551758,-0.4257813,0.3056641,-0.2724609,0.05517578,-0.07861328
2850,-38.6875,9.4375,73.75,0.4658203,-0.5112305,0.3173828,-0.2626953,0.05761719,-0.08007813
2854,-39.3125,6.875,76.9375,0.3959961,-0.4882813,0.3134766,-0.2592773,0.05615234,-0.08007813
2858,-44.375,-0.9375,79.0625,0.3535156,-0.5620117,0.3481445,-0.2519531,0.06005859,-0.08447266
2862,-40.8125,-4.5625,81.4375,0.3847656,-0.6005859,0.3364258,-0.2460938,0.0625,-0.08544922
2866,-40.1875,-4.875,87.75,0.3496094,-0.6591797,0.3173828,-0.2402344,0.06396484,-0.08837891
2870,-41.75,-5.875,91.5,0.3999023,-0.6162109,0.2597656,-0.2329102,0.06982422,-0.09375
2874,-46.5625,-2.8125,94.375,0.3886719,-0.7055664,0.2709961,-0.2270508,0.07519531,-0.09765625
2878,-44.25,0.5,95.0625,0.3535156,-0.7641602,0.2983398,-0.222168,0.08007813,-0.1035156
2882,-39.75,3.3125,100,0.3110352,-0.7446289,0.2441406,-0.2163086,0.08642578,-0.112793
2886,-48.75,-1,102.5,0.2875977,-0.6748047,0.1982422,-0.2138672,0.09375,-0.1181641
2890,-53.9375,-4,103.25,0.2875977,-0.7719727,0.2021484,-0.2138672,0.1010742,-0.1235352
2894,-56,0.625,103.8125,0.2529297,-0.8574219,0.2558594,-0.215332,0.1123047,-0.1289063
2898,-53.625,7.8125,110.6875,0.06689453,-0.9467773,0.2636719,-0.2172852,0.1289063,-0.1333008
2902,-61.5,-11.1875,119.875,-0.03710938,-0.8417969,0.1518555,-0.2197266,0.1376953,-0.1333008
2906,-73.5625,-37.375,116.8125,0.1445313,-0.9233398,0.1787109,-0.222168,0.15625,-0.1289063
2910,-71.5625,-37.6875,117.375,0.3457031,-1.090332,0.2709961,-0.2246094,0.1787109,-0.1157227
2914,-60.125,-16.5625,121.0625,0.4467773,-1.203125,0.3520508,-0.2294922,0.1899414,-0.1020508
2918,-45.5625,7.0625,123.625,0.3110352,-1.241699,0.2983398,-0.2270508,0.2026367,-0.08544922
2922,-48.3125,2.875,121.9375,0.1713867,-1.05127,0.1826172,-0.2211914,0.2138672,-0.06640625
2926,-62.5625,-17.5625,116.8125,0.07080078,-1.129395,0.1865234,-0.215332,0.2197266,-0.05273438
2931,-64.875,-41.75,109.8125,0.04345703,-1.249512,0.2211914,-0.206543,0.2226563,-0.03369141
2935,-54.5625,-45.5,112.1875,0.2646484,-1.354492,0.3017578,-0.1938477,0.2226563,-0.01367188
2939,-42.75,-26.875,112.625,0.2724609,-1.374023,0.2558594,-0.1831055,0.2236328,-0.00390625
2943,-42.4375,-20.1875,117,0.1289063,-1.284668,0.1210938,-0.1665039,0.2211914,0.006347656
2947,-54.75,-32.875,105.5625,-0.06054688,-1.199219,0.1171875,-0.1494141,0.2172852,0.01708984
2951,-67.6875,-58.3125,104.625,-0.2929688,-1.249512,0.159668,-0.1352539,0.2163086,0.02001953
2955,-66.0625,-91.9375,116.375,-0.1767578,-1.513672,0.2060547,-0.1152344,0.2099609,0.02685547
2959,-47.875,-89.875,120.4375,0.2915039,-1.42041,0.1787109,-0.09228516,0.2084961,0.02685547
2963,-47.25,-75.3125,116.0625,0.4658203,-1.342773,0.1098633,-0.078125,0.2050781,0.02294922
2967,-43.75,-58.6875,101,0.3378906,-1.366211,0.1132813,-0.05664063,0.2036133,0.01464844
2971,-36.75,-56.125,89.625,0.04736328,-1.34668,0.125,-0.04394531,0.1972656,0.002441406
2975,-38.4375,-68,88.3125,-0.296875,-1.207031,-0.04003906,-0.03759766,0.1948242,-0.00390625
2979,-40.9375,-105.6875,95.5625,-0.3125,-1.366211,-0.1362305,-0.03173828,0.1948242,-0.01904297
2983,-38.875,-113.0625,95.5625,0.1328125,-1.15625,-0.2055664,-0.02587891,0.1972656,-0.03271484
2987,-45.3125,-94.125,95,0.206543,-1.183594,-0.2475586,-0.02490234,0.2001953,-0.03955078
2991,-48,-75.4375,95.125,0.1054688,-1.160156,-0.2397461,-0.02685547,0.2026367,-0.04736328
2995,-45.875,-59.625,99.875,0.004882813,-1.323242,-0.09765625,-0.02685547,0.2050781,-0.05273438
2999,-32.625,-49.8125,102.875,0.03955078,-1.350586,-0.1323242,-0.02685547,0.2099609,-0.05566406
3003,-22.9375,-36.4375,97.0625,0.1674805,-1.312012,-0.0859375,-0.02685547,0.2163086,-0.05957031
3007,-9.875,-12.625,91.4375,0.1791992,-1.308105,-0.05126953,-0.0234375,0.21875,-0.05957031
3011,0,7.75,89,0.08642578,-1.269043,-0.05126953,-0.0234375,0.2226563,-0.06396484
3015,7.4375,18.8125,87.0625,-0.06054688,-1.245605,-0.06298828,-0.01611328,0.2250977,-0.06787109
3019,6.5625,13,85.375,-0.1186523,-1.129395,-0.1552734,-0.009277344,0.2275391,-0.07080078
3023,0.75,4.0625,75.4375,-0.07226563,-1.133301,-0.1435547,-0.003417969,0.2260742,-0.07177734
3027,-2.375,2,70.3125,-0.01025391,-1.152344,-0.07470703,0.01171875,0.2285156,-0.07763672
3031,-4.9375,5.6875,65.125,-0.03320313,-1.203125,0.001953125,0.02832031,0.2275391,-0.08300781
3035,-2.375,4.125,63.5,-0.1030273,-1.323242,0.03271484,0.04492188,0.2275391,-0.08447266
3039,3.875,-8.1875,60.6875,0.04736328,-1.300293,-0.04736328,0.08300781,0.2236328,-0.09521484
3043,5.25,-8.5,42.5,0.2490234,-1.269043,-0.05126953,0.1367188,0.2197266,-0.1113281
3047,7.125,-0.625,28.4375,0.2954102,-1.288574,-0.03222656,0.1821289,0.2197266,-0.1210938
3051,8.625,11.75,20.9375,0.2646484,-1.29248,0.005859375,0.25,0.2236328,-0.1386719
3055,10.9375,16.4375,13.9375,0.1831055,-1.312012,-0.001464844,0.3022461,0.2314453,-0.1455078
3060,12.75,14.625,5,0.1987305,-1.308105,0.02099609,0.3198242,0.2348633,-0.1494141
3064,15.8125,14.5,-7.5,0.2529297,-1.334961,0.03662109,0.3071289,0.2324219,-0.1401367
3068,20,20.4375,-18.3125,0.2724609,-1.34668,0.05566406,0.2558594,0.2250977,-0.1264648
3072,22.5,26.5625,-27.8125,0.2529297,-1.323242,0.08642578,0.2119141,0.2211914,-0.1181641
3076,27.5,30.625,-40.9375,0.2255859,-1.393555,0.1289063,0.1459961,0.2211914,-0.1005859
3080,40.3125,39.625,-50.625,0.1948242,-1.424316,0.1328125,0.09130859,0.21875,-0.09375
3084,48.25,47.5,-57.125,0.1328125,-1.381836,0.1098633,0.06298828,0.2211914,-0.08984375
3088,53.5625,50.6875,-62.6875,0.06298828,-1.366211,0.05957031,0.03320313,0.2211914,-0.09082031
3092,50.625,46.5625,-65.4375,0.03564453,-1.269043,0.03662109,0.01660156,0.2226563,-0.08984375
3096,41,31.0625,-76.1875,-0.05273438,-1.331055,0.03271484,0.01074219,0.2197266,-0.09082031
3100,41,18.4375,-86,0.07861328,-1.439941,0.09814453,0.003417969,0.2148438,-0.09375
3104,45.375,21.0625,-95.125,0.1674805,-1.498535,0.140625,-0.0009765625,0.2114258,-0.09375
3108,53.6875,30.5625,-99.375,0.140625,-1.525391,0.1289063,-0.005859375,0.2060547,-0.09082031
3112,54.3125,28.3125,-101.5,0.07080078,-1.479004,0.05566406,-0.004394531,0.2026367,-0.09082031
3116,47.0625,11.375,-114.125,0.1054688,-1.436035,0.04443359,-0.0009765625,0.1938477,-0.08691406
3120,44.0625,1.25,-128.5,0.1674805,-1.552734,0.09033203,0.002441406,0.1923828,-0.08007813
3124,48.25,4.0625,-136.75,0.2104492,-1.626465,0.144043,0.006835938,0.1875,-0.06640625
3128,55.4375,15.4375,-142.0625,0.2373047,-1.653809,0.140625,0.009277344,0.1860352,-0.04345703
3132,63.875,29.1875,-145.625,0.1831055,-1.634277,0.1020508,0.01171875,0.1875,-0.02294922
3136,63.9375,32.4375,-145.5625,0.06298828,-1.533203,0.04785156,0.006835938,0.1962891,0.01611328
3140,62.1875,26.8125,-154,0.02441406,-1.572266,0.08251953,-0.01757813,0.2138672,0.05957031
3144,66.9375,26.1875,-159.8125,0.02832031,-1.548828,0.1210938,-0.04589844,0.2275391,0.07861328
3148,69.9375,31.875,-158.125,0.01269531,-1.533203,0.1479492,-0.09619141,0.2436523,0.08935547
3152,71.1875,29.375,-157.25,-0.05273438,-1.401367,0.06347656,-0.1411133,0.2548828,0.07714844
3156,60.1875,19.125,-156.125,-0.08007813,-1.323242,0.05957031,-0.168457,0.2597656,0.06347656
3160,53.625,8,-155.75,0.0009765625,-1.389648,0.1171875,-0.199707,0.2685547,0.03613281
3164,58.6875,8.9375,-160.875,0.109375,-1.467285,0.2441406,-0.222168,0.2763672,0.0009765625
3168,71.6875,21.8125,-160.25,0.1791992,-1.405273,0.2290039,-0.237793,0.2773438,-0.02734375
3172,78.125,35.8125,-156.125,0.07470703,-1.280762,0.140625,-0.2470703,0.2636719,-0.08300781
3176,68.125,25.0625,-155.1875,-0.01416016,-1.062988,0.06347656,-0.2446289,0.2338867,-0.1347656
3180,56.0625,13.6875,-154.875,-0.05664063,-1.136719,0.144043,-0.2363281,0.2036133,-0.1547852
3184,58.375,7.5625,-152.1875,-0.002441406,-1.152344,0.2250977,-0.222168,0.1577148,-0.1660156
3189,66.0625,13.875,-144,0.1054688,-1.098145,0.2290039,-0.2089844,0.1210938,-0.1606445
3193,68.125,18.125,-140.9375,0.1289063,-0.9697266,0.159668,-0.199707,0.1049805,-0.1523438
3197,61.875,18,-138.8125,0.1367188,-0.8183594,0.1210938,-0.1972656,0.08886719,-0.1333008
3201,50.4375,13.3125,-135.0625,0.125,-0.8339844,0.1557617,-0.1982422,0.07763672,-0.1181641
3205,52.5,15.875,-130,0.1635742,-0.8457031,0.2133789,-0.1982422,0.06982422,-0.1074219
3209,56.1875,20.8125,-123.5,0.2294922,-0.7871094,0.2402344,-0.2080078,0.06884766,-0.09765625
3213,55.875,24.0625,-121.8125,0.206543,-0.6821289,0.2094727,-0.21875,0.06640625,-0.08691406
3217,50.5625,21.625,-117.5625,0.206543,-0.6083984,0.2021484,-0.2270508,0.06494141,-0.08447266
3221,46.1875,17,-113.375,0.1713867,-0.5620117,0.1943359,-0.2387695,0.0625,-0.08300781
3225,37.1875,8.5,-105.125,0.2026367,-0.4570313,0.2133789,-0.2509766,0.06103516,-0.08447266
3229,22.625,-0.8125,-99.25,0.2373047,-0.371582,0.1865234,-0.2602539,0.05615234,-0.07861328
3233,12.75,-9.3125,-99.375,0.2875977,-0.4453125,0.2788086,-0.2709961,0.05517578,-0.08300781
3237,13.3125,-12.75,-99.875,0.3457031,-0.484375,0.375,-0.2817383,0.05126953,-0.08691406
3241,22.8125,-1.125,-93.125,0.4350586,-0.5073242,0.4750977,-0.2890625,0.04638672,-0.08691406
3245,38.375,25.375,-84.4375,0.4155273,-0.4960938,0.4750977,-0.2973633,0.04150391,-0.09375
3249,45,34.375,-70.625,0.2646484,-0.2124023,0.2749023,-0.3017578,0.03613281,-0.1020508
3253,30.8125,26,-72.3125,0.2216797,-0.04541016,0.2558594,-0.3056641,0.03369141,-0.1088867
3257,19.0625,11.4375,-70.6875,0.08642578,-0.09960938,0.2944336,-0.3081055,0.02734375,-0.1157227
3261,17.4375,-0.5,-67.3125,0.07470703,-0.09960938,0.3251953,-0.3125,0.02392578,-0.1210938
3265,20.4375,3.25,-50.375,0.1328125,-0.09570313,0.3598633,-0.3125,0.02148438,-0.1264648
3269,21.0625,11.0625,-28.8125,0.1791992,0.02441406,0.2749023,-0.3164063,0.01611328,-0.1303711
3273,6.875,7.875,-16.1875,0.206543,0.09814453,0.2441406,-0.3173828,0.01367188,-0.1318359
3277,-4.9375,-1.0625,-14.1875,0.2529297,0.05517578,0.2944336,-0.3149414,0.01123047,-0.1333008
3281,-9.9375,-6.875,-11.4375,0.2724609,-0.09179688,0.4287109,-0.3164063,0.01123047,-0.1357422
3285,1.4375,-0.375,-8.25,0.3535156,-0.1811523,0.4868164,-0.3164063,0.01025391,-0.137207
3289,15.25,8.6875,-4.3125,0.3691406,-0.07617188,0.375,-0.3188477,0.006347656,-0.137207
3293,12,16.875,6.125,0.3149414,0.05126953,0.2749023,-0.3164063,0.007324219,-0.1357422
3297,-0.3125,17,15.875,0.2685547,0.1293945,0.2290039,-0.3149414,0.008789063,-0.1401367
3301,-14.125,8.6875,22.8125,0.1831055,0.02832031,0.2480469,-0.3173828,0.008789063,-0.137207
3305,-17.0625,0.3125,31.6875,0.2568359,-0.05273438,0.2866211,-0.3125,0.01269531,-0.137207
3309,-20.4375,2.4375,39.1875,0.3691406,-0.03369141,0.3095703,-0.3105469,0.01757813,-0.1347656
3313,-27.5,6.1875,44.6875,0.3574219,-0.05664063,0.2866211,-0.3115234,0.01757813,-0.1333008
3318,-31.0625,3.5625,48.6875,0.3188477,-0.1928711,0.3291016,-0.309082,0.02246094,-0.1303711
3322,-29.125,3.4375,52.625,0.3808594,-0.2006836,0.3520508,-0.3041992,0.02636719,-0.1279297
3326,-30.4375,10.5,58.5,0.4116211,-0.2431641,0.390625,-0.3007813,0.03027344,-0.1279297
3330,-26.375,18.3125,62.1875,0.3999023,-0.2666016,0.3442383,-0.2973633,0.03515625,-0.1235352
3334,-30.375,21.6875,66.1875,0.3227539,-0.1967773,0.3056641,-0.2915039,0.03759766,-0.1210938
3338,-39.875,16.5,71.375,0.2333984,-0.2666016,0.3134766,-0.2866211,0.04150391,-0.1225586
3342,-43.3125,10.4375,78.875,0.2333984,-0.4101563,0.3637695,-0.2792969,0.04638672,-0.1181641
3346,-39.75,10.9375,84.375,0.3266602,-0.4296875,0.3710938,-0.2709961,0.04882813,-0.1166992
3350,-38.4375,20.625,87.625,0.3769531,-0.4257813,0.355957,-0.2651367,0.05273438,-0.1166992
3354,-44.5625,24.3125,92.1875,0.2797852,-0.3911133,0.3364258,-0.2553711,0.05615234,-0.1181641
3358,-52.375,15.6875,96.875,0.1484375,-0.565918,0.3637695,-0.2470703,0.06005859,-0.1181641
3362,-53.5,-0.25,97.5625,0.1713867,-0.6201172,0.3598633,-0.2402344,0.06103516,-0.1181641
3366,-53.5625,-5.75,98.5625,0.3149414,-0.6669922,0.3671875,-0.234375,0.06396484,-0.1210938
3370,-53.625,-2.0625,96.4375,0.3110352,-0.6240234,0.2788086,-0.2236328,0.06884766,-0.125
3374,-63.4375,-2.25,101.5,0.2490234,-0.6591797,0.3173828,-0.2197266,0.07128906,-0.1264648
3378,-71.4375,-7.4375,107.875,0.2138672,-0.7949219,0.3789063,-0.2104492,0.07763672,-0.1333008
3382,-66.0625,-10.25,113.0625,0.2646484,-1.000977,0.4521484,-0.2055664,0.08251953,-0.1386719
3386,-52.6875,-4.875,112.875,0.4116211,-0.9970703,0.4326172,-0.2021484,0.09130859,-0.144043
3390,-45.5625,9.1875,108.25,0.4194336,-0.8999023,0.3481445,-0.1982422,0.1010742,-0.1538086
3394,-55.4375,7.5,105.75,0.2104492,-0.8105469,0.2480469,-0.1982422,0.1137695,-0.1577148
3398,-67.1875,-4.125,110,0.1171875,-0.9428711,0.2519531,-0.199707,0.125,-0.1630859
3402,-70.0625,-11.0625,115.1875,0.2333984,-1.047363,0.3481445,-0.2021484,0.1435547,-0.1645508
3406,-64.5,-3.6875,116.375,0.2685547,-1.133301,0.3789063,-0.206543,0.1635742,-0.1606445
3410,-60,-2.875,114.125,0.206543,-1.066895,0.3056641,-0.2089844,0.1772461,-0.1538086
3414,-67.5625,-12.6875,112.6875,0.1518555,-1.016602,0.2094727,-0.2089844,0.1948242,-0.1386719
3418,-76.75,-25.4375,107.3125,0.1328125,-1.133301,0.2402344,-0.2114258,0.2114258,-0.1166992
3422,-74.6875,-31.3125,106.875,0.1713867,-1.237793,0.2749023,-0.2114258,0.2148438,-0.09765625
3426,-65.9375,-24.0625,108.0625,0.1987305,-1.331055,0.3134766,-0.206543,0.2211914,-0.07617188
3430,-57.9375,-15.5,112.5625,0.2026367,-1.210938,0.2368164,-0.1972656,0.2250977,-0.05566406
3434,-63.875,-16.375,112.6875,0.1171875,-1.08252,0.1328125,-0.1899414,0.2236328,-0.04492188
3438,-79.25,-30.1875,109.75,0.0009765625,-1.121582,0.1171875,-0.1791992,0.2197266,-0.02832031
3442,-84.5,-46.3125,103.5625,-0.03710938,-1.272949,0.1904297,-0.1625977,0.2172852,-0.009277344
3447,-73.375,-47.8125,108.25,0.07861328,-1.505859,0.2866211,-0.1508789,0.2138672,-0.00390625
3451,-57.125,-31.75,109.4375,0.1791992,-1.439941,0.2749023,-0.1342773,0.2084961,0.006347656
3455,-50.4375,-20.625,110.75,0.1210938,-1.269043,0.1328125,-0.1137695,0.2060547,0.009277344
3459,-58.625,-27.0625,101.6875,-0.01806641,-1.15625,0.08251953,-0.09863281,0.2036133,0.006347656
3463,-66.625,-38.75,98.625,-0.1884766,-1.210938,0.09423828,-0.07958984,0.2001953,0.00390625
3467,-65.5,-51.8125,99.6875,-0.2080078,-1.34668,0.1479492,-0.06298828,0.1948242,-0.00390625
3471,-53.875,-47.1875,111.6875,-0.06054688,-1.37793,0.1367188,-0.05078125,0.1948242,-0.01220703
3475,-50.75,-35.8125,110.25,0.08642578,-1.312012,0.1557617,-0.03662109,0.1923828,-0.02832031
3479,-39.625,-17,103.875,0.03173828,-1.34668,0.1674805,-0.02587891,0.1948242,-0.03955078
3483,-35.4375,-7.6875,98.1875,-0.1650391,-1.203125,0.1171875,-0.0234375,0.1948242,-0.04882813
3487,-42.5625,-16.0625,98.875,-0.4521484,-1.288574,0.08642578,-0.01611328,0.1962891,-0.06103516
3491,-48.75,-53.3125,103.5,-0.4287109,-1.257324,-0.04003906,-0.01269531,0.2001953,-0.07177734
3495,-48.8125,-63.125,100.0625,-0.08007813,-1.385742,0.05957031,-0.01269531,0.2011719,-0.07617188
3499,-42.625,-57.1875,99,0.05126953,-1.393555,0.04052734,-0.009277344,0.2050781,-0.08154297
3503,-33,-44.4375,96.25,0.2138672,-1.447754,0.07128906,-0.0078125,0.2124023,-0.08544922
3507,-22.4375,-25.375,89.4375,0.2797852,-1.401367,0.08251953,-0.003417969,0.2148438,-0.08691406
3511,-15.25,-6.1875,88.25,0.2758789,-1.385742,0.03271484,0,0.21875,-0.09082031
3515,-12.625,-0.875,77.8125,0.2104492,-1.304199,-0.005371094,0.008300781,0.2197266,-0.09082031
3519,-17.875,-7.875,67.0625,0.04736328,-1.26123,-0.04736328,0.01269531,0.2236328,-0.09667969
3523,-22.9375,-27.125,53.1875,-0.02587891,-1.26123,-0.07080078,0.02246094,0.2285156,-0.09667969
3527,-27.9375,-43.875,45.5,0.01660156,-1.272949,-0.04394531,0.03417969,0.2314453,-0.09912109
3531,-22.375,-41.875,38.1875,0.2529297,-1.272949,-0.03222656,0.04248047,0.2363281,-0.1005859
3535,-23.875,-28.875,30.25,0.2954102,-1.245605,-0.01660156,0.06054688,0.2412109,-0.1044922
3539,-21.6875,-16.625,25.1875,0.2333984,-1.280762,0.02099609,0.07470703,0.2475586,-0.1098633
3543,-17.25,-8.8125,17.0625,0.1713867,-1.300293,0.09814453,0.08203125,0.2539063,-0.112793
3547,-6,-4.5625,10.0625,0.1674805,-1.350586,0.1171875,0.08886719,0.2597656,-0.1157227
3551,1.0625,-3.625,-3,0.2104492,-1.233887,0.08251953,0.09277344,0.2597656,-0.1166992
3555,4.875,3.875,-13.3125,0.2333984,-1.296387,0.09033203,0.08789063,0.2573242,-0.1157227
3559,12.625,15.25,-20.625,0.2451172,-1.319336,0.1171875,0.07958984,0.2548828,-0.1113281
3563,22.375,29.6875,-26.5,0.2138672,-1.34668,0.1098633,0.06542969,0.2460938,-0.1098633
3567,28.25,40.625,-31.125,0.206543,-1.331055,0.1328125,0.05566406,0.2436523,-0.1035156
3571,33.25,46.3125,-41.25,0.1210938,-1.334961,0.1210938,0.04248047,0.2373047,-0.09912109
3576,38.125,42.75,-50.4375,0.06298828,-1.338867,0.1020508,0.02832031,0.2314453,-0.09667969
3580,39.4375,37.25,-59.375,0.02050781,-1.331055,0.08251953,0.02246094,0.2314453,-0.09765625
3584,43.3125,34.75,-65.5,0.08642578,-1.37793,0.1132813,0.01416016,0.2236328,-0.09765625
3588,46.0625,37.75,-74,0.08251953,-1.389648,0.1171875,0.005859375,0.2211914,-0.09521484
3592,49.3125,40.5,-79.5,0.03564453,-1.42041,0.09423828,0.004394531,0.21875,-0.09765625
3596,48.5,33.25,-87.75,-0.02197266,-1.350586,0.08642578,0.0009765625,0.2138672,-0.09765625
3600,47.125,22.75,-94.8125,-0.01806641,-1.416504,0.1020508,-0.003417969,0.2075195,-0.09667969
3604,48.5,20.0625,-98.1875,0.05126953,-1.397461,0.1098633,-0.003417969,0.2036133,-0.09521484
3608,50.6875,23.9375,-104.5,0.08642578,-1.498535,0.1171875,-0.005859375,0.2001953,-0.08837891
3612,56.8125,28.4375,-109.875,0.08642578,-1.486816,0.1098633,-0.005859375,0.1962891,-0.08154297
3616,58.6875,31.8125,-113.875,0.05517578,-1.459473,0.08251953,-0.009277344,0.1914063,-0.06933594
3620,56.875,28.4375,-116.75,-0.01025391,-1.393555,0.05175781,-0.01171875,0.1914063,-0.05859375
3624,49.6875,14.3125,-123.3125,-0.01416016,-1.366211,0.05566406,-0.02001953,0.1923828,-0.03955078
3628,47.25,4.625,-128.875,0.03173828,-1.447754,0.1098633,-0.02832031,0.1948242,-0.02734375
3632,47,1.5625,-135.6875,0.1132813,-1.416504,0.1328125,-0.04589844,0.1962891,-0.008300781
3636,42.625,2.3125,-137.6875,0.1171875,-1.424316,0.1787109,-0.06982422,0.2036133,0.006347656
3640,41.9375,0.625,-142.625,0.1210938,-1.447754,0.2211914,-0.08642578,0.2114258,0.01464844
3644,41.375,-4,-146.4375,0.1171875,-1.494629,0.2905273,-0.112793,0.2172852,0.01855469
3648,48.625,-0.4375,-151.875,0.159668,-1.556641,0.3330078,-0.1411133,0.2226563,0.01318359
3652,60.625,10.75,-154.1875,0.1557617,-1.560547,0.3598633,-0.1582031,0.2260742,0.00390625
3656,71.3125,20.375,-152.4375,0.05517578,-1.486816,0.2866211,-0.1806641,0.2324219,-0.009277344
3660,74.1875,20.125,-149.4375,0.008789063,-1.350586,0.2368164,-0.1982422,0.2338867,-0.03271484
3664,71.5,15.375,-151.0625,-0.02978516,-1.245605,0.1865234,-0.2114258,0.2324219,-0.04736328
3668,64.6875,4.25,-149.125,-0.06835938,-1.226563,0.1982422,-0.2211914,0.2260742,-0.08154297
3672,65.0625,-3.8125,-148.5625,0.008789063,-1.207031,0.2250977,-0.2255859,0.2114258,-0.1098633
3676,69.4375,-2,-146.5625,0.1054688,-1.21875,0.2675781,-0.2255859,0.1938477,-0.1235352
3680,73.5,5.1875,-144.4375,0.140625,-1.11377,0.2172852,-0.2236328,0.1689453,-0.1401367
3684,71.5,8.4375,-139,0.07861328,-0.9931641,0.1171875,-0.215332,0.1425781,-0.1469727
3688,59.9375,-1.75,-136.6875,0.07080078,-0.8999023,0.125,-0.2138672,0.1235352,-0.144043
3692,53.0625,-10.5625,-133.1875,0.159668,-0.9155273,0.159668,-0.2114258,0.1049805,-0.1386719
3696,51,-6.875,-132.25,0.3071289,-0.9389648,0.2480469,-0.2104492,0.08886719,-0.1264648
3700,57.25,3,-133.4375,0.2685547,-0.8959961,0.2329102,-0.2104492,0.08398438,-0.1181641
3705,58.9375,6,-126.875,0.2138672,-0.7290039,0.1748047,-0.2163086,0.07373047,-0.1088867
3709,45.5625,-1.1875,-123.6875,0.1557617,-0.6083984,0.1289063,-0.2246094,0.06738281,-0.09765625
3713,32.0625,-16.625,-121.875,0.190918,-0.5893555,0.1557617,-0.2280273,0.06738281,-0.09082031
3717,28.75,-18.4375,-117.4375,0.3188477,-0.6787109,0.2519531,-0.2412109,0.0625,-0.08544922
3721,34.1875,-6.4375,-112.5,0.4077148,-0.6357422,0.2866211,-0.2509766,0.05859375,-0.07861328
3725,36.1875,5.5625,-105.9375,0.3652344,-0.550293,0.2597656,-0.2553711,0.05615234,-0.07617188
3729,34.1875,5.75,-100.8125,0.2993164,-0.453125,0.1982422,-0.2675781,0.05371094,-0.07861328
3733,23.875,-8.4375,-92.8125,0.3378906,-0.3134766,0.1635742,-0.2783203,0.04980469,-0.08007813
3737,8.125,-24.625,-95.9375,0.4619141,-0.2431641,0.1826172,-0.2851563,0.04736328,-0.07861328
3741,-6.75,-36.9375,-93.1875,0.5048828,-0.2744141,0.2172852,-0.2958984,0.04248047,-0.07861328
3745,-18.5,-41.6875,-93.4375,0.609375,-0.4570313,0.3364258,-0.3032227,0.03613281,-0.07763672
3749,-6.75,-31.1875,-96.375,0.7177734,-0.6044922,0.4790039,-0.3115234,0.03027344,-0.07617188
3753,11.6875,-6.5,-94.75,0.6713867,-0.4882813,0.4868164,-0.3173828,0.02490234,-0.07861328
3757,18.6875,13.375,-88.75,0.5087891,-0.453125,0.4287109,-0.3232422,0.01855469,-0.08447266
3761,33.625,24.625,-85.125,0.3808594,-0.402832,0.3173828,-0.3271484,0.01367188,-0.08691406
3765,43.625,32.5,-76.5625,0.3847656,-0.1381836,0.1635742,-0.3330078,0.004882813,-0.09765625
3769,31.875,44.5625,-67.125,0.2954102,0.140625,0.125,-0.3330078,-0.001953125,-0.105957
3773,1.5625,35.4375,-46.4375,-0.006347656,0.09033203,0.1328125,-0.3330078,-0.003417969,-0.1113281
3777,-8.5625,3.3125,-39.3125,-0.04492188,-0.06835938,0.2211914,-0.3339844,-0.006835938,-0.1166992
3781,4.5625,-17.4375,-35.9375,0.2216797,-0.09960938,0.2827148,-0.3354492,-0.009277344,-0.1196289
3785,10.375,-1.1875,-32.5,0.4116211,0.06689453,0.2944336,-0.3354492,-0.01074219,-0.1181641
3789,6,17.125,-18.5,0.2797852,0.07861328,0.2133789,-0.3354492,-0.01464844,-0.1210938
3793,-3.1875,12.3125,-5.8125,0.125,0.1835938,0.1904297,-0.3354492,-0.015625,-0.1235352
3797,-14.875,-3.6875,1.0625,0.06689453,0.09033203,0.2368164,-0.3364258,-0.01708984,-0.125
3801,-12.3125,-15.125,8.5,0.1518555,0.02441406,0.2519531,-0.3339844,-0.015625,-0.1235352
3805,-7,-9,16.875,0.2993164,0.03613281,0.2211914,-0.3339844,-0.01171875,-0.1225586
3809,-4.8125,6.625,26.625,0.3227539,0.121582,0.1367188,-0.3364258,-0.01318359,-0.1181641
3813,-14.3125,16.375,36.375,0.2373047,0.2109375,0.07128906,-0.3330078,-0.01171875,-0.1196289
3817,-31.5625,11.9375,49.375,0.07470703,0.09423828,0.07910156,-0.3295898,-0.006835938,-0.1142578
3821,-40.75,-3.0625,61,0.125,-0.03369141,0.140625,-0.3305664,-0.004394531,-0.1157227
3825,-34.8125,-0.875,67.1875,0.2915039,-0.1577148,0.2133789,-0.3271484,0,-0.1113281
3829,-31.75,12,74.25,0.3110352,-0.05664063,0.1826172,-0.3232422,0.007324219,-0.1088867
3834,-43.75,11.8125,80.9375,0.1791992,-0.08398438,0.1713867,-0.3198242,0.01269531,-0.105957
3838,-49.25,2.1875,90.0625,0.1210938,-0.2509766,0.2368164,-0.3125,0.01855469,-0.1020508
3842,-45.6875,-0.9375,99.0625,0.206543,-0.4179688,0.2675781,-0.3081055,0.02246094,-0.1005859
3846,-42.125,1.5,107,0.3847656,-0.1967773,0.2788086,-0.2998047,0.03027344,-0.09667969
3850,-38.5625,9.25,103.9375,0.3613281,-0.3208008,0.2060547,-0.2900391,0.03759766,-0.09521484
3854,-53.5,14.9375,112.1875,0.2490234,-0.4140625,0.2368164,-0.2817383,0.04248047,-0.09521484
3858,-54.125,14.875,120.8125,0.1557617,-0.6630859,0.2480469,-0.2734375,0.04736328,-0.09375
3862,-47.5625,13,126.9375,0.2333984,-0.7016602,0.2749023,-0.2617188,0.05517578,-0.09912109
3866,-41.8125,22.375,129.375,0.3378906,-0.7055664,0.2675781,-0.2509766,0.0625,-0.09912109
3870,-48.375,25.5,136.375,0.2104492,-0.5737305,0.1865234,-0.2436523,0.06396484,-0.105957
3874,-76.8125,8.25,141.1875,0.05908203,-0.6938477,0.2250977,-0.2353516,0.06982422,-0.1142578
3878,-80.375,-16.375,140.9375,0.05908203,-1.016602,0.3056641,-0.2246094,0.08007813,-0.1210938
3882,-68.25,-22.25,143.6875,0.2797852,-1.121582,0.3637695,-0.2236328,0.08740234,-0.1225586
3886,-57.9375,-8.5,140.4375,0.3808594,-1.102051,0.3481445,-0.2172852,0.1000977,-0.1289063
3890,-55.125,1.625,142.25,0.2104492,-1.055176,0.2250977,-0.2163086,0.1162109,-0.1347656
3894,-63.6875,-4.6875,148.375,0.175293,-1.020508,0.1748047,-0.2163086,0.1274414,-0.1357422
3898,-71.25,-6.875,150.0625,0.2138672,-1.183594,0.2709961,-0.2163086,0.1459961,-0.1347656
3902,-65.375,-1.25,154.3125,0.2490234,-1.331055,0.3173828,-0.2197266,0.1674805,-0.1264648
3906,-53.3125,8.6875,150.5,0.2646484,-1.374023,0.3330078,-0.2163086,0.1811523,-0.1196289
3910,-48.3125,7.9375,148,0.07861328,-1.226563,0.125,-0.215332,0.1972656,-0.1044922
3914,-67.4375,-12.375,146.375,0.02441406,-1.125488,0.05566406,-0.2114258,0.2084961,-0.08300781
3918,-85.375,-33.1875,146.6875,0.07861328,-1.300293,0.09033203,-0.2006836,0.2148438,-0.06787109
3922,-88.8125,-38.125,144,0.190918,-1.443848,0.2250977,-0.1875,0.2172852,-0.04638672
3926,-80.5,-31.5,142.25,0.190918,-1.606934,0.2944336,-0.1723633,0.2172852,-0.02734375
3930,-60.1875,-24.4375,142.5,0.1171875,-1.614746,0.2172852,-0.1616211,0.2138672,-0.01464844
3934,-64.25,-35.9375,140,0.1484375,-1.34668,0.09814453,-0.1411133,0.2124023,-0.005371094
3938,-75.25,-46.5,129.8125,0.1674805,-1.408691,0.03271484,-0.1162109,0.2084961,0
3942,-77.9375,-53.3125,120.5625,0.1054688,-1.494629,0.07519531,-0.1054688,0.2050781,0.002441406
3946,-68.25,-47.0625,124.875,0.1791992,-1.595215,0.1943359,-0.08203125,0.2001953,-0.001464844
3950,-58.6875,-35.75,120.625,0.07080078,-1.576172,0.1982422,-0.06152344,0.1972656,-0.008300781
3954,-51.9375,-43.125,122.375,-0.006347656,-1.467285,0.02880859,-0.05224609,0.1962891,-0.01757813
3958,-60.25,-62.875,108.0625,-0.03320313,-1.331055,-0.04003906,-0.03759766,0.1962891,-0.02978516
3963,-69.5625,-81.5,99.625,-0.07226563,-1.370117,-0.07861328,-0.02929688,0.1962891,-0.04199219
3967,-61.8125,-86.5625,102.5625,0.175293,-1.599121,0.04052734,-0.02490234,0.2001953,-0.04882813
3971,-46.8125,-57.0625,101.9375,0.3496094,-1.513672,0.05566406,-0.02001953,0.2011719,-0.05957031
3975,-35.4375,-27,100.3125,0.2529297,-1.509766,0.01367188,-0.01855469,0.2060547,-0.06640625
3979,-31.8125,-20.125,94.5625,0.01660156,-1.34668,-0.07470703,-0.01611328,0.2114258,-0.07177734
3983,-37.125,-30.8125,85.1875,-0.1845703,-1.241699,-0.128418,-0.01513672,0.2148438,-0.07470703
3987,-40.125,-56.125,86.3125,-0.03320313,-1.34668,-0.1435547,-0.01416016,0.2197266,-0.07861328
3991,-36.25,-52.5625,75.3125,0.2177734,-1.300293,-0.07470703,-0.01171875,0.2226563,-0.08007813
3995,-29.25,-29.25,74.625,0.4155273,-1.358398,-0.02050781,-0.01025391,0.2260742,-0.08007813
3999,-20.0625,0.75,68.375,0.3188477,-1.296387,0.009765625,-0.005859375,0.2299805,-0.08300781
4003,-17.1875,7.4375,58.9375,0.06298828,-1.226563,-0.005371094,-0.003417969,0.2338867,-0.08447266
4007,-20.25,-8.625,48.4375,-0.2119141,-1.136719,-0.07470703,-0.0009765625,0.2363281,-0.08544922
4011,-33.375,-45.5625,35.875,-0.4130859,-1.066895,-0.1435547,0.002441406,0.2387695,-0.09082031
4015,-42.1875,-80.125,34.875,-0.28125,-1.1875,-0.1821289,0.003417969,0.2397461,-0.09082031
4019,-45.1875,-89.9375,35.75,0.02050781,-1.226563,-0.1435547,0.004394531,0.2475586,-0.09667969
4023,-36.375,-65.1875,34.25,0.3808594,-1.296387,-0.04736328,0.0009765625,0.2524414,-0.1074219
4027,-21.875,-25.3125,27.0625,0.4506836,-1.288574,0.03662109,-0.0009765625,0.2587891,-0.1113281
4031,-10.3125,7.1875,22.4375,0.2451172,-1.265137,0.05175781,-0.003417969,0.262207,-0.1196289
4035,1.1875,16.125,15.5,0.008789063,-1.22998,0.04443359,-0.0078125,0.2651367,-0.1225586
4039,7.3125,12.0625,8.5625,-0.1381836,-1.144531,-0.02441406,-0.009277344,0.2661133,-0.1264648
4043,4.625,-3.625,1.4375,-0.246582,-1.098145,-0.1591797,-0.006835938,0.2685547,-0.1289063
4047,0.3125,-18.0625,-3.125,-0.04492188,-1.040039,-0.1860352,-0.006835938,0.2675781,-0.1289063
4051,-3.6875,-4.25,-9.25,0.1289063,-1.102051,-0.128418,-0.0078125,0.2675781,-0.1318359
4055,-1.75,16.5,-13.6875,0.1171875,-1.1875,-0.04003906,-0.006835938,0.2651367,-0.1264648
4059,9.5625,31.75,-15.5625,0.05908203,-1.362305,0.01367188,-0.001953125,0.262207,-0.1181641
4063,22.5,39.625,-21.3125,0.06689453,-1.308105,0.05175781,-0.0009765625,0.2573242,-0.112793
4067,32.5625,46.875,-30.75,0.07470703,-1.338867,0.02880859,0.004394531,0.2509766,-0.105957
4071,41.5625,49.875,-39.3125,0.08642578,-1.334961,-0.02441406,0.004394531,0.2485352,-0.1005859
4075,44.75,54.375,-46.125,0.1518555,-1.304199,-0.009277344,0.004394531,0.2426758,-0.09521484
4079,46.75,65,-53.875,0.1713867,-1.370117,0.02490234,0.003417969,0.2387695,-0.09082031
4083,51.25,71.1875,-56.6875,0.1831055,-1.475098,0.05175781,-0.0009765625,0.2348633,-0.08837891
4087,61.375,74.75,-69.4375,0.2026367,-1.521484,0.09814453,0,0.2299805,-0.08544922
4092,69.125,74.9375,-78.0625,0.1987305,-1.541016,0.09423828,-0.003417969,0.2250977,-0.08447266
4096,75.75,68.6875,-92.375,0.1557617,-1.544922,0.07128906,-0.005859375,0.2197266,-0.08691406
4100,79,58.1875,-106.0625,0.1289063,-1.525391,0.05175781,-0.006835938,0.2163086,-0.08691406
4104,76.4375,50.5625,-112.5,0.125,-1.479004,0.02880859,-0.0078125,0.2114258,-0.08837891
4108,71.0625,41.625,-116.4375,0.1054688,-1.525391,0.03271484,-0.01171875,0.2060547,-0.08154297
4112,67.75,32.9375,-123.375,0.1445313,-1.544922,0.06347656,-0.009277344,0.2026367,-0.07861328
4116,68.4375,30.6875,-130.1875,0.1987305,-1.61084,0.1020508,-0.01416016,0.2001953,-0.06933594
4120,72.25,31.5625,-139.3125,0.206543,-1.591309,0.1098633,-0.01855469,0.1987305,-0.05419922
4124,71.0625,29.4375,-147.6875,0.1328125,-1.568359,0.1020508,-0.0234375,0.1972656,-0.03955078
4128,69.875,17.6875,-154.625,0.05126953,-1.498535,0.05957031,-0.03759766,0.2011719,-0.02050781
4132,55.375,-4.5,-156,0.03173828,-1.331055,-0.001464844,-0.06152344,0.2084961,0
4136,29.25,-31.75,-163.8125,0.1328125,-1.370117,0.05957031,-0.08056641,0.2138672,0.01171875
4140,18.6875,-44.375,-170.25,0.2529297,-1.568359,0.1713867,-0.112793,0.2172852,0.02148438
4144,23.5,-36.75,-180.6875,0.3652344,-1.74707,0.3134766,-0.1450195,0.2260742,0.02294922
4148,39.25,-18.0625,-181.875,0.3886719,-1.773926,0.2944336,-0.1665039,0.2275391,0.02001953
4152,47.8125,-3.75,-189.8125,0.3188477,-1.649902,0.2133789,-0.1948242,0.2314453,0.00390625
4156,45.0625,-4.0625,-193.625,0.06689453,-1.509766,0.07519531,-0.21875,0.2299805,-0.01904297
4160,33.125,-24.3125,-200.875,-0.05273438,-1.42041,0.08642578,-0.2294922,0.2250977,-0.03955078
4164,24.75,-38.1875,-201,-0.02978516,-1.424316,0.1328125,-0.2412109,0.2114258,-0.06640625
4168,30.8125,-28.4375,-194.0625,0.02050781,-1.463379,0.2094727,-0.2460938,0.1850586,-0.08984375
4172,38.6875,-14.0625,-174,-0.01025391,-1.327148,0.1479492,-0.2412109,0.1660156,-0.1020508
4176,38.375,-11.625,-172.3125,0.02441406,-1.090332,0.05957031,-0.2329102,0.1386719,-0.105957
4180,36.9375,-11.0625,-170.375,0.01269531,-1.148438,0.06347656,-0.2294922,0.1113281,-0.1035156
4184,37.375,-11.8125,-166.75,0.07861328,-1.012695,0.1098633,-0.2270508,0.09765625,-0.09228516
4188,38.5625,-6.1875,-157.75,0.1367188,-0.9541016,0.1020508,-0.2255859,0.08251953,-0.08007813
4192,42.3125,1.8125,-154.5,0.1445313,-0.9038086,0.1367188,-0.2304688,0.06982422,-0.06542969
4196,49.4375,6.625,-141.875,0.05908203,-0.8764648,0.04785156,-0.237793,0.06396484,-0.05419922
4200,43,-5.125,-136.8125,0.1367188,-0.565918,-0.01318359,-0.2460938,0.05517578,-0.04052734
4204,30.6875,-15.9375,-137.8125,0.1328125,-0.6005859,-0.04003906,-0.2553711,0.04882813,-0.03271484
4208,21.8125,-26.5,-131.8125,0.2568359,-0.550293,-0.001464844,-0.2651367,0.04248047,-0.02441406
4212,17.75,-26.9375,-129,0.4311523,-0.5385742,0.06347656,-0.2783203,0.03759766,-0.01367188
4216,22.3125,-9.375,-124.375,0.4814453,-0.5463867,0.1098633,-0.2890625,0.03125,-0.01074219
4221,28.5,7.5,-111.6875,0.4233398,-0.565918,0.07519531,-0.2998047,0.02880859,-0.009277344
4225,29.875,12.375,-98.4375,0.4389648,-0.3950195,0.005859375,-0.3105469,0.02246094,-0.01220703
4229,20.8125,6.9375,-96.1875,0.4970703,-0.2431641,-0.05126953,-0.3222656,0.01855469,-0.01220703
4233,10.1875,6.75,-101.1875,0.5708008,-0.2744141,0.07519531,-0.3271484,0.01757813,-0.02050781
4237,16.9375,20.0625,-98.3125,0.5048828,-0.3833008,0.140625,-0.3378906,0.008789063,-0.02587891
4241,24.625,29.625,-88.4375,0.4736328,-0.2275391,0.1171875,-0.34375,0.002441406,-0.03271484
4245,23.5,33.1875,-81.75,0.4389648,-0.1616211,0.05957031,-0.347168,-0.0004882813,-0.03808594
4249,18.1875,28.625,-72,0.3769531,-0.1035156,0.02880859,-0.3496094,-0.006835938,-0.04736328
4253,9.4375,24.3125,-67.75,0.4428711,0.04394531,0.07910156,-0.3554688,-0.01318359,-0.05712891
4257,1.6875,20.8125,-59.625,0.3266602,-0.08007813,0.07910156,-0.3554688,-0.01953125,-0.06103516
4261,-0.125,11.75,-54.625,0.3808594,0.1137695,0.09814453,-0.3569336,-0.02197266,-0.06640625
4265,-17.625,6.5625,-49.9375,0.3496094,0.1679688,0.1479492,-0.3588867,-0.03076172,-0.07177734
4269,-23.25,10.625,-43.25,0.3032227,0.1176758,0.2983398,-0.3569336,-0.03466797,-0.07177734
4273,-15.4375,27,-31.3125,0.125,-0.05273438,0.4560547,-0.3588867,-0.03710938,-0.08154297
4277,0.75,32.3125,-3.9375,-0.1186523,-0.07617188,0.390625,-0.3579102,-0.03808594,-0.08300781
4281,2.9375,9.0625,25.75,-0.1459961,0.1679688,0.1557617,-0.3554688,-0.03808594,-0.08544922
4285,-20.8125,-28.9375,31.3125,0.09765625,0.3544922,0.07128906,-0.3569336,-0.03710938,-0.08691406
4289,-38.5625,-36.8125,30.9375,0.3691406,0.1640625,0.2636719,-0.3554688,-0.03320313,-0.08154297
4293,-35.6875,-27.1875,31.6875,0.4116211,-0.06835938,0.3867188,-0.3554688,-0.02685547,-0.07763672
4297,-14.5625,-15.4375,40.75,0.4311523,-0.2163086,0.3710938,-0.3569336,-0.02197266,-0.07080078
4301,2.3125,-4.375,50.5,0.5668945,-0.04882813,0.2983398,-0.3554688,-0.02197266,-0.07080078
4305,4,13,54.25,0.6171875,-0.002441406,0.2675781,-0.3530273,-0.015625,-0.06933594
4309,4.25,29.5,60.6875,0.5126953,-0.09179688,0.2402344,-0.3505859,-0.009277344,-0.06787109
4313,9.8125,35.5625,68.5625,0.4580078,-0.06054688,0.1943359,-0.3486328,-0.003417969,-0.06787109
4317,4,38.875,76.1875,0.3886719,-0.03369141,0.1518555,-0.3461914,-0.001953125,-0.06933594
4321,-6,27.6875,81.8125,0.2915039,-0.03759766,0.105957,-0.34375,0.00390625,-0.06933594
4325,-17.875,10.875,86.6875,0.3071289,-0.08789063,0.1635742,-0.3364258,0.01123047,-0.06640625
4329,-22.125,5.9375,94.25,0.3652344,-0.324707,0.2866211,-0.3339844,0.01513672,-0.06103516
4333,-10.1875,7.5625,102.375,0.4658203,-0.3911133,0.2368164,-0.3295898,0.02246094,-0.05957031
4337,-13.625,10.875,103.375,0.5976563,-0.1538086,0.2329102,-0.3198242,0.02880859,-0.05566406
4341,-22.25,12.375,101,0.4506836,-0.2744141,0.1518555,-0.3149414,0.03369141,-0.05419922
4345,-35.1875,7.6875,107.4375,0.3378906,-0.4882813,0.2133789,-0.3056641,0.03857422,-0.05175781
4350,-31.0625,0.875,117.1875,0.3847656,-0.6044922,0.2480469,-0.2924805,0.04394531,-0.05029297
4354,-24.5625,5.625,117.25,0.5356445,-0.6669922,0.3017578,-0.2841797,0.04882813,-0.05175781
4358,-13.5625,20.625,121.1875,0.5976563,-0.6357422,0.2133789,-0.2724609,0.05517578,-0.05273438
4362,-19.625,30.625,121.0625,0.5200195,-0.5268555,0.1943359,-0.2602539,0.05859375,-0.05859375
4366,-37.5,25.6875,125.5,0.2529297,-0.6748047,0.2133789,-0.2495117,0.06396484,-0.06542969
4370,-43.375,-2.6875,128,0.2685547,-0.7832031,0.2172852,-0.2402344,0.06982422,-0.07177734
4374,-39.8125,-14.5625,120.5625,0.4970703,-0.9350586,0.3095703,-0.2304688,0.07617188,-0.08007813
4378,-29.375,0,122.875,0.6401367,-0.9077148,0.2597656,-0.2246094,0.08007813,-0.08544922
4382,-27.0625,23.5,120.625,0.5898438,-0.8842773,0.2558594,-0.2172852,0.08642578,-0.09765625
4386,-34.9375,31.5,125.0625,0.3032227,-0.8378906,0.1943359,-0.2128906,0.09765625,-0.1098633
4390,-44.875,18.8125,133,0.1674805,-0.9506836,0.2290039,-0.2128906,0.1035156,-0.1157227
4394,-47.5625,0.4375,134.5,0.2451172,-1.032227,0.2368164,-0.2104492,0.1186523,-0.1264648
4398,-44.1875,1.625,131.9375,0.4155273,-1.129395,0.2709961,-0.2114258,0.1386719,-0.1333008
4402,-39.25,12.125,125.5625,0.4116211,-1.105957,0.2402344,-0.2163086,0.1499023,-0.1318359
4406,-39.3125,17.5,124.125,0.2490234,-1.094238,0.2250977,-0.2211914,0.1748047,-0.1289063
4410,-43.1875,11.5625,133.8125,0.1367188,-1.121582,0.1904297,-0.2236328,0.1972656,-0.1225586
4414,-51.6875,-4.375,131.75,0.2373047,-1.047363,0.1518555,-0.2246094,0.2138672,-0.1098633
4418,-56.5625,-4.5625,125.4375,0.2836914,-1.222656,0.2021484,-0.2236328,0.2314453,-0.08447266
4422,-53.5,-1,121.0625,0.159668,-1.272949,0.1982422,-0.2211914,0.2412109,-0.05859375
4426,-46.4375,7,115.5,0.06298828,-1.350586,0.2866211,-0.2138672,0.2475586,-0.04345703
4430,-38.375,5.5625,126.1875,-0.1264648,-1.300293,0.105957,-0.2006836,0.2460938,-0.01464844
4434,-43.5,-12.3125,135.625,0.02441406,-1.133301,0.02490234,-0.1855469,0.2460938,0.00390625
4438,-54,-15.0625,127.375,0.1987305,-1.074707,-0.005371094,-0.1699219,0.2460938,0.01318359
4442,-64.75,-7.25,125.5625,0.1328125,-1.183594,0.04785156,-0.1459961,0.2412109,0.03076172
4446,-64.8125,2.6875,121.6875,-0.07226563,-1.312012,0.144043,-0.1162109,0.2338867,0.03759766
4450,-62.0625,0,124.0625,-0.328125,-1.366211,0.1328125,-0.09960938,0.2260742,0.04296875
4454,-63.25,-34.375,139.125,-0.3007813,-1.350586,-0.05908203,-0.06738281,0.2172852,0.03515625
4458,-62.0625,-54.8125,123.3125,0.02050781,-1.249512,-0.09375,-0.0390625,0.2084961,0.01708984
4462,-71.75,-49.8125,119.25,0.1635742,-1.210938,-0.1513672,-0.0234375,0.2026367,0.00390625
4466,-80.375,-37.3125,116.8125,0.1328125,-1.245605,-0.1630859,-0.01025391,0.1948242,-0.01611328
4470,-85.5,-30,118.5,-0.04101563,-1.37793,-0.1015625,-0.006835938,0.1923828,-0.03808594
4474,-80.3125,-21.625,124.5,-0.002441406,-1.408691,-0.02832031,-0.003417969,0.1948242,-0.04882813
4479,-74,-17.3125,122.4375,0.03564453,-1.405273,-0.02832031,-0.003417969,0.1972656,-0.06396484
4483,-75.5625,-18.5625,117.1875,-0.01416016,-1.276855,-0.04736328,-0.001953125,0.2011719,-0.06933594
4487,-90.875,-45.3125,101,-0.2700195,-1.210938,-0.1782227,-0.0009765625,0.2075195,-0.07470703
4491,-114.0625,-97.5625,87.9375,-0.4287109,-1.265137,-0.2978516,0.0009765625,0.2124023,-0.07324219
4495,-126.9375,-147.3125,84.8125,-0.1303711,-1.541016,-0.3359375,0.002441406,0.21875,-0.07470703
4499,-132.8125,-172.9375,73.625,0.2026367,-1.556641,-0.2900391,0.008300781,0.2211914,-0.07080078
4503,-132.75,-175.5,64.375,0.4931641,-1.688477,-0.2285156,0.02490234,0.2250977,-0.07080078
4507,-120.25,-157.6875,44.9375,0.6015625,-1.797363,-0.112793,0.05712891,0.2285156,-0.08691406
