Packet number,Gyroscope X (deg/s),Gyroscope Y (deg/s),Gyroscope Z (deg/s),Accelerometer X (g),Accelerometer Y (g),Accelerometer Z (g),Magnetometer X (G),Magnetometer Y (G),Magnetometer Z (G)
1,-7.375,6.8125,5.375,0.9931641,0.1601563,-0.03222656,-0.2319336,-0.1767578,-0.04345703
5,-9.4375,8.8125,8.25,1.000488,0.15625,-0.04394531,-0.2329102,-0.1767578,-0.04345703
9,-7.875,10,8.25,0.9736328,0.1484375,-0.06689453,-0.2329102,-0.1757813,-0.04492188
13,-2.875,10.125,7.0625,0.9501953,0.1640625,-0.1015625,-0.2319336,-0.1757813,-0.04345703
17,1.0625,7.625,6.5,0.9541016,0.21875,-0.1015625,-0.2353516,-0.1757813,-0.04492188
21,2.5,7.5,6.8125,0.9892578,0.300293,-0.07470703,-0.2353516,-0.1757813,-0.04492188
25,-5.625,8.4375,3.875,0.9736328,0.4165039,-0.05517578,-0.234375,-0.1757813,-0.04736328
29,-22.0625,7,4.625,0.9658203,0.4672852,-0.06298828,-0.2363281,-0.1757813,-0.04882813
33,-38,4.125,6.375,0.9892578,0.4477539,-0.05517578,-0.2353516,-0.1733398,-0.05029297
37,-45.8125,5.125,2.6875,1.000488,0.4052734,-0.08203125,-0.2329102,-0.1733398,-0.05175781
41,-43.4375,5.375,-3.125,0.9853516,0.3349609,-0.0859375,-0.234375,-0.1733398,-0.05419922
45,-37.1875,6.4375,-7.8125,0.9814453,0.3041992,-0.08984375,-0.2353516,-0.171875,-0.05566406
49,-32.5,6.5,-7.375,0.9736328,0.3041992,-0.08984375,-0.234375,-0.1733398,-0.05712891
53,-30.9375,6.0625,-6.125,0.9580078,0.4013672,-0.09375,-0.2304688,-0.1733398,-0.05566406
57,-25,6.4375,-11.0625,1.016113,0.4399414,-0.05126953,-0.2304688,-0.171875,-0.05957031
61,-20.0625,11.1875,-16.875,1.039551,0.5644531,-0.01660156,-0.2304688,-0.1704102,-0.05957031
65,-30,14.625,-27.375,1.008301,0.7392578,-0.05517578,-0.2294922,-0.1679688,-0.05712891
69,-53.8125,12.5625,-29.9375,0.9931641,0.8442383,-0.03222656,-0.2294922,-0.171875,-0.05957031
74,-80.25,9.375,-32.8125,1.004395,0.8168945,-0.05517578,-0.2270508,-0.1694336,-0.0625
78,-88,8.625,-36.25,1.0625,0.7587891,-0.04736328,-0.2255859,-0.1704102,-0.06396484
82,-84.8125,10.875,-44.3125,1.078125,0.777832,-0.05908203,-0.2246094,-0.1669922,-0.06787109
86,-79.625,10.5625,-53.25,1.0625,0.8286133,-0.04003906,-0.2211914,-0.1655273,-0.06640625
90,-86.125,10.1875,-60.75,1.097656,0.9453125,-0.005371094,-0.2197266,-0.1679688,-0.06933594
94,-100.6875,10.25,-69,1.09375,0.9643555,0.03271484,-0.21875,-0.1694336,-0.06787109
98,-108.75,10.6875,-78,1.124512,0.9335938,0.04052734,-0.2138672,-0.1679688,-0.06787109
102,-108.75,14.1875,-84.4375,1.163574,0.824707,0.04785156,-0.2114258,-0.1694336,-0.06640625
106,-98.8125,16.1875,-89.6875,1.19043,0.777832,0.09033203,-0.2080078,-0.1743164,-0.06396484
110,-88.8125,20.8125,-97.5,1.202148,0.8598633,0.125,-0.2045898,-0.1791992,-0.06103516
114,-88.9375,23.25,-105.125,1.198242,0.90625,0.159668,-0.1982422,-0.1831055,-0.05712891
118,-87.4375,26.0625,-111,1.209961,0.8325195,0.1787109,-0.1948242,-0.1933594,-0.05273438
122,-75.75,30.5625,-117.375,1.244629,0.7705078,0.2329102,-0.1875,-0.2070313,-0.05273438
126,-63.3125,36.3125,-124.9375,1.283691,0.8012695,0.2675781,-0.1831055,-0.2158203,-0.04882813
130,-60.375,42.125,-129.75,1.256348,0.8442383,0.2558594,-0.1772461,-0.2304688,-0.05175781
134,-62.125,41.75,-131.75,1.252441,0.8208008,0.2519531,-0.1674805,-0.2456055,-0.05175781
138,-61.875,43.5625,-133.6875,1.275879,0.7895508,0.2827148,-0.1625977,-0.2583008,-0.05712891
142,-56.4375,47.0625,-135.75,1.26416,0.7392578,0.3291016,-0.1557617,-0.2705078,-0.06542969
146,-48,51.875,-138.75,1.244629,0.7353516,0.3364258,-0.1450195,-0.2832031,-0.07470703
150,-41.8125,56,-144.3125,1.26416,0.7626953,0.3671875,-0.1401367,-0.2919922,-0.08154297
154,-40.5625,64.125,-145.125,1.256348,0.7973633,0.340332,-0.1318359,-0.3017578,-0.09667969
158,-43.4375,64.125,-147.1875,1.147949,0.8520508,0.3056641,-0.1186523,-0.3081055,-0.1088867
162,-52.5625,62.3125,-147.5,1.163574,0.8442383,0.3251953,-0.1103516,-0.3120117,-0.1196289
166,-60.1875,63.875,-146.25,1.182617,0.7973633,0.340332,-0.09863281,-0.3105469,-0.1318359
170,-64.9375,68.1875,-143.5625,1.198242,0.7392578,0.3637695,-0.08398438,-0.3081055,-0.1455078
174,-67,74.4375,-143.1875,1.140137,0.7817383,0.3173828,-0.07324219,-0.3056641,-0.1523438
178,-78.0625,77.9375,-142.75,1.101563,0.7705078,0.2441406,-0.06054688,-0.3007813,-0.1616211
182,-87.75,78.6875,-138.25,0.9931641,0.6962891,0.159668,-0.04394531,-0.2929688,-0.1630859
186,-81.625,76.1875,-136.3125,0.8300781,0.5722656,0.125,-0.03417969,-0.2905273,-0.1660156
190,-66.9375,72.375,-136.9375,0.7451172,0.5136719,0.105957,-0.02099609,-0.2880859,-0.1660156
194,-53.0625,69.8125,-131.6875,0.6713867,0.4985352,0.1171875,-0.0078125,-0.2866211,-0.1674805
198,-40.625,64.5,-128.3125,0.559082,0.4829102,0.1328125,-0.001953125,-0.2880859,-0.1660156
203,-27.875,57.8125,-126.875,0.5859375,0.4750977,0.2021484,0.01074219,-0.2929688,-0.1630859
207,-17.125,58.6875,-125,0.5395508,0.5253906,0.2250977,0.0234375,-0.2993164,-0.1630859
211,-17.75,56.125,-125.5625,0.4541016,0.5991211,0.2441406,0.02978516,-0.2993164,-0.1630859
215,-25.8125,49.9375,-123.3125,0.3110352,0.5605469,0.1982422,0.04052734,-0.3041992,-0.1645508
219,-26.375,37.6875,-118.125,0.3305664,0.4594727,0.2558594,0.04980469,-0.3081055,-0.1674805
223,-26.8125,36.3125,-112.5625,0.3613281,0.4868164,0.3095703,0.05566406,-0.3095703,-0.1699219
227,-37.4375,34,-109.0625,0.3071289,0.5253906,0.3330078,0.06542969,-0.3120117,-0.1738281
231,-53.375,33.5,-101.875,0.2529297,0.4711914,0.3212891,0.07470703,-0.3105469,-0.1806641
235,-62.875,29.5625,-99.1875,0.159668,0.3466797,0.2709961,0.08056641,-0.3095703,-0.1850586
239,-65.0625,25.875,-99.5,0.1484375,0.1640625,0.1982422,0.08886719,-0.3081055,-0.1943359
243,-53.25,24.3125,-98.125,0.05908203,0.06298828,0.1674805,0.09765625,-0.3041992,-0.2026367
247,-51.625,17.6875,-97.6875,-0.01416016,0.07080078,0.1674805,0.1035156,-0.3007813,-0.2041016
251,-56.125,7.8125,-103.0625,-0.02978516,-0.04150391,0.1674805,0.1118164,-0.2954102,-0.2133789
255,-59.0625,-2.125,-97.3125,0.09033203,-0.355957,0.2788086,0.1166992,-0.2880859,-0.21875
259,-48.5,4.75,-68.5625,0.1987305,-0.6513672,0.3481445,0.1235352,-0.2856445,-0.2231445
263,-35.75,20.5625,-39.5,0.2026367,-0.5268555,0.3330078,0.128418,-0.2768555,-0.2270508
267,-22.9375,33.75,-11.625,0.03564453,-0.46875,0.1865234,0.1308594,-0.2783203,-0.2299805
271,-9.4375,30.5625,3.125,-0.2270508,-0.3442383,-0.01660156,0.1318359,-0.2768555,-0.2299805
275,1.3125,12,15.1875,-0.3242188,-0.2006836,-0.08203125,0.1333008,-0.2768555,-0.2285156
279,-1.375,-9.5625,31.5,-0.2851563,-0.06054688,-0.03222656,0.1333008,-0.2783203,-0.2285156
283,-8.3125,-26.4375,47,-0.1767578,-0.02197266,0.09423828,0.1308594,-0.2768555,-0.2270508
287,-5.625,-33.3125,57.875,-0.03710938,0.02441406,0.2211914,0.1259766,-0.2792969,-0.2270508
291,-1.4375,-29,65.5,0.02441406,0.07080078,0.2133789,0.1201172,-0.2807617,-0.2270508
295,14.375,-32.5,64.125,-0.1264648,0.07080078,0.1713867,0.1166992,-0.2783203,-0.2231445
299,29.125,-44.3125,64.1875,-0.002441406,0.1367188,0.2211914,0.1079102,-0.2832031,-0.2216797
303,32.8125,-48.75,73.0625,0.140625,0.1523438,0.3173828,0.1010742,-0.2832031,-0.2148438
307,39.75,-48.75,91.4375,0.1987305,0.1757813,0.3481445,0.09765625,-0.2832031,-0.2148438
311,51,-47.625,97.1875,0.1674805,0.3349609,0.3134766,0.08789063,-0.2832031,-0.2094727
315,62.0625,-51.5625,97.4375,0.1791992,0.4204102,0.3134766,0.07861328,-0.2856445,-0.2041016
319,63.125,-56.8125,94.1875,0.2758789,0.6108398,0.355957,0.07373047,-0.2856445,-0.1958008
323,50.625,-59.125,93.375,0.3417969,0.6884766,0.425293,0.06396484,-0.2856445,-0.1928711
327,38.9375,-61.5625,102.3125,0.4077148,0.5761719,0.4750977,0.0546875,-0.2841797,-0.1918945
332,47.625,-59.1875,105.0625,0.3999023,0.5800781,0.4711914,0.04736328,-0.2832031,-0.1889648
336,57.875,-59.3125,104.125,0.4389648,0.6108398,0.4672852,0.03808594,-0.2817383,-0.1875
340,66.3125,-59.5,102.5625,0.4892578,0.7001953,0.4633789,0.02978516,-0.2817383,-0.1865234
344,56.5625,-61,98.125,0.609375,0.8325195,0.4941406,0.01904297,-0.2807617,-0.1850586
348,42.5,-60.1875,107,0.6054688,0.7197266,0.5175781,0.01074219,-0.2792969,-0.1835938
352,47.1875,-63.75,111.6875,0.6210938,0.6459961,0.5595703,0.0009765625,-0.2807617,-0.1850586
356,62.6875,-58.0625,110.4375,0.7333984,0.6655273,0.5673828,-0.0078125,-0.2807617,-0.1850586
360,72.6875,-46.625,104.75,0.7954102,0.7548828,0.5249023,-0.01855469,-0.2841797,-0.1835938
364,61.6875,-42,100,0.7568359,0.8710938,0.409668,-0.02832031,-0.2880859,-0.1806641
368,33.0625,-44.25,109.1875,0.7373047,0.7314453,0.3134766,-0.03173828,-0.2919922,-0.1782227
372,37,-56.3125,120.4375,0.6831055,0.5761719,0.2558594,-0.04248047,-0.2954102,-0.175293
376,55.75,-61.625,117.375,0.8300781,0.6069336,0.3095703,-0.05419922,-0.3007813,-0.1713867
380,57.9375,-57.9375,113.1875,0.9350586,0.7392578,0.355957,-0.06152344,-0.3056641,-0.1630859
384,37.25,-53.8125,113.625,1.023926,0.7119141,0.3364258,-0.07226563,-0.3081055,-0.1547852
388,39.875,-48.75,122.5625,0.9619141,0.4282227,0.2749023,-0.08300781,-0.3081055,-0.1425781
392,55.1875,-49.375,120.9375,0.8920898,0.5722656,0.2021484,-0.08886719,-0.3120117,-0.1347656
396,42.3125,-57.9375,120.875,0.9350586,0.7431641,0.2368164,-0.09716797,-0.3081055,-0.1225586
400,6.75,-68.5625,126.375,1.070313,0.7431641,0.355957,-0.1069336,-0.3017578,-0.1098633
404,-18.875,-73.0625,136.5625,1.186523,0.5253906,0.4057617,-0.1152344,-0.2929688,-0.1044922
408,-12.4375,-64.125,135.1875,1.318359,0.4052734,0.390625,-0.1269531,-0.2832031,-0.09667969
412,22.75,-52.375,125.375,1.175293,0.2265625,0.2211914,-0.1352539,-0.2695313,-0.08837891
416,68.8125,-55.875,110.75,1.132324,0.315918,0.159668,-0.1425781,-0.2583008,-0.08447266
420,107.5,-59.6875,103.4375,1.206055,0.4321289,0.1289063,-0.1494141,-0.2441406,-0.07763672
424,127.5625,-55.75,105.8125,1.364746,0.6225586,0.2402344,-0.1567383,-0.2304688,-0.06933594
428,125.9375,-39.6875,125.5,1.430664,0.8945313,0.2597656,-0.1625977,-0.2167969,-0.06640625
432,112.625,-27.375,140.625,1.26416,1.108398,0.1479492,-0.1733398,-0.2016602,-0.06787109
436,101.5,-26.75,134.4375,1.121094,1.193848,0.05175781,-0.1806641,-0.1894531,-0.07324219
440,99.5,-35.375,114.75,1.085938,1.09668,0.09033203,-0.1855469,-0.1821289,-0.07617188
444,95.5,-32.8125,104.3125,1.19043,1.112305,0.1748047,-0.1914063,-0.1767578,-0.08447266
448,77.1875,-26.625,96.75,1.19043,1.088867,0.2060547,-0.1972656,-0.1743164,-0.08984375
452,63.5625,-21.0625,100,1.151855,0.9101563,0.1635742,-0.1982422,-0.1733398,-0.08984375
456,70.0625,-19.1875,98.9375,1.13623,0.7548828,0.1367188,-0.2055664,-0.1704102,-0.09521484
461,95,-11.125,94.5625,1.175293,0.6186523,0.1098633,-0.2080078,-0.1704102,-0.09912109
465,130.8125,4,90.625,1.171387,0.6577148,0.08251953,-0.2128906,-0.1704102,-0.09912109
469,154.375,15.75,81.75,1.074219,0.8325195,0.009765625,-0.2172852,-0.1767578,-0.09912109
473,159.6875,19.4375,74.6875,1.008301,0.9492188,-0.07080078,-0.2172852,-0.1767578,-0.09667969
477,153.6875,18.125,74.3125,0.9389648,0.9335938,-0.1245117,-0.222168,-0.1791992,-0.09667969
481,150.125,16.25,78,0.9970703,1.007324,-0.07080078,-0.2270508,-0.1806641,-0.08984375
485,120.9375,15.3125,73.25,0.9658203,1.376465,-0.05908203,-0.2304688,-0.1831055,-0.08447266
489,66.9375,6.5625,56.625,0.8881836,1.58252,-0.06689453,-0.2304688,-0.1821289,-0.08447266
493,3.75,-8.375,38.5,0.8691406,1.648438,0.001953125,-0.2353516,-0.1806641,-0.08154297
497,-48.3125,-17.3125,12.0625,0.9462891,1.225098,-0.005371094,-0.237793,-0.1791992,-0.08154297
501,-66.5,-19,-3.5,1.074219,0.8632813,0.05957031,-0.2353516,-0.1767578,-0.08154297
505,-70.1875,-8.4375,-13,1.175293,0.6499023,0.07128906,-0.2353516,-0.1733398,-0.08447266
509,-59.75,0.75,-20.375,1.101563,0.5605469,0.001953125,-0.234375,-0.1733398,-0.08691406
513,-41.75,3.5,-28.375,1.066406,0.5605469,-0.01318359,-0.2319336,-0.171875,-0.08447266
517,-31.75,5.75,-39.5,1.031738,0.7739258,-0.03222656,-0.2294922,-0.1704102,-0.08984375
521,-37.875,5.0625,-54.1875,1.055176,0.9414063,0.005859375,-0.2280273,-0.1694336,-0.08984375
525,-59.375,5.5625,-64,1.085938,1.053711,0.03271484,-0.2246094,-0.171875,-0.09082031
529,-84.4375,3.3125,-68.375,1.113281,1.04248,0.05175781,-0.222168,-0.1679688,-0.09082031
533,-98.125,2.5625,-73.0625,1.182617,0.972168,0.08642578,-0.2172852,-0.1655273,-0.09228516
537,-99.6875,6.6875,-80.8125,1.256348,0.9101563,0.1098633,-0.2163086,-0.1630859,-0.09375
541,-94.0625,12.75,-88.1875,1.29541,0.875,0.1367188,-0.2114258,-0.1606445,-0.09082031
545,-88.5,21.1875,-95.875,1.302734,0.8984375,0.1635742,-0.2080078,-0.1567383,-0.08984375
549,-85.625,27.5,-105.0625,1.275879,0.9375,0.1518555,-0.203125,-0.1557617,-0.08544922
553,-85.1875,30.9375,-112.375,1.244629,0.956543,0.1479492,-0.199707,-0.1591797,-0.07470703
557,-82.3125,31.375,-119.25,1.241211,0.8828125,0.1367188,-0.1948242,-0.1606445,-0.06542969
561,-75.3125,31.375,-124.1875,1.310547,0.875,0.1982422,-0.1899414,-0.1669922,-0.05566406
565,-71.75,35.625,-132.6875,1.376465,0.875,0.2597656,-0.1816406,-0.1782227,-0.04199219
569,-79.125,43.25,-134.6875,1.419434,0.90625,0.2441406,-0.1723633,-0.1967773,-0.02734375
573,-85.75,48.125,-137.25,1.376465,0.7895508,0.2558594,-0.1640625,-0.2119141,-0.02294922
577,-83.0625,51.625,-136.75,1.364746,0.7392578,0.2597656,-0.1533203,-0.2358398,-0.01757813
581,-78.25,58.0625,-141.0625,1.376465,0.7353516,0.3173828,-0.1459961,-0.2607422,-0.02148438
585,-77.375,64.4375,-143.9375,1.333984,0.7236328,0.3212891,-0.1401367,-0.2768555,-0.02978516
590,-79,65.375,-139.0625,1.291504,0.6884766,0.3251953,-0.1303711,-0.296875,-0.04492188
594,-79.875,67.0625,-132.6875,1.287598,0.7001953,0.340332,-0.1269531,-0.3144531,-0.0625
598,-79.5,74.3125,-126.625,1.287598,0.7509766,0.3291016,-0.1220703,-0.3256836,-0.07861328
602,-73.5,78.8125,-134.8125,1.225586,0.7626953,0.3173828,-0.1152344,-0.3320313,-0.1035156
606,-67.9375,84.5,-144.125,1.217773,0.7739258,0.3056641,-0.1069336,-0.3354492,-0.1318359
610,-71.3125,86.625,-145.625,1.182617,0.7314453,0.2944336,-0.09863281,-0.3291016,-0.1508789
614,-73.75,88.3125,-141.625,1.082031,0.6147461,0.2519531,-0.08398438,-0.3178711,-0.175293
618,-65,85.5,-140.25,1.043457,0.5332031,0.2402344,-0.06738281,-0.2993164,-0.1875
622,-53.5,84.125,-136.8125,0.9853516,0.5136719,0.2558594,-0.05419922,-0.2866211,-0.1918945
626,-39.3125,80.9375,-137.1875,0.9272461,0.5214844,0.2480469,-0.03759766,-0.2744141,-0.1904297
630,-35.25,78.9375,-138.4375,0.8071289,0.4516602,0.2402344,-0.02246094,-0.2680664,-0.1806641
634,-28.4375,75.375,-144.8125,0.7641602,0.5058594,0.2290039,-0.01025391,-0.2670898,-0.1738281
638,-25.1875,72.1875,-144.8125,0.6674805,0.5097656,0.2402344,0.002441406,-0.2695313,-0.1630859
642,-24.5,65.5625,-144.125,0.625,0.5214844,0.2709961,0.01269531,-0.2719727,-0.1577148
646,-25.375,62.4375,-147.125,0.6289063,0.5605469,0.3251953,0.02246094,-0.2807617,-0.1508789
650,-35.1875,64.375,-147.1875,0.6171875,0.5605469,0.3442383,0.03564453,-0.2866211,-0.1469727
654,-43.625,66.5625,-139.875,0.4853516,0.4360352,0.3095703,0.04736328,-0.2929688,-0.1494141
658,-41.125,63.125,-134.8125,0.4077148,0.3388672,0.2709961,0.0546875,-0.2993164,-0.1523438
662,-29.125,57.625,-143.4375,0.3999023,0.3662109,0.2905273,0.06787109,-0.3041992,-0.15625
666,-26.6875,61.6875,-151.0625,0.3730469,0.4052734,0.2827148,0.08300781,-0.3081055,-0.1606445
670,-33.375,58.9375,-146.125,0.2104492,0.3740234,0.2368164,0.08886719,-0.3120117,-0.1645508
674,-38.8125,51.9375,-137.1875,0.07080078,0.284668,0.1826172,0.105957,-0.3105469,-0.1713867
678,-32.25,38.375,-129.0625,0.01269531,0.2265625,0.1674805,0.1166992,-0.3081055,-0.1767578
682,-32.5,30.9375,-113.25,0.1132813,0.284668,0.2749023,0.1225586,-0.3066406,-0.1796875
686,-41.3125,30.875,-91.4375,0.07470703,0.2807617,0.3330078,0.1318359,-0.3041992,-0.1889648
690,-39.5625,31,-80.8125,-0.03710938,0.1953125,0.3056641,0.1401367,-0.3007813,-0.1928711
694,-25.25,28.25,-75.8125,-0.02978516,0.15625,0.3134766,0.1499023,-0.296875,-0.1972656
698,-12.1875,27.5,-68,-0.1030273,0.15625,0.3291016,0.1557617,-0.2929688,-0.2011719
702,-7.4375,21.75,-57.875,-0.1728516,0.2148438,0.3598633,0.1582031,-0.2895508,-0.2080078
706,-10.125,17,-50,-0.1264648,0.2612305,0.390625,0.1630859,-0.2880859,-0.2080078
710,-19.375,16.0625,-40.6875,-0.1533203,0.2456055,0.390625,0.1689453,-0.2866211,-0.2109375
714,-23.8125,13.125,-31.75,-0.2192383,0.2148438,0.355957,0.1723633,-0.2841797,-0.2148438
719,-25.3125,8.0625,-25.625,-0.2426758,0.2265625,0.3291016,0.1713867,-0.2817383,-0.2133789
723,-21.1875,3.8125,-23.875,-0.3046875,0.1254883,0.2944336,0.1757813,-0.2792969,-0.2177734
727,-7.9375,-2.9375,-22,-0.2041016,0.04394531,0.3330078,0.1757813,-0.2768555,-0.21875
731,7.8125,1.75,-16.3125,-0.1381836,0.01269531,0.3828125,0.1748047,-0.2768555,-0.2216797
735,11,2.5625,-3.0625,-0.215332,0.1293945,0.3598633,0.1772461,-0.2744141,-0.2216797
739,4.6875,-3.5,12.25,-0.2504883,0.203125,0.3364258,0.1772461,-0.2753906,-0.2216797
743,1.4375,-9.5,21.6875,-0.3242188,0.1875,0.3291016,0.1748047,-0.2768555,-0.2202148
747,5.3125,-19.125,26,-0.2929688,0.2109375,0.355957,0.1723633,-0.2768555,-0.2202148
751,4.1875,-22.75,29.625,-0.1923828,0.3120117,0.4213867,0.1689453,-0.2783203,-0.21875
755,1.125,-22.3125,36,-0.1689453,0.3544922,0.4599609,0.1674805,-0.2768555,-0.21875
759,4.6875,-21.5625,42,-0.2080078,0.3857422,0.4868164,0.1630859,-0.2807617,-0.2177734
763,1.3125,-23.0625,44.875,-0.2426758,0.5878906,0.5483398,0.1567383,-0.2817383,-0.2177734
767,-20.875,-28.1875,45.1875,-0.2426758,0.7119141,0.6020508,0.1567383,-0.2817383,-0.2148438
771,-43.125,-33.5,42.375,-0.1962891,0.6030273,0.6137695,0.1523438,-0.2807617,-0.2177734
775,-44.5625,-32.625,36.5,-0.1342773,0.3857422,0.5712891,0.1474609,-0.2783203,-0.2202148
779,-30.9375,-34.375,37.25,-0.1572266,0.2338867,0.4941406,0.1459961,-0.2792969,-0.2216797
783,-15.1875,-40.5625,41.9375,-0.1420898,0.2299805,0.4907227,0.1425781,-0.2768555,-0.2202148
787,-2.875,-45.1875,50.4375,-0.06054688,0.237793,0.5288086,0.1357422,-0.2753906,-0.2216797
791,9.8125,-44.0625,54.625,0.03173828,0.2768555,0.6176758,0.1293945,-0.2783203,-0.2246094
795,23.0625,-34.75,56.0625,0.07861328,0.300293,0.6557617,0.1259766,-0.2792969,-0.21875
799,35.3125,-29.0625,54.8125,0.1015625,0.3310547,0.6328125,0.1186523,-0.2817383,-0.2148438
803,38.25,-23,57.25,0.1518555,0.3779297,0.605957,0.1118164,-0.2807617,-0.2119141
807,33.3125,-20.25,62.0625,0.1557617,0.3623047,0.5097656,0.1079102,-0.2817383,-0.2055664
811,35.3125,-19.625,70.875,0.1557617,0.2456055,0.3945313,0.1035156,-0.2832031,-0.1987305
815,42.125,-24.375,78.0625,0.1289063,0.2651367,0.3330078,0.09765625,-0.2832031,-0.1958008
819,43.3125,-28.875,85.375,0.1791992,0.300293,0.2788086,0.09130859,-0.2832031,-0.1904297
823,47.375,-34,91.4375,0.1791992,0.3388672,0.2597656,0.08300781,-0.2817383,-0.1821289
827,47.25,-41.5625,93.125,0.1791992,0.4086914,0.2480469,0.08056641,-0.2817383,-0.1806641
831,39.3125,-53.25,95.75,0.2646484,0.4672852,0.2944336,0.06982422,-0.2792969,-0.175293
835,36.5625,-61.25,109.25,0.4194336,0.2612305,0.3330078,0.06054688,-0.2753906,-0.1738281
839,62.375,-58.25,122.25,0.4892578,0.2338867,0.3637695,0.0546875,-0.2719727,-0.1738281
843,89.5,-58.0625,128.8125,0.4970703,0.3388672,0.3671875,0.04394531,-0.2695313,-0.1713867
848,104.875,-52.875,128,0.543457,0.5175781,0.355957,0.03320313,-0.2680664,-0.1699219
852,96.375,-54.125,129.0625,0.5551758,0.7314453,0.3330078,0.02587891,-0.2680664,-0.1713867
856,79.3125,-60.9375,139.5,0.5356445,0.6884766,0.2788086,0.01416016,-0.2695313,-0.1728516
860,81.625,-72.125,145.4375,0.7294922,0.5878906,0.3212891,0.002441406,-0.2744141,-0.1796875
864,101.25,-68.8125,143.375,0.8574219,0.6030273,0.3979492,-0.01025391,-0.2783203,-0.1821289
868,114.1875,-56.6875,143.9375,0.9194336,0.6772461,0.4287109,-0.0234375,-0.2895508,-0.1821289
872,114.875,-46.5,143.0625,0.8959961,0.8325195,0.3710938,-0.03662109,-0.3066406,-0.175293
876,94,-41.1875,141.3125,0.9155273,0.9140625,0.3056641,-0.04980469,-0.3193359,-0.168457
880,97.6875,-47,146.5625,0.8378906,0.7314453,0.1943359,-0.06396484,-0.3344727,-0.1538086
884,116.1875,-52.875,140.75,1.012207,0.793457,0.2441406,-0.07958984,-0.3481445,-0.1279297
888,129.5,-46.375,133.375,1.155762,0.6923828,0.2827148,-0.08300781,-0.3530273,-0.1088867
892,128.375,-30.0625,139.5625,1.302734,0.8598633,0.3828125,-0.09619141,-0.3530273,-0.07617188
896,100,-17.0625,155,1.035645,0.9838867,0.1826172,-0.1044922,-0.3466797,-0.04736328
900,85.125,-27.875,155.5,0.9311523,1.045898,0.06347656,-0.109375,-0.3378906,-0.02832031
904,72.125,-40.8125,140.1875,1.055176,0.9956055,0.1171875,-0.1176758,-0.3232422,-0.008300781
908,60.875,-43.4375,133.5625,1.283691,0.6499023,0.2060547,-0.1245117,-0.3032227,0.004882813
912,112.125,-22.1875,147.5,1.407715,0.1367188,0.2021484,-0.128418,-0.2919922,0.01611328
916,148,-9.3125,148.25,1.159668,0.7666016,0.04785156,-0.1401367,-0.265625,0.02685547
920,136.8125,-11.25,143.0625,1.132324,1.154785,0.02880859,-0.1494141,-0.2358398,0.03222656
924,96.5625,-19.3125,131.375,1.213867,1.232422,0.1171875,-0.1601563,-0.2167969,0.03076172
928,68,-12.375,125.5,1.430664,0.809082,0.2441406,-0.168457,-0.1943359,0.01708984
932,84.4375,6.5,132.125,1.209961,0.6577148,0.06738281,-0.1772461,-0.1757813,0.0009765625
936,92.4375,3.3125,125.8125,1.159668,0.9995117,0.01708984,-0.184082,-0.1669922,-0.01367188
940,73.9375,-1.5625,120.75,1.055176,1.131836,-0.009277344,-0.1899414,-0.1606445,-0.03125
944,51.0625,-10.1875,107,1.085938,1.09668,0.03662109,-0.1938477,-0.1621094,-0.04638672
948,26.5625,-16.8125,95.3125,1.140137,0.8671875,0.09423828,-0.1962891,-0.1591797,-0.05273438
952,17.0625,-6.5,99.75,1.310547,0.6147461,0.1020508,-0.199707,-0.1606445,-0.06542969
956,36,-0.125,93.375,1.147949,0.6962891,0.02099609,-0.203125,-0.1645508,-0.07324219
960,44.125,1.5625,78.1875,1.012207,0.8520508,-0.05908203,-0.2045898,-0.1669922,-0.07470703
964,37.375,-7.3125,71.5625,0.9311523,0.855957,-0.112793,-0.2089844,-0.1694336,-0.07861328
968,25.5625,-16.6875,68.5625,0.9814453,0.777832,-0.09765625,-0.2114258,-0.1733398,-0.08007813
972,24.5625,-21,69.9375,1.027832,0.5644531,-0.08203125,-0.2138672,-0.1733398,-0.08007813
977,44.5,-14.125,68.5625,1.202148,0.3818359,0.001953125,-0.2172852,-0.1743164,-0.08007813
981,76,5.875,62.625,1.194336,0.4907227,-0.04003906,-0.2211914,-0.1782227,-0.07763672
985,90.0625,8.3125,54.9375,0.9931641,0.6303711,-0.1513672,-0.2246094,-0.1782227,-0.07763672
989,89.875,1.375,55.6875,0.9389648,0.6772461,-0.1782227,-0.2280273,-0.1767578,-0.07177734
993,88,-5.25,53.5625,1.043457,0.6655273,-0.1474609,-0.2319336,-0.1806641,-0.06933594
997,95.75,6.6875,52.875,1.29541,0.9296875,0.04052734,-0.2329102,-0.1806641,-0.06787109
1001,33.75,27,6.1875,0.9619141,2.305176,0.06738281,-0.2363281,-0.1806641,-0.0625
1005,-70.1875,17.5625,-15.5,0.7216797,1.858398,-0.2436523,-0.237793,-0.1831055,-0.06640625
1009,-121.4375,-2.4375,9,0.7216797,0.8129883,-0.4013672,-0.234375,-0.1806641,-0.06640625
1013,-140.75,-18.0625,32.875,0.9194336,0.4946289,-0.2978516,-0.2353516,-0.1757813,-0.07470703
1017,-119.75,-14.875,17.9375,1.05127,0.3505859,-0.2207031,-0.2353516,-0.1694336,-0.07763672
1021,-78.4375,-3.25,-13.1875,1.117188,0.3427734,-0.1669922,-0.234375,-0.1669922,-0.07861328
1025,-48.875,5.5625,-36.6875,0.9853516,0.4555664,-0.2128906,-0.2353516,-0.1621094,-0.08154297
1029,-37.75,0.6875,-45.0625,0.9541016,0.5644531,-0.1708984,-0.2329102,-0.1630859,-0.08300781
1033,-41.6875,-8.0625,-51.25,0.9116211,0.7973633,-0.1015625,-0.2280273,-0.1630859,-0.08154297
1037,-61.625,-15.5625,-56.5625,0.9501953,0.953125,-0.03613281,-0.2255859,-0.1630859,-0.08007813
1041,-82.8125,-22.6875,-60.5,0.9970703,1.022949,0.001953125,-0.2270508,-0.1630859,-0.07763672
1045,-98.5,-27.625,-69.5625,1.101563,1.049805,0.05175781,-0.2236328,-0.1606445,-0.07861328
1049,-108.25,-23.1875,-79.0625,1.271973,1.01123,0.1367188,-0.21875,-0.1591797,-0.07324219
1053,-109.1875,-12.5,-89.8125,1.337891,0.9838867,0.1748047,-0.2172852,-0.1567383,-0.07080078
1057,-102.25,-5,-102.25,1.345703,0.9643555,0.1674805,-0.215332,-0.1567383,-0.06787109
1061,-93.375,0.3125,-111.8125,1.376465,0.9335938,0.1982422,-0.2104492,-0.1606445,-0.0625
1065,-78.875,7.25,-122.125,1.376465,0.890625,0.2060547,-0.2055664,-0.1621094,-0.05273438
1069,-63.125,15.1875,-130.875,1.442383,0.8867188,0.2480469,-0.199707,-0.1669922,-0.04736328
1073,-53.75,23.375,-137.8125,1.395996,0.9492188,0.2597656,-0.1923828,-0.1791992,-0.03662109
1077,-53.625,30.1875,-145.8125,1.492676,1.045898,0.3017578,-0.184082,-0.1918945,-0.02587891
1081,-66.9375,37.75,-153.625,1.461914,1.081055,0.2675781,-0.1757813,-0.2070313,-0.01757813
1085,-84.375,42.25,-155.4375,1.492676,1.003418,0.2368164,-0.1650391,-0.2270508,-0.01367188
1089,-87,49.25,-159.125,1.496582,0.809082,0.2021484,-0.1533203,-0.2470703,-0.01367188
1093,-78.75,54.25,-161.9375,1.492676,0.7001953,0.1713867,-0.1474609,-0.2631836,-0.01464844
1097,-70.25,58.125,-162.9375,1.438477,0.6538086,0.1787109,-0.1391602,-0.2856445,-0.02587891
1101,-65.875,61.8125,-163.875,1.454102,0.6420898,0.2094727,-0.1293945,-0.3032227,-0.03808594
1106,-62.5625,67.9375,-162,1.39209,0.6264648,0.1943359,-0.1235352,-0.3154297,-0.04638672
1110,-54.25,69.75,-160.625,1.299316,0.5800781,0.1826172,-0.1152344,-0.328125,-0.06542969
1114,-45.0625,72,-159.0625,1.310547,0.6186523,0.2133789,-0.1030273,-0.3369141,-0.08837891
1118,-38,74.1875,-156.9375,1.268066,0.6811523,0.2480469,-0.09960938,-0.3393555,-0.1035156
1122,-28.4375,84.25,-152.375,1.225586,0.6420898,0.2558594,-0.08300781,-0.3354492,-0.1225586
1126,12.3125,93.3125,-150.5625,0.9970703,0.6577148,0.1132813,-0.06738281,-0.328125,-0.1357422
1130,61.375,84.6875,-171.1875,0.7021484,0.9023438,-0.09375,-0.05566406,-0.3208008,-0.1386719
1134,76.8125,61.4375,-195.5,0.7529297,1.146973,-0.1245117,-0.03759766,-0.3129883,-0.1333008
1138,52,46.5625,-197.875,0.8803711,1.228516,-0.04003906,-0.01855469,-0.3081055,-0.1181641
1142,-2.125,34.375,-187.25,0.8613281,1.221191,0.04785156,-0.006835938,-0.3041992,-0.1098633
1146,-54.0625,23.875,-175.125,0.8535156,1.049805,0.08251953,0.008300781,-0.3041992,-0.1020508
1150,-86.5625,21.5625,-162.5625,0.8261719,0.7314453,0.09814453,0.02001953,-0.3066406,-0.09667969
1154,-84.9375,20.875,-161.375,0.8496094,0.4204102,0.1328125,0.03173828,-0.3095703,-0.09667969
1158,-60,30.75,-162.75,0.7993164,0.171875,0.1904297,0.04394531,-0.3154297,-0.09667969
1162,-41.5625,36.3125,-158.8125,0.6713867,0.1254883,0.1943359,0.05712891,-0.3217773,-0.09765625
1166,-37.75,38.0625,-143.3125,0.5009766,0.1020508,0.1826172,0.06787109,-0.3266602,-0.09667969
1170,-31.5625,34.75,-126.1875,0.4116211,0.1640625,0.1826172,0.07958984,-0.3320313,-0.09912109
1174,-26.625,34.875,-117.9375,0.2993164,0.2768555,0.1982422,0.09130859,-0.3354492,-0.105957
1178,-30.3125,30.1875,-115.625,0.2412109,0.3818359,0.2172852,0.09521484,-0.3408203,-0.105957
1182,-36.6875,30.1875,-109.875,0.1987305,0.3193359,0.2250977,0.1079102,-0.3417969,-0.1142578
1186,-38.25,31.25,-100.6875,0.2138672,0.237793,0.2402344,0.1176758,-0.3417969,-0.1181641
1190,-27.375,31.375,-92.25,-0.02197266,0.1796875,0.1367188,0.1201172,-0.3417969,-0.1235352
1194,-7.1875,23.5,-86.375,-0.1459961,0.2109375,0.144043,0.1293945,-0.3408203,-0.1289063
1198,10.375,12.375,-78.5625,-0.09521484,0.300293,0.2675781,0.1391602,-0.3408203,-0.1318359
1202,6.875,11.6875,-79.25,-0.03320313,0.5019531,0.4404297,0.1416016,-0.3378906,-0.1333008
1206,-12.6875,16.375,-72.25,0.04736328,0.4868164,0.5249023,0.1484375,-0.3393555,-0.1347656
1210,-25.8125,23.0625,-64.25,-0.06445313,0.2729492,0.4521484,0.1547852,-0.3354492,-0.1401367
1214,-22.1875,25.9375,-57.4375,-0.09130859,0.1333008,0.375,0.1616211,-0.3344727,-0.1425781
1218,-12,27.1875,-46.625,-0.1572266,0.004882813,0.2636719,0.1650391,-0.3330078,-0.144043
1222,1.9375,23.3125,-28.875,-0.2001953,-0.03369141,0.2060547,0.1699219,-0.3305664,-0.1494141
1226,15.0625,17.625,-15.5,-0.3085938,0.07861328,0.1557617,0.1738281,-0.3305664,-0.1469727
1230,18.6875,12.5625,-8.1875,-0.296875,0.237793,0.1826172,0.1748047,-0.3330078,-0.1455078
1235,13.5625,8.875,-3.25,-0.28125,0.3041992,0.2060547,0.1748047,-0.3344727,-0.1425781
1239,7.75,6.8125,-0.25,-0.2231445,0.3349609,0.2558594,0.1757813,-0.3330078,-0.1416016
1243,0.25,7.375,5.625,-0.28125,0.3081055,0.2133789,0.1757813,-0.3330078,-0.1401367
1247,-2.875,1.9375,16.625,-0.3007813,0.203125,0.1748047,0.1748047,-0.3354492,-0.1386719
1251,1.25,-2.4375,27.8125,-0.328125,0.1523438,0.1289063,0.1723633,-0.3354492,-0.137207
1255,15.3125,-8.25,32.3125,-0.2700195,0.15625,0.1328125,0.1689453,-0.3378906,-0.137207
1259,23.8125,-9.5625,35.25,-0.2504883,0.2299805,0.1787109,0.1674805,-0.3408203,-0.1333008
1263,18.9375,-11.6875,42.875,-0.1459961,0.2651367,0.2172852,0.1650391,-0.3393555,-0.1318359
1267,19.625,-11.8125,55.0625,-0.1767578,0.2612305,0.1787109,0.1606445,-0.3442383,-0.1289063
1271,28.625,-13.3125,63.25,-0.1069336,0.3120117,0.1787109,0.1557617,-0.3457031,-0.1235352
1275,36.375,-16.1875,66.25,-0.09521484,0.4868164,0.1713867,0.1547852,-0.3466797,-0.1210938
1279,33.5,-14.875,67.125,-0.07617188,0.6459961,0.2250977,0.1459961,-0.3481445,-0.112793
1283,18.875,-16.4375,67.75,-0.09912109,0.7236328,0.2133789,0.1401367,-0.3505859,-0.1088867
1287,0.4375,-17.4375,70.5625,-0.06835938,0.6538086,0.1635742,0.1367188,-0.3505859,-0.105957
1291,-5,-19.8125,76.1875,-0.05664063,0.5527344,0.09033203,0.128418,-0.3466797,-0.105957
1295,-1.0625,-27.4375,82.6875,-0.1303711,0.4633789,-0.005371094,0.1235352,-0.3457031,-0.1005859
1299,9.875,-41.75,86.25,-0.06445313,0.4750977,0.009765625,0.1176758,-0.3457031,-0.1005859
1303,19,-47.0625,89.4375,0.07861328,0.5214844,0.1171875,0.1069336,-0.3442383,-0.09765625
1307,24.3125,-49.625,94.5,0.1518555,0.5644531,0.2368164,0.1010742,-0.3408203,-0.09521484
1311,25.125,-46.4375,99.9375,0.2836914,0.6342773,0.3173828,0.09277344,-0.3378906,-0.09228516
1315,16.9375,-44.3125,100.8125,0.2646484,0.7548828,0.3017578,0.08300781,-0.3344727,-0.09375
1319,-7.25,-43.8125,108.9375,0.3071289,0.7197266,0.2749023,0.07470703,-0.3291016,-0.09521484
1323,-22.4375,-54.5,113.6875,0.3188477,0.6186523,0.2402344,0.06298828,-0.3242188,-0.09912109
1327,-16.25,-56.875,123.5,0.4155273,0.5097656,0.2944336,0.0546875,-0.3193359,-0.1035156
1331,-5.4375,-57.8125,123.8125,0.5859375,0.4868164,0.3671875,0.04248047,-0.3129883,-0.1088867
1335,0.3125,-48.0625,126.0625,0.6362305,0.5488281,0.3710938,0.03564453,-0.3105469,-0.1142578
1339,2.3125,-45.375,127.9375,0.6289063,0.5761719,0.3056641,0.02587891,-0.3081055,-0.1210938
1343,5,-47.3125,132.625,0.5708008,0.6303711,0.2597656,0.01171875,-0.3041992,-0.1279297
1347,7.0625,-53.9375,134.6875,0.6713867,0.6069336,0.3017578,0.006835938,-0.3032227,-0.1303711
1351,-7.1875,-57.625,136.375,0.7719727,0.8286133,0.3979492,-0.005859375,-0.3032227,-0.1333008
1355,-47.75,-57.875,143.1875,0.9736328,0.8598633,0.4868164,-0.01855469,-0.3041992,-0.1416016
1359,-81.375,-53.75,155.625,1.039551,0.5761719,0.4599609,-0.02587891,-0.3056641,-0.1469727
1364,-58.8125,-54.75,162.8125,0.7875977,0.3544922,0.3520508,-0.04150391,-0.3056641,-0.15625
1368,-3.9375,-62.625,146.25,0.9931641,0.2885742,0.3867188,-0.05566406,-0.3081055,-0.1591797
1372,41.9375,-50.6875,146.75,1.047363,0.5878906,0.4482422,-0.06640625,-0.3105469,-0.1538086
1376,38.75,-47.9375,141.25,1.121094,0.9375,0.4829102,-0.08056641,-0.3178711,-0.1455078
1380,17.125,-41.8125,147.8125,1.085938,1.003418,0.4829102,-0.09228516,-0.3217773,-0.1318359
1384,23.0625,-42.5,147,1.059082,0.7001953,0.390625,-0.1020508,-0.3208008,-0.1210938
1388,57.75,-42.3125,137.4375,1.194336,0.6616211,0.4135742,-0.1103516,-0.3168945,-0.1074219
1392,78.5,-24.75,135.125,1.144043,0.9179688,0.3134766,-0.1201172,-0.3129883,-0.08691406
1396,64.375,-27.0625,124.6875,1.066406,1.166504,0.2368164,-0.1259766,-0.3056641,-0.07470703
1400,31.75,-33.5,124.8125,1.016113,1.069336,0.1787109,-0.1328125,-0.296875,-0.06103516
1404,17.375,-47.125,119.9375,1.101563,0.5913086,0.159668,-0.1391602,-0.2817383,-0.05175781
1408,66.625,-43.25,132.25,1.252441,0.1875,0.2402344,-0.1411133,-0.2729492,-0.04199219
1412,114.8125,-23.5,129,1.179199,0.6499023,0.1826172,-0.1508789,-0.2583008,-0.02978516
1416,114.5625,-22.5,114.1875,1.055176,1.04248,0.1289063,-0.1582031,-0.2368164,-0.02441406
1420,77.4375,-31.1875,106.8125,1.043457,1.057617,0.1518555,-0.1625977,-0.2255859,-0.01611328
1424,49.5625,-43.25,102.125,1.213867,0.5488281,0.159668,-0.1708984,-0.203125,-0.02148438
1428,96.75,-31.6875,125,1.632324,-0.3134766,0.2402344,-0.1782227,-0.1870117,-0.02587891
1432,157.75,4.75,151.1875,1.52002,0.008789063,0.09814453,-0.184082,-0.1743164,-0.03515625
1436,163.4375,5.375,157,1.147949,0.8286133,-0.109375,-0.1899414,-0.1606445,-0.04345703
1440,128.5625,-13.4375,148.375,1.043457,1.209473,-0.06689453,-0.1972656,-0.1479492,-0.05712891
1444,93.1875,-18.75,120.75,1.241211,1.108398,0.01708984,-0.203125,-0.1469727,-0.06787109
1448,78.5,-10.5625,103.75,1.345703,0.7626953,0.05566406,-0.2055664,-0.1479492,-0.07617188
1452,70.1875,-6.5625,102.75,1.0625,0.7739258,-0.09765625,-0.2114258,-0.1479492,-0.08300781
1456,66.875,-12.9375,99.9375,1.109375,0.6733398,-0.1245117,-0.215332,-0.1508789,-0.08837891
1460,73.5,-16.1875,97,1.101563,0.5722656,-0.1323242,-0.2197266,-0.1508789,-0.08984375
1464,87.1875,-15.125,89.6875,1.16748,0.5991211,-0.1401367,-0.222168,-0.1567383,-0.08837891
1468,90.25,-9.125,78.875,1.179199,0.8168945,-0.109375,-0.2255859,-0.1557617,-0.08837891
1472,61.75,-11.5625,73.9375,1.016113,1.120117,-0.1245117,-0.2304688,-0.1582031,-0.08984375
1476,28.875,-19.9375,63.1875,1.016113,1.108398,-0.07470703,-0.2353516,-0.1582031,-0.08300781
1480,15.75,-20.4375,45.8125,1.121094,0.855957,0.009765625,-0.2353516,-0.1591797,-0.08154297
1484,25,-13.875,34.875,1.13623,0.6884766,0.04443359,-0.2402344,-0.1582031,-0.08007813
1488,3,-10.25,2.4375,1.09375,1.570801,0.1557617,-0.2436523,-0.1567383,-0.07763672
1493,-43.25,2.0625,-11.25,1.113281,1.621094,0.08642578,-0.2446289,-0.1582031,-0.07763672
1497,-45.3125,5.3125,-12.4375,0.9501953,0.5175781,-0.109375,-0.2412109,-0.1582031,-0.07617188
1501,-20.125,-9.125,-1.8125,0.8959961,0.1293945,-0.128418,-0.2412109,-0.1567383,-0.08154297
1505,8.375,-11.3125,-2.1875,1.012207,0.1523438,-0.07861328,-0.2426758,-0.1591797,-0.08007813
1509,29.1875,-8.5625,-10.75,1.023926,0.5058594,-0.01318359,-0.2412109,-0.1567383,-0.07861328
1513,14.4375,-0.375,-43.75,1.02002,0.890625,0.07128906,-0.2412109,-0.1567383,-0.07617188
1517,-10,7.0625,-87,1.012207,0.9179688,0.09814453,-0.2412109,-0.1606445,-0.07763672
1521,-44.625,9.5,-99.75,1.047363,0.7817383,0.06738281,-0.2363281,-0.1645508,-0.07861328
1525,-70.8125,6.375,-85.4375,0.9697266,0.5722656,0.01367188,-0.2304688,-0.1669922,-0.08154297
1529,-79.625,1.1875,-73.3125,1.016113,0.4907227,-0.005371094,-0.2270508,-0.1669922,-0.08154297
1533,-75.375,1.1875,-66.125,1.105469,0.5371094,0.05175781,-0.2236328,-0.1679688,-0.08544922
1537,-72,7.9375,-68.1875,1.109375,0.6655273,0.05957031,-0.2211914,-0.1679688,-0.08544922
1541,-67.5625,8.1875,-74.8125,1.055176,0.6962891,0.02880859,-0.2172852,-0.1669922,-0.08544922
1545,-65.875,9.5625,-83.3125,1.097656,0.777832,0.05957031,-0.2138672,-0.1655273,-0.08447266
1549,-69.125,9.75,-86.6875,1.043457,0.7895508,0.03662109,-0.2104492,-0.1645508,-0.08300781
1553,-71.0625,2.3125,-84.3125,1.027832,0.7470703,-0.001464844,-0.2055664,-0.1630859,-0.07861328
1557,-64.5625,-2.5,-77.375,1.147949,0.7666016,0.09033203,-0.2021484,-0.1630859,-0.07470703
1561,-64.375,3.8125,-80.375,1.206055,0.8828125,0.140625,-0.1982422,-0.1606445,-0.06787109
1565,-68.25,9.375,-88.5625,1.225586,0.9257813,0.1674805,-0.1962891,-0.1621094,-0.06103516
1569,-70.9375,15.8125,-94.0625,1.217773,0.8481445,0.1518555,-0.1923828,-0.1630859,-0.05175781
1573,-63,20.5625,-98.5625,1.194336,0.7817383,0.1367188,-0.1865234,-0.171875,-0.03955078
1577,-50.1875,21.6875,-100.9375,1.186523,0.7705078,0.1289063,-0.1831055,-0.1757813,-0.03125
1581,-42.875,20.4375,-101.75,1.225586,0.8481445,0.1713867,-0.1757813,-0.1904297,-0.01757813
1585,-46.5,24.875,-104.9375,1.279785,0.9682617,0.2021484,-0.168457,-0.2080078,-0.005371094
1589,-56.9375,30.125,-114.1875,1.302734,1.049805,0.2172852,-0.1625977,-0.2216797,-0.00390625
1593,-66.6875,35.125,-123.9375,1.256348,0.956543,0.1787109,-0.1533203,-0.2431641,-0.001464844
1597,-64.75,36.8125,-129.875,1.291504,0.7739258,0.1635742,-0.1474609,-0.265625,-0.005371094
1601,-51.25,38.25,-125.875,1.237305,0.6069336,0.1328125,-0.1401367,-0.2792969,-0.01074219
1605,-34.25,38.5625,-122.875,1.233398,0.6538086,0.1518555,-0.1352539,-0.296875,-0.02050781
1609,-34.875,38,-120.75,1.182617,0.793457,0.1826172,-0.1303711,-0.3129883,-0.03271484
1613,-45.1875,41.3125,-122.625,1.202148,0.8789063,0.2211914,-0.1259766,-0.3232422,-0.04052734
1617,-57.0625,42.875,-128.3125,1.140137,0.890625,0.2441406,-0.1210938,-0.3354492,-0.0625
1622,-63.4375,44.75,-132.625,1.09375,0.8051758,0.2329102,-0.1137695,-0.3393555,-0.08154297
1626,-52.625,44.625,-137.875,1.105469,0.6459961,0.2675781,-0.1079102,-0.3417969,-0.1005859
1630,-34.6875,48.625,-138.9375,1.124512,0.6108398,0.3251953,-0.09716797,-0.3369141,-0.1196289
1634,-34.75,53.6875,-137.0625,1.147949,0.7739258,0.3789063,-0.08056641,-0.3305664,-0.137207
1638,-48.375,59.75,-134.375,1.047363,0.8168945,0.3134766,-0.07226563,-0.3208008,-0.1425781
1642,-59.5625,60.25,-131.1875,0.9619141,0.7431641,0.2597656,-0.05810547,-0.3095703,-0.1508789
1646,-57,57.6875,-134.875,0.8769531,0.6694336,0.2368164,-0.04150391,-0.2983398,-0.1484375
1650,-52.125,58.3125,-137.125,0.9116211,0.6303711,0.2675781,-0.03417969,-0.2895508,-0.1469727
1654,-51.8125,60.625,-135.125,0.8691406,0.6108398,0.2905273,-0.02099609,-0.2866211,-0.1401367
1658,-56.25,62.75,-130.8125,0.8149414,0.5175781,0.2636719,-0.009277344,-0.2880859,-0.1333008
1662,-56.8125,63.25,-123.1875,0.6948242,0.4594727,0.2021484,-0.0009765625,-0.2905273,-0.1303711
1666,-57.6875,62.5625,-115.4375,0.6518555,0.3388672,0.1904297,0.01074219,-0.2944336,-0.1264648
1670,-48.125,59,-112.1875,0.527832,0.2612305,0.1787109,0.01904297,-0.3017578,-0.125
1674,-36.375,57.25,-108.375,0.4814453,0.1953125,0.1904297,0.02978516,-0.3066406,-0.1235352
1678,-29,54.1875,-102.25,0.4814453,0.1367188,0.2368164,0.03662109,-0.3129883,-0.1235352
1682,-24.125,60.75,-94.875,0.4428711,0.1523438,0.2480469,0.04638672,-0.3208008,-0.1264648
1686,-29,61.6875,-86.25,0.3227539,0.1484375,0.1479492,0.05322266,-0.3256836,-0.125
1690,-29.75,55.125,-74.5,0.04345703,0.1020508,-0.01318359,0.06054688,-0.3291016,-0.1279297
1694,-18.3125,38.625,-66.0625,0.01660156,0.02441406,-0.03222656,0.06787109,-0.3344727,-0.1347656
1698,6.0625,28,-60.1875,0.01269531,0.04736328,0.05957031,0.07128906,-0.3369141,-0.1347656
1702,23.25,23.4375,-56.1875,0.03564453,0.269043,0.2060547,0.07617188,-0.3408203,-0.1357422
1706,22.0625,20.5,-53.0625,0.0009765625,0.4633789,0.2983398,0.08203125,-0.3432617,-0.137207
1710,9.25,18.0625,-44.8125,-0.01806641,0.4907227,0.3637695,0.08300781,-0.3442383,-0.1357422
1714,-0.1875,15.9375,-38.0625,0.02050781,0.5292969,0.390625,0.08789063,-0.3457031,-0.1386719
1718,-5.875,16.9375,-35.6875,-0.002441406,0.5913086,0.4018555,0.09130859,-0.3491211,-0.1401367
1722,-13.1875,19.1875,-33.0625,-0.04101563,0.5991211,0.3789063,0.09521484,-0.3466797,-0.1416016
1726,-20.6875,15.5625,-31.25,-0.1342773,0.5332031,0.340332,0.09765625,-0.3466797,-0.1425781
1730,-14.8125,10.625,-28.5625,-0.1147461,0.3662109,0.3212891,0.1010742,-0.3466797,-0.1484375
1734,-3.3125,7.125,-25.4375,-0.1069336,0.3081055,0.3330078,0.1044922,-0.3466797,-0.1494141
1738,7.25,8.6875,-17,0.008789063,0.2495117,0.4057617,0.1069336,-0.3457031,-0.1484375
1742,14.8125,11.75,-8.125,-0.1420898,0.3935547,0.355957,0.1069336,-0.3466797,-0.1484375
1746,11.5625,7.4375,-5.4375,-0.1650391,0.5175781,0.3095703,0.109375,-0.3481445,-0.1469727
1751,-2.9375,0.8125,-1.75,-0.2080078,0.5136719,0.2866211,0.109375,-0.3466797,-0.1455078
1755,-11.6875,-6.6875,1.8125,-0.09521484,0.3740234,0.3173828,0.1079102,-0.3491211,-0.1484375
1759,-10.875,-6.1875,10.75,-0.06054688,0.203125,0.3291016,0.1069336,-0.3481445,-0.1484375
1763,3.125,-7.25,17,-0.09130859,0.1176758,0.2905273,0.1044922,-0.3481445,-0.1484375
1767,14.5,-8.25,21.5,-0.07617188,0.1640625,0.2636719,0.105957,-0.3481445,-0.1455078
1771,13.1875,-9.4375,29.5625,-0.1069336,0.1757813,0.2211914,0.1010742,-0.3481445,-0.1425781
1775,9.25,-16.3125,36.625,-0.07617188,0.1333008,0.1865234,0.09863281,-0.3457031,-0.1416016
1779,12.75,-17.9375,47.0625,-0.01416016,0.06689453,0.144043,0.09521484,-0.3457031,-0.137207
1783,17.75,-23.3125,53.5,0.008789063,0.1137695,0.125,0.09277344,-0.3457031,-0.1357422
1787,16,-29.6875,60.6875,0.02441406,0.140625,0.1171875,0.08544922,-0.3442383,-0.1279297
1791,14.125,-38.75,72.375,0.07861328,0.07861328,0.1557617,0.07958984,-0.3417969,-0.125
1795,25.1875,-43.75,85.875,0.2026367,0.02050781,0.2211914,0.07714844,-0.3378906,-0.1225586
1799,45.75,-43.25,93.9375,0.3266602,0.1020508,0.2749023,0.06787109,-0.3344727,-0.1181641
1803,58.5625,-36.75,98.3125,0.3769531,0.2924805,0.3056641,0.05712891,-0.3266602,-0.1098633
1807,59.75,-36.75,102.875,0.3730469,0.4672852,0.3056641,0.05566406,-0.3232422,-0.105957
1811,50.8125,-37.8125,111.0625,0.4580078,0.5410156,0.2905273,0.04638672,-0.3154297,-0.1020508
1815,43.875,-36.25,116.5625,0.527832,0.5722656,0.2905273,0.03564453,-0.3095703,-0.1035156
1819,43.5625,-36.125,121.9375,0.5126953,0.6147461,0.2290039,0.02978516,-0.3032227,-0.1020508
1823,41.9375,-40.1875,123.9375,0.5200195,0.6962891,0.1982422,0.01904297,-0.2944336,-0.105957
1827,31.125,-45.4375,127.125,0.6362305,0.7353516,0.2329102,0.01074219,-0.2895508,-0.1113281
1831,30,-44.75,136.5625,0.7216797,0.6264648,0.2597656,0.0009765625,-0.2866211,-0.1166992
1835,45,-41.6875,139,0.7602539,0.6923828,0.2250977,-0.009277344,-0.2866211,-0.1289063
1839,56.5,-42.25,134.4375,0.7333984,0.840332,0.1674805,-0.02099609,-0.2919922,-0.1401367
1843,56.875,-47.5,129.8125,0.7021484,0.9799805,0.1748047,-0.02929688,-0.2944336,-0.1425781
1847,34.5,-52.3125,129.6875,0.8032227,1.022949,0.2368164,-0.04492188,-0.3105469,-0.1484375
1851,13.625,-55.375,137.25,0.9541016,0.824707,0.3017578,-0.06054688,-0.3256836,-0.1455078
1855,33.75,-51.5625,138.75,0.8691406,0.7587891,0.2597656,-0.07128906,-0.3369141,-0.1401367
1859,51.875,-46.875,126.4375,0.9970703,0.90625,0.2788086,-0.08642578,-0.3491211,-0.1235352
1863,42.5625,-43.625,119.4375,0.9501953,0.9995117,0.2290039,-0.1010742,-0.359375,-0.1020508
1867,5.6875,-47.5,119.4375,1.047363,0.9838867,0.2597656,-0.1054688,-0.3618164,-0.08154297
1871,-15.6875,-43.625,140.8125,0.9892578,0.4829102,0.2172852,-0.1152344,-0.3554688,-0.06542969
1875,18.375,-52.625,140.1875,1.031738,0.4985352,0.1982422,-0.1235352,-0.3442383,-0.04736328
1880,53.8125,-48.0625,126.1875,1.124512,0.6264648,0.2402344,-0.1259766,-0.3378906,-0.03271484
1884,70.375,-44.5,115.8125,1.217773,0.6772461,0.2944336,-0.1318359,-0.3232422,-0.01611328
1888,63.4375,-35,114.375,1.283691,0.7041016,0.3520508,-0.1342773,-0.3066406,0.002441406
1892,57.5,-24.1875,129.625,1.16748,0.5722656,0.2788086,-0.1376953,-0.2944336,0.01074219
1896,63.75,-26.4375,134.1875,1.140137,0.7353516,0.2402344,-0.1459961,-0.2729492,0.02001953
1900,61.0625,-28.5625,128.125,1.113281,0.9643555,0.2597656,-0.1508789,-0.2495117,0.02539063
1904,37.75,-30.8125,117.6875,1.155762,1.015137,0.340332,-0.1616211,-0.2304688,0.02539063
1908,24.375,-26.875,104.9375,1.194336,0.7705078,0.3789063,-0.1674805,-0.2080078,0.02294922
1912,27,-24.25,100.125,1.217773,0.7392578,0.3867188,-0.1733398,-0.1870117,0.01611328
1916,28.375,-18.0625,102.5625,1.244629,0.7236328,0.3598633,-0.1791992,-0.1733398,0.004882813
1920,22.0625,-15.8125,102.375,1.244629,0.7856445,0.3095703,-0.1865234,-0.1557617,-0.008300781
1924,20.6875,-12.0625,99.125,1.248535,0.6147461,0.2480469,-0.1938477,-0.140625,-0.02734375
1928,41.25,-5,95.4375,1.283691,0.3427734,0.1557617,-0.1948242,-0.1357422,-0.03808594
1932,88.4375,3.375,85.1875,1.209961,0.2109375,-0.01318359,-0.1982422,-0.1293945,-0.05273438
1936,129.75,12.3125,81.375,1.206055,0.4790039,-0.1166992,-0.2006836,-0.1293945,-0.07177734
1940,126.4375,9.375,76.5625,1.004395,0.840332,-0.2324219,-0.2021484,-0.1318359,-0.07861328
1944,98.8125,-5.25,73.75,0.9501953,0.9453125,-0.2055664,-0.203125,-0.1396484,-0.08544922
1948,73.9375,-14.3125,68,1.039551,0.7470703,-0.1362305,-0.206543,-0.1455078,-0.09228516
1952,71.1875,-15.1875,65.6875,1.09375,0.5097656,-0.1166992,-0.2089844,-0.1494141,-0.09667969
1956,87.8125,-5.5,65.0625,1.229492,0.4013672,-0.0859375,-0.2114258,-0.1567383,-0.09667969
1960,93.9375,4.5625,65.9375,1.031738,0.6616211,-0.2016602,-0.2128906,-0.1606445,-0.09521484
1964,82.6875,-0.1875,63.9375,0.9272461,0.7705078,-0.2670898,-0.2172852,-0.1655273,-0.09521484
1968,66.125,-10.25,62.1875,0.9116211,0.7705078,-0.2592773,-0.2211914,-0.1704102,-0.09375
1972,61,-13.9375,55.4375,1.008301,0.6538086,-0.1938477,-0.2246094,-0.1704102,-0.08984375
1976,68.4375,-14.125,54,1.02002,0.5332031,-0.1591797,-0.2270508,-0.1733398,-0.08691406
1980,73.1875,-10.9375,57.3125,1.055176,0.6772461,-0.112793,-0.2319336,-0.1743164,-0.08154297
1984,62.125,-5.8125,53.5625,1.023926,0.921875,-0.1166992,-0.2353516,-0.1733398,-0.07861328
1988,36,-7.0625,42.625,0.9194336,1.131836,-0.109375,-0.234375,-0.171875,-0.07470703
1992,-3,-14.125,30.0625,1.000488,1.271484,-0.02050781,-0.237793,-0.1704102,-0.07177734
1996,-44.3125,-11,19.75,1.078125,1.166504,0.03662109,-0.2402344,-0.1694336,-0.07177734
2000,-62.3125,-8.3125,4.4375,1.082031,0.9375,-0.03222656,-0.2387695,-0.1669922,-0.07080078
2004,-69.125,-6.875,-10.25,1.085938,0.9101563,-0.04736328,-0.2387695,-0.1645508,-0.07177734
2009,-73.3125,-2,-23.1875,1.132324,0.90625,-0.02050781,-0.2387695,-0.1630859,-0.07617188
2013,-81.1875,1,-36.375,1.121094,0.9995117,0.009765625,-0.2363281,-0.1591797,-0.07763672
2017,-96.9375,5.3125,-46.0625,1.179199,1.057617,0.02880859,-0.2329102,-0.1557617,-0.08154297
2021,-114.25,10.25,-55,1.206055,1.104492,0.05175781,-0.2304688,-0.1533203,-0.08154297
2025,-126.3125,10.5,-66.125,1.163574,1.030762,0.02099609,-0.2294922,-0.1508789,-0.08544922
2029,-120.625,12.3125,-80.125,1.252441,0.890625,0.06738281,-0.2246094,-0.1420898,-0.08837891
2033,-106.9375,18.1875,-92.125,1.364746,0.8364258,0.125,-0.21875,-0.1342773,-0.08691406
2037,-93.875,26.75,-103.6875,1.380371,0.8789063,0.1171875,-0.2163086,-0.1293945,-0.08544922
2041,-85.25,28.6875,-115.5,1.380371,0.8828125,0.09423828,-0.2114258,-0.1230469,-0.07763672
2045,-82.125,31,-124,1.376465,0.9140625,0.09033203,-0.206543,-0.1166992,-0.0625
2049,-86.4375,32.875,-130.0625,1.415527,0.9335938,0.09033203,-0.203125,-0.1157227,-0.04736328
2053,-90.0625,35.3125,-138.625,1.415527,0.8945313,0.06738281,-0.1972656,-0.1196289,-0.01904297
2057,-84.125,36.1875,-149.8125,1.477539,0.7314453,0.09033203,-0.1914063,-0.1357422,0.01464844
2061,-73.875,40.9375,-156.875,1.477539,0.7001953,0.1098633,-0.1806641,-0.1582031,0.03759766
2065,-72.6875,44.375,-159.25,1.512207,0.6884766,0.1518555,-0.1665039,-0.1992188,0.05810547
2069,-73.4375,50.5625,-157.25,1.496582,0.6655273,0.159668,-0.1557617,-0.2456055,0.05957031
2073,-73.75,54.75,-155.4375,1.446289,0.6459961,0.1479492,-0.1518555,-0.2705078,0.05126953
2077,-69.25,57.625,-156,1.368652,0.6499023,0.1132813,-0.1459961,-0.3007813,0.03222656
2081,-61.375,56.3125,-162.25,1.337891,0.6499023,0.1210938,-0.1425781,-0.3256836,0.01074219
2085,-57.75,56.5625,-165.9375,1.330078,0.6420898,0.1635742,-0.1425781,-0.3408203,-0.006835938
2089,-58.6875,57.375,-165.625,1.314453,0.6264648,0.1982422,-0.1401367,-0.3569336,-0.03515625
2093,-62.5625,61.375,-157.5625,1.283691,0.5761719,0.2133789,-0.1352539,-0.371582,-0.07324219
2097,-59.1875,61.375,-153,1.182617,0.5292969,0.1982422,-0.1303711,-0.3706055,-0.1020508
2101,-43.5,63.8125,-155,1.175293,0.4985352,0.2519531,-0.1152344,-0.359375,-0.1425781
2105,-34.75,66.5625,-159,1.144043,0.5952148,0.2749023,-0.09375,-0.3369141,-0.1674805
2109,-44.125,70.625,-157.875,1.151855,0.6538086,0.2983398,-0.07714844,-0.3168945,-0.175293
2113,-55.5,75.1875,-150.1875,0.9736328,0.5800781,0.2094727,-0.05322266,-0.2929688,-0.1738281
2117,-54.75,69.875,-145.3125,0.8613281,0.4790039,0.1518555,-0.03515625,-0.2753906,-0.1645508
2121,-42.75,65.1875,-142.5625,0.8496094,0.3935547,0.1865234,-0.02001953,-0.2705078,-0.1538086
2125,-34.5,63.6875,-139.8125,0.8613281,0.4633789,0.2597656,-0.009277344,-0.2680664,-0.1386719
2129,-44.125,68.75,-135.75,0.8652344,0.5722656,0.3134766,-0.0009765625,-0.2705078,-0.125
2133,-65.75,78.625,-128.375,0.7875977,0.5449219,0.2866211,0.008300781,-0.2768555,-0.1166992
2138,-75.25,81.0625,-118.6875,0.5512695,0.3505859,0.1171875,0.02001953,-0.2841797,-0.1113281
2142,-58.5,73.3125,-110.9375,0.2915039,0.1757813,-0.02832031,0.02832031,-0.296875,-0.1088867
2146,-19.625,49.8125,-113.3125,0.2216797,0.140625,0.009765625,0.03076172,-0.3041992,-0.1113281
2150,0.625,40.5625,-111.6875,0.3691406,0.4013672,0.2211914,0.04150391,-0.3144531,-0.1088867
2154,-11,41.9375,-103.4375,0.4038086,0.5136719,0.3442383,0.05078125,-0.3242188,-0.1113281
2158,-30.6875,45.9375,-93.625,0.3110352,0.4868164,0.3520508,0.05566406,-0.3291016,-0.1142578
2162,-35.125,44.25,-88.875,0.190918,0.3623047,0.2905273,0.06298828,-0.3369141,-0.1196289
2166,-21.8125,41.1875,-88,0.1635742,0.237793,0.2480469,0.07373047,-0.3408203,-0.1289063
2170,-7.25,37,-87.4375,0.1171875,0.2226563,0.2558594,0.07958984,-0.3417969,-0.1333008
2174,-5.375,32.1875,-80.625,0.07861328,0.2456055,0.2709961,0.08691406,-0.3481445,-0.1386719
2178,-16.375,28.5,-66.125,0.07470703,0.2573242,0.2983398,0.09521484,-0.3481445,-0.1425781
2182,-25.5625,27.75,-53.3125,-0.01806641,0.203125,0.2597656,0.09960938,-0.3481445,-0.1455078
2186,-26,21.6875,-43.3125,-0.08007813,0.1601563,0.2172852,0.1044922,-0.3466797,-0.1494141
2190,-18.6875,15.0625,-36.625,-0.1030273,0.1601563,0.2441406,0.109375,-0.3457031,-0.1591797
2194,-7.5625,11.1875,-36.0625,-0.06835938,0.15625,0.2983398,0.112793,-0.3457031,-0.1591797
2198,-0.0625,12.5,-28.6875,-0.04101563,0.1601563,0.355957,0.1176758,-0.3466797,-0.1630859
2202,5.0625,12.5625,-17.4375,-0.1381836,0.1601563,0.340332,0.1176758,-0.3457031,-0.1616211
2206,15.75,8.1875,-9.6875,-0.1884766,0.2495117,0.3173828,0.1186523,-0.3466797,-0.1630859
2210,19.0625,3.5,-5.4375,-0.1264648,0.3974609,0.3637695,0.1210938,-0.3457031,-0.1630859
2214,9.5,3,-0.375,-0.1420898,0.5566406,0.409668,0.1225586,-0.3466797,-0.1606445
2218,-10.75,1.5,4,-0.1923828,0.6225586,0.425293,0.1186523,-0.3466797,-0.1616211
2222,-22.6875,-6.3125,6.25,-0.2270508,0.4516602,0.3867188,0.1186523,-0.3481445,-0.1616211
2226,-8.125,-10.625,12.9375,-0.08789063,0.237793,0.4287109,0.1186523,-0.3457031,-0.1674805
2230,18.3125,-8.5,16.4375,-0.1225586,0.3544922,0.4443359,0.1166992,-0.3466797,-0.1660156
2234,30.3125,-9.9375,15.625,-0.1499023,0.5214844,0.4633789,0.1142578,-0.3457031,-0.1616211
2238,29,-12.5,16,-0.1499023,0.6108398,0.4750977,0.112793,-0.3491211,-0.1591797
2242,19.625,-14.375,14.1875,-0.09521484,0.6342773,0.4941406,0.112793,-0.3466797,-0.1547852
2246,8.3125,-12.625,16.4375,0.02441406,0.4360352,0.5019531,0.1118164,-0.3491211,-0.1523438
2250,7.625,-6.375,26.8125,0.04736328,0.2924805,0.4482422,0.1079102,-0.3491211,-0.1508789
2254,20.5,-5.6875,32.9375,-0.08398438,0.2807617,0.3364258,0.1079102,-0.3481445,-0.1484375
2258,28.75,-8.5,32.25,-0.08789063,0.3232422,0.2749023,0.105957,-0.3491211,-0.1425781
2262,25.5,-15.25,32.5,-0.04492188,0.3120117,0.2368164,0.1010742,-0.3491211,-0.1386719
2267,14.75,-16.75,47.375,0.1210938,0.1601563,0.2558594,0.09960938,-0.3491211,-0.1333008
2271,19.0625,-18.0625,66.0625,-0.03710938,0.1523438,0.1826172,0.09619141,-0.3491211,-0.1289063
2275,28.375,-26.6875,71.8125,0.125,0.2299805,0.2480469,0.08886719,-0.3457031,-0.1225586
2279,37.875,-23.5,67.875,0.2373047,0.2265625,0.3710938,0.08203125,-0.3442383,-0.1181641
2283,39.6875,-8.8125,84.9375,0.4970703,0.1992188,0.4750977,0.07714844,-0.3393555,-0.1088867
2287,35.875,7.5625,103.625,0.2875977,0.4477539,0.3637695,0.06884766,-0.3354492,-0.1020508
2291,23.3125,-0.1875,107.4375,0.1367188,0.5991211,0.2480469,0.05957031,-0.328125,-0.09765625
2295,10.75,-17.5,98.375,0.2138672,0.5839844,0.2441406,0.05322266,-0.3208008,-0.09375
2299,8.0625,-21.5625,105.6875,0.4775391,0.3120117,0.3598633,0.04394531,-0.3120117,-0.09228516
2303,31.0625,-13.0625,124.4375,0.4155273,0.269043,0.3212891,0.0390625,-0.3017578,-0.09375
2307,53.25,-18.125,129.8125,0.4194336,0.5097656,0.2636719,0.02832031,-0.2954102,-0.09667969
2311,60.4375,-21.1875,128.3125,0.4619141,0.7509766,0.2905273,0.02001953,-0.2856445,-0.09667969
2315,45.3125,-24.5,126.4375,0.4892578,0.9101563,0.3095703,0.01757813,-0.2807617,-0.09912109
2319,28.1875,-28.6875,124.75,0.578125,0.8286133,0.340332,0.01171875,-0.2744141,-0.112793
2323,34.5,-29.375,129.0625,0.5976563,0.7275391,0.340332,0.003417969,-0.2705078,-0.125
2327,41.9375,-30.125,125.375,0.6132813,0.90625,0.3442383,-0.0009765625,-0.2729492,-0.1333008
2331,30.0625,-35.4375,117.4375,0.6132813,1.057617,0.3212891,-0.009277344,-0.2792969,-0.1494141
2335,5.5,-42.25,119.0625,0.7255859,0.9760742,0.3637695,-0.02099609,-0.2919922,-0.1630859
2339,0.1875,-43.5,125.5625,0.7021484,0.7236328,0.3671875,-0.03417969,-0.3032227,-0.1713867
2343,20.4375,-44.5625,126.625,0.7490234,0.6772461,0.3710938,-0.05078125,-0.3266602,-0.1738281
2347,39.0625,-42.4375,115.125,0.8149414,0.809082,0.3867188,-0.07226563,-0.3544922,-0.1674805
2351,37.5,-41.75,110.9375,0.8769531,0.8481445,0.3828125,-0.08886719,-0.3681641,-0.1547852
2355,18.125,-42.6875,111.0625,0.9580078,0.824707,0.4018555,-0.1054688,-0.3881836,-0.1264648
2359,4,-40.25,125.8125,1.02002,0.5644531,0.3789063,-0.1201172,-0.3930664,-0.09375
2363,24.9375,-36.8125,136.375,0.9194336,0.5058594,0.3134766,-0.128418,-0.3891602,-0.07177734
2367,51.5,-40.5625,127.6875,0.8842773,0.7431641,0.2675781,-0.1376953,-0.3833008,-0.03955078
2371,58.3125,-37.75,115.25,1.000488,0.8710938,0.3173828,-0.1401367,-0.3681641,-0.009277344
2375,44.75,-32.5625,106.25,1.02002,0.8984375,0.3134766,-0.1401367,-0.3569336,0.01074219
2379,29.5,-32.5625,112.1875,1.02002,0.6459961,0.2788086,-0.1401367,-0.3393555,0.02978516
2383,38.3125,-30.5625,126.125,1.004395,0.5800781,0.2133789,-0.1450195,-0.3208008,0.04882813
2387,53.5625,-35.3125,122.4375,1.004395,0.7392578,0.159668,-0.1459961,-0.3066406,0.06494141
2391,57.9375,-36.8125,113.5625,1.082031,0.8632813,0.1865234,-0.1533203,-0.2792969,0.08007813
2396,46.0625,-31.75,103.4375,1.124512,0.8945313,0.1943359,-0.1625977,-0.2480469,0.09082031
2400,27.25,-29.1875,103.4375,1.023926,0.7817383,0.140625,-0.168457,-0.2255859,0.09326172
2404,25.9375,-34.625,111.5,0.8496094,0.6499023,0.03271484,-0.1791992,-0.1855469,0.08007813
2408,45.1875,-48.75,101.6875,0.8999023,0.5644531,0.04052734,-0.184082,-0.1542969,0.05517578
2412,78.4375,-49.8125,96.125,1.039551,0.3427734,0.1020508,-0.1889648,-0.1381836,0.03222656
2416,124.25,-42.3125,94.9375,1.229492,0.3120117,0.09423828,-0.1914063,-0.1254883,0.00390625
2420,136,-34.375,95.5,1.0625,0.7666016,-0.06298828,-0.1938477,-0.1206055,-0.02148438
2424,116.3125,-43.75,94.25,1.179199,0.9140625,-0.04736328,-0.1938477,-0.1245117,-0.03955078
2428,95.9375,-43.8125,95,1.128418,0.824707,-0.01660156,-0.1962891,-0.1308594,-0.05566406
2432,90.25,-48.1875,91.3125,1.256348,0.5800781,0.09033203,-0.1982422,-0.1381836,-0.06640625
2436,111.1875,-35.75,89.25,1.333984,0.3857422,0.1171875,-0.199707,-0.1455078,-0.06787109
2440,139.5,-16.4375,83.125,1.341797,0.4243164,0.07910156,-0.2021484,-0.1533203,-0.07080078
2444,138.1875,-7.3125,84.5625,1.171387,0.6342773,-0.02832031,-0.2080078,-0.1621094,-0.07080078
2448,115.5625,-7.875,84.1875,1.206055,0.7739258,-0.04003906,-0.2089844,-0.1655273,-0.06640625
2452,94.75,-3.125,77.125,1.182617,0.6772461,-0.06298828,-0.2128906,-0.171875,-0.06640625
2456,79.25,0,74.0625,1.22168,0.6264648,-0.05517578,-0.2172852,-0.1767578,-0.06396484
2460,66,5.0625,67.875,1.175293,0.5878906,-0.0859375,-0.2211914,-0.1767578,-0.06103516
2464,51.4375,4.6875,66.5625,1.09375,0.5605469,-0.112793,-0.2236328,-0.1806641,-0.05712891
2468,34.375,2.25,67.3125,1.035645,0.5097656,-0.1630859,-0.2280273,-0.1782227,-0.05419922
2472,23.8125,-2.4375,70.9375,1.047363,0.4360352,-0.1552734,-0.2319336,-0.1791992,-0.05419922
2476,17.625,-1,74.9375,1.097656,0.5136719,-0.1362305,-0.2363281,-0.1767578,-0.05175781
2480,-5.1875,2.375,56.3125,0.9541016,1.267578,-0.112793,-0.2402344,-0.1743164,-0.04882813
2484,-84.1875,-7.9375,12.9375,0.6870117,2.545898,-0.1206055,-0.2446289,-0.1733398,-0.05029297
2488,-167,-11.6875,-12.8125,1.097656,1.690918,-0.2285156,-0.2426758,-0.171875,-0.05419922
2492,-151.3125,-2.75,13.8125,1.012207,0.2109375,-0.3901367,-0.2436523,-0.1694336,-0.05957031
2496,-103.4375,-9.5625,28.6875,1.008301,-0.1967773,-0.1938477,-0.2436523,-0.1669922,-0.06542969
2500,-31.4375,-4.125,24.625,1.163574,-0.1308594,-0.1054688,-0.2446289,-0.1606445,-0.06640625
2504,8.25,5.1875,9.4375,1.059082,0.3818359,-0.1054688,-0.2460938,-0.1582031,-0.06787109
2508,13.5625,4.9375,-22.25,0.9931641,0.7626953,-0.05517578,-0.2412109,-0.1582031,-0.06396484
2512,-14.375,3.6875,-41.8125,0.9853516,0.9995117,-0.02441406,-0.2426758,-0.1567383,-0.06640625
2516,-57.1875,-3.3125,-50.5625,1.008301,0.9799805,0.04052734,-0.2387695,-0.1582031,-0.06787109
2520,-92.5,-0.4375,-51.3125,1.140137,0.8364258,0.09423828,-0.2353516,-0.1582031,-0.06640625
2525,-108.25,3,-51.125,1.209961,0.6459961,0.07910156,-0.2329102,-0.1557617,-0.07080078
2529,-102.625,9.8125,-53.5625,1.19043,0.5761719,0.03662109,-0.2294922,-0.1533203,-0.07177734
2533,-87.1875,13.8125,-64.125,1.202148,0.6577148,0.04052734,-0.2270508,-0.1494141,-0.07177734
2537,-68.625,17.75,-80.25,1.198242,0.7080078,0.02490234,-0.2246094,-0.1455078,-0.07617188
2541,-53.0625,21.4375,-95.4375,1.260254,0.8168945,0.05175781,-0.21875,-0.1445313,-0.07324219
2545,-52.625,25.875,-106.75,1.206055,0.9375,0.07910156,-0.2163086,-0.140625,-0.07324219
2549,-61.625,22.875,-110.1875,1.19043,0.9760742,0.02880859,-0.2114258,-0.1367188,-0.06542969
2553,-69.25,20.625,-113,1.256348,1.003418,0.04785156,-0.2045898,-0.1333008,-0.05566406
2557,-72.0625,20.6875,-122.1875,1.368652,0.9760742,0.1020508,-0.2021484,-0.1318359,-0.04345703
2561,-76.625,27.4375,-131.4375,1.411621,1.007324,0.105957,-0.1972656,-0.1333008,-0.02294922
2565,-83.4375,28.375,-139.625,1.384277,0.956543,0.09423828,-0.1889648,-0.1430664,0.002441406
2569,-86.75,34.25,-144.75,1.477539,0.8867188,0.1171875,-0.1791992,-0.1557617,0.02001953
2573,-82.625,37.375,-148.3125,1.403809,0.777832,0.07910156,-0.1674805,-0.1855469,0.04443359
2577,-71.375,39.9375,-151.9375,1.395996,0.7119141,0.04785156,-0.1567383,-0.2231445,0.05517578
2581,-58.5625,39.375,-155.5625,1.39209,0.7119141,0.05175781,-0.1474609,-0.2480469,0.05517578
2585,-55.125,43,-160.0625,1.42334,0.7973633,0.1020508,-0.1401367,-0.2792969,0.04882813
2589,-59.625,44.6875,-162,1.372559,0.8168945,0.1171875,-0.1367188,-0.3056641,0.03369141
2593,-64.25,49.75,-161.875,1.399902,0.7314453,0.1674805,-0.1352539,-0.3217773,0.02294922
2597,-48.9375,53.5625,-166.5,1.260254,0.5683594,0.105957,-0.1318359,-0.3457031,-0.001464844
2601,-20.375,50.9375,-170.25,1.198242,0.4711914,0.1171875,-0.1293945,-0.3666992,-0.02734375
2605,6.75,49.4375,-171.6875,1.19043,0.6069336,0.1713867,-0.1269531,-0.3745117,-0.04736328
2609,4.9375,49.6875,-173.125,1.209961,0.8789063,0.2636719,-0.1137695,-0.3818359,-0.08154297
2613,-18.3125,50.875,-172.0625,1.117188,0.987793,0.2558594,-0.09716797,-0.3730469,-0.112793
2617,-36.875,50.625,-170.0625,1.0625,0.8789063,0.1826172,-0.08300781,-0.3554688,-0.1333008
2621,-35.1875,46.125,-174.375,0.9775391,0.7197266,0.1635742,-0.06054688,-0.328125,-0.1469727
2625,-17.375,44.8125,-177.1875,1.047363,0.6186523,0.2172852,-0.03662109,-0.3041992,-0.1425781
2629,-7.375,48,-175.8125,1.016113,0.6772461,0.2558594,-0.0234375,-0.2919922,-0.1318359
2633,-9.8125,50.3125,-173.125,0.8691406,0.7001953,0.2211914,-0.005859375,-0.2807617,-0.1157227
2637,-18.125,44.75,-171.25,0.7138672,0.5449219,0.140625,0.004394531,-0.2807617,-0.09521484
2641,-4.75,34,-165.6875,0.644043,0.2416992,0.140625,0.01660156,-0.2832031,-0.08007813
2645,24.8125,27.0625,-164.5625,0.6289063,0.1367188,0.1865234,0.02734375,-0.2919922,-0.06640625
2649,33.8125,19.1875,-151.75,0.543457,0.284668,0.2368164,0.0390625,-0.3007813,-0.05029297
2654,19.3125,18.375,-131.9375,0.6054688,0.4013672,0.2866211,0.04882813,-0.3095703,-0.04345703
2658,0.3125,25.9375,-121.75,0.5629883,0.4125977,0.3017578,0.06054688,-0.3208008,-0.03662109
2662,-6.3125,36.1875,-114.6875,0.4736328,0.3232422,0.2368164,0.06787109,-0.3320313,-0.03271484
2666,-4.375,37.1875,-109.875,0.2875977,0.2807617,0.1518555,0.07226563,-0.3378906,-0.03125
2670,-4.25,34,-103.1875,0.1870117,0.2885742,0.07910156,0.08300781,-0.3481445,-0.02587891
2674,-1.5,27,-92.4375,0.01660156,0.3081055,0.03271484,0.09375,-0.3579102,-0.02832031
2678,-2.625,14.9375,-85.0625,-0.02197266,0.3896484,0.03271484,0.09619141,-0.3603516,-0.02978516
2682,-11.4375,6.125,-73.4375,-0.02978516,0.4672852,0.07128906,0.105957,-0.3666992,-0.03369141
2686,-23.6875,7.1875,-66.5,0.09765625,0.4946289,0.1557617,0.112793,-0.371582,-0.03662109
2690,-33.375,15.1875,-63.375,0.02441406,0.4399414,0.1635742,0.1176758,-0.3745117,-0.04199219
2694,-34,17.75,-57.6875,-0.04882813,0.3505859,0.1210938,0.125,-0.3779297,-0.05273438
2698,-31.625,15.6875,-50.75,-0.1069336,0.300293,0.09033203,0.1293945,-0.3803711,-0.05859375
2702,-28.9375,11.5625,-37.0625,-0.1728516,0.2109375,0.07910156,0.1342773,-0.3818359,-0.0625
2706,-20.3125,2.5625,-26.5625,-0.1728516,0.1914063,0.1210938,0.1367188,-0.3803711,-0.06933594
2710,-9.125,1,-18.75,-0.09912109,0.1992188,0.1865234,0.1391602,-0.3793945,-0.07177734
2714,0,8.375,-12.5,-0.07226563,0.2573242,0.2060547,0.1425781,-0.3818359,-0.07324219
2718,4.6875,8.3125,-7.4375,-0.1806641,0.284668,0.159668,0.144043,-0.3793945,-0.07177734
2722,8,6.1875,4.625,-0.2041016,0.3271484,0.1479492,0.144043,-0.3803711,-0.07177734
2726,12.5,-1,7.5625,-0.2583008,0.3857422,0.1713867,0.1425781,-0.3842773,-0.07177734
2730,13.9375,-3.375,10.875,-0.1420898,0.4125977,0.2211914,0.1425781,-0.3842773,-0.07080078
2734,12.8125,-3.5,15.375,-0.1650391,0.4013672,0.2211914,0.1416016,-0.3833008,-0.06787109
2738,8.4375,-5.875,24.6875,-0.1499023,0.4125977,0.2329102,0.1367188,-0.3818359,-0.06640625
2742,2.6875,-5.125,32.4375,-0.1069336,0.4477539,0.2133789,0.1357422,-0.3818359,-0.0625
2746,-1.9375,-8.875,40.8125,-0.1499023,0.4555664,0.2094727,0.1318359,-0.3833008,-0.05957031
2750,-5.375,-11.8125,46.8125,-0.1108398,0.4555664,0.2021484,0.1269531,-0.3803711,-0.05957031
2754,-2.875,-14.6875,50.125,-0.07226563,0.4165039,0.2250977,0.1235352,-0.3793945,-0.05712891
2758,4.5625,-14.8125,53.125,-0.03320313,0.4204102,0.2329102,0.1166992,-0.3779297,-0.05175781
2762,8.9375,-14.375,56.75,0.03564453,0.4555664,0.2329102,0.1152344,-0.3754883,-0.04736328
2766,8.875,-11.9375,66.3125,0.01660156,0.4672852,0.2021484,0.109375,-0.3706055,-0.04199219
2770,7.75,-15.375,73.0625,-0.01806641,0.4868164,0.1748047,0.1020508,-0.3666992,-0.03808594
2774,8.25,-22.9375,77.8125,-0.02978516,0.4868164,0.1787109,0.09960938,-0.3603516,-0.03515625
2778,11.6875,-28.25,82,0.190918,0.4399414,0.2368164,0.09277344,-0.3554688,-0.03125
2783,16.6875,-19.5,89.9375,0.2797852,0.4672852,0.2211914,0.08300781,-0.3466797,-0.02832031
2787,20.75,-19.625,97.6875,0.1870117,0.5800781,0.1748047,0.07861328,-0.3417969,-0.02734375
2791,16.375,-23.5,98.625,0.1635742,0.6655273,0.1635742,0.06982422,-0.3305664,-0.02441406
2795,6.75,-36.125,97.125,0.2255859,0.6655273,0.2172852,0.05957031,-0.3217773,-0.02832031
2799,0.375,-32.125,102.75,0.5317383,0.4594727,0.2905273,0.05322266,-0.3120117,-0.03271484
2803,3.125,-21.3125,114.5,0.6401367,0.3857422,0.2675781,0.04736328,-0.3032227,-0.03955078
2807,18.8125,-12.125,131.1875,0.3339844,0.5371094,0.07910156,0.03662109,-0.2919922,-0.04736328
2811,22.875,-30.8125,128.4375,0.2607422,0.7509766,0.02490234,0.02734375,-0.2856445,-0.05712891
2815,19.375,-46.375,115.875,0.4467773,0.7392578,0.1713867,0.02001953,-0.2792969,-0.06787109
2819,7.1875,-46.25,118.625,0.8769531,0.5449219,0.3520508,0.01171875,-0.2719727,-0.08691406
2823,23.5,-20.875,146.1875,0.7529297,0.5839844,0.2675781,0.006835938,-0.2753906,-0.09667969
2827,35,-21.5,139.3125,0.6328125,0.8481445,0.159668,-0.005859375,-0.2792969,-0.1166992
2831,31.0625,-28.4375,130.375,0.59375,0.972168,0.07910156,-0.01611328,-0.2895508,-0.1333008
2835,13.0625,-39,120.5,0.7177734,0.8945313,0.1132813,-0.02246094,-0.3041992,-0.1401367
2839,-3.0625,-46.4375,128.75,0.7602539,0.7392578,0.1132813,-0.04003906,-0.328125,-0.1469727
2843,1.875,-51.4375,139.9375,0.8417969,0.6342773,0.09033203,-0.06152344,-0.3554688,-0.144043
2847,5.1875,-59.375,136.0625,0.7836914,0.9453125,0.08251953,-0.07470703,-0.3730469,-0.1289063
2851,-14.9375,-71.5625,128.8125,0.7836914,1.061523,0.04785156,-0.09130859,-0.390625,-0.1005859
2855,-37,-85.625,122.1875,0.8110352,1.06543,0.07519531,-0.1030273,-0.3955078,-0.07080078
2859,-44.875,-94.75,111,0.9892578,0.7275391,0.1020508,-0.1079102,-0.3891602,-0.05273438
2863,-10.375,-80.1875,113.6875,1.175293,0.4125977,0.1748047,-0.109375,-0.3769531,-0.03125
2867,29.75,-68,117.875,1.016113,0.5991211,0.1367188,-0.1103516,-0.3603516,-0.01220703
2871,44.375,-70.5,114.625,1.055176,0.8632813,0.1518555,-0.112793,-0.3466797,-0.002441406
2875,29.9375,-71.75,107.6875,1.182617,1.06543,0.2172852,-0.1113281,-0.3291016,0.01171875
2879,-3.5,-63.125,112.0625,1.403809,0.8867188,0.3442383,-0.1137695,-0.3120117,0.01855469
2883,0,-42.8125,127.375,1.16748,0.7275391,0.2329102,-0.1137695,-0.3007813,0.02148438
2887,20.25,-42.9375,118.25,1.047363,0.777832,0.125,-0.1201172,-0.2817383,0.02294922
2891,34.9375,-45.8125,104.1875,1.066406,0.8481445,0.125,-0.1235352,-0.2641602,0.02832031
2895,30.9375,-47.4375,95.125,1.175293,0.8945313,0.2094727,-0.1269531,-0.2529297,0.02978516
2899,8.5,-42.125,97.3125,1.29541,0.7548828,0.2636719,-0.1352539,-0.2319336,0.02685547
2903,9.6875,-27.0625,106,1.233398,0.5097656,0.1904297,-0.1459961,-0.2128906,0.02294922
2907,33.5625,-21.375,103.1875,1.078125,0.5371094,0.1020508,-0.1518555,-0.2006836,0.01318359
2912,54.3125,-22.4375,95,1.035645,0.5566406,0.01708984,-0.1625977,-0.1831055,0.006347656
2916,68.1875,-27.625,88.25,1.097656,0.5722656,0.009765625,-0.1723633,-0.1694336,-0.005371094
2920,70.125,-26,87.5,1.229492,0.6030273,0.04785156,-0.1806641,-0.1591797,-0.01367188
2924,66.5625,-18.5,90.625,1.299316,0.5800781,0.07128906,-0.1875,-0.1518555,-0.02441406
2928,68.375,-7.9375,99.1875,1.144043,0.6459961,-0.001464844,-0.1962891,-0.1455078,-0.03808594
2932,65.4375,-12.1875,94.8125,1.055176,0.7080078,-0.07470703,-0.2006836,-0.1430664,-0.04638672
2936,62,-18.5,89.125,1.05127,0.6616211,-0.0859375,-0.206543,-0.1430664,-0.05712891
2940,64.0625,-26.5625,80.4375,1.117188,0.5722656,-0.08203125,-0.2114258,-0.1420898,-0.06103516
2944,71.1875,-26.75,69.9375,1.237305,0.4633789,-0.02441406,-0.215332,-0.1430664,-0.06396484
2948,79.9375,-16.0625,72.875,1.337891,0.4243164,0.02880859,-0.2197266,-0.1445313,-0.06640625
2952,82.8125,-3.8125,79.5,1.225586,0.5136719,0.01367188,-0.2255859,-0.1455078,-0.06787109
2956,74.5625,0.5625,83.5625,1.109375,0.5800781,-0.05517578,-0.2255859,-0.1469727,-0.06640625
2960,68.25,-2.125,80.9375,0.9775391,0.5761719,-0.1899414,-0.2304688,-0.1479492,-0.07080078
2964,74,-18.25,70.6875,0.8417969,0.5136719,-0.3051758,-0.2363281,-0.1469727,-0.06640625
2968,93.75,-31.875,53,0.9311523,0.4946289,-0.34375,-0.237793,-0.1469727,-0.06542969
2972,114.0625,-36.125,32.125,0.9423828,0.5371094,-0.3168945,-0.2412109,-0.1494141,-0.05712891
2976,120.1875,-38.1875,22.9375,1.000488,0.6225586,-0.2128906,-0.2446289,-0.1508789,-0.05273438
2980,108.6875,-36.375,25,1.008301,0.6694336,-0.1206055,-0.2460938,-0.1518555,-0.04492188
2984,88.4375,-34.5625,23.4375,1.085938,0.840332,-0.005371094,-0.2485352,-0.1533203,-0.04052734
2988,5,-23.1875,39.8125,1.29541,1.667969,0.3867188,-0.2509766,-0.1508789,-0.03369141
2992,-74.4375,4.5,16.6875,1.198242,1.310547,0.1674805,-0.253418,-0.1508789,-0.03271484
2996,-83.5625,11.4375,-6.75,0.9853516,0.5800781,-0.1552734,-0.2519531,-0.1518555,-0.03662109
3000,-68.0625,4.8125,-12.9375,0.8769531,0.203125,-0.3012695,-0.2509766,-0.1494141,-0.04199219
3004,-51.4375,-3.5,-8.9375,1.012207,0.2807617,-0.1166992,-0.2495117,-0.1494141,-0.04492188
3008,-37.25,2,-7.0625,1.09375,0.4204102,-0.01660156,-0.2509766,-0.1479492,-0.04492188
3012,-27.8125,11.3125,-20,1.186523,0.5566406,0.03271484,-0.2485352,-0.1455078,-0.04492188
3016,-23.8125,23,-42.125,1.140137,0.7119141,-0.001464844,-0.2470703,-0.1455078,-0.04638672
3020,-36.8125,28.625,-57.1875,1.124512,0.7856445,-0.02441406,-0.2460938,-0.1469727,-0.04736328
3024,-62.0625,27.75,-62.75,1.059082,0.8598633,-0.07470703,-0.2402344,-0.1479492,-0.05029297
3028,-88.3125,19.5625,-60.1875,1.047363,0.793457,-0.05517578,-0.2387695,-0.1479492,-0.05175781
3032,-98.125,17.125,-60.9375,1.128418,0.7548828,-0.01660156,-0.2329102,-0.1469727,-0.05175781
3036,-98.25,20.5625,-70.5,1.22168,0.7666016,0.02490234,-0.2280273,-0.1430664,-0.05566406
3041,-96.375,29.9375,-84.5625,1.302734,0.793457,0.04785156,-0.2236328,-0.1430664,-0.05175781
3045,-98.5625,38.8125,-97.375,1.330078,0.809082,0.03662109,-0.2172852,-0.1430664,-0.05273438
3049,-101.125,45,-103.5,1.333984,0.7973633,0.01708984,-0.2128906,-0.1430664,-0.04882813
3053,-101.25,46.9375,-107.25,1.248535,0.7587891,-0.005371094,-0.2080078,-0.1445313,-0.04492188
3057,-96.9375,46.1875,-109.75,1.268066,0.7353516,0.02490234,-0.2006836,-0.1479492,-0.03808594
3061,-88.8125,47.9375,-110.6875,1.318359,0.7548828,0.06738281,-0.1914063,-0.1542969,-0.02441406
3065,-80.875,52.375,-117.4375,1.333984,0.793457,0.09814453,-0.1865234,-0.1606445,-0.01904297
3069,-78.375,58.25,-123.875,1.364746,0.8598633,0.08251953,-0.1757813,-0.1782227,-0.005371094
3073,-77.8125,59.6875,-128.8125,1.310547,0.793457,0.05957031,-0.1640625,-0.2016602,0.00390625
3077,-67.5625,61.6875,-132.5,1.322266,0.7973633,0.07519531,-0.1542969,-0.2158203,0.006347656
3081,-59.3125,64.3125,-141.125,1.299316,0.8442383,0.1098633,-0.1459961,-0.2392578,0.0078125
3085,-60.6875,65.375,-146.25,1.322266,0.8984375,0.1132813,-0.1376953,-0.2631836,0.002441406
3089,-70.125,65.9375,-146.3125,1.302734,0.9296875,0.1020508,-0.1303711,-0.2792969,-0.001464844
3093,-85.8125,65.9375,-144.75,1.268066,0.9296875,0.04443359,-0.1259766,-0.2993164,-0.01367188
3097,-94.75,61.6875,-142.8125,1.179199,0.777832,-0.01318359,-0.1235352,-0.3178711,-0.03369141
3101,-90.0625,54.625,-144.0625,1.147949,0.6538086,0.02880859,-0.1186523,-0.328125,-0.04492188
3105,-70.9375,51.3125,-145.375,1.19043,0.5332031,0.1367188,-0.1137695,-0.3417969,-0.07324219
3109,-51.6875,56.875,-148.5,1.268066,0.5527344,0.2172852,-0.1103516,-0.3491211,-0.09912109
3113,-44.3125,68.0625,-149.125,1.256348,0.6303711,0.2329102,-0.1044922,-0.3466797,-0.1181641
3117,-45.875,72.4375,-145.5625,1.0625,0.6420898,0.1713867,-0.09375,-0.3417969,-0.1425781
3121,-41.25,66.3125,-143.5,0.9697266,0.5952148,0.144043,-0.07714844,-0.3266602,-0.1645508
3125,-29.375,60.5,-146.875,0.9350586,0.5800781,0.2021484,-0.06884766,-0.3129883,-0.1713867
3129,-19.875,58.9375,-147.3125,0.9233398,0.6069336,0.2675781,-0.04980469,-0.2983398,-0.1738281
3133,-18.4375,58.3125,-147.125,0.9116211,0.6459961,0.2905273,-0.03515625,-0.2841797,-0.1699219
3137,-21.5,60,-139.25,0.8842773,0.6499023,0.2983398,-0.02685547,-0.2783203,-0.1630859
3141,-22.875,62.0625,-134.75,0.8378906,0.6264648,0.3095703,-0.01269531,-0.2768555,-0.1523438
3145,-20.375,66.125,-134.25,0.7797852,0.6381836,0.3056641,-0.0009765625,-0.2753906,-0.1425781
3149,-20.1875,63.0625,-135.25,0.6401367,0.6655273,0.2709961,0.01171875,-0.2792969,-0.1347656
3153,-28.75,60.875,-130.625,0.6518555,0.6655273,0.2749023,0.02246094,-0.2856445,-0.125
3157,-40.875,58.3125,-123.3125,0.574707,0.6303711,0.2905273,0.03173828,-0.2929688,-0.1210938
3161,-45.6875,55.5,-112.0625,0.559082,0.5800781,0.340332,0.04394531,-0.2983398,-0.1196289
3165,-50.1875,59.4375,-108.5625,0.5820313,0.6381836,0.3979492,0.05224609,-0.3066406,-0.1181641
3170,-68.625,70.0625,-106.8125,0.5395508,0.6225586,0.3056641,0.06152344,-0.3120117,-0.1225586
3174,-82.8125,75.0625,-101.125,0.4350586,0.4516602,0.1787109,0.06884766,-0.3168945,-0.125
3178,-80.3125,73.1875,-94.375,0.2758789,0.253418,0.05957031,0.07861328,-0.3232422,-0.1303711
3182,-60.5,64.0625,-85.9375,0.1132813,0.09814453,0.02490234,0.09033203,-0.3266602,-0.1425781
3186,-29.1875,50.625,-80.625,0.03564453,0.07080078,0.09814453,0.09277344,-0.3291016,-0.1469727
3190,-8,46.9375,-76.5,0.07080078,0.203125,0.1674805,0.1020508,-0.3305664,-0.1523438
3194,-2.3125,42.0625,-73.75,-0.002441406,0.2885742,0.1787109,0.109375,-0.3320313,-0.1577148
3198,-5.1875,35.375,-69.6875,-0.03320313,0.3193359,0.1982422,0.1103516,-0.3305664,-0.1606445
3202,-12.0625,27.75,-61.1875,-0.09521484,0.284668,0.1865234,0.1201172,-0.3305664,-0.1630859
3206,-18.8125,17.375,-50.5625,-0.1611328,0.2299805,0.1826172,0.125,-0.3291016,-0.168457
3210,-20.1875,6.8125,-37.9375,-0.1923828,0.1914063,0.2021484,0.1308594,-0.328125,-0.1699219
3214,-16,-2.0625,-29.25,-0.2001953,0.1679688,0.2402344,0.1318359,-0.3266602,-0.175293
3218,-8.3125,-8.5625,-25.1875,-0.1572266,0.1757813,0.3095703,0.1342773,-0.3256836,-0.1782227
3222,-1.1875,-10.5625,-23.8125,-0.09130859,0.1914063,0.3979492,0.1342773,-0.3242188,-0.1806641
3226,0.5625,-6.0625,-18.875,-0.03710938,0.1992188,0.4672852,0.1376953,-0.3242188,-0.1821289
3230,2.875,-0.625,-9.5,-0.06835938,0.1953125,0.4599609,0.1376953,-0.3242188,-0.1835938
3234,5.25,1.8125,-3.4375,-0.1108398,0.2768555,0.4326172,0.1376953,-0.3256836,-0.1850586
3238,3.6875,2.5,3.0625,-0.1499023,0.284668,0.409668,0.1367188,-0.3232422,-0.1821289
3242,1.25,-3.4375,9.4375,-0.215332,0.284668,0.355957,0.1376953,-0.3232422,-0.1821289
3246,3.25,-9.1875,13.75,-0.1381836,0.2495117,0.3710938,0.1342773,-0.3242188,-0.1821289
3250,7.9375,-8.625,21.3125,-0.1303711,0.237793,0.3637695,0.1333008,-0.3242188,-0.1821289
3254,14.1875,-11.0625,26.9375,-0.1572266,0.269043,0.3481445,0.1333008,-0.3256836,-0.1806641
3258,20.875,-15.0625,32.6875,-0.1767578,0.2885742,0.3291016,0.1293945,-0.3242188,-0.175293
3262,27.375,-21,37.25,-0.1420898,0.3120117,0.3520508,0.1259766,-0.3266602,-0.1728516
3266,31.75,-23.875,37.1875,-0.05273438,0.3662109,0.3945313,0.1201172,-0.328125,-0.1699219
3270,27.4375,-22.4375,44.375,-0.02978516,0.4013672,0.3789063,0.1186523,-0.3291016,-0.1674805
3274,18,-25.3125,51.1875,-0.02197266,0.4013672,0.3789063,0.1152344,-0.3305664,-0.1616211
3278,14.375,-27.75,57.5625,-0.04101563,0.2924805,0.3291016,0.1103516,-0.3305664,-0.1591797
3282,17.3125,-35.125,64.6875,-0.01025391,0.2226563,0.2866211,0.1069336,-0.3320313,-0.15625
3286,30.375,-38.1875,72.5,0.1054688,0.2265625,0.3134766,0.09863281,-0.3266602,-0.1523438
3290,40.8125,-36.875,74.1875,0.1557617,0.3193359,0.3442383,0.09277344,-0.328125,-0.1469727
3294,38.625,-36.75,75.5,0.1948242,0.3935547,0.355957,0.08789063,-0.3256836,-0.1425781
3299,37.0625,-35.875,86.6875,0.2993164,0.2573242,0.3710938,0.08203125,-0.3256836,-0.1357422
3303,57.8125,-32.5,101.6875,0.2797852,0.2299805,0.3291016,0.07226563,-0.3232422,-0.1289063
3307,83.8125,-33.4375,102.5,0.2993164,0.3623047,0.3173828,0.06640625,-0.3208008,-0.1225586
3311,95.1875,-35.4375,100.4375,0.3730469,0.5292969,0.3442383,0.05957031,-0.3154297,-0.1157227
3315,86.1875,-31.3125,97.0625,0.5820313,0.6186523,0.4135742,0.05078125,-0.3095703,-0.1098633
3319,75.1875,-19.5,113.25,0.5551758,0.6069336,0.3867188,0.04150391,-0.3056641,-0.1074219
3323,69.875,-14.1875,121.5,0.5395508,0.6147461,0.3095703,0.03320313,-0.2983398,-0.1044922
3327,74.25,-12.25,125,0.5239258,0.5410156,0.1826172,0.02246094,-0.2944336,-0.105957
3331,98.375,-12.125,121.8125,0.5708008,0.3818359,0.1098633,0.01660156,-0.2880859,-0.1088867
3335,133.125,-12.75,116.6875,0.6210938,0.3779297,0.04443359,0.006835938,-0.2880859,-0.1113281
3339,147.625,-12.3125,124.625,0.7602539,0.5292969,0.04785156,-0.0009765625,-0.2905273,-0.1142578
3343,145.25,-9.3125,147.8125,0.8071289,0.6030273,0.009765625,-0.005859375,-0.296875,-0.1166992
3347,154.125,-10.1875,165.8125,0.7680664,0.6962891,-0.09765625,-0.02001953,-0.3095703,-0.1181641
3351,164.5,-14.625,153.625,0.7915039,0.9179688,-0.1362305,-0.03515625,-0.3344727,-0.1113281
3355,154.75,-20.4375,139.1875,0.8920898,1.092773,-0.04394531,-0.04394531,-0.3491211,-0.09667969
3359,113,-11.75,148.1875,1.113281,1.131836,0.09814453,-0.06298828,-0.3706055,-0.07177734
3363,84.8125,-5.0625,161.3125,0.9272461,0.9995117,0.03271484,-0.08203125,-0.3803711,-0.03955078
3367,82.4375,-10.4375,157.25,0.8730469,0.9643555,-0.08203125,-0.09130859,-0.3818359,-0.01611328
3371,83.125,-15.5625,141.25,1.023926,0.9760742,-0.01318359,-0.09960938,-0.371582,0.01708984
3375,66.875,-12.1875,144.25,1.078125,1.04248,0.01367188,-0.1069336,-0.3554688,0.04296875
3379,50.3125,-11.125,154.4375,1.16748,1.04248,0.06738281,-0.1113281,-0.3408203,0.05419922
3383,36.6875,-7.5625,148.1875,1.097656,1.259766,0.05566406,-0.1186523,-0.3208008,0.06640625
3387,12,-4.9375,137.625,1.151855,1.271484,0.06738281,-0.1210938,-0.3007813,0.07421875
3391,-13.0625,-2.6875,126.9375,1.078125,1.116211,0.04052734,-0.1245117,-0.2866211,0.07421875
3395,-30.8125,-7.3125,132,1.117188,0.8671875,0.02099609,-0.1293945,-0.2705078,0.07568359
3399,-26.4375,-7.75,136.75,1.163574,0.7158203,0.009765625,-0.1342773,-0.2504883,0.07568359
3403,-9.5625,-11.625,128.6875,1.09375,0.8671875,0.02099609,-0.1391602,-0.2416992,0.07324219
3407,-10.875,-10.125,114.5625,1.19043,0.9023438,0.05957031,-0.1459961,-0.2207031,0.06640625
3411,-24.1875,-7.0625,104,1.182617,0.7856445,0.06347656,-0.1557617,-0.2016602,0.05664063
3415,-45.3125,-6.875,107.375,1.182617,0.6655273,0.05175781,-0.1591797,-0.1904297,0.04980469
3419,-63.5625,-8,111.9375,1.19043,0.4985352,0.04052734,-0.168457,-0.1757813,0.03222656
3423,-48.625,-11.9375,118.625,1.097656,0.1176758,-0.02832031,-0.1782227,-0.1591797,0.01318359
3428,4.5,-16.1875,110.5625,1.229492,-0.1538086,-0.02050781,-0.184082,-0.1542969,0.0009765625
3432,77.8125,-6.9375,101.5625,1.368652,-0.2431641,0.01367188,-0.1899414,-0.1430664,-0.01904297
3436,115.9375,17.5625,108.8125,1.333984,0.4633789,-0.03613281,-0.1962891,-0.1420898,-0.03662109
3440,73.125,14.625,112.3125,0.9853516,1.20166,-0.1513672,-0.2006836,-0.1420898,-0.04882813
3444,1.125,-13.125,119.4375,0.8920898,1.275391,-0.1552734,-0.2080078,-0.1430664,-0.05957031
3448,-32.4375,-25,104.125,1.179199,0.7895508,-0.02832031,-0.2114258,-0.1445313,-0.07080078
3452,-20.1875,-20.1875,93.1875,1.29541,0.3427734,0.06738281,-0.2163086,-0.1469727,-0.07617188
3456,19.3125,-2.5,92.6875,1.318359,0.1875,0.04443359,-0.222168,-0.1455078,-0.08300781
3460,50.8125,3.5,96,1.105469,0.4829102,-0.05908203,-0.2246094,-0.1508789,-0.08300781
3464,49.5625,-0.75,93.0625,0.9931641,0.8828125,-0.08984375,-0.2280273,-0.1508789,-0.08447266
3468,31.5,-8.25,83.5625,1.012207,1.026855,-0.06298828,-0.2329102,-0.1508789,-0.08447266
3472,21.8125,-10.6875,67.1875,1.124512,0.9296875,-0.03613281,-0.2387695,-0.1494141,-0.08447266
3476,15.4375,-4.4375,52.8125,1.198242,1.333496,0.03271484,-0.2402344,-0.1508789,-0.07861328
3480,-59.0625,-11.5625,10.3125,1.082031,2.950195,0.2519531,-0.2412109,-0.1508789,-0.08007813
3484,-97.4375,7.5625,-24.1875,1.206055,1.353027,-0.03613281,-0.2426758,-0.1494141,-0.08447266
3488,-67.4375,12.0625,-6.3125,0.9462891,0.284668,-0.128418,-0.2412109,-0.1479492,-0.08447266
3492,-30,-7.9375,8.1875,0.8535156,0.09814453,-0.1513672,-0.2387695,-0.1430664,-0.08544922
3496,3.4375,-9.375,2.1875,1.016113,0.3427734,-0.09375,-0.2412109,-0.1420898,-0.08691406
3500,14.3125,-8.125,-16.0625,1.039551,0.7548828,-0.01318359,-0.2412109,-0.1430664,-0.08300781
3504,-4.375,-0.75,-45.125,1.074219,1.069336,0.09423828,-0.2387695,-0.1420898,-0.08447266
3508,-51,1.6875,-63.25,0.9853516,1.143066,0.08251953,-0.2363281,-0.140625,-0.08154297
3512,-98.875,-5.0625,-62.5,0.9697266,0.9453125,0.05175781,-0.234375,-0.1430664,-0.08300781
3516,-113.25,-7.25,-62.0625,1.113281,0.6420898,0.06347656,-0.2304688,-0.1396484,-0.08447266
3520,-100,-4.0625,-66.8125,1.209961,0.5175781,0.1210938,-0.2270508,-0.1381836,-0.08154297
3524,-81.8125,5.5,-73.875,1.291504,0.5913086,0.1635742,-0.2270508,-0.1367188,-0.08300781
3528,-64.875,9.25,-85.9375,1.213867,0.5952148,0.1171875,-0.2211914,-0.1342773,-0.08300781
3532,-42.25,13.25,-94.4375,1.333984,0.5878906,0.1635742,-0.2172852,-0.1367188,-0.07324219
3536,-21.0625,19.875,-108.9375,1.333984,0.6884766,0.1826172,-0.2138672,-0.1381836,-0.06787109
3540,-11.6875,24.8125,-118,1.322266,0.7626953,0.1674805,-0.2080078,-0.140625,-0.05859375
3544,-10.75,28.4375,-126.375,1.29541,0.8481445,0.09814453,-0.2021484,-0.1455078,-0.04492188
3548,-17.375,25.375,-131.4375,1.206055,0.8789063,0.02099609,-0.1948242,-0.1533203,-0.03369141
3552,-24.4375,19.125,-135.3125,1.209961,0.8867188,-0.005371094,-0.1875,-0.1630859,-0.01757813
3557,-29,12.1875,-141.25,1.206055,0.8710938,0.01708984,-0.1772461,-0.1831055,-0.006835938
3561,-32,8.75,-145,1.283691,0.8364258,0.05566406,-0.1708984,-0.1943359,0.002441406
3565,-36.375,9.0625,-144.1875,1.299316,0.777832,0.03271484,-0.1582031,-0.2167969,0.01074219
3569,-38,8.8125,-136,1.244629,0.7001953,-0.02832031,-0.1494141,-0.2392578,0.01171875
3573,-37.5,-0.8125,-121.8125,1.105469,0.6147461,-0.1166992,-0.1450195,-0.2529297,0.01171875
3577,-38,-19.0625,-102.375,1.02002,0.5488281,-0.1821289,-0.1376953,-0.2719727,0.006347656
3581,-35.1875,-43.75,-79.4375,0.9853516,0.4907227,-0.2089844,-0.1342773,-0.2856445,0.00390625
3585,-25.9375,-65.875,-56.25,1.074219,0.4711914,-0.2055664,-0.1352539,-0.2944336,-0.002441406
3589,-3.25,-72.6875,-46.0625,1.330078,0.5527344,-0.1435547,-0.1367188,-0.3041992,-0.009277344
3593,22.4375,-48.375,-74.5625,1.508301,0.8481445,0.04785156,-0.1391602,-0.3120117,-0.01220703
3597,37.0625,-19.5625,-116.1875,1.310547,1.034668,0.05957031,-0.1376953,-0.3178711,-0.01611328
3601,31.125,-17.3125,-151.125,1.206055,1.13916,0.08642578,-0.1352539,-0.3266602,-0.02441406
3605,-0.5625,-15.5,-165.8125,1.299316,1.120117,0.105957,-0.1269531,-0.3330078,-0.03515625
3609,-50.375,-7.3125,-156.8125,1.306641,0.9760742,0.07910156,-0.1176758,-0.3369141,-0.04052734
3613,-90.5625,0.25,-132.75,1.283691,0.7666016,0.04785156,-0.1044922,-0.3330078,-0.05957031
3617,-107.0625,8.4375,-114.1875,1.202148,0.6030273,0.005859375,-0.09716797,-0.3266602,-0.07470703
3621,-101.6875,11.8125,-109.8125,1.147949,0.5449219,0.01708984,-0.08789063,-0.3217773,-0.08300781
3625,-85.8125,25.4375,-128.75,1.252441,0.6147461,0.1098633,-0.078125,-0.3168945,-0.08837891
3629,-79,53.125,-156.125,1.155762,0.6342773,0.125,-0.06298828,-0.3105469,-0.09228516
3633,-81.3125,62.8125,-156.1875,0.9619141,0.5410156,0.02880859,-0.05419922,-0.3081055,-0.09082031
3637,-86.875,58.6875,-147.5625,0.8496094,0.5253906,0.009765625,-0.03759766,-0.3105469,-0.09082031
3641,-97.5,59.375,-138.6875,0.7797852,0.4907227,0.005859375,-0.0234375,-0.3129883,-0.09082031
3645,-106.25,57.5625,-133.125,0.7451172,0.4086914,0.02099609,-0.01855469,-0.3129883,-0.09228516
3649,-107.5,61.75,-124.5,0.59375,0.3349609,0.01708984,-0.006835938,-0.3178711,-0.09521484
3653,-103.8125,57.625,-131.4375,0.4658203,0.2070313,0.009765625,0.005859375,-0.3232422,-0.09667969
3657,-93.4375,53.75,-142.8125,0.3730469,0.1254883,0.03662109,0.01513672,-0.3266602,-0.1005859
3661,-79.9375,47.25,-153.875,0.4155273,-0.01416016,0.05566406,0.02587891,-0.3320313,-0.1074219
3665,-70.8125,52,-151.125,0.4311523,-0.06835938,0.05957031,0.04052734,-0.3330078,-0.112793
3669,-65.625,61.3125,-128.25,0.3847656,-0.1616211,0.05957031,0.05322266,-0.3354492,-0.1142578
3673,-57.625,63.375,-102.9375,0.09765625,-0.1967773,0.06347656,0.06396484,-0.3369141,-0.1225586
3677,-38.1875,49.125,-82.875,-0.02197266,-0.2353516,0.02880859,0.07226563,-0.3369141,-0.125
3681,-16.25,33.0625,-62.875,-0.03710938,-0.1694336,0.02880859,0.08056641,-0.3393555,-0.1264648
3686,3.1875,26.0625,-41.375,0.04736328,-0.006347656,0.1020508,0.08447266,-0.3408203,-0.1289063
3690,4.125,31.5,-26.1875,0.01660156,0.2070313,0.1132813,0.09033203,-0.3417969,-0.1264648
3694,-1.3125,28.0625,-12.8125,-0.1728516,0.2495117,0.105957,0.09130859,-0.3442383,-0.1264648
3698,2.25,9,-6.75,-0.2041016,0.2612305,0.1557617,0.09130859,-0.3442383,-0.125
3702,13.8125,-0.0625,-0.8125,-0.03710938,0.2573242,0.2250977,0.09375,-0.3417969,-0.1225586
3706,21.5625,2.6875,4.3125,0.06298828,0.315918,0.2788086,0.09033203,-0.3457031,-0.1235352
3710,22.0625,8.4375,14.5,0.07080078,0.3740234,0.2402344,0.09130859,-0.3442383,-0.1210938
3714,22.0625,12.5,27.0625,-0.02197266,0.4052734,0.2133789,0.09033203,-0.3442383,-0.1157227
3718,24.6875,7.25,34.5625,-0.09130859,0.4399414,0.1748047,0.08789063,-0.3442383,-0.112793
3722,33.4375,-2.4375,36.75,-0.06445313,0.4672852,0.1904297,0.08544922,-0.3457031,-0.1088867
3726,38.6875,-7.75,33.375,-0.03320313,0.5566406,0.2290039,0.08300781,-0.3442383,-0.105957
3730,34.125,-11.125,36.5,0.08642578,0.5839844,0.2675781,0.08203125,-0.3432617,-0.1020508
3734,22.25,-5.5625,43.125,0.125,0.6616211,0.2944336,0.08056641,-0.3408203,-0.09912109
3738,4.125,-5.1875,47.8125,0.07080078,0.6225586,0.2636719,0.07373047,-0.3408203,-0.09667969
3742,-2.1875,-10.3125,52.8125,0.09375,0.5253906,0.2636719,0.07226563,-0.3393555,-0.09521484
3746,-3.8125,-10.625,56.3125,0.2294922,0.4321289,0.2519531,0.06982422,-0.3344727,-0.09521484
3750,1.25,-4.6875,61.6875,0.2216797,0.4125977,0.2368164,0.06298828,-0.3291016,-0.09667969
3754,0.6875,-3.1875,66.25,0.2529297,0.4125977,0.2133789,0.06054688,-0.3291016,-0.09375
3758,-1.6875,-2.75,73,0.1870117,0.4243164,0.1674805,0.0546875,-0.3242188,-0.09521484
3762,-3.25,-12.0625,80.5625,0.2568359,0.315918,0.140625,0.04980469,-0.3178711,-0.09521484
3766,10,-14.3125,91.75,0.3847656,0.284668,0.1943359,0.04150391,-0.3120117,-0.09521484
3770,24.1875,-9.5,95.9375,0.4467773,0.3466797,0.2094727,0.03417969,-0.3081055,-0.09765625
3774,33.625,-4.8125,102.4375,0.543457,0.4594727,0.2250977,0.02832031,-0.3017578,-0.09912109
3778,29.9375,2,109.125,0.4853516,0.5644531,0.2060547,0.02148438,-0.296875,-0.1044922
3782,24.4375,-3.1875,114.25,0.4736328,0.5449219,0.1518555,0.01269531,-0.2929688,-0.1088867
3786,30.5625,-12.1875,120.875,0.5048828,0.6030273,0.1557617,0.003417969,-0.2905273,-0.1166992
3790,31,-19.75,114.4375,0.609375,0.7119141,0.2480469,-0.003417969,-0.2880859,-0.1235352
3794,19.75,-15.8125,109.375,0.8222656,0.8051758,0.3789063,-0.01171875,-0.2905273,-0.1289063
3798,-21.375,-2.5625,103.3125,1.008301,0.987793,0.5288086,-0.02490234,-0.2944336,-0.1386719
3802,-61.1875,15.8125,126.625,0.9389648,0.6694336,0.4672852,-0.02685547,-0.3007813,-0.1455078
3806,-74.6875,4,154,0.6171875,0.5214844,0.2094727,-0.04003906,-0.3041992,-0.1606445
3810,-48.875,-18.5,139.6875,0.5976563,0.4125977,0.1171875,-0.05419922,-0.3154297,-0.1674805
3815,-15.0625,-30.9375,109.4375,1.05127,0.3427734,0.2944336,-0.06396484,-0.3232422,-0.1660156
3819,16.875,-7.1875,110.25,1.314453,0.237793,0.4672852,-0.07568359,-0.3408203,-0.1577148
3823,33.4375,14.3125,133.1875,1.105469,0.4360352,0.4174805,-0.08886719,-0.3579102,-0.1386719
3827,31.3125,3.5625,139.1875,0.8183594,0.7275391,0.2250977,-0.09863281,-0.3642578,-0.1225586
3831,34.9375,-4.875,146.875,0.8769531,0.6733398,0.07519531,-0.109375,-0.3691406,-0.09375
3835,51.1875,-21.1875,136,0.8417969,0.7739258,0.08251953,-0.1162109,-0.3632813,-0.06396484
3839,69.625,-26,132.3125,0.9658203,0.9257813,0.1635742,-0.1220703,-0.3554688,-0.04638672
3843,61.25,-29.6875,116.6875,1.055176,1.217285,0.2675781,-0.1269531,-0.3408203,-0.01904297
3847,29.5,-33.625,115.0625,0.9233398,1.287109,0.2329102,-0.128418,-0.3242188,0.0009765625
3851,-8.1875,-50.5,113.4375,0.8959961,1.061523,0.1943359,-0.1303711,-0.3120117,0.01171875
3855,-7.3125,-63,116.4375,0.8613281,0.6655273,0.125,-0.1367188,-0.2905273,0.02539063
3859,40.5625,-76.1875,119.6875,0.9541016,0.4086914,0.1210938,-0.1450195,-0.2631836,0.03369141
3863,86.9375,-79.75,114.0625,1.09375,0.7158203,0.1674805,-0.1474609,-0.2407227,0.03759766
3867,93.125,-75.5,101.625,1.225586,1.045898,0.2675781,-0.1582031,-0.2080078,0.03369141
3871,62.875,-69.6875,92.0625,1.299316,1.205566,0.375,-0.1674805,-0.1757813,0.01708984
3875,43.5625,-60.3125,97.0625,1.260254,0.8364258,0.3671875,-0.1723633,-0.1621094,0.0078125
3879,57.0625,-52.0625,95.875,1.206055,0.7470703,0.3017578,-0.1791992,-0.1455078,-0.01464844
3883,86.8125,-40.4375,85.125,1.147949,0.7431641,0.1943359,-0.184082,-0.1381836,-0.03369141
3887,110.875,-35.875,69.375,1.117188,0.840332,0.1635742,-0.1889648,-0.1357422,-0.04638672
3891,114.125,-32.1875,56,1.09375,0.9956055,0.144043,-0.1923828,-0.1367188,-0.05957031
3895,96.375,-32.625,54.8125,1.140137,0.9375,0.2172852,-0.1948242,-0.1420898,-0.06933594
3899,84.625,-22.3125,61.375,1.233398,0.777832,0.2060547,-0.1962891,-0.1430664,-0.07617188
3903,87.9375,-14.0625,60.1875,1.124512,0.6538086,0.1289063,-0.199707,-0.1479492,-0.07861328
3907,98.75,-7.4375,55.3125,1.140137,0.5722656,0.09814453,-0.203125,-0.1567383,-0.08154297
3911,106.5,1.3125,50.875,1.117188,0.4985352,0.05566406,-0.2006836,-0.1582031,-0.08447266
3915,112.25,5.875,49.125,1.066406,0.4282227,-0.01660156,-0.206543,-0.1630859,-0.08691406
3919,116.875,8.3125,51.125,1.0625,0.3818359,-0.05517578,-0.2089844,-0.1694336,-0.08544922
3923,118.1875,11.5625,54.5625,1.09375,0.4125977,-0.0859375,-0.2089844,-0.1733398,-0.08447266
3927,109.875,19.25,64,1.097656,0.6577148,-0.05126953,-0.2114258,-0.1791992,-0.08007813
3931,77.4375,18.375,66.25,0.8803711,0.875,-0.1362305,-0.2172852,-0.1791992,-0.08007813
3935,31,2.3125,60,0.7568359,0.987793,-0.1435547,-0.2163086,-0.1831055,-0.07617188
3939,-12.0625,-12.375,54,0.8457031,0.9492188,-0.02832031,-0.2197266,-0.1806641,-0.07617188
3944,-39.875,-11.875,46.1875,0.9853516,0.8520508,0.05566406,-0.2236328,-0.1791992,-0.07617188
3948,-53,-4.375,32.875,0.9931641,0.7470703,0.05566406,-0.2246094,-0.1791992,-0.07617188
3952,-53.9375,0.125,22.1875,0.9814453,0.6420898,-0.005371094,-0.2270508,-0.1757813,-0.07861328
3956,-45.875,2.9375,17.9375,0.9814453,0.5878906,-0.05126953,-0.2280273,-0.1743164,-0.08007813
3960,-38.25,4.25,11.0625,0.9501953,0.7001953,-0.06298828,-0.2280273,-0.1743164,-0.08300781
3964,-34.25,4.8125,-0.375,0.9775391,0.7856445,-0.07080078,-0.2280273,-0.171875,-0.08447266
3968,-31.3125,4.5,-11.4375,0.9311523,0.8632813,-0.07470703,-0.2280273,-0.1704102,-0.08447266
3972,-36.75,4.0625,-24.0625,0.9892578,0.9956055,-0.04003906,-0.2280273,-0.1704102,-0.08837891
3976,-48.625,4.1875,-34.375,0.9116211,1.034668,-0.04394531,-0.2255859,-0.1679688,-0.09082031
3980,-62.8125,-2.3125,-47.0625,0.9389648,1.049805,-0.04003906,-0.2236328,-0.1669922,-0.09228516
3984,-74.875,-3.75,-53.125,1.008301,1.003418,-0.001464844,-0.222168,-0.1669922,-0.09375
3988,-83.125,-2.0625,-62.0625,1.05127,1.01123,-0.02050781,-0.21875,-0.1606445,-0.09228516
3992,-86.6875,-0.5625,-71.9375,0.9970703,0.9799805,-0.09375,-0.2138672,-0.1557617,-0.09521484
3996,-76.5,-7.625,-84.6875,0.9697266,0.8632813,-0.1245117,-0.2114258,-0.1542969,-0.09082031
4000,-48.625,-9.25,-96.625,0.9892578,0.7275391,-0.08984375,-0.2089844,-0.1494141,-0.08837891
4004,14.6875,-6,-100,1.066406,0.5332031,-0.02441406,-0.206543,-0.1445313,-0.07861328
4008,74.9375,1.4375,-121.125,1.121094,0.890625,0.02099609,-0.2021484,-0.1430664,-0.06933594
4012,94.0625,7.5625,-144.125,1.198242,1.271484,-0.02832031,-0.1948242,-0.1455078,-0.05273438
4016,60.3125,-0.75,-156.75,1.19043,1.531738,-0.04736328,-0.1865234,-0.1508789,-0.02978516
4020,-4.4375,-13.0625,-154,1.337891,1.559082,0.03271484,-0.1855469,-0.1533203,-0.01367188
4024,-65.9375,-16.8125,-147.5,1.411621,1.356934,0.05957031,-0.1708984,-0.1655273,0.01171875
4028,-98.0625,-13.625,-147.3125,1.46582,1.112305,0.04785156,-0.1542969,-0.1855469,0.03613281
4032,-106.6875,-4.1875,-149.875,1.523926,0.9140625,0.03662109,-0.1450195,-0.203125,0.04443359
4036,-95,4.1875,-160.5,1.450195,0.7739258,0.02880859,-0.128418,-0.2319336,0.05273438
4040,-86.3125,12.3125,-164.875,1.484863,0.7626953,0.04785156,-0.1152344,-0.2607422,0.05126953
4044,-82.9375,19.25,-158.875,1.353516,0.7119141,0.06347656,-0.1079102,-0.2792969,0.04589844
4048,-81.3125,21.6875,-153.9375,1.345703,0.777832,0.07128906,-0.1010742,-0.3032227,0.03515625
4052,-78.1875,26.4375,-153,1.268066,0.840332,0.07519531,-0.09716797,-0.3217773,0.02148438
4056,-81.25,29.6875,-159.8125,1.244629,0.90625,0.09033203,-0.09228516,-0.3369141,0.01171875
4060,-82.5625,31.8125,-164.125,1.217773,0.809082,0.07910156,-0.08642578,-0.3544922,-0.009277344
4064,-71.6875,34.0625,-170.6875,1.16748,0.6616211,0.09423828,-0.07958984,-0.3666992,-0.03808594
4068,-51.9375,39.0625,-173.625,1.155762,0.5878906,0.1210938,-0.06982422,-0.3745117,-0.05712891
4073,-39.875,42,-175.625,1.027832,0.6577148,0.1210938,-0.05664063,-0.3706055,-0.08544922
4077,-33,45.4375,-181.25,0.9970703,0.6884766,0.08251953,-0.04150391,-0.3579102,-0.1088867
4081,-22.625,41.6875,-193.125,0.8222656,0.6733398,0.009765625,-0.03076172,-0.3481445,-0.1157227
4085,-4.8125,31.6875,-211.625,0.6210938,0.6884766,-0.03613281,-0.01025391,-0.3291016,-0.1225586
4089,7.125,14.875,-226.3125,0.6328125,0.7197266,0.05175781,0.009277344,-0.3129883,-0.1166992
4093,-4.1875,7,-215.0625,0.7568359,0.7275391,0.2172852,0.01904297,-0.3066406,-0.1098633
4097,-29,13.8125,-180.5,0.7954102,0.7001953,0.2983398,0.03662109,-0.296875,-0.1005859
4101,-42.875,23.875,-157,0.6791992,0.5952148,0.2441406,0.04882813,-0.2919922,-0.08984375
4105,-31.875,26.875,-148.5,0.4853516,0.5292969,0.159668,0.05566406,-0.2905273,-0.08300781
4109,-17.4375,27.375,-146.375,0.4389648,0.6147461,0.1328125,0.06787109,-0.2919922,-0.07324219
4113,-20.1875,24.5,-145.5,0.3457031,0.7353516,0.1289063,0.07861328,-0.2929688,-0.06640625
4117,-40.75,19.0625,-136.25,0.3071289,0.7509766,0.125,0.09033203,-0.2954102,-0.06103516
4121,-59.4375,14.125,-123.1875,0.2373047,0.6225586,0.1098633,0.1020508,-0.3017578,-0.05566406
4125,-61.9375,8.75,-110.375,0.1791992,0.4750977,0.09814453,0.1103516,-0.3041992,-0.06103516
4129,-51.5625,7.5,-97.3125,0.1445313,0.4438477,0.1289063,0.1225586,-0.3081055,-0.06103516
4133,-45,5.4375,-92.0625,0.1289063,0.4985352,0.1479492,0.1293945,-0.3120117,-0.0625
4137,-45.3125,5.5625,-91.9375,0.07080078,0.4907227,0.125,0.1376953,-0.3168945,-0.06787109
4141,-50.6875,4.0625,-88.1875,0.1289063,0.4086914,0.1479492,0.1459961,-0.3178711,-0.07080078
4145,-53.25,5.5,-81.625,-0.04882813,0.300293,0.1098633,0.1557617,-0.3193359,-0.07470703
4149,-45.4375,-2.8125,-72.25,-0.03710938,0.2109375,0.125,0.1616211,-0.3208008,-0.08300781
4153,-31.375,-3.3125,-64.25,-0.05664063,0.1640625,0.1479492,0.1640625,-0.3217773,-0.08691406
4157,-15.9375,-5.875,-54,-0.06445313,0.1176758,0.1865234,0.1699219,-0.3217773,-0.09521484
4161,1.75,-1,-42.5625,-0.03710938,0.1176758,0.2329102,0.1748047,-0.3208008,-0.09667969
4165,15.0625,4.0625,-35.375,-0.09521484,0.2148438,0.2519531,0.1757813,-0.3217773,-0.09521484
4169,15.125,8.6875,-26.5,-0.08789063,0.3466797,0.2675781,0.1782227,-0.3217773,-0.09765625
4173,11.5625,6.4375,-19.6875,-0.1884766,0.3544922,0.2597656,0.1821289,-0.3217773,-0.09765625
4177,6.1875,2.5,-11.75,-0.1806641,0.3818359,0.2558594,0.1831055,-0.3208008,-0.09667969
4181,-3.75,-1.3125,0,-0.1689453,0.3974609,0.2402344,0.1831055,-0.3208008,-0.09765625
4185,-8.375,-4.1875,10.25,-0.2231445,0.3701172,0.2250977,0.184082,-0.3217773,-0.09765625
4189,-9.9375,-7.875,17.8125,-0.2270508,0.3818359,0.2290039,0.1855469,-0.3217773,-0.09765625
4193,-7.875,-10.1875,23.1875,-0.2192383,0.4013672,0.2519531,0.1806641,-0.3208008,-0.09667969
4197,-7.5,-12.5625,26.125,-0.1650391,0.4086914,0.2636719,0.1796875,-0.3217773,-0.09765625
4202,-3.375,-10.4375,27.75,-0.1030273,0.3779297,0.2827148,0.1772461,-0.3217773,-0.09765625
4206,4.1875,-6.125,33.3125,-0.09521484,0.3544922,0.2905273,0.1757813,-0.3208008,-0.09765625
4210,11.8125,-4.5,40.875,-0.1264648,0.4086914,0.2675781,0.1723633,-0.3208008,-0.09765625
4214,14.1875,-5.625,48.6875,-0.1650391,0.4750977,0.2597656,0.1674805,-0.3217773,-0.09375
4218,13.25,-10.0625,53.1875,-0.1572266,0.5410156,0.2329102,0.1630859,-0.3208008,-0.09082031
4222,17.1875,-14.5,51.5625,-0.1147461,0.5253906,0.2636719,0.1591797,-0.3208008,-0.08984375
4226,21.1875,-16.1875,52.875,0.008789063,0.5253906,0.3251953,0.1508789,-0.3208008,-0.08691406
4230,27.3125,-9.75,56.8125,0.05908203,0.5253906,0.3520508,0.1484375,-0.3178711,-0.08544922
4234,34.5,-4.5,58.375,0.04736328,0.5449219,0.3291016,0.1425781,-0.3168945,-0.07861328
4238,44.9375,-4.1875,55.3125,0.01269531,0.5253906,0.2749023,0.1376953,-0.3129883,-0.07763672
4242,64.5,-8.4375,48.9375,0.06298828,0.4125977,0.2329102,0.1308594,-0.3120117,-0.07324219
4246,100.5,-5.625,41.625,0.1328125,0.4399414,0.2133789,0.1269531,-0.3066406,-0.06542969
4250,127.75,0.75,36,0.1054688,0.6381836,0.2060547,0.1259766,-0.3032227,-0.06103516
4254,125.4375,5.9375,32.5625,0.09765625,0.8945313,0.1674805,0.1210938,-0.2983398,-0.05273438
4258,98.1875,5.5625,36,0.1328125,1.007324,0.144043,0.112793,-0.2944336,-0.04736328
4262,69.375,3.4375,52.125,0.06298828,0.9101563,0.07519531,0.1152344,-0.2880859,-0.04638672
4266,57.625,-3,66.6875,0.09375,0.7666016,0.02880859,0.1079102,-0.2856445,-0.04492188
4270,60.375,-5.4375,75.3125,0.1210938,0.7236328,0.02490234,0.1010742,-0.2832031,-0.05175781
4274,68.25,-4.5625,84.6875,0.1713867,0.7817383,0.02099609,0.09765625,-0.2841797,-0.05175781
4278,64.4375,-3.0625,87.875,0.2412109,0.9296875,0.03271484,0.09130859,-0.2841797,-0.05859375
4282,38.0625,-4.125,90.5,0.3110352,1.026855,0.005859375,0.08300781,-0.2880859,-0.06542969
4286,8.375,-5.125,107.625,0.3496094,0.8208008,0.01367188,0.07470703,-0.2919922,-0.06933594
4290,8,-8.8125,130.0625,0.2993164,0.6342773,-0.06298828,0.06884766,-0.2993164,-0.08154297
4294,20.0625,-15.3125,140.0625,0.3691406,0.7236328,-0.04003906,0.05810547,-0.3105469,-0.08544922
4298,27.9375,-19.875,140.75,0.4736328,0.7739258,0.009765625,0.04882813,-0.3193359,-0.09082031
4302,30.8125,-18.0625,135.5,0.6132813,0.8598633,0.1328125,0.0390625,-0.3354492,-0.08984375
4306,33,-4.5,149.75,0.5668945,0.8789063,0.1020508,0.02832031,-0.3520508,-0.08544922
4310,36.25,-7.75,147.625,0.4736328,1.073242,0.04052734,0.0234375,-0.3618164,-0.07617188
4314,26.125,-17.375,138.25,0.5356445,1.221191,0.03271484,0.01269531,-0.3745117,-0.0625
4318,9.375,-27.5,134.3125,0.5976563,1.154785,0.07519531,0.002441406,-0.3803711,-0.04345703
4322,9.0625,-28.5,134.9375,0.6210938,1.01123,0.06347656,-0.0009765625,-0.3803711,-0.03125
4326,32.375,-23,124.625,0.644043,1.049805,0.005859375,-0.009277344,-0.3769531,-0.01757813
4331,41.3125,-22,110.1875,0.6713867,1.182129,-0.01660156,-0.01757813,-0.3691406,0
4335,21.25,-29.0625,111.3125,0.7060547,1.251953,-0.001464844,-0.02246094,-0.3632813,0.009277344
4339,-11.625,-38.25,124.5625,0.7993164,1.100586,0.08251953,-0.02685547,-0.3520508,0.01855469
4343,-12.3125,-32.625,142.875,0.7954102,0.9453125,0.07519531,-0.03515625,-0.3378906,0.02148438
4347,9.4375,-27.3125,136.125,0.8183594,1.015137,0.03271484,-0.04248047,-0.3320313,0.02392578
4351,22.5625,-19.75,124.125,0.8261719,1.124023,-0.001464844,-0.05078125,-0.3193359,0.02685547
4355,17,-22.75,115.5,0.7875977,1.158691,-0.02050781,-0.05664063,-0.3056641,0.03076172
4359,-7.6875,-30.6875,115.75,0.8110352,1.09668,0.001953125,-0.06494141,-0.2983398,0.03222656
4363,-26.0625,-41.1875,123.5,0.8535156,0.8520508,0.02099609,-0.07128906,-0.2856445,0.02832031
4367,-7.375,-38.875,132.6875,0.9155273,0.6459961,0.04052734,-0.08398438,-0.2753906,0.02685547
4371,25.1875,-32.75,124.25,0.9462891,0.7353516,-0.001464844,-0.09130859,-0.2641602,0.02539063
4375,41.5,-29.4375,117,0.9541016,0.8012695,-0.02441406,-0.1054688,-0.2480469,0.02392578
4379,36.9375,-33.1875,113.75,0.9814453,0.875,-0.05517578,-0.1176758,-0.234375,0.02148438
4383,20,-39.1875,112.9375,0.9736328,0.8012695,-0.06689453,-0.1245117,-0.2280273,0.01708984
4387,13.125,-46.25,120.0625,0.9736328,0.5761719,-0.05908203,-0.1367188,-0.2158203,0.01074219
4391,43.6875,-49.875,120.8125,0.9038086,0.4086914,-0.1552734,-0.1494141,-0.203125,0
4395,84.9375,-61,106.9375,0.7490234,0.5878906,-0.2939453,-0.1582031,-0.1992188,-0.002441406
4399,88.6875,-93.5625,108.75,0.6171875,0.8325195,-0.4248047,-0.1665039,-0.1894531,-0.008300781
4403,41.5625,-142.125,142.375,0.7373047,0.953125,-0.4282227,-0.1772461,-0.1855469,-0.01220703
4407,-29.8125,-173.3125,184.4375,1.13623,0.9296875,-0.3129883,-0.1831055,-0.1821289,-0.01367188
4411,-76.8125,-169.5625,201.625,1.415527,0.7470703,-0.1513672,-0.1972656,-0.1743164,-0.01464844
4415,-67.375,-120.4375,173.75,1.570313,0.5566406,0.02099609,-0.2089844,-0.1645508,-0.01464844
4419,-9.5625,-70.875,121.8125,1.314453,0.4321289,-0.07470703,-0.2163086,-0.1621094,-0.01757813
4423,61.5,-47.5,71.1875,1.229492,0.4477539,-0.09765625,-0.2236328,-0.1591797,-0.01611328
4427,110.75,-24.875,41.375,1.26416,0.5371094,-0.09765625,-0.2270508,-0.1582031,-0.01464844
4431,134.4375,-0.5,29.75,1.202148,0.6420898,-0.1552734,-0.2304688,-0.1582031,-0.01464844
4435,145.6875,18.25,23.3125,1.13623,0.7705078,-0.2246094,-0.2329102,-0.1582031,-0.01367188
4439,147.4375,41.875,21.5,1.175293,0.90625,-0.1977539,-0.2363281,-0.1621094,-0.009277344
4443,135.4375,63.375,20.8125,0.9194336,1.193848,-0.4013672,-0.2363281,-0.1621094,-0.01220703
4447,99.3125,44.0625,11.25,0.59375,1.39209,-0.5053711,-0.2387695,-0.1606445,-0.01367188
4451,47.25,8.25,3.875,0.659668,1.426758,-0.4208984,-0.2402344,-0.1606445,-0.01220703
4455,-3.25,-5.6875,-4.5625,0.8999023,1.294922,-0.2514648,-0.2387695,-0.1621094,-0.01074219
4460,-44.5,1.625,-6.75,1.008301,1.150879,-0.1977539,-0.237793,-0.1606445,-0.01074219
4464,-76.8125,8.6875,-10.875,1.004395,1.061523,-0.1899414,-0.2387695,-0.1606445,-0.01464844
4468,-95.6875,12.6875,-16.25,1.031738,0.956543,-0.2167969,-0.237793,-0.1591797,-0.01464844
4472,-106.8125,19.125,-29.1875,1.082031,0.9995117,-0.1860352,-0.234375,-0.1567383,-0.01904297
4476,-121.625,25.4375,-45.9375,1.105469,1.015137,-0.1782227,-0.2329102,-0.1557617,-0.02294922
4480,-138.9375,29.4375,-51.9375,1.074219,0.9956055,-0.2436523,-0.2294922,-0.1567383,-0.02832031
4484,-157.25,26.125,-48.875,0.9931641,0.956543,-0.2978516,-0.2246094,-0.1542969,-0.02832031
4488,-161,17,-47.625,1.035645,0.8012695,-0.3051758,-0.2211914,-0.1508789,-0.03125
4492,-140.4375,17.8125,-53.75,1.109375,0.7353516,-0.2207031,-0.2163086,-0.1479492,-0.02978516
4496,-118.125,21.1875,-60.8125,1.179199,0.855957,-0.1362305,-0.2114258,-0.1494141,-0.02734375
4500,-115.9375,30,-71.25,1.260254,1.092773,-0.02441406,-0.2021484,-0.1518555,-0.02050781
4504,-131.125,37.75,-79.5,1.260254,1.158691,-0.04736328,-0.1948242,-0.1557617,-0.01757813
4508,-143.9375,40,-81.625,1.241211,1.081055,-0.07470703,-0.1831055,-0.1669922,-0.01074219
4512,-143.875,42.0625,-85.125,1.283691,0.9760742,-0.06298828,-0.1699219,-0.1806641,-0.005371094
4516,-132.4375,51,-95.5625,1.349609,0.9335938,-0.01318359,-0.1601563,-0.1933594,-0.002441406
4520,-117.9375,63.1875,-107.3125,1.380371,0.8945313,0.009765625,-0.1450195,-0.2119141,-0.005371094
4524,-104.625,70.6875,-116.6875,1.39209,0.8828125,0.04052734,-0.1328125,-0.2358398,-0.01074219
4528,-93.375,79.5,-124.0625,1.395996,0.9101563,0.04443359,-0.1235352,-0.2480469,-0.01367188
4532,-85,85.9375,-132.375,1.384277,0.9296875,0.04052734,-0.1103516,-0.2670898,-0.02294922
4536,-81.1875,91.5,-140.5,1.388184,0.9643555,0.01367188,-0.1030273,-0.2856445,-0.03662109
4540,-84.75,93.125,-147.375,1.341797,0.956543,-0.005371094,-0.1030273,-0.2954102,-0.04345703
4544,-89.75,91.625,-146.0625,1.29541,0.8828125,-0.005371094,-0.09716797,-0.3105469,-0.05957031
4548,-92.0625,90.3125,-142.0625,1.302734,0.8286133,0.01367188,-0.09228516,-0.3242188,-0.07763672
4552,-94,91.3125,-138.5,1.268066,0.8168945,0.02099609,-0.09375,-0.3320313,-0.09375
4556,-95.875,90.0625,-136,1.252441,0.7895508,0.03271484,-0.09033203,-0.3344727,-0.1166992
4560,-99.375,92.9375,-134.875,1.26416,0.793457,0.04785156,-0.08544922,-0.3320313,-0.144043
4564,-101.8125,100.125,-137.3125,1.175293,0.7119141,0.01367188,-0.07958984,-0.3242188,-0.1630859
4568,-94.625,100.75,-140.8125,1.070313,0.5839844,-0.01318359,-0.06982422,-0.3056641,-0.1806641
4572,-79.8125,100.4375,-142,1.012207,0.5136719,-0.005371094,-0.05908203,-0.2880859,-0.1918945
4576,-66,98.375,-141.75,0.9389648,0.4946289,0.01367188,-0.04492188,-0.2783203,-0.1943359
4580,-63,96.3125,-135.625,0.8881836,0.5566406,0.05566406,-0.02832031,-0.265625,-0.1904297
4584,-67.0625,94.5,-126.4375,0.7529297,0.5175781,0.04443359,-0.01171875,-0.2592773,-0.1850586
4589,-63.75,87.9375,-117.875,0.644043,0.4594727,0.06347656,0,-0.2583008,-0.1806641
4593,-53.8125,83.25,-112.3125,0.59375,0.4438477,0.105957,0.01513672,-0.2592773,-0.175293
4597,-37.75,82.375,-115.5,0.59375,0.5136719,0.1557617,0.02978516,-0.2631836,-0.168457
4601,-31.5625,82.875,-119.625,0.543457,0.5761719,0.1982422,0.03808594,-0.265625,-0.1645508
4605,-2.75,89.875,-113.3125,0.2607422,0.2070313,0.2827148,0.05078125,-0.2729492,-0.1606445
4609,93.4375,98.1875,-118,0.03564453,0.3857422,0.1713867,0.06542969,-0.2807617,-0.1523438
4613,131.125,80.75,-145.5625,0.1831055,1.038574,0.2133789,0.07226563,-0.2895508,-0.144043
4617,95.75,69.125,-144.875,0.3847656,1.372559,0.3945313,0.09033203,-0.2993164,-0.1333008
4621,13.5,55.0625,-126.25,0.3652344,1.469727,0.4790039,0.1020508,-0.3066406,-0.1279297
4625,-65.625,52.625,-102.625,0.2758789,1.189941,0.3979492,0.1103516,-0.3095703,-0.1279297
4629,-107.125,42.1875,-96.625,0.159668,0.8632813,0.1748047,0.1210938,-0.3129883,-0.1347656
4633,-91.625,35.6875,-102.1875,0.1210938,0.300293,0.1020508,0.1293945,-0.3129883,-0.1494141
4637,-41.1875,29.125,-122.25,0.1328125,0.04394531,0.1171875,0.1367188,-0.3129883,-0.15625
4641,-13.375,24.5625,-128,0.175293,0.02441406,0.2060547,0.1474609,-0.3129883,-0.1630859
4645,-22.1875,19.9375,-113.25,0.2646484,-0.08007813,0.2329102,0.1567383,-0.3081055,-0.1713867
4649,-32.5625,26.5625,-72.375,0.2451172,-0.3754883,0.2094727,0.1640625,-0.3066406,-0.1738281
4653,-17.9375,31.125,-34.75,0.09033203,-0.4726563,0.1210938,0.1699219,-0.3041992,-0.1806641
4657,8.125,32.375,-18.125,-0.09912109,-0.2587891,0.09423828,0.1723633,-0.3041992,-0.1796875
4661,26.5625,23.4375,-19.75,-0.2270508,0.05517578,0.09814453,0.1738281,-0.3066406,-0.1782227
4665,17,10,-25.8125,-0.1342773,0.3232422,0.2558594,0.1772461,-0.3081055,-0.1782227
4669,-7.75,13.125,-28.125,-0.02587891,0.3427734,0.3945313,0.1782227,-0.3056641,-0.1782227
4673,-30.3125,18.8125,-19.625,-0.1030273,0.2807617,0.3481445,0.1772461,-0.3056641,-0.1782227
4677,-38.6875,14.625,-7.75,-0.2426758,0.09423828,0.2480469,0.1806641,-0.3032227,-0.1796875
4681,-30.375,4.4375,1.75,-0.262207,-0.03369141,0.2133789,0.1821289,-0.3007813,-0.1835938
4685,-17.5625,-0.625,16.5,-0.1420898,-0.05273438,0.2827148,0.1806641,-0.3007813,-0.1850586
4689,-0.4375,2.375,27.125,-0.1381836,-0.01025391,0.2944336,0.1796875,-0.3007813,-0.1850586
4693,14.5625,3.125,35,-0.1420898,0.121582,0.3095703,0.1796875,-0.3032227,-0.1835938
4697,22.3125,5,42.375,-0.1806641,0.253418,0.3173828,0.1757813,-0.3041992,-0.1796875
4701,23.875,3.5625,45.0625,-0.1533203,0.3935547,0.340332,0.1748047,-0.3081055,-0.1767578
4705,24.25,0.6875,42.9375,-0.1884766,0.4013672,0.3212891,0.1713867,-0.3095703,-0.1699219
4709,20.1875,-6.625,46.125,-0.1069336,0.3544922,0.3212891,0.1713867,-0.3095703,-0.1660156
4713,13.75,-8.4375,59.6875,0.01660156,0.300293,0.3212891,0.1689453,-0.3129883,-0.1630859
4718,12.0625,-4.75,76.5,-0.03710938,0.300293,0.2944336,0.1630859,-0.3129883,-0.1577148
4722,7.75,-10.75,84.3125,-0.06835938,0.3896484,0.2675781,0.1582031,-0.3144531,-0.1547852
4726,10.625,-18.875,85.4375,-0.04882813,0.3662109,0.2749023,0.1523438,-0.3144531,-0.1494141
4730,24.3125,-26,86,0.05517578,0.3388672,0.355957,0.144043,-0.3144531,-0.1425781
4734,38.125,-24.9375,88.625,0.1674805,0.4399414,0.4443359,0.1367188,-0.3144531,-0.1401367
4738,38.375,-19,100.75,0.2758789,0.5332031,0.5136719,0.1308594,-0.3144531,-0.1333008
4742,29.5,-9.75,114.375,0.2685547,0.6186523,0.4980469,0.1210938,-0.3129883,-0.1279297
4746,22.375,-4.875,120.4375,0.2607422,0.5952148,0.4560547,0.1118164,-0.3095703,-0.1210938
4750,19.25,-3.8125,122.5625,0.2836914,0.5488281,0.355957,0.1020508,-0.3056641,-0.1166992
4754,32.6875,-7.75,129.25,0.3149414,0.4282227,0.2827148,0.09130859,-0.2983398,-0.1142578
4758,50.625,-11.9375,131.25,0.3769531,0.4868164,0.2558594,0.08544922,-0.2954102,-0.1098633
4762,53.25,-13.8125,139.875,0.4311523,0.5952148,0.2133789,0.07226563,-0.2880859,-0.1098633
4766,38.5,-15.375,153.5625,0.4814453,0.6264648,0.1865234,0.05810547,-0.2792969,-0.1098633
4770,23.125,-15.8125,169.0625,0.5512695,0.6186523,0.1557617,0.0546875,-0.2768555,-0.1142578
4774,18.3125,-15.8125,182.4375,0.5551758,0.5253906,0.1289063,0.04052734,-0.2680664,-0.1225586
4778,33.375,-15.5,193.625,0.6713867,0.4516602,0.1098633,0.0234375,-0.2617188,-0.1347656
4782,55.3125,-15.6875,195.6875,0.7412109,0.5136719,0.1098633,0.01904297,-0.2617188,-0.144043
4786,64.125,-15.125,196,0.8110352,0.7236328,0.1289063,0.002441406,-0.2631836,-0.1591797
4790,55.625,-17.6875,195.6875,0.8613281,0.7817383,0.1210938,-0.01416016,-0.2792969,-0.1782227
4794,48.6875,-21.9375,191.375,0.9077148,0.7973633,0.125,-0.02929688,-0.2954102,-0.1835938
4798,47.25,-22.25,190.8125,0.9311523,0.7817383,0.1210938,-0.04980469,-0.3291016,-0.1875
4802,47.8125,-30.5,185.5,0.8803711,0.824707,0.09033203,-0.07324219,-0.3657227,-0.168457
4806,45.8125,-43.625,175.25,0.8652344,0.9140625,0.06738281,-0.09228516,-0.3833008,-0.1469727
4810,35.5625,-65.4375,165,0.9077148,0.8598633,0.05175781,-0.1079102,-0.3955078,-0.1005859
4814,27.6875,-77.5,161.125,1.179199,0.7197266,0.1635742,-0.1162109,-0.3881836,-0.05957031
4818,44.5,-70.6875,174.3125,1.229492,0.5913086,0.1748047,-0.1176758,-0.3754883,-0.03955078
4822,61.5625,-72.0625,173.4375,1.124512,0.7353516,0.1171875,-0.1210938,-0.3530273,-0.01367188
4826,63.1875,-82,165.4375,1.144043,0.875,0.1020508,-0.1201172,-0.3305664,0.004882813
4830,52.375,-90.4375,153.125,1.22168,0.8364258,0.1479492,-0.1176758,-0.3154297,0.01855469
4834,40,-93.125,162.125,1.48877,0.4750977,0.2905273,-0.1162109,-0.2954102,0.03076172
4838,66.8125,-69.375,191.5625,1.574219,0.5952148,0.2827148,-0.1220703,-0.2695313,0.04296875
4842,69.875,-59.0625,183.125,1.42334,0.8520508,0.2133789,-0.1235352,-0.2504883,0.05126953
4847,53.5,-58.3125,174.9375,1.345703,0.9956055,0.1367188,-0.1367188,-0.2128906,0.05273438
4851,28.375,-63.5,160.3125,1.271973,0.8945313,0.1020508,-0.1533203,-0.1791992,0.04296875
4855,5.9375,-69.0625,154.625,1.376465,0.4790039,0.1171875,-0.1650391,-0.1567383,0.03515625
4859,39.125,-62.3125,164.0625,1.426758,0.05517578,0.001953125,-0.1806641,-0.1279297,0.01464844
4863,90.8125,-63.0625,155.75,1.353516,0.2070313,-0.06689453,-0.1923828,-0.1083984,-0.009277344
4867,116.375,-67.9375,146.8125,1.388184,0.3740234,-0.07861328,-0.2006836,-0.09814453,-0.02587891
4871,110.0625,-59.875,137,1.523926,0.6884766,-0.01318359,-0.2114258,-0.09423828,-0.04492188
4875,76.5625,-49.3125,136.9375,1.39209,0.8364258,-0.01660156,-0.21875,-0.09716797,-0.05859375
4879,26.0625,-56.5,151.125,1.16748,0.8789063,-0.01318359,-0.2246094,-0.09716797,-0.06396484
4883,-26,-72.0625,175.3125,1.144043,0.8442383,-0.1245117,-0.2319336,-0.09570313,-0.07080078
4887,-68.4375,-104.0625,201.375,1.066406,0.5952148,-0.1977539,-0.2426758,-0.09082031,-0.07080078
4891,-71.9375,-131.0625,216.1875,1.411621,0.21875,-0.1166992,-0.2446289,-0.08447266,-0.06787109
4895,5.5,-81.9375,162,2.03125,0.1176758,0.3637695,-0.2578125,-0.07421875,-0.05957031
4899,71.5625,-13.4375,85.5,1.550781,0.5292969,0.2094727,-0.2617188,-0.06835938,-0.05957031
4903,74.6875,-7.375,50.375,1.291504,0.8828125,0.1020508,-0.2636719,-0.06933594,-0.05566406
4907,33.625,-3.125,43.3125,1.229492,0.8945313,-0.001464844,-0.2675781,-0.06689453,-0.05712891
4911,-2.5,-4.25,46.125,1.163574,0.7314453,-0.02050781,-0.2700195,-0.06591797,-0.05712891
4915,-28.9375,-2.0625,35.9375,1.206055,0.7236328,0.009765625,-0.2685547,-0.06201172,-0.05566406
4919,-14.75,1.5,2.6875,1.202148,0.4052734,-0.07470703,-0.2709961,-0.05957031,-0.05712891
4923,-10.6875,8.875,-1.0625,1.229492,0.15625,-0.05908203,-0.2675781,-0.06054688,-0.05566406
4927,-7.375,10.375,8.1875,1.225586,0.2495117,-0.05908203,-0.2700195,-0.05957031,-0.05859375
4931,-19.25,13.6875,7.1875,1.113281,0.5253906,-0.06298828,-0.2685547,-0.05712891,-0.05859375
4935,-37.1875,17.875,-15.6875,1.237305,0.5761719,0.02880859,-0.2661133,-0.05566406,-0.05859375
4939,-56.3125,31.9375,-31.625,1.302734,0.5683594,0.08642578,-0.2661133,-0.0546875,-0.06103516
4943,-74.5625,46.6875,-49.375,1.361328,0.5722656,0.1020508,-0.2651367,-0.05322266,-0.06396484
4947,-91.875,62.25,-64.3125,1.368652,0.6108398,0.01708984,-0.2592773,-0.0546875,-0.06787109
4951,-108.0625,69.3125,-70.5,1.349609,0.5683594,-0.03613281,-0.2543945,-0.05322266,-0.07080078
4955,-118.1875,71.5,-74.4375,1.357422,0.5019531,-0.04394531,-0.2495117,-0.05078125,-0.07177734
4959,-113.1875,73.5,-87.5625,1.403809,0.4321289,-0.03222656,-0.2426758,-0.04931641,-0.07324219
4963,-99.75,77.375,-101.625,1.419434,0.4204102,-0.05126953,-0.2363281,-0.04931641,-0.06933594
4967,-85.75,73.6875,-115.5,1.430664,0.4399414,-0.005371094,-0.2294922,-0.04931641,-0.06396484
4971,-78.125,75.5625,-130.0625,1.535645,0.5253906,0.06738281,-0.21875,-0.05322266,-0.05273438
4976,-87.1875,84.4375,-136.6875,1.558594,0.6420898,0.09423828,-0.215332,-0.05957031,-0.04199219
4980,-106.8125,90.4375,-142.125,1.585938,0.6845703,0.140625,-0.206543,-0.07568359,-0.02441406
4984,-119.8125,96.75,-150.375,1.63623,0.6811523,0.1171875,-0.1962891,-0.1020508,-0.008300781
4988,-121.625,104.5,-160.5625,1.616699,0.5214844,0.08251953,-0.1899414,-0.1230469,-0.002441406
4992,-122.5,111.5,-163.9375,1.620605,0.4516602,0.07519531,-0.1782227,-0.1630859,-0.00390625
4996,-125.0625,117.125,-161.625,1.616699,0.4013672,0.05957031,-0.1674805,-0.1992188,-0.008300781
5000,-126.375,120.0625,-151.8125,1.566406,0.3193359,0.03271484,-0.1650391,-0.2158203,-0.02587891
5004,-123.875,120.0625,-141.6875,1.442383,0.2729492,-0.01660156,-0.1601563,-0.2382813,-0.04492188
5008,-104.3125,111.0625,-141.3125,1.341797,0.2148438,-0.001464844,-0.1601563,-0.2543945,-0.06396484
5012,-78.5625,105.3125,-152.4375,1.318359,0.2070313,0.07128906,-0.1567383,-0.2631836,-0.08007813
5016,-58.1875,101.5625,-160.875,1.388184,0.284668,0.1982422,-0.1591797,-0.2768555,-0.09765625
5020,-58.4375,105.4375,-158.1875,1.399902,0.3544922,0.2709961,-0.1567383,-0.2880859,-0.1210938
5024,-66.5,106.8125,-147.125,1.345703,0.3857422,0.2827148,-0.1518555,-0.2929688,-0.137207
5028,-70.75,107.875,-133.3125,1.275879,0.2573242,0.2636719,-0.1474609,-0.2944336,-0.1660156
5032,-63,106.625,-126.3125,1.209961,0.2612305,0.2749023,-0.1391602,-0.2856445,-0.1928711
5036,-52.9375,106,-122.5625,1.144043,0.284668,0.3017578,-0.1303711,-0.2783203,-0.206543
5040,-35.8125,104.0625,-122.3125,1.101563,0.237793,0.3364258,-0.1162109,-0.2617188,-0.2255859
5044,-19.3125,105.6875,-126.75,1.121094,0.2768555,0.3789063,-0.1010742,-0.2470703,-0.2353516
5048,-7.875,109.625,-127.4375,1.047363,0.3310547,0.390625,-0.08886719,-0.2382813,-0.2353516
5052,-11.75,107.8125,-124.0625,0.9194336,0.3857422,0.355957,-0.07226563,-0.2294922,-0.2270508
5056,-12.6875,99.625,-119.9375,0.7836914,0.300293,0.3364258,-0.05566406,-0.2246094,-0.21875
5060,-4,88.25,-119.625,0.7993164,0.2651367,0.4135742,-0.04589844,-0.2255859,-0.2119141
5064,3.625,85.5625,-115.375,0.8881836,0.2651367,0.5288086,-0.03417969,-0.2304688,-0.2055664
5068,-3.25,94.0625,-112.25,0.9389648,0.3662109,0.625,-0.02001953,-0.2358398,-0.1928711
5072,-7.25,102.1875,-109.5625,0.8222656,0.2807617,0.5751953,-0.01269531,-0.2407227,-0.1875
5076,4.4375,102.375,-113.6875,0.7099609,0.2109375,0.4829102,-0.001953125,-0.2504883,-0.1806641
5080,17.25,102.125,-112,0.7021484,0.1953125,0.4672852,0.01171875,-0.2617188,-0.175293
5084,15.125,104.9375,-101.5625,0.6289063,0.2885742,0.4287109,0.02148438,-0.2695313,-0.1728516
5088,3.5,104.8125,-86.875,0.4931641,0.3466797,0.3442383,0.03173828,-0.2817383,-0.1674805
5092,-9.5,98.4375,-78.4375,0.2758789,0.3935547,0.1865234,0.04052734,-0.2929688,-0.1660156
5096,-19.5625,82,-77.625,0.1367188,0.3857422,0.06738281,0.05078125,-0.2983398,-0.1674805
5100,-21.125,63.375,-73.3125,0.08642578,0.1914063,0.02490234,0.05957031,-0.3081055,-0.168457
5105,-11.6875,51.1875,-68.875,0.1015625,0.06689453,0.07128906,0.06542969,-0.3129883,-0.1728516
5109,1.6875,49,-66.1875,0.1367188,0.05908203,0.1210938,0.07226563,-0.3208008,-0.1728516
5113,9,46.875,-58.3125,0.03564453,0.05126953,0.105957,0.07958984,-0.3208008,-0.1767578
5117,15.75,39.1875,-48.9375,-0.05273438,0.03613281,0.07128906,0.08544922,-0.3256836,-0.1782227
5121,28.3125,31.375,-38.8125,-0.09130859,0.004882813,0.07910156,0.08789063,-0.3305664,-0.1782227
5125,41.8125,23.0625,-35.8125,-0.1030273,0.08251953,0.105957,0.09277344,-0.3330078,-0.1782227
5129,47.125,15.375,-31.25,-0.1147461,0.1445313,0.1289063,0.09619141,-0.3369141,-0.175293
5133,48.625,8.9375,-23.1875,-0.06445313,0.1523438,0.2060547,0.09619141,-0.3393555,-0.1728516
5137,49.4375,9.8125,-19.0625,-0.02197266,0.2226563,0.2709961,0.09765625,-0.3408203,-0.1699219
5141,44.8125,11.625,-12.1875,-0.03710938,0.2148438,0.2402344,0.09960938,-0.3432617,-0.1630859
5145,41.625,8.625,0,-0.09521484,0.1796875,0.1943359,0.1020508,-0.3457031,-0.1591797
5149,44.8125,1.5625,9.75,-0.09912109,0.140625,0.1518555,0.1020508,-0.3481445,-0.1538086
5153,50.375,-4.4375,18.75,-0.1342773,0.203125,0.1098633,0.1010742,-0.3491211,-0.1484375
5157,50,-14.25,29.0625,-0.1264648,0.2299805,0.1132813,0.1020508,-0.3491211,-0.1416016
5161,44.25,-24.5,38.1875,-0.05273438,0.2924805,0.1674805,0.09863281,-0.3481445,-0.1347656
5165,45.5625,-25.75,46.4375,0.04345703,0.2495117,0.2290039,0.09521484,-0.3491211,-0.125
5169,52.8125,-27.5,49.5,0.05908203,0.3310547,0.2749023,0.09375,-0.3457031,-0.1225586
5173,56.75,-24.0625,47.75,0.159668,0.4052734,0.3056641,0.08789063,-0.3442383,-0.1113281
5177,53.5625,-21.75,47.375,0.140625,0.4438477,0.2944336,0.08447266,-0.3378906,-0.1044922
5181,46.1875,-25.25,55.25,0.125,0.4013672,0.2402344,0.07861328,-0.3344727,-0.1020508
5185,42.5,-31.375,69.0625,0.1445313,0.3701172,0.2133789,0.07226563,-0.328125,-0.09375
5189,42.5625,-38.5,79,0.190918,0.4243164,0.2172852,0.06640625,-0.3193359,-0.09082031
5193,36.375,-40.875,84.375,0.2724609,0.5605469,0.2519531,0.05810547,-0.3105469,-0.08837891
5197,23.9375,-44.5625,89.75,0.3378906,0.5913086,0.2558594,0.05078125,-0.3017578,-0.08691406
5201,20.5,-46.125,92.875,0.3378906,0.5566406,0.2709961,0.04150391,-0.2895508,-0.08984375
5205,35.75,-46.875,89.9375,0.4272461,0.4672852,0.2983398,0.03662109,-0.2832031,-0.09521484
5209,57.1875,-43.8125,84.875,0.4541016,0.5488281,0.3017578,0.02734375,-0.2729492,-0.1020508
5213,61.75,-42.9375,86,0.559082,0.6577148,0.3212891,0.02148438,-0.265625,-0.1088867
5217,48.6875,-40.25,93.9375,0.6289063,0.7431641,0.3056641,0.01904297,-0.2607422,-0.1142578
5221,35.625,-38.5625,109.5625,0.5512695,0.6962891,0.2480469,0.009277344,-0.2568359,-0.1264648
5225,45.75,-50.3125,113.0625,0.5087891,0.5605469,0.2172852,0,-0.2583008,-0.1416016
5229,75.875,-55.125,112.8125,0.6635742,0.5913086,0.2480469,-0.005859375,-0.2617188,-0.1523438
5234,90.8125,-54.5625,110.125,0.7836914,0.7626953,0.3056641,-0.01855469,-0.2744141,-0.1645508
5238,74.125,-53.75,123.3125,0.8920898,0.9023438,0.3291016,-0.03515625,-0.296875,-0.1728516
5242,46.625,-54.875,153.125,0.9077148,0.8598633,0.2983398,-0.04736328,-0.3120117,-0.175293
5246,28.0625,-52.0625,177.1875,0.8652344,0.7626953,0.2250977,-0.06884766,-0.3393555,-0.168457
5250,36,-49.875,170.6875,0.8457031,0.6845703,0.1479492,-0.08789063,-0.3632813,-0.1523438
5254,58.9375,-45.5625,147.6875,0.9077148,0.6147461,0.09814453,-0.1044922,-0.3754883,-0.1318359
5258,76.75,-44.5,131.125,0.9462891,0.6694336,0.125,-0.1137695,-0.3891602,-0.09667969
5262,71.4375,-39.1875,130.6875,1.066406,0.777832,0.1674805,-0.1220703,-0.3881836,-0.05712891
5266,50.875,-33.4375,141.4375,1.082031,0.8671875,0.1748047,-0.1245117,-0.3818359,-0.03515625
5270,34.8125,-33.5,151.4375,0.9775391,0.8168945,0.1098633,-0.1269531,-0.3657227,-0.009277344
