Packet number,Gyroscope X (deg/s),Gyroscope Y (deg/s),Gyroscope Z (deg/s),Accelerometer X (g),Accelerometer Y (g),Accelerometer Z (g),Magnetometer X (G),Magnetometer Y (G),Magnetometer Z (G)
1,78.75,-64.375,-120,-1.567871,0.1137695,-0.02050781,0.2460938,-0.1118164,-0.07177734
5,77.0625,-71,-125.3125,-1.599121,0.3081055,0.05175781,0.2460938,-0.1030273,-0.06933594
9,63.4375,-72.3125,-142.4375,-1.599121,0.2963867,0.1020508,0.2460938,-0.09570313,-0.06933594
13,50.3125,-75.8125,-152.0625,-1.67627,0.3081055,0.06738281,0.2460938,-0.08837891,-0.06396484
17,39.25,-65.375,-158.1875,-1.62207,0.21875,0.1289063,0.2475586,-0.07421875,-0.0625
21,27.375,-52.9375,-166.125,-1.785156,0.253418,0.144043,0.2509766,-0.06201172,-0.05859375
25,13.8125,-49.6875,-171.5625,-1.843262,0.21875,0.2021484,0.253418,-0.04931641,-0.05566406
29,6.25,-46.25,-180.25,-1.912598,0.1333008,0.2519531,0.2543945,-0.03173828,-0.05273438
33,3.75,-45.625,-191.8125,-2.040527,0.1176758,0.2709961,0.2583008,-0.01074219,-0.05419922
37,3.5625,-54.125,-208.1875,-2.149414,0.15625,0.2290039,0.2617188,0,-0.05712891
41,11.5625,-66.8125,-228.5,-2.063965,0.1098633,0.2021484,0.2602539,0.02490234,-0.05859375
46,27.625,-75.9375,-236.875,-2.017578,0.2299805,0.2211914,0.2592773,0.04882813,-0.06542969
50,33.75,-87.25,-242.25,-1.955566,0.3623047,0.2368164,0.2568359,0.0625,-0.07617188
54,39,-100.875,-243.75,-1.905273,0.4360352,0.2480469,0.2485352,0.08251953,-0.09082031
58,45.625,-117.1875,-246.875,-1.777344,0.4829102,0.2172852,0.237793,0.1025391,-0.1020508
62,50.5,-127.25,-245.875,-1.625977,0.5488281,0.1943359,0.2260742,0.1137695,-0.1113281
66,55.25,-138.4375,-243.25,-1.505859,0.6342773,0.1674805,0.2104492,0.1274414,-0.125
70,55.9375,-149.6875,-233.625,-1.370117,0.6845703,0.1518555,0.1914063,0.1401367,-0.1333008
74,54,-158.9375,-215.8125,-1.125977,0.7001953,0.1367188,0.1782227,0.1499023,-0.1386719
78,47,-155.125,-203.625,-0.9750977,0.7353516,0.1171875,0.1630859,0.1601563,-0.1455078
82,33.4375,-152.6875,-191.375,-0.78125,0.7197266,0.06347656,0.1484375,0.1699219,-0.1484375
86,17.875,-139.375,-180.3125,-0.5488281,0.6884766,0.04785156,0.1391602,0.1772461,-0.1538086
90,1.25,-125.6875,-162.5,-0.4443359,0.6030273,0.04052734,0.125,0.1899414,-0.1577148
94,-10.125,-112.6875,-142.5,-0.3935547,0.4594727,0.06738281,0.1166992,0.2026367,-0.1606445
98,-17.875,-105.4375,-127.25,-0.3432617,0.284668,0.05175781,0.1103516,0.2075195,-0.1616211
102,-17.9375,-96.5625,-116.125,-0.230957,0.1757813,0.02490234,0.09960938,0.21875,-0.1660156
106,-20,-82.5,-103,-0.1303711,0.1137695,0.01708984,0.09277344,0.2275391,-0.1645508
110,-19.25,-74.875,-92.3125,-0.1767578,0.04736328,0.04785156,0.08544922,0.2314453,-0.1699219
114,-14.5625,-77.25,-80.8125,-0.1459961,-0.002441406,0.02880859,0.07958984,0.2387695,-0.1713867
118,-10.125,-75.0625,-71.4375,-0.06054688,-0.08398438,0.02099609,0.07128906,0.2451172,-0.175293
122,-9.4375,-66.3125,-61.8125,0.06689453,-0.09960938,-0.005371094,0.06640625,0.2460938,-0.1767578
126,-6.625,-52.5,-57,0.1132813,-0.1459961,0.02880859,0.06054688,0.2509766,-0.1806641
130,-0.3125,-47.3125,-45.3125,0.04345703,-0.1420898,0.06738281,0.0546875,0.2524414,-0.1821289
134,5.125,-47.125,-29.8125,0.05126953,-0.1499023,0.1479492,0.05322266,0.2563477,-0.1850586
138,3.4375,-42.5,-20.1875,0.09375,-0.1811523,0.1557617,0.04736328,0.2563477,-0.1875
142,-1.3125,-34.625,-16.5,0.140625,-0.2241211,0.1826172,0.04394531,0.2548828,-0.1875
146,-5.3125,-22.5,-8.125,0.1635742,-0.2783203,0.2021484,0.04248047,0.2573242,-0.1865234
150,-5,-12.1875,2.3125,0.09375,-0.2978516,0.2558594,0.04248047,0.2573242,-0.1875
154,-8.1875,-3.75,11.6875,0.09765625,-0.3173828,0.2709961,0.04150391,0.2587891,-0.1875
158,-11.0625,6.0625,18.4375,0.01660156,-0.3481445,0.3251953,0.04248047,0.2587891,-0.1865234
162,-15.125,8.125,25.8125,-0.002441406,-0.4101563,0.3291016,0.04492188,0.2597656,-0.1850586
166,-12.1875,13.25,28.9375,-0.04101563,-0.5268555,0.3364258,0.04736328,0.2597656,-0.1835938
170,-8.5,16.375,36.75,-0.1420898,-0.8339844,0.3442383,0.04980469,0.2587891,-0.1821289
175,-3.25,21.8125,31,-0.1225586,-0.5268555,0.3828125,0.0546875,0.2573242,-0.1806641
179,-6.1875,25.875,32.9375,-0.1533203,-0.5463867,0.4174805,0.05810547,0.2573242,-0.1767578
183,-4.25,28.75,34.4375,-0.2001953,-0.581543,0.4560547,0.05957031,0.2548828,-0.1767578
187,-0.5,26.375,36.5,-0.2700195,-0.5581055,0.4750977,0.06396484,0.2539063,-0.175293
191,1.0625,22.3125,34.75,-0.2700195,-0.5737305,0.4790039,0.06640625,0.2524414,-0.1738281
195,9.0625,17.875,37.75,-0.3085938,-0.5893555,0.4868164,0.06787109,0.2509766,-0.1728516
199,16.875,15.375,40.375,-0.2700195,-0.5268555,0.4868164,0.06982422,0.2485352,-0.1728516
203,15.875,18.5,43.375,-0.2270508,-0.4492188,0.4941406,0.07470703,0.2451172,-0.1728516
207,11.5625,20.9375,46.875,-0.2700195,-0.3911133,0.5019531,0.07714844,0.2451172,-0.168457
211,8.6875,20.9375,50.4375,-0.2773438,-0.3833008,0.4829102,0.08056641,0.2426758,-0.1674805
215,7.5625,18.375,54.4375,-0.3203125,-0.324707,0.4404297,0.08544922,0.2397461,-0.1660156
219,7.125,17.8125,59.625,-0.3046875,-0.3676758,0.4443359,0.08691406,0.2373047,-0.1645508
223,5.5,23.25,64.5625,-0.2890625,-0.3520508,0.425293,0.09130859,0.2324219,-0.1616211
227,1.3125,31.1875,70.3125,-0.3203125,-0.3442383,0.3979492,0.09521484,0.2299805,-0.1606445
231,-4.25,39,74.25,-0.3823242,-0.3364258,0.4213867,0.09960938,0.2250977,-0.15625
235,-10.1875,41.5625,72.9375,-0.4711914,-0.3754883,0.390625,0.1044922,0.2197266,-0.1523438
239,-2.125,35.4375,73.125,-0.5410156,-0.4570313,0.375,0.109375,0.2138672,-0.1494141
243,14.4375,27.375,78.4375,-0.5449219,-0.4296875,0.3637695,0.1118164,0.2114258,-0.1508789
247,19.375,29.75,85.25,-0.4790039,-0.3325195,0.3671875,0.1152344,0.2026367,-0.1494141
251,12.4375,38.75,85.125,-0.5024414,-0.2978516,0.390625,0.1201172,0.1948242,-0.1508789
255,6.9375,44.6875,85.6875,-0.5722656,-0.2900391,0.4057617,0.1225586,0.1914063,-0.1484375
259,5.1875,45.5625,86.25,-0.6342773,-0.3208008,0.3945313,0.1269531,0.1850586,-0.1484375
263,14.125,39.375,87.4375,-0.715332,-0.3598633,0.4057617,0.1308594,0.1762695,-0.1484375
267,23,36.5,91.625,-0.6884766,-0.3095703,0.4174805,0.1318359,0.1738281,-0.1484375
271,22.3125,41,94.4375,-0.6845703,-0.2314453,0.4443359,0.1357422,0.1674805,-0.1508789
275,14.25,47.625,95.25,-0.7270508,-0.2045898,0.4560547,0.1401367,0.1577148,-0.1523438
279,10.375,49.3125,95.125,-0.7929688,-0.1967773,0.4711914,0.1450195,0.1538086,-0.1547852
283,12.8125,42.625,96.5,-0.862793,-0.2006836,0.4404297,0.1474609,0.1474609,-0.1577148
287,25.5,29.75,96.5625,-0.8818359,-0.2045898,0.4018555,0.1557617,0.1411133,-0.1591797
291,31.0625,31.1875,105.9375,-0.7348633,-0.07617188,0.3789063,0.1606445,0.1362305,-0.1660156
295,18.5625,51.125,107.5625,-0.7426758,-0.04150391,0.4057617,0.1674805,0.1323242,-0.1674805
299,4.375,61.8125,105.6875,-0.862793,-0.06445313,0.4135742,0.1772461,0.1264648,-0.1674805
304,2.0625,65,103.8125,-0.9790039,-0.1420898,0.4829102,0.184082,0.1210938,-0.168457
308,11.5,49.375,102.9375,-1.12207,-0.1269531,0.4633789,0.1948242,0.1162109,-0.1660156
312,23.5625,34.5625,105.8125,-1.095215,-0.1074219,0.4750977,0.2070313,0.1123047,-0.1660156
316,22.1875,36.5625,109.3125,-0.9594727,-0.08398438,0.4365234,0.2104492,0.1113281,-0.1630859
320,14.5625,50,105.875,-0.9750977,-0.09179688,0.4404297,0.2236328,0.1025391,-0.1591797
324,11,53.8125,102.75,-1.07959,-0.04882813,0.4326172,0.2329102,0.09765625,-0.1523438
328,14.9375,48.1875,100.5625,-1.157227,-0.03369141,0.4711914,0.2368164,0.09375,-0.144043
332,29.5625,27.25,99.875,-1.257813,0.02050781,0.4482422,0.2460938,0.08642578,-0.1386719
336,29.375,22.375,105.0625,-0.9829102,0.07861328,0.4326172,0.2509766,0.07861328,-0.1303711
340,20.4375,37.3125,98.375,-1.013672,0.1523438,0.409668,0.253418,0.07373047,-0.125
344,13.875,35.125,98.875,-1.056641,0.1992188,0.3789063,0.2568359,0.0625,-0.1142578
348,10.0625,37.0625,102.4375,-1.048828,0.2456055,0.3789063,0.2583008,0.05273438,-0.105957
352,10.75,30.5,97.5,-1.103027,0.1640625,0.2983398,0.2602539,0.04492188,-0.1020508
356,28.125,19.625,96.8125,-1.091309,0.171875,0.2675781,0.2602539,0.03369141,-0.09375
360,29.25,26.375,105.5625,-0.8818359,0.3388672,0.2675781,0.2583008,0.02001953,-0.08837891
364,21.5,43.9375,109.1875,-0.9013672,0.4125977,0.2675781,0.2568359,0.008789063,-0.08691406
368,7.6875,56.375,112.0625,-0.9438477,0.5800781,0.2441406,0.2558594,-0.004394531,-0.08154297
372,-19.4375,65.8125,112.4375,-1.029297,0.4516602,0.2060547,0.25,-0.01953125,-0.07617188
376,-18.3125,64.9375,101.5625,-1.176758,0.2338867,0.2094727,0.2451172,-0.02929688,-0.07080078
380,2.375,49.75,104.1875,-1.211426,0.15625,0.2172852,0.2412109,-0.04589844,-0.07324219
384,23.25,41.1875,107.3125,-1.12207,0.1992188,0.2133789,0.2353516,-0.05712891,-0.07470703
388,30.8125,47,107.3125,-1.033203,0.3740234,0.2558594,0.2319336,-0.06591797,-0.07861328
392,12.625,58.4375,106.3125,-1.07959,0.5566406,0.2558594,0.2285156,-0.078125,-0.08154297
396,-15.9375,70.25,99.8125,-1.095215,0.4750977,0.2329102,0.2246094,-0.08935547,-0.08691406
400,-24,73.0625,91,-1.20752,0.3466797,0.2329102,0.2211914,-0.09179688,-0.09082031
404,-14.4375,62.625,93.6875,-1.25,0.269043,0.2480469,0.21875,-0.1005859,-0.09521484
408,-4.0625,54.4375,94.9375,-1.203613,0.3271484,0.2519531,0.21875,-0.1030273,-0.1035156
412,-12,60.0625,92.3125,-1.133789,0.4594727,0.2788086,0.21875,-0.1083984,-0.1044922
416,-34.875,67.8125,89.875,-1.176758,0.4052734,0.2021484,0.2202148,-0.1132813,-0.1074219
420,-50.1875,72.25,75.625,-1.219238,0.3193359,0.1943359,0.2211914,-0.1142578,-0.1098633
424,-49.8125,65.125,68.75,-1.230957,0.203125,0.1557617,0.222168,-0.1181641,-0.112793
428,-37.5,58.75,68.375,-1.12207,0.269043,0.1557617,0.2236328,-0.1196289,-0.1142578
433,-35.5,61.125,69.125,-1.017578,0.3974609,0.144043,0.2246094,-0.1220703,-0.1142578
437,-45.3125,71.9375,67.5625,-0.9399414,0.5913086,0.1210938,0.2260742,-0.1254883,-0.1157227
441,-75.8125,88.5,68.4375,-0.9672852,0.7158203,0.1020508,0.2260742,-0.1293945,-0.1166992
445,-110.1875,95,61.125,-1.145508,0.4165039,0.04443359,0.2285156,-0.1308594,-0.1142578
449,-99.4375,78.1875,45.25,-1.219238,0.04394531,0.04443359,0.2260742,-0.1308594,-0.1157227
453,-55.1875,52.25,45.3125,-1.191895,-0.09179688,0.04443359,0.2246094,-0.1333008,-0.1196289
457,-20.1875,34.1875,43.8125,-1.071777,0.1796875,0.04785156,0.222168,-0.1357422,-0.1235352
461,-13.0625,30.875,37.125,-1.048828,0.3583984,0.06347656,0.2177734,-0.1381836,-0.125
465,-16.9375,30.125,29.0625,-1.056641,0.4907227,0.06347656,0.2138672,-0.1420898,-0.1318359
469,-25.125,24.8125,21.1875,-1.063965,0.4829102,0.03662109,0.2138672,-0.1420898,-0.137207
473,-23,19.4375,15.875,-0.9985352,0.3662109,0.04785156,0.2094727,-0.1445313,-0.1416016
477,-11.5,14.9375,12.8125,-1.025391,0.300293,0.03662109,0.2055664,-0.1430664,-0.1469727
481,0.8125,4.9375,9.1875,-1.106934,0.269043,0.06347656,0.2045898,-0.1430664,-0.1484375
485,11.9375,-8.5625,3.4375,-1.129883,0.2265625,0.07128906,0.2080078,-0.1445313,-0.1508789
489,19.875,-18.3125,-8,-1.091309,0.269043,0.06347656,0.2094727,-0.1445313,-0.1484375
493,24.375,-23.3125,-18.125,-1.11084,0.2651367,0.07519531,0.2128906,-0.1430664,-0.1416016
497,35.625,-34.8125,-26.4375,-1.125977,0.2612305,0.08642578,0.2163086,-0.1430664,-0.1357422
501,41.625,-42.4375,-30.75,-1.099121,0.3349609,0.09033203,0.2211914,-0.1430664,-0.1333008
505,42.0625,-43.25,-35.875,-1.11084,0.3349609,0.1132813,0.222168,-0.140625,-0.125
509,39.9375,-45.5,-40.25,-1.184082,0.3388672,0.1132813,0.2246094,-0.1381836,-0.1210938
513,38,-49.5625,-52.25,-1.25,0.2338867,0.1210938,0.2270508,-0.1342773,-0.1181641
517,50.8125,-60.75,-60.6875,-1.335449,0.1757813,0.140625,0.2270508,-0.1318359,-0.1157227
521,60.875,-71.0625,-63.875,-1.269531,0.253418,0.1367188,0.2260742,-0.1293945,-0.1113281
525,54.375,-66.375,-70.8125,-1.20752,0.315918,0.140625,0.2270508,-0.1254883,-0.112793
529,46.6875,-62.5,-79.875,-1.308105,0.2963867,0.1674805,0.2246094,-0.1230469,-0.1142578
533,44.375,-66.9375,-87.125,-1.347168,0.2573242,0.1635742,0.2260742,-0.1220703,-0.1098633
537,42.875,-67,-93.8125,-1.343262,0.269043,0.1982422,0.2211914,-0.1181641,-0.1074219
541,36.25,-62.75,-102.5,-1.331543,0.3232422,0.1943359,0.2211914,-0.1142578,-0.1035156
545,26.0625,-57.25,-107.5,-1.397461,0.3544922,0.2329102,0.2211914,-0.1132813,-0.1020508
549,13,-53,-115.5,-1.436035,0.3427734,0.2558594,0.2211914,-0.109375,-0.09521484
553,9.875,-55.25,-124,-1.544922,0.2456055,0.2983398,0.2202148,-0.1020508,-0.08447266
557,17.125,-67.875,-129.4375,-1.595215,0.1875,0.3095703,0.2236328,-0.09960938,-0.07861328
562,25.4375,-81.0625,-133.1875,-1.606445,0.237793,0.2944336,0.2270508,-0.08935547,-0.06787109
566,28.625,-91.75,-141.125,-1.563965,0.3193359,0.2675781,0.234375,-0.07568359,-0.05712891
570,24.25,-95.3125,-145.8125,-1.517578,0.4086914,0.2636719,0.2392578,-0.06445313,-0.05175781
574,18.875,-99.625,-150.8125,-1.48291,0.4052734,0.2675781,0.2475586,-0.04589844,-0.05175781
578,18.5,-103.75,-151.625,-1.439941,0.4125977,0.2709961,0.2583008,-0.02197266,-0.05712891
582,12.75,-102.3125,-154.0625,-1.335449,0.4477539,0.2636719,0.2651367,-0.004394531,-0.05957031
586,4.6875,-95.625,-153.125,-1.300781,0.4399414,0.2597656,0.2734375,0.01611328,-0.07470703
590,-4.8125,-87.5625,-154.125,-1.304199,0.4477539,0.2983398,0.2749023,0.03369141,-0.09375
594,-11.3125,-87.1875,-154.9375,-1.304199,0.4086914,0.3134766,0.2734375,0.04882813,-0.105957
598,-18.125,-85.125,-155.625,-1.223145,0.4204102,0.3095703,0.269043,0.06103516,-0.1279297
602,-22.75,-81.3125,-154.875,-1.168945,0.3583984,0.2983398,0.2592773,0.07373047,-0.1494141
606,-25.3125,-74.125,-152.375,-1.118652,0.3427734,0.3251953,0.25,0.08105469,-0.1591797
610,-32.1875,-69.0625,-149.6875,-1.133789,0.3349609,0.340332,0.2329102,0.08740234,-0.1738281
614,-36.75,-65.75,-150.75,-1.083496,0.21875,0.3481445,0.2138672,0.09619141,-0.1782227
618,-37.75,-61.0625,-149.4375,-1.033203,0.1835938,0.3291016,0.2021484,0.1000977,-0.1806641
622,-40.75,-51.5625,-149.5625,-0.9399414,0.1523438,0.3481445,0.1855469,0.1064453,-0.1782227
626,-43.875,-45.125,-145.375,-0.9907227,0.1679688,0.3637695,0.1723633,0.1152344,-0.1728516
630,-41.8125,-48,-146.625,-1.037109,0.09423828,0.409668,0.1650391,0.1210938,-0.1660156
634,-31.0625,-61.6875,-144.8125,-0.9594727,-0.006347656,0.3710938,0.1567383,0.1313477,-0.1606445
638,-11.5625,-70.625,-138.0625,-0.796875,-0.02978516,0.3789063,0.1499023,0.1401367,-0.1538086
642,-11.8125,-59,-130.375,-0.5874023,0.1875,0.4365234,0.1450195,0.1489258,-0.1484375
646,-38.1875,-32.25,-127.125,-0.6416016,0.3232422,0.5522461,0.1416016,0.1586914,-0.1469727
650,-57.625,-32.5,-126.0625,-0.8935547,0.1679688,0.6137695,0.1367188,0.1723633,-0.1416016
654,-54.9375,-59.125,-118.75,-0.8896484,-0.07617188,0.5522461,0.1342773,0.1826172,-0.137207
658,-37.125,-78.625,-113.8125,-0.7075195,-0.2392578,0.3945313,0.1318359,0.1948242,-0.137207
662,-25.5625,-77.3125,-113.125,-0.5175781,-0.2470703,0.2675781,0.1259766,0.2050781,-0.137207
666,-22.9375,-66.1875,-111.375,-0.4208984,-0.2084961,0.2329102,0.1225586,0.2138672,-0.1401367
670,-26.9375,-48.5,-106.5625,-0.3432617,-0.1889648,0.3173828,0.1186523,0.2250977,-0.1425781
674,-32.5625,-41.8125,-101.75,-0.4248047,-0.1347656,0.3212891,0.112793,0.2348633,-0.144043
678,-37.5,-42.8125,-94.8125,-0.3588867,-0.1928711,0.3251953,0.1079102,0.2412109,-0.1469727
682,-34.75,-45.0625,-89.125,-0.3085938,-0.2861328,0.2905273,0.1035156,0.2485352,-0.1494141
686,-28.9375,-41.0625,-81.9375,-0.215332,-0.3325195,0.2636719,0.09619141,0.2573242,-0.1523438
691,-24.625,-33.4375,-77.4375,-0.2348633,-0.3286133,0.2983398,0.09277344,0.2612305,-0.15625
695,-23.25,-33.375,-72.5625,-0.2426758,-0.3481445,0.3251953,0.08691406,0.2661133,-0.1591797
699,-17.75,-39.625,-68.75,-0.2119141,-0.4101563,0.3095703,0.07958984,0.2709961,-0.1616211
703,-12.1875,-36.4375,-62.5,-0.01416016,-0.4140625,0.2866211,0.07470703,0.2749023,-0.1630859
707,-16.1875,-23.1875,-58.8125,-0.04101563,-0.2861328,0.3212891,0.06884766,0.2773438,-0.1660156
711,-25,-22.1875,-54.875,-0.07617188,-0.3095703,0.3095703,0.06152344,0.2788086,-0.168457
715,-20.375,-22.6875,-46.4375,-0.02587891,-0.387207,0.3056641,0.05957031,0.2822266,-0.1674805
719,-18.9375,-18.9375,-39.625,0.07470703,-0.402832,0.2558594,0.0546875,0.2861328,-0.168457
723,-18.375,-7.75,-32.4375,0.1171875,-0.4335938,0.2749023,0.05078125,0.2861328,-0.168457
727,-18.5,2.625,-25.125,0.04736328,-0.4140625,0.3481445,0.04980469,0.2875977,-0.1674805
731,-21.6875,4.5625,-16.625,-0.05273438,-0.3989258,0.4018555,0.04492188,0.2910156,-0.168457
735,-23.75,-2.8125,-15.1875,-0.09912109,-0.5424805,0.3789063,0.04492188,0.2924805,-0.1674805
739,-18.0625,-11.6875,-25.75,0.04345703,0.5058594,0.3212891,0.04638672,0.2924805,-0.168457
743,-1.625,-7.9375,-7.8125,0.04736328,-0.6044922,0.3637695,0.04394531,0.293457,-0.1674805
747,-4.8125,1,-1.1875,0.004882813,-0.503418,0.3671875,0.04248047,0.2963867,-0.1660156
751,-10.6875,5.5625,1.6875,-0.06054688,-0.5385742,0.4287109,0.04492188,0.2924805,-0.1674805
755,-12.5625,2.125,5.25,-0.1499023,-0.6083984,0.4174805,0.04492188,0.2949219,-0.1674805
759,-8.0625,-3,5.8125,-0.08398438,-0.7133789,0.390625,0.04394531,0.2949219,-0.1645508
763,0.625,-0.3125,8.625,-0.05664063,-0.7211914,0.3828125,0.04492188,0.2949219,-0.1645508
767,3.0625,5.0625,9,-0.06054688,-0.5966797,0.4135742,0.04492188,0.2949219,-0.1660156
771,-2.5,6.875,12.3125,-0.09912109,-0.5424805,0.4365234,0.04882813,0.293457,-0.1645508
775,-4.5625,5,18.125,-0.1030273,-0.534668,0.390625,0.05078125,0.2949219,-0.1616211
779,-9,9,19,-0.04492188,-0.5776367,0.3212891,0.04980469,0.2949219,-0.1591797
783,-5.125,12.625,22.875,-0.06054688,-0.6357422,0.2827148,0.05224609,0.2924805,-0.1591797
787,1.5625,14.4375,25.125,-0.006347656,-0.6044922,0.2519531,0.0546875,0.2949219,-0.1547852
791,7.25,21.125,31,-0.02197266,-0.534668,0.2827148,0.05712891,0.293457,-0.1547852
795,11.1875,20.75,36.6875,-0.1108398,-0.4414063,0.3251953,0.06054688,0.293457,-0.1538086
799,11.8125,14.875,43.4375,-0.1147461,-0.387207,0.3251953,0.06298828,0.2900391,-0.1523438
803,11.0625,12.875,45.75,-0.09521484,-0.4067383,0.3212891,0.06884766,0.2885742,-0.1508789
807,11.4375,13.1875,49.875,-0.03320313,-0.4067383,0.2636719,0.07226563,0.2875977,-0.1484375
811,12.25,24.5,58.3125,-0.002441406,-0.3598633,0.2519531,0.07714844,0.2822266,-0.1494141
815,9.6875,34.1875,65.0625,-0.08789063,-0.3095703,0.2675781,0.08300781,0.28125,-0.1455078
820,9.9375,35.9375,71.0625,-0.1845703,-0.3056641,0.2944336,0.08789063,0.2763672,-0.1425781
824,15.3125,29.625,75.5625,-0.2661133,-0.3208008,0.2944336,0.09521484,0.2724609,-0.1401367
828,21.875,24.0625,83.5,-0.1962891,-0.3017578,0.2675781,0.09960938,0.2651367,-0.1333008
832,18.8125,38.25,91.9375,-0.1533203,-0.2084961,0.2441406,0.1079102,0.2587891,-0.1289063
836,10.9375,50.875,97.8125,-0.2890625,-0.2241211,0.2558594,0.109375,0.2563477,-0.1279297
840,15.3125,49,103.125,-0.4482422,-0.2861328,0.2983398,0.1142578,0.2460938,-0.1225586
844,22.375,43.125,105.8125,-0.4555664,-0.2861328,0.2983398,0.1210938,0.2373047,-0.1210938
848,31.5,40.625,109.5,-0.5214844,-0.1850586,0.3095703,0.1259766,0.2324219,-0.1142578
852,25.625,44.875,119.9375,-0.4365234,-0.1230469,0.3017578,0.1293945,0.2172852,-0.1157227
856,17.125,59.6875,125.8125,-0.5253906,-0.1889648,0.3251953,0.1333008,0.2050781,-0.1142578
860,15.375,66.3125,127.3125,-0.6728516,-0.2006836,0.355957,0.1367188,0.1972656,-0.1113281
864,23.8125,55.8125,128.9375,-0.878418,-0.2241211,0.3598633,0.1391602,0.1860352,-0.1113281
868,39.0625,37.5625,126.4375,-0.862793,-0.1850586,0.3291016,0.1416016,0.1723633,-0.1157227
872,42.5,44.3125,136.5625,-0.730957,-0.06835938,0.3481445,0.1459961,0.1625977,-0.1210938
876,29.625,64.125,137.625,-0.7543945,0.0009765625,0.3442383,0.1484375,0.1513672,-0.1289063
880,13.5,77.1875,137.6875,-0.9438477,-0.02197266,0.390625,0.1567383,0.1411133,-0.1357422
884,16.1875,70.625,137,-1.106934,-0.08398438,0.4135742,0.1630859,0.1347656,-0.1401367
888,30,46,139.25,-1.234863,-0.04541016,0.3212891,0.1713867,0.1264648,-0.1469727
892,30.1875,43.625,143.8125,-0.9052734,-0.09960938,0.2636719,0.184082,0.1201172,-0.1523438
896,28.125,75.625,137.0625,-0.9248047,-0.04882813,0.2636719,0.1948242,0.1162109,-0.15625
900,24.1875,86.6875,134.5,-1.168945,0.06689453,0.3710938,0.2128906,0.1113281,-0.1577148
904,28.0625,70,138.8125,-1.358887,0.1137695,0.4365234,0.2285156,0.1049805,-0.1523438
908,27.75,53.625,142.8125,-1.257813,0.140625,0.3945313,0.2402344,0.1035156,-0.1455078
912,20.3125,56,137.375,-1.125977,0.02832031,0.2749023,0.2568359,0.09375,-0.1347656
916,17.4375,75.25,126.1875,-1.056641,0.07080078,0.2749023,0.2675781,0.08496094,-0.1210938
920,15.75,86.625,125.4375,-1.242188,0.2299805,0.3330078,0.2724609,0.07861328,-0.1044922
924,20.8125,72.5625,128.5,-1.37793,0.3544922,0.425293,0.2783203,0.06396484,-0.08544922
928,17.4375,51.875,141.9375,-1.358887,0.3740234,0.3251953,0.2783203,0.05126953,-0.06933594
932,2.5625,60.625,135.5625,-1.137695,0.3120117,0.3251953,0.2773438,0.03857422,-0.06396484
936,-3.3125,76.6875,124.375,-1.234863,0.203125,0.2290039,0.2734375,0.02001953,-0.05273438
940,-9.6875,81.3125,116,-1.273438,0.3349609,0.2402344,0.2651367,0.00390625,-0.04052734
944,-9.6875,76.5625,115.5625,-1.343262,0.4052734,0.2636719,0.2641602,-0.009277344,-0.03662109
949,-10.875,60.5,134.5,-1.37793,0.2226563,0.2172852,0.2558594,-0.02587891,-0.03515625
953,0.6875,55,127.75,-1.362793,0.1020508,0.2558594,0.2475586,-0.04296875,-0.04052734
957,17.8125,44.4375,118.75,-1.459473,0.1333008,0.2368164,0.2426758,-0.05712891,-0.04345703
961,32.75,27.125,108.9375,-1.393555,0.269043,0.2866211,0.2392578,-0.06689453,-0.05273438
965,40.0625,16.125,104.6875,-1.261719,0.4907227,0.2749023,0.2329102,-0.07958984,-0.06103516
969,21.375,26.5,103.1875,-1.067871,0.6694336,0.2290039,0.2294922,-0.08447266,-0.06787109
973,-14.375,49.125,106.3125,-1.157227,0.5991211,0.1748047,0.2260742,-0.09326172,-0.07763672
977,-25.5625,54.1875,103.4375,-1.257813,0.3583984,0.144043,0.2236328,-0.09814453,-0.08544922
981,-14.6875,49.1875,100.5625,-1.312012,0.237793,0.1367188,0.2246094,-0.1020508,-0.08837891
985,-1.5625,40.1875,94.125,-1.273438,0.3310547,0.1210938,0.2260742,-0.1069336,-0.09082031
989,-2.125,36.1875,90.125,-1.23877,0.3935547,0.1518555,0.2260742,-0.1118164,-0.09765625
993,-2.375,31.25,87.5625,-1.184082,0.3544922,0.1289063,0.2270508,-0.1142578,-0.09912109
997,2.4375,29.75,87.125,-1.11084,0.3427734,0.1328125,0.2285156,-0.1181641,-0.1035156
1001,1.8125,37.25,87.8125,-1.044922,0.4477539,0.1518555,0.2270508,-0.1245117,-0.105957
1005,-16.4375,48.375,82.8125,-1.052734,0.5913086,0.159668,0.230957,-0.1279297,-0.105957
1009,-46.25,56.4375,75.5625,-1.133789,0.5292969,0.140625,0.2294922,-0.1357422,-0.1088867
1013,-59.5,57.5625,66.9375,-1.191895,0.2729492,0.07128906,0.2285156,-0.1381836,-0.1113281
1017,-51.875,52.6875,58.25,-1.227051,0.08642578,0.001953125,0.2270508,-0.1445313,-0.112793
1021,-36.0625,48.375,53.625,-1.199707,0.07861328,-0.01660156,0.2246094,-0.1479492,-0.1181641
1025,-29.6875,46.4375,45.6875,-1.12207,0.2226563,-0.03613281,0.21875,-0.1567383,-0.1235352
1029,-34.9375,54,39.0625,-1.12207,0.300293,-0.02050781,0.2128906,-0.1582031,-0.1279297
1033,-42.6875,60.6875,48.9375,-1.498047,0.1020508,0.08251953,0.2055664,-0.1669922,-0.1386719
1037,-2.125,14.0625,24.8125,-1.765625,-0.2978516,0.09423828,0.2021484,-0.171875,-0.144043
1041,44.5625,-43.75,-2.75,-1.509766,-0.06054688,0.02490234,0.2011719,-0.1733398,-0.144043
1045,51.75,-50.125,-21.375,-0.9365234,0.4086914,0.009765625,0.2045898,-0.1704102,-0.1425781
1049,38.5,-23.0625,-24.3125,-0.7578125,0.6499023,0.03271484,0.2094727,-0.1669922,-0.1357422
1053,4.6875,1.625,-18.5,-0.831543,0.7314453,-0.02832031,0.215332,-0.1655273,-0.1318359
1057,-19.625,9.0625,-16.375,-0.9750977,0.5058594,-0.02832031,0.2202148,-0.1591797,-0.1279297
1061,-10.375,3.375,-26,-1.029297,0.269043,0.03662109,0.222168,-0.1542969,-0.1225586
1065,5.5625,-2.25,-29.375,-1.157227,0.2612305,0.07128906,0.2270508,-0.1533203,-0.1181641
1069,20.3125,-23.625,-41.5625,-1.289063,0.1953125,0.105957,0.2319336,-0.1479492,-0.1142578
1073,45.25,-50.8125,-46.5625,-1.32373,0.1367188,0.1210938,0.2319336,-0.1430664,-0.1088867
1078,70,-72.8125,-49.9375,-1.28125,0.2070313,0.08642578,0.234375,-0.1420898,-0.1098633
1082,79.3125,-80.6875,-52.4375,-1.230957,0.3583984,0.1020508,0.2329102,-0.1381836,-0.1088867
1086,74.1875,-81.125,-55.375,-1.230957,0.4204102,0.1210938,0.2329102,-0.1367188,-0.1074219
1090,65.3125,-80.3125,-60.625,-1.269531,0.4399414,0.1787109,0.230957,-0.1357422,-0.105957
1094,52.125,-76.875,-64.8125,-1.308105,0.4013672,0.2133789,0.2270508,-0.1333008,-0.105957
1098,42.4375,-74.125,-76.6875,-1.385742,0.3120117,0.2441406,0.2260742,-0.1308594,-0.1044922
1102,39.25,-77.3125,-84,-1.436035,0.2807617,0.2519531,0.2236328,-0.1254883,-0.1020508
1106,36.6875,-79.75,-93.125,-1.475098,0.2924805,0.2788086,0.2211914,-0.1230469,-0.09912109
1110,37,-86.125,-100.5,-1.521484,0.2963867,0.2749023,0.2202148,-0.1196289,-0.09521484
1114,32.5625,-90.25,-110.125,-1.490234,0.3818359,0.2905273,0.2211914,-0.1166992,-0.08984375
1118,23.25,-91.125,-119.1875,-1.479004,0.4282227,0.3056641,0.222168,-0.1054688,-0.08300781
1122,16.8125,-94.9375,-125.375,-1.505859,0.4555664,0.3442383,0.2270508,-0.09716797,-0.07617188
1126,12.1875,-103.25,-128.625,-1.525391,0.4946289,0.3251953,0.230957,-0.08935547,-0.07324219
1130,8.875,-110.4375,-131.375,-1.447754,0.4985352,0.2788086,0.237793,-0.07177734,-0.06933594
1134,5.0625,-109.5,-134.0625,-1.37793,0.5332031,0.2675781,0.2485352,-0.05566406,-0.06933594
1138,-0.25,-106.4375,-131.5,-1.362793,0.5449219,0.3134766,0.253418,-0.04443359,-0.07324219
1142,-3.5,-106.1875,-127.6875,-1.362793,0.5371094,0.3134766,0.2617188,-0.02685547,-0.07861328
1146,-1.1875,-114.8125,-120,-1.358887,0.5410156,0.2866211,0.2675781,-0.009277344,-0.09375
1150,4.5625,-126,-101.5,-1.319824,0.4790039,0.2480469,0.2709961,0,-0.105957
1154,10.125,-128.8125,-69.375,-1.223145,0.4672852,0.2709961,0.2724609,0.008789063,-0.1279297
1158,0.5625,-127.625,-67.3125,-1.161133,0.6225586,0.1787109,0.2700195,0.01757813,-0.1494141
1162,-28.3125,-120.375,-72.875,-1.021484,0.5839844,0.1748047,0.2641602,0.02148438,-0.1645508
1166,-52.25,-103.5625,-77,-0.9052734,0.5214844,0.2788086,0.2519531,0.02490234,-0.1850586
1170,-53.125,-85.125,-78.625,-0.9555664,0.3935547,0.3867188,0.237793,0.03027344,-0.1972656
1174,-39.5,-77,-84.875,-0.9326172,0.3974609,0.3330078,0.2285156,0.03271484,-0.2011719
1178,-42,-63.0625,-93.8125,-0.8085938,0.4360352,0.340332,0.2128906,0.04003906,-0.2055664
1182,-57.1875,-34.75,-114.6875,-0.6611328,0.5136719,0.355957,0.2011719,0.04882813,-0.2026367
1186,-77.1875,-8,-125.5,-0.8974609,0.4868164,0.4174805,0.1938477,0.05371094,-0.1972656
1190,-89.125,-13.0625,-128.5625,-1.033203,0.3818359,0.409668,0.1865234,0.06396484,-0.1904297
1194,-85.4375,-26.9375,-125.875,-1.021484,0.1992188,0.4213867,0.1821289,0.07861328,-0.1782227
1198,-76.1875,-34.4375,-118.3125,-0.8706055,0.1293945,0.390625,0.1796875,0.08642578,-0.175293
1202,-70.6875,-28.0625,-118.75,-0.765625,0.1523438,0.390625,0.1782227,0.09863281,-0.1660156
1207,-72.5625,-26.25,-127.3125,-0.796875,0.1640625,0.3710938,0.1748047,0.1123047,-0.1616211
1211,-70.3125,-27.375,-133,-0.7543945,0.08251953,0.3520508,0.1748047,0.1186523,-0.15625
1215,-66.5625,-29.5625,-134.8125,-0.7036133,-0.02587891,0.3173828,0.1748047,0.1347656,-0.1494141
1219,-52.625,-36.3125,-129.375,-0.6494141,-0.09570313,0.2944336,0.1713867,0.1489258,-0.1469727
1223,-42.3125,-35.5,-118.0625,-0.5449219,0.0009765625,0.3095703,0.1713867,0.1601563,-0.1455078
1227,-43.3125,-31.4375,-108.4375,-0.5566406,0.02050781,0.3173828,0.1674805,0.1713867,-0.1469727
1231,-44,-36.6875,-105.9375,-0.5756836,-0.07617188,0.2983398,0.1650391,0.1835938,-0.1455078
1235,-36.625,-44.9375,-107.0625,-0.4946289,-0.1694336,0.2597656,0.1640625,0.1923828,-0.1469727
1239,-27.75,-48.875,-99.8125,-0.4248047,-0.1655273,0.2709961,0.1591797,0.2026367,-0.1523438
1243,-24.8125,-50.9375,-77,-0.3393555,-0.08007813,0.2329102,0.1547852,0.2124023,-0.1547852
1247,-30.4375,-48.4375,-41.9375,-0.3046875,0.03222656,0.2368164,0.1523438,0.2163086,-0.1577148
1251,-32.625,-46.9375,-27.75,-0.1650391,-0.1459961,0.3017578,0.1484375,0.2226563,-0.1591797
1255,-26,-39.9375,-25.6875,-0.215332,-0.2275391,0.2675781,0.1474609,0.2260742,-0.1645508
1259,-20.5625,-45.1875,-20.6875,-0.1845703,-0.3017578,0.2133789,0.1474609,0.2275391,-0.1674805
1263,-8.75,-40.3125,-16.1875,-0.07617188,-0.3364258,0.2597656,0.1450195,0.2299805,-0.1728516
1267,-1.5625,-33,-14.9375,-0.07226563,-0.2861328,0.2709961,0.1425781,0.2314453,-0.1767578
1271,-3.8125,-26.0625,-19.25,-0.04492188,-0.2822266,0.3173828,0.1425781,0.2314453,-0.1806641
1275,-6.4375,-18.0625,-22.875,0.01269531,-0.324707,0.3212891,0.1401367,0.2338867,-0.1850586
1279,-8.3125,-0.3125,-24.9375,0.0009765625,-0.324707,0.3671875,0.1376953,0.2348633,-0.1850586
1283,-12.3125,7.9375,-17.8125,-0.1342773,-0.2978516,0.3710938,0.1367188,0.2373047,-0.1865234
1287,-13.625,4.25,-11.3125,-0.2080078,-0.3520508,0.4018555,0.1367188,0.2363281,-0.1835938
1291,-10.0625,0.125,-5.875,-0.1767578,-0.4257813,0.4174805,0.1357422,0.2387695,-0.1850586
1295,-6.5625,0.25,-2.1875,-0.2001953,-0.4296875,0.4326172,0.1357422,0.2412109,-0.1835938
1299,-5.3125,1.0625,0.375,-0.2041016,-0.4609375,0.4404297,0.1367188,0.2412109,-0.1821289
1303,-2.75,4.3125,-1,-0.2080078,-0.46875,0.4750977,0.1367188,0.2397461,-0.1821289
1307,-3.1875,4.4375,-1,-0.2504883,-0.4375,0.4482422,0.1357422,0.2426758,-0.1782227
1311,-3.875,6.625,1.875,-0.2348633,-0.453125,0.4599609,0.1367188,0.2426758,-0.1796875
1315,-3.0625,5.5,6.25,-0.28125,-0.4609375,0.4287109,0.1367188,0.2426758,-0.1796875
1319,0,4.875,10,-0.2041016,-0.484375,0.4174805,0.1367188,0.2412109,-0.1767578
1323,1.375,11.4375,13.5625,-0.1845703,-0.4067383,0.4135742,0.1376953,0.2412109,-0.1767578
1327,-2.5625,18.5625,20.9375,-0.2080078,-0.3676758,0.4213867,0.1391602,0.2412109,-0.175293
1331,-5.4375,22.0625,23.9375,-0.230957,-0.3754883,0.4213867,0.1425781,0.2387695,-0.1728516
1336,-6,22.0625,24.125,-0.2700195,-0.3676758,0.3945313,0.1450195,0.2373047,-0.1713867
1340,-5.375,21,28.9375,-0.2426758,-0.3637695,0.3671875,0.1484375,0.2348633,-0.1674805
1344,-1.8125,22.1875,34.1875,-0.1962891,-0.3833008,0.3291016,0.1484375,0.2348633,-0.1630859
1348,1.25,28.375,39.75,-0.1845703,-0.3173828,0.3212891,0.1523438,0.2338867,-0.1591797
1352,0.75,33.75,47.125,-0.2270508,-0.2705078,0.3173828,0.1557617,0.2299805,-0.1547852
1356,3.125,31.8125,57.0625,-0.28125,-0.2978516,0.3134766,0.1567383,0.2285156,-0.1508789
1360,8.3125,32.5625,64.875,-0.2929688,-0.2939453,0.3173828,0.1606445,0.2226563,-0.1469727
1364,10,35.1875,68.5,-0.362793,-0.2509766,0.2983398,0.1650391,0.2163086,-0.144043
1368,10.4375,39.0625,74.4375,-0.3706055,-0.2084961,0.3212891,0.1665039,0.2124023,-0.1386719
1372,7.8125,47,78.4375,-0.3823242,-0.2006836,0.340332,0.1723633,0.2075195,-0.1318359
1376,3.25,50.375,81.125,-0.4672852,-0.1772461,0.3442383,0.1748047,0.2011719,-0.1279297
1380,2.6875,47.25,84.375,-0.5371094,-0.2275391,0.3212891,0.1772461,0.1923828,-0.1235352
1384,12.5,42.0625,88.875,-0.5722656,-0.2666016,0.3056641,0.1782227,0.1850586,-0.1181641
1388,20,41.3125,97,-0.5874023,-0.1616211,0.2866211,0.1821289,0.1738281,-0.1157227
1392,17.25,52.5,101.5625,-0.5952148,-0.1308594,0.3095703,0.1806641,0.1635742,-0.1157227
1396,10.25,62.125,98.75,-0.7114258,-0.1113281,0.3364258,0.1821289,0.15625,-0.1142578
1400,8.6875,58.25,97.4375,-0.8393555,-0.1308594,0.3598633,0.1831055,0.1435547,-0.1113281
1404,12.25,48.25,99.8125,-0.8393555,-0.1772461,0.3598633,0.1821289,0.1386719,-0.112793
1408,22.25,42.3125,103.75,-0.8276367,-0.1269531,0.3251953,0.184082,0.1264648,-0.1157227
1412,22.125,49.3125,109.375,-0.7734375,-0.04882813,0.3134766,0.1855469,0.1176758,-0.1196289
1416,19.3125,59.5625,108.25,-0.9091797,-0.01025391,0.3442383,0.1865234,0.1137695,-0.1225586
1420,17,55.1875,108.125,-1.021484,0.02441406,0.340332,0.1914063,0.1035156,-0.1279297
1424,16.25,45.4375,107.6875,-1.017578,-0.01416016,0.3173828,0.1972656,0.09521484,-0.1357422
1428,20.0625,42.625,107.3125,-0.9399414,-0.03759766,0.3017578,0.2011719,0.09375,-0.1347656
1432,22.375,47.875,105.9375,-0.878418,0.008789063,0.2675781,0.2094727,0.08642578,-0.144043
1436,28.125,53.4375,104.8125,-0.9868164,0.140625,0.3212891,0.2211914,0.08105469,-0.144043
1440,22.875,52.25,113.5,-1.052734,0.2612305,0.3017578,0.2294922,0.07763672,-0.1469727
1444,18.8125,49.875,117.8125,-1.114746,0.121582,0.2709961,0.2412109,0.06982422,-0.1469727
1448,31.375,39.75,111.625,-1.180664,0.02050781,0.2290039,0.2568359,0.0625,-0.1416016
1452,47.4375,22.5625,103.875,-1.083496,0.08642578,0.1865234,0.2675781,0.05517578,-0.1386719
1456,63.8125,17.375,103.6875,-0.9985352,0.2768555,0.2250977,0.2773438,0.04638672,-0.1303711
1460,59.625,28.5,117.3125,-0.9169922,0.5136719,0.2441406,0.2866211,0.03759766,-0.1225586
1465,41,50.625,123.375,-1.029297,0.4360352,0.2983398,0.2900391,0.02880859,-0.1157227
1469,31.5625,54.3125,117.6875,-1.180664,0.2885742,0.2827148,0.2939453,0.01513672,-0.09912109
1473,30.875,52,105.75,-1.129883,0.3193359,0.2944336,0.2939453,0.002441406,-0.08447266
1477,26.4375,51.75,96.9375,-1.145508,0.4282227,0.3095703,0.2924805,-0.0004882813,-0.07177734
1481,20.3125,45.8125,104.25,-1.129883,0.4829102,0.2709961,0.2880859,-0.01464844,-0.0625
1485,15.4375,58.75,112.625,-1.083496,0.3271484,0.2827148,0.2817383,-0.02929688,-0.05273438
1489,16.375,66,104.8125,-1.242188,0.4052734,0.2709961,0.2749023,-0.03564453,-0.04638672
1493,15.3125,55.875,100.0625,-1.277344,0.4438477,0.3173828,0.269043,-0.05078125,-0.04052734
1497,17.375,46.75,93.1875,-1.211426,0.5839844,0.355957,0.2592773,-0.06689453,-0.03808594
1501,7.125,39.1875,99.1875,-1.103027,0.7236328,0.2558594,0.2543945,-0.07421875,-0.03808594
1505,-13.125,55.375,100.1875,-1.052734,0.5761719,0.2290039,0.2460938,-0.08544922,-0.03955078
1509,-16.875,59.5,93.625,-1.187988,0.4360352,0.1518555,0.2368164,-0.09960938,-0.04345703
1513,-8,51,91.375,-1.215332,0.3544922,0.1289063,0.2319336,-0.1069336,-0.04736328
1517,4.6875,42.9375,84.75,-1.103027,0.4790039,0.140625,0.2246094,-0.1157227,-0.05419922
1521,7.875,39.5625,80.125,-1.052734,0.6303711,0.2021484,0.2211914,-0.1196289,-0.05957031
1525,-2.3125,38.875,91.25,-1.052734,0.6616211,0.125,0.2202148,-0.1293945,-0.07080078
1529,-9.4375,48.5625,94.375,-0.9985352,0.5527344,0.09814453,0.2177734,-0.1318359,-0.07617188
1533,-14.375,60.5,89.9375,-1.021484,0.5566406,0.09423828,0.2177734,-0.1381836,-0.08300781
1537,-21.5625,66.5625,85.1875,-1.037109,0.6147461,0.07128906,0.2163086,-0.1396484,-0.08691406
1541,-29.9375,73,84.1875,-1.029297,0.6499023,0.105957,0.21875,-0.1430664,-0.08984375
1545,-36.4375,68.8125,82.6875,-1.157227,0.5019531,0.05566406,0.21875,-0.1469727,-0.09375
1549,-24.375,54.25,81.75,-1.265625,0.3701172,0.05957031,0.21875,-0.1479492,-0.09375
1553,-7.8125,37.3125,79.9375,-1.257813,0.3081055,0.05566406,0.21875,-0.1518555,-0.09765625
1557,8,27.3125,72,-1.184082,0.3779297,0.1098633,0.2202148,-0.1567383,-0.09912109
1561,8.9375,23.5625,62.75,-1.099121,0.5371094,0.1210938,0.21875,-0.1591797,-0.09765625
1565,-6.0625,33.4375,54.75,-0.9555664,0.7314453,0.1518555,0.222168,-0.1606445,-0.1005859
1569,-36.625,49.25,54.9375,-1.099121,0.6420898,0.08642578,0.2211914,-0.1645508,-0.1005859
1573,-43,47.75,44.6875,-1.20752,0.3662109,0.07519531,0.2211914,-0.1655273,-0.1035156
1577,-29.6875,34.25,38,-1.292969,0.1953125,0.01367188,0.2211914,-0.1655273,-0.1044922
1581,-8.875,19.5,34.125,-1.285156,0.140625,0.02099609,0.21875,-0.1704102,-0.1044922
1585,4.75,10.375,22.1875,-1.265625,0.2573242,0.07519531,0.2202148,-0.171875,-0.1088867
1589,2.375,5.5625,10.375,-1.25,0.3466797,0.06738281,0.21875,-0.1743164,-0.1098633
1594,-1.0625,1.8125,-10.1875,-1.230957,0.3120117,0.08251953,0.21875,-0.171875,-0.1088867
1598,3.3125,-7.0625,-17.625,-1.230957,0.315918,0.06738281,0.2202148,-0.1733398,-0.1088867
1602,9.3125,-18.8125,-26,-1.211426,0.3544922,0.07519531,0.2202148,-0.171875,-0.1088867
1606,15.6875,-29.375,-29.875,-1.176758,0.3701172,0.07128906,0.2202148,-0.1694336,-0.105957
1610,20.3125,-34.375,-37.8125,-1.172852,0.4086914,0.08251953,0.2202148,-0.1694336,-0.105957
1614,20,-40,-42.625,-1.180664,0.4282227,0.06738281,0.2202148,-0.1655273,-0.1020508
1618,22.1875,-46.9375,-54.875,-1.219238,0.3662109,0.06738281,0.2202148,-0.1655273,-0.1035156
1622,29.25,-57.25,-63.0625,-1.261719,0.4086914,0.105957,0.2202148,-0.1621094,-0.1005859
1626,32.5,-68.875,-68.0625,-1.273438,0.4594727,0.1289063,0.21875,-0.1582031,-0.09912109
1630,32.8125,-77.1875,-70.8125,-1.199707,0.4790039,0.1171875,0.21875,-0.1567383,-0.09765625
1634,28.5625,-72.3125,-75,-1.176758,0.4985352,0.140625,0.2163086,-0.1542969,-0.09765625
1638,21.8125,-64.9375,-81.8125,-1.187988,0.5136719,0.1479492,0.215332,-0.1518555,-0.09765625
1642,14.9375,-57.25,-88.5625,-1.261719,0.5058594,0.1748047,0.2128906,-0.1469727,-0.09375
1646,8.875,-55.375,-96.5625,-1.35498,0.5332031,0.2211914,0.2138672,-0.1455078,-0.09228516
1650,2.1875,-58.5,-102.625,-1.381836,0.5097656,0.2441406,0.2138672,-0.1420898,-0.08544922
1654,-3.125,-59.125,-109.3125,-1.397461,0.4711914,0.2597656,0.215332,-0.1367188,-0.07861328
1658,-8.1875,-58.625,-116.5625,-1.40918,0.4868164,0.2788086,0.2177734,-0.1333008,-0.07324219
1662,-12.75,-61.8125,-124.875,-1.459473,0.4946289,0.2597656,0.2211914,-0.1245117,-0.06396484
1666,-14.5,-67.0625,-132.6875,-1.475098,0.5058594,0.2675781,0.230957,-0.1157227,-0.05175781
1670,-12.3125,-74.75,-137.375,-1.443848,0.4790039,0.2402344,0.2353516,-0.1044922,-0.04736328
1674,-10.4375,-76.25,-138.75,-1.370117,0.5136719,0.2519531,0.2460938,-0.08837891,-0.04199219
1678,-15.5,-73.4375,-142.875,-1.335449,0.5913086,0.2749023,0.2602539,-0.06835938,-0.04199219
1682,-23.25,-71,-145.75,-1.308105,0.5952148,0.2636719,0.269043,-0.05175781,-0.04052734
1686,-27.5,-69.875,-149.125,-1.347168,0.5683594,0.2866211,0.2807617,-0.03320313,-0.05175781
1690,-27.375,-77.875,-151.0625,-1.343262,0.5214844,0.2368164,0.2890625,-0.01171875,-0.06396484
1694,-25.25,-79,-152.5,-1.242188,0.4790039,0.2558594,0.2924805,0.001464844,-0.07617188
1698,-26.5,-73.4375,-152,-1.157227,0.5136719,0.2402344,0.2939453,0.01855469,-0.09521484
1702,-29.75,-68.5,-150.5,-1.180664,0.4750977,0.2597656,0.2900391,0.03125,-0.1181641
1706,-29.875,-71.5,-147,-1.211426,0.4125977,0.2866211,0.2832031,0.04003906,-0.1318359
1710,-23.0625,-82.0625,-145.25,-1.203613,0.3505859,0.2788086,0.2700195,0.05273438,-0.1508789
1714,-17.375,-91.125,-143.6875,-1.118652,0.3388672,0.2675781,0.25,0.0625,-0.1630859
1718,-13.1875,-92.5625,-140.625,-1.106934,0.3081055,0.2636719,0.234375,0.06396484,-0.1699219
1723,-4.0625,-104.875,-137.9375,-1.141602,0.2226563,0.2675781,0.215332,0.07275391,-0.1728516
1727,13.75,-125.25,-135.0625,-1.137695,0.1601563,0.2675781,0.2011719,0.07763672,-0.1713867
1731,34.125,-149.375,-127.1875,-1.017578,0.1367188,0.2250977,0.1889648,0.08105469,-0.168457
1735,46.3125,-158,-117.3125,-0.8085938,0.21875,0.1865234,0.1772461,0.08642578,-0.1713867
1739,36.75,-143.875,-114.875,-0.5141602,0.3623047,0.1943359,0.1689453,0.09521484,-0.1738281
1743,19.1875,-115.125,-113.875,-0.4287109,0.3740234,0.2368164,0.1640625,0.1025391,-0.1728516
1747,0.4375,-92.8125,-106.6875,-0.4750977,0.3857422,0.2944336,0.1616211,0.1088867,-0.1738281
1751,-16.5,-85.125,-104.75,-0.5175781,0.2885742,0.3212891,0.1591797,0.1186523,-0.1738281
1755,-22.625,-79.5625,-97.25,-0.4750977,0.1333008,0.375,0.1582031,0.1298828,-0.175293
1759,-22.9375,-73,-87.9375,-0.4443359,0.05126953,0.3481445,0.1567383,0.1386719,-0.1767578
1763,-22.1875,-65.0625,-83.6875,-0.4169922,-0.002441406,0.3828125,0.1533203,0.1474609,-0.1821289
1767,-22.625,-56.6875,-81.0625,-0.4130859,-0.01806641,0.3945313,0.1523438,0.1538086,-0.1835938
1771,-24.625,-53.5625,-80.375,-0.4169922,-0.07226563,0.4057617,0.1499023,0.1625977,-0.1850586
1775,-20.8125,-55.9375,-76.875,-0.4013672,-0.1499023,0.3867188,0.1459961,0.1699219,-0.1928711
1779,-13.5,-56.8125,-70.8125,-0.3046875,-0.1538086,0.3789063,0.144043,0.1738281,-0.1958008
1783,-10.0625,-49.125,-63,-0.2001953,-0.1269531,0.3789063,0.1391602,0.1787109,-0.2011719
1787,-13.5625,-37.0625,-57.625,-0.2041016,-0.08789063,0.3979492,0.1357422,0.1850586,-0.2080078
1791,-22.1875,-28.25,-54.0625,-0.215332,-0.08007813,0.425293,0.1342773,0.1860352,-0.2094727
1795,-26.4375,-27.375,-54.125,-0.2543945,-0.1850586,0.4135742,0.1293945,0.1923828,-0.2133789
1799,-22.4375,-29.125,-50.125,-0.2080078,-0.2822266,0.4018555,0.1269531,0.1987305,-0.2148438
1803,-12.625,-28.375,-44.125,-0.1381836,-0.2939453,0.375,0.1225586,0.2011719,-0.2163086
1807,-6.75,-21.6875,-35.5,-0.1147461,-0.2431641,0.3945313,0.1201172,0.2050781,-0.2216797
1811,-7.1875,-14.3125,-28.4375,-0.1147461,-0.2241211,0.4174805,0.1176758,0.2060547,-0.2231445
1815,-7.4375,-12.4375,-22.1875,-0.1572266,-0.2392578,0.4404297,0.112793,0.2075195,-0.2216797
1819,-6.25,-16.1875,-19.3125,-0.1264648,-0.2861328,0.4365234,0.112793,0.2084961,-0.2246094
1823,-1.125,-16.25,-15.125,-0.06835938,-0.3134766,0.4365234,0.109375,0.2099609,-0.2255859
1827,6.75,-11.625,-8.5625,-0.06054688,-0.2353516,0.4404297,0.109375,0.2124023,-0.2285156
1831,-0.125,-1.6875,-0.1875,-0.05273438,-0.1499023,0.4365234,0.1079102,0.2114258,-0.2270508
1835,-9.125,4.75,0.375,-0.09912109,-0.2783203,0.4521484,0.1079102,0.2114258,-0.2285156
1839,-2.6875,2,6.1875,-0.1108398,-0.421875,0.425293,0.109375,0.2099609,-0.2255859
1843,9.375,8.6875,11.6875,-0.05273438,-0.3364258,0.4599609,0.109375,0.2114258,-0.2270508
1847,1.375,22.25,14.125,-0.08398438,-0.2124023,0.4829102,0.1118164,0.2084961,-0.2285156
1852,-7.625,31.3125,17.125,-0.1650391,-0.2470703,0.5288086,0.1118164,0.2060547,-0.2255859
1856,-7.3125,29.5,23.6875,-0.2734375,-0.3017578,0.5405273,0.1166992,0.2075195,-0.2216797
1860,-4,20.25,30,-0.3203125,-0.3520508,0.5136719,0.1201172,0.2060547,-0.21875
1864,0.6875,13,30,-0.2583008,-0.402832,0.4672852,0.1201172,0.2050781,-0.2163086
1868,10.5,15.5625,30.4375,-0.1767578,-0.4375,0.4365234,0.1210938,0.2036133,-0.2119141
1872,16.375,28.0625,32,-0.1381836,-0.2783203,0.4672852,0.1235352,0.2001953,-0.2148438
1876,9.5625,40.4375,38.625,-0.2080078,-0.2084961,0.4750977,0.1259766,0.2026367,-0.2109375
1880,4.125,45.3125,44,-0.2851563,-0.2314453,0.5019531,0.1308594,0.1972656,-0.206543
1884,4.75,45.875,48,-0.328125,-0.2861328,0.5019531,0.1342773,0.1938477,-0.2026367
1888,7.375,47.9375,49.875,-0.3549805,-0.2587891,0.5175781,0.1376953,0.1948242,-0.199707
1892,5.5625,48.3125,46.4375,-0.362793,-0.1459961,0.5249023,0.1391602,0.1860352,-0.1928711
1896,-0.5625,49.25,50.75,-0.3901367,-0.1035156,0.5058594,0.1450195,0.1835938,-0.1904297
1900,-5.1875,48.4375,59.5625,-0.4326172,-0.1772461,0.4633789,0.1474609,0.1787109,-0.1850586
1904,-0.9375,46.25,63.125,-0.3862305,-0.2978516,0.409668,0.1508789,0.1762695,-0.1806641
1908,8.1875,54.75,65.0625,-0.3354492,-0.3056641,0.3945313,0.1533203,0.1689453,-0.1738281
1912,13.9375,69.125,67.75,-0.3935547,-0.1694336,0.4599609,0.1547852,0.1650391,-0.1728516
1916,10.4375,70.5,72.75,-0.6147461,-0.01416016,0.5175781,0.1567383,0.1547852,-0.168457
1920,1.375,63,74.4375,-0.6650391,0.01269531,0.5405273,0.1606445,0.1459961,-0.1645508
1924,-1.4375,52.125,77.3125,-0.6884766,-0.09960938,0.5097656,0.1616211,0.1425781,-0.1630859
1928,2.0625,48.375,79.375,-0.5449219,-0.1420898,0.425293,0.1630859,0.1347656,-0.1606445
1932,-0.5625,64.625,82.125,-0.4829102,-0.05273438,0.375,0.1640625,0.1274414,-0.1606445
1936,-7.3125,82,86.4375,-0.6030273,-0.02978516,0.3945313,0.1630859,0.125,-0.15625
1940,-7.8125,81.25,89,-0.8276367,-0.04541016,0.4365234,0.1665039,0.1162109,-0.15625
1944,2.25,60.625,91.6875,-0.9555664,-0.04882813,0.4404297,0.1699219,0.1088867,-0.1591797
1948,10.5625,46.5,96.9375,-0.7929688,-0.002441406,0.4174805,0.1699219,0.1049805,-0.1577148
1952,6.8125,54.5,94.5,-0.6923828,0.09033203,0.375,0.1757813,0.09863281,-0.1630859
1956,-4.625,67.8125,93.75,-0.6416016,0.1484375,0.3251953,0.1821289,0.09130859,-0.1674805
1960,-8.625,77.6875,96.875,-0.7929688,0.09423828,0.3056641,0.1865234,0.08740234,-0.1674805
1964,0.0625,71.625,108.25,-0.9208984,0.105957,0.2944336,0.1938477,0.08251953,-0.1728516
1968,15.9375,58.9375,116.75,-1.005859,0.04003906,0.3212891,0.2080078,0.07861328,-0.1699219
1972,39.9375,50,123.875,-0.9091797,-0.08007813,0.3134766,0.2177734,0.07128906,-0.1782227
1976,84.1875,70.125,142.875,-0.6533203,0.0009765625,0.3364258,0.2329102,0.0625,-0.175293
1981,103.4375,109.875,160,-0.5332031,0.2963867,0.1787109,0.2519531,0.05126953,-0.1699219
1985,91.5625,129.75,164,-0.8432617,0.5566406,0.1289063,0.2666016,0.04150391,-0.1645508
1989,60.4375,131.875,165.875,-1.025391,0.7080078,0.08642578,0.2841797,0.02490234,-0.1484375
1993,33.75,121.625,148.375,-1.203613,0.5058594,0.1479492,0.2973633,0.01123047,-0.1210938
1997,28.4375,118.0625,133.6875,-1.195801,0.3349609,0.2519531,0.3032227,0.006347656,-0.1044922
2001,22.375,109.75,117,-1.211426,0.5410156,0.2675781,0.3032227,-0.004394531,-0.08007813
2005,-1.5625,107.0625,105.125,-1.230957,0.6694336,0.2905273,0.3007813,-0.01318359,-0.05712891
2009,-18.25,89,106.25,-1.28125,0.5644531,0.2290039,0.2973633,-0.01953125,-0.03955078
2013,-22.9375,74.9375,98.3125,-1.366211,0.4946289,0.1904297,0.2880859,-0.03173828,-0.02294922
2017,-27.9375,56.8125,93.625,-1.315918,0.5175781,0.1479492,0.2783203,-0.04589844,-0.01464844
2021,-33.6875,51.1875,78.5625,-1.106934,0.5952148,0.1098633,0.2724609,-0.05712891,-0.006835938
2025,-48.6875,61.1875,73.8125,-1.005859,0.7431641,0.1171875,0.2602539,-0.07080078,-0.005371094
2029,-60.5625,68.25,85.875,-1.114746,0.5527344,0.07519531,0.2475586,-0.08691406,-0.00390625
2033,-48.875,73.9375,95.25,-1.223145,0.3974609,0.07128906,0.2392578,-0.09716797,-0.01074219
2037,-32.1875,65.0625,98.5625,-1.37793,0.3505859,0.105957,0.2285156,-0.1108398,-0.01904297
2041,-15,49.375,93.5,-1.335449,0.4204102,0.140625,0.2211914,-0.1206055,-0.02832031
2045,-8.9375,40.5,86.8125,-1.172852,0.5878906,0.1328125,0.215332,-0.1279297,-0.03808594
2049,-14.875,43.125,88.3125,-1.091309,0.8208008,0.1367188,0.2119141,-0.1342773,-0.05029297
2053,-38.9375,61.0625,100.0625,-0.9208984,0.6147461,0.05957031,0.2104492,-0.1381836,-0.06103516
2057,-42.25,77.5625,94.875,-1.133789,0.5410156,0.02099609,0.2119141,-0.140625,-0.06787109
2061,-44.875,74.9375,89.9375,-1.20752,0.4907227,0.01708984,0.2104492,-0.1445313,-0.07470703
2065,-44.8125,75.625,80.8125,-1.075684,0.5761719,0.02490234,0.2138672,-0.1455078,-0.08300781
2069,-52.3125,81.0625,74.75,-1.083496,0.6884766,0.005859375,0.215332,-0.1430664,-0.08300781
2073,-63.8125,78.0625,80.25,-1.114746,0.5991211,-0.04736328,0.2202148,-0.1455078,-0.08544922
2077,-57.6875,75.5625,79.5,-1.23877,0.3974609,-0.08203125,0.2211914,-0.1479492,-0.08544922
2081,-46.625,65.9375,77.9375,-1.203613,0.3120117,-0.08984375,0.222168,-0.1494141,-0.08691406
2085,-35.3125,62.9375,65.9375,-1.191895,0.3583984,-0.07080078,0.2236328,-0.1533203,-0.08837891
2089,-38.6875,60.5625,53.125,-1.137695,0.5136719,-0.04736328,0.2260742,-0.1567383,-0.08691406
2093,-48.25,63.1875,48.25,-1.075684,0.5371094,-0.06689453,0.2236328,-0.1606445,-0.08984375
2097,-56,65.625,46.125,-1.25,0.3974609,-0.08984375,0.2246094,-0.1645508,-0.08837891
2101,-42.125,45.375,40.8125,-1.366211,0.1601563,-0.112793,0.2236328,-0.1655273,-0.09082031
2105,-12.875,23.5,33.375,-1.331543,0.08251953,-0.1206055,0.2211914,-0.171875,-0.09912109
2110,7.6875,8.5625,20.9375,-1.257813,0.2612305,-0.08203125,0.2163086,-0.1743164,-0.1005859
2114,19.5,-4.375,12.8125,-1.23877,0.3544922,-0.02441406,0.2163086,-0.1767578,-0.1005859
2118,22.125,-14.5625,7.625,-1.161133,0.4438477,-0.01318359,0.2163086,-0.1757813,-0.1035156
2122,18.6875,-13.375,-3.125,-1.083496,0.4672852,-0.001464844,0.2177734,-0.1767578,-0.1044922
2126,16.1875,-14.5625,-9.4375,-1.091309,0.4750977,-0.01318359,0.2202148,-0.1791992,-0.1035156
2130,15.6875,-19,-13.6875,-1.12207,0.4555664,-0.01660156,0.2202148,-0.1757813,-0.09912109
2134,21.3125,-28.75,-20.25,-1.187988,0.3388672,0.009765625,0.2236328,-0.1733398,-0.09912109
2138,35.1875,-45.25,-27.1875,-1.253906,0.300293,0.009765625,0.2260742,-0.1694336,-0.09521484
2142,46.75,-60.75,-35.9375,-1.234863,0.3310547,0.009765625,0.2236328,-0.1679688,-0.08984375
2146,52.6875,-72.4375,-46.1875,-1.296875,0.4013672,0.02490234,0.2246094,-0.1630859,-0.08691406
2150,56.1875,-83.1875,-50.375,-1.253906,0.3896484,0.04785156,0.2260742,-0.1630859,-0.08984375
2154,56.4375,-88.3125,-61.125,-1.296875,0.4204102,0.04443359,0.2260742,-0.1606445,-0.08984375
2158,53.625,-91.5625,-69.6875,-1.308105,0.4399414,0.05566406,0.2246094,-0.1567383,-0.08984375
2162,51.0625,-95.1875,-77.5,-1.331543,0.4321289,0.06347656,0.222168,-0.1533203,-0.08984375
2166,47.75,-94.0625,-86.5625,-1.339355,0.4633789,0.06738281,0.2211914,-0.1533203,-0.09228516
2170,42.6875,-91.5,-93.875,-1.370117,0.5097656,0.07519531,0.2177734,-0.1508789,-0.08984375
2174,35.75,-90.125,-103.5625,-1.351074,0.5097656,0.1020508,0.215332,-0.1469727,-0.08691406
2178,26.5625,-83.5625,-111.5,-1.385742,0.5605469,0.1132813,0.2128906,-0.1445313,-0.08300781
2182,17.6875,-80.1875,-117.5625,-1.401367,0.4946289,0.1289063,0.215332,-0.1396484,-0.07861328
2186,14.125,-78.8125,-125.125,-1.45166,0.4477539,0.1328125,0.215332,-0.1342773,-0.06787109
2190,12.75,-78.875,-132.4375,-1.439941,0.4282227,0.1289063,0.2177734,-0.1279297,-0.06103516
2194,13.125,-78.3125,-137.8125,-1.471191,0.4907227,0.140625,0.2246094,-0.1181641,-0.05175781
2198,10.4375,-81.25,-144.75,-1.501953,0.5527344,0.1674805,0.234375,-0.1020508,-0.04199219
2202,8.25,-87.4375,-148.0625,-1.479004,0.5878906,0.1674805,0.2412109,-0.08837891,-0.03662109
2206,9.6875,-96.3125,-154.4375,-1.436035,0.5527344,0.1098633,0.2543945,-0.07080078,-0.03369141
2210,8.625,-94.375,-157.5,-1.277344,0.6030273,0.09423828,0.2675781,-0.04833984,-0.04052734
2214,0.6875,-82.6875,-161.75,-1.180664,0.6499023,0.08251953,0.2724609,-0.03076172,-0.04736328
2218,-7.625,-68.3125,-164.125,-1.133789,0.6030273,0.09814453,0.2807617,-0.01171875,-0.06103516
2222,-5.1875,-62.4375,-165,-1.184082,0.5332031,0.1132813,0.2880859,0.007324219,-0.07861328
2226,-4.0625,-59.375,-162.5,-1.11084,0.5332031,0.1328125,0.2880859,0.01611328,-0.09228516
2230,-6.25,-52.4375,-160.25,-1.021484,0.5292969,0.159668,0.2832031,0.03027344,-0.1113281
2234,-9.375,-41.625,-158.375,-1.005859,0.5253906,0.2021484,0.2758789,0.04394531,-0.1264648
2239,-12.1875,-42.25,-154.5625,-1.056641,0.4321289,0.1904297,0.269043,0.05126953,-0.1347656
2243,-8.4375,-47,-150.375,-1.067871,0.3466797,0.2133789,0.2583008,0.06005859,-0.1455078
2247,-7,-50.375,-145.875,-1.021484,0.300293,0.2368164,0.2412109,0.07128906,-0.1523438
2251,-9.0625,-47.3125,-150.3125,-0.9516602,0.2729492,0.2636719,0.230957,0.07763672,-0.1538086
2255,-13.625,-42.625,-152.6875,-0.9633789,0.3041992,0.3173828,0.2163086,0.08398438,-0.1523438
2259,-20.3125,-44.9375,-145.0625,-0.9365234,0.2729492,0.3364258,0.2070313,0.09375,-0.1494141
2263,-22.8125,-46.875,-139.5,-0.9248047,0.2070313,0.3330078,0.2011719,0.1025391,-0.1484375
2267,-22.1875,-49.875,-136.9375,-0.8706055,0.15625,0.3173828,0.1904297,0.1137695,-0.144043
2271,-25.5,-46.625,-131.6875,-0.7929688,0.09814453,0.3212891,0.1831055,0.1210938,-0.1386719
2275,-25.4375,-40.9375,-128.6875,-0.8046875,0.04736328,0.3364258,0.1796875,0.1298828,-0.1333008
2279,-22.9375,-43.9375,-128,-0.8354492,-0.006347656,0.3442383,0.1738281,0.1401367,-0.1318359
2283,-18.625,-51.375,-129.1875,-0.8354492,-0.06445313,0.3173828,0.1674805,0.1523438,-0.1264648
2287,-11.1875,-60.875,-129.3125,-0.7231445,-0.1230469,0.2866211,0.1689453,0.1601563,-0.1264648
2291,-0.625,-62.1875,-126.1875,-0.6494141,-0.09960938,0.2827148,0.1616211,0.1713867,-0.1289063
2295,4,-66.875,-119.5625,-0.6108398,-0.04541016,0.2558594,0.1567383,0.1801758,-0.1303711
2299,9.625,-72.25,-111.375,-0.5449219,-0.07226563,0.2519531,0.1547852,0.1860352,-0.1347656
2303,18.1875,-79.25,-106.75,-0.4404297,-0.1074219,0.2172852,0.1484375,0.1962891,-0.137207
2307,27.3125,-82.0625,-104.9375,-0.3007813,-0.08789063,0.1943359,0.144043,0.2011719,-0.1455078
2311,26.875,-75.9375,-98.1875,-0.2080078,-0.09179688,0.1674805,0.1376953,0.2075195,-0.1484375
2315,26.5,-65.6875,-84.8125,-0.1572266,-0.08007813,0.1826172,0.1318359,0.2138672,-0.1577148
2319,22.5625,-55.4375,-70.5625,-0.1225586,-0.08789063,0.2290039,0.1235352,0.21875,-0.1630859
2323,11.5,-43.25,-61.5625,-0.1108398,-0.1035156,0.2749023,0.1201172,0.2226563,-0.1660156
2327,1.4375,-35.875,-59.125,-0.1186523,-0.1694336,0.2749023,0.1152344,0.2236328,-0.1713867
2331,-3.4375,-25.125,-54.5625,-0.08789063,-0.2314453,0.2983398,0.1118164,0.2285156,-0.1738281
2335,-3.9375,-17.1875,-46.1875,-0.1186523,-0.2705078,0.3095703,0.109375,0.2314453,-0.1738281
2339,-3.0625,-12.4375,-33.3125,-0.1147461,-0.3017578,0.3442383,0.1044922,0.2348633,-0.1738281
2343,-0.4375,-6,-18.8125,-0.1225586,-0.3364258,0.4018555,0.1035156,0.2363281,-0.1767578
2347,-1.875,-3.5625,-8.3125,-0.1962891,-0.324707,0.4287109,0.1020508,0.2363281,-0.1782227
2351,-6.5625,-2.1875,-5.875,-0.2041016,-0.340332,0.4633789,0.1035156,0.2387695,-0.1796875
2355,-10.8125,-2.1875,-5.625,-0.230957,-0.3833008,0.4560547,0.1010742,0.2387695,-0.1767578
2359,-11.75,2.8125,-1.625,-0.1884766,-0.4179688,0.4599609,0.1044922,0.2363281,-0.1767578
2363,-14.625,8.6875,3.625,-0.230957,-0.4414063,0.4404297,0.1020508,0.2387695,-0.175293
2368,-11.9375,10.0625,9.625,-0.28125,-0.503418,0.4599609,0.1044922,0.2397461,-0.1728516
2372,-5.5625,7.375,15.3125,-0.3046875,-0.5073242,0.409668,0.1044922,0.2387695,-0.1713867
2376,-1.1875,8.75,15.1875,-0.2387695,-0.4882813,0.4018555,0.1069336,0.2373047,-0.168457
2380,0.4375,11.875,15.4375,-0.2270508,-0.4335938,0.390625,0.1069336,0.2363281,-0.168457
2384,1.625,14.8125,17.1875,-0.230957,-0.3833008,0.3710938,0.1069336,0.2373047,-0.1674805
2388,1.125,18.3125,22.875,-0.2080078,-0.3134766,0.3330078,0.1079102,0.2363281,-0.1660156
2392,-1.25,22.0625,30.3125,-0.2119141,-0.2900391,0.3134766,0.112793,0.2338867,-0.1645508
2396,-3,25.5,38.4375,-0.1728516,-0.2978516,0.2866211,0.1142578,0.2338867,-0.1630859
2400,-6.75,33.0625,42.5625,-0.1728516,-0.2509766,0.2905273,0.1166992,0.2299805,-0.1591797
2404,-13.875,43.8125,46.5,-0.2080078,-0.2314453,0.3095703,0.1201172,0.2285156,-0.1547852
2408,-17.125,48.25,53.5625,-0.3242188,-0.2744141,0.3173828,0.1225586,0.2260742,-0.1523438
2412,-11.8125,42.875,61.25,-0.3935547,-0.3208008,0.3056641,0.1259766,0.2226563,-0.1484375
2416,-4.5,39.8125,67.5625,-0.3588867,-0.3286133,0.3056641,0.128418,0.21875,-0.1416016
2420,-2.125,48.125,70.9375,-0.362793,-0.2163086,0.3520508,0.1308594,0.2099609,-0.1386719
2424,-10.5,52.375,74,-0.4711914,-0.1577148,0.3364258,0.1357422,0.2050781,-0.137207
2428,-13,48.5,78.9375,-0.5488281,-0.2353516,0.3330078,0.1391602,0.2001953,-0.1318359
2432,-9,40.25,86.9375,-0.5371094,-0.2509766,0.2709961,0.1416016,0.1938477,-0.1303711
2436,-4.1875,40.375,91.875,-0.4868164,-0.2548828,0.2290039,0.1450195,0.1850586,-0.1289063
2440,2.3125,49.0625,94.1875,-0.4750977,-0.2353516,0.2368164,0.1474609,0.1762695,-0.1279297
2444,6.5625,58.25,101.5625,-0.5991211,-0.1577148,0.2944336,0.1484375,0.1723633,-0.1289063
2448,4.0625,61.9375,108.4375,-0.6923828,-0.09960938,0.355957,0.1533203,0.1635742,-0.1279297
2452,-2.875,59.125,108.875,-0.8276367,-0.04541016,0.3867188,0.1606445,0.1513672,-0.1303711
2456,-10.5625,51.8125,105.5625,-0.8198242,-0.04882813,0.3520508,0.1616211,0.1489258,-0.1279297
2460,-14.3125,48.5625,104.0625,-0.8046875,-0.07617188,0.2709961,0.1665039,0.1411133,-0.1303711
2464,-13.25,49.875,110.9375,-0.7890625,-0.1074219,0.2290039,0.1713867,0.1337891,-0.1347656
2468,-5.0625,52.1875,119.3125,-0.8510742,-0.1035156,0.2094727,0.1738281,0.1289063,-0.1357422
2472,4.875,50.0625,122.0625,-0.9248047,-0.08007813,0.2211914,0.184082,0.1235352,-0.1401367
2476,12.1875,46.6875,127.3125,-0.9750977,-0.02587891,0.2329102,0.1962891,0.1176758,-0.1425781
2480,7,51.375,130.9375,-0.9287109,0.03613281,0.2441406,0.2045898,0.1113281,-0.1469727
2484,-1.75,59.1875,128.75,-1.021484,0.05908203,0.2519531,0.21875,0.1064453,-0.144043
2488,-8.5,64.25,126.4375,-1.060547,0.04394531,0.2558594,0.2329102,0.1000977,-0.1386719
2492,-6.5625,64.6875,122.9375,-1.145508,0.02832031,0.2597656,0.2426758,0.09375,-0.137207
2497,-0.0625,59.25,117.6875,-1.23877,0.105957,0.2709961,0.2558594,0.08886719,-0.1279297
2501,-0.3125,49.3125,125.875,-1.219238,0.140625,0.1904297,0.2666016,0.08398438,-0.1142578
2505,-1.5625,53.6875,127.1875,-1.141602,0.121582,0.1713867,0.2709961,0.07617188,-0.1044922
2509,-4.4375,65.4375,124.6875,-1.075684,0.171875,0.125,0.2783203,0.06640625,-0.08837891
2513,-11.625,84.625,111.4375,-1.060547,0.2807617,0.1518555,0.2807617,0.05273438,-0.07470703
2517,-20.5625,90.25,110.1875,-1.223145,0.3349609,0.1674805,0.2807617,0.04638672,-0.05957031
2521,-25.8125,80.875,123.625,-1.28125,0.2456055,0.1904297,0.2773438,0.03515625,-0.04492188
2525,-21,77.625,130.125,-1.242188,0.171875,0.1982422,0.2749023,0.01855469,-0.03369141
2529,-22.125,77.875,127.0625,-1.25,0.1914063,0.1479492,0.2724609,0.008789063,-0.02587891
2533,-25.3125,82.625,114.25,-1.23877,0.2456055,0.1826172,0.2666016,-0.008300781,-0.01757813
2537,-28.0625,78.625,105.0625,-1.308105,0.315918,0.1748047,0.2592773,-0.02441406,-0.01220703
2541,-30.0625,65.125,102.3125,-1.374023,0.3779297,0.1748047,0.2543945,-0.03564453,-0.01074219
2545,-30.8125,45.125,118.5,-1.331543,0.237793,0.06738281,0.2485352,-0.04931641,-0.01367188
2549,-16.625,41.25,118.4375,-1.265625,0.1484375,0.05175781,0.2412109,-0.06201172,-0.02050781
2553,-5.5625,40.6875,112.0625,-1.230957,0.253418,0.05566406,0.2402344,-0.07177734,-0.02587891
2557,-1.75,40.625,100.125,-1.23877,0.4013672,0.1098633,0.2353516,-0.08203125,-0.03271484
2561,-10.4375,35.75,99.8125,-1.327637,0.5019531,0.125,0.230957,-0.09179688,-0.03808594
2565,-15.3125,20.3125,108.25,-1.397461,0.284668,0.01708984,0.230957,-0.09716797,-0.04492188
2569,4.875,6.9375,108,-1.335449,0.121582,-0.01318359,0.2294922,-0.1044922,-0.05419922
2573,28.0625,1.3125,107.75,-1.219238,0.1137695,-0.05908203,0.2285156,-0.1118164,-0.06103516
2577,45.25,7.5625,102.625,-1.095215,0.1914063,-0.03613281,0.2270508,-0.1142578,-0.06396484
2581,57.625,15.6875,96.6875,-1.07959,0.3120117,-0.005371094,0.2260742,-0.1220703,-0.06933594
2585,58.625,17.875,100.375,-1.118652,0.4672852,-0.02441406,0.2260742,-0.1293945,-0.07324219
2589,45.0625,22.375,96.25,-1.099121,0.5952148,-0.01318359,0.2246094,-0.1333008,-0.07324219
2593,20,26.625,83.0625,-1.106934,0.6577148,0.005859375,0.2246094,-0.1396484,-0.07470703
2597,-3.375,31.0625,67.25,-1.075684,0.5991211,0.04443359,0.2260742,-0.1430664,-0.07470703
2601,-17.625,36.875,50.875,-1.033203,0.5683594,0.05566406,0.2260742,-0.1469727,-0.07617188
2605,-30.8125,43.375,37.25,-0.9399414,0.5913086,0.009765625,0.2270508,-0.1479492,-0.07763672
2609,-43,53.8125,38.3125,-1.021484,0.5527344,0.001953125,0.2285156,-0.1494141,-0.07861328
2613,-39.1875,40.4375,48.625,-1.199707,0.3193359,-0.04003906,0.2294922,-0.1533203,-0.07861328
2617,-17.6875,18.375,47.3125,-1.219238,0.1992188,-0.02441406,0.230957,-0.1557617,-0.07861328
2621,4.625,2.375,38.625,-1.172852,0.2338867,0.02099609,0.2294922,-0.1582031,-0.08154297
2626,12.75,-4.5625,24.5625,-1.145508,0.3388672,0.05957031,0.2294922,-0.1606445,-0.08447266
2630,11.3125,-10.1875,14.6875,-1.141602,0.4086914,0.08642578,0.2294922,-0.1630859,-0.08300781
2634,4.5625,-14.5,5.25,-1.106934,0.4438477,0.08642578,0.2285156,-0.1645508,-0.08544922
2638,-1.25,-14,1.4375,-1.060547,0.4125977,0.07519531,0.2270508,-0.1621094,-0.08544922
2642,-5,-11.9375,-3.375,-1.11084,0.4086914,0.07519531,0.2285156,-0.1621094,-0.08837891
2646,-4.1875,-19.75,-9.375,-1.20752,0.3388672,0.07910156,0.2270508,-0.1630859,-0.08984375
2650,2.4375,-30.9375,-16.25,-1.23877,0.284668,0.07128906,0.2260742,-0.1630859,-0.08691406
2654,9.75,-39.5625,-25.75,-1.242188,0.2768555,0.06738281,0.2260742,-0.1621094,-0.08837891
2658,12.625,-44.6875,-35.5625,-1.265625,0.3081055,0.08642578,0.2246094,-0.1606445,-0.09082031
2662,13.6875,-50.5,-46.8125,-1.285156,0.3388672,0.1210938,0.2236328,-0.1582031,-0.08837891
2666,11.375,-57.125,-53.625,-1.312012,0.3544922,0.125,0.222168,-0.1542969,-0.08984375
2670,10.3125,-62.0625,-59,-1.277344,0.3310547,0.1210938,0.21875,-0.1518555,-0.09228516
2674,5.125,-57.875,-65.3125,-1.223145,0.3740234,0.1020508,0.2211914,-0.1533203,-0.09082031
2678,-5.375,-45.8125,-71.625,-1.265625,0.3623047,0.1132813,0.21875,-0.1469727,-0.08691406
2682,-12.8125,-37.375,-82.125,-1.405273,0.2963867,0.1132813,0.2163086,-0.1430664,-0.08691406
2686,-8.875,-40.625,-93.9375,-1.533203,0.2456055,0.144043,0.2138672,-0.1430664,-0.08447266
2690,-5.0625,-52.25,-104.125,-1.567871,0.284668,0.1289063,0.2163086,-0.1381836,-0.07763672
2694,-5,-57.875,-114.5,-1.505859,0.3271484,0.125,0.2163086,-0.1333008,-0.06933594
2698,-8.125,-57.25,-125.75,-1.486328,0.3740234,0.105957,0.2138672,-0.1293945,-0.06542969
2702,-8.75,-58.5625,-136.6875,-1.501953,0.3818359,0.105957,0.2211914,-0.1206055,-0.05175781
2706,-2.8125,-64.8125,-141.6875,-1.498047,0.3818359,0.1132813,0.2270508,-0.1069336,-0.03808594
2710,3.125,-72.0625,-145,-1.45166,0.4438477,0.1098633,0.2353516,-0.09423828,-0.02832031
2714,3.625,-75.0625,-146.5625,-1.381836,0.4790039,0.1132813,0.2460938,-0.07714844,-0.02148438
2718,3.875,-74.8125,-148.5625,-1.335449,0.4907227,0.1210938,0.2592773,-0.0546875,-0.02050781
2722,4.6875,-74.1875,-150.6875,-1.315918,0.4946289,0.1289063,0.2651367,-0.03808594,-0.02050781
2726,2.5625,-74.75,-153.5625,-1.257813,0.5253906,0.1518555,0.2773438,-0.015625,-0.03125
2730,-3.3125,-71.4375,-153.875,-1.223145,0.5410156,0.1943359,0.2866211,0.006347656,-0.04345703
2734,-8.75,-69.625,-151.25,-1.246094,0.4985352,0.2060547,0.2900391,0.01611328,-0.05712891
2738,-9,-74.6875,-150.125,-1.28125,0.4477539,0.2329102,0.2915039,0.03515625,-0.07617188
2742,-7.4375,-83,-146.9375,-1.223145,0.4125977,0.2290039,0.2880859,0.04882813,-0.09765625
2746,-8.625,-80.9375,-143.9375,-1.106934,0.3974609,0.2368164,0.2832031,0.05517578,-0.1142578
2750,-16.0625,-73.8125,-143.6875,-1.106934,0.3935547,0.2441406,0.2749023,0.06494141,-0.1333008
2755,-17.9375,-75.0625,-145.8125,-1.187988,0.3081055,0.2558594,0.2568359,0.07373047,-0.1484375
2759,-9.625,-89.125,-144.8125,-1.261719,0.2226563,0.2788086,0.2436523,0.07861328,-0.1547852
2763,1.375,-108.375,-135.0625,-1.20752,0.2070313,0.2368164,0.2246094,0.08105469,-0.1630859
2767,-8.375,-102.25,-108.875,-0.9208984,0.1523438,0.1826172,0.2055664,0.08740234,-0.1645508
2771,-30.75,-61.8125,-115.1875,-0.746582,0.05517578,0.2290039,0.1972656,0.09375,-0.1630859
2775,-38.875,-27.5625,-147.625,-0.9907227,0.004882813,0.3291016,0.1865234,0.1010742,-0.15625
2779,-32.125,-36,-168.3125,-1.300781,0.02050781,0.3789063,0.1782227,0.1113281,-0.1469727
2783,-12.0625,-80.8125,-171.9375,-1.40918,0.02832031,0.4213867,0.1713867,0.1235352,-0.1416016
2787,11.9375,-129.875,-157.4375,-1.161133,0.07861328,0.3330078,0.1640625,0.1362305,-0.137207
2791,20.9375,-144.0625,-139,-0.7114258,0.1835938,0.2749023,0.1567383,0.1474609,-0.1401367
2795,8.8125,-124.5625,-131.5,-0.3823242,0.269043,0.2094727,0.1533203,0.1538086,-0.1425781
2799,-11.875,-91.875,-134.1875,-0.296875,0.2768555,0.2402344,0.1474609,0.1674805,-0.1455078
2803,-24.3125,-70.5,-132.8125,-0.3432617,0.1875,0.2866211,0.1416016,0.1772461,-0.1484375
2807,-23.5625,-69.125,-122.8125,-0.4521484,0.09423828,0.3017578,0.1391602,0.1835938,-0.1494141
2811,-18.75,-79.6875,-103.6875,-0.4326172,0.03613281,0.2866211,0.1342773,0.1972656,-0.15625
2815,-17.875,-85.0625,-79.25,-0.2583008,-0.06835938,0.2211914,0.1269531,0.2060547,-0.1577148
2819,-15.4375,-72.5625,-72.6875,-0.1030273,-0.1538086,0.2021484,0.125,0.2084961,-0.1645508
2823,-12.625,-54.5,-71.3125,-0.06445313,-0.1459961,0.2060547,0.1201172,0.2163086,-0.168457
2827,-12.8125,-40.875,-60.875,-0.04492188,-0.1616211,0.2094727,0.1152344,0.2226563,-0.1713867
2831,-8.375,-29.5625,-50.8125,-0.03320313,-0.2202148,0.2480469,0.112793,0.2250977,-0.1738281
2835,-0.75,-25.6875,-44.8125,-0.1147461,-0.1967773,0.2558594,0.1069336,0.2314453,-0.1782227
2839,3.4375,-31.5625,-39.125,-0.1225586,-0.1811523,0.2636719,0.105957,0.2314453,-0.1806641
2843,4.8125,-30.8125,-28.0625,-0.01416016,-0.1694336,0.2788086,0.1010742,0.2363281,-0.1821289
2847,-0.6875,-22.8125,-21.875,0.04345703,-0.1889648,0.2480469,0.09960938,0.2373047,-0.1850586
2851,-2.375,-11.5625,-15.6875,0.05908203,-0.2509766,0.2749023,0.09863281,0.2387695,-0.1865234
2855,1.3125,-4.25,-9.4375,0.02441406,-0.2666016,0.2827148,0.09863281,0.2387695,-0.1889648
2859,4.8125,1,-0.8125,0.004882813,-0.2587891,0.2983398,0.09375,0.2412109,-0.1889648
2863,3.4375,4.5625,9.625,-0.02978516,-0.2705078,0.3017578,0.09521484,0.2412109,-0.1904297
2867,2.6875,9.625,15.5625,-0.01416016,-0.3442383,0.3056641,0.09765625,0.2363281,-0.1918945
2871,6.0625,19.3125,19.5625,-0.02978516,-0.3754883,0.3056641,0.09960938,0.2348633,-0.1889648
2875,9.1875,28,22.5625,-0.07226563,-0.355957,0.3291016,0.1010742,0.2348633,-0.1889648
2879,10.1875,31.75,26.125,-0.1572266,-0.3442383,0.340332,0.1035156,0.2314453,-0.1865234
2884,15.5,30.125,31.9375,-0.2001953,-0.3754883,0.3520508,0.105957,0.2299805,-0.1865234
2888,22.3125,29.0625,37.4375,-0.2041016,-0.3793945,0.355957,0.1103516,0.2260742,-0.1850586
2892,29.25,30.375,43.375,-0.2119141,-0.3754883,0.3598633,0.1103516,0.2250977,-0.1806641
2896,34.375,34.8125,46,-0.1923828,-0.3286133,0.3710938,0.1142578,0.21875,-0.1821289
2900,34,42.125,47.625,-0.2270508,-0.2705078,0.3867188,0.1186523,0.2124023,-0.1835938
2904,33,48.875,50.875,-0.2890625,-0.2275391,0.425293,0.1186523,0.2138672,-0.1796875
2908,32.3125,50.875,57.4375,-0.362793,-0.2006836,0.4404297,0.1235352,0.2050781,-0.1796875
2912,31.4375,50.6875,60.4375,-0.4052734,-0.1889648,0.4711914,0.1269531,0.1972656,-0.1782227
2916,29.0625,47.875,59.75,-0.4404297,-0.1459961,0.5019531,0.1293945,0.1948242,-0.175293
2920,25.5625,44.5,62.8125,-0.4594727,-0.1308594,0.5058594,0.1318359,0.1875,-0.175293
2924,24.375,45.1875,69.0625,-0.4555664,-0.1152344,0.4980469,0.1357422,0.1801758,-0.1713867
2928,22.6875,45.3125,73.9375,-0.5063477,-0.07226563,0.4829102,0.1367188,0.1762695,-0.1699219
2932,15.9375,46.125,78.5,-0.4907227,-0.05664063,0.4443359,0.1401367,0.1674805,-0.1699219
2936,9.6875,52.25,78.9375,-0.4594727,-0.06445313,0.4404297,0.1425781,0.1601563,-0.168457
2940,8.8125,57.1875,80.25,-0.5371094,-0.05664063,0.4560547,0.1450195,0.1523438,-0.1674805
2944,13.8125,49.25,83.875,-0.6728516,-0.03369141,0.4980469,0.1484375,0.1435547,-0.1660156
2948,21.6875,30.6875,89.0625,-0.7192383,0.008789063,0.5136719,0.1474609,0.1376953,-0.168457
2952,20.875,23.6875,93.0625,-0.5834961,0.1254883,0.4790039,0.1499023,0.1313477,-0.1699219
2956,6.25,40.5,95,-0.5102539,0.2807617,0.4365234,0.1523438,0.1186523,-0.175293
2960,-20.0625,61.375,98.625,-0.5834961,0.3271484,0.3979492,0.1582031,0.1123047,-0.175293
2964,-31.375,67.1875,102.5,-0.765625,0.2070313,0.3710938,0.1582031,0.1123047,-0.1782227
2968,-30.6875,62.875,115.75,-0.8276367,0.09814453,0.3212891,0.1650391,0.1035156,-0.1782227
2972,-23.5625,62.5625,125.25,-0.7851563,0.01269531,0.2944336,0.1748047,0.1000977,-0.1821289
2976,-13.1875,74.125,128.875,-0.8588867,0.05126953,0.2827148,0.1821289,0.1000977,-0.1835938
2980,-9.375,81,130.0625,-1.009766,0.1098633,0.2944336,0.1962891,0.09521484,-0.1821289
2984,-6.8125,80.5625,129.75,-1.103027,0.1640625,0.3095703,0.215332,0.09130859,-0.1806641
2988,-6.875,73.375,133.875,-1.161133,0.1367188,0.2749023,0.2294922,0.08984375,-0.175293
2992,-3.9375,70.625,132.4375,-1.103027,0.105957,0.2402344,0.2485352,0.08496094,-0.1660156
2996,3.5,68.125,130.5,-1.133789,0.07470703,0.1826172,0.2651367,0.07861328,-0.1484375
3000,22.4375,66.6875,124.3125,-1.125977,0.1254883,0.1982422,0.2724609,0.07128906,-0.137207
3004,33.4375,65.3125,139.8125,-1.157227,0.2651367,0.1557617,0.2807617,0.0625,-0.1181641
3008,30.1875,79.9375,138.9375,-1.052734,0.3271484,0.1982422,0.2841797,0.05126953,-0.09765625
3013,19.1875,93.9375,139.1875,-1.157227,0.3583984,0.1748047,0.2866211,0.03857422,-0.08544922
3017,10.5,102.5625,133.0625,-1.253906,0.3388672,0.2329102,0.2817383,0.02001953,-0.06396484
3021,11.875,91.4375,128.5625,-1.455566,0.2612305,0.2480469,0.2758789,0.00390625,-0.04736328
3025,30.75,68.25,121.5625,-1.498047,0.2226563,0.2983398,0.2700195,-0.005859375,-0.03808594
3029,41.875,53.5,128.25,-1.315918,0.315918,0.2636719,0.2617188,-0.02587891,-0.03369141
3033,39.875,63.5,125.375,-1.20752,0.4086914,0.3095703,0.2509766,-0.046875,-0.03369141
3037,26.625,69.4375,119.5,-1.308105,0.4633789,0.3330078,0.2426758,-0.05712891,-0.03271484
3041,21,65.125,111.3125,-1.370117,0.4243164,0.4057617,0.234375,-0.07324219,-0.03808594
3045,26.5,43.625,104.6875,-1.486328,0.3974609,0.425293,0.2260742,-0.08935547,-0.04882813
3049,39.375,13.3125,98.6875,-1.443848,0.4086914,0.4018555,0.21875,-0.09716797,-0.05419922
3053,47.3125,-3.1875,98.8125,-1.25,0.5253906,0.355957,0.215332,-0.109375,-0.06396484
3057,31.1875,7,100.5,-1.037109,0.6499023,0.2709961,0.2094727,-0.1166992,-0.07470703
3061,3.625,35.625,87.0625,-0.9365234,0.6811523,0.2290039,0.2080078,-0.1245117,-0.08300781
3065,-25.3125,62.1875,77.375,-1.021484,0.6616211,0.1982422,0.2055664,-0.1308594,-0.09667969
3069,-42.4375,73,76.875,-1.129883,0.5097656,0.2250977,0.2070313,-0.1342773,-0.09765625
3073,-44,70.9375,79.9375,-1.20752,0.3818359,0.2133789,0.2055664,-0.1381836,-0.1074219
3077,-37.5625,63.3125,79.3125,-1.211426,0.3232422,0.2021484,0.2080078,-0.1396484,-0.1113281
3081,-34.5,65.4375,76.875,-1.137695,0.3974609,0.1674805,0.2094727,-0.140625,-0.1157227
3085,-47.6875,83.375,68.5,-1.021484,0.5410156,0.1635742,0.2119141,-0.1430664,-0.1142578
3089,-78.8125,106.625,60.8125,-1.106934,0.6303711,0.1674805,0.2138672,-0.1445313,-0.1157227
3093,-109.875,111.9375,54.5625,-1.227051,0.4750977,0.1367188,0.2163086,-0.1469727,-0.1157227
3097,-121.3125,108.75,46.9375,-1.269531,0.2807617,0.09423828,0.2177734,-0.1455078,-0.1098633
3101,-117.9375,101,37.8125,-1.285156,0.1914063,-0.01660156,0.21875,-0.1494141,-0.1113281
3105,-108.8125,94.5625,31.75,-1.203613,0.140625,-0.09765625,0.2163086,-0.1518555,-0.1098633
3109,-99.875,94.125,35.5625,-1.234863,0.09423828,-0.1401367,0.2138672,-0.1508789,-0.1074219
3113,-83.3125,78.6875,33.5,-1.40918,-0.1152344,-0.1782227,0.2119141,-0.1567383,-0.09912109
3117,-36,48,21.4375,-1.467285,-0.3520508,-0.112793,0.2094727,-0.1606445,-0.1005859
3121,20.25,12.4375,5.75,-1.471191,-0.2548828,-0.04394531,0.2080078,-0.1591797,-0.1005859
3125,56.75,-18.0625,-11.875,-1.436035,-0.01416016,0.02490234,0.2119141,-0.1591797,-0.09765625
3129,73.75,-43.0625,-24.125,-1.343262,0.1953125,0.04052734,0.215332,-0.1567383,-0.09912109
3133,73.0625,-53.25,-35.0625,-1.219238,0.3896484,0.04052734,0.21875,-0.1567383,-0.1020508
3137,61.5625,-53.25,-41.9375,-1.15332,0.4672852,0.03271484,0.2202148,-0.1508789,-0.09765625
3142,47.0625,-48.25,-47.375,-1.099121,0.4790039,0.05175781,0.222168,-0.1479492,-0.09912109
3146,38.625,-46.375,-48.375,-1.199707,0.3662109,0.04052734,0.2236328,-0.1445313,-0.1005859
3150,42,-51.375,-54.375,-1.265625,0.2729492,0.04052734,0.222168,-0.1420898,-0.1005859
3154,48.375,-59.625,-63.125,-1.327637,0.2416992,0.05957031,0.2236328,-0.1396484,-0.1005859
3158,56.0625,-69.875,-74.5,-1.37793,0.2456055,0.07910156,0.21875,-0.1367188,-0.09912109
3162,60.3125,-78.4375,-83,-1.300781,0.3623047,0.1020508,0.2163086,-0.1342773,-0.09765625
3166,49.75,-71.9375,-91.125,-1.20752,0.4750977,0.125,0.2138672,-0.1333008,-0.09375
3170,30.625,-62.25,-96.75,-1.223145,0.4946289,0.1328125,0.2119141,-0.1308594,-0.08984375
3174,20.3125,-54.125,-97.375,-1.277344,0.4086914,0.1748047,0.2094727,-0.1279297,-0.08300781
3178,17.875,-55.5625,-102.1875,-1.397461,0.3779297,0.1904297,0.2080078,-0.1245117,-0.07324219
3182,19.625,-65.125,-106.0625,-1.463379,0.3388672,0.2021484,0.2094727,-0.1220703,-0.06542969
3186,23.75,-77.9375,-114.0625,-1.459473,0.3232422,0.1904297,0.2119141,-0.1157227,-0.04882813
3190,25.3125,-83.9375,-121.25,-1.405273,0.3623047,0.1713867,0.2163086,-0.1030273,-0.03662109
3194,24.4375,-85.3125,-128.5,-1.358887,0.4282227,0.159668,0.2236328,-0.09716797,-0.02978516
3198,19.75,-83.3125,-131.9375,-1.300781,0.4516602,0.1674805,0.2329102,-0.07714844,-0.01757813
3202,16.125,-81.625,-133.4375,-1.308105,0.4555664,0.1904297,0.2460938,-0.05566406,-0.01220703
3206,11.6875,-83.75,-133.6875,-1.28125,0.4477539,0.2021484,0.2543945,-0.04052734,-0.01611328
3210,9.8125,-83,-132.5625,-1.273438,0.4282227,0.2250977,0.2675781,-0.01806641,-0.02294922
3214,5.0625,-82.3125,-134.1875,-1.257813,0.4360352,0.2558594,0.2773438,0.00390625,-0.03515625
3218,-1.375,-78.25,-133.375,-1.219238,0.3974609,0.2636719,0.2807617,0.01757813,-0.04345703
3222,-7.4375,-70.625,-133.9375,-1.199707,0.3857422,0.3017578,0.2880859,0.03613281,-0.06396484
3226,-15.9375,-65,-137.8125,-1.253906,0.3896484,0.375,0.2890625,0.04736328,-0.08447266
3230,-24.75,-64.6875,-139.125,-1.242188,0.3701172,0.3867188,0.2866211,0.05761719,-0.09521484
3234,-31.75,-66.8125,-140.1875,-1.261719,0.3081055,0.3828125,0.2817383,0.06982422,-0.1196289
3238,-29.5625,-70.3125,-141.5,-1.269531,0.2416992,0.3598633,0.2724609,0.07861328,-0.1357422
3242,-24.8125,-75.375,-140.125,-1.219238,0.2148438,0.3442383,0.2626953,0.08251953,-0.1523438
3246,-22.375,-76.75,-140.125,-1.15332,0.2456055,0.340332,0.2436523,0.08886719,-0.1645508
3250,-27.5625,-73.6875,-138.8125,-1.060547,0.2416992,0.3056641,0.2211914,0.09375,-0.1738281
3254,-29.3125,-69.875,-141.5625,-1.037109,0.1992188,0.2944336,0.2094727,0.09619141,-0.1728516
3258,-26.625,-71.3125,-143.75,-0.9907227,0.1914063,0.2788086,0.1904297,0.1000977,-0.168457
3262,-21.6875,-74.375,-143.1875,-0.9169922,0.171875,0.2675781,0.1738281,0.1074219,-0.1630859
3266,-13.9375,-78.4375,-142.8125,-0.7504883,0.1679688,0.159668,0.1665039,0.1113281,-0.1577148
3271,-7.4375,-71.1875,-139.25,-0.5449219,0.2148438,0.1289063,0.1582031,0.1201172,-0.1523438
3275,-5.875,-57.0625,-130.8125,-0.4868164,0.2299805,0.1479492,0.1508789,0.1298828,-0.144043
3279,-4.3125,-52.9375,-118.5,-0.5371094,0.1992188,0.1943359,0.1459961,0.1362305,-0.1416016
3283,-0.3125,-59.1875,-111.75,-0.5292969,0.1333008,0.2290039,0.144043,0.1459961,-0.137207
3287,4.3125,-64.3125,-106.625,-0.3666992,0.1333008,0.2558594,0.1416016,0.1547852,-0.1347656
3291,-4.9375,-49.9375,-97.6875,-0.28125,0.1953125,0.2749023,0.1357422,0.1635742,-0.1347656
3295,-20.5,-37.875,-88.1875,-0.262207,0.1333008,0.2866211,0.1357422,0.1713867,-0.1357422
3299,-27.8125,-30.625,-79.25,-0.3085938,0.02050781,0.3056641,0.1333008,0.1826172,-0.1333008
3303,-24.9375,-35.625,-66.875,-0.378418,-0.09570313,0.2597656,0.1308594,0.1884766,-0.1318359
3307,-14.4375,-43.875,-53.5625,-0.3164063,-0.1967773,0.2290039,0.1293945,0.1962891,-0.1318359
3311,-5.9375,-41.3125,-44.1875,-0.1611328,-0.2392578,0.2519531,0.128418,0.2026367,-0.1333008
3315,-10.0625,-20.8125,-35,-0.03320313,-0.1889648,0.2827148,0.128418,0.2036133,-0.1333008
3319,-21.875,2.5,-33.625,-0.1572266,-0.1113281,0.355957,0.1259766,0.2099609,-0.1333008
3323,-30.6875,4.25,-30.375,-0.3320313,-0.1733398,0.3867188,0.1269531,0.2148438,-0.1318359
3327,-29.8125,-7.5,-25.375,-0.3935547,-0.2084961,0.3637695,0.1269531,0.2124023,-0.1303711
3331,-22.875,-19.0625,-18.75,-0.2700195,-0.3134766,0.2983398,0.1259766,0.2163086,-0.1303711
3335,-14.375,-14.8125,-8.75,-0.1420898,-0.3286133,0.2597656,0.125,0.21875,-0.1303711
3339,-10.875,-1.5,-1.0625,-0.1069336,-0.3286133,0.2709961,0.125,0.2197266,-0.1279297
3343,-9,9.875,6.25,-0.1689453,-0.3095703,0.3056641,0.1259766,0.2211914,-0.1279297
3347,-8.625,13.375,12.375,-0.2504883,-0.2939453,0.3442383,0.1269531,0.2211914,-0.125
3351,-10.0625,12.5,16.5,-0.296875,-0.2783203,0.3330078,0.1269531,0.2211914,-0.1235352
3355,-11.1875,12,18.5625,-0.2890625,-0.2861328,0.3134766,0.128418,0.2197266,-0.1225586
3359,-7.25,10.4375,21.8125,-0.2734375,-0.3208008,0.2866211,0.128418,0.2172852,-0.1196289
3363,1.3125,11.625,30.1875,-0.2387695,-0.3173828,0.2788086,0.128418,0.2197266,-0.1166992
3367,8,16.1875,37.25,-0.2192383,-0.2744141,0.2597656,0.1293945,0.2148438,-0.1142578
3371,11.875,20.75,43.5625,-0.2543945,-0.2124023,0.2709961,0.1308594,0.2099609,-0.1157227
3375,11.3125,21,44.1875,-0.3203125,-0.1538086,0.2675781,0.1318359,0.2060547,-0.1142578
3379,12.75,20.875,47.0625,-0.2700195,-0.1616211,0.3017578,0.1318359,0.2011719,-0.1142578
3383,16.5625,23.25,54.3125,-0.3164063,-0.09570313,0.3056641,0.1333008,0.1948242,-0.1098633
3387,13.4375,22.5625,62.1875,-0.3432617,-0.05273438,0.3095703,0.1333008,0.1860352,-0.1142578
3391,14.1875,23.5625,71.6875,-0.3666992,-0.06835938,0.3017578,0.1342773,0.1811523,-0.1157227
3395,13.1875,27.125,76.125,-0.3706055,-0.05273438,0.2827148,0.1342773,0.1713867,-0.1157227
3400,14.5,31,79.75,-0.4052734,-0.01806641,0.2944336,0.1342773,0.1650391,-0.1210938
3404,13.1875,35.0625,89.3125,-0.4790039,0.03613281,0.2636719,0.1357422,0.1538086,-0.1210938
3408,10,38.1875,98.1875,-0.5292969,-0.002441406,0.2597656,0.1367188,0.1435547,-0.1264648
3412,11.5,43.6875,109,-0.5834961,-0.07617188,0.2558594,0.1357422,0.1376953,-0.1303711
3416,14.8125,48.4375,114.5,-0.6572266,-0.08789063,0.2749023,0.1376953,0.1289063,-0.1401367
3420,14.4375,55.6875,115,-0.6845703,-0.06445313,0.2983398,0.1425781,0.1210938,-0.1484375
3424,9.75,64.8125,116.875,-0.831543,0.0009765625,0.3364258,0.1484375,0.1186523,-0.1547852
3428,-2.1875,69.5625,118.0625,-0.9130859,0.0009765625,0.340332,0.1591797,0.1137695,-0.1616211
3432,-8.8125,72,117.875,-0.9907227,-0.06054688,0.3364258,0.1738281,0.1098633,-0.1728516
3436,-9.75,70.875,113.3125,-1.021484,-0.1230469,0.2944336,0.1855469,0.1123047,-0.175293
3440,-6.1875,75.3125,116.1875,-0.9750977,-0.09570313,0.3134766,0.2104492,0.1152344,-0.1782227
3444,-17.25,87.375,121.6875,-1.044922,-0.01416016,0.3291016,0.2368164,0.1152344,-0.1738281
3448,-32,92.5,120,-1.223145,-0.04541016,0.3212891,0.2543945,0.1137695,-0.1660156
3452,-33.875,85,112.4375,-1.343262,-0.1499023,0.2983398,0.2783203,0.1152344,-0.1416016
3456,-22,71.125,107.8125,-1.343262,-0.2314453,0.2749023,0.2973633,0.1123047,-0.1142578
3460,-7.875,61.75,105.625,-1.253906,-0.1733398,0.2480469,0.3046875,0.1049805,-0.09375
3464,-8.625,63.75,100.8125,-1.165039,-0.04541016,0.2290039,0.309082,0.09765625,-0.06787109
3468,-15.9375,68.4375,98.1875,-1.20752,-0.05273438,0.2060547,0.3081055,0.08642578,-0.04052734
3472,-8.8125,62.5625,98.5,-1.25,-0.1694336,0.1748047,0.3046875,0.07763672,-0.02734375
3476,10.25,55,98.25,-1.292969,-0.1459961,0.1674805,0.2949219,0.06494141,-0.01220703
3480,27.0625,43.75,92.875,-1.277344,0.01660156,0.1904297,0.2890625,0.04980469,-0.001464844
3484,26.9375,41.5625,93.9375,-1.137695,0.1601563,0.1904297,0.2832031,0.04150391,0.006347656
3488,8.125,57.6875,91.125,-1.044922,0.3081055,0.1826172,0.2734375,0.02392578,0.01074219
3492,-20.4375,75.375,82.5,-1.056641,0.3583984,0.1635742,0.2641602,0.007324219,0.01318359
3496,-33.5,81.5,81.1875,-1.141602,0.171875,0.1367188,0.2583008,-0.001953125,0.01855469
3500,-25.3125,77.75,80.4375,-1.199707,0.1601563,0.140625,0.2509766,-0.01708984,0.01708984
3504,-14.875,68.375,79.4375,-1.230957,0.253418,0.1635742,0.2412109,-0.03173828,0.01171875
3508,-16.125,59.625,90.0625,-1.253906,0.3701172,0.1518555,0.2353516,-0.04199219,0.0078125
3512,-27.9375,60.8125,88.75,-1.15332,0.3232422,0.144043,0.230957,-0.0546875,-0.002441406
3516,-32.75,65.875,80.6875,-1.161133,0.3349609,0.105957,0.2270508,-0.06445313,-0.01220703
3520,-38.8125,66.8125,74.3125,-1.137695,0.3623047,0.09423828,0.2260742,-0.07080078,-0.01904297
3524,-39.9375,65.875,75.1875,-1.137695,0.4052734,0.1367188,0.2246094,-0.07421875,-0.02832031
3529,-40.4375,56.75,81.8125,-1.168945,0.4438477,0.1020508,0.2260742,-0.078125,-0.03662109
3533,-45.125,50.9375,90.5,-1.149414,0.4165039,0.07910156,0.2246094,-0.08300781,-0.04638672
3537,-49.125,49.6875,95.1875,-1.176758,0.3583984,0.04443359,0.2285156,-0.08300781,-0.05419922
3541,-45.9375,42.5625,93.5625,-1.191895,0.300293,0.03662109,0.2285156,-0.09082031,-0.05957031
3545,-38.375,36.625,87.375,-1.12207,0.3271484,0.01708984,0.2294922,-0.08935547,-0.06103516
3549,-38.1875,39.4375,79,-1.067871,0.4204102,0.02099609,0.2319336,-0.09326172,-0.06640625
3553,-44.1875,36.5,80.9375,-1.187988,0.3974609,-0.02441406,0.2368164,-0.09570313,-0.06933594
3557,-36.4375,23.25,87.5,-1.211426,0.2416992,-0.02441406,0.2353516,-0.09423828,-0.07080078
3561,-13.9375,15.3125,98.8125,-1.114746,0.21875,-0.02441406,0.237793,-0.09814453,-0.07324219
3565,3,15.0625,109.75,-1.021484,0.3583984,-0.01660156,0.2412109,-0.1054688,-0.07617188
3569,-1.6875,30.875,124,-0.9052734,0.6264648,-0.02441406,0.2402344,-0.1118164,-0.07617188
3573,-37,51.625,145.6875,-1.056641,0.809082,-0.07861328,0.2412109,-0.1196289,-0.08007813
3577,-76,42.375,155.625,-1.242188,0.5332031,-0.1401367,0.2392578,-0.1293945,-0.07763672
3581,-70.0625,36,126.75,-1.118652,0.06689453,-0.1362305,0.2402344,-0.1381836,-0.08154297
3585,-36.0625,33.5625,101.75,-1.211426,-0.07617188,-0.128418,0.2368164,-0.1455078,-0.08544922
3589,-4.625,19.75,81.875,-1.253906,0.1020508,-0.05126953,0.2353516,-0.1542969,-0.08984375
3593,12.625,3.875,62.5,-1.234863,0.3041992,-0.02441406,0.2368164,-0.1542969,-0.09082031
3597,20.75,-7.0625,52.875,-1.087402,0.4711914,-0.04736328,0.2353516,-0.1606445,-0.09765625
3601,13.375,-3.125,51.6875,-0.9868164,0.5644531,-0.06298828,0.2353516,-0.1630859,-0.1005859
3605,4.1875,7,40.25,-0.9438477,0.4321289,-0.08984375,0.234375,-0.1655273,-0.1005859
3609,7.1875,6.4375,26.4375,-1.114746,0.3701172,-0.0859375,0.2353516,-0.1655273,-0.1035156
3613,15,-5.875,13.4375,-1.161133,0.3623047,-0.02441406,0.2353516,-0.1679688,-0.1005859
3617,22.75,-19.25,-1.1875,-1.227051,0.4086914,0.01367188,0.2368164,-0.1679688,-0.09521484
3621,25.5625,-34.625,-13.75,-1.219238,0.3857422,0.01367188,0.2368164,-0.1669922,-0.09375
3625,34.125,-45.875,-29.0625,-1.242188,0.3041992,-0.001464844,0.234375,-0.1679688,-0.09082031
3629,48.1875,-62.625,-40.25,-1.315918,0.2807617,0.009765625,0.234375,-0.1669922,-0.08837891
3633,61.9375,-78.75,-51.125,-1.327637,0.2963867,0.04052734,0.234375,-0.1645508,-0.08691406
3637,71,-93.9375,-60.0625,-1.362793,0.3544922,0.02490234,0.230957,-0.1621094,-0.08447266
3641,73.625,-101.375,-70.875,-1.308105,0.4125977,0.03271484,0.2319336,-0.1621094,-0.08691406
3645,68.6875,-101.9375,-82.5625,-1.35498,0.4829102,0.05957031,0.2294922,-0.1582031,-0.08447266
3649,61.875,-104.75,-93,-1.389648,0.4907227,0.07910156,0.2285156,-0.1533203,-0.08544922
3653,56.3125,-106.5625,-97.6875,-1.339355,0.5214844,0.09814453,0.2270508,-0.1518555,-0.08691406
3658,44.8125,-97.3125,-104.875,-1.253906,0.5722656,0.1171875,0.2246094,-0.1469727,-0.08691406
3662,23.5,-77.8125,-110.625,-1.219238,0.6147461,0.125,0.222168,-0.1430664,-0.08447266
3666,-0.1875,-57,-123.9375,-1.292969,0.5332031,0.1367188,0.222168,-0.1367188,-0.08300781
3670,-11.9375,-46.3125,-137.25,-1.416992,0.4711914,0.1635742,0.222168,-0.1318359,-0.07763672
3674,-13.4375,-49.3125,-145.1875,-1.521484,0.3857422,0.1635742,0.2246094,-0.1230469,-0.07177734
3678,-6.0625,-58.125,-145.9375,-1.57959,0.3662109,0.1943359,0.2270508,-0.1142578,-0.0625
3682,0.875,-68.6875,-148.4375,-1.556152,0.4125977,0.1826172,0.2294922,-0.09960938,-0.05273438
3686,1.375,-72.375,-154.375,-1.494141,0.4790039,0.1865234,0.2402344,-0.08837891,-0.04638672
3690,-4.5,-71.3125,-162.375,-1.486328,0.5410156,0.1982422,0.2451172,-0.07568359,-0.04052734
3694,-8.625,-74.75,-171.0625,-1.459473,0.5136719,0.1904297,0.253418,-0.05712891,-0.03808594
3698,-7.5625,-75.875,-175.6875,-1.40918,0.5097656,0.1748047,0.2651367,-0.03466797,-0.03808594
3702,-9.375,-72.875,-177,-1.343262,0.5449219,0.1865234,0.2709961,-0.02050781,-0.04492188
3706,-14.4375,-68,-177.0625,-1.315918,0.5292969,0.1826172,0.2792969,0,-0.05175781
3710,-16.1875,-69.625,-175.375,-1.397461,0.5371094,0.1943359,0.2841797,0.02148438,-0.06542969
3714,-13.6875,-79.75,-170.875,-1.343262,0.4750977,0.2060547,0.2841797,0.03271484,-0.07861328
3718,-7.8125,-83.4375,-164.75,-1.211426,0.4516602,0.1982422,0.2817383,0.04980469,-0.09765625
3722,-10.8125,-75.5625,-161.5625,-1.067871,0.4633789,0.1787109,0.2724609,0.06640625,-0.1157227
3726,-23.5625,-52.6875,-156.75,-0.9790039,0.4750977,0.2402344,0.2641602,0.07128906,-0.1279297
3730,-41.6875,-28.8125,-159.25,-1.037109,0.4321289,0.2636719,0.2485352,0.08105469,-0.137207
3734,-51.0625,-22.6875,-164.0625,-1.176758,0.3081055,0.2675781,0.2329102,0.09375,-0.137207
3738,-47.8125,-26.4375,-161.125,-1.172852,0.2299805,0.3134766,0.222168,0.1000977,-0.1357422
3742,-50.5625,-27,-153.6875,-1.013672,0.2807617,0.2402344,0.2070313,0.1088867,-0.1318359
3746,-87.4375,21.8125,-142.0625,-0.6455078,0.2416992,0.2250977,0.1938477,0.1176758,-0.1210938
3750,-128.125,84.75,-162.5625,-0.8125,0.140625,0.1367188,0.1879883,0.1289063,-0.1088867
3754,-141.875,106.1875,-187.4375,-1.149414,-0.1230469,0.105957,0.1831055,0.1401367,-0.08447266
3758,-112.625,84.0625,-182.125,-1.269531,-0.3286133,0.105957,0.1757813,0.15625,-0.06396484
3762,-62.4375,42.375,-167.9375,-1.211426,-0.3793945,0.09033203,0.1723633,0.1625977,-0.05273438
3766,-20.6875,9.4375,-146.625,-0.9633789,-0.2392578,0.03662109,0.1665039,0.1772461,-0.04052734
3770,4.8125,-2.4375,-136.1875,-0.7348633,-0.1420898,0.005859375,0.1606445,0.1899414,-0.02832031
3774,20,1.5625,-123.25,-0.5253906,0.03222656,0.01367188,0.1630859,0.1987305,-0.02832031
3778,14.3125,19.5625,-120.25,-0.3007813,0.171875,0.08251953,0.1606445,0.2099609,-0.02832031
3782,-2.0625,30.1875,-124.875,-0.3393555,0.3120117,0.1787109,0.1567383,0.2226563,-0.02441406
3787,-20.25,12.5,-122.6875,-0.4672852,0.3388672,0.2329102,0.1533203,0.2285156,-0.02441406
3791,-30.5625,-6.75,-97.6875,-0.2661133,0.04003906,0.2290039,0.1508789,0.2397461,-0.02294922
3795,-18.8125,-15.5,-83.375,-0.1650391,-0.09179688,0.1904297,0.1459961,0.25,-0.02148438
3799,-10.625,-24.5,-70.375,-0.09521484,-0.1538086,0.08251953,0.144043,0.2563477,-0.02050781
3803,3.0625,-28.25,-64.6875,-0.002441406,-0.2006836,0.08251953,0.1416016,0.2612305,-0.02441406
3807,11.25,-29.625,-47.9375,0.05126953,-0.07617188,0.03662109,0.1391602,0.2661133,-0.02832031
3811,6.1875,-24.25,-32.4375,0.1210938,-0.06054688,0.05566406,0.1376953,0.2709961,-0.02978516
3815,-3.25,-19.25,-14.1875,0.07080078,-0.09179688,0.05175781,0.1342773,0.2739258,-0.03369141
3819,-10.3125,-13.5625,-4.9375,0.05126953,-0.2509766,0.05566406,0.1376953,0.2749023,-0.03369141
3823,-7.875,-12.3125,-2.5625,0.004882813,-0.3637695,0.02099609,0.1357422,0.2763672,-0.03271484
3827,4.75,-15.6875,2.0625,0.01660156,-0.3676758,0.05957031,0.1376953,0.2773438,-0.03271484
3831,11.6875,-19.375,14.8125,0.03173828,-0.2509766,0.105957,0.1376953,0.2749023,-0.03369141
3835,15.3125,-21.5625,28,0.03564453,-0.2626953,0.09423828,0.1391602,0.2739258,-0.03515625
3839,16.9375,-19.0625,42.125,0.02441406,-0.2202148,0.07128906,0.1401367,0.2724609,-0.03808594
3843,13.0625,-13.6875,50,0.06298828,-0.2163086,0.03662109,0.1416016,0.2685547,-0.03662109
3847,11.5625,0.125,57.5,0.07080078,-0.1811523,0.08642578,0.1474609,0.2651367,-0.03955078
3851,6.9375,9.125,65.625,-0.05664063,-0.09570313,0.1132813,0.1499023,0.2587891,-0.03808594
3855,1.1875,8.3125,77.4375,-0.2001953,-0.1381836,0.1367188,0.1523438,0.2509766,-0.03662109
3859,4,0.375,84.875,-0.2890625,-0.2241211,0.1479492,0.1533203,0.2475586,-0.03369141
3863,12.5625,-5.8125,92.4375,-0.2543945,-0.2202148,0.1289063,0.1567383,0.2373047,-0.03662109
3867,10.9375,7.125,101.75,-0.2348633,-0.1113281,0.1748047,0.1616211,0.2285156,-0.03369141
3871,3.9375,16.125,113.1875,-0.4208984,-0.07226563,0.1674805,0.1616211,0.2226563,-0.03369141
3875,2.9375,15.8125,119.0625,-0.5566406,-0.1035156,0.2060547,0.1650391,0.2114258,-0.03271484
3879,4.4375,7.4375,124.3125,-0.6030273,-0.1308594,0.2021484,0.1674805,0.1987305,-0.03662109
3883,7.625,7.875,126.8125,-0.6264648,-0.04150391,0.2094727,0.1699219,0.1914063,-0.03662109
3887,-0.1875,15,132.25,-0.6728516,0.01269531,0.2250977,0.1699219,0.1787109,-0.04345703
3891,-11.3125,21.375,140.4375,-0.8007813,0.02832031,0.1982422,0.1748047,0.1699219,-0.04736328
3895,-20.625,24.0625,137.25,-0.8706055,-0.09179688,0.1982422,0.1772461,0.1601563,-0.05175781
3899,-22.6875,28.4375,134.6875,-0.8857422,-0.1577148,0.1289063,0.1806641,0.1489258,-0.05566406
3903,-18.875,34.375,136.25,-1.001953,-0.1152344,0.125,0.1865234,0.1401367,-0.06103516
3907,-15.125,30.9375,139.9375,-1.149414,-0.1035156,0.1367188,0.1948242,0.1323242,-0.06787109
3911,-5.1875,16.1875,145.0625,-1.25,-0.1269531,0.1479492,0.2045898,0.1274414,-0.07177734
3916,4.875,5.75,146.5625,-1.191895,-0.1499023,0.125,0.2163086,0.1225586,-0.08154297
3920,2.25,15.5,147.9375,-1.025391,-0.04541016,0.05175781,0.2270508,0.1162109,-0.08447266
3924,-12.625,47.6875,142.0625,-1.071777,0.01660156,0.06738281,0.2426758,0.1098633,-0.08447266
3928,-25.375,58.5625,133.625,-1.358887,-0.01806641,0.1020508,0.2592773,0.1049805,-0.07763672
3932,-11.1875,36.3125,130.625,-1.571777,-0.1074219,0.1904297,0.2675781,0.09619141,-0.06787109
3936,5.625,3.5625,138.1875,-1.420898,-0.02197266,0.1098633,0.2807617,0.08886719,-0.05273438
3940,11.4375,10.875,136.5,-1.141602,-0.006347656,0.09423828,0.2890625,0.07519531,-0.04345703
3944,5.3125,24.625,127.5,-1.211426,0.1992188,0.03662109,0.2924805,0.06738281,-0.03271484
3948,2.8125,28.4375,121.8125,-1.25,0.1835938,0.1171875,0.2949219,0.05273438,-0.01904297
3952,16.25,13.25,124.6875,-1.35498,0.2299805,0.1557617,0.2924805,0.03613281,-0.006835938
3956,21.3125,0.125,134.3125,-1.191895,0.3427734,0.1328125,0.2915039,0.02392578,0
3960,11.625,11.9375,136.9375,-1.029297,0.3505859,0.105957,0.2856445,0.008789063,0.00390625
3964,-0.625,32.5,132.125,-1.021484,0.3935547,0.06738281,0.2783203,-0.009277344,0.01074219
3968,-11.0625,45.4375,130.3125,-1.157227,0.4086914,0.04443359,0.2734375,-0.02441406,0.0078125
3972,-8.75,41.0625,127.5,-1.296875,0.3232422,0.08251953,0.2626953,-0.04296875,0.009277344
3976,5.6875,23.4375,129.25,-1.381836,0.3505859,0.1210938,0.2543945,-0.05957031,0.0078125
3980,8.75,17.6875,132.3125,-1.253906,0.3896484,0.1171875,0.2475586,-0.07080078,-0.001464844
3984,7.9375,20,126.25,-1.172852,0.5019531,0.08642578,0.2412109,-0.08300781,-0.01220703
3988,-11.1875,40.25,121.4375,-1.044922,0.6694336,0.05957031,0.234375,-0.09716797,-0.02050781
3992,-39.375,56.625,115.8125,-1.234863,0.5683594,0.01367188,0.2294922,-0.09960938,-0.02832031
3996,-41.8125,54.9375,114.875,-1.304199,0.2963867,0.001953125,0.2294922,-0.1069336,-0.03955078
4000,-24.6875,45,112.625,-1.436035,0.2299805,-0.001464844,0.2260742,-0.1118164,-0.04736328
4004,-8.4375,24.3125,108.75,-1.439941,0.2612305,0.02099609,0.2270508,-0.1142578,-0.05273438
4008,4,10.25,101.25,-1.331543,0.3779297,0.01708984,0.2270508,-0.1181641,-0.0625
4012,8.0625,6.625,96.4375,-1.149414,0.5253906,-0.01318359,0.2260742,-0.1220703,-0.06933594
4016,-4.9375,18.6875,92.6875,-1.009766,0.6264648,-0.07080078,0.2294922,-0.1230469,-0.06787109
4020,-17.875,38.9375,92.6875,-1.009766,0.5800781,-0.05126953,0.2294922,-0.1269531,-0.07617188
4024,-23.375,45.1875,100.375,-1.125977,0.4321289,-0.1054688,0.230957,-0.1318359,-0.07617188
4028,-16.1875,45.8125,100.0625,-1.103027,0.3193359,-0.1054688,0.2319336,-0.1357422,-0.07763672
4032,-5.9375,49.4375,102.4375,-1.083496,0.3662109,-0.1899414,0.2329102,-0.140625,-0.08007813
4036,-3.9375,51.3125,98.625,-1.246094,0.5136719,-0.1899414,0.2329102,-0.1469727,-0.07861328
4040,-1.3125,26.25,84.25,-1.269531,0.3120117,-0.2207031,0.2329102,-0.1533203,-0.08007813
4045,25.375,18.9375,77.25,-1.165039,0.2070313,-0.08984375,0.234375,-0.1567383,-0.08447266
4049,38.3125,17.5,61.125,-1.141602,0.4477539,-0.05126953,0.2319336,-0.1645508,-0.08447266
4053,26.8125,14.8125,50.8125,-1.191895,0.6616211,0.06347656,0.2319336,-0.1655273,-0.08691406
4057,6.625,5.125,46.875,-1.25,0.6030273,0.07128906,0.2294922,-0.1694336,-0.08984375
4061,0.5,-5.0625,35.5625,-1.292969,0.3818359,0.03662109,0.2329102,-0.171875,-0.09375
4065,8.5,-15.8125,25.1875,-1.304199,0.2148438,-0.04394531,0.230957,-0.171875,-0.09667969
4069,22,-24,6.5625,-1.32373,0.1992188,-0.04736328,0.230957,-0.1767578,-0.09912109
4073,30.8125,-37.375,-8,-1.362793,0.2573242,-0.04394531,0.2294922,-0.1767578,-0.09765625
4077,40.125,-50.0625,-19.25,-1.315918,0.300293,-0.009277344,0.2294922,-0.1767578,-0.09521484
4081,44,-58.375,-23.6875,-1.273438,0.3974609,0.001953125,0.2285156,-0.1743164,-0.09082031
4085,40.875,-58.75,-34,-1.180664,0.4321289,-0.01660156,0.2270508,-0.1743164,-0.08691406
4089,34.9375,-52.0625,-45.625,-1.191895,0.4829102,0.009765625,0.2270508,-0.1743164,-0.08837891
4093,26.0625,-45.1875,-57.25,-1.227051,0.5097656,0.05957031,0.2285156,-0.1704102,-0.08544922
4097,20.6875,-49,-69.0625,-1.312012,0.4868164,0.08642578,0.2260742,-0.1655273,-0.08154297
4101,21.5,-54.4375,-74.4375,-1.315918,0.4868164,0.105957,0.2270508,-0.1630859,-0.08447266
4105,16.9375,-54.0625,-80.75,-1.319824,0.5605469,0.1210938,0.2270508,-0.1606445,-0.08007813
4109,6.9375,-51.3125,-87.5625,-1.331543,0.5761719,0.1132813,0.2236328,-0.1557617,-0.08154297
4113,-8.375,-34.375,-90.875,-1.300781,0.5214844,0.1132813,0.2236328,-0.1533203,-0.07470703
4117,-29.375,-5.25,-103.5625,-1.304199,0.4790039,0.1367188,0.2211914,-0.1479492,-0.07324219
4121,-52.9375,26.5,-118.25,-1.509766,0.4516602,0.140625,0.222168,-0.1420898,-0.06640625
4125,-66.75,37.6875,-138.375,-1.800293,0.3388672,0.140625,0.222168,-0.1381836,-0.05957031
4129,-60.875,27.9375,-152.125,-2.001953,0.1796875,0.125,0.222168,-0.1308594,-0.04638672
4133,-37.625,4.875,-165.375,-2.137695,0.1254883,0.07519531,0.2236328,-0.1254883,-0.02832031
4137,-13.5,-25.125,-182.25,-2.203613,0.2226563,0.05566406,0.2246094,-0.1157227,-0.01464844
4141,8.8125,-59.625,-200.3125,-2.156738,0.3583984,0.01708984,0.234375,-0.1030273,0.004882813
4145,25.3125,-86.5,-209.25,-2.032715,0.5332031,0.01367188,0.2475586,-0.08203125,0.02148438
4149,35.3125,-107,-212.625,-1.866211,0.7041016,0.001953125,0.2626953,-0.06445313,0.02685547
4153,27.875,-110.25,-216.5,-1.618164,0.840332,-0.03222656,0.2817383,-0.03320313,0.02392578
4157,9.5,-91.6875,-221.4375,-1.45166,0.953125,-0.01318359,0.2983398,-0.0004882813,0.0078125
4161,-12.75,-76.125,-228.4375,-1.420898,0.921875,-0.001464844,0.3081055,0.01513672,-0.009277344
4165,-20.8125,-69.75,-223.8125,-1.459473,0.7973633,0.04785156,0.3129883,0.04394531,-0.03955078
4169,-19.375,-72.5,-218,-1.405273,0.6655273,0.05175781,0.3007813,0.06640625,-0.07080078
4174,-13.1875,-78.1875,-214.9375,-1.405273,0.6420898,0.04785156,0.2880859,0.07519531,-0.09082031
4178,-10.875,-85,-214.25,-1.261719,0.5839844,0.02880859,0.2592773,0.08886719,-0.105957
4182,-5.625,-84.8125,-213.375,-1.133789,0.5332031,-0.001464844,0.2270508,0.09863281,-0.1098633
4186,-5.125,-76.8125,-212.25,-0.9868164,0.5527344,0.03662109,0.2080078,0.1049805,-0.105957
4190,-11.375,-67.25,-203.125,-0.9052734,0.5292969,0.04052734,0.1914063,0.1123047,-0.09521484
4194,-19.6875,-51.6875,-189.4375,-0.8354492,0.4125977,0.09423828,0.1806641,0.125,-0.08007813
4198,-25.0625,-42.0625,-181.1875,-0.847168,0.3041992,0.07519531,0.1796875,0.1347656,-0.06640625
4202,-31.6875,-23.9375,-172.875,-0.6806641,0.2265625,0.07910156,0.1738281,0.1489258,-0.05566406
4206,-48.1875,16.875,-175.8125,-0.5449219,0.1835938,0.1020508,0.1738281,0.1674805,-0.04345703
4210,-66.1875,56,-189.875,-0.6147461,0.1601563,0.1635742,0.1723633,0.1801758,-0.03662109
4214,-67.6875,61.125,-191.6875,-0.8276367,0.01660156,0.2172852,0.1699219,0.2011719,-0.02148438
4218,-43,33,-178.5625,-0.8549805,-0.1191406,0.2709961,0.1650391,0.21875,-0.01611328
4222,-14.0625,-0.4375,-147.75,-0.7075195,-0.07226563,0.2290039,0.1650391,0.2299805,-0.01367188
4226,0,-19.375,-131.4375,-0.3901367,0.03222656,0.1557617,0.1616211,0.2485352,-0.01611328
4230,0.0625,-13.375,-122.3125,-0.08789063,0.1254883,0.1328125,0.1567383,0.2636719,-0.02050781
4234,-4.8125,-1.75,-118,0.03564453,0.1601563,0.1020508,0.1567383,0.2700195,-0.02294922
4238,-9.0625,1,-106,0.02832031,0.21875,0.1171875,0.1508789,0.2788086,-0.03125
4242,-19.625,-12.5625,-83.3125,-0.01025391,0.2416992,0.08642578,0.144043,0.2885742,-0.03369141
4246,-32.3125,-24.5,-52.4375,0.1557617,-0.02587891,0.01708984,0.1376953,0.293457,-0.03662109
4250,-27.5625,-15.875,-31.25,0.2529297,-0.3173828,-0.03222656,0.1391602,0.2973633,-0.03662109
4254,-15.0625,-4.125,-31,0.2836914,-0.2900391,-0.001464844,0.1367188,0.2998047,-0.03955078
4258,1.5625,3.125,-29.3125,0.1635742,-0.3911133,0.009765625,0.1333008,0.3012695,-0.03955078
4262,7.5,-3.0625,-26.0625,0.02050781,-0.2006836,0.06347656,0.1333008,0.3046875,-0.04199219
4266,-3.125,-19.375,-7.25,-0.01416016,-0.2744141,0.02880859,0.1308594,0.3046875,-0.04638672
4270,-2.9375,-17.3125,6.3125,0.140625,-0.4648438,0.05957031,0.1308594,0.3085938,-0.04492188
4274,2.375,-5.25,10.625,0.09375,-0.4882813,0.06347656,0.1308594,0.3061523,-0.04492188
4278,4.9375,-2.375,9.5,-0.01806641,-0.4296875,0.09423828,0.1318359,0.3046875,-0.04492188
4282,3.8125,-6.3125,16.875,-0.07617188,-0.421875,0.1171875,0.1318359,0.3046875,-0.04638672
4286,2.4375,-7.875,25.3125,-0.03710938,-0.4648438,0.1098633,0.1357422,0.3037109,-0.04199219
4290,1.3125,3.125,30.1875,-0.01806641,-0.5112305,0.09033203,0.1342773,0.3012695,-0.04345703
4294,5.75,9.0625,36.3125,-0.1147461,-0.5,0.09814453,0.1391602,0.2973633,-0.04492188
4298,11.75,8.75,49,-0.1572266,-0.4609375,0.1518555,0.1401367,0.2949219,-0.04345703
4303,11.1875,5.4375,57.625,-0.2700195,-0.3911133,0.1713867,0.1425781,0.2910156,-0.04052734
4307,10.4375,-5.0625,59.1875,-0.3007813,-0.4882813,0.1674805,0.1474609,0.2851563,-0.04052734
4311,16.75,-9,54.9375,-0.1459961,-0.46875,0.159668,0.1523438,0.28125,-0.04199219
4315,17,1.4375,58.125,-0.1147461,-0.3095703,0.1171875,0.1523438,0.2763672,-0.04052734
4319,7.75,19.3125,71.8125,-0.1108398,-0.2314453,0.144043,0.1557617,0.2709961,-0.03662109
4323,0.125,32.4375,86.1875,-0.2851563,-0.2124023,0.1674805,0.1582031,0.2636719,-0.03125
4327,-1.875,31.4375,97.6875,-0.4013672,-0.3095703,0.2060547,0.1616211,0.2539063,-0.02734375
4331,3.6875,20.125,106.9375,-0.5527344,-0.3364258,0.2060547,0.1640625,0.2485352,-0.02441406
4335,10.4375,11.375,108.9375,-0.5214844,-0.340332,0.1865234,0.1674805,0.2387695,-0.02148438
4339,11.9375,18.25,110.3125,-0.5141602,-0.2202148,0.1982422,0.1689453,0.2275391,-0.02050781
4343,2.25,26.375,109.9375,-0.6303711,-0.1459961,0.2021484,0.1713867,0.21875,-0.02148438
4347,-2.9375,23.375,113.8125,-0.7543945,-0.2587891,0.1943359,0.1738281,0.2075195,-0.01757813
4351,10,7.9375,121.875,-0.8706055,-0.355957,0.1943359,0.1757813,0.1938477,-0.01757813
4355,28.125,-8.9375,125.6875,-0.796875,-0.3442383,0.1518555,0.1757813,0.1835938,-0.02441406
4359,30.8125,1.375,130.3125,-0.6845703,-0.1538086,0.1289063,0.1782227,0.1738281,-0.03271484
4363,18.9375,20.625,130.375,-0.7387695,-0.02978516,0.1479492,0.1782227,0.1611328,-0.03955078
4367,3,34.9375,127,-0.8549805,-0.02978516,0.1748047,0.1796875,0.1523438,-0.04492188
4371,2,30.75,127.6875,-1.063965,-0.1347656,0.1982422,0.184082,0.1411133,-0.05175781
4375,11.5,12.375,129.75,-1.087402,-0.1928711,0.1557617,0.1889648,0.1337891,-0.05957031
4379,21.6875,10.4375,132.125,-0.8857422,-0.1499023,0.144043,0.1914063,0.1289063,-0.06640625
4383,22.25,25.875,133.25,-0.9208984,0.02441406,0.1289063,0.2011719,0.1225586,-0.07763672
4387,11.9375,35.8125,131.625,-0.9907227,0.1137695,0.1713867,0.2094727,0.1137695,-0.08300781
4391,6.875,35.6875,130.125,-1.060547,0.1020508,0.1943359,0.21875,0.1113281,-0.08544922
4395,10.1875,26.3125,129.6875,-1.048828,0.1137695,0.1479492,0.2319336,0.1064453,-0.08984375
4399,18.9375,21.5,136.125,-0.8974609,0.203125,0.07519531,0.2485352,0.1000977,-0.08691406
4403,16.3125,44.875,151.25,-0.7543945,0.3193359,0.06738281,0.2583008,0.09619141,-0.08447266
4407,9.125,72.6875,156.375,-0.8857422,0.4399414,0.04443359,0.2758789,0.08642578,-0.07617188
4411,-5.5625,95.0625,154.4375,-0.9829102,0.5644531,0.1713867,0.2880859,0.07275391,-0.05566406
4415,-33.1875,104.875,157.0625,-1.257813,0.6733398,0.1674805,0.2949219,0.0625,-0.04052734
4419,-53.9375,92,153.9375,-1.37793,0.4946289,0.159668,0.2983398,0.04638672,-0.01367188
4423,-55.8125,80.625,149.1875,-1.37793,0.3896484,0.09814453,0.2924805,0.02880859,0.009277344
4427,-54.3125,71.1875,144.625,-1.413086,0.4013672,-0.009277344,0.2900391,0.01269531,0.01708984
4432,-49.6875,54.8125,151.4375,-1.509766,0.3623047,-0.1015625,0.2807617,-0.005859375,0.02978516
4436,-39.5625,40.25,151.8125,-1.490234,0.2148438,-0.1435547,0.2709961,-0.02685547,0.0390625
4440,-14.3125,24.5625,147.5625,-1.439941,0.1484375,-0.1630859,0.2641602,-0.04052734,0.03613281
4444,7.0625,17.25,141.1875,-1.32373,0.2963867,-0.1166992,0.2519531,-0.05810547,0.03076172
4448,15.3125,12.75,138.375,-1.312012,0.6030273,-0.06298828,0.2436523,-0.07421875,0.02001953
4452,-9.5625,24.6875,148.6875,-1.261719,0.6962891,-0.1015625,0.237793,-0.08300781,0.01464844
4456,-26,40.8125,138.5625,-1.347168,0.4013672,-0.09765625,0.2329102,-0.09814453,-0.001464844
4460,-18.4375,40.625,126.6875,-1.490234,0.2573242,-0.1054688,0.2294922,-0.1069336,-0.01367188
4464,-0.0625,27.125,123,-1.552246,0.237793,-0.06298828,0.2260742,-0.1108398,-0.01904297
4468,17.5,9.0625,114.1875,-1.455566,0.3193359,-0.01660156,0.2260742,-0.1157227,-0.02832031
4472,21.5,10.1875,115.375,-1.304199,0.4516602,-0.01318359,0.2260742,-0.1206055,-0.03662109
4476,9.3125,31.75,109.5625,-1.211426,0.5175781,-0.01660156,0.2285156,-0.1254883,-0.04199219
4480,-6.5625,47.875,93.75,-1.257813,0.5253906,-0.03613281,0.2294922,-0.1308594,-0.04638672
4484,-16.375,54.5,85.75,-1.308105,0.5019531,-0.05126953,0.230957,-0.1342773,-0.04345703
4488,-20.125,48.6875,77.125,-1.308105,0.4907227,-0.07470703,0.2319336,-0.1367188,-0.05175781
4492,-20.25,40.75,67.6875,-1.285156,0.4829102,-0.07080078,0.2353516,-0.1420898,-0.05175781
4496,-15.3125,31.0625,60.3125,-1.215332,0.4594727,-0.05126953,0.234375,-0.1420898,-0.05419922
4500,-9.5,21.375,62,-1.227051,0.4985352,-0.07080078,0.2353516,-0.1469727,-0.05419922
4504,-5.125,9.875,62,-1.125977,0.4829102,-0.08203125,0.2368164,-0.1508789,-0.05712891
4508,-2.0625,7.1875,58.5,-1.017578,0.5097656,-0.112793,0.2368164,-0.1567383,-0.0625
4512,-3.875,12.9375,55.4375,-0.9052734,0.5839844,-0.1206055,0.2353516,-0.1582031,-0.06103516
4516,-17.0625,25.25,57.3125,-0.9287109,0.6147461,-0.1669922,0.230957,-0.1630859,-0.06542969
4520,-29.375,31.625,47.9375,-1.025391,0.4946289,-0.1669922,0.2319336,-0.1655273,-0.06933594
4524,-24.1875,25.875,42.625,-1.141602,0.2416992,-0.1552734,0.2285156,-0.1704102,-0.06933594
4528,-3.25,11.6875,35.625,-1.199707,0.2416992,-0.1669922,0.2260742,-0.1733398,-0.07861328
4532,9.1875,-5.375,32.0625,-1.199707,0.300293,-0.1435547,0.2236328,-0.1791992,-0.08447266
4536,18.875,-16.8125,28.25,-1.223145,0.2885742,-0.1362305,0.2211914,-0.1821289,-0.08544922
4540,22.75,-26.0625,19.25,-1.223145,0.315918,-0.1743164,0.21875,-0.1831055,-0.08691406
4544,24.9375,-31.25,0.375,-1.28125,0.3120117,-0.1743164,0.215332,-0.1870117,-0.08544922
4548,28.625,-39.4375,-18.6875,-1.327637,0.2963867,-0.1401367,0.2177734,-0.1870117,-0.08544922
4552,34.9375,-49.9375,-29,-1.370117,0.2924805,-0.1166992,0.21875,-0.1831055,-0.07861328
4556,41.25,-63.375,-38.5625,-1.447754,0.3271484,-0.1166992,0.2211914,-0.1791992,-0.07324219
4561,48,-79.8125,-48.125,-1.443848,0.300293,-0.1323242,0.222168,-0.1767578,-0.07324219
4565,57,-91.4375,-55.5,-1.467285,0.3427734,-0.1401367,0.2246094,-0.171875,-0.07177734
4569,61.9375,-99.75,-65.625,-1.420898,0.3779297,-0.1206055,0.2236328,-0.1694336,-0.07080078
4573,60.125,-98.5,-77.25,-1.366211,0.4594727,-0.06689453,0.2236328,-0.1655273,-0.06933594
4577,52.4375,-90.5625,-88.1875,-1.351074,0.5253906,-0.02441406,0.2260742,-0.1621094,-0.06787109
4581,39.5,-86.1875,-100,-1.40918,0.5761719,-0.001464844,0.2211914,-0.1567383,-0.06787109
4585,29.9375,-84,-110.875,-1.45166,0.5410156,0.009765625,0.2177734,-0.1542969,-0.0625
4589,28.3125,-88.1875,-119.625,-1.479004,0.5019531,0.01367188,0.2177734,-0.1469727,-0.06103516
4593,27.3125,-90.25,-125.875,-1.45166,0.5214844,0.05175781,0.2202148,-0.140625,-0.05273438
4597,22.1875,-85.5625,-133.125,-1.401367,0.5800781,0.05957031,0.2177734,-0.1357422,-0.04736328
4601,13.5,-77.1875,-139.3125,-1.389648,0.6108398,0.1020508,0.2211914,-0.1245117,-0.03808594
4605,3.9375,-70.875,-146.5625,-1.463379,0.6499023,0.1210938,0.2285156,-0.1118164,-0.02587891
4609,-1.9375,-73.25,-152.875,-1.552246,0.6147461,0.144043,0.2329102,-0.1030273,-0.02050781
4613,-0.3125,-85.25,-161.0625,-1.587402,0.5878906,0.1367188,0.2460938,-0.08447266,-0.01220703
4617,2.5,-95.8125,-168,-1.479004,0.6499023,0.1210938,0.2583008,-0.06201172,-0.01074219
4621,-3.8125,-92.75,-176.375,-1.289063,0.793457,0.09423828,0.2651367,-0.04931641,-0.01757813
4625,-26.25,-72.1875,-185.125,-1.07959,0.8945313,0.09814453,0.2783203,-0.02685547,-0.02734375
4629,-50.3125,-48.375,-184.1875,-1.07959,0.7626953,0.09814453,0.2890625,-0.001953125,-0.03662109
4633,-53.0625,-37.1875,-169.9375,-1.15332,0.5644531,0.144043,0.2924805,0.01025391,-0.04638672
4637,-46,-37.4375,-162.3125,-1.227051,0.4750977,0.144043,0.2949219,0.02734375,-0.05859375
4641,-41,-40.5,-159,-1.25,0.4438477,0.1713867,0.2949219,0.04248047,-0.07763672
4645,-36.3125,-45.75,-159.6875,-1.230957,0.4086914,0.1674805,0.2900391,0.05371094,-0.08691406
4649,-34.5625,-47.6875,-163.375,-1.149414,0.3779297,0.1713867,0.2783203,0.06738281,-0.1005859
4653,-38.5625,-42.6875,-164.6875,-1.044922,0.4086914,0.159668,0.2617188,0.07763672,-0.1157227
4657,-45.8125,-31.9375,-161.5625,-1.048828,0.3388672,0.1748047,0.2475586,0.08740234,-0.1157227
4661,-40,-35,-158.75,-1.15332,0.2299805,0.1865234,0.230957,0.09521484,-0.1157227
4665,-27.625,-52.0625,-151.5,-1.168945,0.1757813,0.1635742,0.2138672,0.1035156,-0.112793
4669,-12.6875,-69.375,-145,-1.087402,0.1333008,0.1479492,0.2045898,0.1074219,-0.105957
4673,-0.1875,-81.4375,-139.25,-1.001953,0.1098633,0.09814453,0.1928711,0.1162109,-0.1005859
4677,1.375,-79.9375,-139.1875,-0.8007813,0.1601563,0.06347656,0.1855469,0.1264648,-0.09375
4681,-11.3125,-57.0625,-141.5,-0.6069336,0.15625,0.07519531,0.1831055,0.1289063,-0.09082031
4685,-21.6875,-35.875,-147.875,-0.6806641,0.1254883,0.1020508,0.1796875,0.1411133,-0.08544922
4690,-19.1875,-40.5625,-140.5625,-0.8198242,0.04394531,0.125,0.1748047,0.1547852,-0.07470703
4694,-20.5625,-45.625,-111.1875,-0.7192383,-0.1191406,0.03662109,0.1757813,0.1625977,-0.07617188
4698,-19.8125,-27.5,-94.875,-0.5795898,-0.3325195,0.04443359,0.1748047,0.1723633,-0.07324219
4702,-8.75,-6.125,-124.125,-0.6494141,-0.371582,0.1132813,0.1757813,0.1850586,-0.07080078
4706,4.9375,-12.25,-138.5625,-0.8276367,-0.2744141,0.1787109,0.1738281,0.1962891,-0.07177734
4710,19.3125,-38.625,-130.1875,-0.7543945,-0.1616211,0.2368164,0.1689453,0.2099609,-0.07470703
4714,30.25,-61.4375,-112.375,-0.5566406,-0.09960938,0.2094727,0.1640625,0.2211914,-0.08007813
4718,34.25,-68.75,-96.1875,-0.3164063,-0.08007813,0.1674805,0.1606445,0.2285156,-0.08837891
4722,33.75,-58.8125,-81.875,-0.1420898,-0.07617188,0.1635742,0.1557617,0.2363281,-0.09912109
4726,27.5,-38.75,-68.9375,0.004882813,-0.08398438,0.1826172,0.1533203,0.2426758,-0.1088867
4730,25.8125,-18.75,-60.4375,0.02050781,-0.08398438,0.2402344,0.1523438,0.2451172,-0.112793
4734,23.5625,-12.1875,-59.9375,-0.04882813,-0.01025391,0.2788086,0.1474609,0.2509766,-0.1210938
4738,21.4375,-26.4375,-64.1875,-0.1499023,0.09423828,0.2866211,0.144043,0.2509766,-0.1264648
4742,6,-40,-35.5,-0.06054688,0.09033203,0.1826172,0.1391602,0.2539063,-0.1279297
4746,-9.6875,-31.9375,-11.8125,0.1289063,-0.1850586,0.1982422,0.1391602,0.2563477,-0.1347656
4750,-1.1875,-8.75,-5.8125,0.1367188,-0.2666016,0.1982422,0.1376953,0.2573242,-0.1347656
4754,-7.625,9.4375,1.6875,0.07080078,-0.2548828,0.2094727,0.1376953,0.2573242,-0.1386719
4758,-7.8125,13.8125,-4.125,-0.07226563,-0.2783203,0.2827148,0.1391602,0.2563477,-0.1357422
4762,-4.6875,2.625,-4.125,-0.1884766,-0.2392578,0.2827148,0.1401367,0.2573242,-0.1347656
4766,-3.625,-6.375,19.25,-0.1342773,-0.324707,0.2211914,0.1391602,0.2563477,-0.1333008
4770,-0.625,2.4375,30,-0.01416016,-0.4296875,0.2441406,0.1376953,0.2563477,-0.1318359
4774,7.8125,14.6875,25.3125,-0.1030273,-0.3833008,0.2636719,0.1416016,0.2524414,-0.1303711
4778,9.25,9.25,23.375,-0.2426758,-0.2626953,0.2905273,0.1425781,0.2524414,-0.1289063
4782,10.1875,-1.625,33.5,-0.246582,-0.2353516,0.2905273,0.1425781,0.2509766,-0.1289063
4786,4.3125,3.9375,54.8125,-0.1459961,-0.3286133,0.2788086,0.1474609,0.2475586,-0.1279297
4790,9.625,18.25,56.25,-0.1767578,-0.3950195,0.2905273,0.1484375,0.2460938,-0.1264648
4794,14.4375,23.4375,47.5625,-0.3125,-0.2861328,0.3212891,0.1523438,0.2412109,-0.1225586
4798,17.25,13.875,43.8125,-0.4130859,-0.1655273,0.4135742,0.1533203,0.2363281,-0.1196289
4802,15.5625,0.9375,60.125,-0.4521484,-0.1230469,0.3979492,0.1557617,0.2314453,-0.1196289
4806,9.8125,-1.9375,78.1875,-0.4013672,-0.1889648,0.3945313,0.1557617,0.2260742,-0.1157227
4810,11.5625,3.5,83.625,-0.3974609,-0.2783203,0.3828125,0.1591797,0.2172852,-0.1142578
4814,11.6875,13,83.375,-0.4091797,-0.2470703,0.3867188,0.1630859,0.2114258,-0.1142578
4819,7.625,22.625,85.625,-0.5214844,-0.1928711,0.3979492,0.1640625,0.2026367,-0.1113281
4823,-3.8125,26.125,92.5,-0.6147461,-0.2470703,0.3828125,0.1665039,0.1938477,-0.105957
4827,-0.75,24,92.25,-0.7270508,-0.340332,0.3671875,0.1665039,0.1860352,-0.1074219
4831,3.125,19.9375,97.0625,-0.7348633,-0.3598633,0.3212891,0.1689453,0.1772461,-0.1044922
4835,7.3125,24.5625,98.25,-0.6845703,-0.387207,0.340332,0.1665039,0.1650391,-0.1044922
4839,12.625,31.25,96.1875,-0.7387695,-0.3364258,0.3364258,0.1674805,0.1611328,-0.1035156
4843,14.4375,32.125,96.1875,-0.8085938,-0.2705078,0.3251953,0.1689453,0.1513672,-0.1044922
4847,14.125,32.25,94.125,-0.847168,-0.2509766,0.355957,0.1699219,0.1401367,-0.1074219
4851,19.6875,25.5625,94.375,-0.862793,-0.2202148,0.3637695,0.1689453,0.1376953,-0.1098633
4855,21.875,22.75,92.4375,-0.847168,-0.1347656,0.3598633,0.1713867,0.1298828,-0.1157227
4859,18.6875,21.5,94.3125,-0.8007813,-0.1113281,0.3291016,0.1748047,0.1225586,-0.1235352
4863,15.375,28.5,92.25,-0.765625,-0.07226563,0.3442383,0.1757813,0.1162109,-0.1279297
4867,12.4375,34.9375,91.1875,-0.8549805,-0.04882813,0.3056641,0.1821289,0.1113281,-0.1347656
4871,18.4375,32,98.5625,-0.9399414,-0.08789063,0.3330078,0.1879883,0.1035156,-0.1425781
4875,27.875,28,107.8125,-0.9326172,-0.04882813,0.3520508,0.1948242,0.09765625,-0.1484375
4879,25.1875,36.0625,114.25,-0.8857422,0.004882813,0.3637695,0.203125,0.09228516,-0.1547852
4883,16.3125,49.75,111.9375,-0.9790039,0.01660156,0.3828125,0.21875,0.08984375,-0.1591797
4887,11.125,51.25,106.5,-1.129883,0.01660156,0.355957,0.2285156,0.08496094,-0.1606445
4891,10.75,42.625,100.5625,-1.199707,-0.03369141,0.340332,0.2460938,0.08007813,-0.15625
4895,22.3125,33.1875,99.8125,-1.184082,-0.05664063,0.3095703,0.2602539,0.07617188,-0.1523438
4899,34.6875,24.9375,103,-1.071777,-0.02978516,0.2441406,0.269043,0.07275391,-0.144043
4903,41.8125,29.875,104.5,-0.9594727,0.03222656,0.2211914,0.2807617,0.06640625,-0.1357422
4907,40.125,39.75,105.875,-0.9365234,0.140625,0.1865234,0.2890625,0.05761719,-0.1235352
4911,36.875,50.25,97.375,-0.9946289,0.2109375,0.1982422,0.2939453,0.05517578,-0.1113281
4915,35.375,53.9375,95.875,-1.056641,0.315918,0.2094727,0.2998047,0.04492188,-0.09521484
4919,31.25,52.375,96.125,-1.106934,0.3583984,0.2172852,0.2998047,0.03271484,-0.08007813
4923,20.9375,53.9375,98.375,-1.025391,0.4243164,0.1826172,0.2998047,0.02734375,-0.06787109
4927,7.3125,65.8125,92.5,-1.009766,0.4165039,0.1787109,0.2939453,0.01513672,-0.05419922
4931,2.5625,63.3125,95.1875,-1.15332,0.2612305,0.140625,0.2880859,0.002441406,-0.04052734
4935,19.5625,51.8125,96.0625,-1.211426,0.2109375,0.1518555,0.2856445,-0.005859375,-0.03515625
4939,28.5625,41.0625,99.375,-1.12207,0.3271484,0.1098633,0.2758789,-0.02050781,-0.02832031
4943,27.625,51.125,90.875,-0.9790039,0.3818359,0.1367188,0.2666016,-0.03320313,-0.02587891
4948,17.6875,63.8125,83.0625,-0.9907227,0.5952148,0.1479492,0.2641602,-0.04589844,-0.02587891
4952,-4.1875,74.4375,79.6875,-1.056641,0.7080078,0.1748047,0.253418,-0.05712891,-0.02734375
4956,-17.75,61.5,91.3125,-1.304199,0.4321289,0.140625,0.2451172,-0.06933594,-0.02734375
4960,0.375,32.3125,87.4375,-1.35498,0.1679688,0.1210938,0.237793,-0.07958984,-0.03369141
4964,27.25,-1.875,71.875,-1.315918,0.1484375,0.08642578,0.2319336,-0.08935547,-0.04345703
4968,43.9375,-23.3125,50.5625,-1.180664,0.3271484,0.1098633,0.2285156,-0.09570313,-0.05712891
4972,46.1875,-26.8125,33.5625,-1.037109,0.5800781,0.1674805,0.2270508,-0.09814453,-0.06396484
4976,24.5625,-9.0625,25.75,-0.9130859,0.809082,0.1098633,0.2236328,-0.09960938,-0.07617188
4980,-9.3125,22.75,53.6875,-0.9091797,0.7392578,0.144043,0.222168,-0.1030273,-0.08544922
4984,-26.125,41.5,80.375,-0.9946289,0.5683594,0.140625,0.222168,-0.1044922,-0.09082031
4988,-29.75,54.0625,86.3125,-1.083496,0.4204102,0.1713867,0.222168,-0.1083984,-0.09375
4992,-28.1875,61.375,84.8125,-1.114746,0.3427734,0.1982422,0.2236328,-0.1132813,-0.09912109
4996,-30.5625,72.625,73.6875,-1.12207,0.4165039,0.2172852,0.2260742,-0.1157227,-0.1020508
5000,-39.625,73.25,70.1875,-1.23877,0.3623047,0.2172852,0.2260742,-0.1181641,-0.1035156
5004,-39.4375,71.3125,66.8125,-1.28125,0.2612305,0.2290039,0.230957,-0.1206055,-0.1044922
5008,-30.9375,62.4375,65.5,-1.292969,0.1523438,0.2329102,0.2329102,-0.1254883,-0.105957
5012,-18.25,58.4375,61.25,-1.265625,0.171875,0.2675781,0.2329102,-0.1269531,-0.105957
5016,-18.75,56.5,53.1875,-1.20752,0.3388672,0.2597656,0.2353516,-0.1293945,-0.1044922
5020,-37.4375,62.4375,44.5625,-1.114746,0.4321289,0.2636719,0.237793,-0.1293945,-0.1074219
5024,-57.25,71.1875,42,-1.137695,0.3427734,0.2250977,0.2392578,-0.1308594,-0.105957
5028,-62.125,71.9375,35.0625,-1.187988,0.1953125,0.1904297,0.2436523,-0.1308594,-0.1035156
5032,-51.875,63.9375,29.3125,-1.289063,0.07470703,0.2290039,0.2436523,-0.1293945,-0.1005859
5036,-32.4375,46.4375,23.5,-1.37793,0.09423828,0.2402344,0.2460938,-0.1308594,-0.1005859
5040,-15.4375,20.5625,14.25,-1.428223,0.1367188,0.2597656,0.2460938,-0.1318359,-0.09912109
5044,-6.0625,-3.6875,-1.75,-1.335449,0.1796875,0.2368164,0.2436523,-0.1333008,-0.09521484
5048,0,-15.3125,-20,-1.203613,0.2416992,0.2021484,0.2451172,-0.1318359,-0.09912109
5052,1.8125,-22.5,-28.3125,-1.191895,0.3041992,0.2021484,0.2436523,-0.1333008,-0.09667969
5056,2.0625,-28.8125,-33.125,-1.087402,0.3505859,0.1865234,0.2426758,-0.1342773,-0.09912109
5060,0,-30.75,-36.5625,-1.103027,0.4165039,0.159668,0.2402344,-0.1293945,-0.09912109
5064,-6.75,-33,-39.9375,-1.029297,0.3974609,0.1210938,0.2402344,-0.1279297,-0.09667969
5068,-8.5625,-28.0625,-45.8125,-1.067871,0.3427734,0.1020508,0.237793,-0.1279297,-0.09912109
5072,-2.75,-34.25,-47.375,-1.195801,0.269043,0.08251953,0.2353516,-0.1254883,-0.09765625
5077,9.0625,-47.4375,-50.375,-1.261719,0.237793,0.06347656,0.234375,-0.1230469,-0.09912109
5081,21,-54.125,-58,-1.203613,0.237793,0.05957031,0.2329102,-0.1206055,-0.09765625
5085,24.75,-49.9375,-66.375,-1.15332,0.3427734,0.05957031,0.230957,-0.1196289,-0.09765625
5089,11.1875,-34.125,-69.75,-1.114746,0.4086914,0.09033203,0.2294922,-0.1157227,-0.09667969
5093,-3.375,-18.5,-72.75,-1.289063,0.3271484,0.09814453,0.2270508,-0.1132813,-0.09228516
5097,-7.625,-15.625,-78.3125,-1.443848,0.2299805,0.1289063,0.2270508,-0.1108398,-0.08984375
5101,-3.25,-22.9375,-86.8125,-1.537109,0.171875,0.1479492,0.2246094,-0.1069336,-0.08447266
5105,2.875,-32.625,-94.6875,-1.541016,0.1679688,0.140625,0.2246094,-0.1030273,-0.07763672
5109,4.6875,-39.375,-102.0625,-1.529297,0.203125,0.140625,0.2246094,-0.09960938,-0.06933594
5113,0.875,-38.9375,-109.375,-1.501953,0.2768555,0.140625,0.2270508,-0.09423828,-0.05859375
5117,-5.6875,-36.8125,-117.6875,-1.48291,0.300293,0.144043,0.2294922,-0.08935547,-0.05029297
5121,-5.6875,-38.0625,-125.75,-1.533203,0.2612305,0.1518555,0.2368164,-0.07714844,-0.03808594
5125,-4.3125,-40.3125,-128.75,-1.525391,0.284668,0.140625,0.2426758,-0.06445313,-0.02832031
5129,-7.75,-35.625,-134.125,-1.48291,0.3193359,0.1479492,0.2519531,-0.05322266,-0.02441406
5133,-20.75,-28.5625,-140.5625,-1.471191,0.3232422,0.1132813,0.2602539,-0.03710938,-0.02050781
5137,-27.25,-14.1875,-147.25,-1.521484,0.140625,0.125,0.2700195,-0.01464844,-0.01757813
5141,-19.1875,-11.625,-163.3125,-1.742188,0.1176758,0.1787109,0.2783203,-0.0004882813,-0.02050781
5145,-3.8125,-34,-176.625,-1.812012,0.105957,0.2290039,0.2832031,0.02148438,-0.02832031
5149,8.9375,-48,-181.375,-1.695801,0.2651367,0.2519531,0.2880859,0.04248047,-0.04492188
5153,1.6875,-46.25,-180.75,-1.521484,0.4086914,0.2368164,0.2890625,0.05761719,-0.05712891
5157,-14.9375,-31.5625,-188.75,-1.413086,0.4555664,0.2441406,0.2832031,0.07519531,-0.07763672
5161,-25.625,-23.1875,-194.3125,-1.505859,0.3701172,0.2905273,0.269043,0.09130859,-0.09375
5165,-18.875,-41,-200.125,-1.645508,0.315918,0.3134766,0.2558594,0.1010742,-0.09667969
5169,-10,-70.3125,-195.8125,-1.443848,0.2885742,0.2402344,0.2368164,0.1123047,-0.1088867
5173,-4.1875,-72.125,-195.75,-1.184082,0.3232422,0.1826172,0.215332,0.1225586,-0.1113281
5177,-9.25,-62.6875,-191.3125,-1.048828,0.3583984,0.159668,0.2011719,0.1274414,-0.105957
5181,-15.625,-50.625,-190.6875,-1.009766,0.3466797,0.2021484,0.1879883,0.1362305,-0.1005859
5185,-17.5625,-51.5,-187.1875,-0.9907227,0.2963867,0.2368164,0.1748047,0.1474609,-0.08984375
5189,-18.875,-55.375,-178.1875,-0.8896484,0.2768555,0.2021484,0.1689453,0.1547852,-0.08544922
5193,-23.875,-51.75,-168.1875,-0.6884766,0.21875,0.1557617,0.1640625,0.1660156,-0.07763672
5197,-27.6875,-36.8125,-163.625,-0.5913086,0.1333008,0.1367188,0.1582031,0.1835938,-0.06933594
5201,-25.1875,-33.1875,-158.9375,-0.6572266,0.09033203,0.125,0.1567383,0.1899414,-0.06787109
5206,-18.75,-37.5,-146.0625,-0.5756836,-0.02197266,0.1713867,0.1547852,0.2050781,-0.06640625
5210,-7.5625,-44,-139.375,-0.5644531,-0.03369141,0.1518555,0.1474609,0.2197266,-0.06542969
5214,2.625,-55.4375,-135,-0.4521484,-0.03759766,0.1367188,0.1459961,0.2285156,-0.06542969
5218,5.5,-59.5,-120.9375,-0.2929688,-0.01416016,0.07910156,0.1416016,0.2412109,-0.07324219
5222,5,-51.3125,-104.75,-0.1884766,-0.09570313,0.09423828,0.1357422,0.2524414,-0.07861328
5226,8.375,-45.375,-98.6875,-0.2041016,-0.1733398,0.1289063,0.1308594,0.2612305,-0.08154297
5230,15.9375,-54.1875,-96.5625,-0.2773438,-0.1616211,0.140625,0.1259766,0.2661133,-0.08837891
5234,20.8125,-70.3125,-88.9375,-0.2080078,-0.1655273,0.09423828,0.1186523,0.2739258,-0.09667969
5238,22.375,-71.3125,-77.75,0.09375,-0.2275391,0.03662109,0.112793,0.2788086,-0.1035156
5242,17.375,-45.75,-63.75,0.2412109,-0.1616211,0.02490234,0.1044922,0.2822266,-0.1113281
5246,0.875,-13.375,-49.0625,0.1987305,-0.2045898,0.08642578,0.09960938,0.2851563,-0.1157227
5250,-6.625,3.5625,-38.5,0.04736328,-0.3208008,0.1826172,0.09960938,0.2885742,-0.1196289
5254,-7.9375,0.875,-31.625,-0.07617188,-0.4067383,0.2290039,0.09375,0.2900391,-0.1196289
5258,-4.1875,-0.25,-30.875,-0.02978516,-0.4765625,0.2827148,0.09277344,0.2900391,-0.1196289
5262,-3.875,1.875,-30.9375,-0.08398438,-0.3950195,0.3212891,0.09130859,0.2885742,-0.1210938
5266,-0.125,-8,-23.875,-0.1303711,-0.46875,0.3251953,0.09033203,0.2924805,-0.1235352
5270,10.5625,-19.1875,-13.8125,-0.06445313,-0.4804688,0.2866211,0.08691406,0.2949219,-0.1264648
5274,16.25,-18.125,-2.8125,0.02832031,-0.4335938,0.2636719,0.08691406,0.2910156,-0.125
5278,15.0625,-11.1875,7.5625,0.07861328,-0.4179688,0.2290039,0.08691406,0.2924805,-0.1289063
5282,9.875,1.8125,13.5,0.08642578,-0.4179688,0.2441406,0.08544922,0.2900391,-0.1303711
5286,1.9375,13.0625,16,0.01660156,-0.3911133,0.2597656,0.08544922,0.2910156,-0.1318359
5290,-1.0625,17.6875,19.5625,-0.01025391,-0.453125,0.2709961,0.08886719,0.2900391,-0.1289063
5294,0.1875,21.4375,27.875,-0.04101563,-0.4335938,0.2905273,0.09033203,0.2885742,-0.1279297
5298,-0.0625,22.9375,38.1875,-0.1108398,-0.4414063,0.3056641,0.09033203,0.2900391,-0.125
5302,1.125,21.9375,45.625,-0.1728516,-0.5,0.3095703,0.09521484,0.2851563,-0.1210938
