Packet number,Gyroscope X (deg/s),Gyroscope Y (deg/s),Gyroscope Z (deg/s),Accelerometer X (g),Accelerometer Y (g),Accelerometer Z (g),Magnetometer X (G),Magnetometer Y (G),Magnetometer Z (G)
1,-5.1875,-1.25,4.0625,0.8652344,0.4672852,0.05566406,-0.1699219,-0.2558594,-0.06787109
5,-4.6875,0.75,2.6875,0.8691406,0.5058594,0.04785156,-0.1699219,-0.2543945,-0.07177734
9,-6.6875,1.75,1.3125,0.8535156,0.5332031,0.04052734,-0.168457,-0.2568359,-0.06640625
13,-10,1.0625,-1.375,0.8339844,0.5527344,0.04052734,-0.168457,-0.2558594,-0.07080078
17,-12.25,-0.1875,-2.6875,0.8183594,0.5449219,0.02490234,-0.168457,-0.2568359,-0.07177734
21,-14.1875,-2.1875,-0.5625,0.8496094,0.5136719,0.02099609,-0.168457,-0.2558594,-0.07177734
25,-13.3125,-3.75,2.8125,0.8457031,0.4946289,0.005859375,-0.1699219,-0.2543945,-0.07324219
29,-9,-3.25,3.4375,0.8574219,0.5019531,0.01708984,-0.1708984,-0.2529297,-0.07177734
33,-5.5625,-0.3125,2.5625,0.8652344,0.5371094,0.02490234,-0.168457,-0.2529297,-0.07324219
37,-5.25,1.5625,1.0625,0.8339844,0.5332031,0.01367188,-0.1699219,-0.2519531,-0.07177734
41,-3.25,1.25,0.5,0.8417969,0.5058594,0.005859375,-0.1699219,-0.2529297,-0.07470703
45,-1.8125,2,0.375,0.8652344,0.5097656,0.02880859,-0.1708984,-0.2529297,-0.07470703
49,-3.3125,2.1875,1.75,0.8613281,0.5097656,0.02880859,-0.1699219,-0.2529297,-0.07470703
53,-5.4375,2.625,6.4375,0.8730469,0.5761719,0.1098633,-0.1699219,-0.2529297,-0.07617188
57,-8.8125,7.25,4.375,0.8842773,0.6577148,0.09423828,-0.1708984,-0.2543945,-0.07617188
61,-12.875,9.375,1.5625,0.8574219,0.7314453,0.07128906,-0.1708984,-0.2529297,-0.07617188
65,-22.125,5.3125,1.0625,0.8339844,0.7817383,0.05175781,-0.1708984,-0.2529297,-0.07763672
69,-34.3125,1.5625,8.25,0.7797852,0.9101563,0.09814453,-0.1708984,-0.2529297,-0.07763672
74,-38.1875,-0.4375,-3.5625,0.7412109,0.9375,0.125,-0.1733398,-0.2504883,-0.08154297
78,-33.375,5.5625,-20.3125,0.7177734,1.015137,0.09423828,-0.1723633,-0.2504883,-0.08154297
82,-35.3125,9.125,-34.3125,0.6635742,1.12793,0.04443359,-0.1708984,-0.2504883,-0.08300781
86,-44.25,2,-46.375,0.5708008,1.255859,-0.005371094,-0.1708984,-0.2558594,-0.08691406
90,-60.5,-13.75,-54.75,0.5820313,1.341309,0.02880859,-0.168457,-0.2558594,-0.08837891
94,-75.3125,-24.0625,-69.5625,0.6328125,1.384277,0.03271484,-0.1665039,-0.2543945,-0.08837891
98,-85.6875,-27.5625,-83.6875,0.7021484,1.271484,0.07128906,-0.1650391,-0.2568359,-0.09375
102,-85.0625,-26.75,-92.4375,0.7915039,1.166504,0.1132813,-0.1625977,-0.2592773,-0.09667969
106,-78.5625,-17.9375,-96.1875,0.8535156,1.150879,0.1713867,-0.1601563,-0.2607422,-0.09667969
110,-69.75,-8.6875,-101.875,0.8535156,1.174316,0.1982422,-0.1533203,-0.2631836,-0.1005859
114,-65.8125,-3.375,-107.375,0.8769531,1.302734,0.2709961,-0.1484375,-0.2641602,-0.1005859
118,-72.75,2.6875,-111.25,0.8842773,1.368652,0.2944336,-0.1450195,-0.2680664,-0.1005859
122,-76.625,7.625,-118.5625,0.8691406,1.353027,0.3095703,-0.1352539,-0.2705078,-0.1035156
126,-72.375,11.75,-125.75,0.8959961,1.283203,0.3056641,-0.128418,-0.2744141,-0.105957
130,-55.875,22.4375,-128.0625,1.012207,1.240234,0.3867188,-0.1220703,-0.2768555,-0.105957
134,-36.375,39,-132.8125,0.9931641,1.294922,0.4213867,-0.1103516,-0.2807617,-0.1074219
138,-27.0625,50.1875,-139.875,0.9311523,1.442383,0.4633789,-0.1020508,-0.2895508,-0.105957
142,-30,51.3125,-145.5,0.8652344,1.535645,0.4404297,-0.09375,-0.2929688,-0.1088867
146,-41.9375,47.6875,-152.25,0.8652344,1.559082,0.4174805,-0.08056641,-0.2993164,-0.1088867
150,-47,46.6875,-158,0.9038086,1.49707,0.409668,-0.06640625,-0.3056641,-0.1113281
154,-47.25,46.8125,-169.875,0.9233398,1.493164,0.3867188,-0.05908203,-0.3120117,-0.112793
158,-50.3125,47.3125,-176.625,0.9814453,1.46582,0.4135742,-0.04248047,-0.3154297,-0.1181641
162,-57,48.5,-178.6875,1.031738,1.395996,0.4326172,-0.02587891,-0.3193359,-0.1235352
166,-59.5,53.9375,-182.6875,1.039551,1.314453,0.4287109,-0.01513672,-0.3208008,-0.1289063
170,-60.5625,60.5625,-190.125,0.9892578,1.267578,0.3789063,0.0009765625,-0.3232422,-0.1347656
174,-59.875,59.375,-191.9375,0.9389648,1.174316,0.3251953,0.01904297,-0.3178711,-0.1401367
178,-60.875,55.5625,-191.0625,0.8959961,1.135742,0.3056641,0.03076172,-0.3168945,-0.144043
182,-64,53.4375,-190,0.8959961,1.112305,0.3173828,0.04882813,-0.3120117,-0.1484375
186,-65.9375,55.75,-190.9375,0.8300781,1.057617,0.3056641,0.06298828,-0.3041992,-0.1523438
190,-65.8125,61.0625,-195.75,0.7993164,0.9643555,0.2749023,0.07470703,-0.3032227,-0.1538086
194,-59.875,64,-196.5625,0.7177734,0.9023438,0.2441406,0.09130859,-0.296875,-0.1538086
198,-59.5,64.0625,-194,0.6362305,0.890625,0.2060547,0.1079102,-0.2929688,-0.1523438
203,-63.3125,59.125,-185.25,0.578125,0.8520508,0.1904297,0.1176758,-0.2905273,-0.1523438
207,-69,54.1875,-174,0.4814453,0.7739258,0.1479492,0.1357422,-0.2856445,-0.1538086
211,-70.75,45.625,-164.1875,0.3999023,0.6616211,0.1171875,0.1499023,-0.2807617,-0.1577148
215,-65.5,41.0625,-156.0625,0.3925781,0.5761719,0.105957,0.1606445,-0.2753906,-0.1577148
219,-57,42.125,-149.6875,0.3417969,0.5019531,0.1132813,0.1713867,-0.2705078,-0.1645508
223,-49.1875,45.0625,-142.6875,0.2529297,0.4633789,0.1171875,0.1855469,-0.2641602,-0.1674805
227,-45.4375,42.1875,-138.5625,0.1171875,0.4282227,0.07910156,0.1928711,-0.2631836,-0.168457
231,-49.9375,33.5,-132.0625,0.09765625,0.4013672,0.08251953,0.2045898,-0.2543945,-0.1738281
235,-53.75,26.375,-120.375,0.04736328,0.2651367,0.07519531,0.2138672,-0.2470703,-0.1782227
239,-51.875,17.5625,-109.1875,-0.02978516,0.1293945,0.06738281,0.2202148,-0.2431641,-0.1835938
243,-44.625,13.4375,-99.6875,-0.02197266,0.05908203,0.08251953,0.2260742,-0.2329102,-0.1850586
247,-36.75,13.4375,-91.8125,-0.02197266,-0.006347656,0.1098633,0.2329102,-0.2270508,-0.1918945
251,-31.0625,13.8125,-83.75,-0.04882813,-0.03369141,0.144043,0.2353516,-0.2216797,-0.1958008
255,-31.4375,13.1875,-73,-0.08398438,-0.01416016,0.1943359,0.2436523,-0.2143555,-0.1958008
259,-39.9375,10.9375,-60,-0.09912109,-0.02197266,0.2368164,0.2436523,-0.2080078,-0.199707
263,-48,6.5625,-49.0625,-0.1342773,-0.05273438,0.3095703,0.25,-0.2045898,-0.2011719
267,-34.1875,18.625,-44.6875,0.03173828,-0.371582,0.4404297,0.2485352,-0.1992188,-0.2041016
271,2.4375,54.5625,-46.25,0.2875977,0.237793,0.5288086,0.2543945,-0.1933594,-0.206543
275,36.875,76.625,-14.6875,-0.09130859,-0.387207,0.4213867,0.2568359,-0.1958008,-0.2011719
279,23.875,66.5,16.125,-0.3393555,-0.04541016,0.3481445,0.2626953,-0.1958008,-0.1943359
283,6.1875,53.9375,32.75,-0.4130859,0.004882813,0.2636719,0.2666016,-0.1992188,-0.1904297
287,6.9375,43.125,33,-0.5488281,-0.02978516,0.07128906,0.2651367,-0.2016602,-0.1850586
291,7.75,25.6875,35.625,-0.5991211,0.02441406,0.04443359,0.2675781,-0.2045898,-0.1821289
295,2.3125,11.75,39.875,-0.4868164,0.07861328,0.09814453,0.2675781,-0.2080078,-0.1782227
299,0.25,0.6875,44.4375,-0.4829102,0.04394531,0.144043,0.2651367,-0.2119141,-0.1782227
303,-0.8125,-6.625,51,-0.4130859,0.02441406,0.2060547,0.2617188,-0.2143555,-0.1782227
307,-0.3125,-11.5625,59.75,-0.3549805,0.02050781,0.2368164,0.2592773,-0.2182617,-0.1767578
311,1.125,-12.5,65.625,-0.3203125,0.008789063,0.2172852,0.2558594,-0.2231445,-0.1782227
315,8.3125,-16.75,72.3125,-0.2890625,0.008789063,0.2172852,0.2519531,-0.2270508,-0.1767578
319,11.75,-19.5,80.625,-0.262207,0.1020508,0.2480469,0.2460938,-0.2319336,-0.1728516
323,16.1875,-22.5,91.3125,-0.2426758,0.1333008,0.3017578,0.2436523,-0.2368164,-0.1728516
327,16.375,-26.625,99.5625,-0.1962891,0.21875,0.3520508,0.234375,-0.2416992,-0.1713867
332,15.9375,-28.6875,104.125,-0.1533203,0.2963867,0.3828125,0.2285156,-0.2495117,-0.1699219
336,11.1875,-27.6875,108.375,-0.03320313,0.3349609,0.4213867,0.2246094,-0.2543945,-0.1699219
340,13.3125,-23.4375,112.25,-0.02197266,0.3120117,0.4135742,0.2138672,-0.2607422,-0.1630859
344,21.0625,-19.25,115.75,-0.02978516,0.3857422,0.4213867,0.2045898,-0.2670898,-0.1630859
348,24,-16.6875,110.0625,-0.09912109,0.5175781,0.4287109,0.1987305,-0.2705078,-0.1591797
352,13.5625,-25.375,104.0625,-0.09521484,0.5878906,0.4482422,0.1889648,-0.2768555,-0.1547852
356,-9.8125,-40.4375,96.5625,0.03173828,0.6577148,0.4711914,0.1831055,-0.2783203,-0.1523438
360,-25.1875,-49.4375,107.5625,0.1132813,0.5527344,0.3945313,0.1748047,-0.2792969,-0.1538086
364,-13.875,-46.375,143.75,0.2451172,0.4052734,0.3251953,0.1650391,-0.2807617,-0.15625
368,7.125,-32.375,157.1875,0.2333984,0.5136719,0.4443359,0.1508789,-0.2832031,-0.1547852
372,23.25,-30,152.3125,0.2451172,0.6420898,0.409668,0.1425781,-0.2866211,-0.1523438
376,27,-26.75,154.375,0.2797852,0.824707,0.4790039,0.1308594,-0.2866211,-0.1508789
380,8.875,-28.1875,155.75,0.2138672,0.9179688,0.3671875,0.1176758,-0.2880859,-0.1523438
384,0.1875,-39.25,161.25,0.1445313,0.7705078,0.2368164,0.109375,-0.2880859,-0.1538086
388,15.125,-50.875,165.125,0.2568359,0.6845703,0.2402344,0.09863281,-0.2895508,-0.1523438
392,31.3125,-51.3125,167.5,0.4116211,0.8520508,0.3442383,0.08300781,-0.2895508,-0.1577148
396,36.1875,-45.25,155.4375,0.4541016,1.030762,0.4326172,0.07373047,-0.2929688,-0.1577148
400,24.8125,-48.9375,141.625,0.3847656,1.108398,0.425293,0.06298828,-0.2954102,-0.1591797
404,8.9375,-62.875,140.5,0.4428711,1.030762,0.4057617,0.05224609,-0.3007813,-0.1645508
408,10.375,-69.125,144.8125,0.5239258,0.9414063,0.3945313,0.04248047,-0.3017578,-0.1674805
412,21.8125,-70.1875,140.4375,0.559082,0.9682617,0.3828125,0.02978516,-0.3066406,-0.1645508
416,27.125,-74.8125,132.25,0.6015625,1.112305,0.4521484,0.01660156,-0.3120117,-0.1616211
420,4.5,-84.375,125.375,0.6791992,1.267578,0.5249023,0.006835938,-0.3154297,-0.1577148
424,-19.75,-91.75,128.625,0.7451172,1.06543,0.605957,-0.005859375,-0.3154297,-0.1547852
428,-14.5,-90,128.0625,0.8496094,0.8671875,0.6098633,-0.02099609,-0.3168945,-0.1547852
432,19.8125,-74.125,127.8125,0.9697266,0.7001953,0.5869141,-0.03076172,-0.3144531,-0.1469727
436,60.1875,-53.6875,126.625,0.9658203,0.855957,0.5673828,-0.04492188,-0.3105469,-0.1416016
440,72.9375,-40.5,119.6875,0.8769531,1.092773,0.5214844,-0.05664063,-0.3081055,-0.1264648
444,56,-42.3125,115.6875,0.7875977,1.244141,0.4941406,-0.06396484,-0.3056641,-0.1235352
448,29.8125,-49.125,122.6875,0.7529297,1.124023,0.4599609,-0.07470703,-0.2993164,-0.1166992
452,27.375,-53.9375,128.25,0.7333984,1.007324,0.4174805,-0.08544922,-0.2905273,-0.1142578
456,40.9375,-53.3125,122.125,0.8261719,0.8828125,0.3828125,-0.09228516,-0.2866211,-0.1113281
461,68.5625,-45.9375,117.25,0.9658203,0.7509766,0.3671875,-0.1020508,-0.2768555,-0.1088867
465,94.5,-28.5,117.1875,1.085938,0.875,0.390625,-0.112793,-0.2705078,-0.1035156
469,96.9375,-17.8125,112.8125,0.9501953,1.088867,0.3291016,-0.1162109,-0.2641602,-0.1035156
473,78.5625,-27.25,112.9375,0.7836914,1.189941,0.2519531,-0.1245117,-0.2583008,-0.1005859
477,54.625,-42.6875,111.25,0.8339844,1.143066,0.2480469,-0.1318359,-0.2529297,-0.09912109
481,48.5625,-50.0625,106.1875,0.9580078,0.9023438,0.2675781,-0.1367188,-0.2470703,-0.1005859
485,67.625,-43.4375,100.3125,1.128418,0.6459961,0.2944336,-0.1450195,-0.2456055,-0.1020508
489,104.75,-23.0625,100.875,1.299316,0.4868164,0.390625,-0.1518555,-0.2431641,-0.09912109
493,131.4375,11.125,113.375,1.198242,0.8208008,0.3330078,-0.1542969,-0.2407227,-0.1005859
497,127.5,19.875,110.0625,0.9541016,1.073242,0.2441406,-0.1601563,-0.2407227,-0.09912109
501,107.3125,14.125,109.0625,0.8496094,1.081055,0.1826172,-0.1625977,-0.2407227,-0.09667969
505,101.8125,9.9375,102.6875,0.9116211,0.9023438,0.140625,-0.1699219,-0.2416992,-0.09521484
509,113.125,18.4375,93.375,1.031738,0.7666016,0.09814453,-0.1708984,-0.2407227,-0.08984375
513,135.25,37.25,85.25,1.070313,0.7119141,0.02880859,-0.1748047,-0.2431641,-0.08837891
517,147.625,49.4375,83.375,0.9501953,0.8671875,-0.04394531,-0.1772461,-0.2431641,-0.08447266
521,136.9375,48.8125,85.125,0.8652344,0.987793,-0.06298828,-0.1772461,-0.2470703,-0.08007813
525,120.125,44.9375,82.4375,0.7719727,1.049805,-0.1015625,-0.1782227,-0.2495117,-0.07324219
529,-17.375,-45,58.3125,-0.7348633,4.82666,0.2250977,-0.1757813,-0.2495117,-0.06933594
533,-128.125,-30.5625,3.375,0.543457,2.013672,-0.04394531,-0.1748047,-0.2495117,-0.07080078
537,-115.75,-42,6.8125,0.6401367,0.7856445,-0.2167969,-0.1782227,-0.2470703,-0.07763672
541,-76.125,-31.0625,33.4375,1.043457,0.07470703,-0.0859375,-0.1816406,-0.2441406,-0.08007813
545,-7.3125,-13.125,33.5,1.105469,-0.09570313,0.04785156,-0.1831055,-0.2382813,-0.08300781
549,46.25,14.125,23.3125,1.066406,0.300293,0.09423828,-0.1865234,-0.2368164,-0.08007813
553,66.5,28.375,1.1875,0.9580078,0.6845703,0.144043,-0.1865234,-0.2358398,-0.07861328
557,54.5,33.625,-20.0625,0.7915039,0.9296875,0.1367188,-0.1875,-0.2392578,-0.07861328
561,10.1875,15.375,-29.0625,0.6289063,1.045898,0.05957031,-0.1865234,-0.2382813,-0.07617188
565,-41.5,-15,-24.5625,0.6210938,0.9101563,-0.001464844,-0.1865234,-0.2407227,-0.07617188
569,-69,-34.75,-19.375,0.8032227,0.7275391,0.005859375,-0.1875,-0.2382813,-0.07861328
573,-75.25,-37.75,-18.75,0.8803711,0.5683594,0.02490234,-0.1875,-0.2358398,-0.08154297
577,-61.0625,-33.5,-25.0625,0.9233398,0.4829102,0.05175781,-0.1875,-0.234375,-0.08300781
581,-45.625,-25,-32.75,0.9775391,0.5605469,0.1171875,-0.1899414,-0.2329102,-0.08300781
585,-41.75,-17.3125,-37.5625,0.9389648,0.7548828,0.1635742,-0.1865234,-0.2319336,-0.08447266
590,-55.375,-16.6875,-38.875,0.9272461,0.8325195,0.1904297,-0.1865234,-0.2304688,-0.08544922
594,-70.5,-19.625,-36.4375,0.9311523,0.7856445,0.1787109,-0.1865234,-0.2294922,-0.08691406
598,-75.3125,-19.0625,-31.4375,1.02002,0.6616211,0.1674805,-0.1865234,-0.2294922,-0.08984375
602,-67.625,-12.375,-25.6875,1.02002,0.5644531,0.1518555,-0.1855469,-0.2270508,-0.08984375
606,-56.75,-4.875,-24.25,0.9423828,0.6694336,0.1367188,-0.1855469,-0.2255859,-0.09082031
610,-42.375,4.75,-39.125,0.9116211,0.7973633,0.1171875,-0.1831055,-0.2246094,-0.08691406
614,-32,8.8125,-59.1875,0.8032227,0.9375,0.1210938,-0.1816406,-0.2246094,-0.09082031
618,-39.75,6.5,-72.1875,0.8339844,1.081055,0.159668,-0.1791992,-0.2270508,-0.08691406
622,-59.0625,1.5625,-75.3125,0.8613281,1.045898,0.1748047,-0.1733398,-0.2270508,-0.08837891
626,-67.1875,-1.25,-70.6875,0.9311523,0.8789063,0.1865234,-0.1723633,-0.2294922,-0.08984375
630,-58.4375,2,-70,1.000488,0.8012695,0.2133789,-0.168457,-0.2294922,-0.08300781
634,-48.1875,10.25,-75.3125,1.008301,0.9023438,0.2519531,-0.1650391,-0.2329102,-0.08544922
638,-39.5,18.625,-89.4375,1.039551,0.9643555,0.2597656,-0.1625977,-0.2368164,-0.08447266
642,-35.625,24.3125,-100.875,0.9619141,0.9956055,0.2558594,-0.1567383,-0.2392578,-0.08007813
646,-41.375,23.125,-103.75,0.9116211,1.034668,0.2519531,-0.1518555,-0.2480469,-0.07861328
650,-50.375,18.1875,-103.8125,0.9233398,1.038574,0.2675781,-0.1459961,-0.2529297,-0.07470703
654,-59.9375,17.3125,-99.25,0.9853516,1.015137,0.3251953,-0.1376953,-0.2607422,-0.07470703
658,-69.6875,18.625,-95.375,0.9736328,1.04248,0.340332,-0.1328125,-0.2705078,-0.07763672
662,-72.25,20.625,-94.8125,0.9814453,0.9296875,0.3364258,-0.1269531,-0.2753906,-0.07763672
666,-54.625,27.375,-95.5625,1.027832,0.824707,0.3520508,-0.1210938,-0.2832031,-0.08300781
670,-34.5,35.3125,-104.5,0.9658203,0.9335938,0.3828125,-0.112793,-0.2905273,-0.08984375
674,-28,39.5,-115.4375,1.02002,1.073242,0.4174805,-0.1079102,-0.2983398,-0.09082031
678,-33.4375,45.8125,-120.1875,0.9619141,1.112305,0.3945313,-0.09619141,-0.3066406,-0.09765625
682,-38.9375,44.5625,-124.625,0.8999023,1.116211,0.3789063,-0.08642578,-0.3120117,-0.1044922
686,-35.75,44.4375,-132.5625,0.9077148,1.053711,0.3598633,-0.08056641,-0.3178711,-0.1088867
690,-15.125,48.6875,-134.0625,0.8959961,0.987793,0.375,-0.06884766,-0.3208008,-0.1196289
694,0.0625,47.1875,-131.5,0.8691406,1.116211,0.390625,-0.05566406,-0.3242188,-0.1264648
698,1.375,49.0625,-137.8125,0.9892578,1.217285,0.4599609,-0.04736328,-0.3242188,-0.1289063
702,-2.6875,57.25,-151.125,0.8881836,1.232422,0.425293,-0.03515625,-0.3242188,-0.137207
706,-14.25,53.0625,-149.5,0.7954102,1.217285,0.3671875,-0.02001953,-0.3217773,-0.1386719
710,-31.5625,38.75,-145.6875,0.8110352,1.240234,0.3481445,-0.01025391,-0.3178711,-0.1386719
714,-49.375,39.5,-148.0625,0.8803711,1.154785,0.409668,0.003417969,-0.3129883,-0.1416016
719,-65.5,39.4375,-150,0.8339844,1.034668,0.3945313,0.01660156,-0.3120117,-0.1416016
723,-69.625,46.4375,-154.3125,0.8920898,0.8984375,0.3945313,0.0234375,-0.3081055,-0.1386719
727,-59.5625,56.1875,-161.8125,0.8032227,0.7314453,0.3481445,0.03662109,-0.3056641,-0.1425781
731,-44.0625,61.4375,-161.875,0.7680664,0.6733398,0.3481445,0.04882813,-0.3081055,-0.1401367
735,-43.5,63.9375,-160.4375,0.675293,0.7158203,0.3291016,0.05957031,-0.3066406,-0.1386719
739,-57.25,59.75,-151.9375,0.578125,0.7119141,0.2905273,0.07373047,-0.3120117,-0.1425781
743,-76.0625,54,-139.5,0.5200195,0.6342773,0.2558594,0.08691406,-0.3144531,-0.1455078
747,-72.3125,50.8125,-134.9375,0.3305664,0.3896484,0.1367188,0.09375,-0.3120117,-0.1469727
751,-47.3125,44.9375,-136.25,0.3339844,0.269043,0.1289063,0.1069336,-0.3095703,-0.1547852
755,-30.0625,46.3125,-129.875,0.3613281,0.3041992,0.1904297,0.1201172,-0.3120117,-0.1616211
759,-26.1875,47.1875,-123.75,0.2646484,0.3388672,0.2441406,0.1269531,-0.3105469,-0.1606445
763,-34.375,46.3125,-114.5625,0.1870117,0.3232422,0.2172852,0.1391602,-0.3095703,-0.1660156
767,-37.6875,40.75,-101.9375,0.05517578,0.2416992,0.1713867,0.1499023,-0.3081055,-0.175293
771,-30.875,35.375,-94.4375,0.04736328,0.1679688,0.1787109,0.1557617,-0.3032227,-0.1767578
775,-15.5,34.4375,-93.5,-0.02197266,0.121582,0.1826172,0.1665039,-0.2993164,-0.1806641
779,-5.125,30.875,-90,-0.07226563,0.1523438,0.1865234,0.1723633,-0.2954102,-0.1835938
783,-8,27.125,-84.1875,-0.1303711,0.2070313,0.2021484,0.1772461,-0.2929688,-0.1850586
787,-16.625,20.9375,-72.8125,-0.1689453,0.1484375,0.2060547,0.184082,-0.2895508,-0.1865234
791,-23.1875,15.75,-60.5625,-0.2080078,0.05517578,0.1865234,0.1914063,-0.2841797,-0.1904297
795,-16.0625,12.5,-54.125,-0.1845703,0.01269531,0.2060547,0.1914063,-0.2817383,-0.1918945
799,-5.9375,14.1875,-46.9375,-0.2080078,-0.02978516,0.2133789,0.1972656,-0.2783203,-0.1943359
803,-4.3125,11.5625,-36.125,-0.28125,0.02832031,0.2250977,0.2011719,-0.2753906,-0.1958008
807,-6.1875,5.9375,-26.125,-0.3203125,-0.002441406,0.1904297,0.2011719,-0.2729492,-0.1943359
811,-2.0625,-0.4375,-18.125,-0.3320313,-0.04150391,0.1904297,0.203125,-0.2729492,-0.1943359
815,7.125,-6.5,-9.625,-0.3085938,-0.07226563,0.2290039,0.2045898,-0.2719727,-0.1958008
819,15.875,-7.125,-1.5,-0.2387695,-0.02587891,0.2866211,0.2045898,-0.2719727,-0.1972656
823,19.125,-6.875,7.4375,-0.230957,0.04394531,0.340332,0.203125,-0.2719727,-0.1958008
827,14.8125,-5.1875,18.1875,-0.246582,0.09814453,0.3364258,0.203125,-0.2729492,-0.1918945
831,13.25,-5.6875,25.5625,-0.2734375,0.09423828,0.3173828,0.2021484,-0.2753906,-0.1918945
835,15.5,-7.9375,32.375,-0.2851563,0.09814453,0.2788086,0.1987305,-0.2768555,-0.1904297
839,18.1875,-11.75,40,-0.2890625,0.1333008,0.2441406,0.1962891,-0.2792969,-0.1904297
843,23.25,-19,47.8125,-0.2734375,0.1679688,0.2519531,0.1938477,-0.2817383,-0.1875
848,24.3125,-22.4375,53.875,-0.2080078,0.253418,0.3251953,0.1904297,-0.2832031,-0.1850586
852,18.0625,-22.3125,59.6875,-0.2080078,0.284668,0.3442383,0.1865234,-0.2866211,-0.1835938
856,20.5,-26.1875,69.6875,-0.1728516,0.2612305,0.355957,0.1821289,-0.2895508,-0.1821289
860,27.6875,-25.625,74.0625,-0.08398438,0.3427734,0.390625,0.1748047,-0.2929688,-0.1806641
864,29.9375,-22.25,76,-0.04492188,0.4282227,0.3979492,0.1689453,-0.296875,-0.1767578
868,26,-21.1875,80.5625,-0.03710938,0.4672852,0.4018555,0.1650391,-0.2993164,-0.1713867
872,21.4375,-20.25,84.625,-0.04492188,0.4985352,0.3828125,0.1582031,-0.3017578,-0.168457
876,21.5625,-21.125,89,-0.06054688,0.4946289,0.3520508,0.1499023,-0.3041992,-0.1674805
880,29.3125,-24.375,90.8125,-0.01025391,0.4985352,0.340332,0.144043,-0.3056641,-0.1616211
884,36.5,-23.5625,93.125,0.1054688,0.5878906,0.390625,0.1367188,-0.3095703,-0.1577148
888,41.25,-19.5,89.5,0.109375,0.6577148,0.4135742,0.1293945,-0.3105469,-0.1523438
892,39.1875,-16.875,86.9375,0.1210938,0.7431641,0.4213867,0.1225586,-0.3120117,-0.1508789
896,31,-18.3125,89.8125,0.09765625,0.7314453,0.3828125,0.1166992,-0.3105469,-0.1455078
900,29.125,-21.3125,97.25,0.1518555,0.7119141,0.3637695,0.109375,-0.3105469,-0.1416016
904,32,-25.4375,100.1875,0.125,0.7470703,0.3364258,0.1020508,-0.3120117,-0.1401367
908,34.3125,-32.375,103.5,0.2373047,0.7895508,0.3710938,0.09277344,-0.3120117,-0.1386719
912,35.5,-32.1875,107.1875,0.2758789,0.8286133,0.4213867,0.08300781,-0.3105469,-0.137207
916,34.4375,-30.375,108.125,0.3496094,0.840332,0.4365234,0.07958984,-0.3105469,-0.137207
920,39.5625,-23.9375,106.5,0.3691406,0.8789063,0.4365234,0.06982422,-0.3066406,-0.1347656
924,42.5625,-18.3125,103.375,0.3457031,0.9375,0.3789063,0.06298828,-0.3081055,-0.1347656
928,39.375,-21.4375,101.3125,0.2875977,0.953125,0.3330078,0.05566406,-0.3081055,-0.1318359
932,33.3125,-28,107.6875,0.3266602,0.9140625,0.2983398,0.04980469,-0.3095703,-0.1347656
936,33.3125,-36.5,111.5,0.3959961,0.8984375,0.3291016,0.0390625,-0.3120117,-0.1357422
940,38.5,-36.625,112.1875,0.5087891,0.9643555,0.3979492,0.03320313,-0.3120117,-0.1347656
944,32.75,-29.4375,105.0625,0.559082,1.019043,0.4174805,0.0234375,-0.3144531,-0.137207
948,21.8125,-27,102.4375,0.609375,0.9643555,0.3979492,0.01513672,-0.3178711,-0.1357422
952,18.0625,-25.0625,106.0625,0.5473633,0.890625,0.3095703,0.009277344,-0.3193359,-0.1347656
956,26.4375,-29.75,107.9375,0.5317383,0.7587891,0.2329102,0,-0.3232422,-0.1333008
960,44.4375,-34.1875,107.125,0.6518555,0.7119141,0.2558594,-0.009277344,-0.3266602,-0.1279297
964,67.5625,-26.5,111.0625,0.7758789,0.6733398,0.2905273,-0.01513672,-0.3291016,-0.125
968,77.875,-17.875,113.3125,0.8183594,0.8828125,0.3442383,-0.02685547,-0.3330078,-0.1157227
972,64.5625,-13.3125,113.75,0.8032227,1.003418,0.3095703,-0.03515625,-0.3330078,-0.105957
977,41.75,-14.625,111.375,0.8339844,1.015137,0.2597656,-0.04248047,-0.3320313,-0.09765625
981,32.0625,-14.8125,115.1875,0.7836914,0.8442383,0.144043,-0.05224609,-0.3320313,-0.08984375
985,41.1875,-17.6875,120.4375,0.8149414,0.6962891,0.09423828,-0.06054688,-0.3256836,-0.08447266
989,69.6875,-17.5625,118.5,0.8457031,0.6923828,0.07910156,-0.06640625,-0.3193359,-0.07861328
993,83.25,-16,120.3125,0.9423828,0.8632813,0.1635742,-0.07568359,-0.3144531,-0.07080078
997,70.125,-15.625,118.625,0.9931641,1.003418,0.2133789,-0.08789063,-0.3066406,-0.06542969
1001,38.25,-15.3125,124.125,1.008301,1.108398,0.2290039,-0.09228516,-0.3032227,-0.06103516
1005,14.3125,-18.5,133.625,0.9038086,0.956543,0.1328125,-0.1044922,-0.2944336,-0.05957031
1009,21.875,-28.375,125.875,0.8110352,0.8632813,0.04443359,-0.1137695,-0.2856445,-0.06103516
1013,45.6875,-29.6875,119.25,1.000488,0.7158203,0.08251953,-0.1201172,-0.2792969,-0.06396484
1017,74.125,-17.125,119,1.147949,0.7666016,0.1826172,-0.128418,-0.2719727,-0.0625
1021,71.9375,-8.1875,116.5,1.043457,1.053711,0.1943359,-0.1367188,-0.265625,-0.0625
1025,46.25,-8.3125,114.8125,1.02002,1.12793,0.1982422,-0.1425781,-0.2592773,-0.06396484
1029,31.625,-13.75,114.1875,0.9619141,0.9023438,0.1557617,-0.1484375,-0.2558594,-0.06787109
1033,40.625,-14,112.875,1.089844,0.7353516,0.1328125,-0.1582031,-0.2529297,-0.06640625
1037,66.6875,-2.9375,111.5625,1.16748,0.6923828,0.1518555,-0.1591797,-0.2495117,-0.07177734
1041,90.25,12.25,107,1.09375,0.7856445,0.08251953,-0.1665039,-0.2470703,-0.07324219
1045,97,18.75,97.875,1.000488,1.038574,0.02880859,-0.1723633,-0.2470703,-0.06933594
1049,79.0625,15.875,90.0625,0.8574219,1.143066,-0.009277344,-0.1748047,-0.2441406,-0.06787109
1053,52.125,0.4375,88.75,0.8691406,1.100586,0.02099609,-0.1806641,-0.2416992,-0.06933594
1057,37.6875,-4.5,88.3125,1.008301,0.9335938,0.09423828,-0.1855469,-0.2407227,-0.06640625
1061,39.125,2.6875,91.1875,1.039551,0.8828125,0.08251953,-0.1889648,-0.2382813,-0.06640625
1065,47.9375,8.5,81.25,0.8920898,1.06543,0.04443359,-0.1938477,-0.2358398,-0.06640625
1069,41.0625,9.1875,65.125,0.8457031,1.174316,0.03662109,-0.1972656,-0.234375,-0.06542969
1073,25.875,6.4375,53,0.7758789,1.13916,-0.005371094,-0.2006836,-0.2329102,-0.06396484
1077,22.6875,2.25,44.6875,0.8222656,1.007324,-0.009277344,-0.2021484,-0.2294922,-0.06396484
1081,21.875,1,37.5,0.8261719,0.9257813,-0.01660156,-0.2021484,-0.2294922,-0.06103516
1085,17.0625,3.9375,30.0625,0.7490234,1.251953,0.03662109,-0.2045898,-0.2280273,-0.06103516
1089,-28.6875,-12.625,11.1875,0.4931641,1.72998,0.05957031,-0.2045898,-0.2280273,-0.05859375
1093,-73.4375,-24.1875,-5,0.7373047,1.368652,0.02099609,-0.2055664,-0.2280273,-0.0625
1097,-63,-17.0625,-12.4375,0.8339844,0.6381836,-0.08203125,-0.2045898,-0.2255859,-0.06542969
1101,-41.8125,-19.6875,-4.375,0.8535156,0.4711914,-0.04736328,-0.2055664,-0.2255859,-0.06787109
1106,-12.625,-15.6875,-10.1875,0.9697266,0.4052734,0.009765625,-0.2055664,-0.2231445,-0.06787109
1110,12.6875,-2,-13,0.9423828,0.6225586,0.05957031,-0.2055664,-0.2255859,-0.06542969
1114,15.25,0.125,-25.75,0.8920898,0.8286133,0.1132813,-0.2055664,-0.2280273,-0.06640625
1118,-0.6875,1.875,-39.375,0.8574219,0.9296875,0.1289063,-0.2045898,-0.2270508,-0.06542969
1122,-24.375,-5.5625,-43,0.8183594,0.9838867,0.1289063,-0.203125,-0.2280273,-0.06542969
1126,-52.25,-11.9375,-47.9375,0.8535156,0.953125,0.1210938,-0.203125,-0.2294922,-0.06787109
1130,-69.25,-15.25,-50.25,0.9311523,0.8208008,0.144043,-0.1982422,-0.2304688,-0.06933594
1134,-74.9375,-13,-50.5,0.9892578,0.7197266,0.1289063,-0.1972656,-0.2304688,-0.07080078
1138,-56.5,-5.125,-54.4375,1.023926,0.6342773,0.1557617,-0.1948242,-0.2319336,-0.07080078
1142,-39.375,5.375,-62.5625,0.9892578,0.7739258,0.1367188,-0.1914063,-0.234375,-0.07324219
1146,-25.625,9.375,-70.875,0.9501953,0.8671875,0.1518555,-0.1899414,-0.234375,-0.07324219
1150,-25.375,11.5,-76.0625,0.9853516,0.9916992,0.2133789,-0.1865234,-0.2382813,-0.07324219
1154,-35,14.6875,-81.5625,0.9619141,1.108398,0.2211914,-0.1791992,-0.2382813,-0.07617188
1158,-49.4375,12.75,-87.1875,0.9501953,1.150879,0.2094727,-0.1782227,-0.2407227,-0.07324219
1162,-61.3125,12.1875,-90.125,0.9658203,1.146973,0.1787109,-0.1733398,-0.2407227,-0.07470703
1166,-67.1875,12,-97.25,0.9853516,1.120117,0.159668,-0.1665039,-0.2441406,-0.07470703
1170,-65.0625,15.125,-103.375,1.000488,1.081055,0.1557617,-0.1625977,-0.2456055,-0.07470703
1174,-60.875,18.9375,-111.8125,1.000488,1.073242,0.1865234,-0.1567383,-0.2495117,-0.07177734
1178,-57.75,23.0625,-118.6875,1.035645,1.09668,0.2172852,-0.1484375,-0.2543945,-0.07080078
1182,-60.6875,25.6875,-122.125,1.027832,1.120117,0.2368164,-0.1450195,-0.2583008,-0.07080078
1186,-66.0625,27.75,-126.25,1.074219,1.116211,0.2519531,-0.1352539,-0.2631836,-0.06787109
1190,-68.5625,31.875,-129.3125,1.059082,1.104492,0.2211914,-0.128418,-0.2719727,-0.06933594
1194,-66.75,33.125,-135.3125,1.055176,1.069336,0.1943359,-0.1201172,-0.2783203,-0.06640625
1198,-59.5,35.625,-140.75,1.039551,1.01123,0.2021484,-0.1113281,-0.2895508,-0.06787109
1202,-52.125,37.125,-141.9375,1.043457,1.015137,0.2329102,-0.1010742,-0.3017578,-0.07177734
1206,-47.9375,41.5625,-143.125,1.023926,1.073242,0.2749023,-0.09130859,-0.3066406,-0.07470703
1210,-50.125,43.375,-147.25,1.004395,1.120117,0.2675781,-0.07958984,-0.3178711,-0.08447266
1214,-55.75,43.5,-148.5625,0.9423828,1.084961,0.2441406,-0.06640625,-0.3256836,-0.09082031
1218,-57.125,40.5625,-148.6875,0.9272461,1.038574,0.2480469,-0.05810547,-0.3305664,-0.09667969
1222,-53.25,41.9375,-150.25,0.8881836,0.9838867,0.2368164,-0.04394531,-0.3305664,-0.1088867
1226,-45.125,42.5,-152.5625,0.8183594,0.9296875,0.2329102,-0.03076172,-0.3305664,-0.1210938
1230,-37.8125,41.4375,-153.75,0.8261719,0.90625,0.2709961,-0.02246094,-0.3305664,-0.1289063
1235,-34.625,42.5625,-153.6875,0.8417969,0.9643555,0.3251953,-0.005859375,-0.3266602,-0.1357422
1239,-45.25,45,-151.375,0.7993164,1.003418,0.3212891,0.005859375,-0.3217773,-0.1401367
1243,-54.4375,42.3125,-147.75,0.7177734,0.8598633,0.2944336,0.01513672,-0.3144531,-0.1416016
1247,-48.0625,41.75,-146.5,0.6870117,0.7548828,0.2749023,0.02832031,-0.3095703,-0.1401367
1251,-39.3125,42.5,-143.9375,0.6557617,0.7119141,0.2983398,0.04052734,-0.3056641,-0.1401367
1255,-35.25,42,-139.5,0.625,0.7431641,0.3291016,0.04638672,-0.3007813,-0.1386719
1259,-41.125,44,-134.9375,0.625,0.7666016,0.375,0.05957031,-0.3017578,-0.137207
1263,-52.75,47.25,-127.6875,0.5629883,0.7353516,0.3828125,0.06982422,-0.3017578,-0.1347656
1267,-58.125,48.5625,-126.25,0.5009766,0.6147461,0.3291016,0.07617188,-0.3032227,-0.1333008
1271,-60.625,48.6875,-117.25,0.5087891,0.5292969,0.2905273,0.08691406,-0.3032227,-0.1347656
1275,-56.25,54.5,-106,0.4619141,0.3583984,0.2749023,0.09863281,-0.3041992,-0.1357422
1279,-46.875,63.625,-90.1875,0.4311523,0.2963867,0.2788086,0.1044922,-0.3056641,-0.1401367
1283,-35.625,69.625,-79.9375,0.2026367,0.2807617,0.2172852,0.1118164,-0.3056641,-0.1416016
1287,-18.625,62.4375,-82.875,0.04345703,0.315918,0.159668,0.1225586,-0.3066406,-0.144043
1291,-7.9375,53.9375,-80.8125,0.02832031,0.3583984,0.140625,0.128418,-0.3081055,-0.1416016
1295,-0.3125,46.125,-76.875,-0.05273438,0.3310547,0.140625,0.1367188,-0.3105469,-0.144043
1299,10.625,37.25,-73.5,-0.09130859,0.3466797,0.1674805,0.1450195,-0.3105469,-0.144043
1303,12.8125,30.625,-73.25,-0.09912109,0.4477539,0.2441406,0.1499023,-0.3095703,-0.1425781
1307,0.375,23.625,-69.25,-0.1147461,0.5097656,0.2944336,0.1567383,-0.3095703,-0.1469727
1311,-15.625,18.5625,-65.875,-0.1420898,0.4477539,0.2944336,0.1630859,-0.3105469,-0.1469727
1315,-20.8125,13.0625,-61.5,-0.1459961,0.2885742,0.2709961,0.1650391,-0.3056641,-0.1494141
1319,-20.3125,8.6875,-52.8125,-0.1225586,0.2265625,0.2749023,0.1723633,-0.3041992,-0.1538086
1323,-14.5,8.375,-44.25,-0.1147461,0.1835938,0.3134766,0.1757813,-0.3017578,-0.15625
1327,-11.5,9.6875,-35.6875,-0.1572266,0.2070313,0.3291016,0.1782227,-0.3007813,-0.15625
1331,-13.8125,8.375,-30.3125,-0.2119141,0.2109375,0.3291016,0.1821289,-0.2993164,-0.1591797
1335,-13.1875,5.1875,-24.25,-0.2192383,0.1523438,0.3134766,0.1831055,-0.2983398,-0.1616211
1339,-7.25,4.125,-14.8125,-0.2080078,0.07470703,0.2983398,0.184082,-0.296875,-0.1630859
1343,6.375,4.375,-9.1875,-0.1728516,0.05908203,0.3056641,0.1855469,-0.2944336,-0.1645508
1347,12.625,7.125,-2.25,-0.1845703,0.1445313,0.3017578,0.1865234,-0.2954102,-0.1616211
1351,3.25,2.6875,6.25,-0.2387695,0.203125,0.3056641,0.1889648,-0.2983398,-0.1616211
1355,-6.3125,-3.5,16.875,-0.2270508,0.1640625,0.2480469,0.1855469,-0.296875,-0.1616211
1359,-2.9375,-7.9375,25.5625,-0.215332,0.09423828,0.2094727,0.184082,-0.2983398,-0.1591797
1364,6.5625,-10.5,33.625,-0.2231445,0.1020508,0.2172852,0.1821289,-0.2983398,-0.1591797
1368,15.8125,-13.1875,39.6875,-0.1962891,0.140625,0.2211914,0.1796875,-0.2993164,-0.1591797
1372,20,-15.25,46.125,-0.1499023,0.1875,0.2675781,0.1772461,-0.3017578,-0.1577148
1376,17.1875,-16.4375,56.3125,-0.1381836,0.2109375,0.2709961,0.1723633,-0.3041992,-0.1538086
1380,14,-21.3125,66.875,-0.09521484,0.1953125,0.2675781,0.1689453,-0.3041992,-0.1523438
1384,16.6875,-24.25,76.625,-0.01416016,0.1679688,0.2709961,0.1616211,-0.3066406,-0.1494141
1388,18.9375,-24.9375,88.6875,0.08642578,0.1679688,0.2866211,0.1557617,-0.3066406,-0.1455078
1392,27.625,-21.875,96.9375,0.1328125,0.1523438,0.3017578,0.1474609,-0.3129883,-0.1416016
1396,33,-14.5625,112.4375,0.206543,0.2456055,0.3017578,0.1376953,-0.3144531,-0.137207
1400,27.6875,-12.4375,119.9375,0.08251953,0.4516602,0.2133789,0.1333008,-0.3154297,-0.1333008
1404,17.9375,-28.1875,122.5625,0.02832031,0.4633789,0.1557617,0.1210938,-0.3154297,-0.1303711
1408,12.5625,-44.6875,127.5,0.2529297,0.3974609,0.1904297,0.109375,-0.3144531,-0.125
1412,26,-46.875,140.375,0.3266602,0.3081055,0.2060547,0.1010742,-0.3129883,-0.1235352
1416,46.8125,-46.0625,143.6875,0.3886719,0.3935547,0.2675781,0.09033203,-0.3129883,-0.125
1420,65.875,-42.5,145.4375,0.3925781,0.4985352,0.2519531,0.07617188,-0.3120117,-0.1225586
1424,84.125,-41.4375,139.875,0.4272461,0.6264648,0.2905273,0.06884766,-0.3095703,-0.1210938
1428,90,-38.6875,140.1875,0.5239258,0.8325195,0.340332,0.05810547,-0.3095703,-0.1181641
1432,81.0625,-31.75,139.625,0.6171875,0.987793,0.3828125,0.04638672,-0.3081055,-0.1196289
1436,66,-28.9375,140.125,0.5200195,1.112305,0.3945313,0.04052734,-0.3105469,-0.1166992
1440,45.875,-34.6875,136.375,0.5048828,1.09668,0.3789063,0.02978516,-0.3144531,-0.1166992
1444,37.3125,-38.5,138.8125,0.5898438,1.003418,0.3637695,0.02001953,-0.3178711,-0.1210938
1448,37.75,-36.625,136,0.6713867,0.9760742,0.3637695,0.01171875,-0.3208008,-0.1196289
1452,44.6875,-29.125,132.4375,0.7333984,0.9916992,0.3671875,0,-0.328125,-0.1166992
1456,45.4375,-22.8125,128.5,0.7255859,1.088867,0.3481445,-0.01269531,-0.3344727,-0.112793
1460,36.6875,-23.5625,127.4375,0.6831055,1.124023,0.3173828,-0.02001953,-0.3378906,-0.105957
1464,28.875,-28.8125,127.8125,0.6713867,1.100586,0.3056641,-0.03173828,-0.3417969,-0.09912109
1468,25.75,-30.75,127.625,0.7758789,1.007324,0.3017578,-0.04492188,-0.3432617,-0.08984375
1472,42.5,-26.125,123.5625,0.7915039,0.972168,0.2827148,-0.05322266,-0.3442383,-0.08300781
1476,51.25,-19.875,117.25,0.8378906,1.081055,0.2675781,-0.06494141,-0.3393555,-0.07080078
1480,51.1875,-14.3125,113.9375,0.8149414,1.178223,0.2788086,-0.07470703,-0.3330078,-0.05859375
1484,37.75,-16.8125,111.0625,0.7836914,1.213379,0.2636719,-0.08056641,-0.3305664,-0.05419922
1488,21.3125,-23.0625,107.25,0.8300781,1.135742,0.2519531,-0.08886719,-0.3208008,-0.04882813
1493,19.5,-25.1875,106.25,0.8920898,0.9760742,0.2060547,-0.09863281,-0.3120117,-0.04492188
1497,38.375,-20.75,98.6875,0.9389648,0.793457,0.1943359,-0.1010742,-0.3041992,-0.03955078
1501,68.8125,-8,93,0.9814453,0.7973633,0.140625,-0.109375,-0.2929688,-0.03808594
1505,84.4375,2.625,91.4375,0.9233398,0.8867188,0.09033203,-0.1162109,-0.2856445,-0.03369141
1509,86.25,2.625,90.4375,0.8881836,0.956543,0.04443359,-0.1210938,-0.2783203,-0.03369141
1513,89.25,2.125,90.5625,0.9038086,0.855957,0.02099609,-0.1269531,-0.2705078,-0.03369141
1517,100.75,3.125,90.3125,0.9155273,0.8051758,0.001953125,-0.1328125,-0.2641602,-0.03369141
1521,112.375,5.375,89.8125,0.9658203,0.7973633,-0.02441406,-0.1352539,-0.2592773,-0.03369141
1525,127.375,13.1875,87.5625,1.039551,0.7197266,-0.07470703,-0.1411133,-0.2543945,-0.03662109
1529,144.5,22.375,86.0625,1.074219,0.6577148,-0.1245117,-0.1474609,-0.2519531,-0.03369141
1533,164,31,93.375,1.113281,0.6342773,-0.1977539,-0.1494141,-0.2519531,-0.03515625
1537,175.9375,36.3125,100.5,1.059082,0.7470703,-0.1899414,-0.1542969,-0.2504883,-0.03369141
1541,174.5,39.625,104.4375,1.004395,0.9604492,-0.1591797,-0.1591797,-0.2519531,-0.02978516
1545,157.5,40.75,107.3125,0.8378906,1.275391,-0.2128906,-0.1625977,-0.2529297,-0.02832031
1549,114.75,23.9375,90.5,0.6171875,1.609375,-0.2016602,-0.1674805,-0.2519531,-0.02294922
1553,45.0625,-1.3125,81.9375,0.6401367,1.660156,-0.1015625,-0.1723633,-0.2495117,-0.02050781
1557,-23.3125,-25.375,78.25,0.6713867,1.430664,-0.01660156,-0.1757813,-0.2504883,-0.01904297
1561,-67.5625,-40.4375,73.4375,0.7797852,1.197754,0.03271484,-0.1782227,-0.2480469,-0.01904297
1565,-82.4375,-41.625,64.9375,0.9462891,0.824707,0.04785156,-0.1855469,-0.2456055,-0.02294922
1569,-71.75,-30.375,56.3125,1.066406,0.5761719,0.05175781,-0.1855469,-0.2456055,-0.02587891
1573,-51.1875,-19.1875,54.1875,1.085938,0.4321289,0.01708984,-0.1899414,-0.2431641,-0.02832031
1577,-26.75,-10.75,56.9375,1.066406,0.4243164,-0.02441406,-0.1899414,-0.2407227,-0.03125
1581,-6.375,-4.875,57.4375,1.023926,0.4829102,-0.02441406,-0.1948242,-0.2392578,-0.03125
1585,5,-1.0625,58,1.004395,0.5644531,-0.01318359,-0.199707,-0.2358398,-0.03271484
1589,8.8125,0.5,53.75,0.9423828,0.6186523,-0.009277344,-0.2006836,-0.2358398,-0.03271484
1593,10.1875,4.375,48.5625,1.008301,0.6845703,0.009765625,-0.2021484,-0.234375,-0.02832031
1597,7.875,11.875,40.875,0.8803711,0.7353516,-0.05517578,-0.206543,-0.2304688,-0.02978516
1601,0.5625,7.6875,34.0625,0.8071289,0.8208008,-0.08984375,-0.2089844,-0.2294922,-0.03125
1605,-14.5,-0.25,26.9375,0.7216797,0.8710938,-0.1206055,-0.2089844,-0.2294922,-0.03125
1609,-35.0625,-12.625,21.875,0.675293,1.06543,-0.09375,-0.2104492,-0.2280273,-0.03125
1613,-60.25,-20.75,9.25,0.7680664,1.045898,-0.04394531,-0.2128906,-0.2255859,-0.03271484
1617,-70.5625,-21,-0.25,0.8730469,0.8325195,-0.03613281,-0.2114258,-0.2270508,-0.03515625
1622,-59.875,-12.5625,-5.0625,0.9077148,0.7275391,-0.03613281,-0.2138672,-0.2255859,-0.03662109
1626,-59.9375,-10.5625,-7.375,0.8769531,0.8208008,0.001953125,-0.2114258,-0.2255859,-0.03955078
1630,-57.25,-8,-15.75,0.8457031,0.890625,-0.02832031,-0.2128906,-0.2255859,-0.04052734
1634,-53.9375,-8.0625,-29,0.8691406,0.9453125,-0.01660156,-0.2104492,-0.2246094,-0.04492188
1638,-49.25,-4.0625,-41.25,0.8881836,1.061523,0.005859375,-0.2104492,-0.2270508,-0.04736328
1642,-52.25,-1.6875,-56.3125,0.8881836,1.162598,0.03662109,-0.206543,-0.2270508,-0.04736328
1646,-63.5,-4.6875,-65.5,0.8071289,1.221191,0.02099609,-0.203125,-0.2294922,-0.05175781
1650,-74.3125,-12.3125,-69.8125,0.8803711,1.166504,0.05175781,-0.2006836,-0.2304688,-0.05273438
1654,-75.375,-9.125,-74.9375,0.9931641,1.13916,0.08642578,-0.1982422,-0.2304688,-0.05566406
1658,-71.375,-0.125,-88.3125,1.059082,1.182129,0.105957,-0.1948242,-0.2329102,-0.05712891
1662,-73.375,6.3125,-99.3125,1.039551,1.205566,0.07910156,-0.1889648,-0.234375,-0.05712891
1666,-77.9375,6.25,-108.5,1.02002,1.197754,0.03271484,-0.184082,-0.2329102,-0.05957031
1670,-76.8125,6.5625,-114.75,1.066406,1.100586,0.04052734,-0.1782227,-0.2368164,-0.05957031
1674,-69.75,11.1875,-122.625,1.078125,1.088867,0.05957031,-0.168457,-0.2407227,-0.06103516
1678,-63.25,14,-131.125,1.097656,1.120117,0.07128906,-0.1674805,-0.2407227,-0.05859375
1682,-67.25,15.8125,-135.8125,1.128418,1.166504,0.105957,-0.1582031,-0.2470703,-0.05419922
1686,-77.1875,18.0625,-139.1875,1.128418,1.166504,0.09814453,-0.1494141,-0.2558594,-0.05175781
1690,-86.1875,16.875,-142.5625,1.128418,1.12793,0.07519531,-0.1411133,-0.2568359,-0.05175781
1694,-86.75,18.125,-145.4375,1.132324,1.026855,0.05175781,-0.1328125,-0.265625,-0.05175781
1698,-78.0625,19.25,-147.8125,1.121094,0.9643555,0.07910156,-0.1210938,-0.2768555,-0.05029297
1702,-67.1875,23.5625,-153.75,1.147949,0.987793,0.1289063,-0.1152344,-0.2832031,-0.04882813
1706,-65.625,28.1875,-157.5,1.159668,1.04248,0.1787109,-0.1030273,-0.296875,-0.05029297
1710,-72.125,28.625,-157.1875,1.124512,0.956543,0.1557617,-0.09130859,-0.3095703,-0.05566406
1714,-68.6875,29.375,-152.6875,1.121094,0.8710938,0.1713867,-0.08203125,-0.3154297,-0.06103516
1718,-57.9375,32.5625,-150,1.066406,0.8286133,0.1635742,-0.06982422,-0.3242188,-0.07080078
1722,-47.9375,35.5,-149.8125,1.055176,0.8867188,0.2290039,-0.05810547,-0.3330078,-0.08007813
1726,-46.5625,38,-150.3125,1.008301,0.9375,0.2402344,-0.04833984,-0.3369141,-0.08691406
1730,-48.0625,39.3125,-151.9375,0.9462891,0.9492188,0.2441406,-0.03662109,-0.3408203,-0.09912109
1734,-50.4375,38.0625,-151.5625,0.8803711,0.9101563,0.2329102,-0.0234375,-0.3378906,-0.1113281
1738,-54.5625,37.25,-149.5,0.8496094,0.8671875,0.2290039,-0.01269531,-0.3344727,-0.1166992
1742,-53.125,37.8125,-144.75,0.8071289,0.7895508,0.2558594,0.0009765625,-0.3291016,-0.1264648
1746,-52.6875,39.375,-139.375,0.7602539,0.793457,0.2675781,0.01416016,-0.3232422,-0.1289063
1751,-56.4375,38.6875,-135.0625,0.6713867,0.8012695,0.2519531,0.02001953,-0.3178711,-0.1333008
1755,-64.1875,35.8125,-129.5,0.644043,0.8012695,0.2675781,0.03173828,-0.3105469,-0.1347656
1759,-65.5,38.9375,-126.375,0.609375,0.6655273,0.2480469,0.04150391,-0.3056641,-0.1333008
1763,-51.75,44,-123.8125,0.543457,0.5566406,0.2290039,0.04882813,-0.3041992,-0.1318359
1767,-35.125,48.25,-122.125,0.4814453,0.5175781,0.1943359,0.06054688,-0.2993164,-0.1303711
1771,-15.0625,51.3125,-116.75,0.4233398,0.4868164,0.1787109,0.06787109,-0.3017578,-0.1279297
1775,9.3125,54.4375,-109.75,0.3227539,0.4052734,0.1367188,0.07470703,-0.3032227,-0.1210938
1779,49.4375,53.6875,-101.9375,0.159668,0.3466797,0.06738281,0.08544922,-0.3056641,-0.1166992
1783,93.25,50.25,-102.625,0.1518555,0.4672852,0.07910156,0.09521484,-0.3105469,-0.105957
1787,123,52.6875,-109.875,0.125,0.6342773,0.06347656,0.09960938,-0.3144531,-0.09912109
1791,133.5625,48.4375,-115.4375,0.03564453,0.7817383,0.05957031,0.109375,-0.3193359,-0.08691406
1795,116.6875,34.5,-118.5,-0.006347656,0.956543,0.105957,0.1201172,-0.3217773,-0.07617188
1799,72.3125,16.25,-110.4375,-0.03320313,1.003418,0.1674805,0.1293945,-0.3266602,-0.06933594
1803,22.625,-3.5625,-96.375,-0.06445313,0.890625,0.1943359,0.1376953,-0.3242188,-0.06396484
1807,-10.5,-18.4375,-90.0625,0.01660156,0.6923828,0.2211914,0.1459961,-0.3266602,-0.06640625
1811,-22.25,-16.9375,-82.75,0.07861328,0.4204102,0.2368164,0.1523438,-0.3266602,-0.07177734
1815,-16.5,-15.8125,-76.0625,0.004882813,0.2495117,0.2368164,0.1582031,-0.3266602,-0.07617188
1819,-11.6875,-15.25,-64.75,0.06689453,0.1875,0.2709961,0.1640625,-0.3266602,-0.08007813
1823,-13.6875,-8.0625,-51.3125,0.05908203,0.1640625,0.2944336,0.1674805,-0.3242188,-0.08300781
1827,-13.4375,-2.25,-40,0.01269531,0.1293945,0.2749023,0.1723633,-0.3232422,-0.08691406
1831,-9.6875,1.875,-33.0625,-0.09912109,0.1757813,0.2290039,0.1748047,-0.3242188,-0.09082031
1835,-4.8125,1.6875,-26.3125,-0.1459961,0.1992188,0.2211914,0.1748047,-0.3232422,-0.08837891
1839,-4.375,2.875,-24.4375,-0.1689453,0.237793,0.2480469,0.1782227,-0.3217773,-0.09375
1843,-11.75,0.625,-18.6875,-0.1572266,0.2416992,0.2636719,0.1806641,-0.3232422,-0.09228516
1847,-21.25,-1.1875,-4.1875,-0.1459961,0.1835938,0.2402344,0.1806641,-0.3217773,-0.09521484
1851,-21.6875,-2.5625,7.0625,-0.1884766,0.1601563,0.2060547,0.1806641,-0.3208008,-0.09765625
1855,-18,-2.8125,15.625,-0.1845703,0.1835938,0.2133789,0.1796875,-0.3208008,-0.09912109
1859,-12.9375,-3,21.1875,-0.2231445,0.1835938,0.1748047,0.1796875,-0.3217773,-0.1005859
1863,-4.3125,-5.875,25,-0.1923828,0.1835938,0.1713867,0.1757813,-0.3208008,-0.09912109
1867,3.25,-6.75,32.5,-0.1572266,0.1796875,0.1748047,0.1748047,-0.3217773,-0.1005859
1871,7.4375,-8.3125,42.5625,-0.1108398,0.1992188,0.2094727,0.1738281,-0.3232422,-0.1005859
1875,9.4375,-7.75,52.5625,-0.05664063,0.2885742,0.2368164,0.1689453,-0.3232422,-0.09765625
1880,5.875,-6.4375,60.875,-0.09912109,0.3818359,0.2172852,0.1640625,-0.3217773,-0.09228516
1884,1.5625,-11.1875,66.1875,-0.09130859,0.3662109,0.1674805,0.1616211,-0.3242188,-0.09375
1888,3.5625,-14.875,72.6875,-0.04492188,0.3701172,0.1904297,0.1547852,-0.3242188,-0.09228516
1892,5.3125,-15.25,77.625,0.02050781,0.4086914,0.2060547,0.1474609,-0.3242188,-0.09082031
1896,3.9375,-16.5625,84.75,0.06298828,0.4633789,0.2211914,0.1425781,-0.3256836,-0.09082031
1900,4.9375,-16.6875,89.6875,0.1054688,0.4243164,0.1982422,0.1342773,-0.3242188,-0.08984375
1904,9,-16.6875,95.9375,0.109375,0.4360352,0.1943359,0.1269531,-0.3242188,-0.08837891
1908,15.125,-19.375,105.75,0.2026367,0.4477539,0.1904297,0.1210938,-0.3232422,-0.08984375
1912,21.625,-16.25,111.8125,0.2836914,0.5913086,0.2021484,0.112793,-0.3217773,-0.08837891
1916,24.125,-13.3125,116.3125,0.2954102,0.6845703,0.1982422,0.1020508,-0.3217773,-0.08837891
1920,24.1875,-13.5,114.0625,0.2333984,0.7509766,0.1787109,0.09619141,-0.3193359,-0.08691406
1924,24.125,-19.0625,118.5,0.2758789,0.7275391,0.1865234,0.08544922,-0.3193359,-0.08984375
1928,28.875,-23.5625,125.0625,0.3613281,0.6884766,0.1865234,0.07617188,-0.3193359,-0.08984375
1932,42.8125,-22.625,132.75,0.4467773,0.7119141,0.1826172,0.06982422,-0.3193359,-0.09082031
1936,58,-16.1875,131.625,0.4697266,0.8710938,0.1713867,0.06054688,-0.3193359,-0.09082031
1940,59.6875,-12.6875,130.5,0.4467773,0.9956055,0.1865234,0.04980469,-0.3217773,-0.09228516
1944,45.3125,-18.6875,132.1875,0.4389648,1.104492,0.1865234,0.04248047,-0.3266602,-0.09082031
1948,25,-24.5,137.0625,0.4970703,1.143066,0.1787109,0.03076172,-0.328125,-0.08984375
1952,9.375,-28.6875,137.25,0.5200195,1.104492,0.1635742,0.02001953,-0.3320313,-0.09375
1956,10.375,-29.125,137.4375,0.5356445,0.9799805,0.09033203,0.01269531,-0.3330078,-0.09082031
1960,17.6875,-32,130.4375,0.6132813,0.9956055,0.1328125,0,-0.3378906,-0.08984375
1964,17.75,-33.25,132.1875,0.6289063,1.019043,0.159668,-0.01025391,-0.3408203,-0.08691406
1968,8.125,-38.8125,129.375,0.7641602,1.038574,0.2519531,-0.01855469,-0.3417969,-0.08154297
1972,1.5625,-34.1875,136.6875,0.8613281,0.9140625,0.2709961,-0.02929688,-0.3417969,-0.07861328
1976,5.9375,-29.9375,137,0.8300781,0.8867188,0.2519531,-0.04150391,-0.3393555,-0.07324219
1980,19,-25.625,130.375,0.8613281,0.9335938,0.1787109,-0.04980469,-0.3369141,-0.06933594
1984,23.75,-22.6875,123.3125,0.9155273,0.9453125,0.1787109,-0.06152344,-0.3320313,-0.06396484
1988,8.625,-24.9375,123.6875,0.9116211,0.9995117,0.1865234,-0.06982422,-0.3242188,-0.06103516
1992,-14.9375,-31.1875,128.6875,0.9077148,0.9140625,0.1787109,-0.078125,-0.3208008,-0.05957031
1996,-16.4375,-38.3125,138.875,0.8999023,0.7856445,0.159668,-0.08789063,-0.3120117,-0.05566406
2000,-3.0625,-40.25,136.25,0.9311523,0.9375,0.1865234,-0.09960938,-0.3032227,-0.05712891
2004,-9.8125,-40.9375,126,0.9541016,1.143066,0.2519531,-0.1054688,-0.2983398,-0.05859375
2009,-38.375,-44.9375,117.125,0.9116211,1.287109,0.3330078,-0.1152344,-0.2895508,-0.05957031
2013,-76.9375,-52.5625,104.5625,0.9077148,1.221191,0.3481445,-0.1235352,-0.2768555,-0.06396484
2017,-105.8125,-59.625,95.125,0.8999023,0.9995117,0.2983398,-0.1293945,-0.2729492,-0.06787109
2021,-97.8125,-62.0625,87.1875,0.9155273,0.7705078,0.2558594,-0.1376953,-0.2617188,-0.07617188
2025,-60.75,-55.125,66.4375,0.9775391,0.6381836,0.2519531,-0.1435547,-0.2529297,-0.08447266
2029,-11.6875,-37.8125,45.125,1.070313,0.5952148,0.2709961,-0.1474609,-0.2495117,-0.08837891
2033,27.8125,-16,34.8125,1.066406,0.6655273,0.2749023,-0.1508789,-0.2431641,-0.08984375
2037,42,-4.9375,43.75,1.023926,0.7666016,0.2866211,-0.1542969,-0.2416992,-0.09082031
2041,35.375,-4.3125,60.1875,0.9697266,0.8168945,0.2749023,-0.1567383,-0.2382813,-0.09082031
2045,29.875,-3.8125,71.0625,0.9658203,0.7705078,0.2368164,-0.1616211,-0.234375,-0.09228516
2049,49.375,3.8125,70,0.9970703,0.6069336,0.1787109,-0.1650391,-0.2319336,-0.09521484
2053,87.5,15.3125,63.375,0.9580078,0.6030273,0.105957,-0.168457,-0.2304688,-0.09765625
2057,118.1875,24.6875,54.5,0.9501953,0.6655273,0.05957031,-0.1733398,-0.2304688,-0.09521484
2061,140.1875,33.625,52.125,1.012207,0.7197266,0.05175781,-0.1733398,-0.2304688,-0.09375
2065,148,43.4375,57.9375,1.039551,0.8012695,-0.01318359,-0.1757813,-0.2319336,-0.09375
2069,147.875,45.75,63.1875,0.9311523,0.875,-0.05126953,-0.1757813,-0.234375,-0.08984375
2073,138.875,39.0625,64,0.8691406,0.9995117,-0.05126953,-0.1782227,-0.2358398,-0.08544922
2077,118.9375,31,61.5625,0.8222656,1.108398,0.001953125,-0.1816406,-0.2382813,-0.08154297
2081,87.6875,21.1875,63.25,0.7333984,1.228516,0.03271484,-0.1806641,-0.2358398,-0.07763672
2085,51.625,7.4375,61.375,0.6870117,1.279297,0.06738281,-0.1855469,-0.2368164,-0.07763672
2089,24.8125,-2.5,51.8125,0.6518555,1.271484,0.07128906,-0.1875,-0.2368164,-0.07617188
2093,11.4375,-10.3125,33.75,0.6635742,1.248047,0.105957,-0.1889648,-0.2358398,-0.07470703
2097,0.75,-11.5625,15.75,0.7060547,1.259766,0.1518555,-0.1938477,-0.2329102,-0.07470703
2101,-11.375,-9.0625,2.0625,0.7451172,1.251953,0.2060547,-0.1923828,-0.2319336,-0.07324219
2105,-25.75,-6.125,-7.4375,0.7680664,1.251953,0.2094727,-0.1923828,-0.2329102,-0.07470703
2109,-35.3125,-2,-16.25,0.7758789,1.221191,0.1943359,-0.1938477,-0.2319336,-0.07617188
2113,-42.9375,-0.0625,-28,0.7373047,1.225098,0.1479492,-0.1938477,-0.2329102,-0.07763672
2117,-50.625,-2.25,-39.3125,0.7333984,1.221191,0.105957,-0.1899414,-0.2319336,-0.07861328
2121,-59,-4.625,-49.4375,0.7641602,1.240234,0.1098633,-0.1865234,-0.2319336,-0.08007813
2125,-65.6875,-7.6875,-59.9375,0.7758789,1.189941,0.1098633,-0.1875,-0.234375,-0.08154297
2129,-69.375,-9.5625,-68.5,0.8183594,1.174316,0.140625,-0.1855469,-0.2319336,-0.08544922
2133,-74.5,-10,-76.5625,0.8574219,1.154785,0.159668,-0.1806641,-0.2329102,-0.08544922
2138,-73.4375,-5.4375,-82.625,0.9501953,1.077148,0.1943359,-0.1772461,-0.2319336,-0.08691406
2142,-63.8125,3.625,-91.8125,0.9931641,1.026855,0.2094727,-0.1733398,-0.234375,-0.08691406
2146,-51.5,11.125,-101.4375,0.9970703,1.069336,0.2094727,-0.168457,-0.2358398,-0.08544922
2150,-50.25,15.9375,-107.75,0.9892578,1.178223,0.2441406,-0.1640625,-0.2358398,-0.08447266
2154,-56.125,17.4375,-112.6875,0.9462891,1.228516,0.2329102,-0.1582031,-0.2392578,-0.08154297
2158,-61.3125,17.125,-120.8125,0.9814453,1.232422,0.2329102,-0.1494141,-0.2431641,-0.08300781
2162,-62.0625,21.5625,-127.1875,1.043457,1.189941,0.2402344,-0.1474609,-0.2456055,-0.07763672
2166,-61.0625,27.5,-134.4375,1.066406,1.158691,0.2441406,-0.1367188,-0.2529297,-0.07324219
2170,-59.25,31.0625,-139,1.0625,1.150879,0.2060547,-0.128418,-0.2617188,-0.07080078
2174,-59.9375,32.9375,-144.0625,1.023926,1.092773,0.1826172,-0.1210938,-0.2680664,-0.06787109
2178,-55.4375,33.125,-143.5625,0.9931641,1.01123,0.1518555,-0.1079102,-0.2783203,-0.06787109
2182,-40.6875,34.25,-140.6875,0.9580078,0.9760742,0.1635742,-0.09716797,-0.2905273,-0.06787109
2186,-21.375,36.0625,-143.4375,0.9462891,1.09668,0.2060547,-0.09033203,-0.2983398,-0.07080078
2190,-15.3125,37.4375,-155.875,0.9580078,1.298828,0.2749023,-0.07568359,-0.3105469,-0.07177734
2194,-27.3125,39.5,-167.5625,0.9541016,1.356934,0.2905273,-0.06298828,-0.3193359,-0.07763672
2198,-46.6875,33.375,-171.9375,0.9233398,1.283203,0.2749023,-0.05419922,-0.328125,-0.08300781
2202,-56.0625,30.6875,-173.6875,1.000488,1.116211,0.2519531,-0.0390625,-0.3320313,-0.09375
2206,-56,34.8125,-170.625,0.9931641,0.956543,0.2402344,-0.0234375,-0.3369141,-0.105957
2210,-44.5625,40.625,-164.4375,0.9462891,0.8012695,0.2290039,-0.01269531,-0.3344727,-0.1166992
2214,-27.875,44.3125,-160.0625,0.8457031,0.7895508,0.2094727,0.002441406,-0.3330078,-0.125
2218,-16.8125,43.4375,-156.875,0.7719727,0.8710938,0.2329102,0.01660156,-0.3256836,-0.1318359
2222,-16.5625,40.4375,-158.0625,0.7294922,0.987793,0.2866211,0.0234375,-0.3217773,-0.1347656
2226,-25.625,38.25,-158.4375,0.7060547,0.972168,0.3134766,0.0390625,-0.3168945,-0.1347656
2230,-35.375,35.125,-154.25,0.6713867,0.9101563,0.3134766,0.04980469,-0.3095703,-0.1333008
2234,-38.4375,34.5625,-148.9375,0.6401367,0.7856445,0.3056641,0.05810547,-0.3066406,-0.1333008
2238,-31.8125,37.25,-142.9375,0.6171875,0.6733398,0.2827148,0.07128906,-0.3017578,-0.1289063
2242,-22.75,39.6875,-136.9375,0.5239258,0.7314453,0.2866211,0.08056641,-0.2993164,-0.1279297
2246,-26.125,36,-136.8125,0.4541016,0.777832,0.2944336,0.08886719,-0.2993164,-0.1235352
2250,-38.6875,32.4375,-131.4375,0.4194336,0.7626953,0.2905273,0.09960938,-0.2983398,-0.1225586
2254,-52.125,28.1875,-123.0625,0.3378906,0.6459961,0.2519531,0.1103516,-0.2983398,-0.1210938
2258,-53.5,25.8125,-113.1875,0.3110352,0.5214844,0.2368164,0.1186523,-0.3007813,-0.1225586
2262,-42.5,26.8125,-109.25,0.2758789,0.4790039,0.2480469,0.1269531,-0.2993164,-0.125
2267,-37.3125,28.0625,-107.4375,0.2216797,0.5214844,0.2709961,0.1376953,-0.2983398,-0.125
2271,-44.6875,27.25,-100.4375,0.1674805,0.5136719,0.2749023,0.144043,-0.2983398,-0.1279297
2275,-55.3125,23.75,-88.4375,0.05908203,0.4125977,0.2211914,0.1523438,-0.2993164,-0.1303711
2279,-52,17,-78.9375,0.01660156,0.2885742,0.1748047,0.1606445,-0.296875,-0.1386719
2283,-41.375,14.25,-74.4375,-0.002441406,0.2495117,0.1518555,0.1650391,-0.2929688,-0.1401367
2287,-34.125,10.8125,-68.75,-0.04882813,0.2299805,0.1635742,0.1723633,-0.2929688,-0.1469727
2291,-29.625,5.125,-61.6875,-0.03710938,0.2109375,0.2021484,0.1757813,-0.2919922,-0.1508789
2295,-29.0625,8.625,-55,-0.02587891,0.237793,0.2441406,0.1782227,-0.2895508,-0.1538086
2299,-33.25,12.125,-49.8125,-0.07617188,0.21875,0.2519531,0.1855469,-0.2866211,-0.1577148
2303,-33.875,12.3125,-41.875,-0.1767578,0.140625,0.2133789,0.1889648,-0.2841797,-0.1606445
2307,-25.5625,4.3125,-34.5,-0.2080078,0.08642578,0.2133789,0.1914063,-0.2841797,-0.1645508
2311,-15.4375,2.375,-27.5625,-0.1108398,0.07080078,0.2636719,0.1938477,-0.2817383,-0.1660156
2315,-6.5625,7.8125,-20.875,-0.1381836,0.07861328,0.2866211,0.1938477,-0.2807617,-0.168457
2319,-1.25,8.9375,-13.875,-0.1767578,0.09033203,0.2944336,0.1972656,-0.2783203,-0.1674805
2323,0.0625,7.4375,-6.0625,-0.2001953,0.105957,0.2480469,0.1972656,-0.2792969,-0.168457
2327,1.8125,3.75,1.5,-0.2041016,0.1020508,0.2368164,0.1987305,-0.2792969,-0.1699219
2331,3,0.8125,8.0625,-0.2041016,0.09814453,0.2133789,0.1972656,-0.2783203,-0.168457
2335,4.9375,-3.5,18.6875,-0.2041016,0.09814453,0.2060547,0.1972656,-0.2792969,-0.1674805
2339,9.6875,-7,28.5625,-0.2041016,0.09033203,0.1982422,0.1948242,-0.2817383,-0.1645508
2343,15.4375,-11,38.5,-0.2041016,0.1367188,0.2021484,0.1948242,-0.2817383,-0.1645508
2347,19.875,-12.75,42.6875,-0.215332,0.1875,0.2094727,0.1914063,-0.2832031,-0.1630859
2351,28.375,-16.875,45.125,-0.1728516,0.2070313,0.2172852,0.1865234,-0.2841797,-0.1606445
2355,36.4375,-18.5625,48.5625,-0.1147461,0.2573242,0.2402344,0.1821289,-0.2866211,-0.1591797
2359,40.25,-21.125,53.25,-0.04101563,0.3120117,0.2983398,0.1782227,-0.2880859,-0.1547852
2363,37,-18.5625,58.8125,0.004882813,0.3896484,0.3364258,0.1738281,-0.2919922,-0.1508789
2367,27.1875,-15.75,62.625,-0.03710938,0.4282227,0.3330078,0.1689453,-0.2944336,-0.1484375
2371,16.3125,-21.6875,70,-0.06445313,0.3974609,0.2597656,0.1640625,-0.2944336,-0.144043
2375,18.0625,-30.25,75.875,-0.02978516,0.3310547,0.1943359,0.1557617,-0.2954102,-0.1416016
2379,33.4375,-35.5625,77.9375,0.03955078,0.3310547,0.1826172,0.1523438,-0.2954102,-0.1401367
2383,48.75,-36.1875,81.5625,0.140625,0.4086914,0.2290039,0.144043,-0.2944336,-0.137207
2387,55.25,-30,84.9375,0.2104492,0.5332031,0.2788086,0.1367188,-0.2919922,-0.1347656
2391,50,-26.25,93.3125,0.2138672,0.6459961,0.3056641,0.1308594,-0.2929688,-0.1333008
2396,43.5,-26.4375,102.5625,0.2373047,0.6811523,0.3134766,0.1210938,-0.2954102,-0.1303711
2400,38.875,-25.5625,109.125,0.2797852,0.7353516,0.3212891,0.1118164,-0.296875,-0.1289063
2404,39.1875,-24.8125,116.0625,0.2797852,0.7392578,0.2983398,0.1079102,-0.2944336,-0.1318359
2408,41.75,-28.0625,119.0625,0.2758789,0.777832,0.2944336,0.09765625,-0.2954102,-0.1333008
2412,44.9375,-30.5625,121.9375,0.3378906,0.8012695,0.2983398,0.08789063,-0.296875,-0.1318359
2416,51.8125,-30.125,125.875,0.4233398,0.8520508,0.3212891,0.08056641,-0.2993164,-0.1347656
2420,54.3125,-24.125,128.3125,0.4814453,0.9414063,0.3330078,0.06982422,-0.3032227,-0.1347656
2424,52.3125,-21.3125,126.6875,0.4775391,1.022949,0.3291016,0.06396484,-0.3081055,-0.1318359
2428,47.625,-21.0625,128.375,0.4736328,1.061523,0.3173828,0.05566406,-0.3129883,-0.1333008
2432,43.3125,-25.5625,124.75,0.4775391,1.034668,0.3173828,0.04492188,-0.3154297,-0.1303711
2436,42.9375,-29.6875,128.6875,0.5126953,1.015137,0.2788086,0.03564453,-0.3217773,-0.1289063
2440,47.125,-33.75,123.875,0.6328125,0.9956055,0.2636719,0.02734375,-0.3266602,-0.1264648
2444,56.5625,-28.125,125.4375,0.6831055,0.987793,0.2709961,0.01757813,-0.3320313,-0.1196289
2448,58.9375,-23.3125,123.1875,0.6831055,1.045898,0.2636719,0.005859375,-0.3344727,-0.1098633
2452,57.5,-23.9375,121,0.675293,1.053711,0.2558594,0.0009765625,-0.3369141,-0.1035156
2456,50.75,-20.9375,120.1875,0.7568359,1.09668,0.2866211,-0.01171875,-0.3354492,-0.09375
2460,45.1875,-17.875,127.5,0.675293,1.04248,0.2060547,-0.02246094,-0.3320313,-0.08544922
2464,54.5,-21.75,122.4375,0.6171875,1.073242,0.09423828,-0.02832031,-0.3305664,-0.08154297
2468,68.625,-26.75,101.8125,0.6328125,1.178223,0.09814453,-0.03662109,-0.3266602,-0.07324219
2472,71.9375,-28.5625,78.375,0.7099609,1.244141,0.1210938,-0.04736328,-0.3208008,-0.06640625
2476,62.875,-35.5,68.1875,0.7294922,1.221191,0.1826172,-0.05078125,-0.3144531,-0.06396484
2480,50.375,-37.9375,80.8125,0.8339844,1.189941,0.2749023,-0.05664063,-0.3105469,-0.05957031
2484,36.8125,-31.8125,94.8125,0.8417969,1.189941,0.2983398,-0.06640625,-0.3041992,-0.05712891
2488,36.1875,-24.3125,101.875,0.8339844,1.12793,0.2866211,-0.07128906,-0.2993164,-0.05859375
2492,49,-11.75,94.375,0.8691406,1.154785,0.2368164,-0.07958984,-0.2954102,-0.05859375
2496,55.125,-0.125,81.6875,0.8300781,1.213379,0.1904297,-0.08544922,-0.2905273,-0.05566406
2500,51.875,2.3125,74.3125,0.8300781,1.20166,0.1748047,-0.09375,-0.2880859,-0.05859375
2504,48.625,6.625,81.75,0.8032227,1.088867,0.1020508,-0.09863281,-0.2856445,-0.05859375
2508,54,7.625,83.4375,0.7875977,1.053711,0.09423828,-0.1069336,-0.2817383,-0.06103516
2512,53.8125,10.1875,86.125,0.7875977,1.038574,0.07910156,-0.1103516,-0.2792969,-0.06103516
2516,57.25,12.125,87,0.8222656,0.953125,0.08642578,-0.1176758,-0.2768555,-0.06396484
2520,60.875,20.625,93.3125,0.8574219,1.019043,0.1020508,-0.1235352,-0.2753906,-0.0625
2525,56.25,22.5625,88.25,0.7333984,1.120117,0.02880859,-0.1269531,-0.2744141,-0.06396484
2529,47.9375,12.9375,84.5,0.6982422,1.069336,-0.01318359,-0.1328125,-0.2719727,-0.06542969
2533,44.5625,6.25,81.9375,0.7602539,0.9682617,0.009765625,-0.1376953,-0.2729492,-0.06542969
2537,46,4.625,83.625,0.8183594,0.8945313,0.06738281,-0.1391602,-0.2705078,-0.0625
2541,52.625,12.25,86.1875,0.9272461,0.8520508,0.1518555,-0.1459961,-0.2705078,-0.06396484
2545,52.375,26.625,91.4375,0.8457031,1.030762,0.09033203,-0.1508789,-0.2680664,-0.06396484
2549,36.8125,24.125,86.6875,0.6479492,1.217285,0.001953125,-0.1542969,-0.2680664,-0.0625
2553,19.75,12.875,70.1875,0.5239258,1.251953,-0.06689453,-0.1601563,-0.2641602,-0.0625
2557,5.125,-3.1875,56.8125,0.4467773,1.317871,-0.02441406,-0.1640625,-0.2607422,-0.06396484
2561,-18.6875,-22.125,42.5,0.3730469,1.504395,-0.009277344,-0.1640625,-0.2617188,-0.06396484
2565,-54.3125,-39.4375,25.375,0.3378906,1.632813,-0.005371094,-0.168457,-0.2592773,-0.06396484
2569,-99.3125,-61.25,11.875,0.2915039,1.574707,-0.03613281,-0.1708984,-0.2568359,-0.06542969
2573,-134,-83.5,5,0.3999023,1.395996,0.009765625,-0.1699219,-0.2568359,-0.06787109
2577,-139.875,-87.0625,-3.125,0.6401367,1.232422,0.1171875,-0.1748047,-0.2529297,-0.07177734
2581,-127.4375,-69.3125,-17.75,0.7875977,1.162598,0.1787109,-0.1757813,-0.2504883,-0.07763672
2585,-103.6875,-42.5625,-36.75,0.8183594,1.104492,0.1635742,-0.1748047,-0.2504883,-0.07617188
2589,-77,-22.75,-54.4375,0.7602539,1.077148,0.159668,-0.1723633,-0.2519531,-0.08154297
2593,-63.0625,-14,-61.8125,0.7138672,1.135742,0.1787109,-0.1699219,-0.2504883,-0.08447266
2597,-59.8125,-9.5625,-66.3125,0.7641602,1.182129,0.2519531,-0.1674805,-0.2519531,-0.08447266
2601,-66.3125,-4.6875,-68.875,0.7719727,1.244141,0.2519531,-0.1640625,-0.2529297,-0.08837891
2605,-75.5,-2.8125,-76,0.7875977,1.255859,0.2290039,-0.1591797,-0.2543945,-0.08984375
2609,-80.625,1,-82.875,0.8149414,1.193848,0.2211914,-0.1557617,-0.2529297,-0.09082031
2613,-81.0625,2.8125,-89.125,0.8183594,1.154785,0.2290039,-0.1508789,-0.2543945,-0.09375
2617,-78.125,7,-96.1875,0.8881836,1.135742,0.2788086,-0.1411133,-0.2568359,-0.09082031
2621,-76.5,15.5,-102.875,0.8999023,1.13916,0.2788086,-0.1391602,-0.2592773,-0.09375
2625,-75.8125,20.875,-105.8125,0.9077148,1.13916,0.2788086,-0.1293945,-0.2617188,-0.09667969
2629,-74.6875,26.1875,-106.5,0.9272461,1.104492,0.2944336,-0.1220703,-0.265625,-0.09765625
2633,-73.4375,32.5625,-107.8125,0.9155273,1.108398,0.2709961,-0.1162109,-0.2680664,-0.09765625
2637,-68.75,38.375,-110,0.8769531,1.073242,0.2368164,-0.1069336,-0.2744141,-0.09765625
2641,-62.875,40.8125,-112.6875,0.8110352,1.092773,0.2290039,-0.09472656,-0.2783203,-0.1035156
2645,-60.0625,40.5625,-118.9375,0.8261719,1.135742,0.2558594,-0.09033203,-0.2832031,-0.1035156
2649,-64.25,40.5625,-124.3125,0.8574219,1.158691,0.2749023,-0.07714844,-0.2880859,-0.105957
2654,-66.6875,42.0625,-128.125,0.8535156,1.088867,0.2749023,-0.06738281,-0.2944336,-0.1098633
2658,-65.0625,42.0625,-129.6875,0.8071289,1.007324,0.2597656,-0.05810547,-0.2993164,-0.1098633
2662,-55.1875,43.875,-126.125,0.8457031,0.9257813,0.2788086,-0.04492188,-0.3041992,-0.1196289
2666,-42.8125,50,-123.75,0.8574219,0.9760742,0.3212891,-0.03417969,-0.3105469,-0.1235352
2670,-40.8125,54.75,-124.75,0.8071289,1.06543,0.340332,-0.02685547,-0.3120117,-0.1279297
2674,-47.4375,54.25,-124.5625,0.7294922,1.057617,0.3364258,-0.01513672,-0.3144531,-0.1347656
2678,-49.25,52.875,-120.5,0.7021484,0.9916992,0.3330078,-0.001953125,-0.3144531,-0.1425781
2682,-41.4375,57.75,-118.4375,0.690918,0.9023438,0.3330078,0.004394531,-0.3154297,-0.1469727
2686,-17.6875,66.875,-119.875,0.6289063,0.8867188,0.3598633,0.01269531,-0.3129883,-0.1538086
2690,-0.5625,70.875,-125.5,0.5820313,1.026855,0.390625,0.02587891,-0.3120117,-0.1577148
2694,-2.5625,71.8125,-132.5625,0.574707,1.17041,0.4287109,0.03564453,-0.3105469,-0.15625
2698,-23.4375,66.5,-137.4375,0.4970703,1.205566,0.4174805,0.04736328,-0.3056641,-0.15625
2702,-42.25,56.1875,-134.125,0.5048828,0.9956055,0.3520508,0.05810547,-0.3007813,-0.1606445
2706,-40.9375,53.5,-125.5,0.5239258,0.8520508,0.3364258,0.06640625,-0.296875,-0.1606445
2710,-33,56,-124,0.4892578,0.8671875,0.3442383,0.07714844,-0.2919922,-0.1591797
2714,-36.8125,52,-122,0.3999023,0.9140625,0.3173828,0.08789063,-0.2866211,-0.1577148
2718,-48,44.875,-116.125,0.3959961,0.890625,0.3330078,0.09375,-0.2832031,-0.1538086
2722,-58.375,45.8125,-112.625,0.3730469,0.8168945,0.3095703,0.1035156,-0.2792969,-0.1523438
2726,-53.625,48.9375,-113.25,0.2875977,0.6538086,0.2368164,0.1142578,-0.2768555,-0.1523438
2730,-38.0625,47.8125,-112,0.2412109,0.6303711,0.2402344,0.1186523,-0.2753906,-0.1508789
2734,-36.4375,45.25,-110,0.2216797,0.7236328,0.2866211,0.1293945,-0.2729492,-0.1494141
2738,-50.0625,39.5625,-104.4375,0.1557617,0.7275391,0.2905273,0.1416016,-0.2719727,-0.1494141
2742,-65,30.875,-96.6875,0.109375,0.5952148,0.2558594,0.1450195,-0.2719727,-0.1508789
2746,-65.25,27.875,-88.0625,0.09033203,0.4125977,0.1943359,0.1533203,-0.2695313,-0.1547852
2750,-51.0625,27.0625,-82.0625,0.05126953,0.3505859,0.1826172,0.1630859,-0.2680664,-0.1577148
2754,-39.75,25.875,-79,0.02441406,0.3857422,0.2094727,0.1674805,-0.265625,-0.1591797
2758,-40.6875,20.75,-74.1875,-0.01806641,0.3974609,0.2250977,0.1748047,-0.2641602,-0.1616211
2762,-44.375,13.4375,-65.75,-0.06445313,0.3427734,0.2329102,0.1821289,-0.2617188,-0.1645508
2766,-42.875,10.25,-59.75,-0.05664063,0.269043,0.2250977,0.184082,-0.2583008,-0.168457
2770,-33.25,12.3125,-53.875,-0.06835938,0.1835938,0.2402344,0.1889648,-0.2568359,-0.1713867
2774,-20.5625,13.25,-46.1875,-0.09912109,0.1914063,0.2402344,0.1938477,-0.2558594,-0.1767578
2778,-14.75,11.25,-40.4375,-0.1499023,0.2265625,0.2402344,0.1948242,-0.2543945,-0.1796875
2783,-15.0625,4.8125,-33,-0.2001953,0.2338867,0.2519531,0.1987305,-0.2504883,-0.1806641
2787,-14.8125,-0.75,-27.25,-0.1884766,0.1914063,0.2558594,0.2011719,-0.2504883,-0.1835938
2791,-8.625,-1.0625,-21.75,-0.1728516,0.1367188,0.2827148,0.2011719,-0.2480469,-0.1835938
2795,0.9375,0.1875,-17.1875,-0.1650391,0.140625,0.2866211,0.203125,-0.2480469,-0.1835938
2799,7.625,0.4375,-13.9375,-0.1845703,0.1601563,0.3134766,0.2045898,-0.2470703,-0.1821289
2803,9.6875,-1.6875,-6.625,-0.1650391,0.1757813,0.3251953,0.2045898,-0.2470703,-0.1835938
2807,8.6875,-1.625,1.1875,-0.1459961,0.1679688,0.3364258,0.203125,-0.2470703,-0.1835938
2811,9.4375,-0.25,10.0625,-0.1572266,0.1484375,0.3134766,0.2045898,-0.2456055,-0.1835938
2815,12.625,-0.1875,18.125,-0.1923828,0.1523438,0.2675781,0.203125,-0.2480469,-0.1806641
2819,17.8125,-4,23,-0.2080078,0.15625,0.2402344,0.2021484,-0.2495117,-0.1806641
2823,23.3125,-9,27.625,-0.1845703,0.1757813,0.2519531,0.2011719,-0.2495117,-0.1782227
2827,27.125,-11.6875,34,-0.1572266,0.2070313,0.2597656,0.1987305,-0.2519531,-0.1767578
2831,30.3125,-14.6875,41.1875,-0.1572266,0.2070313,0.2709961,0.1972656,-0.2529297,-0.175293
2835,34.6875,-17.3125,47.1875,-0.1108398,0.269043,0.2944336,0.1928711,-0.2568359,-0.1728516
2839,35.5,-18.125,52.25,-0.08789063,0.3349609,0.3251953,0.1889648,-0.2583008,-0.1699219
2843,35.8125,-19.6875,58.375,-0.07617188,0.3623047,0.3330078,0.184082,-0.2592773,-0.168457
2847,38.8125,-20.75,61.3125,-0.04101563,0.3662109,0.3637695,0.1782227,-0.2641602,-0.1660156
2851,43.875,-17.75,65.375,0.008789063,0.3896484,0.3481445,0.1757813,-0.2631836,-0.1630859
2855,47.3125,-15.75,71.6875,0.004882813,0.4165039,0.3364258,0.1665039,-0.2680664,-0.1577148
2859,54.3125,-13.5625,79.5625,0.02050781,0.4360352,0.3212891,0.1630859,-0.2695313,-0.1538086
2863,62,-14.875,86.8125,0.01269531,0.5292969,0.3251953,0.1591797,-0.2695313,-0.1523438
2867,69.3125,-15.25,91.875,0.06689453,0.6303711,0.3637695,0.1523438,-0.2729492,-0.1494141
2871,68.5,-12.0625,94.375,0.09765625,0.793457,0.425293,0.1425781,-0.2768555,-0.144043
2875,60.125,-7.6875,94.375,0.09765625,0.8671875,0.4404297,0.1376953,-0.2768555,-0.1416016
2879,55.5,-4.5625,95,0.09765625,0.8520508,0.4174805,0.1293945,-0.2792969,-0.1416016
2883,60,-2.625,95.625,0.09765625,0.824707,0.3789063,0.1225586,-0.2807617,-0.1386719
2887,66.5,-1.4375,97.1875,0.1210938,0.875,0.3637695,0.1201172,-0.2832031,-0.137207
2891,66.9375,0,100.75,0.1518555,0.9414063,0.3789063,0.1103516,-0.2866211,-0.1333008
2895,60.5625,-0.5,106.8125,0.1674805,1.022949,0.390625,0.1035156,-0.2905273,-0.1333008
2899,52.5,-0.5625,107.8125,0.1484375,1.06543,0.3520508,0.09960938,-0.2929688,-0.1318359
2903,47.1875,-3.4375,104.875,0.1557617,1.081055,0.3291016,0.09130859,-0.296875,-0.1333008
2907,42.5625,-7.6875,99.25,0.1870117,1.081055,0.2944336,0.08300781,-0.3041992,-0.1289063
2912,34.9375,-10.8125,98.1875,0.2294922,1.081055,0.3056641,0.08056641,-0.3066406,-0.1289063
2916,27,-14.875,103.75,0.2993164,1.026855,0.2827148,0.07226563,-0.3120117,-0.1279297
2920,27.1875,-13.25,108.0625,0.2568359,1.007324,0.2329102,0.06787109,-0.3178711,-0.1264648
2924,31.3125,-17.6875,108.25,0.2255859,0.953125,0.2060547,0.05957031,-0.3208008,-0.1235352
2928,44.75,-21.0625,103.6875,0.3305664,0.9375,0.2368164,0.05078125,-0.3256836,-0.1196289
2932,52.375,-18.9375,96.5,0.4580078,0.9956055,0.3095703,0.04150391,-0.3305664,-0.1166992
2936,52,-8.75,105.125,0.5356445,1.019043,0.3173828,0.03808594,-0.3330078,-0.1088867
2940,53.75,-3,105.3125,0.4467773,1.092773,0.2866211,0.02978516,-0.3344727,-0.1020508
2944,44.1875,-5.3125,106,0.4350586,1.197754,0.2329102,0.02001953,-0.3369141,-0.09375
2948,31.5625,-12.5,102.4375,0.4389648,1.13916,0.2250977,0.01269531,-0.3369141,-0.08837891
2952,28.3125,-17.1875,96.5625,0.527832,1.049805,0.2441406,0.005859375,-0.3344727,-0.07861328
2956,17.5625,-20.125,100.1875,0.6210938,0.987793,0.2368164,-0.004394531,-0.3320313,-0.07617188
2960,23.1875,-14.9375,107.4375,0.6982422,0.8051758,0.2094727,-0.009277344,-0.3320313,-0.07324219
2964,43.625,-4.375,113.3125,0.6557617,0.8945313,0.159668,-0.02001953,-0.3266602,-0.07080078
2968,51.6875,-1.875,107.8125,0.5859375,0.9956055,0.1210938,-0.02929688,-0.3217773,-0.06396484
2972,57.0625,-5.6875,101.25,0.625,0.953125,0.1132813,-0.03759766,-0.3178711,-0.06103516
2976,63.3125,-3.5,98.25,0.7529297,0.9604492,0.1674805,-0.04492188,-0.3154297,-0.05957031
2980,55.5625,1.5,102.25,0.7915039,1.003418,0.1713867,-0.05419922,-0.3081055,-0.05175781
2984,51.125,4.1875,111.75,0.7373047,0.9995117,0.1367188,-0.06054688,-0.3056641,-0.05273438
2988,49.0625,2,113.625,0.6713867,1.100586,0.1020508,-0.07128906,-0.2993164,-0.05175781
2992,45.25,-2.4375,107.875,0.6713867,1.104492,0.08642578,-0.078125,-0.2929688,-0.05273438
2996,47.375,-4.8125,98.0625,0.7529297,1.026855,0.1367188,-0.08544922,-0.2905273,-0.05273438
3000,47.9375,0,93.1875,0.8457031,0.9799805,0.159668,-0.09228516,-0.2856445,-0.05419922
3004,47.0625,8.25,96.5625,0.9077148,0.9760742,0.1904297,-0.09960938,-0.2832031,-0.05859375
3008,37.125,15.375,104.25,0.7758789,1.104492,0.105957,-0.1054688,-0.2807617,-0.05957031
3012,22.25,8,105.125,0.6635742,1.124023,0.04443359,-0.1113281,-0.2768555,-0.06103516
3016,14.625,-2.0625,101,0.6401367,1.084961,0.01367188,-0.1201172,-0.2729492,-0.06542969
3020,18,-9.3125,91.4375,0.7138672,0.9643555,0.06347656,-0.1235352,-0.2705078,-0.06787109
3024,30.0625,-6.9375,83.5625,0.8032227,0.8710938,0.09814453,-0.1293945,-0.2705078,-0.07080078
3028,45.4375,3.25,82.125,0.8999023,0.824707,0.140625,-0.1352539,-0.2670898,-0.07080078
3032,57,19.4375,81.9375,0.8378906,0.9682617,0.1098633,-0.1391602,-0.2670898,-0.07080078
3036,52.3125,20.5625,81.1875,0.7021484,1.073242,0.07910156,-0.1435547,-0.265625,-0.07177734
3041,40.25,14.8125,80.5625,0.675293,1.158691,0.07128906,-0.1484375,-0.2641602,-0.07177734
3045,26.25,7.3125,77.1875,0.659668,1.112305,0.08251953,-0.1508789,-0.265625,-0.06933594
3049,25.25,5.5,68.875,0.7412109,1.045898,0.140625,-0.1542969,-0.2641602,-0.07177734
3053,27.375,13.25,59.6875,0.7138672,1.112305,0.1210938,-0.1591797,-0.2617188,-0.06933594
3057,24.125,13.9375,45.6875,0.644043,1.13916,0.1020508,-0.1601563,-0.2607422,-0.07080078
3061,18.625,12.9375,34.4375,0.609375,1.178223,0.06738281,-0.1625977,-0.2607422,-0.06933594
3065,8.6875,6.875,25.1875,0.5820313,1.166504,0.06738281,-0.1640625,-0.2607422,-0.07177734
3069,-0.5,1.9375,19.3125,0.5859375,1.162598,0.08251953,-0.1625977,-0.2607422,-0.07080078
3073,-9.5,-0.125,14.3125,0.6054688,1.150879,0.1132813,-0.1650391,-0.2583008,-0.06787109
3077,-15,0.25,8.1875,0.6054688,1.158691,0.09423828,-0.1665039,-0.2583008,-0.07177734
3081,-17.125,-0.875,-5.25,0.578125,1.154785,0.09814453,-0.1674805,-0.2592773,-0.07177734
3085,-17.5625,-0.75,-20.125,0.59375,1.182129,0.09814453,-0.1665039,-0.2583008,-0.07324219
3089,-22.6875,-3,-33.375,0.5976563,1.209473,0.105957,-0.1665039,-0.2583008,-0.07470703
3093,-35,-6.6875,-43.3125,0.6328125,1.263672,0.1210938,-0.1650391,-0.2583008,-0.07470703
3097,-51.875,-11.875,-49.5625,0.6479492,1.240234,0.1132813,-0.1616211,-0.2592773,-0.07470703
3101,-62.0625,-16.625,-56.375,0.6982422,1.178223,0.1132813,-0.1582031,-0.2583008,-0.07763672
3105,-63.875,-14.9375,-62.75,0.7451172,1.158691,0.1171875,-0.1582031,-0.2583008,-0.07861328
3109,-67.0625,-12.75,-69.6875,0.7680664,1.178223,0.1557617,-0.1557617,-0.2592773,-0.08154297
3113,-66.5,-7.5,-78.25,0.7680664,1.178223,0.144043,-0.1508789,-0.2583008,-0.08154297
3117,-66.125,-5.75,-86.5,0.7490234,1.154785,0.125,-0.1459961,-0.2592773,-0.08447266
3121,-62.625,-5.0625,-91.875,0.7641602,1.135742,0.1557617,-0.1425781,-0.2592773,-0.08300781
3125,-58.625,-2.625,-95.9375,0.7993164,1.116211,0.1865234,-0.1376953,-0.2607422,-0.08300781
3129,-48.5,3.3125,-100,0.8457031,1.116211,0.2250977,-0.1328125,-0.2617188,-0.07861328
3133,-40.125,12.625,-108.625,0.8652344,1.213379,0.2558594,-0.1269531,-0.2641602,-0.07861328
3137,-42.1875,16.625,-118.8125,0.8110352,1.228516,0.2368164,-0.1201172,-0.2680664,-0.07324219
3141,-40.9375,16.875,-123.625,0.7993164,1.104492,0.2290039,-0.1137695,-0.2719727,-0.07324219
3145,-18.625,24.125,-124.25,0.8691406,0.8710938,0.2480469,-0.1054688,-0.2768555,-0.06933594
3149,22.375,44.125,-124.9375,0.8535156,0.9682617,0.2905273,-0.09619141,-0.2856445,-0.06396484
3153,46,54.1875,-135.625,0.7490234,1.221191,0.2905273,-0.08642578,-0.2905273,-0.05712891
3157,47.4375,52.8125,-147.125,0.7177734,1.36084,0.3134766,-0.07470703,-0.3032227,-0.04882813
3161,33.125,44.125,-148.5,0.7412109,1.477539,0.3520508,-0.06298828,-0.3105469,-0.04052734
3165,10.3125,36.8125,-154.0625,0.7954102,1.555176,0.3789063,-0.05322266,-0.3168945,-0.04052734
3170,-16.0625,32.4375,-161.375,0.8261719,1.52002,0.375,-0.0390625,-0.3266602,-0.03808594
3174,-37.625,28.3125,-163.9375,0.8535156,1.395996,0.3442383,-0.02587891,-0.3354492,-0.04345703
3178,-50,28.6875,-162.375,0.8881836,1.275391,0.3212891,-0.01513672,-0.3417969,-0.04638672
3182,-56.3125,33.4375,-161.75,0.8652344,1.174316,0.2675781,-0.0009765625,-0.3481445,-0.05712891
3186,-56.1875,37.375,-160.875,0.8183594,1.077148,0.2094727,0.01513672,-0.3505859,-0.06933594
3190,-58.875,37.6875,-158.0625,0.7602539,1.108398,0.1674805,0.02587891,-0.3491211,-0.07470703
3194,-69.375,33.5,-155.875,0.6479492,1.120117,0.1098633,0.04248047,-0.3457031,-0.09082031
3198,-80.75,25,-154.1875,0.5898438,0.987793,0.07128906,0.0546875,-0.3393555,-0.1005859
3202,-81.1875,19.9375,-149.6875,0.5668945,0.8481445,0.05957031,0.06298828,-0.3305664,-0.1088867
3206,-74.375,18.25,-145.75,0.559082,0.7895508,0.09033203,0.07373047,-0.3154297,-0.1157227
3210,-69.75,20.0625,-140.0625,0.5161133,0.777832,0.1132813,0.08300781,-0.3056641,-0.1157227
3214,-69.875,18.75,-132.875,0.3925781,0.7353516,0.08642578,0.09033203,-0.2983398,-0.1157227
3218,-64.5625,14.1875,-125.9375,0.3110352,0.6069336,0.07519531,0.09765625,-0.2919922,-0.112793
3222,-48.5,13.6875,-118.1875,0.2954102,0.5913086,0.1210938,0.1079102,-0.2866211,-0.1113281
3226,-37.125,13.875,-119.5625,0.2724609,0.6538086,0.1787109,0.112793,-0.2866211,-0.1113281
3230,-37.5,13.6875,-117.6875,0.2451172,0.7080078,0.2133789,0.1186523,-0.2866211,-0.1074219
3234,-45.5625,12.5,-111.3125,0.175293,0.6577148,0.2211914,0.128418,-0.2832031,-0.1044922
3238,-47.0625,8.9375,-105,0.1171875,0.5722656,0.2021484,0.1342773,-0.2832031,-0.1044922
3242,-43.1875,6.5,-102.5625,0.1132813,0.5253906,0.2094727,0.1425781,-0.2841797,-0.1074219
3246,-40.875,5.9375,-98.75,0.09375,0.5175781,0.2133789,0.1523438,-0.2856445,-0.1088867
3250,-44.375,4.75,-90.9375,0.02050781,0.4790039,0.2021484,0.1582031,-0.2856445,-0.1113281
3254,-46.6875,-0.125,-83,-0.04492188,0.3662109,0.1787109,0.1665039,-0.2832031,-0.1157227
3258,-33.6875,-2.875,-75.3125,-0.02978516,0.253418,0.1787109,0.1723633,-0.2832031,-0.1196289
3262,-17.1875,0.25,-69.9375,-0.02197266,0.2768555,0.2290039,0.1772461,-0.2832031,-0.1225586
3266,-8.5,2.375,-67.0625,-0.05664063,0.3232422,0.2597656,0.1831055,-0.2817383,-0.125
3270,-11.75,1.3125,-60.5625,-0.09912109,0.3466797,0.2675781,0.1879883,-0.2807617,-0.1264648
3274,-20.1875,-2.9375,-48.9375,-0.1689453,0.300293,0.2290039,0.1928711,-0.2792969,-0.1289063
3278,-18.1875,-7.1875,-39.6875,-0.1689453,0.2070313,0.2094727,0.1948242,-0.2792969,-0.1333008
3282,-7.125,-7.8125,-33.9375,-0.1689453,0.171875,0.2211914,0.1962891,-0.2768555,-0.1357422
3286,2.75,-10.0625,-27.6875,-0.1689453,0.2265625,0.2636719,0.2011719,-0.2744141,-0.137207
3290,0.8125,-13.0625,-20.4375,-0.1806641,0.300293,0.3056641,0.2011719,-0.2744141,-0.1386719
3294,-4.8125,-14.375,-12.875,-0.1728516,0.2729492,0.3212891,0.2011719,-0.2729492,-0.1416016
3299,-3.6875,-13.5,-5.125,-0.1572266,0.253418,0.3442383,0.199707,-0.2729492,-0.144043
3303,1.125,-9.6875,-0.3125,-0.1650391,0.2768555,0.3520508,0.2021484,-0.2744141,-0.144043
3307,3.5625,-9.125,4.0625,-0.1923828,0.300293,0.3481445,0.2011719,-0.2719727,-0.1455078
3311,3,-11.375,10.5,-0.2119141,0.3120117,0.340332,0.2011719,-0.2719727,-0.1455078
3315,4.3125,-13.4375,18.25,-0.1923828,0.3041992,0.3520508,0.1987305,-0.2705078,-0.144043
3319,9.875,-11.0625,24.125,-0.1884766,0.3388672,0.3520508,0.1962891,-0.2705078,-0.144043
3323,16.5625,-10.0625,27.25,-0.2270508,0.3896484,0.3442383,0.1948242,-0.2744141,-0.144043
3327,19.8125,-11.9375,30.875,-0.2426758,0.4399414,0.3442383,0.1914063,-0.2744141,-0.1425781
3331,21.5625,-14.125,33.9375,-0.2041016,0.4868164,0.3828125,0.1889648,-0.2753906,-0.1401367
3335,21.75,-12.4375,36.5625,-0.1806641,0.5136719,0.3867188,0.1865234,-0.2753906,-0.1416016
3339,23.4375,-11.5625,39.4375,-0.2041016,0.5332031,0.3867188,0.1831055,-0.2753906,-0.1401367
3343,24.75,-13.75,40.625,-0.2001953,0.5488281,0.3710938,0.1796875,-0.2768555,-0.1357422
3347,24.125,-16.75,42.875,-0.1611328,0.5878906,0.3828125,0.1772461,-0.2783203,-0.1333008
3351,17.3125,-18.0625,46.375,-0.1030273,0.5952148,0.4057617,0.1723633,-0.2768555,-0.1347656
3355,13.0625,-18.1875,51.9375,-0.09521484,0.5488281,0.3789063,0.1674805,-0.2807617,-0.1318359
3359,16.4375,-18.3125,59.1875,-0.07617188,0.5253906,0.3637695,0.1650391,-0.2792969,-0.1333008
3363,24.9375,-16.3125,62.125,-0.07226563,0.5410156,0.3598633,0.1591797,-0.2817383,-0.1333008
3367,31.3125,-16.0625,61.4375,-0.06054688,0.6030273,0.3671875,0.1533203,-0.2792969,-0.1333008
3371,30.3125,-15.25,62.25,-0.02978516,0.6538086,0.3671875,0.1484375,-0.2792969,-0.1303711
3375,29.6875,-16.0625,66.1875,0.03564453,0.5761719,0.3637695,0.144043,-0.2807617,-0.1279297
3379,36.5,-12.9375,71.125,0.09033203,0.5605469,0.340332,0.1376953,-0.2807617,-0.1289063
3383,42.5,-9.5625,75.8125,0.1015625,0.5839844,0.3017578,0.1333008,-0.2783203,-0.1289063
3387,44.5625,-9.3125,83,0.109375,0.6577148,0.2827148,0.1269531,-0.2807617,-0.1279297
3391,40,-12.375,87.625,0.08251953,0.7314453,0.2558594,0.1201172,-0.2817383,-0.1264648
3395,35.25,-18.75,91.875,0.1171875,0.7041016,0.2597656,0.1166992,-0.2832031,-0.1279297
3399,42.0625,-19.5625,94.6875,0.1791992,0.6694336,0.2788086,0.1079102,-0.2856445,-0.1289063
3403,50.25,-16.9375,95.8125,0.2333984,0.7392578,0.2597656,0.1010742,-0.2880859,-0.1279297
3407,54.4375,-14.4375,94.75,0.2836914,0.7705078,0.2749023,0.09765625,-0.2929688,-0.1303711
3411,52.625,-13.625,98.625,0.3071289,0.809082,0.2558594,0.09277344,-0.296875,-0.1318359
3415,46.8125,-16.6875,107.6875,0.3266602,0.809082,0.2519531,0.08300781,-0.3032227,-0.1289063
3419,44.5,-19.3125,112.5,0.3457031,0.855957,0.2250977,0.07861328,-0.3066406,-0.1318359
3423,48.1875,-20.6875,113.4375,0.4116211,0.824707,0.1943359,0.07128906,-0.3144531,-0.1279297
3428,57.9375,-18.0625,118.0625,0.4697266,0.840332,0.2060547,0.06152344,-0.3217773,-0.1235352
3432,63.875,-15.1875,120.5625,0.4658203,0.9453125,0.2021484,0.05566406,-0.3266602,-0.1210938
3436,60.0625,-18.1875,123.625,0.4580078,1.077148,0.2094727,0.04638672,-0.3344727,-0.1113281
3440,47.125,-22.6875,123.9375,0.4892578,1.146973,0.2329102,0.03564453,-0.3378906,-0.1020508
3444,36.6875,-27.0625,119.3125,0.5395508,1.030762,0.2250977,0.02978516,-0.3378906,-0.09765625
3448,46.5,-23.25,119.8125,0.6401367,0.8984375,0.2290039,0.01904297,-0.3393555,-0.08984375
3452,64.125,-15.25,122.6875,0.7373047,0.890625,0.2021484,0.006835938,-0.3378906,-0.07861328
3456,80.125,-0.1875,126.25,0.7255859,1.038574,0.1748047,0.0009765625,-0.3378906,-0.07324219
3460,76.375,0,126.3125,0.625,1.166504,0.140625,-0.009277344,-0.3320313,-0.0625
3464,62.4375,-9.3125,122,0.6171875,1.217285,0.1328125,-0.02246094,-0.3266602,-0.05566406
3468,49.5625,-19.4375,116.4375,0.7602539,1.09668,0.1826172,-0.02929688,-0.3242188,-0.05029297
3472,50.75,-11.9375,130.3125,0.8730469,0.9375,0.2133789,-0.04003906,-0.3193359,-0.04638672
3476,68.3125,1.25,131.875,0.8032227,1.057617,0.159668,-0.05322266,-0.3120117,-0.04345703
3480,75.5,6.375,126.4375,0.7641602,1.178223,0.125,-0.05810547,-0.3056641,-0.04345703
3484,73.5625,7.6875,118.125,0.7602539,1.236328,0.125,-0.07128906,-0.2993164,-0.04199219
3488,62.9375,7.5,113.4375,0.7758789,1.228516,0.140625,-0.07958984,-0.2944336,-0.04052734
3492,50.625,7.4375,116.8125,0.7758789,1.275391,0.159668,-0.08642578,-0.2905273,-0.04345703
3496,27.5,2.8125,125.25,0.6479492,1.411133,0.07910156,-0.09472656,-0.2856445,-0.04638672
3500,5.5625,-13.3125,120.8125,0.5512695,1.388184,0.04443359,-0.1054688,-0.2792969,-0.05029297
3504,-8.1875,-29.875,114.1875,0.578125,1.32959,0.05175781,-0.1103516,-0.2768555,-0.05273438
3508,-15.625,-40,107,0.6479492,1.217285,0.105957,-0.1186523,-0.2729492,-0.05957031
3512,-9.5,-41.125,95.25,0.7797852,1.030762,0.1518555,-0.1269531,-0.2705078,-0.06396484
3516,6.8125,-29.25,84.625,0.9077148,0.90625,0.1557617,-0.1318359,-0.2670898,-0.06396484
3520,37.6875,-8.4375,79.9375,0.9970703,0.7041016,0.1635742,-0.1376953,-0.265625,-0.06542969
3524,76.6875,22.3125,77.8125,1.035645,0.7236328,0.1674805,-0.1425781,-0.265625,-0.06640625
3528,100.75,47.4375,74.5,0.8881836,0.8632813,0.09033203,-0.1459961,-0.2641602,-0.06542969
3532,108.875,52.6875,70.3125,0.7602539,0.9604492,0.02099609,-0.1508789,-0.2617188,-0.06396484
3536,110.3125,51.125,63.125,0.7529297,0.9760742,-0.005371094,-0.1518555,-0.2617188,-0.06103516
3540,115.125,53.125,52.5,0.8032227,0.9140625,0.001953125,-0.1557617,-0.265625,-0.05566406
3544,121.4375,60.3125,47.5625,0.8920898,0.8442383,0.009765625,-0.1567383,-0.2641602,-0.05175781
3548,125,69.4375,49.8125,0.9350586,0.7705078,0.02099609,-0.1601563,-0.265625,-0.05175781
3552,126.3125,81.75,61.8125,0.9194336,0.8598633,0.01708984,-0.1601563,-0.2680664,-0.04736328
3557,98.125,84.9375,79.5,0.7177734,1.240234,-0.07080078,-0.1616211,-0.2670898,-0.04492188
3561,48.75,63.0625,72.875,0.4116211,1.403809,-0.1669922,-0.1665039,-0.2631836,-0.04199219
3565,4,28.625,57.4375,0.3149414,1.345215,-0.1977539,-0.168457,-0.2617188,-0.04199219
3569,-21.1875,1.0625,43.375,0.3691406,1.267578,-0.1362305,-0.1699219,-0.2583008,-0.04052734
3573,-38.6875,-15.4375,30,0.4892578,1.317871,-0.07861328,-0.1748047,-0.2558594,-0.04638672
3577,-58.5,-22.5625,7.75,0.5820313,1.364746,-0.03222656,-0.1757813,-0.2558594,-0.04492188
3581,-75.8125,-25.4375,-10.6875,0.6635742,1.259766,-0.02441406,-0.1757813,-0.2558594,-0.05029297
3585,-83.625,-25.5,-21.375,0.7373047,1.143066,0.001953125,-0.1748047,-0.2543945,-0.05273438
3589,-84.5,-24.375,-26.1875,0.7680664,1.088867,-0.009277344,-0.1733398,-0.2543945,-0.05566406
3593,-79.875,-20.1875,-37.875,0.8183594,1.06543,0.001953125,-0.1748047,-0.2529297,-0.05957031
3597,-73.1875,-14.25,-49.5,0.8149414,1.045898,-0.02441406,-0.1708984,-0.2529297,-0.06103516
3601,-65.625,-10.875,-59.5625,0.7836914,1.06543,-0.04003906,-0.1708984,-0.2519531,-0.06640625
3605,-67.9375,-12.6875,-66.375,0.7216797,1.135742,-0.04736328,-0.168457,-0.2529297,-0.06933594
3609,-72.0625,-19.125,-75.25,0.7373047,1.12793,-0.03613281,-0.1625977,-0.2519531,-0.07080078
3613,-75.4375,-21.4375,-84,0.7993164,1.120117,-0.01318359,-0.1616211,-0.2543945,-0.07080078
3617,-77.0625,-21.4375,-90,0.8110352,1.084961,0.005859375,-0.1582031,-0.2529297,-0.07177734
3621,-77.75,-23.75,-93.125,0.8378906,1.053711,0.01367188,-0.1533203,-0.2558594,-0.07080078
3625,-72.5,-21.8125,-96.875,0.8842773,1.007324,0.03271484,-0.1484375,-0.2529297,-0.07177734
3629,-61.625,-17.6875,-102.375,0.9272461,1.022949,0.06738281,-0.1450195,-0.2543945,-0.06933594
3633,-51.3125,-10,-108.5,0.9350586,1.045898,0.08642578,-0.1391602,-0.2583008,-0.06640625
3637,-43.8125,-4.8125,-112.125,0.8842773,1.077148,0.105957,-0.1367188,-0.2592773,-0.06542969
3641,-38.4375,-1.9375,-114.25,0.8613281,1.146973,0.1210938,-0.1269531,-0.265625,-0.05566406
3645,-36.8125,-0.0625,-120.125,0.8300781,1.213379,0.125,-0.1186523,-0.2705078,-0.05419922
3649,-36.125,-0.0625,-128,0.8222656,1.244141,0.1289063,-0.112793,-0.2753906,-0.05419922
3653,-37.75,-0.8125,-134.8125,0.8496094,1.259766,0.144043,-0.1030273,-0.2832031,-0.04882813
3657,-41.625,-1.1875,-141.3125,0.8842773,1.279297,0.1635742,-0.09130859,-0.2905273,-0.04638672
3661,-49.5,0.125,-146.1875,0.9155273,1.294922,0.1826172,-0.08544922,-0.2993164,-0.04492188
3665,-57.9375,2,-148.125,0.8920898,1.251953,0.1943359,-0.06884766,-0.3081055,-0.04638672
3669,-64.3125,1.8125,-148.9375,0.8691406,1.221191,0.1826172,-0.05810547,-0.3178711,-0.05175781
3673,-66.3125,1.8125,-149.1875,0.8769531,1.174316,0.1826172,-0.05078125,-0.3242188,-0.05712891
3677,-65,6.75,-148.875,0.8691406,1.186035,0.2211914,-0.03759766,-0.3305664,-0.06542969
3681,-64.75,11.5625,-149.5,0.8574219,1.174316,0.2329102,-0.0234375,-0.3369141,-0.07617188
3686,-57.5,19.875,-148,0.8261719,1.092773,0.2133789,-0.01611328,-0.3378906,-0.08447266
3690,-38.8125,30.1875,-149.4375,0.7529297,1.073242,0.1943359,-0.0009765625,-0.3417969,-0.09521484
3694,-25.75,34.6875,-162,0.6791992,1.182129,0.1865234,0.01074219,-0.3393555,-0.1035156
3698,-31.75,30.125,-168.8125,0.6635742,1.244141,0.1904297,0.01904297,-0.3354492,-0.1088867
3702,-51.375,20.9375,-166.0625,0.6362305,1.20166,0.2060547,0.03417969,-0.3291016,-0.1157227
3706,-66.625,13.0625,-158.9375,0.6132813,1.022949,0.1865234,0.04736328,-0.3217773,-0.1210938
3710,-67.375,9.4375,-151.25,0.6171875,0.921875,0.1943359,0.05566406,-0.3144531,-0.1225586
3714,-63.0625,10.75,-154.125,0.6015625,0.8789063,0.2172852,0.06640625,-0.3095703,-0.125
3718,-63.8125,10.875,-155.375,0.574707,0.8168945,0.2250977,0.07958984,-0.3041992,-0.1279297
3722,-70.3125,8.75,-150.5625,0.5239258,0.7470703,0.2480469,0.08544922,-0.3017578,-0.125
3726,-77.0625,6.25,-137.5,0.4931641,0.6108398,0.2329102,0.09619141,-0.296875,-0.1289063
3730,-75.8125,6.375,-126.0625,0.4428711,0.5097656,0.2211914,0.1069336,-0.2929688,-0.1333008
3734,-67.8125,8.0625,-116.1875,0.4194336,0.4399414,0.2290039,0.112793,-0.2919922,-0.1318359
3738,-56.25,12.5625,-106.3125,0.3457031,0.3701172,0.2250977,0.1210938,-0.2895508,-0.1357422
3742,-38.75,17.9375,-94.125,0.3071289,0.315918,0.2211914,0.1308594,-0.2895508,-0.137207
3746,-13.375,28.5625,-72.875,0.1674805,0.269043,0.1674805,0.1333008,-0.2895508,-0.137207
3750,18.375,35.25,-69.9375,0.0009765625,0.4399414,0.144043,0.1425781,-0.2880859,-0.1386719
3754,36.4375,32.0625,-83.6875,-0.09130859,0.5878906,0.1328125,0.1499023,-0.2919922,-0.1357422
3758,40.0625,22,-93.8125,-0.06054688,0.6108398,0.2021484,0.1557617,-0.2929688,-0.1333008
3762,32.5,19,-97.75,-0.02978516,0.5991211,0.2402344,0.1630859,-0.2929688,-0.1303711
3766,16.0625,14,-93.25,-0.03710938,0.4907227,0.2329102,0.1723633,-0.2905273,-0.1303711
3770,0.5,5.5625,-82.9375,-0.01806641,0.3779297,0.2133789,0.1772461,-0.2905273,-0.1303711
3774,-9.125,1.375,-65.5,-0.04882813,0.2612305,0.1943359,0.1821289,-0.2880859,-0.1333008
3778,-10.125,-5.5,-50,-0.1069336,0.171875,0.1826172,0.1855469,-0.2866211,-0.1347656
3782,-6.0625,-11.3125,-34.5,-0.1186523,0.1367188,0.1826172,0.1879883,-0.2856445,-0.1357422
3786,4.125,-12,-27.6875,-0.1264648,0.2148438,0.2519531,0.1904297,-0.2841797,-0.137207
3790,11.5,-9.3125,-25.625,-0.1264648,0.2416992,0.3212891,0.1928711,-0.2841797,-0.1401367
3794,16.8125,-8.5,-24.1875,-0.1342773,0.3120117,0.3828125,0.1948242,-0.2841797,-0.1401367
3798,9.0625,-7.8125,-21.9375,-0.07617188,0.3662109,0.4672852,0.1948242,-0.2832031,-0.1401367
3802,-3.625,-0.1875,-8.625,-0.01806641,0.3310547,0.4941406,0.1962891,-0.2841797,-0.1425781
3806,-14,7.0625,2.3125,-0.1264648,0.3120117,0.4018555,0.1972656,-0.2832031,-0.1416016
3810,-16.625,4.5625,9.9375,-0.2080078,0.2729492,0.3212891,0.1972656,-0.2832031,-0.1416016
3815,-14.0625,1.0625,14.25,-0.2080078,0.2416992,0.2827148,0.1948242,-0.2832031,-0.1416016
3819,-6.6875,-1.125,16.25,-0.1923828,0.1953125,0.2866211,0.1948242,-0.2792969,-0.1425781
3823,-2.4375,-1.8125,23.125,-0.1342773,0.2338867,0.2749023,0.1948242,-0.2841797,-0.1425781
3827,-2.625,-0.5,33.625,-0.1303711,0.237793,0.2709961,0.1914063,-0.2841797,-0.144043
3831,-0.4375,-2.4375,42,-0.1884766,0.2338867,0.2211914,0.1904297,-0.2856445,-0.1425781
3835,6.5,-6.6875,49.0625,-0.1342773,0.2495117,0.2094727,0.1865234,-0.2866211,-0.1416016
3839,14.6875,-8,55.1875,-0.1186523,0.2768555,0.2329102,0.1831055,-0.2866211,-0.1386719
3843,20.5,-9.75,62.125,-0.09912109,0.3779297,0.2597656,0.1782227,-0.2880859,-0.1357422
3847,15.875,-11.375,66.5,-0.07617188,0.4907227,0.2905273,0.1738281,-0.2919922,-0.137207
3851,6.4375,-13.3125,70.9375,-0.07226563,0.4829102,0.2675781,0.1689453,-0.2919922,-0.1333008
3855,7.4375,-16.3125,73.5625,-0.006347656,0.4204102,0.2519531,0.1640625,-0.2944336,-0.1289063
3859,15.5,-13.0625,76.6875,0.07861328,0.4086914,0.2597656,0.1567383,-0.2944336,-0.1333008
3863,24.4375,-9.6875,83.5625,0.09765625,0.4438477,0.2519531,0.1499023,-0.2944336,-0.1303711
3867,26.875,-10.9375,90.875,0.09765625,0.5292969,0.2441406,0.1474609,-0.2944336,-0.1289063
3871,28.3125,-11.125,94.875,0.1171875,0.5371094,0.2480469,0.1391602,-0.2983398,-0.1264648
3875,33.4375,-9.1875,97.625,0.1948242,0.5566406,0.2558594,0.1293945,-0.2954102,-0.1235352
3879,40.125,-5.625,103.0625,0.2568359,0.5761719,0.2290039,0.1269531,-0.2983398,-0.1235352
3883,45.75,-2.4375,107.0625,0.2529297,0.6616211,0.2094727,0.1166992,-0.2983398,-0.1210938
3887,48.0625,-2.3125,110.6875,0.2685547,0.7080078,0.1748047,0.1069336,-0.3007813,-0.1196289
3891,50.3125,-4.125,112.3125,0.2758789,0.6923828,0.1635742,0.1035156,-0.2993164,-0.1196289
3895,60.375,-1.0625,116.5,0.3574219,0.6733398,0.1479492,0.09375,-0.3032227,-0.1166992
3899,72.1875,3.3125,120.875,0.4077148,0.7587891,0.140625,0.08447266,-0.3056641,-0.1157227
3903,78.25,5.3125,126.9375,0.4194336,0.9140625,0.1289063,0.07958984,-0.3095703,-0.112793
3907,77.8125,5.9375,127.625,0.4155273,1.030762,0.125,0.06982422,-0.3154297,-0.1113281
3911,67.5625,2.125,127.3125,0.4272461,1.104492,0.1210938,0.06054688,-0.3208008,-0.1044922
3915,63.5625,0.75,129.5,0.4775391,1.034668,0.1132813,0.05712891,-0.3242188,-0.1035156
3919,68,2.625,130.6875,0.5009766,1.081055,0.08251953,0.04492188,-0.3320313,-0.09765625
3923,67.875,0,133.5625,0.5048828,1.135742,0.07519531,0.03564453,-0.3354492,-0.08984375
3927,61.4375,-4.4375,133.8125,0.5009766,1.248047,0.06738281,0.02832031,-0.3408203,-0.08007813
3931,44.8125,-16.6875,132.75,0.5200195,1.279297,0.05175781,0.01660156,-0.3442383,-0.07617188
3935,33.0625,-26.5625,128.3125,0.6870117,1.131836,0.1210938,0.005859375,-0.3432617,-0.06640625
3939,37.625,-21.125,132.5,0.7680664,1.01123,0.105957,0,-0.3408203,-0.06396484
3944,55.5625,-11.125,133.5,0.7915039,0.953125,0.1132813,-0.01513672,-0.3378906,-0.05566406
3948,68,-4.5,128.875,0.7099609,1.150879,0.03271484,-0.0234375,-0.3344727,-0.04882813
3952,53.9375,-13.0625,123,0.7060547,1.251953,0.05566406,-0.03173828,-0.3305664,-0.04492188
3956,27,-25.375,120.5,0.8222656,1.174316,0.105957,-0.04150391,-0.3256836,-0.03955078
3960,26.25,-24.375,132.5625,0.9155273,0.855957,0.1635742,-0.05322266,-0.3178711,-0.04052734
3964,48.0625,-10.3125,134.6875,0.9580078,0.890625,0.1289063,-0.06298828,-0.3095703,-0.03955078
3968,70.5,6.125,128.4375,0.9116211,1.030762,0.08251953,-0.07128906,-0.3056641,-0.03662109
3972,73.75,9.625,120.9375,0.8457031,1.209473,0.05566406,-0.08203125,-0.2993164,-0.03515625
3976,53.875,4.625,114.4375,0.7875977,1.341309,0.04052734,-0.09033203,-0.2954102,-0.03662109
3980,21.6875,-9.375,113.4375,0.8149414,1.255859,0.09033203,-0.09960938,-0.2880859,-0.03662109
3984,4.5,-15.1875,125.0625,0.8457031,1.135742,0.1132813,-0.1079102,-0.2832031,-0.04052734
3988,2.25,-16.5625,122.9375,0.7875977,1.120117,0.06738281,-0.1162109,-0.2807617,-0.04345703
3992,13,-14.9375,110.6875,0.8535156,1.077148,0.07128906,-0.1245117,-0.2744141,-0.04882813
3996,25.25,-8.0625,98.125,0.9038086,1.045898,0.07128906,-0.1318359,-0.2719727,-0.05175781
4000,35.125,-3.9375,91.25,0.9389648,0.9995117,0.05957031,-0.1376953,-0.2719727,-0.05175781
4004,43.5,1.125,86.125,0.9580078,0.9604492,0.07128906,-0.1435547,-0.2695313,-0.05273438
4008,48.5,7.375,85,0.9736328,0.9257813,0.05957031,-0.1484375,-0.2670898,-0.05419922
4012,59.1875,15.875,83.5625,0.9970703,0.8364258,0.04052734,-0.1508789,-0.265625,-0.05566406
4016,80.625,29.625,81.6875,1.02002,0.7705078,-0.009277344,-0.1582031,-0.2641602,-0.05419922
4020,106.125,49.0625,73.9375,1.0625,0.855957,0.01367188,-0.1625977,-0.2631836,-0.05419922
4024,119.6875,68.75,60.9375,0.9272461,0.9799805,-0.04736328,-0.1640625,-0.2617188,-0.05029297
4028,121.0625,75.5,52.625,0.8032227,1.069336,-0.1015625,-0.168457,-0.2607422,-0.04736328
4032,110.8125,72.375,49.5,0.7177734,1.088867,-0.1245117,-0.168457,-0.2641602,-0.04492188
4036,95.625,65.875,50.625,0.6557617,1.150879,-0.1591797,-0.1708984,-0.2617188,-0.04199219
4040,68.75,54.9375,53.25,0.5859375,1.294922,-0.1860352,-0.1723633,-0.2607422,-0.03955078
4044,33.0625,37.75,48.9375,0.4853516,1.341309,-0.2167969,-0.1757813,-0.2607422,-0.03808594
4048,5.5625,17.125,39.8125,0.4580078,1.259766,-0.2514648,-0.1757813,-0.2607422,-0.03808594
4052,-17.1875,-1.5,24.75,0.3959961,1.477539,-0.2246094,-0.1791992,-0.2592773,-0.04199219
4056,-39.5,-16.25,2.4375,0.4467773,1.512207,-0.2167969,-0.1782227,-0.2568359,-0.03955078
4060,-52.1875,-22.0625,-13.75,0.6015625,1.150879,-0.2055664,-0.1782227,-0.2583008,-0.04199219
4064,-46.75,-26.0625,-9.5,0.6870117,0.8789063,-0.1860352,-0.1791992,-0.2583008,-0.04492188
4068,-34.125,-26.3125,-5.1875,0.7529297,0.8325195,-0.1323242,-0.1782227,-0.2583008,-0.04492188
4073,-22.625,-18.4375,-14.5625,0.7602539,1.003418,-0.109375,-0.1782227,-0.2583008,-0.04882813
4077,-29.5625,-17.5625,-27.875,0.6713867,1.217285,-0.08203125,-0.1791992,-0.2583008,-0.04492188
4081,-53.125,-27.5625,-42.0625,0.644043,1.298828,-0.05126953,-0.1772461,-0.2592773,-0.04736328
4085,-75.9375,-40.0625,-51.625,0.6557617,1.20166,-0.04736328,-0.1772461,-0.2592773,-0.05029297
4089,-85.875,-45.25,-55.6875,0.7641602,1.100586,-0.02441406,-0.1748047,-0.2583008,-0.05029297
4093,-88,-43.875,-62.8125,0.7915039,1.061523,-0.001464844,-0.1723633,-0.2607422,-0.05566406
4097,-85.625,-39.75,-73.125,0.8457031,1.081055,0.01708984,-0.1699219,-0.2607422,-0.05419922
4101,-87.875,-37.9375,-79.875,0.8496094,1.112305,0.02099609,-0.1650391,-0.2592773,-0.05859375
4105,-94.1875,-38.4375,-82,0.8920898,1.135742,0.02099609,-0.1616211,-0.2617188,-0.05957031
4109,-92.625,-33.0625,-85.375,0.9233398,1.084961,0.04443359,-0.1567383,-0.2607422,-0.06103516
4113,-80.625,-24.25,-91.8125,0.9389648,1.073242,0.08642578,-0.1518555,-0.2631836,-0.0625
4117,-70.25,-14.125,-99.75,0.9116211,1.182129,0.1210938,-0.1450195,-0.265625,-0.0625
4121,-67.75,-8.25,-107.875,0.8881836,1.255859,0.1171875,-0.1411133,-0.265625,-0.0625
4125,-68.125,-5.5,-114.9375,0.8881836,1.298828,0.1098633,-0.1342773,-0.2705078,-0.06542969
4129,-66.5625,0.3125,-124.75,0.9350586,1.287109,0.09814453,-0.1259766,-0.2744141,-0.05957031
4133,-66.375,4.5,-129.9375,0.9155273,1.291016,0.1020508,-0.1186523,-0.2783203,-0.05957031
4137,-69.0625,4.375,-134.5,0.9233398,1.302734,0.1020508,-0.1079102,-0.2832031,-0.05957031
4141,-71.75,6.875,-139.5625,0.9892578,1.306641,0.125,-0.09619141,-0.2905273,-0.05859375
4145,-71.5625,14.0625,-148.125,1.023926,1.228516,0.09814453,-0.08886719,-0.2944336,-0.05957031
4149,-54.75,26.25,-153.5625,1.055176,1.007324,0.03662109,-0.07714844,-0.3017578,-0.06103516
4153,-19.9375,44.0625,-160.8125,0.9736328,0.8945313,-0.09375,-0.06396484,-0.3120117,-0.06542969
4157,17.5625,50.3125,-168.6875,0.8535156,0.9023438,-0.1899414,-0.05322266,-0.3144531,-0.0625
4161,36.125,44.4375,-169.3125,0.6713867,0.9838867,-0.2363281,-0.03759766,-0.3217773,-0.05957031
4165,43.125,23.75,-162.875,0.5820313,0.9995117,-0.1821289,-0.02490234,-0.3330078,-0.05957031
4169,45.5,5.9375,-153.6875,0.659668,1.100586,-0.06298828,-0.01611328,-0.3344727,-0.05859375
4173,37.625,-0.625,-146.5625,0.7099609,1.251953,0.05957031,-0.0009765625,-0.3393555,-0.05859375
4177,22.375,-3.9375,-147.1875,0.6982422,1.314453,0.1748047,0.009277344,-0.3417969,-0.05957031
4181,14.5,-1.75,-147.1875,0.6713867,1.225098,0.1982422,0.01757813,-0.3432617,-0.06103516
4185,18.4375,4.125,-150.75,0.644043,1.197754,0.2060547,0.03076172,-0.3417969,-0.06103516
4189,22.5625,9.25,-159.5,0.6210938,1.306641,0.2250977,0.04394531,-0.3408203,-0.06396484
4193,3.4375,5.875,-167.3125,0.5976563,1.422852,0.2250977,0.05224609,-0.3378906,-0.0625
4197,-34.25,-4.5625,-163.0625,0.527832,1.349121,0.1943359,0.06542969,-0.3330078,-0.06542969
4202,-63.125,-15.5,-154.3125,0.578125,1.186035,0.1943359,0.07861328,-0.3266602,-0.06542969
4206,-77.125,-15.375,-147.3125,0.578125,1.049805,0.1826172,0.08447266,-0.3242188,-0.06933594
4210,-76.9375,-11.4375,-149.5,0.5473633,0.921875,0.159668,0.09619141,-0.3178711,-0.07470703
4214,-73.0625,-5.4375,-152.0625,0.5859375,0.8325195,0.1787109,0.1079102,-0.3154297,-0.07763672
4218,-73.625,2.375,-148,0.5395508,0.7314453,0.159668,0.1142578,-0.3120117,-0.07763672
4222,-70.8125,7.25,-132.125,0.3691406,0.5800781,0.125,0.1269531,-0.3066406,-0.08154297
4226,-58.3125,7.5625,-122.375,0.2954102,0.5292969,0.1098633,0.1367188,-0.3041992,-0.08447266
4230,-49.3125,9.1875,-120.375,0.2915039,0.6225586,0.1367188,0.1425781,-0.3032227,-0.08447266
4234,-57.4375,7.5625,-116.125,0.206543,0.6538086,0.1367188,0.1547852,-0.3007813,-0.08544922
4238,-77.8125,0.1875,-105.4375,0.1713867,0.6186523,0.1289063,0.1640625,-0.2983398,-0.08984375
4242,-91.5625,-1.875,-99.0625,0.05908203,0.3857422,0.02490234,0.1689453,-0.2983398,-0.09375
4246,-73.1875,-7.3125,-86.125,0.004882813,0.1098633,0.005859375,0.1772461,-0.2944336,-0.1020508
4250,-41.875,-5.6875,-79.375,0.07470703,0.1098633,0.09033203,0.184082,-0.2929688,-0.105957
4254,-24.0625,0.8125,-72.25,0.06298828,0.237793,0.1674805,0.1889648,-0.2895508,-0.1113281
4258,-32.875,3.0625,-60.4375,0.01660156,0.4013672,0.2402344,0.1914063,-0.2866211,-0.112793
4262,-56.3125,7.8125,-53.75,-0.08398438,0.3935547,0.1787109,0.1987305,-0.2866211,-0.1157227
4266,-56.5625,3.125,-46.6875,-0.1689453,0.171875,0.09033203,0.2045898,-0.2841797,-0.1210938
4270,-38.125,0.375,-42.3125,-0.1611328,0.08251953,0.07910156,0.2055664,-0.2832031,-0.1235352
4274,-19.625,1,-37.4375,-0.1572266,0.1484375,0.1479492,0.2094727,-0.2792969,-0.1264648
4278,-22,-0.875,-24.75,-0.1884766,0.2416992,0.2060547,0.2094727,-0.2783203,-0.1289063
4282,-30.9375,-3.4375,-13.4375,-0.2387695,0.237793,0.1826172,0.2104492,-0.2768555,-0.1318359
4286,-23.4375,-6.1875,-5.6875,-0.2426758,0.1176758,0.1748047,0.2119141,-0.2768555,-0.1333008
4290,-3.1875,-2.6875,-1,-0.2041016,0.1640625,0.2021484,0.2119141,-0.2753906,-0.1347656
4294,6.6875,0.4375,5.9375,-0.2270508,0.284668,0.2636719,0.2104492,-0.2753906,-0.1357422
4298,4.0625,-0.9375,13.5625,-0.2773438,0.3818359,0.2827148,0.2104492,-0.2768555,-0.1333008
4302,-1.25,-1.5,16.625,-0.3007813,0.4086914,0.2788086,0.2094727,-0.2768555,-0.1357422
4306,1.375,-3.25,18.625,-0.296875,0.3232422,0.2290039,0.2080078,-0.2792969,-0.1357422
4310,13.9375,-2,17.6875,-0.2348633,0.315918,0.2519531,0.2070313,-0.2783203,-0.1347656
4314,22.375,0.5,20.0625,-0.215332,0.2885742,0.2636719,0.2055664,-0.2792969,-0.1347656
4318,24.0625,-1.375,32.25,-0.1728516,0.3388672,0.2905273,0.2045898,-0.2817383,-0.1289063
4322,20.3125,0,41.9375,-0.1650391,0.3818359,0.2788086,0.2011719,-0.2832031,-0.1289063
4326,13.625,-1.625,50.375,-0.2426758,0.4477539,0.2290039,0.1987305,-0.2841797,-0.1264648
4331,8.875,-10.125,53,-0.230957,0.4204102,0.1748047,0.1962891,-0.2880859,-0.1235352
4335,10.0625,-13.8125,54.875,-0.1689453,0.3583984,0.1865234,0.1914063,-0.2866211,-0.1235352
4339,19.125,-16.75,62.625,-0.06054688,0.3081055,0.2480469,0.1889648,-0.2880859,-0.1225586
4343,30.6875,-10.75,72.125,-0.006347656,0.3662109,0.2983398,0.1831055,-0.2905273,-0.1196289
4347,32.5625,-5.25,75.8125,-0.05664063,0.5136719,0.2944336,0.1748047,-0.2919922,-0.1181641
4351,24.25,-7.8125,85,-0.08398438,0.5952148,0.2749023,0.1713867,-0.2944336,-0.1157227
4355,13.25,-15,93.5,-0.09130859,0.6030273,0.2402344,0.1630859,-0.2944336,-0.112793
4359,20.1875,-23.4375,96.5625,-0.002441406,0.5605469,0.2519531,0.1547852,-0.2983398,-0.112793
4363,34.3125,-19.75,100.4375,0.1132813,0.6264648,0.3442383,0.1499023,-0.296875,-0.112793
4367,39.875,-12.625,104.875,0.08251953,0.7739258,0.3979492,0.1416016,-0.2993164,-0.1098633
4371,33.6875,-12.5,107.75,0.07080078,0.9023438,0.4135742,0.1342773,-0.3007813,-0.1088867
4375,30.375,-9.6875,103.625,0.140625,0.8442383,0.4018555,0.1259766,-0.3017578,-0.1074219
4379,44.75,1.0625,99.75,0.2373047,0.793457,0.3979492,0.1186523,-0.3017578,-0.1088867
4383,56.375,14.0625,98.1875,0.2646484,0.8984375,0.375,0.1118164,-0.3056641,-0.1035156
4387,51.25,18.4375,100.4375,0.2026367,0.9760742,0.3364258,0.1069336,-0.3066406,-0.1005859
4391,38.375,16.125,104.9375,0.1948242,1.057617,0.2519531,0.09863281,-0.3095703,-0.1005859
4395,23.375,10.875,107.8125,0.175293,1.053711,0.2211914,0.09130859,-0.3105469,-0.1005859
4399,12.9375,5.625,105.25,0.1987305,0.9956055,0.1635742,0.08691406,-0.3120117,-0.1005859
4403,12.75,1.25,105.125,0.2529297,0.890625,0.1098633,0.07861328,-0.3154297,-0.1005859
4407,26.5,2.5,106.25,0.3417969,0.7856445,0.08251953,0.07128906,-0.3193359,-0.1005859
4411,44.8125,5.875,110.3125,0.3613281,0.8520508,0.04785156,0.06640625,-0.3208008,-0.1020508
4415,51,5.5625,114,0.3496094,1.019043,0.05566406,0.05957031,-0.328125,-0.09765625
4419,43.3125,1.125,113.875,0.3149414,1.131836,0.06738281,0.04980469,-0.3320313,-0.09667969
4423,27.5625,-8.375,113.125,0.3417969,1.13916,0.09423828,0.04150391,-0.3354492,-0.09082031
4427,25.9375,-11.25,113.5625,0.4467773,1.003418,0.1098633,0.03417969,-0.3393555,-0.08691406
4431,33.5625,-7.875,112.875,0.4892578,1.045898,0.09814453,0.02490234,-0.3432617,-0.08007813
4435,37.125,-4.8125,109.6875,0.4970703,1.108398,0.06738281,0.01757813,-0.3442383,-0.07470703
4439,30.0625,-8.375,108.125,0.4541016,1.154785,0.05566406,0.008300781,-0.3457031,-0.06787109
4443,23.4375,-16.8125,108.3125,0.4658203,1.04248,0.04052734,0,-0.3432617,-0.06103516
4447,26.6875,-20.8125,111.25,0.5859375,0.972168,0.08642578,-0.005859375,-0.3432617,-0.05859375
4451,35.125,-16.375,113.875,0.6635742,0.9799805,0.1210938,-0.01513672,-0.3393555,-0.05273438
4455,47.0625,-7.25,113.0625,0.659668,1.019043,0.09033203,-0.02490234,-0.3330078,-0.04638672
4460,55.5625,-2.75,108,0.6479492,1.112305,0.09423828,-0.03173828,-0.3305664,-0.04199219
4464,50.5625,-4.3125,106.1875,0.6210938,1.217285,0.05957031,-0.04150391,-0.3256836,-0.03808594
4468,40.625,-9.125,99.4375,0.625,1.221191,0.05957031,-0.04980469,-0.3193359,-0.03369141
4472,25.625,-14.8125,95,0.6713867,1.189941,0.09033203,-0.05566406,-0.3144531,-0.03369141
4476,10.8125,-21,96.5,0.675293,1.081055,0.07128906,-0.06298828,-0.3095703,-0.03369141
4480,7.125,-26.5,104.25,0.7680664,0.9335938,0.08642578,-0.07226563,-0.3032227,-0.03515625
4484,26.625,-19.125,103,0.8300781,0.8710938,0.06738281,-0.07714844,-0.2993164,-0.03515625
4488,54.5,-5.5625,93.25,0.8730469,0.8632813,0.05957031,-0.08544922,-0.2929688,-0.03662109
4492,73.5625,8.0625,84.0625,0.8496094,0.953125,0.06347656,-0.09375,-0.2895508,-0.03515625
4496,74,12.3125,82.0625,0.8032227,0.9956055,0.05175781,-0.09960938,-0.2866211,-0.03808594
4500,64,8.625,82.3125,0.7915039,1.01123,0.04052734,-0.1044922,-0.2832031,-0.03662109
4504,51.125,3.0625,85.4375,0.8300781,0.9995117,0.05566406,-0.1103516,-0.2807617,-0.03662109
4508,39.6875,1.6875,93.125,0.8691406,0.987793,0.05566406,-0.1176758,-0.2768555,-0.03808594
4512,34.4375,2.5625,94,0.8110352,1.01123,0.03271484,-0.1210938,-0.2744141,-0.04052734
4516,30.125,0.0625,85.5,0.7602539,1.022949,-0.005371094,-0.1293945,-0.2719727,-0.04052734
4520,23,-5.6875,79.875,0.7490234,0.972168,-0.01318359,-0.1352539,-0.2695313,-0.04199219
4524,19.3125,-10.9375,78,0.7680664,0.8710938,-0.005371094,-0.1401367,-0.2695313,-0.04638672
4528,28,-10.9375,77.0625,0.8149414,0.7392578,0.01367188,-0.1435547,-0.2670898,-0.04736328
4532,47.375,-2.875,73.375,0.8652344,0.7119141,-0.005371094,-0.1494141,-0.2670898,-0.04736328
4536,65.125,6.625,72.9375,0.8881836,0.7314453,-0.04003906,-0.1518555,-0.265625,-0.04638672
4540,80.0625,14.25,72,0.8881836,0.8325195,-0.02832031,-0.1582031,-0.2641602,-0.04492188
4544,86.9375,21.625,64.5625,0.8769531,0.987793,0.001953125,-0.1591797,-0.2631836,-0.04199219
4548,80.9375,27.4375,53.9375,0.8222656,1.069336,0.001953125,-0.1616211,-0.2631836,-0.03955078
4552,72.1875,26.0625,47.625,0.7680664,1.04248,0.02099609,-0.1674805,-0.2617188,-0.03515625
4556,57.625,29.25,46.75,0.8032227,1.162598,0.04052734,-0.1699219,-0.2607422,-0.03515625
4560,34.25,30.625,39.625,0.690918,1.193848,-0.01318359,-0.1708984,-0.2607422,-0.03271484
4564,11.75,23.0625,34,0.6210938,1.205566,-0.07861328,-0.1723633,-0.2607422,-0.03369141
4568,-9.6875,12.3125,28.3125,0.5820313,1.197754,-0.09375,-0.1733398,-0.2617188,-0.03515625
4572,-29.3125,2.8125,22.3125,0.578125,1.240234,-0.1015625,-0.1748047,-0.2583008,-0.03662109
4576,-47.625,-5.375,12.875,0.5820313,1.248047,-0.1245117,-0.1748047,-0.2558594,-0.03808594
4580,-62.1875,-12.1875,3,0.5976563,1.221191,-0.1435547,-0.1782227,-0.2568359,-0.04199219
4584,-67.1875,-17,-8.4375,0.6401367,1.154785,-0.1401367,-0.1772461,-0.2558594,-0.04492188
4589,-69.25,-17.125,-18.25,0.6982422,1.146973,-0.112793,-0.1748047,-0.2529297,-0.04492188
4593,-72.125,-16.375,-26.5625,0.7060547,1.124023,-0.1054688,-0.1757813,-0.2529297,-0.04882813
4597,-74.8125,-17.6875,-31.625,0.7138672,1.158691,-0.07861328,-0.1733398,-0.2529297,-0.05566406
4601,-85.5,-18.8125,-37.6875,0.6831055,1.240234,-0.112793,-0.1733398,-0.2529297,-0.05566406
4605,-92.3125,-25.1875,-49.75,0.6674805,1.154785,-0.1166992,-0.1723633,-0.2519531,-0.05957031
4609,-89.25,-25.375,-58.6875,0.7641602,1.131836,-0.07080078,-0.168457,-0.2519531,-0.06103516
4613,-89.5625,-23.125,-66.125,0.8032227,1.162598,0.009765625,-0.1650391,-0.2529297,-0.06396484
4617,-91.875,-19.0625,-73,0.8378906,1.186035,0.02490234,-0.1625977,-0.2519531,-0.06542969
4621,-96.5625,-15.875,-79.8125,0.8339844,1.174316,0.005859375,-0.1582031,-0.2529297,-0.06640625
4625,-93.625,-14.0625,-82.8125,0.8183594,1.112305,0.001953125,-0.1542969,-0.2529297,-0.06640625
4629,-85.5,-9.125,-90.6875,0.8149414,1.150879,0.009765625,-0.1508789,-0.2529297,-0.06787109
4633,-77.25,-6.9375,-101.5,0.8071289,1.162598,0.04052734,-0.1435547,-0.2568359,-0.06640625
4637,-70.625,-4.8125,-105.8125,0.8803711,1.213379,0.105957,-0.1367188,-0.2592773,-0.06640625
4641,-69.5625,0.5,-112.8125,0.9116211,1.267578,0.1713867,-0.1328125,-0.2607422,-0.06396484
4645,-63.875,7.8125,-116.5,0.9233398,1.228516,0.1943359,-0.1220703,-0.2680664,-0.06396484
4649,-51.625,16.0625,-125.375,0.9272461,1.283203,0.1982422,-0.1137695,-0.2753906,-0.0625
4653,-46.625,22.125,-137.875,0.9155273,1.395996,0.2250977,-0.1069336,-0.2792969,-0.05957031
4657,-56.125,21.75,-145.1875,0.9272461,1.446289,0.2250977,-0.09619141,-0.2905273,-0.06103516
4661,-63.5,22.8125,-147.5625,0.9423828,1.353027,0.2094727,-0.08203125,-0.2954102,-0.06396484
4665,-63.8125,24.3125,-154.9375,0.9580078,1.321777,0.2290039,-0.07324219,-0.3041992,-0.06542969
4669,-65.8125,26.0625,-161.0625,0.9736328,1.314453,0.2329102,-0.06054688,-0.3144531,-0.06933594
4673,-74.875,26.1875,-164.625,0.9814453,1.275391,0.2329102,-0.04589844,-0.3208008,-0.07763672
4677,-78.75,27.8125,-162.75,0.9619141,1.174316,0.2290039,-0.03662109,-0.3256836,-0.08300781
4681,-77.875,29.5625,-161,0.9462891,1.077148,0.2060547,-0.02099609,-0.328125,-0.09667969
4685,-63.625,36.5625,-159.125,0.9501953,1.003418,0.2480469,-0.009277344,-0.3320313,-0.1074219
4689,-53.5,43.3125,-162.1875,0.8920898,1.073242,0.2636719,0,-0.3320313,-0.1142578
4693,-55.3125,44.25,-161.5,0.8300781,1.124023,0.2709961,0.01416016,-0.3291016,-0.1235352
4697,-67.3125,41.75,-164.5,0.8222656,1.09668,0.2675781,0.02978516,-0.3232422,-0.1289063
4701,-75.3125,41.8125,-160.125,0.7954102,0.9838867,0.2441406,0.03662109,-0.3193359,-0.137207
4705,-77.9375,41.125,-158.125,0.7294922,0.875,0.1982422,0.05224609,-0.3095703,-0.1416016
4709,-76.125,40.625,-155.4375,0.7021484,0.7739258,0.1826172,0.06054688,-0.3017578,-0.144043
4713,-68.875,42.625,-148.0625,0.6328125,0.6577148,0.1826172,0.07128906,-0.2983398,-0.1455078
4718,-58.75,43.875,-140.3125,0.574707,0.6264648,0.1713867,0.08300781,-0.2919922,-0.1455078
4722,-57.875,40,-133.5625,0.4931641,0.6655273,0.1787109,0.09277344,-0.2895508,-0.1425781
4726,-68.3125,34.125,-126.8125,0.4389648,0.6811523,0.1635742,0.1020508,-0.2856445,-0.144043
4730,-81.125,27,-120.0625,0.3847656,0.5644531,0.1479492,0.1118164,-0.2841797,-0.1455078
4734,-80.125,23.5,-108.1875,0.3071289,0.4013672,0.125,0.1210938,-0.2807617,-0.1469727
4738,-69.3125,21.875,-100.4375,0.2758789,0.284668,0.1020508,0.1259766,-0.2807617,-0.1484375
4742,-50.25,23.25,-92.625,0.2373047,0.253418,0.1479492,0.1342773,-0.2807617,-0.1538086
4746,-41,22.75,-84.6875,0.1713867,0.3349609,0.1748047,0.144043,-0.2783203,-0.1547852
4750,-47.5,17.1875,-76.6875,0.1132813,0.3974609,0.2211914,0.1484375,-0.2753906,-0.1591797
4754,-61.9375,13.8125,-68.8125,0.07470703,0.3583984,0.1904297,0.1547852,-0.2768555,-0.1616211
4758,-64.25,8.9375,-60.9375,0.05517578,0.2226563,0.159668,0.1606445,-0.2719727,-0.1660156
4762,-48.875,9.8125,-50.9375,0.02050781,0.1333008,0.1826172,0.1650391,-0.2705078,-0.1713867
4766,-36,10.375,-47.9375,-0.04882813,0.2148438,0.1982422,0.1674805,-0.2695313,-0.1713867
4770,-38.75,5.875,-42.3125,-0.1030273,0.2573242,0.2441406,0.1699219,-0.2670898,-0.1767578
4774,-43.75,-2.75,-34.6875,-0.1611328,0.1523438,0.2290039,0.1738281,-0.265625,-0.1806641
4778,-30.8125,-8.9375,-22.875,-0.09521484,0.04003906,0.2709961,0.1757813,-0.2631836,-0.1850586
4782,-13.0625,-4.375,-12,-0.02978516,0.140625,0.3945313,0.1772461,-0.2607422,-0.1875
4786,-7.5,5.6875,-6.875,-0.07226563,0.2651367,0.4907227,0.1772461,-0.2617188,-0.1875
4790,-6.875,7.0625,1.5,-0.1533203,0.21875,0.4790039,0.1772461,-0.2607422,-0.1904297
4794,-0.75,1.5625,17.9375,-0.1381836,0.2299805,0.4941406,0.1782227,-0.2617188,-0.1904297
4798,12.5625,4.875,24,-0.01806641,0.2495117,0.5712891,0.1757813,-0.2617188,-0.1904297
4802,23.1875,18.3125,25.0625,0.008789063,0.3466797,0.5869141,0.1772461,-0.265625,-0.1889648
4806,18,27.125,28.75,-0.08398438,0.5058594,0.5444336,0.1757813,-0.2680664,-0.1865234
4810,0.375,27.6875,31,-0.2270508,0.5410156,0.4287109,0.1738281,-0.2695313,-0.1821289
4814,-9.875,18.625,32.25,-0.3320313,0.4829102,0.3017578,0.1748047,-0.2719727,-0.1806641
4818,-8.75,6.25,30.8125,-0.3549805,0.3935547,0.2290039,0.1748047,-0.2719727,-0.1782227
4822,0.5625,-2.5,28.875,-0.3242188,0.3701172,0.1943359,0.1723633,-0.2729492,-0.1796875
4826,12.125,-9.8125,26.5,-0.2661133,0.3271484,0.1865234,0.1713867,-0.2753906,-0.1782227
4830,22.5,-15,28.6875,-0.2001953,0.3193359,0.1826172,0.1665039,-0.2753906,-0.1767578
4834,26.5,-22.0625,35.3125,-0.1767578,0.315918,0.2060547,0.1640625,-0.2744141,-0.1782227
4838,26.5,-28.25,43.5625,-0.09521484,0.315918,0.2211914,0.1606445,-0.2768555,-0.1738281
4842,26.5625,-28.8125,51.9375,-0.03710938,0.315918,0.2211914,0.1557617,-0.2807617,-0.1728516
4847,30.625,-30.875,56.375,-0.04492188,0.2924805,0.2021484,0.1533203,-0.2792969,-0.1713867
4851,36.25,-33,60.5625,0.03564453,0.3505859,0.2250977,0.1484375,-0.2817383,-0.1713867
4855,34.25,-31.8125,64.9375,0.07080078,0.4204102,0.2749023,0.1416016,-0.2832031,-0.1660156
4859,24.625,-32.625,71.8125,0.08642578,0.4868164,0.3134766,0.1357422,-0.2832031,-0.1660156
4863,9,-37.375,79.6875,0.1328125,0.4907227,0.3364258,0.1293945,-0.2832031,-0.1616211
4867,-0.0625,-38.9375,92,0.2255859,0.4438477,0.3598633,0.1225586,-0.2817383,-0.1660156
4871,0.0625,-32.8125,99.125,0.2490234,0.4321289,0.2983398,0.1152344,-0.2817383,-0.1645508
4875,9,-30.375,99.625,0.2026367,0.4165039,0.2133789,0.1069336,-0.2807617,-0.1674805
4879,25.1875,-33.75,99.1875,0.1987305,0.3896484,0.1635742,0.09765625,-0.2807617,-0.168457
4883,43.375,-37.625,102.4375,0.2451172,0.4204102,0.1635742,0.09033203,-0.2792969,-0.168457
4887,56.5625,-41.5,107.875,0.3227539,0.5371094,0.2172852,0.08056641,-0.2807617,-0.1674805
4891,61.3125,-43.8125,113.75,0.3769531,0.6381836,0.2558594,0.07373047,-0.2841797,-0.1674805
4895,58.25,-44.3125,116.5625,0.3925781,0.824707,0.3056641,0.06640625,-0.2866211,-0.1674805
4899,45.1875,-50.3125,114.25,0.3188477,0.890625,0.2636719,0.05566406,-0.2895508,-0.168457
4903,35.875,-67.25,113.8125,0.3457031,0.809082,0.2402344,0.04492188,-0.2919922,-0.1728516
4907,47.125,-76.1875,114.75,0.5126953,0.7080078,0.2983398,0.04052734,-0.2944336,-0.1699219
4911,64.75,-74.6875,117.1875,0.625,0.7431641,0.3520508,0.02734375,-0.2983398,-0.168457
4915,78.75,-66.125,113.875,0.7529297,0.8598633,0.4135742,0.01513672,-0.3041992,-0.1660156
4919,78.6875,-56.375,114,0.7490234,1.034668,0.4599609,0.01074219,-0.3081055,-0.1616211
4923,66.75,-54.8125,116.375,0.7177734,1.077148,0.4482422,0.0009765625,-0.3144531,-0.1547852
4927,64.5625,-51.75,115.6875,0.6948242,1.026855,0.4018555,-0.01269531,-0.3154297,-0.1469727
4931,74.375,-50,109.375,0.7373047,0.9838867,0.3828125,-0.01855469,-0.3168945,-0.1401367
4935,90.25,-46.6875,98.625,0.8378906,0.9335938,0.3789063,-0.02685547,-0.3193359,-0.1289063
4939,101.25,-35.5625,102.1875,0.9580078,0.9760742,0.3979492,-0.03515625,-0.3193359,-0.1181641
4943,98.625,-23.875,107.375,0.9541016,1.069336,0.4018555,-0.04394531,-0.3193359,-0.112793
4947,93,-15.3125,113.9375,0.8691406,1.116211,0.3710938,-0.05224609,-0.3168945,-0.1005859
4951,90.75,-9.75,107.3125,0.7993164,1.12793,0.2749023,-0.05908203,-0.3105469,-0.09228516
4955,98.3125,-9.3125,97.25,0.8574219,1.077148,0.2250977,-0.06494141,-0.3081055,-0.08691406
4959,107,-3.5625,89.125,0.9892578,1.030762,0.2519531,-0.07324219,-0.3032227,-0.07861328
4963,108.375,9.875,90.5,1.004395,1.092773,0.2402344,-0.08056641,-0.2983398,-0.07177734
4967,102.75,16.3125,96.75,0.8920898,1.069336,0.159668,-0.08642578,-0.296875,-0.06933594
4971,98.75,14.8125,98.875,0.7680664,1.112305,0.06347656,-0.09130859,-0.2929688,-0.0625
4976,95.9375,9.8125,95.1875,0.7915039,1.057617,0.03271484,-0.1010742,-0.2856445,-0.05957031
4980,100.6875,11,88.875,0.8803711,0.9956055,0.04052734,-0.1054688,-0.2841797,-0.05566406
4984,107.1875,21.5,88.125,0.9311523,1.022949,0.06347656,-0.1137695,-0.2807617,-0.05566406
4988,101.1875,25.5,83,0.8032227,1.154785,0.001953125,-0.1220703,-0.2783203,-0.05175781
4992,86.625,19.4375,81.9375,0.7915039,1.112305,-0.02441406,-0.1235352,-0.2744141,-0.05029297
4996,79.6875,15.75,80.375,0.8222656,1.007324,-0.02441406,-0.1303711,-0.2719727,-0.04882813
5000,77.3125,14.5,80.5625,0.8496094,0.90625,-0.06689453,-0.1367188,-0.2705078,-0.04882813
5004,86.0625,19,83.0625,0.9194336,0.8325195,-0.04394531,-0.1401367,-0.2670898,-0.04736328
5008,87.375,25.375,88.5625,0.7836914,0.9956055,-0.1435547,-0.1459961,-0.2680664,-0.05029297
5012,77.8125,21.8125,78.6875,0.7333984,1.09668,-0.1669922,-0.1508789,-0.265625,-0.04638672
5016,63.1875,13.6875,76.1875,0.7138672,1.034668,-0.1743164,-0.1557617,-0.2641602,-0.04638672
5020,57.9375,4.8125,74.0625,0.8032227,0.8945313,-0.109375,-0.1601563,-0.2641602,-0.04345703
5024,60.6875,8.25,77.375,0.9423828,0.7856445,-0.04736328,-0.1650391,-0.2617188,-0.04199219
5028,66.375,24.6875,96.3125,1.113281,0.7080078,-0.01660156,-0.1674805,-0.2607422,-0.04199219
5032,57.9375,42.5,136.625,1.082031,0.855957,-0.01660156,-0.1772461,-0.2583008,-0.03662109
5036,18.8125,39.6875,163.25,0.7915039,1.186035,-0.1166992,-0.184082,-0.2504883,-0.03808594
5040,-8.9375,16.8125,162.6875,0.4428711,0.9604492,-0.0859375,-0.1923828,-0.2456055,-0.04052734
5044,-6.9375,-17.5,117,0.527832,1.232422,-0.07080078,-0.2006836,-0.2382813,-0.04052734
5048,-2.125,-21,68.375,0.8071289,1.143066,0.02880859,-0.2080078,-0.2319336,-0.04199219
5052,-6.625,-6.4375,44.3125,0.9736328,0.9799805,0.09814453,-0.2080078,-0.2280273,-0.04052734
5056,-17.4375,2.25,42.5,0.9155273,0.7856445,-0.01318359,-0.2104492,-0.2294922,-0.03955078
5060,-13.6875,3.1875,39.5,0.8183594,0.7392578,-0.08203125,-0.2128906,-0.2255859,-0.04345703
5064,-5.1875,-0.75,27,0.7797852,0.8012695,-0.1206055,-0.2138672,-0.2231445,-0.04345703
5068,-5.625,-3.9375,10.6875,0.7719727,0.921875,-0.07861328,-0.2163086,-0.2246094,-0.04052734
5072,-17.1875,-10.8125,-3.8125,0.7836914,0.987793,-0.02441406,-0.2163086,-0.2207031,-0.04052734
5076,-28.1875,-8.5625,-23,0.8730469,0.9995117,0.02490234,-0.2163086,-0.2231445,-0.04345703
5080,-41.3125,-7.5625,-36.375,0.7993164,0.9838867,-0.02832031,-0.215332,-0.2216797,-0.04345703
5084,-54.5,-14.75,-44.6875,0.8496094,0.9492188,-0.04394531,-0.2128906,-0.2231445,-0.04345703
5088,-64.625,-15.6875,-49.9375,0.9077148,0.9179688,-0.01318359,-0.2104492,-0.2255859,-0.04638672
5092,-69.625,-15.3125,-56.625,0.9580078,0.9492188,0.04443359,-0.2080078,-0.2270508,-0.04736328
5096,-79.375,-14.125,-62.5,0.9462891,1.007324,0.05175781,-0.2045898,-0.2280273,-0.05029297
5100,-88.25,-11.375,-71.375,0.9853516,1.026855,0.03662109,-0.2045898,-0.2304688,-0.05419922
5105,-92.25,-6.625,-81.375,0.9541016,0.9995117,-0.005371094,-0.1982422,-0.2319336,-0.05712891
5109,-86.625,-4.5625,-93.25,0.9580078,1.015137,-0.005371094,-0.1938477,-0.2319336,-0.05712891
5113,-81.0625,-2.5,-105.9375,0.9931641,1.04248,0.04052734,-0.1889648,-0.2358398,-0.05957031
5117,-79.625,0.3125,-110.625,1.059082,1.081055,0.09033203,-0.1831055,-0.2392578,-0.0625
5121,-81.375,8.3125,-109.3125,1.074219,1.057617,0.1132813,-0.1757813,-0.2441406,-0.06396484
5125,-73.5625,12.625,-105.1875,1.000488,1.026855,0.06347656,-0.1699219,-0.2456055,-0.06396484
5129,-56.125,14.75,-110.5625,0.9970703,1.100586,0.07128906,-0.1625977,-0.2495117,-0.06542969
5133,-44.8125,18.8125,-125.4375,1.000488,1.225098,0.07128906,-0.1542969,-0.2529297,-0.06103516
5137,-42.4375,22.5,-142,1.012207,1.298828,0.1020508,-0.1494141,-0.2583008,-0.05957031
5141,-49.125,21.5,-150.75,1.008301,1.306641,0.07910156,-0.1391602,-0.2641602,-0.05957031
5145,-55.625,19.0625,-154.375,1.055176,1.279297,0.1020508,-0.1269531,-0.2744141,-0.05859375
5149,-60.25,23.625,-158.3125,1.105469,1.259766,0.09423828,-0.1186523,-0.2807617,-0.05712891
5153,-60.5625,27.9375,-161.6875,1.066406,1.213379,0.09423828,-0.1044922,-0.2895508,-0.05957031
5157,-57.125,29.875,-165.0625,1.05127,1.182129,0.09423828,-0.09228516,-0.2993164,-0.05957031
5161,-53.1875,31.4375,-165.75,1.012207,1.158691,0.105957,-0.08300781,-0.3081055,-0.06396484
5165,-48.8125,30.25,-167.5625,0.9853516,1.186035,0.1210938,-0.07128906,-0.3154297,-0.06933594
5169,-49.5625,29,-172.875,1.016113,1.232422,0.1557617,-0.05566406,-0.3232422,-0.07470703
5173,-56,31.75,-174.9375,0.9931641,1.209473,0.159668,-0.04589844,-0.3266602,-0.08007813
5177,-63.5625,30.125,-176.1875,0.9389648,1.166504,0.125,-0.03173828,-0.3330078,-0.08691406
5181,-67.375,27.375,-176.625,0.9155273,1.049805,0.125,-0.01757813,-0.3344727,-0.09912109
5185,-61.8125,25.75,-178.9375,0.9272461,0.956543,0.1557617,-0.006835938,-0.3320313,-0.105957
5189,-59.375,27.0625,-179.3125,0.9423828,0.9296875,0.2060547,0.006835938,-0.3305664,-0.1157227
5193,-66.125,29.25,-177.125,0.8959961,0.921875,0.2211914,0.0234375,-0.3242188,-0.125
5197,-79.5,28.3125,-171.1875,0.8417969,0.8442383,0.1865234,0.03417969,-0.3208008,-0.1264648
5201,-84,30.625,-160.6875,0.7836914,0.6420898,0.1479492,0.04638672,-0.3129883,-0.1289063
5205,-69.8125,34.375,-149.875,0.690918,0.5488281,0.1367188,0.05810547,-0.3081055,-0.1333008
5209,-57.75,34.25,-144.9375,0.5976563,0.6186523,0.1635742,0.06787109,-0.3081055,-0.1318359
5213,-64.9375,29.9375,-143.75,0.5512695,0.6884766,0.1943359,0.07617188,-0.3041992,-0.1347656
5217,-75.875,28.9375,-135.6875,0.527832,0.5136719,0.1826172,0.08886719,-0.2983398,-0.1333008
5221,-70.4375,32.5625,-123.9375,0.4311523,0.3935547,0.1367188,0.09619141,-0.2954102,-0.137207
5225,-56.8125,31.125,-114.25,0.3496094,0.3232422,0.1367188,0.1069336,-0.2954102,-0.1401367
5229,-50.0625,28.5625,-103.0625,0.2954102,0.3623047,0.1289063,0.1166992,-0.2929688,-0.1401367
5234,-47,25.3125,-92.75,0.175293,0.3935547,0.1557617,0.1225586,-0.2919922,-0.1401367
5238,-51.4375,17.875,-87.625,0.1289063,0.3779297,0.1713867,0.1308594,-0.2929688,-0.1425781
5242,-53.875,15.0625,-82.375,0.1635742,0.3388672,0.1748047,0.1367188,-0.2919922,-0.1469727
5246,-54.625,17.375,-77,0.1445313,0.2924805,0.1748047,0.144043,-0.2895508,-0.1494141
5250,-56.5,15.875,-70.9375,0.07861328,0.237793,0.159668,0.1484375,-0.2856445,-0.1508789
5254,-54.4375,13.0625,-60.5,0.03173828,0.1523438,0.159668,0.1557617,-0.2841797,-0.1606445
5258,-47.125,9.5625,-49.375,-0.02197266,0.07470703,0.1328125,0.1606445,-0.2832031,-0.1606445
5262,-36.375,6.75,-37.25,-0.05273438,0.02441406,0.144043,0.1630859,-0.2792969,-0.1660156
5266,-22.625,3.375,-23.5625,-0.08789063,0.04394531,0.159668,0.1650391,-0.2768555,-0.1674805
5270,-14.75,1.9375,-13.625,-0.06835938,0.21875,0.2211914,0.1665039,-0.2783203,-0.168457
5274,-14.3125,3.75,-11.4375,-0.1499023,0.2963867,0.2558594,0.1674805,-0.2783203,-0.1728516
5278,-13.625,-1.4375,-11.25,-0.2119141,0.284668,0.2558594,0.1674805,-0.2753906,-0.1699219
5282,-7.5,-5.8125,-8.8125,-0.1459961,0.237793,0.2905273,0.1674805,-0.2783203,-0.1728516
5286,1.125,-4.4375,-1.5,-0.1069336,0.2651367,0.3442383,0.1689453,-0.2753906,-0.1738281
5290,7.75,-3.1875,8.875,-0.1499023,0.3193359,0.3637695,0.1674805,-0.2753906,-0.1738281
5294,11.6875,-5.5625,14.0625,-0.1767578,0.3896484,0.3828125,0.1689453,-0.2768555,-0.1728516
