Packet number,Gyroscope X (deg/s),Gyroscope Y (deg/s),Gyroscope Z (deg/s),Accelerometer X (g),Accelerometer Y (g),Accelerometer Z (g),Magnetometer X (G),Magnetometer Y (G),Magnetometer Z (G)
0,-1.5,6.75,3.875,0.7836914,-0.5307617,0.05957031,-0.234375,0.04736328,-0.09912109
4,-3.1875,8.625,7.5,0.7836914,-0.5073242,0.05175781,-0.234375,0.04736328,-0.09912109
9,-8.625,11.8125,11.375,0.8149414,-0.46875,0.04052734,-0.2329102,0.04980469,-0.1020508
13,-19.5625,17.5625,15.8125,0.8417969,-0.4453125,0.04052734,-0.2304688,0.05371094,-0.1020508
17,-28.8125,22.0625,19.4375,0.8222656,-0.4648438,0.02099609,-0.2319336,0.05517578,-0.1035156
21,-32.875,21.9375,20.75,0.8183594,-0.4921875,0.009765625,-0.2304688,0.05859375,-0.105957
25,-30.625,17.625,19.8125,0.8457031,-0.503418,0.01708984,-0.2270508,0.0625,-0.1088867
29,-28.0625,15.4375,16.375,0.8881836,-0.4960938,0.03662109,-0.2280273,0.06396484,-0.1113281
33,-27.75,17.25,13.3125,0.9194336,-0.46875,0.07128906,-0.2270508,0.06884766,-0.112793
37,-31.25,20.875,11.5,0.9233398,-0.4570313,0.05175781,-0.2280273,0.06738281,-0.1142578
41,-35.9375,24.25,11.875,0.8999023,-0.4609375,0.06738281,-0.2246094,0.06884766,-0.112793
45,-36.4375,23,10.9375,0.8881836,-0.4960938,0.04785156,-0.2246094,0.07128906,-0.1166992
49,-29.1875,19,9,0.8730469,-0.550293,0.05566406,-0.2246094,0.07519531,-0.1166992
53,-14.5,10.625,7.9375,0.8881836,-0.5541992,0.05175781,-0.2236328,0.07519531,-0.112793
57,5.75,-1.0625,7.5,0.9619141,-0.4492188,0.05566406,-0.2236328,0.07617188,-0.1166992
61,28,-12.625,-7.125,1.202148,-0.1381836,0.05957031,-0.2270508,0.06982422,-0.1142578
65,15.875,2.25,-27.8125,1.46582,0.1875,0.1479492,-0.2270508,0.06982422,-0.1113281
69,-25.75,33.0625,-33.8125,1.589844,0.253418,0.1865234,-0.2304688,0.06103516,-0.1074219
73,-61.75,59.0625,-40.5625,1.539551,0.07470703,0.1943359,-0.234375,0.05371094,-0.1020508
77,-64.6875,63.375,-48.75,1.43457,-0.09179688,0.1367188,-0.2402344,0.04882813,-0.09912109
81,-45,50.6875,-59.625,1.403809,-0.2163086,0.1171875,-0.2426758,0.04248047,-0.09667969
85,-14.8125,29.25,-77.875,1.508301,-0.1811523,0.1826172,-0.2436523,0.03759766,-0.09667969
89,3.6875,20.3125,-97.0625,1.647949,-0.06054688,0.2250977,-0.2446289,0.03125,-0.08984375
93,-0.4375,28.1875,-111.0625,1.736816,0.07861328,0.2944336,-0.2460938,0.02392578,-0.08691406
97,-15.5,40.4375,-117.3125,1.756348,0.04736328,0.3017578,-0.2446289,0.01611328,-0.08300781
101,-25.625,51.9375,-127.875,1.748535,-0.04541016,0.2675781,-0.2436523,0.01269531,-0.07763672
105,-28.3125,60.8125,-136.625,1.678711,-0.1850586,0.2368164,-0.2446289,0.004882813,-0.07177734
109,-25.625,62.1875,-142.75,1.601563,-0.324707,0.2133789,-0.2446289,-0.005859375,-0.06396484
113,-17.5625,63,-145.1875,1.589844,-0.3520508,0.2368164,-0.2495117,-0.01318359,-0.05712891
117,-11.625,63.75,-155.25,1.516113,-0.371582,0.1787109,-0.2519531,-0.02832031,-0.04736328
121,-7.9375,63.3125,-160.0625,1.477539,-0.3911133,0.1904297,-0.2602539,-0.04296875,-0.04199219
125,-5.1875,62.625,-157.6875,1.477539,-0.4140625,0.2094727,-0.2651367,-0.05810547,-0.03662109
129,-2.875,63.875,-158,1.450195,-0.3950195,0.1787109,-0.2709961,-0.07958984,-0.03662109
133,0.4375,60.5625,-158.375,1.426758,-0.3754883,0.1865234,-0.2783203,-0.09960938,-0.04199219
138,4.25,56.875,-159.3125,1.384277,-0.3637695,0.1943359,-0.2807617,-0.1142578,-0.04736328
142,8.5,54.125,-157.8125,1.39209,-0.3208008,0.2290039,-0.2841797,-0.1308594,-0.05957031
146,12.25,51.375,-158.0625,1.357422,-0.2822266,0.2250977,-0.2817383,-0.1508789,-0.07324219
150,16.9375,47.125,-156.9375,1.368652,-0.2626953,0.2329102,-0.2792969,-0.1606445,-0.08691406
154,21.5,44.0625,-159.5625,1.337891,-0.2006836,0.2250977,-0.2709961,-0.1733398,-0.09912109
158,27.1875,34.625,-157.75,1.275879,-0.1772461,0.2021484,-0.2578125,-0.1855469,-0.112793
162,31.875,22.1875,-156.9375,1.302734,-0.07617188,0.2172852,-0.2470703,-0.1918945,-0.1166992
166,40.875,11.9375,-156.75,1.248535,-0.07226563,0.2094727,-0.234375,-0.1992188,-0.1210938
170,79.9375,-29.875,-147.9375,0.8652344,-0.08007813,-0.07080078,-0.2172852,-0.2080078,-0.1157227
174,124.3125,-115.5,-158.5625,1.175293,0.3427734,-0.1474609,-0.2114258,-0.2167969,-0.1088867
178,118.25,-132.25,-188.5,1.918945,0.6147461,0.04052734,-0.2021484,-0.2270508,-0.08691406
182,62.6875,-85.6875,-202.0625,2.147949,0.793457,0.1865234,-0.1938477,-0.2407227,-0.06787109
186,-13.75,-28.0625,-191,2.012207,0.793457,0.2290039,-0.1875,-0.2519531,-0.05712891
190,-81.625,30.3125,-189.125,1.880371,0.4125977,0.2866211,-0.1806641,-0.2631836,-0.04882813
194,-108.125,64.125,-187.875,1.527832,0.04394531,0.2368164,-0.1733398,-0.2783203,-0.05712891
198,-91.625,66.4375,-199.875,1.19043,-0.3833008,0.2402344,-0.168457,-0.2880859,-0.05957031
202,-64.0625,74,-204,1.09375,-0.5424805,0.340332,-0.1591797,-0.3041992,-0.07080078
206,-58.75,97.125,-188.75,0.8110352,-0.6318359,0.3251953,-0.1494141,-0.3193359,-0.08154297
210,-63.0625,113.6875,-168.875,0.527832,-0.4492188,0.1826172,-0.1459961,-0.3266602,-0.09082031
214,-60.625,110.5625,-146.75,0.2451172,-0.4804688,0.04785156,-0.1328125,-0.3378906,-0.105957
218,-46.0625,96.1875,-127.5625,0.08642578,-0.4609375,0.001953125,-0.1220703,-0.3457031,-0.1225586
222,-27.375,76.625,-114.625,-0.05664063,-0.3637695,-0.03222656,-0.1162109,-0.3505859,-0.1289063
226,-4.6875,51.625,-110.6875,-0.1806641,-0.2978516,-0.02050781,-0.1054688,-0.3544922,-0.1386719
230,11.625,34,-102.8125,-0.2192383,-0.2587891,0.04052734,-0.09619141,-0.3603516,-0.1455078
234,19.8125,22.0625,-91,-0.296875,-0.2045898,0.05175781,-0.08886719,-0.3632813,-0.1469727
238,20.5625,16.3125,-71.125,-0.3164063,-0.1230469,0.06347656,-0.08300781,-0.3666992,-0.1484375
242,11.875,15.375,-49.9375,-0.28125,0.02832031,0.08251953,-0.07714844,-0.3706055,-0.1523438
246,2.8125,17.9375,-35.25,-0.2583008,0.1367188,0.07128906,-0.07568359,-0.371582,-0.1508789
250,-6.0625,18.625,-24.75,-0.2773438,0.1757813,0.07128906,-0.07128906,-0.3745117,-0.1523438
254,-10.9375,16.25,-17.3125,-0.362793,0.1757813,0.07519531,-0.06884766,-0.3730469,-0.1547852
258,-11,11.625,-7,-0.3242188,0.1293945,0.125,-0.06738281,-0.3745117,-0.15625
262,-13.5625,10.75,8.875,-0.262207,0.1640625,0.1826172,-0.06640625,-0.3730469,-0.15625
267,-21.4375,18.5625,24.75,-0.1264648,0.3505859,0.1943359,-0.06640625,-0.3706055,-0.1616211
271,-36.875,19.4375,33.75,-0.1533203,0.4013672,0.09814453,-0.06982422,-0.3691406,-0.1606445
275,-64.125,9.1875,32.8125,-0.1884766,0.6655273,0.1020508,-0.06982422,-0.3666992,-0.1660156
279,-70.875,-12.75,33.8125,-0.1459961,0.3818359,0.2519531,-0.07324219,-0.3632813,-0.1713867
283,-57.9375,-20.4375,48.375,0.07861328,0.1523438,0.5288086,-0.07568359,-0.359375,-0.1738281
287,-39.375,-15.5,58.1875,0.07470703,0.2265625,0.5175781,-0.08056641,-0.3544922,-0.1782227
291,-25.25,-22.4375,65.1875,0.07861328,0.3701172,0.3867188,-0.08544922,-0.3505859,-0.1796875
295,-22.6875,-31.3125,68,0.09375,0.5097656,0.2675781,-0.09130859,-0.3481445,-0.1782227
299,-33.0625,-33.8125,76.4375,0.2216797,0.5410156,0.3330078,-0.09863281,-0.3457031,-0.1767578
303,-43.125,-25.1875,78.125,0.3417969,0.4516602,0.4980469,-0.1044922,-0.3393555,-0.175293
307,-46.3125,-12.3125,76.25,0.3305664,0.2651367,0.5366211,-0.1069336,-0.3369141,-0.175293
311,-45.375,0.6875,79.875,0.3149414,0.1137695,0.4941406,-0.1152344,-0.3291016,-0.1767578
315,-35.1875,-1.8125,83.9375,0.07080078,-0.01025391,0.2441406,-0.1186523,-0.3242188,-0.1782227
319,-19.9375,-16.9375,81.5,0.08642578,-0.03369141,0.1328125,-0.1210938,-0.3217773,-0.1767578
323,-13.25,-30.125,85.25,0.05908203,0.01269531,0.05566406,-0.1269531,-0.3168945,-0.1738281
327,-20,-36.125,98.6875,0.1132813,-0.01806641,0.08251953,-0.1318359,-0.3095703,-0.168457
331,-32.9375,-37.3125,114.6875,0.2451172,-0.1035156,0.1713867,-0.1376953,-0.3017578,-0.1674805
335,-42.3125,-27.5,129.75,0.4428711,-0.2202148,0.2329102,-0.1435547,-0.296875,-0.1660156
339,-49.125,-17.25,140.875,0.4467773,-0.2744141,0.1328125,-0.1494141,-0.2832031,-0.1630859
343,-30.0625,-49.0625,139.1875,0.3339844,-0.4067383,-0.009277344,-0.1557617,-0.2729492,-0.1606445
347,-12.625,-63.5,131.125,0.5317383,-0.05273438,0.1635742,-0.1616211,-0.2631836,-0.1577148
351,-7,-52.875,146,0.8574219,-0.3520508,0.2597656,-0.1665039,-0.2495117,-0.15625
355,-20,-36.3125,159.3125,0.9814453,-0.2314453,0.2290039,-0.168457,-0.2407227,-0.1508789
359,-33.6875,-33.75,167.6875,0.9077148,-0.08789063,0.01367188,-0.1748047,-0.2255859,-0.1547852
363,-48.75,-52.75,164.5625,0.9853516,0.02050781,0.04443359,-0.1782227,-0.2119141,-0.1591797
367,-58.1875,-69.125,153.8125,0.8842773,-0.2587891,0.08251953,-0.1831055,-0.203125,-0.1645508
371,-54.5625,-89.4375,160.375,1.085938,-0.5893555,0.2983398,-0.1923828,-0.1918945,-0.1699219
375,-34.9375,-105.0625,178.1875,1.078125,-0.7368164,0.2250977,-0.206543,-0.1791992,-0.1728516
379,-16.75,-122.375,184.5625,1.388184,-0.5307617,0.3364258,-0.2172852,-0.1743164,-0.1674805
383,-2.625,-131.3125,176,1.357422,-0.5,0.2827148,-0.234375,-0.1655273,-0.1577148
387,4.3125,-138.375,174.375,1.492676,-0.5307617,0.3789063,-0.2509766,-0.1557617,-0.144043
391,19.875,-154.125,174.3125,1.516113,-0.7485352,0.3945313,-0.2617188,-0.1469727,-0.1279297
396,41.6875,-147.3125,186.875,1.830078,-0.7250977,0.4599609,-0.2700195,-0.1357422,-0.1044922
400,52.1875,-133.8125,185.5625,1.89209,-0.4067383,0.4404297,-0.2734375,-0.1196289,-0.08154297
404,39.875,-105.9375,173.9375,1.853027,-0.3017578,0.3637695,-0.2734375,-0.1030273,-0.06787109
408,28.0625,-89.3125,169.4375,1.76416,-0.4921875,0.3481445,-0.2700195,-0.08544922,-0.05273438
412,34.875,-80.9375,183.75,1.632324,-0.484375,0.05957031,-0.2626953,-0.06591797,-0.04492188
416,35.5,-97.75,177.125,1.659668,-0.1230469,-0.06689453,-0.2592773,-0.04931641,-0.04492188
420,18.875,-90.5625,163.5,1.822266,-0.1459961,0.05566406,-0.2509766,-0.02929688,-0.04736328
424,2.4375,-79.5625,152.75,1.72168,-0.2783203,0.1713867,-0.2446289,-0.01074219,-0.05273438
428,-11.0625,-63.5625,150.375,1.709961,-0.5737305,0.3212891,-0.2426758,0,-0.05566406
432,4.875,-52.75,162.9375,1.597656,-0.7133789,0.1328125,-0.2402344,0.01269531,-0.06542969
436,22.5625,-69.6875,141.75,1.566406,-0.3364258,0.09033203,-0.2363281,0.02490234,-0.07177734
440,28.8125,-68,125.625,1.589844,-0.453125,0.07910156,-0.237793,0.03027344,-0.07763672
444,30.375,-67.5625,122.3125,1.357422,-0.46875,-0.005371094,-0.2402344,0.03857422,-0.08447266
448,35.5,-84.25,122.4375,1.260254,-0.6552734,-0.01660156,-0.2412109,0.04492188,-0.08691406
452,55.25,-85.375,134.375,1.655762,-0.6318359,0.1289063,-0.2446289,0.04980469,-0.08837891
456,56,-60.3125,118.9375,1.802734,-0.1459961,0.1787109,-0.2470703,0.06103516,-0.08984375
460,31.8125,-27.1875,100.5,1.768066,-0.1074219,0.2329102,-0.2485352,0.07275391,-0.09521484
464,16.375,-5.1875,87.1875,1.589844,-0.2783203,0.1904297,-0.2519531,0.08251953,-0.1020508
468,21.1875,-0.1875,76.8125,1.39209,-0.5112305,0.05957031,-0.253418,0.1000977,-0.112793
472,56.75,-17.9375,62.9375,1.512207,-0.2744141,-0.03222656,-0.2592773,0.1225586,-0.1279297
476,24.375,27,37,2.60498,1.947754,0.2866211,-0.2661133,0.1386719,-0.1455078
480,-43.125,95.0625,-53.625,2.163086,0.5644531,-0.2553711,-0.2685547,0.1489258,-0.1508789
484,-36,75.4375,-31.375,1.023926,-0.3095703,-0.3666992,-0.2592773,0.1376953,-0.1455078
488,-47.5,34.875,7.5625,0.7680664,-0.3637695,-0.2363281,-0.2519531,0.1298828,-0.1386719
492,-43.75,8.3125,17.6875,1.16748,-0.3208008,0.03271484,-0.2495117,0.1201172,-0.1333008
496,-18.3125,4.75,-19.5625,1.407715,-0.2314453,0.06738281,-0.2446289,0.1074219,-0.125
500,0.375,6.25,-68.1875,1.473633,-0.1035156,0.1289063,-0.2436523,0.09765625,-0.1166992
504,-7.9375,21.875,-91.875,1.523926,-0.05664063,0.1865234,-0.2436523,0.08496094,-0.1098633
508,-35.6875,43.8125,-94.5625,1.473633,-0.1577148,0.1713867,-0.2436523,0.07275391,-0.105957
512,-57.125,65.6875,-90.6875,1.473633,-0.3208008,0.1748047,-0.2412109,0.06640625,-0.1044922
516,-63,77.3125,-90.1875,1.364746,-0.4335938,0.1171875,-0.2363281,0.06005859,-0.1005859
520,-57.6875,74.1875,-97.125,1.310547,-0.4648438,0.1132813,-0.2363281,0.05517578,-0.09765625
525,-44,64.625,-103.9375,1.376465,-0.5112305,0.140625,-0.234375,0.05273438,-0.09667969
529,-34.4375,62.375,-114.75,1.512207,-0.4257813,0.1982422,-0.2329102,0.04638672,-0.09082031
533,-32.375,67.9375,-122.875,1.589844,-0.3676758,0.2172852,-0.2304688,0.03613281,-0.08447266
537,-37.375,71.9375,-124.625,1.644043,-0.3754883,0.2558594,-0.2329102,0.03271484,-0.08447266
541,-40.0625,79,-125.625,1.794922,-0.3676758,0.2709961,-0.2353516,0.02246094,-0.07763672
545,-43.5,92,-133.3125,1.938477,-0.3325195,0.3173828,-0.237793,0.007324219,-0.06933594
549,-51.0625,113.125,-144.6875,1.96582,-0.2978516,0.2827148,-0.2412109,-0.001953125,-0.06640625
553,-47.4375,120,-157.5625,1.771973,-0.4414063,0.1635742,-0.2470703,-0.01806641,-0.06640625
557,-27.875,106.25,-169.9375,1.632324,-0.5737305,0.1132813,-0.2543945,-0.03955078,-0.07080078
561,-1.5,83.625,-174.6875,1.632324,-0.7211914,0.1674805,-0.2578125,-0.05566406,-0.07617188
565,18,76.6875,-176.5,1.775879,-0.5620117,0.2480469,-0.2626953,-0.07421875,-0.08300781
569,19.0625,86.125,-183.5,1.802734,-0.4101563,0.2441406,-0.2651367,-0.09179688,-0.09375
573,10.3125,88.5,-185.5,1.574219,-0.2861328,0.1098633,-0.2661133,-0.1044922,-0.1020508
577,9.8125,67.125,-189.75,1.543457,-0.5112305,0.2094727,-0.2617188,-0.1206055,-0.1181641
581,29.5,59.0625,-196.0625,1.725586,-0.6821289,0.4443359,-0.2568359,-0.1357422,-0.1347656
585,35.0625,79.8125,-196.375,1.841797,-0.5893555,0.5556641,-0.253418,-0.1469727,-0.1401367
589,22.0625,104.75,-190.3125,1.655762,-0.4726563,0.4057617,-0.2402344,-0.1582031,-0.1523438
593,11.75,114.75,-189.125,1.508301,-0.519043,0.3017578,-0.2255859,-0.1694336,-0.1577148
597,15.3125,116.8125,-190.375,1.357422,-0.6279297,0.2749023,-0.2163086,-0.1757813,-0.1645508
601,22.625,117.6875,-186.6875,1.225586,-0.7250977,0.2827148,-0.2006836,-0.1879883,-0.1674805
605,32.375,115.25,-181.1875,1.043457,-0.6513672,0.2211914,-0.1889648,-0.2006836,-0.1728516
609,40,108.8125,-174.125,0.9038086,-0.6279297,0.1713867,-0.1806641,-0.2094727,-0.1713867
613,47.25,99.75,-168.875,0.7915039,-0.550293,0.140625,-0.1699219,-0.2246094,-0.168457
617,43,96.625,-162.75,0.7373047,-0.4492188,0.144043,-0.1640625,-0.2382813,-0.1699219
621,36.0625,94.625,-150.25,0.6362305,-0.4179688,0.1098633,-0.1557617,-0.2495117,-0.168457
625,33.375,90.4375,-139.5625,0.4853516,-0.324707,0.105957,-0.1484375,-0.2631836,-0.1728516
629,29.1875,83.25,-129.375,0.3652344,-0.2939453,0.1020508,-0.1411133,-0.2719727,-0.175293
633,30.625,76.6875,-116.5625,0.3339844,-0.2470703,0.09814453,-0.1352539,-0.2817383,-0.1796875
637,32.375,71.1875,-116.1875,0.2373047,-0.1381836,0.03662109,-0.1259766,-0.2905273,-0.1835938
641,29.3125,64.125,-112.75,0.1870117,-0.006347656,0.05957031,-0.1186523,-0.3007813,-0.1889648
645,21.5,61.0625,-105.4375,0.09765625,0.04003906,0.03271484,-0.112793,-0.3056641,-0.1918945
649,14,54.1875,-88.5625,-0.01025391,-0.01806641,0.02880859,-0.1044922,-0.3120117,-0.1972656
654,13.0625,44.9375,-69.25,-0.01806641,-0.07226563,0.09423828,-0.09619141,-0.3154297,-0.1987305
658,16.25,36.0625,-55.5625,-0.06054688,-0.02978516,0.125,-0.09228516,-0.3178711,-0.2011719
662,20.25,29.125,-53,-0.1147461,0.07861328,0.1479492,-0.08886719,-0.3208008,-0.2041016
666,22.625,19,-48.0625,-0.1689453,0.105957,0.125,-0.08398438,-0.3242188,-0.2041016
670,23.375,7.875,-40.4375,-0.1884766,0.1098633,0.125,-0.08300781,-0.3256836,-0.206543
674,24.1875,0.8125,-22.5,-0.1533203,0.1176758,0.2094727,-0.08056641,-0.328125,-0.2041016
678,24.5,-2.625,-13.875,-0.08398438,0.1757813,0.2636719,-0.07714844,-0.3305664,-0.2041016
682,21.0625,-2,-4.625,-0.05273438,0.2573242,0.2597656,-0.078125,-0.3291016,-0.2011719
686,13.0625,-1.125,1.6875,-0.08789063,0.4052734,0.2290039,-0.07714844,-0.3330078,-0.2026367
690,5.75,-7.125,3.375,-0.09130859,0.4204102,0.2250977,-0.07958984,-0.3330078,-0.2011719
694,2.1875,-15.6875,7.5625,-0.08007813,0.2768555,0.2827148,-0.07958984,-0.3344727,-0.199707
698,6.125,-19.5,17.375,-0.006347656,0.2338867,0.3364258,-0.08056641,-0.3330078,-0.1987305
702,9.0625,-19.5625,21.875,0.05908203,0.3232422,0.3212891,-0.08398438,-0.3320313,-0.1972656
706,3.6875,-19.3125,30,0.03173828,0.3740234,0.2788086,-0.08398438,-0.3330078,-0.1918945
710,-1.6875,-23.1875,35.875,0.004882813,0.3427734,0.2290039,-0.08789063,-0.3330078,-0.1928711
714,-3,-32.75,41.6875,-0.02197266,0.3081055,0.2133789,-0.09033203,-0.3305664,-0.1904297
718,-2.6875,-41.6875,47.1875,0.04736328,0.21875,0.2827148,-0.09375,-0.3291016,-0.1889648
722,-0.9375,-45.25,53.125,0.09765625,0.1367188,0.3364258,-0.09960938,-0.3291016,-0.1850586
726,4.875,-45,62,0.1210938,0.1098633,0.2441406,-0.1054688,-0.3232422,-0.1782227
730,5.875,-50.3125,68.6875,0.1210938,0.2265625,0.2060547,-0.109375,-0.3208008,-0.1796875
734,0.4375,-53.875,75.3125,0.1791992,0.2299805,0.1713867,-0.1162109,-0.3178711,-0.1728516
738,-0.3125,-64.375,84.75,0.1557617,0.1445313,0.2021484,-0.1235352,-0.3144531,-0.1699219
742,5,-76.75,94,0.3071289,0.07080078,0.2905273,-0.1259766,-0.3095703,-0.1630859
746,14.125,-76.8125,93.9375,0.4428711,0.06298828,0.3671875,-0.1342773,-0.3041992,-0.1577148
750,13.25,-67.5625,99,0.5551758,-0.01416016,0.4057617,-0.1411133,-0.296875,-0.1523438
754,11.6875,-53.25,108.25,0.5395508,-0.08007813,0.2636719,-0.1459961,-0.2929688,-0.1469727
758,10,-56.3125,116.5625,0.4736328,0.008789063,0.1479492,-0.1508789,-0.2841797,-0.1416016
762,1.4375,-59.5,125.4375,0.527832,0.07080078,0.1098633,-0.1567383,-0.2753906,-0.1386719
766,-12.1875,-60.8125,133.25,0.6289063,0.08642578,0.1713867,-0.1601563,-0.2705078,-0.1357422
770,-29.125,-52.0625,140.5,0.8417969,-0.1928711,0.2983398,-0.1674805,-0.2583008,-0.1357422
774,-18.1875,-57.75,164.375,0.7602539,-0.3325195,0.2250977,-0.1733398,-0.2470703,-0.1357422
778,3,-80.875,161.375,0.8842773,-0.1420898,0.1982422,-0.1791992,-0.2368164,-0.1357422
783,20.25,-91.75,150.125,0.9970703,-0.01416016,0.1865234,-0.1875,-0.2270508,-0.1347656
787,22.75,-98.3125,148.0625,1.117188,0.02050781,0.2441406,-0.1972656,-0.2182617,-0.1318359
791,9.9375,-80.875,145.1875,1.330078,-0.03369141,0.4174805,-0.2055664,-0.2094727,-0.1303711
795,-6.6875,-49.625,163,1.368652,-0.3173828,0.355957,-0.2172852,-0.203125,-0.1289063
799,0.375,-55.6875,169.8125,1.171387,-0.1577148,0.1289063,-0.2294922,-0.1943359,-0.1264648
803,11.4375,-71,155.8125,1.248535,-0.1499023,0.105957,-0.237793,-0.1845703,-0.125
807,26.1875,-86.8125,146.75,1.233398,-0.1616211,0.07128906,-0.2495117,-0.1767578,-0.1157227
811,27.125,-88.3125,147.0625,1.426758,-0.08789063,0.2250977,-0.2602539,-0.1679688,-0.1020508
815,-0.375,-59.9375,144.6875,1.59375,-0.07226563,0.3330078,-0.2661133,-0.1621094,-0.09228516
819,-25.9375,-28.5625,163.0625,1.5625,-0.4492188,0.2983398,-0.2675781,-0.1508789,-0.08007813
823,-11.25,-46.8125,168.5,1.337891,-0.371582,0.105957,-0.2734375,-0.1342773,-0.07177734
827,7.875,-62.75,149.1875,1.426758,-0.3173828,0.140625,-0.2709961,-0.1254883,-0.06396484
831,14.9375,-63.25,136.1875,1.399902,-0.2626953,0.105957,-0.2709961,-0.1108398,-0.05419922
835,0.9375,-50.75,137.625,1.469727,-0.1967773,0.2211914,-0.2685547,-0.09716797,-0.04882813
839,-29.4375,-24.6875,137,1.508301,-0.4335938,0.3251953,-0.2651367,-0.08544922,-0.04199219
843,-28.75,-15.5625,159.125,1.271973,-0.7563477,0.1557617,-0.2617188,-0.06933594,-0.04345703
847,-1.8125,-47.25,157.125,1.252441,-0.46875,0.07519531,-0.2553711,-0.05175781,-0.04345703
851,13.6875,-63.125,139.5625,1.395996,-0.4804688,0.1020508,-0.253418,-0.03808594,-0.04736328
855,26.75,-66.6875,130.625,1.407715,-0.4960938,0.08642578,-0.2509766,-0.02197266,-0.05029297
859,28.75,-64.5,123.6875,1.419434,-0.4921875,0.159668,-0.2446289,-0.008300781,-0.05273438
863,19.0625,-48.6875,126.0625,1.473633,-0.4960938,0.1904297,-0.2436523,0.001464844,-0.05859375
867,13.4375,-35.25,136.3125,1.403809,-0.6318359,0.09814453,-0.2426758,0.01269531,-0.06640625
871,21.25,-48.4375,133.5,1.260254,-0.4726563,-0.01318359,-0.2402344,0.02246094,-0.07470703
875,29.5,-63.25,123.6875,1.283691,-0.581543,-0.01660156,-0.2412109,0.03027344,-0.08007813
879,53.4375,-79.0625,113.5625,1.252441,-0.6899414,-0.04736328,-0.2436523,0.03759766,-0.08154297
883,75.5,-85.0625,107.75,1.415527,-0.3208008,-0.06689453,-0.2470703,0.04248047,-0.08544922
887,63.125,-71.3125,90.6875,1.500488,-0.1538086,0.005859375,-0.2470703,0.04638672,-0.08544922
891,33.125,-48.5625,97.3125,1.46582,-0.1694336,0.04052734,-0.2509766,0.04980469,-0.08984375
895,13.8125,-38.1875,98.5,1.333984,-0.324707,0.04052734,-0.2543945,0.05761719,-0.09375
899,21.6875,-49.8125,91.9375,1.132324,-0.5620117,-0.05126953,-0.2553711,0.06494141,-0.09228516
903,63.5,-79.875,84.75,1.206055,-0.7524414,-0.1708984,-0.2592773,0.07373047,-0.1005859
907,101.3125,-94.0625,62.6875,1.450195,-0.1772461,-0.3051758,-0.2675781,0.08398438,-0.1113281
912,12.5625,-28.75,104.3125,3.387695,2.654785,0.3867188,-0.2768555,0.08642578,-0.1210938
916,-130.4375,107.0625,-15.1875,2.480957,1.205566,-0.07470703,-0.2817383,0.09130859,-0.1289063
920,-111.625,97.6875,-40.375,1.155762,-0.4453125,-0.359375,-0.2724609,0.09619141,-0.1235352
924,-66.9375,44.625,-25.5,0.5087891,-1.304199,-0.3554688,-0.2700195,0.09375,-0.1225586
928,-2.9375,-24.6875,-7.1875,0.5239258,-1.257324,-0.1743164,-0.2661133,0.09228516,-0.1142578
932,69.6875,-61.875,-14.375,0.8457031,-0.8300781,-0.2285156,-0.2661133,0.08886719,-0.105957
936,91.1875,-76.4375,-30.4375,1.105469,-0.3134766,-0.1669922,-0.2651367,0.08496094,-0.1044922
940,69.5,-62.375,-50.875,1.349609,0.07470703,-0.1166992,-0.2651367,0.07763672,-0.09765625
944,19.25,-26.375,-59.6875,1.558594,0.2109375,0.05957031,-0.2651367,0.07128906,-0.08837891
948,-43.1875,27.1875,-53.6875,1.729004,0.1176758,0.1557617,-0.2626953,0.06494141,-0.08544922
952,-84.5625,78.5625,-55.25,1.670898,-0.04541016,0.06738281,-0.2592773,0.06103516,-0.08007813
956,-99.625,98.375,-66.4375,1.407715,-0.2163086,-0.09375,-0.2553711,0.05761719,-0.07861328
960,-87.8125,84.5625,-73.8125,1.260254,-0.4960938,-0.1552734,-0.2543945,0.05517578,-0.07763672
964,-53.1875,59.25,-87.875,1.260254,-0.550293,-0.112793,-0.2509766,0.04980469,-0.07617188
968,-30.8125,44.6875,-97.625,1.426758,-0.4257813,-0.01660156,-0.2470703,0.04394531,-0.07470703
972,-25,43.25,-106.9375,1.5625,-0.2900391,0.04052734,-0.2470703,0.04003906,-0.07080078
976,-31.125,52.25,-114,1.659668,-0.2202148,0.07910156,-0.2446289,0.03125,-0.06542969
980,-40.9375,61.5,-120.0625,1.674805,-0.2084961,0.04443359,-0.2446289,0.02490234,-0.0625
984,-48.625,68.5,-126.75,1.698242,-0.2626953,0.08642578,-0.2470703,0.01855469,-0.05957031
988,-52.1875,80,-134.4375,1.76416,-0.3442383,0.159668,-0.2460938,0.006347656,-0.05273438
992,-51.875,93.8125,-143.5,1.779785,-0.4140625,0.1943359,-0.2495117,-0.008300781,-0.04882813
996,-48.625,108.625,-153.3125,1.706055,-0.4960938,0.1557617,-0.2519531,-0.01708984,-0.05029297
1000,-42.375,110.625,-156.25,1.628418,-0.534668,0.1098633,-0.2553711,-0.03320313,-0.05029297
1004,-32.125,103.4375,-154.375,1.496582,-0.5424805,0.08642578,-0.2617188,-0.05175781,-0.05273438
1008,-17.5625,87.8125,-160.5625,1.527832,-0.5776367,0.1904297,-0.2617188,-0.06445313,-0.05712891
1012,-1,83.9375,-162.9375,1.632324,-0.6201172,0.2519531,-0.2661133,-0.08300781,-0.06396484
1016,11.8125,84.25,-165.1875,1.644043,-0.5,0.2133789,-0.2709961,-0.09960938,-0.07324219
1020,16.5625,83.0625,-173.9375,1.640137,-0.4179688,0.1557617,-0.2709961,-0.1142578,-0.07861328
1024,16.0625,85.75,-181,1.632324,-0.3793945,0.1020508,-0.2685547,-0.1293945,-0.09375
1028,7.4375,89.5,-183.5,1.554688,-0.3520508,0.105957,-0.2636719,-0.1430664,-0.105957
1032,2.5625,90.9375,-182.5,1.481445,-0.484375,0.1479492,-0.2578125,-0.1518555,-0.1157227
1036,4.625,93.4375,-180.75,1.407715,-0.5151367,0.1748047,-0.2470703,-0.1669922,-0.1289063
1041,8.8125,89.9375,-180.125,1.275879,-0.484375,0.1635742,-0.234375,-0.1767578,-0.137207
1045,14.1875,84.125,-176.625,1.171387,-0.484375,0.1674805,-0.2270508,-0.1821289,-0.144043
1049,20.625,76.5625,-174.25,1.132324,-0.4296875,0.2172852,-0.2114258,-0.1943359,-0.1484375
1053,22.1875,77.6875,-170.5,1.105469,-0.3676758,0.2250977,-0.2021484,-0.2080078,-0.1469727
1057,21.125,80.3125,-169.5625,1.101563,-0.324707,0.2250977,-0.1962891,-0.2128906,-0.1469727
1061,17,85.125,-166.1875,0.9775391,-0.2314453,0.2094727,-0.1855469,-0.2246094,-0.144043
1065,7.8125,85.8125,-159.5625,0.8652344,-0.2241211,0.1826172,-0.1782227,-0.2382813,-0.144043
1069,10.1875,78.8125,-154.125,0.7099609,-0.2666016,0.1635742,-0.1723633,-0.2456055,-0.1484375
1073,17.25,69.5,-145.75,0.690918,-0.2822266,0.2172852,-0.1625977,-0.2583008,-0.1508789
1077,23.125,67.6875,-140.5,0.6791992,-0.1889648,0.2441406,-0.1567383,-0.2695313,-0.1523438
1081,22.125,71.125,-136.375,0.5668945,-0.002441406,0.1787109,-0.1484375,-0.2783203,-0.1538086
1085,11.6875,69.8125,-130.0625,0.4931641,0.004882813,0.1557617,-0.1425781,-0.2895508,-0.1547852
1089,9.3125,63.25,-120.6875,0.3808594,0.01660156,0.1635742,-0.1367188,-0.2983398,-0.1616211
1093,8.25,59.25,-114.75,0.3886719,0.01269531,0.2480469,-0.1293945,-0.3041992,-0.1645508
1097,4.8125,64.5,-107.4375,0.3535156,0.01660156,0.2519531,-0.1210938,-0.3105469,-0.1713867
1101,-0.375,70.625,-95.8125,0.2490234,0.04003906,0.1943359,-0.112793,-0.3178711,-0.175293
1105,-5.25,70.25,-88.1875,0.1015625,0.07861328,0.1098633,-0.1079102,-0.3208008,-0.1796875
1109,-8.5625,60.875,-78.375,-0.09912109,0.09423828,0.03271484,-0.09863281,-0.3242188,-0.1850586
1113,-7.9375,47.875,-66.5625,-0.1225586,0.07861328,0.09423828,-0.09033203,-0.3256836,-0.1904297
1117,-5.25,35.6875,-52.25,-0.07226563,0.08251953,0.1713867,-0.08789063,-0.3266602,-0.1928711
1121,-1.3125,29.5,-43.25,-0.02978516,0.1445313,0.2519531,-0.08203125,-0.328125,-0.1972656
1125,5.625,26.4375,-38.1875,-0.02587891,0.2226563,0.2480469,-0.07958984,-0.3305664,-0.2011719
1129,5.625,18.625,-33.875,-0.07617188,0.2885742,0.2329102,-0.07470703,-0.328125,-0.2011719
1133,2.3125,13.9375,-26.75,-0.03710938,0.2924805,0.2709961,-0.07324219,-0.3305664,-0.2026367
1137,-2.4375,12.625,-17.75,-0.02978516,0.3081055,0.2983398,-0.07128906,-0.3330078,-0.2026367
1141,-6.5,12,-7.6875,-0.01806641,0.2924805,0.3364258,-0.06884766,-0.3344727,-0.2041016
1145,-6.1875,10.5625,0.25,-0.04882813,0.3505859,0.3251953,-0.06884766,-0.3330078,-0.2055664
1149,-6.5,4.4375,6,-0.02587891,0.3662109,0.3173828,-0.06738281,-0.3330078,-0.2026367
1153,-5.0625,-1.8125,9.8125,0.01269531,0.3896484,0.3364258,-0.06738281,-0.3344727,-0.206543
1157,-7,-4.25,12.6875,0.02050781,0.4086914,0.355957,-0.06640625,-0.3330078,-0.206543
1161,-7.3125,-6,18,0.07470703,0.3935547,0.375,-0.06738281,-0.3305664,-0.2055664
1165,-7.4375,-10.0625,22.4375,0.0009765625,0.4204102,0.3442383,-0.07128906,-0.3291016,-0.2055664
1170,-6.8125,-19.6875,31,0.07470703,0.3779297,0.3520508,-0.07226563,-0.3291016,-0.2055664
1174,-2.8125,-24.375,34.8125,0.1328125,0.3857422,0.390625,-0.07470703,-0.3266602,-0.2011719
1178,-2.1875,-26.5,36.9375,0.1948242,0.4360352,0.3945313,-0.07958984,-0.3242188,-0.2026367
1182,-4.6875,-25.75,37.75,0.1674805,0.4711914,0.3867188,-0.08203125,-0.3242188,-0.2026367
1186,-8.3125,-29.3125,41.5,0.1831055,0.4243164,0.3945313,-0.08642578,-0.3242188,-0.1987305
1190,-9.3125,-32.375,46.875,0.2216797,0.3740234,0.425293,-0.09033203,-0.3208008,-0.1987305
1194,-9.25,-32,50.625,0.2993164,0.284668,0.4829102,-0.09375,-0.3168945,-0.1958008
1198,-5.3125,-30.4375,54,0.2646484,0.2768555,0.425293,-0.09863281,-0.3144531,-0.1943359
1202,-4.625,-32,58.875,0.3149414,0.3120117,0.4057617,-0.1010742,-0.3120117,-0.1918945
1206,-9.625,-27.625,63.4375,0.3266602,0.3662109,0.3330078,-0.1054688,-0.3095703,-0.1875
1210,-18.875,-30.5,69.3125,0.2685547,0.3818359,0.2749023,-0.112793,-0.3056641,-0.1875
1214,-22.8125,-43,73.125,0.2724609,0.2924805,0.3017578,-0.1137695,-0.3017578,-0.1850586
1218,-17.0625,-53.5625,76.6875,0.3925781,0.1367188,0.425293,-0.1201172,-0.296875,-0.1835938
1222,-6.125,-53.4375,78.875,0.5048828,0.06298828,0.4907227,-0.1245117,-0.2895508,-0.1806641
1226,0.1875,-45.5625,83.875,0.5200195,0.1254883,0.4018555,-0.1303711,-0.2895508,-0.1782227
1230,-4.125,-46.25,90.875,0.4775391,0.2109375,0.2636719,-0.1342773,-0.2817383,-0.1713867
1234,-11.3125,-56.25,97.5,0.4428711,0.2807617,0.2021484,-0.1391602,-0.2768555,-0.1713867
1238,-17.25,-66.5625,103.375,0.559082,0.1875,0.3017578,-0.1450195,-0.2695313,-0.1699219
1242,-16.1875,-68.375,105.5625,0.7060547,0.1445313,0.4672852,-0.1508789,-0.2631836,-0.1660156
1246,-14.875,-57.4375,107.0625,0.8574219,-0.04882813,0.5214844,-0.1582031,-0.2529297,-0.1645508
1250,-2.9375,-53.375,109.625,0.7836914,-0.006347656,0.3637695,-0.1625977,-0.2456055,-0.1630859
1254,2.0625,-62.125,106.625,0.7412109,0.1601563,0.2866211,-0.1665039,-0.2368164,-0.1630859
1258,-2.9375,-65.6875,111.0625,0.7529297,0.1137695,0.2250977,-0.1733398,-0.2304688,-0.1591797
1262,-9.1875,-73.75,116,0.8339844,0.08642578,0.2749023,-0.1772461,-0.2246094,-0.1606445
1266,-11.75,-73.8125,122.375,0.9501953,-0.03369141,0.3251953,-0.1855469,-0.2182617,-0.1577148
1270,-12.75,-66.1875,123.5,1.09375,-0.03369141,0.4135742,-0.1938477,-0.2070313,-0.1591797
1274,-15.5625,-54.8125,127.5625,1.078125,-0.1074219,0.3017578,-0.1972656,-0.2070313,-0.15625
1278,-6.9375,-66.9375,129,0.9038086,-0.02587891,0.1787109,-0.206543,-0.1967773,-0.1577148
1282,-1.5,-85.5,121.3125,1.035645,-0.05664063,0.2133789,-0.215332,-0.1879883,-0.1523438
1286,3.75,-89.25,119.125,1.066406,-0.1733398,0.2519531,-0.222168,-0.1855469,-0.1484375
1290,3.3125,-81.8125,126.125,1.217773,-0.2509766,0.3637695,-0.2319336,-0.1791992,-0.1416016
1294,2.3125,-75.8125,136.5625,1.225586,-0.2006836,0.3212891,-0.2402344,-0.1704102,-0.1318359
1299,3.125,-75.3125,136.1875,1.202148,-0.1616211,0.2329102,-0.2485352,-0.1621094,-0.1279297
1303,5.5,-80,127.375,1.260254,-0.2045898,0.2597656,-0.2543945,-0.1557617,-0.1166992
1307,5.3125,-71.0625,123.0625,1.268066,-0.2783203,0.3134766,-0.2592773,-0.1455078,-0.105957
1311,-4,-59.125,129.125,1.233398,-0.3598633,0.3867188,-0.2626953,-0.1367188,-0.1005859
1315,-1.375,-57.3125,140.1875,1.066406,-0.4921875,0.2905273,-0.2636719,-0.1254883,-0.09082031
1319,19.4375,-82.625,139.0625,0.9311523,-0.5385742,0.159668,-0.2636719,-0.1142578,-0.08154297
1323,42.125,-99.375,130.375,1.186523,-0.550293,0.2636719,-0.2636719,-0.1044922,-0.07470703
1327,59.125,-99.4375,128.625,1.399902,-0.6201172,0.2480469,-0.2626953,-0.09326172,-0.06542969
1331,63.1875,-87.375,130.6875,1.481445,-0.6005859,0.2094727,-0.2617188,-0.07714844,-0.05566406
1335,60.3125,-80.875,133.5625,1.399902,-0.421875,0.1171875,-0.2592773,-0.07177734,-0.04736328
1339,50.6875,-75.1875,133.4375,1.376465,-0.4648438,0.08642578,-0.2578125,-0.05322266,-0.04492188
1343,48.6875,-74.625,135.3125,1.353516,-0.6318359,0.09033203,-0.253418,-0.04052734,-0.04052734
1347,76.375,-83.5625,147.9375,1.318359,-0.6669922,-0.08203125,-0.2495117,-0.02929688,-0.04199219
1351,100.1875,-102.125,128.75,1.415527,-0.2900391,-0.1323242,-0.2470703,-0.01464844,-0.04345703
1355,98,-101.625,118.875,1.5625,-0.1577148,-0.1323242,-0.2436523,-0.003417969,-0.04638672
1359,74,-81.4375,109,1.566406,-0.1230469,-0.09375,-0.2446289,0.004882813,-0.04882813
1363,46.125,-57.625,105.75,1.477539,-0.3208008,-0.001464844,-0.2446289,0.01123047,-0.05273438
1367,30.25,-35.9375,113.125,1.415527,-0.5698242,0.02490234,-0.2460938,0.01855469,-0.05859375
1371,33.875,-23.1875,112.25,1.322266,-0.5541992,-0.06298828,-0.2460938,0.02392578,-0.0625
1375,39.0625,-24.6875,101.875,1.13623,-0.4648438,-0.2592773,-0.2485352,0.03125,-0.06640625
1379,36.5,-35.25,99.375,1.078125,-0.4726563,-0.3325195,-0.2509766,0.03759766,-0.07177734
1383,33.9375,-47,99.5,0.9853516,-0.534668,-0.3862305,-0.2519531,0.04150391,-0.07617188
1387,42.25,-66,103.25,1.070313,-0.5581055,-0.3168945,-0.2568359,0.04882813,-0.07617188
1391,46.25,-61.9375,98,1.333984,-0.2822266,-0.2055664,-0.2617188,0.05761719,-0.07617188
1395,30.0625,-48.5625,87.9375,1.384277,-0.1420898,-0.1435547,-0.2636719,0.0625,-0.07861328
1399,7.8125,-33,83.875,1.442383,-0.1655273,-0.03222656,-0.2709961,0.06982422,-0.08154297
1403,-1.25,-20.875,73.3125,1.403809,-0.2939453,0.005859375,-0.2768555,0.07519531,-0.08691406
1407,-20,3.9375,93.25,2.314453,0.6499023,0.3095703,-0.2807617,0.07617188,-0.09082031
1411,-108.5,107.4375,20.875,2.783203,1.283203,0.2866211,-0.2841797,0.08007813,-0.09521484
1415,-123.5,148.4375,-35.3125,1.725586,0.07470703,-0.4169922,-0.2807617,0.08398438,-0.1044922
1419,-86.0625,106.6875,-33.5625,0.7797852,-0.581543,-0.4863281,-0.2758789,0.08398438,-0.1044922
1423,-65.5,44,-1.375,0.5317383,-0.6748047,-0.2978516,-0.2700195,0.08496094,-0.1044922
1428,-28.3125,-11.375,14.375,0.7875977,-0.7680664,-0.1474609,-0.2651367,0.08398438,-0.09765625
1432,12.9375,-34.9375,0.0625,1.155762,-0.5229492,-0.04003906,-0.2651367,0.08642578,-0.09667969
1436,38.3125,-39.25,-41.125,1.415527,-0.2202148,0.09033203,-0.2626953,0.08398438,-0.09082031
1440,38.75,-21.9375,-74.625,1.512207,-0.02587891,0.1132813,-0.2617188,0.07763672,-0.08300781
1444,10.6875,2.1875,-84.75,1.589844,0.0009765625,0.1674805,-0.2617188,0.07373047,-0.08300781
1448,-24.875,37.6875,-81,1.655762,-0.06445313,0.1713867,-0.2592773,0.06640625,-0.07861328
1452,-54.875,68.25,-76.3125,1.63623,-0.1230469,0.1289063,-0.2553711,0.06103516,-0.07617188
1456,-68.125,85.3125,-81.4375,1.670898,-0.2241211,0.105957,-0.2509766,0.05615234,-0.07763672
1460,-65.75,95.125,-95.125,1.620605,-0.3017578,0.04785156,-0.2485352,0.05126953,-0.07617188
1464,-56.125,88.125,-105.375,1.574219,-0.3637695,0.02490234,-0.2446289,0.04736328,-0.07617188
1468,-37,74.1875,-120.75,1.663574,-0.4140625,0.05957031,-0.2426758,0.04394531,-0.07177734
1472,-22.5625,71.875,-137.1875,1.794922,-0.3442383,0.1367188,-0.2402344,0.03369141,-0.06787109
1476,-25.875,81.9375,-146.125,1.880371,-0.2744141,0.1557617,-0.2402344,0.02246094,-0.06542969
1480,-38.5625,99.75,-150.1875,1.888184,-0.3095703,0.1289063,-0.2402344,0.01513672,-0.05712891
1484,-45.5625,111,-157.125,1.826172,-0.4296875,0.1020508,-0.2412109,-0.0004882813,-0.05175781
1488,-40.375,115.3125,-164.3125,1.756348,-0.5463867,0.05957031,-0.2470703,-0.01806641,-0.04882813
1492,-31.1875,111.375,-174.4375,1.678711,-0.6240234,0.06347656,-0.2495117,-0.02929688,-0.04199219
1496,-19.3125,106.375,-179.5,1.63623,-0.6899414,0.09423828,-0.2592773,-0.05175781,-0.04736328
1500,-8.875,105.25,-183.0625,1.624512,-0.6708984,0.09814453,-0.2651367,-0.07568359,-0.05419922
1504,-3.8125,102.75,-181.6875,1.535645,-0.6748047,0.1210938,-0.2675781,-0.08544922,-0.0625
1508,2.5625,98.1875,-179.125,1.492676,-0.6474609,0.125,-0.2724609,-0.1054688,-0.07763672
1512,11.4375,87,-179.3125,1.403809,-0.6435547,0.1557617,-0.2734375,-0.1220703,-0.08984375
1516,19.75,82.75,-181.4375,1.508301,-0.6552734,0.2558594,-0.2709961,-0.1333008,-0.1020508
1520,24.75,89.75,-181.875,1.500488,-0.6162109,0.2788086,-0.2651367,-0.1479492,-0.1181641
1524,23.25,96.375,-178.9375,1.357422,-0.5966797,0.2211914,-0.2543945,-0.1606445,-0.1318359
1528,23.1875,93.375,-173.75,1.22168,-0.5541992,0.1787109,-0.2436523,-0.1679688,-0.1401367
1532,27.8125,84.75,-168.4375,1.113281,-0.5776367,0.1865234,-0.2270508,-0.1782227,-0.1484375
1536,35.8125,80.25,-167.3125,1.078125,-0.519043,0.2060547,-0.215332,-0.1870117,-0.1523438
1540,35.5625,81.8125,-165.875,1.05127,-0.4140625,0.2788086,-0.206543,-0.1967773,-0.1494141
1544,32.3125,85.9375,-161.625,0.9272461,-0.387207,0.2094727,-0.1923828,-0.2055664,-0.1484375
1548,23.5625,90.5,-157.5,0.9423828,-0.371582,0.2368164,-0.184082,-0.2192383,-0.1455078
1552,16.5,95.9375,-150.25,0.8149414,-0.3520508,0.2133789,-0.1782227,-0.2255859,-0.144043
1557,10,103.5,-147.4375,0.6982422,-0.371582,0.1826172,-0.1708984,-0.2382813,-0.1425781
1561,10.75,101,-139.4375,0.4541016,-0.4335938,0.105957,-0.1625977,-0.2519531,-0.1469727
1565,15.75,90.875,-127.5625,0.3535156,-0.3911133,0.09033203,-0.1591797,-0.2558594,-0.1469727
1569,24.625,75.875,-111.1875,0.206543,-0.3325195,0.06738281,-0.1542969,-0.2670898,-0.1494141
1573,34.5,54.4375,-101.9375,0.140625,-0.1113281,0.07128906,-0.1474609,-0.2783203,-0.1508789
1577,37.5,38.875,-94.25,0.2333984,-0.04882813,0.1518555,-0.1450195,-0.2832031,-0.1547852
1581,35.4375,37.75,-88,0.3110352,0.04394531,0.2250977,-0.1411133,-0.2895508,-0.1538086
1585,30.4375,40.6875,-79.75,0.2216797,0.06689453,0.1748047,-0.1367188,-0.2993164,-0.15625
1589,25.75,36.3125,-72.5625,0.1210938,0.1254883,0.1020508,-0.1328125,-0.3066406,-0.1547852
1593,23.0625,27.5,-60.5625,0.06298828,0.1523438,0.105957,-0.1293945,-0.3120117,-0.15625
1597,21.0625,17.75,-50.0625,0.06298828,0.203125,0.1367188,-0.1235352,-0.3168945,-0.1606445
1601,18.4375,13.75,-42.75,0.1171875,0.1953125,0.2021484,-0.1210938,-0.3208008,-0.1606445
1605,17.6875,12.375,-37.5625,0.1445313,0.2456055,0.2250977,-0.1201172,-0.3242188,-0.1606445
1609,17.375,9.25,-32.9375,0.04345703,0.3120117,0.1826172,-0.1152344,-0.3291016,-0.1606445
1613,13.1875,1.6875,-23.9375,0.06298828,0.315918,0.1826172,-0.1162109,-0.328125,-0.1591797
1617,12.25,-3.6875,-19.8125,0.08251953,0.3427734,0.2368164,-0.1137695,-0.3320313,-0.1606445
1621,9.375,-5.25,-16.3125,0.1328125,0.3583984,0.2905273,-0.112793,-0.3330078,-0.1606445
1625,2.4375,3.6875,-7.3125,0.190918,0.3120117,0.3251953,-0.112793,-0.3344727,-0.1606445
1629,-4.25,8.125,-0.25,0.07080078,0.3583984,0.2441406,-0.112793,-0.3344727,-0.1616211
1633,-6.3125,0.5,6.5,0.02832031,0.2885742,0.2060547,-0.112793,-0.3344727,-0.1591797
1637,-4.75,-7.8125,11.625,0.004882813,0.2612305,0.2021484,-0.1137695,-0.3305664,-0.1616211
1641,-0.125,-21.6875,22.875,0.01660156,0.1757813,0.2519531,-0.1162109,-0.3291016,-0.1616211
1645,7.4375,-27.4375,30.25,0.1289063,0.2265625,0.2944336,-0.1186523,-0.328125,-0.1577148
1649,6.4375,-30.6875,36.375,0.1445313,0.3349609,0.2749023,-0.1201172,-0.3256836,-0.15625
1653,0.8125,-32.125,43.0625,0.206543,0.3193359,0.2788086,-0.1220703,-0.3256836,-0.1523438
1657,-2.8125,-32.6875,47.125,0.2255859,0.3120117,0.3291016,-0.1269531,-0.3242188,-0.1494141
1661,-5.8125,-31.875,52.25,0.2724609,0.237793,0.3671875,-0.1259766,-0.3208008,-0.1455078
1665,-5,-31.75,58.75,0.2685547,0.1914063,0.3212891,-0.1318359,-0.3168945,-0.1425781
1669,-5.125,-34.3125,64.625,0.3071289,0.1875,0.3095703,-0.1342773,-0.3129883,-0.1386719
1673,-5.6875,-32.3125,69,0.3613281,0.1914063,0.2983398,-0.1367188,-0.3095703,-0.1357422
1677,-10.3125,-30.875,73.0625,0.2993164,0.1953125,0.2133789,-0.1411133,-0.3041992,-0.1357422
1681,-15.375,-38.75,83.1875,0.2836914,0.08642578,0.2060547,-0.1435547,-0.296875,-0.1333008
1686,-8.6875,-53.5625,96.625,0.3730469,-0.03759766,0.2675781,-0.1474609,-0.2895508,-0.1303711
1690,6,-62,102,0.559082,0.03613281,0.3017578,-0.1508789,-0.2807617,-0.1264648
1694,10.6875,-59.3125,101.625,0.6674805,0.1367188,0.3056641,-0.1557617,-0.2744141,-0.1225586
1698,5.25,-54.0625,104.5,0.6791992,0.1875,0.2368164,-0.1591797,-0.2641602,-0.1225586
1702,-3.75,-54.3125,109.5,0.659668,0.1523438,0.1982422,-0.1625977,-0.2568359,-0.1225586
1706,-10.4375,-56.6875,118.9375,0.7255859,0.02832031,0.2329102,-0.1674805,-0.2470703,-0.1235352
1710,-7.4375,-60.5625,123.375,0.8417969,0.04394531,0.3017578,-0.1699219,-0.2407227,-0.1235352
1714,-11.125,-53.625,126.5,0.9423828,0.008789063,0.340332,-0.1772461,-0.2294922,-0.1264648
1718,-11.3125,-48.5625,128.6875,0.9350586,-0.05273438,0.3212891,-0.1831055,-0.2216797,-0.1303711
1722,1.625,-60.5625,135.5,0.8803711,-0.04150391,0.2636719,-0.1875,-0.2192383,-0.1333008
1726,9.8125,-65.75,127.5625,1.171387,0.07080078,0.3710938,-0.199707,-0.2128906,-0.1347656
1730,-0.5,-44.625,126.4375,1.252441,0.1333008,0.3867188,-0.2104492,-0.2070313,-0.1347656
1734,-36,-20.5625,135.625,1.29541,0.02832031,0.4633789,-0.21875,-0.2045898,-0.1357422
1738,-38.75,-21.0625,151.125,1.047363,-0.1308594,0.3134766,-0.2294922,-0.1958008,-0.1347656
1742,-24.0625,-36.9375,146.8125,1.097656,-0.2509766,0.3173828,-0.2446289,-0.1870117,-0.1303711
1746,1.1875,-48.875,139.3125,1.198242,-0.1074219,0.2675781,-0.2519531,-0.1821289,-0.125
1750,-6.1875,-40.75,130,1.372559,0.03613281,0.3173828,-0.2636719,-0.1733398,-0.1142578
1754,-32.625,-17.9375,128.5625,1.353516,-0.1191406,0.3251953,-0.2709961,-0.1669922,-0.1035156
1758,-37.125,-14.6875,139.625,1.105469,-0.2548828,0.2021484,-0.2744141,-0.1542969,-0.09765625
1762,-24.5,-44.1875,139.8125,0.9462891,-0.2275391,0.1020508,-0.2768555,-0.1420898,-0.08691406
1766,-3.9375,-71.4375,130.125,1.237305,-0.3173828,0.2402344,-0.2807617,-0.1293945,-0.07177734
1770,3.9375,-65.125,120.9375,1.43457,-0.2431641,0.3520508,-0.2792969,-0.1196289,-0.06396484
1774,-9.875,-41.625,121,1.504395,-0.2666016,0.4404297,-0.2744141,-0.1069336,-0.05712891
1778,-14.0625,-25.4375,126.5,1.271973,-0.2548828,0.2597656,-0.2700195,-0.09326172,-0.04882813
1782,-11.5625,-37,119.25,1.202148,-0.2314453,0.1943359,-0.2661133,-0.08300781,-0.04345703
1786,-5.0625,-47.8125,116.0625,1.252441,-0.324707,0.2250977,-0.2617188,-0.06835938,-0.04199219
1790,1.75,-51.4375,114.0625,1.357422,-0.3637695,0.2944336,-0.253418,-0.05175781,-0.04199219
1794,-2.0625,-38.125,106.625,1.469727,-0.2587891,0.3637695,-0.2509766,-0.04296875,-0.04052734
1798,-14.8125,-13.1875,107.8125,1.415527,-0.3325195,0.3251953,-0.2446289,-0.02929688,-0.04492188
1802,-17.8125,-16.375,105.9375,1.194336,-0.2431641,0.1904297,-0.2387695,-0.01318359,-0.05273438
1806,-17,-23.4375,103.3125,1.209961,-0.3950195,0.1943359,-0.2387695,-0.006835938,-0.05712891
1810,-4.8125,-35.75,98.125,1.101563,-0.519043,0.1826172,-0.234375,0.00390625,-0.06396484
1815,15.9375,-50.6875,95,1.155762,-0.5229492,0.1635742,-0.2304688,0.01269531,-0.07177734
1819,19.3125,-51.25,87.375,1.26416,-0.2900391,0.1865234,-0.2294922,0.02001953,-0.07763672
1823,3.75,-35.0625,86.75,1.310547,-0.3017578,0.2172852,-0.2280273,0.02734375,-0.08447266
1827,-10.125,-24.75,86.75,1.206055,-0.371582,0.1982422,-0.2280273,0.03271484,-0.09082031
1831,-9.75,-25.8125,87.25,1.02002,-0.4570313,0.1020508,-0.2294922,0.03515625,-0.09765625
1835,5.5625,-48,80.3125,0.9423828,-0.6318359,0.03662109,-0.2304688,0.04150391,-0.1020508
1839,36.75,-75.3125,72,0.8959961,-0.7094727,-0.009277344,-0.2304688,0.04492188,-0.1035156
1843,66.4375,-95.75,68,1.074219,-0.5698242,0.04443359,-0.234375,0.04638672,-0.1044922
1847,66.5625,-92.5,62.6875,1.237305,-0.2470703,0.1020508,-0.2387695,0.04736328,-0.1035156
1851,44.8125,-72.3125,59.375,1.291504,-0.1616211,0.140625,-0.2412109,0.05126953,-0.1035156
1855,29,-57.0625,55.5625,1.175293,-0.3208008,0.1171875,-0.2426758,0.05517578,-0.1005859
1859,25.5625,-54.625,54.375,1.043457,-0.4765625,0.09814453,-0.2460938,0.05615234,-0.1035156
1863,37.875,-55.3125,57.8125,1.147949,-0.5966797,0.1328125,-0.2495117,0.06005859,-0.1005859
1867,46.6875,-52.8125,50.25,1.159668,-0.3095703,0.08251953,-0.2509766,0.06396484,-0.1020508
1871,30.875,-45.3125,52.8125,1.085938,-0.2163086,-0.02441406,-0.2519531,0.06884766,-0.1020508
1875,10.1875,-48.9375,59.8125,0.9272461,-0.3833008,-0.09765625,-0.2553711,0.07617188,-0.1020508
1879,5.75,-59.5625,68.0625,0.8417969,-0.550293,-0.1630859,-0.2578125,0.08105469,-0.105957
1883,12.9375,-76.9375,75.125,0.9038086,-0.7446289,-0.109375,-0.2636719,0.08740234,-0.1044922
1887,39.1875,-74.375,68.5,1.275879,-0.5385742,-0.07470703,-0.2651367,0.09130859,-0.1044922
1891,47.6875,-57.3125,17.8125,1.291504,-0.1381836,-0.03222656,-0.2700195,0.09375,-0.1044922
1895,23.625,-33,-3.5625,1.260254,-0.01806641,0.01708984,-0.2744141,0.08984375,-0.1044922
1899,-18.6875,2.25,1,1.368652,-0.08007813,0.1865234,-0.2758789,0.08496094,-0.1035156
1903,-44.875,31.6875,-5.9375,1.055176,-0.4648438,0.05566406,-0.2744141,0.08496094,-0.1020508
1907,-40.6875,29.625,-6.5,0.8730469,-0.7016602,-0.03222656,-0.2734375,0.08496094,-0.09912109
1911,-31.6875,23.25,-8,0.8417969,-0.6748047,-0.001464844,-0.2709961,0.08398438,-0.09667969
1915,-23.3125,14.3125,-10.1875,0.8730469,-0.6977539,0.009765625,-0.2685547,0.08105469,-0.09521484
1919,-12.75,10.3125,-11.5,1.012207,-0.6435547,0.05175781,-0.2685547,0.08398438,-0.09375
1923,-1.125,9.5625,-22.3125,1.179199,-0.4921875,0.09033203,-0.2661133,0.08105469,-0.09228516
1927,5.5625,16.25,-32.6875,1.291504,-0.340332,0.06347656,-0.2626953,0.08007813,-0.08984375
1931,-0.3125,24.5625,-50.3125,1.368652,-0.1152344,0.01367188,-0.2592773,0.07617188,-0.08984375
1935,-19.875,33.5,-53.0625,1.42334,0.008789063,-0.04003906,-0.2578125,0.07373047,-0.08691406
1939,-41.4375,43.625,-59.75,1.477539,-0.05273438,-0.01660156,-0.2568359,0.06884766,-0.08300781
1944,-50.5625,53.9375,-68.3125,1.496582,-0.1928711,-0.001464844,-0.253418,0.06640625,-0.08154297
1948,-52.9375,57.5625,-77.5,1.454102,-0.2666016,-0.01318359,-0.2519531,0.06103516,-0.08007813
1952,-47.4375,52.125,-86.9375,1.481445,-0.3520508,0.001953125,-0.2485352,0.05859375,-0.08154297
1956,-39.625,51,-97.625,1.550781,-0.371582,0.04443359,-0.2470703,0.05517578,-0.07763672
1960,-35.0625,51.625,-110.75,1.558594,-0.340332,0.04443359,-0.2460938,0.04492188,-0.07470703
1964,-33.1875,52.1875,-119.8125,1.585938,-0.3989258,0.08251953,-0.2426758,0.04248047,-0.07324219
1968,-31.3125,54.4375,-128.4375,1.601563,-0.402832,0.1210938,-0.2412109,0.03613281,-0.06640625
1972,-30.75,61.75,-135.1875,1.655762,-0.4648438,0.1518555,-0.2412109,0.02636719,-0.06103516
1976,-29.5,70.75,-139.5625,1.674805,-0.4726563,0.1518555,-0.2426758,0.02148438,-0.05419922
1980,-29.9375,79.25,-146.4375,1.659668,-0.4921875,0.1557617,-0.2446289,0.006347656,-0.04736328
1984,-27.4375,87,-152.25,1.628418,-0.5073242,0.1171875,-0.2470703,-0.009277344,-0.03955078
1988,-24.1875,90.6875,-159.6875,1.608887,-0.519043,0.105957,-0.2509766,-0.02197266,-0.03662109
1992,-23.625,94,-165.6875,1.574219,-0.5385742,0.1020508,-0.2592773,-0.04052734,-0.03369141
1996,-22.8125,99.1875,-167.3125,1.554688,-0.6044922,0.1210938,-0.2661133,-0.06054688,-0.03808594
2000,-20.25,102.75,-165.375,1.46582,-0.5966797,0.1098633,-0.2709961,-0.07324219,-0.04199219
2004,-16.6875,101.8125,-164.4375,1.430664,-0.6044922,0.07910156,-0.2744141,-0.09179688,-0.05419922
2008,-11.3125,97,-165.875,1.361328,-0.5927734,0.07519531,-0.2792969,-0.1108398,-0.06933594
2012,-5.1875,91.8125,-166.125,1.299316,-0.5854492,0.105957,-0.2792969,-0.1196289,-0.08007813
2016,2.875,84.8125,-163.9375,1.237305,-0.5854492,0.140625,-0.2734375,-0.1342773,-0.09667969
2020,8.25,83.1875,-164,1.271973,-0.503418,0.1904297,-0.2685547,-0.1469727,-0.112793
2024,6.75,89,-161.75,1.22168,-0.46875,0.1674805,-0.2626953,-0.1518555,-0.1235352
2028,5.625,88,-158.5,1.113281,-0.4492188,0.1635742,-0.2509766,-0.1630859,-0.137207
2032,6.9375,84.5625,-154.375,1.016113,-0.4101563,0.1479492,-0.237793,-0.1694336,-0.1469727
2036,4.75,81.9375,-150.75,0.9619141,-0.4067383,0.1635742,-0.2270508,-0.1767578,-0.1469727
2040,4.8125,81.3125,-145.25,0.8999023,-0.402832,0.1865234,-0.2138672,-0.1855469,-0.1494141
2044,9.875,79.5625,-141.3125,0.7719727,-0.4101563,0.1713867,-0.2021484,-0.1958008,-0.1523438
2048,16.875,70.4375,-136.625,0.6210938,-0.3754883,0.1479492,-0.1948242,-0.2045898,-0.1484375
2052,22.6875,58.375,-129,0.5395508,-0.3793945,0.144043,-0.1875,-0.2119141,-0.1494141
2056,32.875,42.625,-121.25,0.4077148,-0.3754883,0.140625,-0.1831055,-0.2207031,-0.1455078
2060,48.5,21.25,-117,0.3378906,-0.3911133,0.1367188,-0.1772461,-0.2304688,-0.1425781
2064,61.125,9.1875,-109.375,0.3457031,-0.2861328,0.1557617,-0.1757813,-0.2407227,-0.1386719
2068,59.0625,5.0625,-97.1875,0.3378906,-0.1269531,0.1289063,-0.1708984,-0.2519531,-0.1318359
2073,48.25,6.6875,-87.3125,0.2875977,-0.01806641,0.07910156,-0.1723633,-0.2568359,-0.1289063
2077,39.0625,1.875,-77,0.1948242,-0.04541016,0.04785156,-0.1699219,-0.2670898,-0.1264648
2081,35.5625,-7.75,-65.4375,0.1289063,-0.01806641,0.04443359,-0.1674805,-0.2729492,-0.1235352
2085,34.25,-18.4375,-54.3125,0.1445313,-0.006347656,0.1098633,-0.1674805,-0.2768555,-0.1196289
2089,33.375,-20.875,-42.9375,0.2333984,0.08251953,0.1674805,-0.1674805,-0.2817383,-0.1196289
2093,29.0625,-17.5625,-37.1875,0.2529297,0.1835938,0.1748047,-0.1665039,-0.2856445,-0.1157227
2097,21.125,-14.3125,-31.5625,0.2333984,0.2299805,0.1826172,-0.1650391,-0.2866211,-0.1157227
2101,14.5625,-13.0625,-22.3125,0.2568359,0.2148438,0.2094727,-0.1650391,-0.2905273,-0.112793
2105,10.6875,-14.0625,-14.9375,0.2490234,0.2807617,0.2211914,-0.1640625,-0.2905273,-0.1113281
2109,6.3125,-15.3125,-7.8125,0.3188477,0.2612305,0.2675781,-0.1625977,-0.2944336,-0.1113281
2113,3.75,-11,-1,0.3652344,0.300293,0.3017578,-0.1650391,-0.2944336,-0.1098633
2117,-0.0625,-7.6875,4.4375,0.3730469,0.3193359,0.3095703,-0.1650391,-0.2944336,-0.1113281
2121,-2.0625,-6.25,10.4375,0.4038086,0.2963867,0.3364258,-0.1625977,-0.2954102,-0.1088867
2125,-2.0625,-3,15.875,0.4272461,0.3349609,0.3330078,-0.1650391,-0.2954102,-0.1088867
2129,-5.3125,-0.1875,20.9375,0.4580078,0.3662109,0.3173828,-0.1665039,-0.2929688,-0.1098633
2133,-9.75,1.25,23.5625,0.4116211,0.4125977,0.2905273,-0.1665039,-0.2895508,-0.1074219
2137,-13.4375,-2.875,26.0625,0.3925781,0.3388672,0.2558594,-0.1665039,-0.2880859,-0.1088867
2141,-10.625,-8.5625,30.5625,0.4155273,0.2573242,0.2905273,-0.168457,-0.2856445,-0.1088867
2145,-5.1875,-12.625,33.8125,0.4541016,0.2416992,0.3056641,-0.1699219,-0.2832031,-0.1113281
2149,-5.75,-9.8125,37.875,0.4814453,0.269043,0.3134766,-0.1708984,-0.2792969,-0.1098633
2153,-9.1875,-3.9375,41.875,0.4619141,0.2265625,0.2983398,-0.1708984,-0.2768555,-0.1088867
2157,-11.375,-5.5,51.4375,0.3535156,0.1796875,0.2329102,-0.1723633,-0.2729492,-0.1113281
2161,-5.875,-17.5,58.1875,0.3535156,0.140625,0.1674805,-0.1757813,-0.265625,-0.1098633
2165,1.375,-30.3125,59.75,0.4233398,0.1523438,0.1787109,-0.1772461,-0.2617188,-0.1098633
2169,-0.125,-33,62.5625,0.5395508,0.1484375,0.2368164,-0.1757813,-0.2607422,-0.1088867
2173,-3.25,-27.4375,70.875,0.5668945,0.05517578,0.2597656,-0.1806641,-0.2543945,-0.1088867
2177,-6.8125,-26.6875,79.125,0.5820313,0.05908203,0.2983398,-0.1831055,-0.2470703,-0.1088867
2181,-3.125,-25.6875,85.875,0.6015625,-0.01806641,0.2675781,-0.1831055,-0.2456055,-0.1098633
2185,4.5625,-30.6875,90.6875,0.5976563,0.02832031,0.2021484,-0.1865234,-0.2382813,-0.1113281
2189,7,-37.5625,89.875,0.6479492,0.07861328,0.1518555,-0.1914063,-0.2304688,-0.1113281
2193,0.875,-37.8125,94.4375,0.7255859,0.07861328,0.1943359,-0.1938477,-0.2270508,-0.1113281
2197,-13.875,-27.9375,103.25,0.8032227,0.01660156,0.2250977,-0.199707,-0.2216797,-0.1142578
2202,-17,-28.8125,116.375,0.7412109,-0.1499023,0.1518555,-0.206543,-0.2143555,-0.1196289
2206,-2.5,-51.125,116.1875,0.7490234,-0.1074219,0.1479492,-0.2104492,-0.2080078,-0.1196289
2210,14.9375,-60.9375,110.4375,0.9580078,-0.1381836,0.2329102,-0.2197266,-0.2006836,-0.1196289
2214,17.6875,-55.8125,110.75,1.016113,-0.02587891,0.2519531,-0.2304688,-0.1967773,-0.1142578
2218,1.625,-41.25,114.125,1.121094,-0.02978516,0.2709961,-0.2353516,-0.1918945,-0.1157227
2222,-2.75,-35.0625,126.1875,0.9970703,-0.2124023,0.125,-0.2470703,-0.1870117,-0.1074219
2226,7.9375,-55.125,128.125,0.9658203,-0.1191406,0.04785156,-0.2578125,-0.1782227,-0.1035156
2230,19.3125,-69.25,122.4375,1.128418,-0.1420898,0.105957,-0.2651367,-0.1733398,-0.09521484
2234,24.125,-70.3125,119.125,1.252441,-0.05273438,0.1748047,-0.2724609,-0.1645508,-0.08154297
2238,11.4375,-52.6875,117.625,1.407715,-0.02587891,0.2788086,-0.2783203,-0.1557617,-0.06787109
2242,-7.75,-26.4375,121.875,1.411621,-0.1308594,0.2558594,-0.2792969,-0.1518555,-0.06103516
2246,-10.8125,-19.25,128.6875,1.213867,-0.2241211,0.07910156,-0.2792969,-0.140625,-0.05273438
2250,-4.9375,-33,116.6875,1.209961,-0.1191406,0.07910156,-0.2817383,-0.1254883,-0.04492188
2254,-5.4375,-33.0625,113.25,1.299316,-0.2241211,0.1171875,-0.2792969,-0.1181641,-0.03515625
2258,-13,-23.4375,115,1.333984,-0.2124023,0.1943359,-0.2768555,-0.109375,-0.03271484
2262,-30.1875,-4.375,115.0625,1.322266,-0.1850586,0.1826172,-0.2709961,-0.09570313,-0.02832031
2266,-43.9375,3.1875,118.75,1.19043,-0.3676758,0.105957,-0.2700195,-0.08544922,-0.03125
2270,-37.875,-11,120.75,1.13623,-0.3793945,0.08642578,-0.2651367,-0.07177734,-0.03125
2274,-25.9375,-23.5,108.75,1.147949,-0.4414063,0.1328125,-0.2602539,-0.05712891,-0.02978516
2278,-11.0625,-37.875,105.8125,1.124512,-0.519043,0.1557617,-0.2578125,-0.04589844,-0.03515625
2282,4.25,-44.125,103.1875,1.229492,-0.4375,0.1865234,-0.2543945,-0.03320313,-0.03515625
2286,2.125,-34.6875,95.5,1.306641,-0.2744141,0.2021484,-0.2485352,-0.02050781,-0.03955078
2290,-12.25,-14.75,94.1875,1.341797,-0.3754883,0.2172852,-0.2460938,-0.01171875,-0.04345703
2294,-17.5,-10.0625,99.625,1.209961,-0.3598633,0.1098633,-0.2426758,-0.0004882813,-0.05029297
2298,-21.0625,-12.625,92.6875,1.213867,-0.3754883,0.144043,-0.2402344,0.006347656,-0.05859375
2302,-22.25,-10.6875,90.375,1.163574,-0.453125,0.125,-0.237793,0.01367188,-0.05957031
2306,-15.875,-15.8125,91.5625,1.140137,-0.4882813,0.1171875,-0.2363281,0.02001953,-0.07080078
2310,-10,-19.4375,83.375,1.144043,-0.3364258,0.07519531,-0.2363281,0.02880859,-0.07470703
2314,-16.375,-15.5625,73.6875,1.175293,-0.3364258,0.07910156,-0.2353516,0.03271484,-0.07763672
2318,-29.5,-3.25,72.5,1.194336,-0.3134766,0.05566406,-0.2329102,0.03613281,-0.08447266
2322,-53,11.3125,77.4375,1.194336,-0.1694336,-0.02050781,-0.234375,0.04248047,-0.08837891
2326,-86.3125,18.5625,77,1.159668,-0.1499023,-0.04394531,-0.234375,0.04882813,-0.09228516
2331,-108.0625,16.875,69.4375,1.113281,-0.3793945,0.04052734,-0.234375,0.05371094,-0.09521484
2335,-93.75,1.3125,58.1875,1.016113,-0.7407227,0.1479492,-0.234375,0.06396484,-0.09667969
2339,-51.3125,-20.375,52.3125,0.9736328,-0.9155273,0.2558594,-0.2353516,0.06640625,-0.09521484
2343,-1.5625,-38.1875,46.125,1.000488,-0.9350586,0.2827148,-0.237793,0.07275391,-0.09765625
2347,38.1875,-52.4375,47.25,0.9892578,-0.7172852,0.09033203,-0.237793,0.07617188,-0.09912109
2351,63.0625,-76.9375,37.125,0.9272461,-0.4921875,-0.1166992,-0.2402344,0.07861328,-0.1020508
2355,75.625,-101.75,23.25,0.9892578,-0.421875,-0.1362305,-0.2446289,0.08251953,-0.1005859
2359,86.625,-111.5,15.125,1.09375,-0.5112305,-0.04003906,-0.2470703,0.08398438,-0.09912109
2363,91.9375,-106.3125,11.625,1.070313,-0.4648438,0.009765625,-0.2495117,0.08398438,-0.09667969
2367,89.25,-101.6875,13.5,0.9970703,-0.4492188,-0.01318359,-0.2568359,0.08642578,-0.09375
2371,86.4375,-95.1875,21.5625,1.13623,-0.4609375,0.009765625,-0.2617188,0.08740234,-0.09765625
2375,68.5625,-69.5625,25.1875,1.306641,-0.08789063,0.04443359,-0.2651367,0.08984375,-0.09375
2379,32.8125,-37.6875,15.5,1.364746,0.06298828,0.1020508,-0.2709961,0.09228516,-0.09765625
2383,-4.125,1.5,5.25,1.426758,0.03613281,0.1713867,-0.2709961,0.09521484,-0.09912109
2387,-24.5625,32.8125,-9.5625,1.22168,-0.2705078,0.09423828,-0.2700195,0.09375,-0.1005859
2391,-30.3125,43.8125,-7.6875,1.055176,-0.484375,0.03271484,-0.2675781,0.09521484,-0.09912109
2395,-21.9375,43.5,-9.3125,0.9272461,-0.5776367,-0.112793,-0.2651367,0.09228516,-0.09667969
2399,-6.5625,27.5625,-12.5,0.8920898,-0.534668,-0.1708984,-0.2636719,0.09375,-0.09765625
2403,4.0625,13.5625,-16.625,0.9931641,-0.371582,-0.1708984,-0.2617188,0.08984375,-0.09765625
2407,4.6875,9,-28.75,1.13623,-0.2275391,-0.112793,-0.2592773,0.08496094,-0.09667969
2411,-8.8125,19.4375,-38.5625,1.326172,-0.1499023,0.02099609,-0.2592773,0.08251953,-0.09667969
2415,-31.125,42.25,-40.9375,1.415527,-0.08789063,0.06738281,-0.2553711,0.07617188,-0.09375
2419,-53.625,61.3125,-43.5,1.388184,-0.1459961,0.1020508,-0.2519531,0.07128906,-0.09082031
2423,-60.875,72.0625,-46.9375,1.353516,-0.2900391,0.07519531,-0.2519531,0.06884766,-0.08984375
2427,-50,69.125,-56.4375,1.244629,-0.3676758,0.03271484,-0.2470703,0.0625,-0.09228516
2431,-30,52.1875,-67.5625,1.26416,-0.4067383,0.07910156,-0.2446289,0.06103516,-0.09082031
2435,-12.9375,44.1875,-80.75,1.419434,-0.3442383,0.1748047,-0.2436523,0.05517578,-0.08837891
2439,-9.875,48.0625,-88.625,1.546875,-0.2587891,0.2094727,-0.2412109,0.04980469,-0.08544922
2443,-15.75,57.875,-96.75,1.640137,-0.2241211,0.2402344,-0.2387695,0.04394531,-0.08154297
2447,-21.625,68.5,-104.3125,1.678711,-0.2705078,0.2480469,-0.2363281,0.03759766,-0.08007813
2451,-24.8125,79.25,-112.875,1.69043,-0.3676758,0.2402344,-0.2353516,0.03027344,-0.07470703
2455,-22.1875,87.5,-118.25,1.647949,-0.4140625,0.2094727,-0.2363281,0.02246094,-0.06933594
2460,-16.375,89.75,-125.8125,1.550781,-0.4570313,0.1713867,-0.2353516,0.01611328,-0.06396484
2464,-7.0625,86.625,-131.0625,1.527832,-0.4921875,0.1479492,-0.2402344,0.001464844,-0.05712891
2468,-0.0625,86.875,-140.5625,1.535645,-0.519043,0.1557617,-0.2446289,-0.01464844,-0.05273438
2472,3.8125,88,-145.125,1.516113,-0.519043,0.1479492,-0.2460938,-0.02441406,-0.05029297
2476,4.4375,90.0625,-148.3125,1.504395,-0.4921875,0.1479492,-0.2543945,-0.04589844,-0.05029297
2480,1.0625,94.1875,-148.625,1.477539,-0.4960938,0.1635742,-0.2602539,-0.06445313,-0.05419922
2484,-1.25,98.5,-147,1.442383,-0.550293,0.159668,-0.2651367,-0.07714844,-0.06103516
2488,1.6875,99.625,-148.3125,1.357422,-0.5268555,0.1479492,-0.2709961,-0.09423828,-0.06933594
2492,6.9375,92.5625,-149.875,1.252441,-0.5620117,0.1367188,-0.2724609,-0.109375,-0.08544922
2496,16.25,83.0625,-147.6875,1.217773,-0.5307617,0.159668,-0.2724609,-0.1206055,-0.09521484
2500,26.9375,67.5625,-149.625,1.124512,-0.4921875,0.1904297,-0.2709961,-0.1342773,-0.1098633
2504,38.8125,56.625,-152.1875,1.241211,-0.4765625,0.2675781,-0.2661133,-0.1445313,-0.125
2508,42.0625,54.4375,-151.9375,1.233398,-0.3676758,0.3095703,-0.2602539,-0.1542969,-0.1303711
2512,39.3125,57.5625,-148.5,1.26416,-0.3173828,0.3173828,-0.2485352,-0.1655273,-0.144043
2516,32.875,66,-147.75,1.256348,-0.2666016,0.3173828,-0.2353516,-0.1733398,-0.1494141
2520,24.125,75.3125,-146.9375,1.194336,-0.2202148,0.2983398,-0.2280273,-0.1767578,-0.1538086
2524,14.75,80.8125,-145.8125,1.074219,-0.2509766,0.2402344,-0.215332,-0.1870117,-0.1577148
2528,13.5625,77.375,-145.375,0.9311523,-0.340332,0.2133789,-0.2021484,-0.1943359,-0.15625
2532,20.5625,67.625,-143.375,0.7797852,-0.3173828,0.1943359,-0.1948242,-0.1982422,-0.1577148
2536,21.6875,61.25,-139.625,0.7529297,-0.3095703,0.2329102,-0.184082,-0.2080078,-0.1523438
2540,17.8125,66.375,-131.625,0.7836914,-0.2861328,0.2597656,-0.1757813,-0.2182617,-0.1494141
2544,6.125,85.1875,-125.875,0.7758789,-0.1694336,0.2597656,-0.1723633,-0.2255859,-0.1494141
2548,-15.4375,106.4375,-117.5,0.6401367,-0.1616211,0.2021484,-0.1665039,-0.234375,-0.1508789
2552,-28.6875,119.4375,-102.25,0.4389648,-0.1538086,0.06347656,-0.1591797,-0.2407227,-0.1547852
2556,-35.9375,111.3125,-85.1875,0.1987305,-0.1655273,-0.04394531,-0.1542969,-0.2456055,-0.1577148
2560,-28.375,83.9375,-71.9375,0.07861328,-0.2045898,-0.03613281,-0.1484375,-0.2529297,-0.1660156
2564,-7,55.6875,-64.5,0.125,-0.2353516,0.06738281,-0.1459961,-0.2568359,-0.1728516
2568,16.5625,37.125,-62.0625,0.2216797,-0.1230469,0.1904297,-0.1425781,-0.2641602,-0.1738281
2572,24.6875,33.0625,-59.4375,0.2451172,0.105957,0.2368164,-0.1391602,-0.2680664,-0.175293
2576,20.75,27.125,-52.9375,0.2255859,0.2070313,0.2441406,-0.1367188,-0.2744141,-0.1738281
2580,12.5,20.625,-43.8125,0.206543,0.2651367,0.2636719,-0.1352539,-0.2783203,-0.175293
2584,5.3125,12.5,-34.25,0.2568359,0.269043,0.3212891,-0.1328125,-0.2817383,-0.1767578
2589,2.625,9.25,-28.875,0.3188477,0.2768555,0.4174805,-0.1318359,-0.2841797,-0.1796875
2593,2.8125,10.375,-27.875,0.3613281,0.2963867,0.4711914,-0.1328125,-0.2856445,-0.1796875
2597,2.1875,14.1875,-26.75,0.3691406,0.3232422,0.5097656,-0.1303711,-0.2895508,-0.1806641
2601,-1.75,21.9375,-25.3125,0.3457031,0.3232422,0.4907227,-0.128418,-0.2880859,-0.1806641
2605,-6.625,22.625,-17.625,0.2568359,0.237793,0.4560547,-0.1269531,-0.2895508,-0.1850586
2609,-2.75,18.6875,-9.75,0.2255859,0.2299805,0.4287109,-0.1259766,-0.2895508,-0.1875
2613,-1.5625,15.6875,-6,0.206543,0.2885742,0.4018555,-0.1259766,-0.2905273,-0.1865234
2617,-4.9375,13,-1.8125,0.2104492,0.2768555,0.3520508,-0.1235352,-0.2905273,-0.1889648
2621,-6.9375,10.1875,5.875,0.1557617,0.2416992,0.3095703,-0.1220703,-0.2905273,-0.1889648
2625,-6.25,-0.125,10.25,0.07861328,0.2495117,0.2675781,-0.1245117,-0.2895508,-0.1904297
2629,-3,-11.0625,17.25,0.1054688,0.1796875,0.2519531,-0.1220703,-0.2905273,-0.1889648
2633,1.3125,-18.3125,19.5,0.1445313,0.1796875,0.2558594,-0.1245117,-0.2905273,-0.1865234
2637,4.8125,-25.125,24.8125,0.1870117,0.171875,0.2597656,-0.1269531,-0.2866211,-0.1865234
2641,2.625,-27.5625,28.125,0.2026367,0.2612305,0.2597656,-0.1269531,-0.2866211,-0.1835938
2645,-5.75,-31.6875,34.375,0.2026367,0.2573242,0.2480469,-0.1293945,-0.2856445,-0.1806641
2649,-9.4375,-37.3125,38.8125,0.2568359,0.1640625,0.2944336,-0.1328125,-0.2817383,-0.1796875
2653,-8.375,-40.4375,46.3125,0.2758789,0.121582,0.3134766,-0.1342773,-0.2783203,-0.1796875
2657,-9.875,-43.4375,56.3125,0.3227539,0.121582,0.3251953,-0.1376953,-0.2744141,-0.175293
2661,-9.5625,-47.75,63.875,0.3691406,0.1020508,0.340332,-0.1411133,-0.2705078,-0.1738281
2665,-6.5,-53.8125,68,0.4077148,0.08642578,0.3442383,-0.1450195,-0.2617188,-0.1699219
2669,2.9375,-60.4375,72.4375,0.4736328,0.04394531,0.355957,-0.1484375,-0.2583008,-0.1674805
2673,7.4375,-74.3125,83.5,0.4389648,0.06298828,0.3671875,-0.1518555,-0.2519531,-0.1660156
2677,4.9375,-84.375,102,0.5976563,0.04394531,0.4326172,-0.1567383,-0.2470703,-0.1630859
2681,10.8125,-77,108.625,0.7412109,0.01660156,0.5097656,-0.1601563,-0.2368164,-0.1591797
2685,19.5625,-68.125,106.75,0.8261719,0.07470703,0.4868164,-0.168457,-0.2304688,-0.15625
2689,23.875,-61.3125,101.8125,0.8300781,0.1640625,0.4633789,-0.1708984,-0.2270508,-0.1538086
2693,12.3125,-54.5625,103.4375,0.8496094,0.1992188,0.4868164,-0.1757813,-0.2207031,-0.1523438
2697,4,-47.75,112.6875,0.8769531,0.121582,0.4560547,-0.1816406,-0.2119141,-0.1523438
2701,-2,-43.0625,113,0.8730469,0.05517578,0.4174805,-0.1831055,-0.2080078,-0.1523438
2705,-0.8125,-48.4375,116.125,0.8032227,0.02441406,0.3364258,-0.1899414,-0.2016602,-0.1523438
2709,3.875,-51.9375,112.25,0.8417969,-0.02978516,0.3364258,-0.1972656,-0.1943359,-0.1547852
2713,4.1875,-53.25,109.5625,0.9155273,-0.01416016,0.3173828,-0.2045898,-0.1894531,-0.1547852
2718,2.5625,-48.375,110.5,0.9892578,-0.06835938,0.3481445,-0.2114258,-0.1831055,-0.1577148
2722,1.0625,-47.75,110.8125,0.9658203,-0.01416016,0.2983398,-0.2197266,-0.1782227,-0.1547852
2726,-3.375,-50.125,109,0.9697266,-0.002441406,0.2983398,-0.2270508,-0.1733398,-0.1547852
2730,-7.8125,-49.6875,109.25,0.9658203,-0.03369141,0.3134766,-0.2387695,-0.1669922,-0.1508789
2734,-13.3125,-51.3125,106.125,0.9892578,-0.1074219,0.3173828,-0.2509766,-0.1621094,-0.144043
2738,-9.875,-49.625,109.9375,0.9658203,-0.355957,0.3056641,-0.2568359,-0.1557617,-0.1416016
2742,5.8125,-62.4375,110.0625,0.9775391,-0.3095703,0.2636719,-0.2661133,-0.1494141,-0.1303711
2746,11.5,-68.6875,106.3125,1.13623,-0.2431641,0.3095703,-0.2724609,-0.1445313,-0.1166992
2750,7.6875,-59.875,102.75,1.186523,-0.1191406,0.340332,-0.2783203,-0.140625,-0.1044922
2754,-11.5,-41.4375,102.9375,1.182617,-0.1811523,0.3442383,-0.2817383,-0.1308594,-0.09521484
2758,-23.3125,-24.8125,113.5625,1.066406,-0.4765625,0.2983398,-0.2827148,-0.1230469,-0.08447266
2762,-9.375,-41,117,0.9775391,-0.4570313,0.1787109,-0.2827148,-0.1157227,-0.07470703
2766,5.875,-54.5625,111.3125,1.144043,-0.355957,0.2133789,-0.2807617,-0.1054688,-0.06396484
2770,7.8125,-57.75,108,1.175293,-0.2548828,0.2021484,-0.2783203,-0.09423828,-0.05273438
2774,-0.875,-53.4375,106.5625,1.202148,-0.2587891,0.2329102,-0.2768555,-0.08544922,-0.04736328
2778,-10.1875,-44.75,106.0625,1.179199,-0.4179688,0.2558594,-0.2700195,-0.07177734,-0.03955078
2782,-1.8125,-40.875,115.0625,1.043457,-0.6435547,0.1557617,-0.2626953,-0.05810547,-0.03662109
2786,19.3125,-68.6875,108.6875,1.035645,-0.4375,0.07519531,-0.2592773,-0.04443359,-0.03515625
2790,34.3125,-80.5625,97.8125,1.279785,-0.4140625,0.1479492,-0.2519531,-0.03320313,-0.03125
2794,35.0625,-77.875,92.125,1.314453,-0.2744141,0.1518555,-0.2446289,-0.01708984,-0.03369141
2798,21.375,-67.1875,87.375,1.29541,-0.2666016,0.159668,-0.2426758,-0.008300781,-0.03662109
2802,7.875,-54.875,85.875,1.229492,-0.4414063,0.1635742,-0.237793,0.002441406,-0.04345703
2806,1.9375,-42.1875,93.0625,1.19043,-0.7133789,0.1635742,-0.2329102,0.01123047,-0.05029297
2810,17.625,-47.4375,99.8125,1.097656,-0.6938477,0.06738281,-0.2304688,0.01855469,-0.05712891
2814,31.125,-57.9375,89.6875,1.144043,-0.6240234,0.04443359,-0.2294922,0.02734375,-0.06542969
2818,39.25,-59.375,82.9375,1.159668,-0.6162109,0.02490234,-0.2294922,0.03271484,-0.07470703
2822,44.0625,-60.9375,74.5625,1.0625,-0.6044922,-0.02050781,-0.2304688,0.03271484,-0.07763672
2826,50.4375,-67.8125,65,0.9775391,-0.6630859,-0.02832031,-0.2329102,0.03515625,-0.08447266
2830,66.6875,-71,72.9375,1.124512,-0.7016602,-0.02832031,-0.2363281,0.03759766,-0.08837891
2834,69.8125,-61.375,69.3125,1.283691,-0.3134766,-0.04736328,-0.2387695,0.03857422,-0.08691406
2838,51.1875,-48.25,66.125,1.29541,-0.1269531,-0.1015625,-0.2426758,0.04150391,-0.08984375
2842,17.6875,-35.375,66.4375,1.299316,-0.01416016,-0.04736328,-0.2436523,0.04638672,-0.09375
2847,-11,-21.3125,63.25,1.283691,-0.1191406,-0.001464844,-0.2485352,0.04980469,-0.09667969
2851,-17.5625,-15.375,55.0625,1.225586,-0.3017578,0.03662109,-0.2509766,0.05859375,-0.09912109
2855,-2.8125,-20.25,43.8125,1.147949,-0.4067383,0.001953125,-0.2543945,0.06494141,-0.1020508
2859,17.8125,-34.5625,31.9375,1.117188,-0.3833008,-0.005371094,-0.2578125,0.06982422,-0.1088867
2863,25.4375,-41.9375,26.25,1.194336,-0.2861328,0.05175781,-0.2626953,0.07861328,-0.1166992
2867,18.5625,-33.8125,31.1875,1.461914,-0.1074219,0.1635742,-0.2724609,0.08007813,-0.1235352
2871,-55.9375,33.6875,58.4375,2.364746,0.9604492,0.6210938,-0.2768555,0.07861328,-0.1303711
2875,-120.0625,111.3125,20.3125,1.915039,0.4555664,0.2211914,-0.2744141,0.08251953,-0.1333008
2879,-106.125,99.0625,-14.6875,1.043457,-0.3208008,-0.1362305,-0.2700195,0.08496094,-0.1333008
2883,-66.25,50.9375,-28.4375,0.7490234,-0.6201172,-0.005371094,-0.2636719,0.08398438,-0.1289063
2887,-25.8125,16.25,-21.4375,0.7719727,-0.8261719,0.04052734,-0.2602539,0.07861328,-0.125
2891,3.5,-0.5,-17.1875,0.8535156,-0.6435547,0.1020508,-0.2602539,0.07861328,-0.1210938
2895,13.75,-7.125,-19.3125,1.004395,-0.4960938,0.1674805,-0.2568359,0.07617188,-0.1166992
2899,18.6875,-3.5625,-30.25,1.117188,-0.421875,0.1943359,-0.2568359,0.07128906,-0.112793
2903,21.4375,5.25,-40.8125,1.194336,-0.3754883,0.2133789,-0.2543945,0.06884766,-0.1088867
2907,13.5625,20.4375,-50.875,1.217773,-0.2822266,0.1865234,-0.2553711,0.06396484,-0.1088867
2911,1.5,33.8125,-51.5,1.213867,-0.2587891,0.1518555,-0.253418,0.05859375,-0.105957
2915,-10.4375,42.75,-53.4375,1.233398,-0.2163086,0.140625,-0.2509766,0.05273438,-0.1044922
2919,-19.375,47.5625,-57.9375,1.275879,-0.2006836,0.1289063,-0.2509766,0.04980469,-0.1044922
2923,-22.625,51.8125,-65,1.306641,-0.2124023,0.1479492,-0.2470703,0.04492188,-0.1044922
2927,-17.5625,49.125,-72.6875,1.330078,-0.1889648,0.105957,-0.2436523,0.04248047,-0.1044922
2931,-10.875,41,-86.8125,1.430664,-0.1230469,0.1289063,-0.2426758,0.03759766,-0.1044922
2935,-7.5625,38.5,-101.5,1.546875,-0.1230469,0.144043,-0.2412109,0.03271484,-0.1005859
2939,-9.8125,41.9375,-110.6875,1.655762,-0.03369141,0.1674805,-0.2387695,0.02636719,-0.09912109
2943,-20.4375,51.75,-116.375,1.740723,0.02050781,0.1787109,-0.237793,0.02001953,-0.09228516
2947,-30,59.75,-119.5625,1.752441,0.02441406,0.1674805,-0.2363281,0.01269531,-0.08691406
2951,-34.8125,62.4375,-131.0625,1.740723,0.02832031,0.144043,-0.2363281,0.004882813,-0.07861328
2955,-32.5,60.9375,-143.625,1.818359,-0.1074219,0.1943359,-0.237793,-0.004394531,-0.07080078
2959,-25.125,63.375,-156.9375,1.888184,-0.1655273,0.2368164,-0.2412109,-0.01708984,-0.06103516
2963,-23.8125,71.625,-169,1.895996,-0.2163086,0.2558594,-0.2446289,-0.03955078,-0.05419922
2967,-21.75,78.9375,-173.5,1.826172,-0.3056641,0.2480469,-0.2495117,-0.05175781,-0.05175781
2971,-6.625,72.9375,-176.125,1.666992,-0.453125,0.2060547,-0.2568359,-0.07324219,-0.05273438
2976,22.4375,53.75,-187.1875,1.63623,-0.4335938,0.1713867,-0.2602539,-0.09814453,-0.05859375
2980,39.1875,40.5,-203.3125,1.752441,-0.4101563,0.1982422,-0.2636719,-0.109375,-0.06396484
2984,37.125,44.75,-211.875,1.787598,-0.3793945,0.2211914,-0.2636719,-0.1333008,-0.07080078
2988,19.4375,57.75,-208.5625,1.698242,-0.3833008,0.1904297,-0.2651367,-0.1533203,-0.08447266
2992,0.8125,69.375,-200.5,1.570313,-0.4726563,0.159668,-0.2602539,-0.1630859,-0.09667969
2996,-1.5,69.8125,-190.9375,1.341797,-0.5151367,0.105957,-0.2519531,-0.1791992,-0.112793
3000,2.625,57.0625,-189.625,1.26416,-0.5229492,0.140625,-0.2402344,-0.1904297,-0.1264648
3004,9.4375,51.25,-190.1875,1.248535,-0.503418,0.2172852,-0.2294922,-0.1992188,-0.1289063
3008,5.9375,58.0625,-187.4375,1.260254,-0.453125,0.2749023,-0.2163086,-0.2080078,-0.1347656
3012,-4.3125,69.5,-180.75,1.163574,-0.4101563,0.2749023,-0.2006836,-0.2167969,-0.1386719
3016,-9.8125,79.9375,-168.4375,0.9892578,-0.4179688,0.2441406,-0.1914063,-0.2246094,-0.1401367
3020,-11.875,79.5,-159.8125,0.8730469,-0.421875,0.2368164,-0.1791992,-0.2319336,-0.1401367
3024,-6.625,76.875,-149.5625,0.7412109,-0.421875,0.2290039,-0.168457,-0.2407227,-0.1401367
3028,0.1875,72.875,-143.625,0.7021484,-0.4067383,0.2480469,-0.1625977,-0.2480469,-0.1416016
3032,2.5625,74.875,-134.1875,0.6210938,-0.340332,0.2441406,-0.1542969,-0.2583008,-0.1401367
3036,2.375,78.1875,-123.3125,0.5200195,-0.3095703,0.1904297,-0.1474609,-0.2680664,-0.1416016
3040,2.3125,77.125,-110.6875,0.3535156,-0.1850586,0.125,-0.1435547,-0.2744141,-0.1425781
3044,3.3125,64.125,-99.5625,0.2216797,-0.1616211,0.07519531,-0.1367188,-0.2807617,-0.1455078
3048,8.625,47.9375,-92.5,0.1791992,-0.07617188,0.09033203,-0.1318359,-0.2895508,-0.1484375
3052,11.9375,37.875,-85.75,0.2412109,-0.05664063,0.159668,-0.128418,-0.2919922,-0.1484375
3056,11.5,38,-76.1875,0.2646484,-0.01806641,0.1982422,-0.1245117,-0.2993164,-0.1508789
3060,9.875,40.3125,-65.375,0.206543,0.07080078,0.1713867,-0.1186523,-0.3041992,-0.1538086
3064,6.5625,36.1875,-56.5,0.07470703,0.1601563,0.09814453,-0.1176758,-0.3095703,-0.1547852
3068,1.5,24.375,-47.125,0.02441406,0.171875,0.1020508,-0.112793,-0.3129883,-0.15625
3072,0.4375,13.8125,-39.375,0.07470703,0.1640625,0.1518555,-0.1103516,-0.3154297,-0.1606445
3076,0.375,12.25,-33.3125,0.175293,0.1796875,0.2519531,-0.1069336,-0.3193359,-0.1577148
3080,-2,16.6875,-25,0.140625,0.2807617,0.2636719,-0.1054688,-0.3193359,-0.1606445
3084,-10.125,15.9375,-15.75,0.09765625,0.3120117,0.2597656,-0.1020508,-0.3208008,-0.1616211
3088,-12.8125,11.4375,-7.0625,0.09765625,0.2651367,0.2827148,-0.1020508,-0.3217773,-0.1630859
3092,-7.625,5.25,-2.125,0.1484375,0.2416992,0.3330078,-0.1010742,-0.3217773,-0.1645508
3096,-3,4.75,1.25,0.1948242,0.2612305,0.3789063,-0.1010742,-0.3208008,-0.1660156
3100,-0.8125,4.625,5.6875,0.125,0.2495117,0.3330078,-0.1030273,-0.3232422,-0.1674805
3105,2.3125,-0.9375,16.5625,0.08251953,0.2299805,0.3017578,-0.1010742,-0.3217773,-0.1645508
3109,5.6875,-7.25,26.5,0.1015625,0.2299805,0.2905273,-0.1020508,-0.3208008,-0.1660156
3113,2.8125,-8.625,40.6875,0.1870117,0.237793,0.355957,-0.1069336,-0.3193359,-0.1660156
3117,-2,-2.0625,54.125,0.2412109,0.203125,0.3828125,-0.1103516,-0.3154297,-0.1630859
3121,-2.8125,1.4375,71.5,0.2294922,0.1640625,0.3979492,-0.112793,-0.3129883,-0.1616211
3125,2.125,-2.1875,81.3125,0.2294922,0.2416992,0.355957,-0.1162109,-0.3120117,-0.1616211
3129,4.75,-11.75,81.0625,0.2646484,0.3701172,0.3364258,-0.1220703,-0.3056641,-0.1591797
3133,-2.5625,-17.25,82.5625,0.3808594,0.4282227,0.355957,-0.128418,-0.3017578,-0.15625
3137,-11.5625,-15.5,80.875,0.4506836,0.4086914,0.3945313,-0.1293945,-0.2983398,-0.1538086
3141,-17.75,-11.75,83.25,0.4428711,0.3193359,0.3710938,-0.1352539,-0.2919922,-0.1538086
3145,-18.8125,-19.3125,90.75,0.3496094,0.2612305,0.3364258,-0.1401367,-0.2895508,-0.1538086
3149,-13.75,-31.4375,92.875,0.4272461,0.2226563,0.355957,-0.1411133,-0.2856445,-0.1494141
3153,-6.1875,-32.375,90.0625,0.5161133,0.2651367,0.3671875,-0.1484375,-0.2783203,-0.1508789
3157,-6.9375,-32.875,84.8125,0.543457,0.3232422,0.3251953,-0.1518555,-0.2719727,-0.1469727
3161,-13.6875,-32.8125,83.1875,0.5708008,0.2963867,0.3017578,-0.1557617,-0.2670898,-0.1469727
3165,-17.3125,-37.8125,86.1875,0.5126953,0.1914063,0.2944336,-0.1601563,-0.2592773,-0.1469727
3169,-14.1875,-45.875,89.875,0.5551758,0.1293945,0.2983398,-0.1625977,-0.2519531,-0.1455078
3173,-10.5625,-53.25,91.4375,0.6132813,0.1176758,0.3364258,-0.1650391,-0.2441406,-0.1455078
3177,-11.0625,-51.375,94.75,0.7451172,0.06689453,0.3710938,-0.1699219,-0.2392578,-0.1469727
3181,-10.375,-49.4375,94.625,0.7490234,0.105957,0.3637695,-0.1733398,-0.2319336,-0.1455078
3185,-13.875,-44.0625,97.0625,0.7758789,0.04736328,0.3671875,-0.1791992,-0.2246094,-0.1469727
3189,-12.5,-49.3125,102.5625,0.6948242,-0.01416016,0.3056641,-0.1831055,-0.2158203,-0.1484375
3193,-7.4375,-56.625,108.25,0.7568359,-0.04882813,0.3330078,-0.1875,-0.2119141,-0.1494141
3197,-4.3125,-64.0625,111.4375,0.8496094,-0.06835938,0.3598633,-0.1923828,-0.2055664,-0.1508789
3201,-8.4375,-55.5,121.4375,0.9619141,-0.08007813,0.409668,-0.2021484,-0.1982422,-0.1494141
3205,-14.5,-51.5625,128.0625,1.016113,-0.1347656,0.4135742,-0.2104492,-0.1918945,-0.1523438
3209,-2.6875,-58.9375,125.8125,0.9423828,-0.08007813,0.3520508,-0.215332,-0.1904297,-0.1484375
3213,3.8125,-67.125,120.5625,1.043457,-0.07617188,0.3828125,-0.2280273,-0.1806641,-0.1455078
3217,3.6875,-65.75,117.8125,1.078125,-0.1074219,0.409668,-0.2387695,-0.1767578,-0.1401367
3221,0.1875,-52.25,124.6875,1.132324,-0.340332,0.4326172,-0.2460938,-0.1733398,-0.1347656
3225,4.3125,-48.5,136.9375,1.055176,-0.2705078,0.3095703,-0.2568359,-0.1679688,-0.125
3229,9.75,-59,136.5,1.163574,-0.09570313,0.3017578,-0.2675781,-0.1567383,-0.1142578
3234,10.6875,-58,126.0625,1.248535,-0.06054688,0.3364258,-0.2734375,-0.1508789,-0.1044922
3238,8.9375,-52.6875,112.4375,1.233398,-0.2006836,0.3442383,-0.2792969,-0.1420898,-0.08984375
3242,2.125,-34.1875,112,1.275879,-0.3950195,0.4018555,-0.2817383,-0.1333008,-0.07617188
3246,4.5625,-27.75,126.4375,1.027832,-0.421875,0.1865234,-0.2827148,-0.1230469,-0.07080078
3250,12.0625,-46.125,124.75,1.105469,-0.4257813,0.144043,-0.2827148,-0.109375,-0.05859375
3254,25.125,-54.3125,120.4375,1.13623,-0.3364258,0.105957,-0.2807617,-0.09960938,-0.04638672
3258,25.625,-67.3125,112.875,1.140137,-0.3017578,0.07128906,-0.2744141,-0.09082031,-0.03808594
3262,22,-65.4375,109.875,1.217773,-0.355957,0.1479492,-0.2724609,-0.078125,-0.02832031
3266,7.625,-47.125,118.75,1.361328,-0.4453125,0.2402344,-0.2636719,-0.06201172,-0.02148438
3270,3.75,-41.125,124.4375,1.225586,-0.3442383,0.1098633,-0.2592773,-0.05078125,-0.01904297
3274,6,-46.9375,118.3125,1.279785,-0.3598633,0.09814453,-0.2509766,-0.03466797,-0.02050781
3278,8.25,-49.9375,111.1875,1.260254,-0.3754883,0.07910156,-0.2446289,-0.01708984,-0.02050781
3282,13.9375,-51.375,102.6875,1.241211,-0.4609375,0.06347656,-0.2387695,-0.006835938,-0.02587891
3286,9.625,-46.875,102.5625,1.252441,-0.4765625,0.09814453,-0.2319336,0.004882813,-0.03369141
3290,5.125,-31.6875,109.9375,1.241211,-0.3676758,0.07519531,-0.2294922,0.01757813,-0.04492188
3294,-5.25,-31.1875,103.0625,1.217773,-0.2241211,0.03271484,-0.2255859,0.02490234,-0.05273438
3298,-11.0625,-28,98.375,1.175293,-0.3911133,0.04052734,-0.2236328,0.03125,-0.06103516
3302,-8.5625,-34.6875,93.125,1.0625,-0.5581055,-0.01660156,-0.2236328,0.03759766,-0.07177734
3306,-1.25,-45.125,93.625,1.031738,-0.7250977,0.01367188,-0.2246094,0.04150391,-0.07861328
3310,12.625,-37.6875,103.125,1.314453,-0.6669922,0.1518555,-0.2246094,0.04492188,-0.08837891
3314,0.5,-18.8125,95.8125,1.430664,-0.1191406,0.2172852,-0.2294922,0.05126953,-0.09228516
3318,-23.3125,7.6875,82,1.275879,-0.2509766,0.2250977,-0.2280273,0.05273438,-0.09521484
3322,1.5625,-13.5625,57.625,0.7797852,-0.7641602,0.01367188,-0.2304688,0.05761719,-0.1035156
3326,54.125,-69.5625,46.625,0.5356445,-1.125488,-0.1166992,-0.2329102,0.0625,-0.1020508
3330,92.625,-106.125,60.375,0.7294922,-1.11377,-0.03222656,-0.2363281,0.0625,-0.1044922
3334,101.6875,-111.9375,89.375,1.16748,-0.7719727,0.140625,-0.2387695,0.06884766,-0.1035156
3338,75.8125,-86.875,93.3125,1.543457,-0.1191406,0.2094727,-0.2412109,0.08251953,-0.1044922
3342,36.375,-44.6875,83.4375,1.628418,0.1640625,0.2211914,-0.2426758,0.09521484,-0.105957
3346,3.6875,-9.75,62.875,1.516113,0.1254883,0.1748047,-0.2402344,0.1210938,-0.1142578
3350,-16.6875,10.1875,36,1.473633,0.09423828,0.1171875,-0.2436523,0.1523438,-0.1210938
3354,-32,32.625,11,1.826172,0.3041992,0.1674805,-0.2485352,0.1772461,-0.1235352
3358,-48.4375,46.625,2,1.670898,0.1367188,-0.04003906,-0.2485352,0.1914063,-0.1235352
3363,-23.5,32.8125,-8.3125,1.16748,-0.4609375,-0.1474609,-0.2485352,0.1860352,-0.1210938
3367,-8.6875,0.9375,5.625,0.9541016,-0.5268555,-0.08984375,-0.2460938,0.1811523,-0.1210938
3371,9.6875,-18.625,0.125,1.16748,-0.453125,0.01367188,-0.2426758,0.1689453,-0.1210938
3375,13.8125,-17.5,-19.875,1.291504,-0.2939453,0.05566406,-0.2412109,0.15625,-0.1181641
3379,-0.8125,-4.9375,-32.5625,1.287598,-0.09960938,-0.01318359,-0.2387695,0.1401367,-0.1166992
3383,-21.8125,7.0625,-46.75,1.376465,-0.09179688,0.02099609,-0.2402344,0.1210938,-0.1113281
3387,-37.375,17.5625,-56.75,1.357422,-0.2241211,0.07910156,-0.2387695,0.1000977,-0.105957
3391,-39.3125,32,-68,1.442383,-0.355957,0.1713867,-0.2387695,0.08886719,-0.1020508
3395,-33.9375,39.5,-76.25,1.376465,-0.3637695,0.1098633,-0.2387695,0.07617188,-0.09912109
3399,-27.625,34.1875,-88.75,1.376465,-0.3833008,0.05175781,-0.2387695,0.06738281,-0.09375
3403,-16.25,21.875,-99.8125,1.310547,-0.4101563,0.03662109,-0.237793,0.06103516,-0.09082031
3407,-1.9375,5.1875,-106.0625,1.399902,-0.421875,0.09423828,-0.2353516,0.05273438,-0.09082031
3411,1.0625,4.5625,-111.4375,1.644043,-0.1967773,0.1865234,-0.2353516,0.04736328,-0.08154297
3415,-10.375,25.375,-121.125,1.853027,-0.07226563,0.3056641,-0.237793,0.04394531,-0.07617188
3419,-21.1875,48.4375,-134.875,1.907715,-0.2353516,0.4365234,-0.2329102,0.03613281,-0.06787109
3423,-5.5625,57.3125,-149.8125,1.550781,-0.6357422,0.3710938,-0.2304688,0.02734375,-0.05859375
3427,39.8125,29,-155.75,1.333984,-0.9038086,0.1982422,-0.2329102,0.02392578,-0.04882813
3431,62.625,4.4375,-156.625,1.458008,-0.4882813,0.04785156,-0.2363281,0.01123047,-0.03662109
3435,31.625,14.375,-152.625,1.950195,-0.1191406,0.2636719,-0.2402344,-0.001953125,-0.01757813
3439,-4.9375,58.8125,-162.0625,2.10498,-0.2084961,0.425293,-0.2470703,-0.01318359,-0.008300781
3443,-15.125,91.8125,-178.875,1.837891,-0.503418,0.3291016,-0.2578125,-0.03564453,0.002441406
3447,-3,86.25,-183.5,1.368652,-0.7133789,0.08642578,-0.2724609,-0.05957031,0.004882813
3451,16.9375,59.5625,-183.1875,1.271973,-0.7753906,0.05566406,-0.2783203,-0.07714844,0.00390625
3455,29.125,38.8125,-178.8125,1.446289,-0.6279297,0.2021484,-0.2924805,-0.09960938,-0.002441406
3459,22.6875,50.0625,-177.6875,1.682617,-0.421875,0.3364258,-0.3017578,-0.1206055,-0.01464844
3463,9.0625,74,-181.75,1.647949,-0.3598633,0.2675781,-0.3056641,-0.1367188,-0.02734375
3467,3.75,76.75,-187.5,1.345703,-0.5,0.1020508,-0.3041992,-0.1582031,-0.05566406
3471,16.8125,54.5625,-185.4375,1.117188,-0.5893555,0.08642578,-0.293457,-0.171875,-0.08300781
3475,32.125,33.875,-181.875,1.179199,-0.5776367,0.2172852,-0.2792969,-0.1831055,-0.09667969
3479,32.875,25.875,-174.0625,1.302734,-0.387207,0.3291016,-0.2553711,-0.1933594,-0.1074219
3483,26.4375,35.875,-168.8125,1.477539,-0.3637695,0.4599609,-0.2294922,-0.1967773,-0.1088867
3487,22.8125,68.875,-181.5625,1.647949,-0.1499023,0.4599609,-0.2172852,-0.2006836,-0.105957
3492,0.625,96.75,-187,1.29541,-0.02978516,0.1713867,-0.1972656,-0.2070313,-0.09521484
3496,-4.6875,93.0625,-186.375,1.023926,-0.3017578,0.001953125,-0.184082,-0.2182617,-0.08691406
3500,7.375,71.9375,-183,0.7216797,-0.3793945,-0.04003906,-0.1806641,-0.2207031,-0.08007813
3504,17.8125,50.375,-167.6875,0.6210938,-0.3911133,-0.001464844,-0.1772461,-0.2368164,-0.06933594
3508,18.8125,42.8125,-148.375,0.7333984,-0.3208008,0.1098633,-0.1772461,-0.2504883,-0.05957031
3512,31.9375,30.25,-144.4375,0.4853516,-0.1074219,-0.02832031,-0.1782227,-0.2607422,-0.05712891
3516,34.4375,14.25,-144,0.6171875,-0.05273438,0.06347656,-0.1791992,-0.2768555,-0.05419922
3520,32.6875,13.375,-140.9375,0.559082,0.07861328,0.09033203,-0.1806641,-0.2944336,-0.05273438
3524,25.8125,9.0625,-136.1875,0.4775391,0.04736328,0.1328125,-0.1782227,-0.3081055,-0.05175781
3528,25.4375,10.3125,-129.375,0.3847656,-0.04150391,0.1289063,-0.1733398,-0.3217773,-0.05419922
3532,27.5,1.625,-114.5625,0.1367188,-0.04150391,0.05175781,-0.1699219,-0.3354492,-0.05957031
3536,30.4375,-10.875,-97.1875,0.1171875,-0.01025391,0.02880859,-0.1640625,-0.3457031,-0.05957031
3540,34.25,-18.875,-89.1875,0.1987305,0.1757813,0.04785156,-0.1601563,-0.3505859,-0.06396484
3544,24.375,-20,-80.375,0.2490234,0.3623047,0.105957,-0.1582031,-0.359375,-0.06640625
3548,19.875,-20.9375,-77.75,0.2490234,0.3623047,0.1748047,-0.1518555,-0.3642578,-0.06787109
3552,22.9375,-17.875,-77.1875,0.3110352,0.2495117,0.2944336,-0.1508789,-0.371582,-0.06933594
3556,27.5625,-11.875,-72.3125,0.2177734,0.3662109,0.2290039,-0.1411133,-0.3779297,-0.06933594
3560,19.8125,-12.5625,-63.1875,0.09765625,0.3935547,0.1367188,-0.1401367,-0.3779297,-0.07177734
3564,17.625,-16.8125,-50.875,0.04345703,0.3583984,0.1289063,-0.1342773,-0.3803711,-0.07324219
3568,14.3125,-18.875,-41.375,0.125,0.3544922,0.2172852,-0.1303711,-0.3842773,-0.07177734
3572,14.3125,-12.0625,-34.875,0.1367188,0.3896484,0.2709961,-0.1303711,-0.3857422,-0.07470703
3576,10.3125,-6.75,-29.625,0.125,0.4052734,0.2866211,-0.1269531,-0.3867188,-0.07324219
3580,11.8125,2.3125,-25.25,0.04345703,0.4013672,0.2250977,-0.1245117,-0.3891602,-0.07617188
3584,8,-0.3125,-16,-0.03320313,0.3583984,0.1713867,-0.1220703,-0.3916016,-0.07470703
3588,6.4375,-0.0625,-5.0625,-0.08789063,0.3583984,0.140625,-0.1220703,-0.390625,-0.07617188
3592,10.1875,-10.25,3.125,-0.08398438,0.2226563,0.1367188,-0.1201172,-0.3891602,-0.07470703
3596,18.4375,-14.875,9.5625,-0.09912109,0.2729492,0.159668,-0.1210938,-0.3930664,-0.07080078
3600,19.8125,-12.625,17.25,-0.02587891,0.3232422,0.1787109,-0.1220703,-0.3891602,-0.06787109
3604,9.25,-1.3125,29.8125,-0.05664063,0.3818359,0.1171875,-0.1220703,-0.3916016,-0.06542969
3608,1.0625,-3.0625,41.25,-0.1303711,0.284668,0.05957031,-0.1259766,-0.3891602,-0.06396484
3612,5.375,-12.6875,54.1875,-0.1499023,0.1875,0.04785156,-0.128418,-0.3867188,-0.06103516
3616,14.125,-28.6875,63,-0.09521484,0.1679688,0.04785156,-0.1328125,-0.3818359,-0.05419922
3621,20.1875,-38,72.6875,0.04345703,0.1875,0.105957,-0.1376953,-0.3769531,-0.05175781
3625,21.5625,-36.625,77.875,0.2216797,0.2299805,0.1904297,-0.1450195,-0.3745117,-0.04345703
3629,16.625,-23.125,84.6875,0.2915039,0.269043,0.2329102,-0.1459961,-0.3666992,-0.03369141
3633,9.3125,-11.4375,90.9375,0.3032227,0.2109375,0.2133789,-0.1533203,-0.3603516,-0.02832031
3637,6.25,-1.4375,103.0625,0.3417969,0.05126953,0.1787109,-0.1582031,-0.3530273,-0.02294922
3641,11,-4.9375,111.1875,0.3652344,0.1679688,0.08251953,-0.1625977,-0.3417969,-0.01904297
3645,5.9375,-3.1875,116.375,0.4814453,0.269043,0.05175781,-0.1640625,-0.3344727,-0.01611328
3649,-1.5625,-4.3125,118.375,0.3847656,0.2338867,-0.02441406,-0.1665039,-0.3217773,-0.01074219
3653,-1.9375,-19.3125,130.25,0.4853516,0.02050781,0.06347656,-0.168457,-0.3066406,-0.009277344
3657,12.875,-31.9375,139.75,0.6518555,-0.1420898,0.1557617,-0.1699219,-0.296875,-0.008300781
3661,25.8125,-35.8125,142.9375,0.9116211,0.05517578,0.2441406,-0.1699219,-0.2807617,-0.008300781
3665,20.5,-18.25,141,1.09375,0.269043,0.2290039,-0.1733398,-0.2670898,-0.01367188
3669,-2.0625,3.8125,143.0625,1.027832,0.3466797,0.1098633,-0.1723633,-0.2631836,-0.01464844
3673,-29.375,7.6875,152.8125,0.8959961,0.1333008,0.02880859,-0.1748047,-0.2480469,-0.02587891
3677,-26.5,-8.125,164.9375,0.7915039,-0.1616211,-0.009277344,-0.1791992,-0.2368164,-0.03955078
3681,1.25,-39.6875,166.6875,1.000488,-0.2705078,0.125,-0.1865234,-0.2319336,-0.04882813
3685,18.625,-43.1875,166.625,1.268066,0.04736328,0.144043,-0.1972656,-0.2255859,-0.05712891
3689,6.875,-32.3125,162.25,1.550781,0.1875,0.2519531,-0.2114258,-0.2216797,-0.06396484
3693,-11.9375,-1,156.8125,1.461914,0.2338867,0.1865234,-0.2255859,-0.2182617,-0.06933594
3697,-26.6875,3.25,154.625,1.337891,-0.01806641,0.1748047,-0.2426758,-0.2158203,-0.07080078
3701,-17.4375,-9,162.375,1.05127,-0.2084961,0.01708984,-0.2626953,-0.2070313,-0.0625
3705,5.625,-43.4375,159.25,1.206055,-0.3056641,0.1020508,-0.2734375,-0.1992188,-0.05566406
3709,25.4375,-54.125,159.0625,1.42334,-0.1074219,0.1635742,-0.2915039,-0.1870117,-0.03662109
3713,24,-46.3125,152.0625,1.644043,-0.02587891,0.2402344,-0.2973633,-0.1704102,-0.01220703
3717,7.0625,-22.125,143.4375,1.686523,-0.1459961,0.3212891,-0.2958984,-0.1630859,0
3721,5.8125,-3.375,149.875,1.318359,-0.1538086,0.08251953,-0.293457,-0.1469727,0.01318359
3725,7.5,-25.75,147.125,1.310547,-0.2006836,-0.03613281,-0.2875977,-0.1269531,0.02148438
3729,20.625,-37.25,140.875,1.333984,-0.1655273,-0.04394531,-0.2827148,-0.1166992,0.02832031
3733,26.375,-53.4375,136.9375,1.318359,-0.2939453,-0.001464844,-0.2758789,-0.09716797,0.03613281
3737,32.5,-55.25,135.625,1.473633,-0.4296875,0.1674805,-0.2651367,-0.07714844,0.03613281
3741,34.125,-37.1875,138.0625,1.46582,-0.371582,0.2060547,-0.2602539,-0.06445313,0.03613281
3745,33.1875,-24.0625,138.875,1.546875,-0.2084961,0.125,-0.2519531,-0.04833984,0.02832031
3750,21.375,-16.4375,127.25,1.550781,-0.006347656,-0.02050781,-0.2485352,-0.03320313,0.01855469
3754,8.0625,-11.0625,117,1.450195,-0.1811523,-0.05908203,-0.2436523,-0.02197266,0.0078125
3758,-1,-11.0625,114.875,1.322266,-0.371582,-0.01318359,-0.2412109,-0.01318359,-0.00390625
3762,-5,-10.1875,117.125,1.182617,-0.581543,0.03662109,-0.2402344,-0.004394531,-0.01464844
3766,-0.9375,-14,120.1875,1.097656,-0.7250977,0.1020508,-0.2387695,0,-0.02587891
3770,35.1875,-31.125,129.75,1.113281,-0.4960938,-0.03613281,-0.2402344,0.007324219,-0.03662109
3774,37.1875,-31.3125,121.1875,1.5625,-0.2666016,0.05566406,-0.2426758,0.01269531,-0.04638672
3778,20.1875,-14,105.9375,1.46582,0.0009765625,-0.0859375,-0.2426758,0.01611328,-0.04882813
3782,2.375,-6.6875,95.1875,1.349609,-0.2509766,-0.07080078,-0.2485352,0.02001953,-0.05859375
3786,-9.0625,-1.8125,92.5625,1.175293,-0.4414063,-0.02441406,-0.2509766,0.02392578,-0.05859375
3790,-7.5,-6,97.3125,1.070313,-0.7368164,0.04443359,-0.2509766,0.02734375,-0.0625
3794,13.9375,-15.625,99.875,1.043457,-0.7563477,0.04443359,-0.2543945,0.03271484,-0.06542969
3798,30.625,-27.125,94.5625,1.155762,-0.6396484,0.04785156,-0.2568359,0.03857422,-0.07080078
3802,39.75,-26.0625,84.1875,1.252441,-0.4765625,0.02880859,-0.2592773,0.04150391,-0.07177734
3806,41.9375,-15.25,63.5,1.372559,-0.2626953,0.03271484,-0.2626953,0.04736328,-0.07617188
3810,27.3125,7.875,49.125,1.372559,-0.1381836,0.01367188,-0.2651367,0.04980469,-0.08544922
3814,9.8125,20.5625,45.5,1.209961,-0.1967773,0.04052734,-0.2685547,0.05126953,-0.09375
3818,-14.5625,23.5,61.9375,1.163574,-0.3056641,0.1171875,-0.2744141,0.04980469,-0.1074219
3822,-15,33.8125,54.5625,1.756348,0.3779297,0.2558594,-0.2827148,0.04736328,-0.1196289
3826,-52.0625,70.8125,-7.375,2.116699,0.8051758,0.04052734,-0.2890625,0.04492188,-0.1318359
3830,-75.875,79.8125,-27.0625,1.578125,0.2109375,-0.3745117,-0.2890625,0.04150391,-0.1425781
3834,-53,44.4375,-12.9375,1.027832,-0.4882813,-0.3974609,-0.2851563,0.04638672,-0.144043
3838,-18.8125,6.1875,-0.75,0.9580078,-0.5620117,-0.1245117,-0.2817383,0.04882813,-0.1401367
3842,0.5,-19.1875,5.9375,1.008301,-0.6044922,0.05957031,-0.2792969,0.05126953,-0.1333008
3846,14.5,-26.375,-5.25,1.043457,-0.4648438,0.07519531,-0.2734375,0.05517578,-0.1235352
3850,7.4375,-24.125,-15.25,1.206055,-0.2084961,0.05957031,-0.2709961,0.05517578,-0.1157227
3854,-10.125,-5.625,-39.75,1.26416,-0.03369141,0.04443359,-0.2661133,0.05517578,-0.1074219
3858,-36.875,10.0625,-57.25,1.252441,-0.1655273,0.1210938,-0.2651367,0.05371094,-0.1005859
3862,-47.8125,28.125,-70.9375,1.144043,-0.4257813,0.1713867,-0.2626953,0.05273438,-0.09375
3866,-42.375,35.25,-67.75,1.101563,-0.6977539,0.2329102,-0.2602539,0.04980469,-0.08837891
3870,-28.875,32.75,-67.9375,1.059082,-0.5151367,0.1518555,-0.2568359,0.04492188,-0.08544922
3874,-26.375,16.25,-67.5625,1.070313,-0.4492188,0.08642578,-0.2553711,0.04394531,-0.08300781
3879,-18.0625,-0.5625,-71.3125,1.252441,-0.3286133,0.1210938,-0.2553711,0.03857422,-0.08007813
3883,-12.25,1.6875,-83.4375,1.59375,-0.08398438,0.2402344,-0.2519531,0.03369141,-0.07617188
3887,-29.5,31.75,-99.75,1.841797,0.1098633,0.3134766,-0.253418,0.03271484,-0.07470703
3891,-53.75,63.0625,-112.1875,1.868652,0.02832031,0.2866211,-0.2509766,0.02734375,-0.07177734
3895,-62.5625,83.25,-118.25,1.771973,-0.2006836,0.2250977,-0.2460938,0.02246094,-0.06787109
3899,-40.1875,75.875,-128.8125,1.550781,-0.4067383,0.09814453,-0.2446289,0.01757813,-0.06640625
3903,-4.375,54.0625,-141.9375,1.585938,-0.371582,0.1098633,-0.2426758,0.01025391,-0.06103516
3907,22.875,36.8125,-161.5,1.725586,-0.2509766,0.140625,-0.2402344,0.00390625,-0.05029297
3911,22.75,36.25,-176.5,1.918945,-0.02197266,0.1787109,-0.2426758,-0.004394531,-0.03955078
3915,0.3125,53.125,-181.875,2.03125,0.01660156,0.1904297,-0.2470703,-0.01953125,-0.02441406
3919,-19.5625,72.5625,-186.75,2.02002,-0.1308594,0.1826172,-0.2519531,-0.03808594,-0.01074219
3923,-24,81.125,-196.5,1.880371,-0.2744141,0.1367188,-0.2578125,-0.05566406,-0.00390625
3927,-17.875,82.6875,-205.0625,1.760254,-0.4726563,0.159668,-0.2685547,-0.08203125,0.0009765625
3931,-7.6875,79.5625,-210.5625,1.640137,-0.5112305,0.159668,-0.2783203,-0.1118164,-0.00390625
3935,-0.125,75.6875,-210.4375,1.5625,-0.5424805,0.1367188,-0.2866211,-0.1293945,-0.01367188
3939,3.75,70.3125,-208.25,1.496582,-0.4882813,0.140625,-0.2915039,-0.1542969,-0.03125
3943,5.5625,65.5,-202.1875,1.473633,-0.453125,0.1787109,-0.2900391,-0.1782227,-0.05273438
3947,2.3125,69.25,-198.8125,1.450195,-0.387207,0.2133789,-0.2841797,-0.1894531,-0.07324219
3951,-2.75,78.9375,-195.75,1.442383,-0.4101563,0.2519531,-0.2685547,-0.2016602,-0.09912109
3955,0.625,81.375,-195.4375,1.229492,-0.4296875,0.1865234,-0.2426758,-0.2119141,-0.1181641
3959,5.9375,75.5,-190.125,1.132324,-0.4375,0.1713867,-0.2246094,-0.2128906,-0.1235352
3963,14.0625,69.3125,-185.4375,1.02002,-0.421875,0.144043,-0.2006836,-0.2167969,-0.1264648
3967,15.8125,65.9375,-174.8125,1.023926,-0.3754883,0.2060547,-0.1816406,-0.2216797,-0.1196289
3971,9.875,70.1875,-165.5,0.9233398,-0.2587891,0.1943359,-0.1699219,-0.2280273,-0.1113281
3975,5.375,73.0625,-156,0.8300781,-0.2666016,0.144043,-0.1625977,-0.234375,-0.09912109
3979,7.625,69.8125,-147.9375,0.6982422,-0.2045898,0.09423828,-0.1567383,-0.2456055,-0.09082031
3983,9.0625,59.9375,-141.875,0.6171875,-0.08789063,0.07910156,-0.1518555,-0.2568359,-0.08544922
3987,4.375,55.125,-135.9375,0.6791992,-0.04541016,0.1635742,-0.1494141,-0.2680664,-0.08154297
3991,-1,58.875,-132,0.6015625,-0.02587891,0.1904297,-0.1494141,-0.2832031,-0.08007813
3995,0.5,59.6875,-125.8125,0.527832,-0.06835938,0.1904297,-0.1459961,-0.2929688,-0.07763672
3999,1.5625,59.875,-114.5625,0.4038086,0.01269531,0.1171875,-0.1435547,-0.3056641,-0.08447266
4003,4.125,49.375,-109.3125,0.3339844,0.105957,0.08251953,-0.1391602,-0.3168945,-0.08691406
4008,3.6875,40.3125,-103.0625,0.2836914,0.1757813,0.1132813,-0.1391602,-0.3242188,-0.09228516
4012,-3.375,35.5625,-97.25,0.2797852,0.1992188,0.1943359,-0.1342773,-0.3344727,-0.09765625
4016,-10.5625,40,-91.625,0.3266602,0.15625,0.2905273,-0.1269531,-0.3442383,-0.1035156
4020,-12.1875,50,-82.6875,0.2294922,0.07080078,0.2480469,-0.1245117,-0.3466797,-0.1088867
4024,-11.125,48.3125,-73.125,0.09033203,0.1254883,0.1748047,-0.1186523,-0.3544922,-0.1181641
4028,-9.875,38.5625,-56.375,-0.04882813,0.1523438,0.08642578,-0.1113281,-0.3569336,-0.1264648
4032,-7.3125,23.5,-47.1875,-0.02978516,0.21875,0.140625,-0.109375,-0.359375,-0.1289063
4036,-3.375,15,-38.125,-0.002441406,0.253418,0.2290039,-0.1030273,-0.3603516,-0.1333008
4040,0.5625,7.875,-31.5625,0.06689453,0.2226563,0.340332,-0.1020508,-0.3632813,-0.1386719
4044,7.4375,10.8125,-28.625,0.1171875,0.2573242,0.4018555,-0.09716797,-0.3666992,-0.137207
4048,9.4375,11.5625,-20.4375,0.07470703,0.3388672,0.3598633,-0.09619141,-0.3666992,-0.1401367
4052,6.25,13.6875,-13.125,0.05517578,0.3818359,0.3017578,-0.09375,-0.3691406,-0.1425781
4056,2.6875,6.8125,-5.625,-0.01025391,0.4360352,0.2402344,-0.09228516,-0.3691406,-0.1401367
4060,-4.1875,2.125,4.375,0.1015625,0.4282227,0.3095703,-0.09375,-0.3691406,-0.1425781
4064,-6.3125,1.625,8.8125,0.1054688,0.4399414,0.3442383,-0.09130859,-0.3706055,-0.1401367
4068,-4.875,1.875,10.8125,0.1713867,0.4321289,0.3828125,-0.09375,-0.3681641,-0.1401367
4072,-4.25,3.875,11,0.1557617,0.4555664,0.3442383,-0.09619141,-0.3691406,-0.1401367
4076,-4.9375,1.5625,15.3125,0.09765625,0.4633789,0.2866211,-0.09619141,-0.3691406,-0.1401367
4080,-3.25,-10.6875,16.5,0.02441406,0.4868164,0.2211914,-0.09960938,-0.3657227,-0.1401367
4084,-0.0625,-23.625,19.6875,0.1210938,0.4555664,0.2709961,-0.09863281,-0.3657227,-0.137207
4088,-2.125,-27.375,26.75,0.2104492,0.5214844,0.3330078,-0.1020508,-0.3642578,-0.1333008
4092,-9.375,-22.6875,31.4375,0.3574219,0.5253906,0.4135742,-0.1030273,-0.3618164,-0.1333008
4096,-15.25,-13.0625,34.75,0.3188477,0.5371094,0.4174805,-0.1079102,-0.359375,-0.1318359
4100,-18.25,-12.875,36.4375,0.2836914,0.4711914,0.4018555,-0.109375,-0.3554688,-0.1279297
4104,-16.4375,-12.5,40.5,0.2875977,0.4052734,0.409668,-0.1137695,-0.3554688,-0.1264648
4108,-15.25,-13.9375,46.75,0.2724609,0.3974609,0.375,-0.1137695,-0.3491211,-0.1235352
4112,-9.9375,-19.6875,47.0625,0.2875977,0.3310547,0.3442383,-0.1176758,-0.3442383,-0.1210938
4116,-2.0625,-24,50.6875,0.2797852,0.3310547,0.3212891,-0.1186523,-0.3457031,-0.1166992
4120,-2,-27.0625,57.375,0.3032227,0.3583984,0.3134766,-0.1235352,-0.3408203,-0.1142578
4124,-8.125,-27.125,64.3125,0.3574219,0.3935547,0.3017578,-0.1245117,-0.3344727,-0.1088867
4128,-16.875,-24.875,69.25,0.4077148,0.3896484,0.3134766,-0.128418,-0.3291016,-0.1074219
4132,-24.9375,-21.125,75.3125,0.4697266,0.2612305,0.3251953,-0.1303711,-0.3232422,-0.1020508
4137,-22.0625,-21.625,77.875,0.4697266,0.21875,0.3134766,-0.1318359,-0.3144531,-0.1005859
4141,-14.8125,-27.8125,78.5625,0.4350586,0.269043,0.2402344,-0.1352539,-0.3041992,-0.1020508
4145,-17.375,-33,80.6875,0.4350586,0.3271484,0.1865234,-0.1367188,-0.2929688,-0.1005859
4149,-29.875,-37.9375,84.75,0.4541016,0.3505859,0.1713867,-0.1352539,-0.2841797,-0.1005859
4153,-53.9375,-33.0625,91.25,0.59375,0.2807617,0.2944336,-0.1376953,-0.2753906,-0.1035156
4157,-90.375,-10.5625,102.1875,0.7875977,0.1137695,0.4365234,-0.1376953,-0.2631836,-0.1088867
4161,-103.5,-3.5,121,0.5629883,-0.05664063,0.2944336,-0.1391602,-0.2480469,-0.1196289
4165,-95.3125,-19.9375,116.5625,0.6054688,0.08642578,0.2983398,-0.1401367,-0.2431641,-0.1264648
4169,-94.0625,-28.1875,110,0.6362305,0.07470703,0.3017578,-0.1401367,-0.2280273,-0.1416016
4173,-96.25,-37.75,105.125,0.7021484,0.02832031,0.390625,-0.1435547,-0.2167969,-0.1538086
4177,-104.3125,-32.9375,102.375,0.8803711,-0.1655273,0.5249023,-0.1459961,-0.2119141,-0.1645508
4181,-98.625,-29.25,115.5,0.8149414,-0.387207,0.4672852,-0.1518555,-0.203125,-0.1796875
4185,-70,-51.9375,124.125,0.7255859,-0.3286133,0.3828125,-0.1625977,-0.1904297,-0.1918945
4189,-49.4375,-67.1875,121.375,0.9038086,-0.2548828,0.4135742,-0.1723633,-0.1918945,-0.1958008
4193,-30.8125,-80.8125,122.875,0.8959961,-0.2587891,0.390625,-0.1914063,-0.1879883,-0.2026367
4197,-22.3125,-91.25,122.5625,1.05127,-0.2666016,0.4404297,-0.2138672,-0.1894531,-0.1987305
4201,-13,-90.75,129.75,1.124512,-0.3481445,0.4174805,-0.2319336,-0.1879883,-0.1928711
4205,-2.3125,-98.3125,138,1.132324,-0.1889648,0.3520508,-0.2543945,-0.1870117,-0.1728516
4209,2.125,-106.875,138,1.291504,-0.1230469,0.3637695,-0.2700195,-0.1845703,-0.1455078
4213,0.375,-106.625,134.6875,1.39209,-0.08007813,0.4287109,-0.2792969,-0.1767578,-0.125
4217,-0.6875,-100.5,127.625,1.492676,-0.2314453,0.5634766,-0.2817383,-0.1669922,-0.09912109
4221,4.3125,-82.75,126.75,1.469727,-0.2275391,0.5366211,-0.2817383,-0.1567383,-0.07470703
4225,10.625,-81.4375,128.25,1.302734,-0.1655273,0.3867188,-0.2792969,-0.1469727,-0.06103516
4229,19.125,-91.9375,121.3125,1.388184,-0.1420898,0.3212891,-0.2724609,-0.1308594,-0.04492188
4233,22.4375,-90.5625,113.5,1.430664,-0.2124023,0.3364258,-0.2661133,-0.1108398,-0.02734375
4237,25.375,-90.625,109.9375,1.411621,-0.324707,0.3520508,-0.2602539,-0.1005859,-0.02148438
4241,22.25,-76.8125,117.25,1.46582,-0.2124023,0.340332,-0.2509766,-0.07714844,-0.01367188
4245,7.875,-66.25,118.3125,1.407715,-0.03759766,0.2290039,-0.2426758,-0.0546875,-0.01611328
4249,-9.875,-63.125,114.875,1.361328,0.0009765625,0.1557617,-0.2363281,-0.04052734,-0.01904297
4253,-26.875,-62.5,107,1.415527,-0.09179688,0.2172852,-0.2280273,-0.02197266,-0.03369141
4257,-30.5625,-59.9375,100.375,1.395996,-0.2900391,0.2944336,-0.2236328,-0.008300781,-0.04736328
4261,-22.1875,-57.125,97.25,1.376465,-0.3056641,0.3212891,-0.222168,0.001464844,-0.05712891
4266,-11.25,-54.9375,86.625,1.333984,-0.2163086,0.2788086,-0.2211914,0.008789063,-0.06640625
4270,-8.0625,-53.5625,81.5,1.252441,-0.2163086,0.2480469,-0.21875,0.01367188,-0.08154297
4274,-2.6875,-58.3125,76.875,1.159668,-0.2900391,0.2133789,-0.2211914,0.01855469,-0.08544922
4278,9.9375,-68.8125,72.125,1.117188,-0.4179688,0.1826172,-0.2236328,0.02148438,-0.09082031
4282,36.125,-84.8125,65.75,1.085938,-0.5737305,0.1367188,-0.2280273,0.02392578,-0.09667969
4286,74.625,-102.5,60.0625,1.144043,-0.6669922,0.09814453,-0.2304688,0.02246094,-0.09912109
4290,92.375,-108.625,62.5625,1.279785,-0.3676758,0.08251953,-0.2353516,0.02636719,-0.1020508
4294,89.9375,-102.25,58.8125,1.341797,-0.2275391,0.06738281,-0.2426758,0.02490234,-0.09765625
4298,82.5,-94.3125,53.125,1.29541,-0.2509766,0.07128906,-0.2446289,0.02490234,-0.09667969
4302,86.1875,-94.4375,47.1875,1.217773,-0.3950195,0.09033203,-0.2509766,0.02880859,-0.09521484
4306,94.1875,-89.6875,49.375,1.302734,-0.3364258,0.1289063,-0.2553711,0.03369141,-0.09082031
4310,86.8125,-71.0625,50.875,1.403809,-0.09570313,0.09814453,-0.2592773,0.03515625,-0.08691406
4314,64.4375,-49.4375,42.5625,1.407715,0.1333008,0.09033203,-0.2626953,0.04150391,-0.08691406
4318,31.5,-31.5,33.875,1.43457,0.2768555,0.08642578,-0.2661133,0.04980469,-0.08984375
4322,6.8125,-14.5625,20.625,1.46582,0.1523438,0.1787109,-0.2685547,0.05615234,-0.08837891
4326,-2.1875,3.4375,9.5,1.473633,0.03222656,0.2250977,-0.2685547,0.0625,-0.08837891
4330,-3.1875,16,-2.875,1.399902,0.04736328,0.1557617,-0.2700195,0.06396484,-0.08691406
4334,-1.25,19.75,-14.6875,1.376465,0.06298828,0.08251953,-0.2724609,0.06396484,-0.09082031
4338,1.625,19.625,-27.6875,1.376465,0.1914063,-0.01318359,-0.2675781,0.05859375,-0.09082031
4342,-12.9375,24.625,-42.375,1.492676,0.3388672,0.01708984,-0.2636719,0.05126953,-0.09082031
4346,-40.9375,42.1875,-49.5,1.578125,0.2885742,0.09033203,-0.2626953,0.04638672,-0.08984375
4350,-63.6875,63.125,-59.125,1.589844,0.1757813,0.1171875,-0.2592773,0.03759766,-0.09228516
4354,-71.125,76,-70.5625,1.52002,-0.02197266,0.09814453,-0.253418,0.03027344,-0.09228516
4358,-70.5,82.0625,-79.875,1.454102,-0.1152344,0.06738281,-0.2495117,0.02246094,-0.09228516
4362,-62.5,79.4375,-86.1875,1.364746,-0.2163086,0.02880859,-0.2446289,0.02001953,-0.09521484
4366,-48,70.25,-91.125,1.368652,-0.2783203,0.05175781,-0.2402344,0.01611328,-0.09667969
4370,-37.25,63.3125,-94.375,1.450195,-0.1850586,0.1210938,-0.2353516,0.01513672,-0.09082031
4374,-35.125,63.8125,-98.25,1.543457,-0.1230469,0.1635742,-0.2294922,0.01269531,-0.08837891
4378,-33.4375,67.3125,-106.75,1.620605,-0.09179688,0.2133789,-0.2255859,0.01123047,-0.07861328
4382,-32.625,74,-113.375,1.686523,-0.09179688,0.2480469,-0.2246094,0.01025391,-0.07080078
4386,-29.875,79.125,-124.25,1.644043,-0.1420898,0.2290039,-0.2236328,0.00390625,-0.05566406
4390,-22.5625,79.625,-132.9375,1.628418,-0.2241211,0.2133789,-0.2255859,-0.008300781,-0.03808594
4395,-11.25,75.3125,-140.125,1.5625,-0.2861328,0.2133789,-0.2304688,-0.01806641,-0.02587891
4399,-1.0625,72.4375,-145.5625,1.608887,-0.2939453,0.2519531,-0.2387695,-0.03955078,-0.005371094
4403,2.6875,75.75,-151.625,1.655762,-0.2509766,0.2597656,-0.253418,-0.06835938,0.00390625
4407,-2.5625,84.3125,-155.1875,1.666992,-0.1889648,0.2597656,-0.2602539,-0.08544922,0.002441406
4411,-4.5625,85.5625,-157.75,1.539551,-0.2275391,0.2133789,-0.2709961,-0.1157227,-0.00390625
4415,1.9375,79.5625,-164.4375,1.477539,-0.3520508,0.2250977,-0.2827148,-0.1396484,-0.02050781
4419,14.5,72.875,-171.625,1.454102,-0.387207,0.2675781,-0.2851563,-0.1567383,-0.03369141
4423,19.6875,72.3125,-173.25,1.461914,-0.3325195,0.3134766,-0.2915039,-0.1767578,-0.05566406
4427,19.4375,74.875,-170,1.384277,-0.2587891,0.2788086,-0.2900391,-0.1904297,-0.08691406
4431,17.6875,71.75,-166.5625,1.314453,-0.1655273,0.2749023,-0.2817383,-0.203125,-0.1044922
4435,20.0625,66,-166.75,1.29541,-0.2084961,0.3134766,-0.2651367,-0.2080078,-0.1318359
4439,23.6875,66,-169.3125,1.376465,-0.1967773,0.409668,-0.2412109,-0.2104492,-0.1538086
4443,21.1875,75,-169.3125,1.349609,-0.1655273,0.4326172,-0.2211914,-0.2143555,-0.15625
4447,22.4375,75.25,-168.4375,1.155762,-0.1655273,0.3251953,-0.1914063,-0.2158203,-0.1577148
4451,30.0625,66.125,-166.5,1.109375,-0.1694336,0.3251953,-0.1699219,-0.2167969,-0.1494141
4455,33.9375,60.75,-163.625,1.074219,-0.1459961,0.3251953,-0.1601563,-0.2207031,-0.1425781
4459,37.125,59.875,-161.25,1.000488,-0.1191406,0.3173828,-0.1508789,-0.2304688,-0.1279297
4463,37.375,57.375,-162,0.8535156,-0.1577148,0.2558594,-0.1435547,-0.2416992,-0.112793
4467,48.5625,42.625,-157.3125,0.59375,-0.1655273,0.1982422,-0.1411133,-0.2480469,-0.1074219
4471,64.625,16.25,-152.6875,0.3847656,-0.2241211,0.1171875,-0.1367188,-0.2641602,-0.09765625
4475,86.1875,-24.5,-144.125,0.1557617,-0.1459961,0.07910156,-0.1342773,-0.2792969,-0.08544922
4479,91.9375,-64.75,-123.75,0.1987305,-0.08007813,0.125,-0.1318359,-0.2919922,-0.08007813
4483,84.5,-92.125,-110.25,0.4233398,0.03222656,0.2133789,-0.1328125,-0.3041992,-0.06640625
4487,89.0625,-81.125,-128.4375,0.8417969,0.07470703,0.3637695,-0.1318359,-0.3178711,-0.05566406
4491,85.625,-38.4375,-155.1875,0.9389648,0.2299805,0.3979492,-0.1269531,-0.3305664,-0.04882813
4495,51.5625,8.6875,-154.4375,0.6132813,0.3232422,0.2402344,-0.1186523,-0.3432617,-0.04345703
4499,23.0625,21.8125,-142.5,0.190918,0.1484375,0.03271484,-0.1113281,-0.3554688,-0.04199219
4503,18.25,11.25,-125.5,-0.03710938,-0.03759766,-0.04003906,-0.1020508,-0.3666992,-0.04492188
4507,18.25,1.5625,-95.875,-0.06835938,-0.06445313,-0.009277344,-0.09716797,-0.3754883,-0.04638672
4511,12.875,-2.625,-65.9375,-0.07617188,0.03613281,0.009765625,-0.08886719,-0.3833008,-0.04736328
4515,4,-2.9375,-39.9375,-0.02587891,0.15625,0.01708984,-0.08886719,-0.3833008,-0.04736328
4519,6.75,-3.6875,-28.0625,0.03564453,0.1992188,0.07128906,-0.08300781,-0.3881836,-0.05029297
4524,8.4375,-5,-19.75,0.06689453,0.3271484,0.144043,-0.08398438,-0.3891602,-0.05029297
4528,5.3125,-1.3125,-11.3125,0.1635742,0.3935547,0.2290039,-0.08642578,-0.390625,-0.05175781
4532,1.6875,7.6875,-7,0.206543,0.4477539,0.2749023,-0.08398438,-0.3891602,-0.05273438
4536,-1.3125,15.4375,-3.25,0.1713867,0.4907227,0.2133789,-0.08544922,-0.390625,-0.05273438
4540,-7.8125,18.4375,4.5625,0.1210938,0.5449219,0.144043,-0.08398438,-0.3916016,-0.05273438
4544,-14.0625,15.625,11.0625,0.1132813,0.4829102,0.1171875,-0.08642578,-0.3891602,-0.05712891
4548,-14.5,9.375,11.6875,0.07861328,0.4672852,0.1171875,-0.08642578,-0.3891602,-0.05712891
4552,-13.4375,8.875,16.3125,0.1171875,0.4243164,0.125,-0.08642578,-0.390625,-0.05859375
4556,-12.75,4.5,24.25,0.008789063,0.4052734,0.07128906,-0.08789063,-0.3891602,-0.05712891
4560,-10.25,-5.875,31.75,0.008789063,0.3466797,0.07519531,-0.09033203,-0.3857422,-0.05859375
4564,-6,-14.25,39.8125,0.1132813,0.3193359,0.1635742,-0.09033203,-0.3867188,-0.05712891
4568,-5.5625,-11.125,48.75,0.2294922,0.3818359,0.2172852,-0.09228516,-0.3818359,-0.05419922
4572,-14.25,-5.0625,54.25,0.2490234,0.4477539,0.2133789,-0.09619141,-0.3769531,-0.05273438
4576,-27,4.8125,60.875,0.2758789,0.4829102,0.1943359,-0.09716797,-0.3730469,-0.04882813
4580,-37.6875,2.8125,65.5625,0.140625,0.4321289,0.1328125,-0.1020508,-0.3691406,-0.05175781
4584,-38.75,-10.25,77.0625,0.1831055,0.269043,0.1674805,-0.1044922,-0.3618164,-0.05175781
4588,-32.875,-16.9375,87.5625,0.3149414,0.2651367,0.2905273,-0.109375,-0.3544922,-0.05175781
4592,-33.1875,-15.9375,96.75,0.4077148,0.3120117,0.3710938,-0.1113281,-0.3442383,-0.05419922
4596,-40.875,-6.25,106.5625,0.5356445,0.3081055,0.4326172,-0.1176758,-0.3354492,-0.05175781
4600,-40.75,-1.875,111.5,0.4814453,0.2729492,0.3789063,-0.1210938,-0.328125,-0.05712891
4604,-28.75,-10.3125,111.5625,0.4931641,0.2070313,0.3442383,-0.1245117,-0.3144531,-0.05859375
4608,-19.8125,-16.25,114.3125,0.59375,0.2495117,0.3291016,-0.128418,-0.3032227,-0.06103516
4612,-23.8125,-14.8125,119.1875,0.6674805,0.2807617,0.3251953,-0.1293945,-0.2944336,-0.05957031
4616,-33.5,-10.3125,126.75,0.659668,0.3232422,0.2905273,-0.1318359,-0.2792969,-0.06542969
4620,-42.75,-12.6875,130.875,0.625,0.2768555,0.2402344,-0.1352539,-0.2670898,-0.07177734
4624,-41.5625,-19.6875,132.5,0.7138672,0.121582,0.2597656,-0.1342773,-0.2617188,-0.07763672
4628,-29.8125,-25.125,131.3125,0.7797852,0.04394531,0.2827148,-0.1391602,-0.2480469,-0.08837891
4632,-13.1875,-28.8125,129.6875,0.8769531,-0.03369141,0.2944336,-0.1435547,-0.2382813,-0.09765625
4636,-2.6875,-28.4375,122.75,0.8730469,0.05126953,0.2441406,-0.1450195,-0.2329102,-0.1044922
4640,-4.625,-25.6875,124.5625,0.9194336,0.105957,0.2021484,-0.1508789,-0.2270508,-0.1181641
4644,-11.9375,-22.625,127.8125,0.8803711,0.1098633,0.09423828,-0.1616211,-0.2216797,-0.1333008
4648,-26.9375,-26.25,134.8125,0.8803711,0.05517578,0.05175781,-0.1723633,-0.2182617,-0.1416016
4653,-37.4375,-31.6875,145.5,0.9389648,-0.04541016,0.05566406,-0.1914063,-0.2182617,-0.1538086
4657,-36.375,-41.25,152.6875,1.047363,-0.1347656,0.1328125,-0.2172852,-0.2216797,-0.1577148
4661,-24.4375,-44,153.8125,1.151855,-0.1347656,0.1787109,-0.237793,-0.2216797,-0.1538086
4665,-17.25,-43.3125,152.3125,1.229492,-0.03369141,0.1904297,-0.2675781,-0.2216797,-0.1386719
4669,-18.5,-45.375,146.8125,1.26416,-0.002441406,0.1943359,-0.2900391,-0.2192383,-0.1113281
4673,-21.125,-51.875,139.8125,1.306641,-0.1152344,0.2211914,-0.2958984,-0.2143555,-0.09228516
4677,-10,-63.875,141.5625,1.337891,-0.340332,0.2749023,-0.3017578,-0.203125,-0.06103516
4681,15.0625,-63.5625,148.0625,1.558594,-0.2705078,0.3710938,-0.2973633,-0.1918945,-0.03662109
4685,21.5625,-44.625,141.9375,1.5625,0.01269531,0.3671875,-0.293457,-0.1831055,-0.01757813
4689,8.8125,-33.6875,130.1875,1.426758,0.09423828,0.2983398,-0.2851563,-0.1669922,-0.001464844
4693,-4.25,-30.875,111.1875,1.376465,-0.01806641,0.2905273,-0.2758789,-0.1479492,0.009277344
4697,-3.3125,-25.625,109.8125,1.395996,-0.4101563,0.3173828,-0.2700195,-0.1381836,0.01611328
4701,25.4375,-32.125,121.8125,1.198242,-0.3325195,0.1020508,-0.2617188,-0.1166992,0.02392578
4705,34.125,-55.0625,115.0625,1.244629,-0.01806641,0.04443359,-0.2509766,-0.09082031,0.02539063
4709,21.25,-63.6875,104.8125,1.415527,0.07861328,0.125,-0.2446289,-0.07324219,0.02294922
4713,2.1875,-58.625,95.1875,1.469727,-0.06054688,0.2290039,-0.2329102,-0.046875,0.01318359
4717,-7.0625,-45.875,89.625,1.442383,-0.355957,0.3134766,-0.2270508,-0.03076172,-0.002441406
4721,20.8125,-51.125,102.25,1.128418,-0.2275391,0.1674805,-0.2236328,-0.01806641,-0.01904297
4725,48.0625,-82.0625,109.375,1.13623,-0.1850586,0.01708984,-0.222168,-0.005859375,-0.03662109
4729,49.8125,-94.375,109.9375,1.361328,-0.1074219,0.07128906,-0.2211914,0,-0.05419922
4733,44.75,-96.25,106.0625,1.411621,-0.1152344,0.144043,-0.2236328,0.002441406,-0.0625
4737,56.5,-95.0625,84.4375,1.484863,-0.2392578,0.2329102,-0.2294922,0.00390625,-0.07177734
4741,63.3125,-76.1875,75.8125,1.558594,-0.1191406,0.2636719,-0.2329102,0.002441406,-0.07617188
4745,41,-52.0625,69.4375,1.48877,0.1601563,0.1713867,-0.2363281,0.00390625,-0.07861328
4749,4.75,-35.1875,65.875,1.341797,0.1098633,0.1289063,-0.2412109,0.002441406,-0.08300781
4753,-18.9375,-29.5,64.8125,1.244629,-0.06445313,0.1289063,-0.2436523,0.004882813,-0.08447266
4757,-27.3125,-33.75,64,1.159668,-0.3056641,0.1748047,-0.2470703,0.007324219,-0.08300781
4761,-7.875,-42.5,57,1.175293,-0.5698242,0.2597656,-0.2485352,0.01269531,-0.08447266
4765,32.875,-47.625,44.9375,1.206055,-0.5893555,0.2866211,-0.2543945,0.01513672,-0.08300781
4769,55.1875,-44,44,1.260254,-0.402832,0.2597656,-0.2553711,0.01513672,-0.08154297
4773,56.375,-32.875,47.125,1.260254,-0.2163086,0.140625,-0.2592773,0.02001953,-0.08300781
4777,51.125,-29.875,47.75,1.171387,-0.1381836,-0.005371094,-0.2626953,0.02490234,-0.08300781
4782,45.0625,-33.5625,46.375,1.082031,-0.1308594,-0.0859375,-0.2661133,0.03125,-0.08544922
4786,40.75,-39.625,46.8125,1.140137,-0.1381836,-0.05517578,-0.2661133,0.04003906,-0.08300781
4790,36.0625,-33.9375,47.9375,1.291504,-0.04541016,0.009765625,-0.2709961,0.04638672,-0.08447266
4794,29.0625,-20.5625,34.8125,1.376465,0.1098633,0.02099609,-0.2724609,0.05517578,-0.08691406
4798,18.8125,-7.5,11.875,1.388184,0.171875,0.01367188,-0.2734375,0.06103516,-0.08544922
4802,5.25,5.1875,-2.25,1.426758,0.171875,0.001953125,-0.2744141,0.06396484,-0.08447266
4806,-7.8125,18.5625,-16.375,1.399902,0.1835938,-0.05517578,-0.2709961,0.06396484,-0.08154297
4810,-22.625,25.6875,-26.5625,1.399902,0.1835938,-0.1166992,-0.2685547,0.05761719,-0.08300781
4814,-40.75,36.1875,-31.5,1.481445,0.2265625,-0.07080078,-0.2675781,0.04980469,-0.08447266
4818,-62.0625,52.875,-39.0625,1.566406,0.2495117,-0.04736328,-0.2626953,0.04150391,-0.08300781
4822,-79.625,66,-51.8125,1.620605,0.2416992,-0.03222656,-0.2578125,0.03613281,-0.08544922
4826,-91.3125,74.6875,-67.375,1.605469,0.1601563,-0.04736328,-0.2543945,0.02880859,-0.08691406
4830,-89.75,74.8125,-83.3125,1.597656,0.04394531,-0.02832031,-0.2495117,0.02392578,-0.08837891
4834,-79,69.75,-98.3125,1.554688,-0.05664063,-0.01660156,-0.2446289,0.01855469,-0.08691406
4838,-64.75,58.75,-109.1875,1.554688,-0.09179688,0.009765625,-0.2402344,0.01513672,-0.08007813
4842,-49.625,48.5625,-118.4375,1.620605,-0.1035156,0.08642578,-0.237793,0.01269531,-0.08007813
4846,-40,48,-125.5,1.713867,-0.05664063,0.1787109,-0.2329102,0.01123047,-0.07177734
4850,-26.625,43.9375,-131.875,1.651855,-0.1347656,0.2060547,-0.2304688,0.002441406,-0.05957031
4854,-1,32,-141.0625,1.69043,-0.1499023,0.2211914,-0.2304688,-0.0004882813,-0.05029297
4858,23.375,19.6875,-158.5625,1.872559,-0.05273438,0.2480469,-0.2294922,-0.01171875,-0.03125
4862,21.875,28.1875,-181.5625,2.124512,0.1176758,0.2675781,-0.2329102,-0.03076172,-0.008300781
4866,-8.9375,57.1875,-192.8125,2.170898,0.1333008,0.2211914,-0.2363281,-0.04833984,0.00390625
4870,-44.1875,82.625,-194.1875,2.02002,-0.06445313,0.1367188,-0.2446289,-0.07958984,0.01855469
4874,-49.5,89.3125,-196.9375,1.814453,-0.3833008,0.07910156,-0.2553711,-0.1132813,0.02001953
4878,-31.125,79.125,-206.0625,1.624512,-0.5698242,0.09033203,-0.2602539,-0.1367188,0.01464844
4882,-4.5625,64.625,-211.8125,1.601563,-0.6357422,0.159668,-0.2700195,-0.1645508,-0.001464844
4886,11.6875,64.0625,-206.6875,1.63623,-0.550293,0.2211914,-0.2758789,-0.1879883,-0.01757813
4890,11.0625,74,-196.25,1.578125,-0.3989258,0.2021484,-0.2783203,-0.2045898,-0.03271484
4894,3.3125,81.125,-187.875,1.484863,-0.3442383,0.144043,-0.2744141,-0.2231445,-0.0625
4898,-0.25,81.875,-183.0625,1.368652,-0.3481445,0.105957,-0.2617188,-0.2319336,-0.09375
4902,-3,83,-176.4375,1.349609,-0.3520508,0.140625,-0.2460938,-0.234375,-0.112793
4906,-6.375,88.1875,-168.375,1.268066,-0.3911133,0.1943359,-0.2172852,-0.2329102,-0.1264648
4911,-3.75,95.625,-161.6875,1.182617,-0.3754883,0.1943359,-0.1914063,-0.2319336,-0.1318359
4915,-5.1875,99.125,-154.875,1.004395,-0.3442383,0.1210938,-0.1772461,-0.2294922,-0.1289063
4919,1.75,88.8125,-149,0.8183594,-0.324707,0.05566406,-0.1601563,-0.2319336,-0.1210938
4923,9.9375,73.4375,-145.0625,0.7797852,-0.2509766,0.09423828,-0.1484375,-0.2407227,-0.1098633
4927,11.875,69.8125,-142.6875,0.8613281,-0.1347656,0.1826172,-0.1425781,-0.2441406,-0.1005859
4931,3.5625,79.375,-138.0625,0.8149414,-0.03759766,0.1943359,-0.1391602,-0.2558594,-0.09082031
4935,-3.375,81.375,-131.1875,0.625,0.0009765625,0.1289063,-0.1376953,-0.2695313,-0.08544922
4939,-5.625,75.0625,-126.0625,0.574707,-0.02197266,0.1132813,-0.1328125,-0.2817383,-0.08447266
4943,-3.3125,70.6875,-121.5625,0.5087891,-0.002441406,0.1132813,-0.1303711,-0.2929688,-0.08544922
4947,-2.625,65.5,-115.4375,0.4658203,0.04394531,0.140625,-0.1259766,-0.3066406,-0.08544922
4951,-3.375,63.5,-108.5625,0.3730469,0.07861328,0.125,-0.1235352,-0.3178711,-0.08837891
4955,-3.75,56.125,-101.5,0.2412109,0.1020508,0.07128906,-0.1201172,-0.3291016,-0.09521484
4959,-1.8125,43.875,-93.4375,0.1635742,0.105957,0.08251953,-0.1162109,-0.3378906,-0.1020508
4963,-2.9375,35.25,-85.25,0.2026367,0.1445313,0.1557617,-0.1113281,-0.3442383,-0.1088867
4967,-5.6875,35,-74.75,0.2138672,0.1796875,0.1826172,-0.1054688,-0.3544922,-0.112793
4971,-7.8125,35.875,-69.625,0.1171875,0.2299805,0.1904297,-0.1020508,-0.3579102,-0.1210938
4975,-8.6875,26.8125,-60.4375,0.02441406,0.1796875,0.159668,-0.09960938,-0.359375,-0.1225586
4979,-3.5,16.5625,-50.5,-0.006347656,0.1835938,0.2094727,-0.09228516,-0.3618164,-0.1279297
4983,2.3125,7.125,-44.8125,0.03173828,0.1796875,0.2636719,-0.08886719,-0.3666992,-0.1357422
4987,7.4375,6.625,-37.25,0.05126953,0.2070313,0.3212891,-0.08886719,-0.3657227,-0.137207
4991,10.5625,3.375,-27.8125,-0.01416016,0.2148438,0.2905273,-0.08642578,-0.3691406,-0.1386719
4995,16.125,-2.5,-17,-0.006347656,0.2456055,0.2866211,-0.08398438,-0.3706055,-0.1401367
4999,18.375,-6.3125,-9.625,0.05126953,0.3662109,0.3056641,-0.08056641,-0.3706055,-0.137207
5003,12.375,-4.3125,-4.5,0.140625,0.4165039,0.3095703,-0.08300781,-0.371582,-0.137207
5007,3.125,-0.625,-2.375,0.07861328,0.4125977,0.2675781,-0.08300781,-0.3730469,-0.137207
5011,-1.9375,-4.3125,3.375,0.02832031,0.2495117,0.2519531,-0.08203125,-0.3730469,-0.137207
5015,-4.875,-7.3125,18.3125,0.04736328,0.2265625,0.2866211,-0.08056641,-0.3730469,-0.1347656
5019,-7.8125,-6.6875,34.625,0.09033203,0.3232422,0.2905273,-0.08398438,-0.3706055,-0.1347656
5023,-9.1875,-9.25,43.3125,0.109375,0.4243164,0.2944336,-0.08642578,-0.3706055,-0.1333008
5027,-9.375,-12.625,43.875,0.1557617,0.5058594,0.2944336,-0.09033203,-0.3681641,-0.1318359
5031,-6.9375,-20.1875,38.625,0.1635742,0.5019531,0.3251953,-0.09472656,-0.3681641,-0.1303711
5035,-1.4375,-23.5625,35.1875,0.2451172,0.4672852,0.390625,-0.09863281,-0.3642578,-0.1289063
5040,-2.1875,-20.375,36.625,0.2836914,0.4633789,0.4057617,-0.1010742,-0.3618164,-0.1264648
5044,-5.75,-13.625,40.75,0.3110352,0.4399414,0.3828125,-0.1030273,-0.3579102,-0.1225586
5048,-11.875,-10.0625,48.0625,0.2412109,0.4321289,0.3017578,-0.1079102,-0.3544922,-0.1225586
5052,-15.8125,-12.9375,57.0625,0.206543,0.3857422,0.2749023,-0.109375,-0.3491211,-0.1166992
5056,-15.8125,-20.3125,64.5625,0.190918,0.3623047,0.2636719,-0.112793,-0.3466797,-0.1142578
5060,-10.625,-30.375,68.375,0.2875977,0.315918,0.3056641,-0.1137695,-0.3417969,-0.1113281
5064,-8.6875,-27.6875,77.5625,0.4467773,0.3388672,0.3789063,-0.1201172,-0.3344727,-0.105957
5068,-8.375,-19.3125,78.625,0.5200195,0.3544922,0.4135742,-0.1235352,-0.3242188,-0.1044922
5072,-6,2,82,0.6479492,0.3310547,0.5019531,-0.1245117,-0.3217773,-0.1005859
5076,-2.5625,38.6875,77,0.6635742,0.300293,0.640625,-0.1235352,-0.3120117,-0.09912109
5080,3.8125,79.3125,97.0625,0.5200195,0.203125,0.5981445,-0.128418,-0.3007813,-0.1005859
5084,-1.5,67.3125,41.6875,0.04736328,0.5292969,0.1787109,-0.1259766,-0.2983398,-0.09912109
5088,-25.6875,-11.9375,-245.5,0.1987305,1.306641,0.04785156,-0.1162109,-0.2944336,-0.09912109
5092,-38.0625,-66.0625,-172.3125,0.6518555,0.1098633,0.2368164,-0.09228516,-0.2944336,-0.1044922
5096,-62.6875,-55.4375,13.4375,1.066406,0.203125,0.3173828,-0.08642578,-0.2895508,-0.1088867
5100,-66.25,-20.75,102.375,0.7373047,0.1020508,0.355957,-0.08398438,-0.2807617,-0.1142578
5104,-47.5625,-47.875,142.25,0.4853516,0.06298828,0.3364258,-0.08789063,-0.2670898,-0.1225586
5108,-33.3125,-69.5625,171.625,0.7177734,0.04394531,0.4287109,-0.09472656,-0.2583008,-0.1279297
5112,-19.375,-61.125,187.125,0.8881836,0.2651367,0.4941406,-0.1044922,-0.2470703,-0.1357422
5116,5.5,-44.375,134.375,0.7373047,0.2612305,0.4750977,-0.1113281,-0.2368164,-0.1455078
5120,13.75,-57.9375,113.0625,0.7294922,0.2416992,0.3598633,-0.1162109,-0.2319336,-0.1523438
5124,6.5,-66.125,120.25,0.8496094,0.2924805,0.3442383,-0.1269531,-0.2280273,-0.1630859
5128,-0.5625,-68.5625,126.625,0.9580078,0.2963867,0.3789063,-0.1401367,-0.2294922,-0.1699219
5132,-6.25,-65.125,137.5,1.031738,0.2070313,0.3828125,-0.1484375,-0.2319336,-0.1767578
5136,-9.0625,-57.5625,136.6875,0.9580078,0.2456055,0.3710938,-0.1674805,-0.2304688,-0.1835938
5140,5.5625,-68.1875,118.5625,0.8032227,0.01269531,0.340332,-0.1923828,-0.2358398,-0.1835938
5144,29.9375,-79.1875,108.1875,0.9311523,0.01660156,0.3520508,-0.2055664,-0.2407227,-0.1728516
5148,36.1875,-82.8125,106.625,1.055176,0.2070313,0.3173828,-0.2304688,-0.2480469,-0.15625
5152,23.1875,-79.375,104.875,1.213867,0.2807617,0.4057617,-0.2509766,-0.2495117,-0.1303711
5156,5.4375,-67.25,101.3125,1.213867,0.1333008,0.3789063,-0.2626953,-0.2495117,-0.1113281
5160,9.875,-66.1875,99.625,1.055176,-0.1381836,0.3173828,-0.2685547,-0.2431641,-0.08544922
5164,30.5,-76.6875,104,1.047363,-0.07226563,0.2094727,-0.2700195,-0.2358398,-0.05957031
5169,36.75,-83.875,107.0625,1.229492,0.03613281,0.2558594,-0.2709961,-0.2255859,-0.04345703
5173,27.875,-74.3125,122.625,1.349609,0.05517578,0.2827148,-0.2675781,-0.2128906,-0.02148438
5177,15.4375,-66.1875,124.6875,1.306641,-0.006347656,0.2944336,-0.2626953,-0.1958008,-0.002441406
5181,10.1875,-53.6875,119.375,1.380371,-0.1347656,0.3017578,-0.2602539,-0.1821289,0.00390625
5185,22.75,-40.9375,110.625,1.252441,-0.06835938,0.144043,-0.2553711,-0.1621094,0.01171875
5189,30.625,-52.5,97.9375,1.066406,0.1875,-0.06689453,-0.2495117,-0.1396484,0.01708984
5193,15,-68.9375,100.25,1.159668,0.21875,0.001953125,-0.2436523,-0.1245117,0.01855469
5197,-3,-71.75,110.75,1.260254,0.004882813,0.105957,-0.237793,-0.1020508,0.01171875
5201,0.8125,-73.875,108,1.357422,-0.3095703,0.2675781,-0.2304688,-0.07958984,0.002441406
5205,19.875,-59.5625,107.125,1.500488,-0.3793945,0.2749023,-0.2280273,-0.06835938,-0.006835938
5209,35.6875,-52.125,105.3125,1.330078,-0.1308594,0.1479492,-0.2280273,-0.05566406,-0.02441406
5213,34.5,-58.5,108.4375,1.306641,0.06298828,0.08642578,-0.2270508,-0.04589844,-0.04199219
5217,23.9375,-61.0625,105.8125,1.372559,0.07080078,0.105957,-0.2270508,-0.04199219,-0.05029297
5221,23.625,-62.0625,98.125,1.388184,-0.1381836,0.1713867,-0.2280273,-0.03808594,-0.0625
5225,30.75,-53.4375,94.8125,1.46582,-0.1347656,0.1865234,-0.234375,-0.03564453,-0.07080078
5229,27.8125,-41.25,95.75,1.430664,-0.07226563,0.1367188,-0.2363281,-0.03466797,-0.07617188
5233,27.0625,-38,88.875,1.306641,-0.03369141,0.04443359,-0.2426758,-0.03076172,-0.08300781
5237,28.3125,-43.25,84.125,1.19043,-0.1459961,-0.03222656,-0.2460938,-0.03173828,-0.08300781
5241,47.25,-61.1875,76.75,1.055176,-0.3676758,-0.1054688,-0.2509766,-0.03076172,-0.08691406
5245,92.875,-86.125,69.75,1.159668,-0.6005859,0.009765625,-0.2568359,-0.02587891,-0.08691406
