Packet number,Gyroscope X (deg/s),Gyroscope Y (deg/s),Gyroscope Z (deg/s),Accelerometer X (g),Accelerometer Y (g),Accelerometer Z (g),Magnetometer X (G),Magnetometer Y (G),Magnetometer Z (G)
0,1.6875,-1,-2.25,0.08642578,-0.9814453,-0.1630859,0.03320313,0.2773438,0.05419922
4,-2.1875,0.8125,-4.0625,0.09033203,-1.012695,-0.1474609,0.03173828,0.2763672,0.05419922
9,-2.5,0,-1.875,0.07861328,-1.036133,-0.1591797,0.03076172,0.2763672,0.05419922
13,-2.375,0.4375,-1.25,0.06689453,-1.020508,-0.1630859,0.03173828,0.2763672,0.05273438
17,-4.375,0.25,-4.875,0.05126953,-1.004883,-0.1513672,0.03417969,0.2763672,0.05419922
21,-4.9375,-1.5625,-8.5,0.03173828,-1.016602,-0.1708984,0.03173828,0.2773438,0.05273438
25,-4.9375,-4.0625,-9.5625,0.03564453,-1.016602,-0.1708984,0.03173828,0.2773438,0.05517578
29,-4.1875,-4,-8.6875,0.06298828,-1.016602,-0.1669922,0.02978516,0.2763672,0.05126953
33,-5.125,-1.0625,-7.5,0.07470703,-1.032227,-0.1821289,0.02978516,0.2763672,0.05419922
37,-4.5625,2.1875,-4.1875,0.05908203,-1.05127,-0.1743164,0.02734375,0.2749023,0.05810547
41,-5.4375,4.9375,-0.625,0.03955078,-1.008789,-0.1552734,0.02587891,0.2773438,0.05517578
45,-11.8125,8.5,-4,0.02441406,-1.012695,-0.1821289,0.02832031,0.2749023,0.05419922
49,-14.5625,9.75,-6.875,-0.006347656,-1.070801,-0.1899414,0.02587891,0.2763672,0.05664063
53,-12.625,4.5625,-7.5,-0.01806641,-1.136719,-0.2324219,0.02490234,0.2749023,0.05810547
57,-8.25,-3.5625,-5.9375,-0.01025391,-1.175781,-0.2592773,0.02490234,0.2763672,0.05957031
61,-4.3125,-10.0625,-6.8125,0.02832031,-1.199219,-0.2475586,0.02734375,0.2763672,0.06103516
65,-3.0625,-12.5,-6.1875,0.07470703,-1.1875,-0.2246094,0.02490234,0.2763672,0.05957031
69,-4.9375,-12.3125,-4.6875,0.1054688,-1.167969,-0.1938477,0.02587891,0.2763672,0.05957031
73,-9.8125,-7.9375,-3.0625,0.1210938,-1.136719,-0.1474609,0.02734375,0.2788086,0.05957031
77,-18.8125,-0.5,-5.375,0.1557617,-1.136719,-0.1474609,0.02978516,0.2788086,0.05957031
81,-27.625,5,-4.4375,0.159668,-1.171875,-0.1513672,0.02832031,0.2773438,0.06201172
85,-31.9375,8.75,-1.25,0.1791992,-1.284668,-0.1938477,0.02587891,0.2788086,0.06494141
89,-29.75,11,1.9375,0.1635742,-1.308105,-0.1938477,0.02832031,0.2788086,0.06787109
93,-29.125,8.4375,9.375,0.109375,-1.249512,-0.1860352,0.02734375,0.2788086,0.06884766
97,-30.375,6.3125,19,0.125,-1.237793,-0.2246094,0.02490234,0.2788086,0.07324219
101,-28.25,7.5625,26,0.140625,-1.265137,-0.2670898,0.02832031,0.2797852,0.07714844
105,-28.125,7.9375,27.5625,0.09375,-1.21875,-0.2705078,0.02978516,0.28125,0.07861328
109,-30.4375,8.375,26.5,0.08642578,-1.214844,-0.2861328,0.02978516,0.28125,0.08105469
113,-27.6875,6.0625,29.5,0.03564453,-1.148438,-0.2900391,0.03564453,0.2822266,0.08398438
117,-27.5625,3,31.3125,0.06689453,-1.086426,-0.2783203,0.03808594,0.2836914,0.08789063
121,-28.3125,5.5625,33.5625,0.09375,-1.000977,-0.2631836,0.04150391,0.2836914,0.08789063
125,-39.5625,11.375,26.9375,0.09033203,-0.8803711,-0.2553711,0.04248047,0.2836914,0.09228516
129,-53.4375,19.125,13.1875,0.06689453,-0.9506836,-0.2978516,0.04492188,0.2851563,0.09912109
133,-50.75,20.1875,6.5,-0.006347656,-0.9697266,-0.3051758,0.04638672,0.2861328,0.1030273
138,-46.5625,10.125,4.875,-0.01025391,-0.9350586,-0.3398438,0.04882813,0.2875977,0.1083984
142,-36.25,2.3125,8.25,0.06298828,-1.012695,-0.3515625,0.04638672,0.2851563,0.1137695
146,-18.0625,0,16.5,0.09765625,-1.016602,-0.3974609,0.04638672,0.2875977,0.1152344
150,-2.875,-0.75,27.375,0.1289063,-0.9467773,-0.4130859,0.04980469,0.2861328,0.1191406
154,6.5,5.4375,29.9375,0.09033203,-0.7407227,-0.3325195,0.05322266,0.2885742,0.1181641
158,-5.375,12.9375,18.875,0.03173828,-0.6474609,-0.2670898,0.05224609,0.2910156,0.1206055
162,-13,12.75,8.9375,-0.01416016,-0.7988281,-0.2207031,0.0546875,0.2924805,0.1235352
166,-7.1875,3.5625,13.4375,0.01269531,-0.9389648,-0.2285156,0.0546875,0.293457,0.1235352
170,3.25,-4.4375,23.625,0.04736328,-0.9580078,-0.2475586,0.0546875,0.293457,0.125
174,21,-5.25,38.375,0.08642578,-0.9116211,-0.2363281,0.05712891,0.2924805,0.1259766
178,31.1875,4.5625,52.1875,0.07470703,-0.6977539,-0.08984375,0.06152344,0.2963867,0.1220703
182,12.3125,21.5,53.1875,0.06298828,-0.534668,-0.02050781,0.06787109,0.2963867,0.1220703
186,-20.625,42.5,41.5,0.0009765625,-0.6240234,-0.04394531,0.06982422,0.2963867,0.1235352
190,-35,50.9375,35,-0.1533203,-0.7641602,-0.1166992,0.07128906,0.2949219,0.1289063
194,-33.4375,42.6875,38.25,-0.2734375,-0.7949219,-0.2128906,0.07373047,0.2963867,0.1289063
198,-24.375,32.375,39.3125,-0.3432617,-0.8027344,-0.3359375,0.07617188,0.2910156,0.1357422
202,-16.1875,21.125,37.5625,-0.3320313,-0.8261719,-0.3901367,0.07714844,0.2900391,0.1396484
206,-7.9375,14.9375,36.875,-0.2890625,-0.8842773,-0.4438477,0.07958984,0.2885742,0.1396484
210,-2.4375,10.4375,28.3125,-0.28125,-0.7792969,-0.4169922,0.08203125,0.2875977,0.1425781
214,-6.75,5.125,15.25,-0.2890625,-0.6787109,-0.394043,0.08300781,0.2885742,0.1450195
218,-12.75,1.0625,5.625,-0.2734375,-0.6279297,-0.3862305,0.08447266,0.2875977,0.1450195
222,-16.625,-0.875,-1.5,-0.230957,-0.7094727,-0.3862305,0.08544922,0.2851563,0.1479492
226,-15.6875,-3,-7.0625,-0.1884766,-0.7641602,-0.4013672,0.08447266,0.2851563,0.1494141
230,-10.8125,-8.625,-11.9375,-0.1728516,-0.7792969,-0.3901367,0.07958984,0.2851563,0.1494141
234,-4.125,-15.9375,-14.4375,-0.1533203,-0.7563477,-0.3666992,0.07958984,0.2851563,0.1508789
238,3.5625,-21.3125,-16.1875,-0.1108398,-0.7250977,-0.3515625,0.07958984,0.2851563,0.1508789
242,4.5,-21.6875,-13.5,-0.07617188,-0.6748047,-0.3359375,0.07958984,0.2861328,0.1494141
246,-1.0625,-17.875,-14.1875,-0.06835938,-0.6860352,-0.3359375,0.07958984,0.2851563,0.1494141
250,-4.1875,-14.6875,-18.3125,-0.06835938,-0.7563477,-0.3476563,0.07861328,0.2861328,0.1479492
254,-1.125,-13,-19.8125,-0.08398438,-0.7641602,-0.3632813,0.07958984,0.2851563,0.1464844
258,0.125,-12.5,-18.875,-0.1069336,-0.7211914,-0.3515625,0.07617188,0.2875977,0.1479492
262,-3.5625,-12.25,-20.625,-0.1225586,-0.7211914,-0.3476563,0.07617188,0.2851563,0.1464844
267,-3.625,-11.625,-23.5,-0.1303711,-0.8066406,-0.3666992,0.07617188,0.2875977,0.1450195
271,2.4375,-15.4375,-27.625,-0.1650391,-0.8144531,-0.3476563,0.07470703,0.2851563,0.144043
275,8,-23.625,-29.4375,-0.1572266,-0.8261719,-0.359375,0.07226563,0.2861328,0.144043
279,14.5625,-29.25,-26.375,-0.08398438,-0.8183594,-0.34375,0.06982422,0.2875977,0.1411133
283,16.4375,-26.75,-25,-0.04882813,-0.7641602,-0.2705078,0.06982422,0.2861328,0.1411133
287,8.3125,-24.5625,-27.375,-0.08789063,-0.7368164,-0.2744141,0.06787109,0.2861328,0.1381836
291,5.8125,-24.0625,-31.8125,-0.09521484,-0.8647461,-0.2978516,0.06542969,0.2861328,0.1357422
295,8.5,-24.0625,-38.5625,-0.06054688,-0.8881836,-0.3129883,0.06542969,0.2875977,0.1328125
299,9.75,-28.375,-41,-0.04492188,-0.8764648,-0.2978516,0.06152344,0.2861328,0.1313477
303,14.4375,-31.5,-34.5625,-0.002441406,-0.8842773,-0.2861328,0.05810547,0.2885742,0.1303711
307,16.0625,-33.3125,-26.5625,0.03955078,-0.8881836,-0.3012695,0.05712891,0.2875977,0.1289063
311,18.3125,-30.375,-16.625,0.07080078,-0.9233398,-0.3129883,0.05566406,0.2851563,0.1235352
315,15.8125,-19.75,-12,0.07861328,-0.8959961,-0.2900391,0.05810547,0.2875977,0.1235352
319,10.875,-4,-11.5625,0.05517578,-0.9311523,-0.2978516,0.05566406,0.2861328,0.1191406
323,6.6875,6.8125,-18.4375,-0.002441406,-1.016602,-0.3208008,0.0546875,0.2851563,0.1166992
327,12.5,-2.3125,-19.8125,-0.03320313,-1.070801,-0.3208008,0.05566406,0.2822266,0.1166992
331,21.3125,-15.4375,-10.1875,0.008789063,-1.062988,-0.3286133,0.05224609,0.2851563,0.1137695
335,27.375,-17,1.0625,0.06689453,-0.9580078,-0.3051758,0.05322266,0.2836914,0.1113281
339,24.3125,-2.3125,5.6875,0.05908203,-0.9350586,-0.3325195,0.05322266,0.2822266,0.1098633
343,18,20.1875,0.375,0.07470703,-1.016602,-0.3476563,0.05322266,0.2836914,0.1044922
347,15,32.375,-11.875,-0.01806641,-1.02832,-0.3286133,0.05224609,0.2836914,0.1015625
351,16.9375,21.6875,-15.3125,-0.08789063,-1.032227,-0.3286133,0.04882813,0.2822266,0.1044922
355,28.5,0.6875,-11.5625,-0.09521484,-1.008789,-0.3359375,0.04736328,0.28125,0.1000977
359,37.5,-15.125,-4.6875,-0.05273438,-0.9428711,-0.34375,0.04736328,0.2822266,0.09765625
363,42.5,-16.8125,-2.75,0.02832031,-0.9541016,-0.3515625,0.04394531,0.28125,0.09472656
367,44.25,-8.5625,-6.6875,0.07080078,-0.9892578,-0.3632813,0.04492188,0.2797852,0.09082031
371,45.5,-1.8125,-9.875,0.05908203,-0.9580078,-0.3129883,0.04492188,0.28125,0.08691406
375,45.25,0.6875,-10.8125,0.05517578,-1.000977,-0.2900391,0.04394531,0.2822266,0.08398438
379,47.4375,2.5625,-10.5,0.02832031,-0.9892578,-0.2939453,0.04150391,0.28125,0.07861328
383,49.6875,4.625,-10.3125,0.02441406,-1.008789,-0.2592773,0.04248047,0.28125,0.07324219
387,47.3125,3.0625,-12.875,0.004882813,-0.9775391,-0.2592773,0.04248047,0.2822266,0.07177734
391,43.5625,1.8125,-15.625,0.05908203,-1.040039,-0.2246094,0.04052734,0.2836914,0.06347656
396,44.4375,-2.6875,-14.375,0.109375,-1.05127,-0.2089844,0.0390625,0.2822266,0.06347656
400,46.3125,-3.25,-5.625,0.159668,-1.020508,-0.1938477,0.0390625,0.2822266,0.05957031
404,46.1875,6.9375,1.8125,0.1635742,-0.9931641,-0.1938477,0.0390625,0.2822266,0.05126953
408,40.375,22.75,1.125,0.1210938,-0.9853516,-0.1782227,0.0390625,0.2836914,0.04736328
412,36.25,32.3125,-2.125,0.05517578,-1.047363,-0.1323242,0.03662109,0.28125,0.04589844
416,36.4375,24.6875,-2.3125,-0.04882813,-1.074707,-0.05126953,0.03564453,0.28125,0.04296875
420,38.0625,6.8125,-0.75,-0.07617188,-1.08252,-0.03613281,0.03662109,0.2797852,0.04052734
424,45.375,-6.0625,3.875,-0.02197266,-1.090332,-0.03222656,0.03320313,0.28125,0.04052734
428,48.4375,-2.9375,2.6875,0.05908203,-1.020508,-0.02441406,0.03564453,0.28125,0.03369141
432,38.875,12.6875,-5.0625,0.1210938,-0.9853516,-0.001464844,0.03320313,0.2797852,0.02978516
436,24.75,25.5,-9.0625,0.06298828,-0.9853516,0.03271484,0.03320313,0.2797852,0.02832031
440,17.4375,22.6875,-5.25,-0.04882813,-1.024414,0.08251953,0.03076172,0.2788086,0.02685547
444,17,8,-6.6875,-0.09130859,-1.078613,0.04443359,0.03076172,0.2788086,0.02539063
448,18.6875,-2.9375,-10.4375,-0.03320313,-1.164063,0.01367188,0.03076172,0.2788086,0.02294922
452,15.375,-14.6875,-12.0625,0.04736328,-1.144531,-0.01318359,0.02978516,0.2773438,0.02148438
456,5.8125,-17.875,-9.8125,0.159668,-1.199219,-0.01318359,0.02734375,0.2763672,0.02148438
460,-4.0625,-17.25,-6.8125,0.1831055,-1.249512,-0.08203125,0.02978516,0.2773438,0.02148438
464,-6.625,-13.875,-3.5,0.2026367,-1.366211,-0.1630859,0.02832031,0.2763672,0.02148438
468,-3.0625,-0.6875,2.3125,0.2026367,-1.350586,-0.1782227,0.02734375,0.2763672,0.02148438
472,-5.25,9,1.5,0.1132813,-1.29248,-0.1630859,0.02734375,0.2749023,0.02392578
476,-6.1875,5.875,2.1875,-0.01806641,-1.245605,-0.09375,0.02734375,0.2773438,0.02294922
480,-7.875,-5.75,-4.3125,-0.08398438,-1.152344,-0.05517578,0.02978516,0.2763672,0.02294922
484,-13.4375,-15.75,-15,-0.08398438,-1.121582,-0.05908203,0.02587891,0.2749023,0.02539063
488,-13.0625,-20.25,-18.1875,-0.01025391,-1.171875,-0.1015625,0.0234375,0.2763672,0.02539063
492,-11.5625,-17,-18.9375,0.06689453,-1.175781,-0.128418,0.0234375,0.2773438,0.02685547
496,-10,-6.1875,-15.125,0.1445313,-1.171875,-0.1015625,0.02148438,0.2773438,0.02978516
500,-10.625,4.6875,-9.625,0.1289063,-1.152344,-0.05517578,0.02001953,0.2763672,0.02832031
504,-15.9375,10.75,-9.9375,0.06298828,-1.086426,0.005859375,0.01904297,0.2773438,0.02978516
508,-28,11.8125,-16.9375,0.03955078,-1.125488,0.009765625,0.02148438,0.2773438,0.02978516
512,-32.5625,11.0625,-20.5625,0.03955078,-1.22998,-0.01660156,0.01904297,0.2788086,0.03515625
516,-33.1875,1.875,-18.4375,0.01269531,-1.249512,-0.05908203,0.01660156,0.2788086,0.03515625
520,-32.4375,-9.1875,-10.875,0.07861328,-1.319336,-0.1206055,0.01660156,0.2788086,0.03759766
525,-25.75,-15.25,0.5625,0.1445313,-1.366211,-0.1821289,0.01660156,0.2797852,0.04052734
529,-16.875,-18.1875,17.1875,0.2104492,-1.362305,-0.2207031,0.01757813,0.28125,0.04296875
533,-10.125,-15.75,27.5,0.2294922,-1.265137,-0.2285156,0.01904297,0.2822266,0.04296875
537,-14.0625,-12.75,27,0.206543,-1.191406,-0.2324219,0.02246094,0.2822266,0.04443359
541,-21,-12.8125,19.1875,0.159668,-1.152344,-0.2285156,0.02734375,0.2836914,0.04736328
545,-27.25,-18.0625,13.4375,0.1210938,-1.121582,-0.2246094,0.02587891,0.2875977,0.04589844
549,-32.4375,-23.125,9.3125,0.1367188,-1.086426,-0.2055664,0.02832031,0.2861328,0.04589844
553,-37.125,-25.6875,11.0625,0.1674805,-1.098145,-0.2207031,0.03076172,0.2875977,0.04980469
557,-33.5,-21.875,17.3125,0.2294922,-1.183594,-0.2436523,0.03076172,0.2900391,0.05126953
561,-20.875,-18.4375,29.375,0.1791992,-1.164063,-0.2514648,0.03417969,0.2910156,0.05517578
565,-14.625,-18.5,36.1875,0.125,-1.024414,-0.1860352,0.03662109,0.2924805,0.05664063
569,-18.5,-16.4375,31.6875,0.07470703,-0.9389648,-0.112793,0.04248047,0.2924805,0.05664063
573,-26.3125,-13.25,20.5,0.07080078,-0.9506836,-0.08984375,0.04492188,0.293457,0.05957031
577,-30.0625,-11.9375,15.5625,0.04345703,-0.9619141,-0.0859375,0.04882813,0.2949219,0.06201172
581,-27.125,-10.0625,22.25,0.09765625,-1.066895,-0.1362305,0.05224609,0.2973633,0.06347656
585,-17.625,-1,34.75,0.1132813,-1.094238,-0.1630859,0.05322266,0.2998047,0.06787109
589,-12.75,12.5,42.3125,0.08251953,-0.9467773,-0.1054688,0.05957031,0.2998047,0.06884766
593,-27.0625,21.25,36,-0.04101563,-0.8378906,-0.05908203,0.06152344,0.3022461,0.0703125
597,-36.125,26.5625,23.5625,-0.06054688,-0.8764648,-0.03613281,0.06396484,0.3046875,0.07421875
601,-40.6875,31.5,18,-0.06054688,-0.9541016,-0.1206055,0.06396484,0.3022461,0.08007813
605,-34,37.3125,19.3125,-0.08007813,-0.9814453,-0.2207031,0.06298828,0.3037109,0.08398438
609,-19,33.5625,26.0625,-0.1342773,-1.043945,-0.2939453,0.06640625,0.3046875,0.08691406
613,4.0625,25.0625,37.5625,-0.1533203,-0.9467773,-0.2553711,0.06787109,0.3046875,0.09228516
617,8.9375,20.875,34,-0.1845703,-0.6860352,-0.1513672,0.06787109,0.3076172,0.09326172
621,-9.625,18,13.0625,-0.2041016,-0.6630859,-0.1362305,0.07128906,0.3076172,0.09326172
625,-15.875,14.625,-8.5625,-0.1459961,-0.7290039,-0.1743164,0.06982422,0.3076172,0.09912109
629,-18.625,17.8125,-16.0625,-0.05664063,-0.7211914,-0.2055664,0.06884766,0.3076172,0.1000977
633,-17.25,23.0625,-8.8125,-0.02197266,-0.7524414,-0.2089844,0.06640625,0.3085938,0.1044922
637,-10.375,27.3125,2.25,-0.006347656,-0.8027344,-0.2285156,0.06640625,0.3100586,0.1083984
641,-1.9375,34.5,13.1875,-0.006347656,-0.8496094,-0.2705078,0.06542969,0.3100586,0.1098633
645,1.125,40.6875,17.6875,-0.05273438,-0.8535156,-0.3286133,0.06542969,0.3110352,0.1098633
649,1.1875,41.375,8.1875,-0.1572266,-0.8105469,-0.2978516,0.06396484,0.3125,0.1123047
654,-10.4375,35.6875,-12.5,-0.2080078,-0.8261719,-0.3051758,0.06542969,0.3134766,0.1137695
658,-10.875,27.375,-20.5,-0.1845703,-0.9658203,-0.2822266,0.06396484,0.3164063,0.1166992
662,-3.9375,19,-21.125,-0.1533203,-0.9658203,-0.3515625,0.06054688,0.3173828,0.1191406
666,3,10.0625,-17.5625,-0.1225586,-1.008789,-0.3974609,0.05712891,0.3164063,0.1206055
670,12.9375,4.4375,-16.5,-0.05273438,-1.059082,-0.4785156,0.05566406,0.3188477,0.1206055
674,21.3125,9.125,-21.5,-0.04101563,-1.032227,-0.4516602,0.05322266,0.3212891,0.1206055
678,25.75,8.125,-28.4375,-0.09130859,-1.012695,-0.3823242,0.04980469,0.3222656,0.1206055
682,31.3125,3.5625,-33.0625,-0.06835938,-0.9892578,-0.324707,0.04638672,0.3261719,0.1181641
686,37.0625,-4.0625,-33.6875,-0.07617188,-0.9077148,-0.2475586,0.04248047,0.3325195,0.1166992
690,38.625,-18.25,-28.75,-0.01806641,-0.8535156,-0.1821289,0.04052734,0.3310547,0.1123047
694,45.5625,-26.3125,-10,0.1054688,-0.9580078,-0.2475586,0.03808594,0.3334961,0.1113281
698,39.125,-10.1875,-11.3125,0.1635742,-0.7641602,-0.2016602,0.04052734,0.3413086,0.105957
702,28.125,2.4375,-14,0.159668,-0.7871094,-0.07861328,0.03808594,0.3422852,0.1030273
706,20.6875,10.875,-13.625,0.1054688,-0.7250977,-0.07080078,0.03808594,0.3447266,0.1000977
710,11.375,9.6875,-8.8125,0.07470703,-0.6860352,-0.03613281,0.03417969,0.3461914,0.1000977
714,3.5,8.3125,-0.75,0.09033203,-0.8066406,-0.07080078,0.03564453,0.3486328,0.09912109
718,2.6875,15.3125,8.75,0.1328125,-0.9233398,-0.1401367,0.03417969,0.3500977,0.09912109
722,4.625,25.6875,14.875,0.1054688,-0.9619141,-0.1513672,0.03808594,0.347168,0.09912109
726,2.6875,30.25,15.9375,0.0009765625,-0.8764648,-0.1206055,0.03662109,0.3500977,0.1000977
730,-1.3125,27.375,13.625,-0.05273438,-0.8261719,-0.06689453,0.03662109,0.3500977,0.09912109
734,-7.5625,22.9375,9.875,-0.06445313,-0.7910156,-0.07080078,0.03808594,0.3500977,0.1044922
738,-10.625,21.625,12,-0.03320313,-0.8764648,-0.06298828,0.03808594,0.3486328,0.1030273
742,-12.25,23.1875,13.375,-0.06445313,-0.9038086,-0.112793,0.03662109,0.3486328,0.1030273
746,-11.5625,19.8125,9.5625,-0.09912109,-0.9506836,-0.1401367,0.0390625,0.3500977,0.105957
750,-6.0625,9.1875,10.625,-0.1186523,-0.9194336,-0.1513672,0.03662109,0.3486328,0.1069336
754,-4.9375,-1.5,7.25,-0.08789063,-0.8647461,-0.1630859,0.03808594,0.3447266,0.1083984
758,-6.4375,-6.75,3.5,-0.04882813,-0.8725586,-0.1743164,0.04052734,0.3461914,0.1083984
762,-7.6875,-8.125,2.1875,-0.03710938,-0.8300781,-0.1821289,0.04150391,0.3461914,0.1113281
766,-10.3125,-9.625,2.1875,-0.03710938,-0.8144531,-0.1899414,0.04052734,0.3447266,0.1098633
770,-11.875,-9.375,0.9375,-0.02197266,-0.8535156,-0.2089844,0.04052734,0.3422852,0.1113281
774,-10.25,-12.3125,0.25,-0.04101563,-0.8764648,-0.2670898,0.04248047,0.34375,0.1123047
778,-3.9375,-19.25,1.125,-0.04101563,-0.8686523,-0.2744141,0.04248047,0.3413086,0.1152344
783,1.75,-24.5,2.25,-0.02197266,-0.7871094,-0.2514648,0.04150391,0.3398438,0.1113281
787,4.875,-27.1875,1.8125,-0.02978516,-0.7094727,-0.2363281,0.04248047,0.3413086,0.1123047
791,6.5625,-27.375,3.6875,-0.002441406,-0.6821289,-0.1977539,0.04736328,0.3398438,0.1083984
795,0.6875,-26.375,3.75,0.01660156,-0.6977539,-0.2363281,0.04736328,0.3398438,0.1098633
799,-1.8125,-20.3125,-0.125,0.04736328,-0.7871094,-0.2939453,0.04638672,0.3359375,0.1083984
803,3.5625,-14.75,-3.25,0.02050781,-0.7680664,-0.3012695,0.04736328,0.3359375,0.1083984
807,9.5,-15,-3.1875,-0.01806641,-0.6899414,-0.2744141,0.04980469,0.3349609,0.1044922
811,7.6875,-16.4375,-0.625,0.008789063,-0.7055664,-0.2670898,0.04492188,0.3325195,0.1030273
815,3.3125,-18.0625,1.5625,0.02050781,-0.8105469,-0.2939453,0.04638672,0.3310547,0.1015625
819,4.4375,-17.125,3.6875,0.04736328,-0.9233398,-0.3398438,0.04736328,0.3300781,0.09765625
823,11.25,-15.0625,0.5,0.02050781,-0.9311523,-0.34375,0.04980469,0.3300781,0.09619141
827,18.4375,-12.8125,-3.1875,0.0009765625,-0.9155273,-0.3325195,0.04882813,0.3276367,0.09326172
831,25.0625,-11.5,-3.8125,-0.006347656,-0.9233398,-0.2631836,0.04736328,0.3286133,0.09228516
835,25.125,-12.625,-4.6875,0.01269531,-0.9233398,-0.2055664,0.05078125,0.3276367,0.08789063
839,24.75,-13,-4.4375,0.03955078,-0.9541016,-0.1708984,0.05078125,0.3276367,0.08251953
843,26.8125,-12.0625,-3.875,0.01269531,-0.8881836,-0.1513672,0.05078125,0.3261719,0.07861328
847,25,-12.875,-4.125,0.0009765625,-0.8183594,-0.112793,0.05078125,0.3261719,0.07324219
851,21.5,-10.9375,6.0625,0.02832031,-0.8881836,-0.09765625,0.05224609,0.324707,0.06884766
855,17.5625,-0.1875,13.75,0.05908203,-0.9775391,-0.1054688,0.05322266,0.324707,0.06347656
859,10.875,14.375,7.6875,0.02441406,-1.024414,-0.1245117,0.0546875,0.3222656,0.06201172
863,11.6875,19.8125,1.3125,-0.08007813,-1.094238,-0.1323242,0.0546875,0.3212891,0.06201172
867,19.625,10.9375,-6.375,-0.1728516,-1.032227,-0.1435547,0.05566406,0.3198242,0.05810547
871,27.375,-7.8125,-11.125,-0.1806641,-1.02832,-0.1323242,0.0546875,0.3164063,0.05664063
875,34.625,-21.5625,-7.875,-0.08398438,-1.02832,-0.06689453,0.05224609,0.3173828,0.05126953
879,33.0625,-24.375,-1.5,0.01660156,-0.9736328,-0.02441406,0.05566406,0.3173828,0.04882813
883,21.9375,-13.875,-0.5,0.08251953,-0.9736328,0.001953125,0.04980469,0.3134766,0.04296875
887,13.75,7.0625,-3.3125,0.08642578,-0.9931641,-0.001464844,0.05322266,0.3134766,0.04052734
891,6.6875,23.875,-13.75,0.04345703,-1.024414,-0.04003906,0.05078125,0.3110352,0.0390625
895,11.8125,27.4375,-16.3125,-0.04492188,-1.062988,-0.06689453,0.0546875,0.3125,0.04052734
899,17.9375,12.3125,-14.5,-0.1225586,-1.004883,-0.05517578,0.04882813,0.3100586,0.03759766
903,19.6875,-10.125,-4.8125,-0.06835938,-1.043945,-0.01318359,0.04736328,0.3076172,0.03515625
907,21.9375,-22.125,7.1875,0.03955078,-1.059082,0.005859375,0.05224609,0.3076172,0.03369141
912,16.625,-14.6875,9.6875,0.1015625,-1.040039,-0.009277344,0.05322266,0.3046875,0.02832031
916,11.1875,2.5625,3.4375,0.09033203,-1.05127,-0.01318359,0.05078125,0.3012695,0.02978516
920,7.9375,12.375,-5.875,0.02832031,-1.08252,-0.04394531,0.05224609,0.2998047,0.02832031
924,9.375,10.6875,-7.4375,-0.002441406,-1.117676,-0.05126953,0.04980469,0.2988281,0.02539063
928,12.1875,-0.1875,-4.5,-0.01416016,-1.070801,-0.02832031,0.05078125,0.2963867,0.02539063
932,10.75,-9.5625,1.6875,0.01269531,-1.036133,-0.009277344,0.04736328,0.2949219,0.02392578
936,10.5,-8.9375,5.0625,0.05908203,-1.047363,-0.03222656,0.04882813,0.293457,0.02685547
940,11.375,1.4375,2.75,0.07470703,-1.059082,-0.07470703,0.04882813,0.2910156,0.02294922
944,11.3125,13.6875,-5.1875,0.07861328,-1.074707,-0.06298828,0.04638672,0.2910156,0.02294922
948,8.9375,16.125,-9.8125,0.04345703,-1.08252,-0.05908203,0.04492188,0.2900391,0.02294922
952,8.8125,11.125,-7.625,0.04736328,-1.055176,-0.01318359,0.04394531,0.2875977,0.02294922
956,8.125,9.5,0.0625,0.06689453,-1.062988,-0.02050781,0.04394531,0.2875977,0.02148438
960,11,16.6875,7.375,0.05517578,-1.047363,-0.03613281,0.04248047,0.2851563,0.02392578
964,11.375,25.8125,5,-0.01025391,-1.024414,-0.04003906,0.04248047,0.2851563,0.02392578
968,9.6875,32.1875,-7.5625,-0.04101563,-1.066895,-0.05517578,0.04248047,0.2851563,0.02294922
972,19.75,24.5,1.5,-0.03710938,-1.338867,-0.1245117,0.04150391,0.28125,0.02294922
976,19.25,12.3125,-9.125,-0.09912109,-0.9038086,0.03271484,0.04052734,0.2822266,0.02001953
980,7.3125,2.125,-18.9375,-0.04492188,-1.047363,0.05566406,0.03808594,0.2797852,0.02001953
984,16.5,1.25,-18.8125,-0.03710938,-1.074707,-0.03613281,0.03808594,0.2797852,0.01855469
988,20.25,2.3125,-26.8125,-0.02978516,-1.036133,-0.1054688,0.03564453,0.2788086,0.01855469
992,26.75,3.5625,-36.5625,0.0009765625,-1.102051,-0.08203125,0.03076172,0.2797852,0.01611328
996,38.125,-7,-33.875,0.02441406,-1.08252,-0.04003906,0.02832031,0.2797852,0.01611328
1000,46.75,-7.3125,-23.8125,0.1289063,-1.102051,-0.02832031,0.0234375,0.28125,0.01171875
1004,53.875,8.5,-18,0.1054688,-1.059082,-0.01660156,0.01904297,0.28125,0.009277344
1008,51.5,23.6875,-27.25,0.06298828,-1.062988,-0.02441406,0.01904297,0.2797852,0.004882813
1012,44.1875,32.75,-37.125,0.02441406,-1.167969,0.009765625,0.01513672,0.2788086,0.0009765625
1016,44.6875,12.1875,-34.8125,-0.07617188,-1.245605,0.08642578,0.01269531,0.2788086,0
1020,48.625,-22.5625,-31,-0.02587891,-1.308105,0.1132813,0.004394531,0.2797852,-0.00390625
1024,51.1875,-50.6875,-22.3125,0.1445313,-1.265137,0.09814453,0.004394531,0.2797852,-0.006835938
1028,39.8125,-48.9375,-17.0625,0.3378906,-1.175781,0.04443359,0.005859375,0.28125,-0.01074219
1032,20,-21.875,-11.25,0.5009766,-1.15625,0.04785156,0.0009765625,0.28125,-0.01220703
1036,-1.875,5.5625,-0.625,0.4272461,-1.140625,0.08251953,0,0.28125,-0.01220703
1041,-18.5625,16.375,10.0625,0.2758789,-1.15625,0.08251953,0.004394531,0.28125,-0.01367188
1045,-23.6875,12.1875,15.875,0.1635742,-1.21875,0.05957031,0.004394531,0.28125,-0.01220703
1049,-21.6875,8.625,19.4375,0.1171875,-1.207031,0.01708984,0.004394531,0.28125,-0.009277344
1053,-20.3125,3.625,18.75,0.06298828,-1.167969,0.009765625,0.005859375,0.2822266,-0.009277344
1057,-17.25,-3.25,16.9375,0.03564453,-1.136719,0.02880859,0.008300781,0.2822266,-0.006835938
1061,-17.5,-9.1875,8.25,0.03564453,-1.078613,0.07128906,0.01171875,0.2822266,-0.008300781
1065,-21.9375,-14.125,-1.375,0.06298828,-1.070801,0.05957031,0.009277344,0.28125,-0.00390625
1069,-24.3125,-14.75,-3.6875,0.1289063,-1.121582,0.07910156,0.009277344,0.28125,-0.002441406
1073,-27.75,-11.5625,-6.375,0.1484375,-1.160156,0.06738281,0.009277344,0.2822266,-0.001464844
1077,-29.125,-12.125,-6.0625,0.1445313,-1.21875,0.06347656,0.009277344,0.2822266,0.002441406
1081,-27.8125,-15.125,-2.0625,0.1713867,-1.296387,0.001953125,0.006835938,0.2822266,0.002441406
1085,-21.5,-17.3125,6.5,0.1870117,-1.334961,0.001953125,0.008300781,0.2822266,0.00390625
1089,-20.6875,-17.5,10.3125,0.190918,-1.323242,-0.02441406,0.01171875,0.2836914,0.0078125
1093,-28.75,-12.4375,9.3125,0.159668,-1.265137,0.009765625,0.01416016,0.2851563,0.0078125
1097,-41.6875,-6.3125,2.9375,0.1518555,-1.249512,-0.009277344,0.01269531,0.2851563,0.01074219
1101,-48.9375,0.5625,-1.3125,0.125,-1.304199,-0.06298828,0.01660156,0.2861328,0.01074219
1105,-46.8125,-4.5,-2.25,0.05908203,-1.362305,-0.09375,0.01513672,0.2875977,0.01708984
1109,-37.5,-20.6875,4,-0.01025391,-1.362305,-0.09375,0.01757813,0.2900391,0.01708984
1113,-27.5625,-39.375,13.5,0.01269531,-1.308105,-0.03613281,0.01660156,0.2910156,0.02148438
1117,-24.875,-47,9.1875,0.06689453,-1.207031,-0.01660156,0.01904297,0.293457,0.02392578
1121,-18.8125,-45.875,-1,0.01660156,-1.167969,0.01708984,0.02246094,0.2963867,0.02294922
1125,-19.4375,-52.625,-2.5,0.01269531,-0.9931641,0.1289063,0.02001953,0.2963867,0.02685547
1129,-39.3125,-42.5,-1.75,0.2333984,-0.9892578,0.1865234,0.02148438,0.2988281,0.02685547
1133,-62.5,-10.1875,2,0.3959961,-1.11377,0.1748047,0.02246094,0.3012695,0.03222656
1137,-75.375,14.1875,17.75,0.3457031,-1.148438,0.07128906,0.02001953,0.3022461,0.0390625
1141,-72.8125,25.125,36.5,0.2758789,-1.203125,-0.07470703,0.0234375,0.3037109,0.04589844
1145,-59.6875,21.6875,48.625,0.05126953,-1.102051,-0.03222656,0.02734375,0.3037109,0.05419922
1149,-58.25,-3.875,44.375,-0.08007813,-0.9467773,0.02880859,0.02832031,0.3046875,0.05810547
1153,-57.375,-28.375,32.4375,-0.006347656,-1.055176,0.02490234,0.03417969,0.3076172,0.06640625
1157,-44.1875,-42.8125,31.75,0.09765625,-1.059082,0.01708984,0.03808594,0.3061523,0.07177734
1161,-35.9375,-46.4375,41.5625,0.206543,-1.024414,-0.07080078,0.04150391,0.3076172,0.07714844
1165,-23.4375,-37,53.25,0.2724609,-1.066895,-0.1782227,0.04638672,0.3076172,0.08007813
1170,-6.5,-21.25,60.9375,0.2104492,-0.9736328,-0.2285156,0.05322266,0.3085938,0.08398438
1174,-12.25,-6.0625,49.25,0.03955078,-0.387207,0.02880859,0.05810547,0.3100586,0.08105469
1178,-61.8125,8.6875,13.125,0.04736328,-0.3598633,-0.009277344,0.06396484,0.3100586,0.08789063
1182,-79.875,28.25,-2.375,0.1132813,-0.7368164,-0.03222656,0.06152344,0.3100586,0.09765625
1186,-72.8125,41.4375,1.75,0.08642578,-0.8881836,-0.2055664,0.05957031,0.3076172,0.1044922
1190,-67.5,48.8125,11.8125,0.05908203,-1.012695,-0.4282227,0.05957031,0.3061523,0.1166992
1194,-41.75,48.625,26.5,-0.04101563,-1.175781,-0.4975586,0.05957031,0.3046875,0.125
1198,-4.75,32.9375,40.625,-0.246582,-0.8647461,-0.4169922,0.05810547,0.3022461,0.1303711
1202,-7.5625,3.5625,35.1875,-0.3164063,-0.5737305,-0.3168945,0.06054688,0.3037109,0.1313477
1206,-22.8125,-1.8125,20.625,-0.1264648,-0.7368164,-0.2128906,0.06542969,0.3022461,0.1342773
1210,-36.625,16.5,7.0625,-0.05664063,-0.8417969,-0.3745117,0.06787109,0.3037109,0.1411133
1214,-36.1875,35.0625,0.875,-0.04492188,-1.032227,-0.4628906,0.06640625,0.3037109,0.1450195
1218,-18.1875,35.75,5.1875,-0.1572266,-1.047363,-0.6479492,0.06396484,0.3022461,0.1518555
1222,12.6875,20.625,19.1875,-0.2700195,-0.9194336,-0.5283203,0.06542969,0.3022461,0.1533203
1226,10.3125,5.375,3.3125,-0.2231445,-0.484375,-0.3129883,0.06542969,0.3046875,0.1547852
1230,-4.125,-1.625,-11.1875,-0.1499023,-0.7211914,-0.2978516,0.06542969,0.3061523,0.1601563
1234,6.5,-3.6875,-15.9375,-0.04492188,-0.8183594,-0.4399414,0.06787109,0.3061523,0.1601563
1238,20.25,4.4375,-6,0.1831055,-0.8339844,-0.4594727,0.06640625,0.3110352,0.1616211
1242,23.5,24.6875,5.875,0.1518555,-0.5581055,-0.4091797,0.06640625,0.3110352,0.1616211
1246,8.8125,45.125,15.375,0.1328125,-0.5776367,-0.3901367,0.06640625,0.3149414,0.1601563
1250,2.5,64.0625,13.5,0.03564453,-0.8574219,-0.378418,0.06640625,0.3134766,0.1640625
1254,0.375,61,8.3125,-0.2080078,-1.004883,-0.4936523,0.06640625,0.3149414,0.1669922
1258,5.875,43.9375,-2.6875,-0.2192383,-1.183594,-0.5361328,0.06396484,0.3173828,0.168457
1262,28.375,31.875,-6.25,-0.1689453,-1.140625,-0.4746094,0.06152344,0.3188477,0.1699219
1266,44.0625,27.3125,0,-0.1650391,-0.8261719,-0.2978516,0.06298828,0.3237305,0.1699219
1270,32.875,23.5625,6.875,-0.1030273,-0.7172852,-0.2324219,0.06054688,0.324707,0.1699219
1274,24.6875,41.3125,-1.0625,0.03955078,-1.136719,-0.4248047,0.06054688,0.3300781,0.1669922
1278,45.625,57.5,-3.8125,-0.2041016,-0.9428711,-0.2783203,0.06054688,0.3359375,0.168457
1282,33.4375,32.0625,-21.6875,-0.3320313,-0.5463867,-0.02050781,0.05957031,0.3398438,0.168457
1286,27.125,1.4375,-21.625,-0.2119141,-0.6977539,0.1171875,0.05566406,0.34375,0.1669922
1290,31.375,-18,-5.6875,-0.07617188,-0.6899414,0.005859375,0.05224609,0.3486328,0.1669922
1294,23.8125,-14.0625,-2,0.1054688,-0.8725586,-0.2783203,0.05957031,0.3525391,0.1630859
1299,25.3125,10.8125,-5.625,0.09033203,-0.8417969,-0.2631836,0.05810547,0.3549805,0.1630859
1303,16.8125,19.8125,-10.5625,-0.07617188,-0.6821289,-0.1206055,0.05957031,0.3588867,0.1630859
1307,4.125,9.125,-12.25,-0.1264648,-0.6860352,-0.03613281,0.05712891,0.3613281,0.1640625
1311,-3.25,0.8125,-10.9375,0.02441406,-0.8803711,-0.128418,0.0546875,0.3613281,0.1640625
1315,3.25,2.25,2.4375,0.08251953,-0.8647461,-0.1669922,0.05712891,0.3598633,0.1630859
1319,-1.625,11.1875,10.6875,0.01660156,-0.7133789,-0.07470703,0.05322266,0.3598633,0.1640625
1323,-13.5625,10.0625,9.125,-0.1186523,-0.7094727,-0.04736328,0.05322266,0.3598633,0.1655273
1327,-18.1875,-3.25,5,-0.1689453,-0.7949219,-0.112793,0.05566406,0.3574219,0.168457
1331,-16.5625,-14.1875,4.1875,-0.05664063,-0.8647461,-0.2285156,0.05566406,0.3549805,0.1699219
1335,-16.375,-6.6875,4.625,-0.002441406,-0.8613281,-0.359375,0.0546875,0.3525391,0.1699219
1339,-16.625,2.875,2.25,-0.08398438,-0.8417969,-0.3051758,0.05322266,0.3500977,0.1708984
1343,-16.6875,-2.5,-0.75,-0.1689453,-0.7832031,-0.2553711,0.05566406,0.3500977,0.1708984
1347,-15.125,-20.125,-3.625,-0.1884766,-0.7719727,-0.2128906,0.0546875,0.347168,0.1723633
1351,-12.875,-37.4375,-2.6875,-0.1147461,-0.7753906,-0.3745117,0.0546875,0.34375,0.1723633
1355,-5.5,-34.75,-0.875,0.04345703,-0.8222656,-0.4169922,0.05566406,0.34375,0.1708984
1359,-1.75,-20.8125,0.3125,0.02441406,-0.6591797,-0.3515625,0.05712891,0.34375,0.1699219
1363,-10.5625,-10.625,-2.1875,-0.02978516,-0.5424805,-0.2324219,0.05566406,0.3398438,0.1669922
1367,-22.125,-11.25,-4.375,-0.1186523,-0.6279297,-0.2670898,0.05566406,0.3398438,0.1669922
1371,-19.6875,-27.1875,-4.375,-0.08789063,-0.8496094,-0.3901367,0.0546875,0.3359375,0.1669922
1375,-2,-40.3125,0.8125,-0.05664063,-0.8339844,-0.4130859,0.05322266,0.3310547,0.1630859
1379,6.5625,-47.8125,5.4375,0.02832031,-0.7016602,-0.3706055,0.05322266,0.3325195,0.1601563
1383,5.5,-34.625,6.3125,0.08642578,-0.6279297,-0.2324219,0.05810547,0.3310547,0.1547852
1387,-8.75,-12.5625,3.0625,0.08251953,-0.6474609,-0.2167969,0.05810547,0.3286133,0.1518555
1391,-23.9375,3.25,-5,-0.03320313,-0.8144531,-0.3476563,0.05566406,0.3261719,0.1518555
1395,-19.875,-7.9375,-15,-0.1225586,-1.062988,-0.5244141,0.0546875,0.3237305,0.1494141
1399,7.8125,-32.0625,-12.75,-0.1225586,-1.047363,-0.5053711,0.05224609,0.3212891,0.1479492
1403,28.25,-46.8125,-10.0625,-0.06835938,-0.7871094,-0.3359375,0.05322266,0.3198242,0.1425781
1407,25.3125,-41.4375,-2.875,0.07861328,-0.7290039,-0.2055664,0.0546875,0.3212891,0.137207
1411,11.8125,-20.0625,3,0.1171875,-0.8378906,-0.1362305,0.05566406,0.3198242,0.1313477
1415,-1,-8.8125,-0.875,0.03955078,-0.9892578,-0.2089844,0.05810547,0.3212891,0.1289063
1419,5.125,-10.75,-6.3125,-0.01806641,-1.074707,-0.2363281,0.05712891,0.3164063,0.1274414
1423,16.125,-17.6875,-5.9375,-0.03710938,-0.9580078,-0.2705078,0.05566406,0.3164063,0.1235352
1428,21.1875,-19.8125,-7.1875,0.008789063,-0.8613281,-0.2016602,0.05712891,0.3173828,0.1181641
1432,15.9375,-14.5,-0.25,0.08251953,-0.9272461,-0.1513672,0.05810547,0.3188477,0.1137695
1436,8.125,-5.25,5.8125,0.109375,-0.9697266,-0.1513672,0.05712891,0.3164063,0.1083984
1440,5.25,3.875,6.6875,0.03955078,-1.062988,-0.1821289,0.05810547,0.3134766,0.1069336
1444,12.25,2.25,5.0625,-0.06054688,-1.074707,-0.2246094,0.05810547,0.3125,0.105957
1448,25.0625,-16.1875,5.25,-0.1147461,-1.040039,-0.2631836,0.05957031,0.3125,0.1044922
1452,34.6875,-31.4375,12.6875,-0.002441406,-0.9892578,-0.2246094,0.05810547,0.3110352,0.09912109
1456,30.375,-20.4375,17.875,0.125,-0.9506836,-0.1782227,0.06054688,0.3100586,0.09326172
1460,22.4375,3.5625,20.625,0.1132813,-0.9931641,-0.1435547,0.06542969,0.3100586,0.08691406
1464,14.625,23.1875,20.6875,0.02050781,-0.9580078,-0.109375,0.06542969,0.3061523,0.08691406
1468,5.6875,25.875,18.625,-0.09912109,-1.032227,-0.1435547,0.06640625,0.3037109,0.08251953
1472,12.625,11.3125,18.5,-0.1342773,-1.160156,-0.2246094,0.06787109,0.3037109,0.08251953
1476,29.9375,-4.0625,21.5625,-0.1420898,-1.11377,-0.2670898,0.06884766,0.3022461,0.07714844
1480,38.8125,-9.875,24.75,-0.09521484,-1.004883,-0.2397461,0.07226563,0.2998047,0.07324219
1484,37.25,-0.5625,24.25,-0.04101563,-0.9931641,-0.2089844,0.07470703,0.2998047,0.06787109
1488,33.0625,19.125,23.875,-0.02197266,-1.059082,-0.1591797,0.08056641,0.2988281,0.06347656
1492,25.25,31.75,19.25,-0.1264648,-1.078613,-0.1362305,0.08056641,0.2949219,0.06103516
1496,20.3125,28.4375,11.4375,-0.2543945,-1.090332,-0.112793,0.08056641,0.2949219,0.05664063
1500,23.25,11.75,3.5625,-0.3007813,-1.129395,-0.1245117,0.08203125,0.2924805,0.05517578
1504,32.8125,-1.375,-1.25,-0.2851563,-1.074707,-0.1513672,0.08300781,0.2924805,0.05273438
1508,35.3125,-10.0625,-7.375,-0.1611328,-1.078613,-0.1435547,0.07958984,0.2900391,0.04980469
1512,39.5,-10,-6.0625,-0.07617188,-1.090332,-0.128418,0.07714844,0.2900391,0.04736328
1516,40.1875,-11.875,1.625,-0.02978516,-1.040039,-0.1206055,0.07714844,0.2900391,0.04199219
1520,39.5,-4.1875,6.0625,-0.01416016,-1.012695,-0.1206055,0.08056641,0.2885742,0.03613281
1524,36.4375,6.8125,6.875,-0.1030273,-0.9233398,-0.08203125,0.07714844,0.2861328,0.03515625
1528,26,15.3125,-2,-0.1225586,-0.9428711,-0.05517578,0.07861328,0.2875977,0.02978516
1532,21.0625,20.6875,-8.875,-0.1572266,-1.078613,-0.04003906,0.07861328,0.2851563,0.02978516
1536,26.0625,11.9375,-9.3125,-0.1728516,-1.1875,-0.03222656,0.07617188,0.2822266,0.02832031
1540,35.3125,-1.375,-5.875,-0.1650391,-1.203125,-0.03222656,0.07617188,0.2822266,0.02539063
1544,39.875,-7.3125,-0.25,-0.1650391,-1.098145,0.01708984,0.07470703,0.28125,0.02392578
1548,35.0625,-4.625,-6.375,-0.1650391,-1.070801,0.03271484,0.07861328,0.2797852,0.02148438
1552,28.875,1.25,-17.9375,-0.1381836,-1.070801,0.04785156,0.07373047,0.2797852,0.01708984
1557,33.625,1.9375,-9.125,-0.04492188,-1.15625,0.1328125,0.07128906,0.2788086,0.01611328
1561,9.5625,3.5625,-24.6875,-0.1572266,-0.8803711,0.125,0.07226563,0.2788086,0.01171875
1565,-2.25,-4.8125,-27.75,-0.06445313,-1.1875,0.1367188,0.06982422,0.2797852,0.01464844
1569,11.8125,-7.4375,-18.875,-0.05664063,-1.1875,0.01708984,0.06640625,0.2797852,0.01171875
1573,13.1875,-9.5,-21.375,-0.06835938,-1.136719,-0.07470703,0.06396484,0.2788086,0.01464844
1577,13.375,-13.75,-24.6875,-0.03320313,-1.152344,-0.05517578,0.06152344,0.2788086,0.01318359
1581,9.8125,-15.1875,-22.875,0.08251953,-1.152344,-0.03222656,0.05957031,0.2788086,0.01074219
1585,5.5,-7.375,-18.375,0.1289063,-1.167969,-0.02050781,0.05322266,0.2788086,0.01464844
1589,1,1.375,-11.625,0.07861328,-1.140625,-0.07470703,0.05322266,0.2788086,0.01074219
1593,0,7.375,-7.0625,0.01660156,-1.171875,-0.1362305,0.05224609,0.2788086,0.01171875
1597,1.5625,7.5625,-7.5,-0.03320313,-1.233887,-0.1474609,0.04882813,0.2788086,0.01464844
1601,9.375,-3.1875,-5.3125,-0.06445313,-1.233887,-0.0859375,0.04736328,0.2797852,0.01171875
1605,9.25,-15.5625,-5.5,-0.03320313,-1.167969,-0.04736328,0.04736328,0.2788086,0.01171875
1609,8.125,-17.8125,-3.125,0.008789063,-1.136719,-0.001464844,0.05078125,0.2788086,0.01318359
1613,1.1875,-11.9375,-3.4375,0.05126953,-1.098145,-0.009277344,0.04980469,0.2773438,0.009277344
1617,-5.75,2.5625,-6.375,0.04345703,-1.117676,-0.005371094,0.04882813,0.2788086,0.01171875
1621,-9.9375,8.0625,-6.6875,-0.01025391,-1.167969,-0.01318359,0.04980469,0.2788086,0.01171875
1625,-6,6.25,-8.4375,-0.08007813,-1.15625,0.009765625,0.05078125,0.2797852,0.01171875
1629,-8.8125,-2,-13.375,-0.08007813,-1.105957,0.01708984,0.04736328,0.2797852,0.01318359
1633,-11,-5.5,-16.1875,-0.04492188,-1.129395,0.02099609,0.04736328,0.2788086,0.01318359
1637,-16.625,-5.5,-16.3125,-0.002441406,-1.098145,0.03662109,0.04736328,0.28125,0.01318359
1641,-23.125,-1,-13.4375,0.06298828,-1.175781,0.01367188,0.04492188,0.2797852,0.01611328
1645,-24.25,7.8125,-9.875,0.06689453,-1.207031,-0.009277344,0.04150391,0.28125,0.01708984
1649,-23.8125,8.25,-5.6875,0.01269531,-1.237793,-0.04394531,0.04150391,0.28125,0.01855469
1653,-21.6875,2.25,-2.25,-0.03320313,-1.1875,-0.03222656,0.04150391,0.28125,0.02294922
1657,-27.6875,-12.3125,-0.5625,-0.07226563,-1.183594,-0.02441406,0.0390625,0.28125,0.02148438
1661,-30.375,-25.9375,3.625,-0.01806641,-1.272949,-0.01660156,0.04052734,0.2822266,0.02685547
1665,-32.4375,-40.5,8.3125,-0.07226563,-1.226563,-0.02050781,0.04150391,0.2822266,0.02978516
1669,-35.5625,-56.6875,10.6875,-0.01416016,-1.237793,-0.06689453,0.04248047,0.2797852,0.02978516
1673,-34.625,-59.9375,4.875,0.01269531,-1.148438,-0.112793,0.04492188,0.2836914,0.03515625
1677,-39.9375,-61,-5.125,0.02832031,-1.133301,-0.1743164,0.04736328,0.2861328,0.03613281
1681,-35.8125,-63.0625,-6.875,0.09033203,-1.15625,-0.1821289,0.04882813,0.2861328,0.03613281
1686,-30.5625,-60,-0.8125,0.1557617,-1.148438,-0.1899414,0.05224609,0.2885742,0.03759766
1690,-28.5625,-49.9375,9.625,0.1791992,-1.152344,-0.2207031,0.05224609,0.2885742,0.04199219
1694,-22.3125,-37,20.3125,0.159668,-1.226563,-0.2397461,0.05322266,0.2885742,0.04052734
1698,-17.5,-20.1875,24.625,0.1132813,-1.090332,-0.1743164,0.05810547,0.2900391,0.04199219
1702,-35,-2.875,9.5625,0.02832031,-0.9697266,-0.1860352,0.05957031,0.2910156,0.04443359
1706,-43.375,7.125,-0.75,-0.04101563,-1.144531,-0.1743164,0.05810547,0.2910156,0.04882813
1710,-39.5,6.375,-4.0625,-0.1108398,-1.210938,-0.1743164,0.05957031,0.2924805,0.05273438
1714,-33.25,1.375,-3.1875,-0.1108398,-1.237793,-0.1591797,0.06054688,0.2949219,0.05664063
1718,-23.0625,-5.0625,4.8125,-0.07617188,-1.280762,-0.2055664,0.05810547,0.2949219,0.06103516
1722,-8.4375,-2.875,21.8125,0.07080078,-1.362305,-0.2592773,0.05957031,0.2988281,0.06201172
1726,0.4375,16.875,23.625,0.04736328,-1.032227,-0.128418,0.06152344,0.2998047,0.06494141
1730,-38,36,-5.75,-0.06445313,-0.7832031,-0.112793,0.06152344,0.3012695,0.06494141
1734,-50.375,40.6875,-23.3125,-0.1499023,-1.11377,-0.109375,0.06054688,0.3012695,0.0703125
1738,-38.5625,24.9375,-25.4375,-0.1923828,-1.148438,-0.1323242,0.05566406,0.3037109,0.07861328
1742,-26.25,4.25,-24.4375,-0.1147461,-1.214844,-0.1821289,0.05810547,0.3076172,0.08105469
1746,-5.25,-8.9375,-13.125,0.01269531,-1.183594,-0.2514648,0.0546875,0.3076172,0.08398438
1750,12.75,-10.8125,0,0.08642578,-1.020508,-0.2128906,0.05322266,0.3110352,0.08691406
1754,6.625,-6,-4.9375,0.08251953,-0.7563477,-0.112793,0.05322266,0.3149414,0.08544922
1758,-27.1875,4.9375,-36,0.1054688,-0.6787109,-0.08203125,0.05224609,0.3164063,0.08789063
1762,-39.0625,5.875,-52.125,0.109375,-0.9580078,-0.07861328,0.04882813,0.3198242,0.09472656
1766,-29.5,-2.375,-52.25,0.08642578,-0.9541016,-0.2055664,0.04248047,0.3198242,0.1000977
1770,-15,-17.375,-40.875,0.1210938,-0.9814453,-0.3286133,0.03662109,0.3222656,0.1030273
1774,8.125,-26.3125,-25.5,0.1791992,-1.055176,-0.4555664,0.03564453,0.3261719,0.1069336
1778,28.75,-26.6875,-21.4375,0.206543,-0.8803711,-0.4516602,0.03320313,0.3276367,0.1083984
1782,22.625,-18.5625,-32,0.2104492,-0.7290039,-0.4130859,0.03173828,0.3310547,0.105957
1786,18.25,-4.5625,-46.875,0.206543,-0.7602539,-0.3168945,0.02832031,0.3374023,0.1044922
1790,27.9375,7.9375,-41.9375,0.1987305,-0.5854492,-0.1435547,0.02587891,0.3398438,0.105957
1794,8,11.9375,-43.875,0.1518555,-0.6899414,-0.2324219,0.02148438,0.3447266,0.1044922
1798,19.6875,16.3125,-24.875,0.1987305,-0.9389648,-0.2089844,0.01416016,0.3486328,0.1044922
1802,35.6875,25.0625,1.25,0.140625,-0.7680664,-0.2246094,0.01660156,0.3525391,0.1044922
1806,29.5,35.875,6.3125,-0.01025391,-0.6396484,-0.05517578,0.01513672,0.3574219,0.1015625
1810,14.4375,39.875,2.6875,-0.08398438,-0.7055664,-0.02832031,0.01660156,0.3613281,0.1000977
1815,12.625,43,-1.3125,-0.1069336,-0.8417969,-0.06689453,0.01757813,0.3613281,0.1000977
1819,22.125,39.3125,10.5,-0.09130859,-0.8647461,-0.1054688,0.01660156,0.3662109,0.09912109
1823,27.8125,35.5625,17.125,-0.04882813,-0.6396484,-0.01318359,0.01904297,0.3701172,0.09912109
1827,14.9375,35.1875,18.0625,-0.06054688,-0.484375,0.005859375,0.01660156,0.3701172,0.09765625
1831,1.75,33.3125,13.5,-0.05273438,-0.5698242,-0.01318359,0.02001953,0.375,0.09765625
1835,-3.625,28.625,5.9375,-0.06835938,-0.7055664,-0.1166992,0.02246094,0.3759766,0.1000977
1839,-0.8125,20.5625,-1.5625,-0.06445313,-0.8183594,-0.2514648,0.02001953,0.375,0.09912109
1843,9.5625,8.0625,-1.5625,-0.1069336,-0.8144531,-0.2705078,0.01904297,0.375,0.1030273
1847,12.875,-5,0.0625,0.0009765625,-0.8339844,-0.2592773,0.02001953,0.3774414,0.09765625
1851,13.6875,-2.375,1.8125,0.09765625,-0.8920898,-0.2128906,0.01904297,0.378418,0.09765625
1855,11.75,2.3125,3.625,0.08251953,-0.8300781,-0.1474609,0.02001953,0.378418,0.09912109
1859,5.25,8.9375,4.0625,0.09375,-0.8300781,-0.1899414,0.02001953,0.3798828,0.09619141
1863,1.125,19.625,3.0625,0.08251953,-0.9619141,-0.2670898,0.02246094,0.3813477,0.09326172
1867,6.9375,23.6875,2.1875,0.008789063,-1.020508,-0.2670898,0.02001953,0.378418,0.09472656
1871,11.5625,15.875,1.875,-0.08007813,-0.9814453,-0.1669922,0.02148438,0.3813477,0.09472656
1875,13.875,6.5,-0.4375,-0.06835938,-0.9350586,-0.1054688,0.02001953,0.3823242,0.09228516
1879,13.5625,-0.1875,-1.5,-0.04101563,-0.9233398,-0.06689453,0.02148438,0.3847656,0.09228516
1883,11.375,-6.4375,-2.5,-0.006347656,-0.8647461,0.01367188,0.01904297,0.3847656,0.08789063
1887,3.625,-6.5,-1.5625,0.05908203,-0.8222656,0.02490234,0.01904297,0.3847656,0.08789063
1891,-8.25,2.0625,-2.8125,0.1289063,-0.8920898,-0.05517578,0.01904297,0.3847656,0.08789063
1895,-9.875,5.75,1.3125,0.08251953,-0.9194336,-0.09765625,0.01757813,0.3847656,0.08691406
1899,-11.5,7.9375,3.1875,0.09375,-0.9658203,-0.1591797,0.01904297,0.3823242,0.08935547
1903,-7.8125,7.375,5.1875,0.05908203,-0.9350586,-0.1782227,0.01904297,0.3837891,0.09082031
1907,-8.375,7.8125,5.5,0.07080078,-0.9467773,-0.1743164,0.01757813,0.3813477,0.09082031
1911,-6,5.0625,6,0.03955078,-0.9350586,-0.1362305,0.01660156,0.3813477,0.09228516
1915,-7.25,2.9375,7.625,0.05126953,-0.9038086,-0.09765625,0.01757813,0.3774414,0.09082031
1919,-9.6875,0.5,6.875,0.02441406,-0.9038086,-0.07470703,0.01757813,0.3759766,0.09326172
1923,-10.8125,-4.1875,5.75,0.02832031,-0.8764648,-0.08203125,0.01904297,0.3774414,0.09326172
1927,-11.375,-5.625,6.875,0.02441406,-0.8183594,-0.0859375,0.01904297,0.3759766,0.09472656
1931,-15.5,-5.875,9,0.04345703,-0.7680664,-0.128418,0.01904297,0.3725586,0.09326172
1935,-20.0625,-2.75,7.6875,0.06298828,-0.8496094,-0.2055664,0.02001953,0.3710938,0.09619141
1939,-18.625,0,5.9375,0.08642578,-0.9892578,-0.3129883,0.02246094,0.3710938,0.09619141
1944,-7.0625,-0.875,8.1875,0.02832031,-0.9580078,-0.3012695,0.02246094,0.3662109,0.09912109
1948,1.125,-6.1875,7.25,0.0009765625,-0.8574219,-0.2363281,0.02148438,0.3647461,0.09765625
1952,4.8125,-11.9375,8.375,-0.01416016,-0.7988281,-0.1669922,0.0234375,0.3637695,0.09619141
1956,0.125,-13.375,7.375,0.05517578,-0.8999023,-0.2167969,0.0234375,0.3623047,0.09472656
1960,-0.3125,-9.125,1.1875,0.1015625,-0.9736328,-0.3325195,0.0234375,0.3613281,0.09472656
1964,6.25,-2.875,-2.25,0.109375,-1.016602,-0.359375,0.0234375,0.3613281,0.09326172
1968,15.6875,-4.0625,-0.9375,0.06689453,-0.9467773,-0.3012695,0.02490234,0.3588867,0.08935547
1972,20.75,-7.875,-0.8125,0.05126953,-0.8881836,-0.1938477,0.0234375,0.3574219,0.08935547
1976,19.375,-11,0.125,0.03955078,-0.8339844,-0.1630859,0.02148438,0.355957,0.08398438
1980,13.875,-12.3125,-1.9375,0.03173828,-0.8496094,-0.1669922,0.02246094,0.3549805,0.08105469
1984,16.9375,-14.625,-7.5625,0.03173828,-0.9116211,-0.1821289,0.02246094,0.3549805,0.07861328
1988,21.8125,-14.8125,-4.4375,0.09375,-0.8959961,-0.1708984,0.02001953,0.3525391,0.07568359
1992,22.9375,-7.5,-0.3125,0.1367188,-0.8999023,-0.09765625,0.0234375,0.3535156,0.07177734
1996,20.5625,-1.75,1.75,0.05126953,-0.8144531,-0.005371094,0.02490234,0.3525391,0.0703125
2000,14.6875,-1.375,0.25,0.004882813,-0.8144531,-0.01660156,0.02490234,0.3525391,0.06640625
2004,11.625,2.25,-5.125,0.004882813,-0.8803711,-0.02441406,0.0234375,0.3510742,0.06347656
2008,11.8125,5.3125,-9.1875,0.004882813,-0.8686523,-0.03222656,0.02587891,0.3500977,0.05957031
2012,10.25,4.9375,-5.8125,-0.01025391,-0.8686523,-0.02050781,0.0234375,0.3486328,0.05957031
2016,8.875,4,-2.9375,-0.01025391,-0.8764648,0.04443359,0.02148438,0.347168,0.05664063
2020,3.6875,3.1875,-4.9375,0.02832031,-0.8842773,0.05566406,0.02246094,0.3461914,0.05419922
2024,-1.1875,5.9375,-6,0.05908203,-0.9428711,-0.001464844,0.02246094,0.34375,0.05419922
2028,-4.125,9.9375,-6.8125,0.04736328,-0.9194336,-0.03613281,0.02246094,0.3398438,0.05419922
2032,-6.5625,11.9375,-8.4375,0.04345703,-0.9233398,-0.01318359,0.02001953,0.3388672,0.05517578
2036,-5,10.3125,-9,0.04736328,-0.9970703,0.03662109,0.01757813,0.3374023,0.05419922
2040,-5.5,2,-5.625,0.08642578,-1.02832,0.05566406,0.01904297,0.3349609,0.05273438
2044,-4.75,-5.75,0.375,0.1674805,-1.078613,0.01708984,0.01513672,0.3310547,0.05517578
2048,-3.125,-2.75,6.625,0.2294922,-1.066895,-0.1054688,0.01757813,0.3300781,0.05126953
2052,-3.4375,8.125,7.0625,0.2104492,-1.020508,-0.1401367,0.01660156,0.3261719,0.05273438
2056,-4.5625,16.375,7,0.1987305,-1.000977,-0.1245117,0.01904297,0.324707,0.05273438
2060,-7.1875,21.8125,8.6875,0.2104492,-1.012695,-0.1245117,0.02148438,0.3222656,0.05273438
2064,-8.0625,23.1875,10.3125,0.1635742,-1.02832,-0.08203125,0.01904297,0.3198242,0.05419922
2068,-6.3125,19.9375,11.25,0.1367188,-1.08252,-0.112793,0.02246094,0.3198242,0.05517578
2073,-0.0625,11.625,13.1875,0.1132813,-1.040039,-0.0859375,0.0234375,0.3173828,0.05419922
2077,1.3125,8.4375,14.5,0.175293,-1.012695,-0.1245117,0.0234375,0.3134766,0.05419922
2081,0.3125,15.625,15.8125,0.206543,-0.9736328,-0.1362305,0.02587891,0.3125,0.05273438
2085,-3.1875,23,16.0625,0.1870117,-1.047363,-0.1669922,0.02587891,0.3100586,0.05419922
2089,-1.75,23.3125,16.375,0.125,-1.059082,-0.1782227,0.02734375,0.3085938,0.05273438
2093,2.625,19.5625,18.375,0.09765625,-1.08252,-0.1860352,0.02587891,0.3037109,0.05273438
2097,5.75,18.0625,18.8125,0.07470703,-1.032227,-0.1899414,0.02734375,0.3046875,0.05273438
2101,5.75,19.875,16.8125,0.1054688,-1.102051,-0.2128906,0.03076172,0.3022461,0.04980469
2105,11.75,22.75,18.5625,0.09033203,-1.117676,-0.2089844,0.02978516,0.2998047,0.05126953
2109,15.1875,20.5625,20.25,0.06298828,-1.059082,-0.2016602,0.03076172,0.2988281,0.04980469
2113,15.375,21.1875,19.375,0.08251953,-1.047363,-0.1630859,0.03076172,0.2973633,0.04882813
2117,15.875,28.375,21.3125,0.05517578,-1.012695,-0.1552734,0.03417969,0.2973633,0.04882813
2121,13.4375,35,19.0625,0.01660156,-1.070801,-0.1821289,0.03564453,0.2963867,0.04589844
2125,15.875,37.4375,14.0625,-0.01806641,-1.136719,-0.2055664,0.03320313,0.293457,0.04736328
2129,22.375,29,11.625,-0.08007813,-1.109863,-0.2207031,0.03808594,0.2924805,0.04443359
2133,26.625,17.125,8.5,-0.08007813,-1.08252,-0.1977539,0.03808594,0.2924805,0.04296875
2137,30.625,14.625,7.25,-0.04882813,-1.078613,-0.1708984,0.03808594,0.2910156,0.0390625
2141,32.1875,18.375,1.625,-0.04492188,-1.05127,-0.1245117,0.04052734,0.2910156,0.03613281
2145,30.125,19.25,-2.4375,-0.01416016,-1.105957,-0.04394531,0.0390625,0.2885742,0.03515625
2149,27.9375,13.75,-6.25,-0.006347656,-1.062988,0.01367188,0.03662109,0.2900391,0.03076172
2153,24.4375,7.625,-7.375,0.03173828,-1.094238,0.04052734,0.03662109,0.2900391,0.03076172
2157,25.5625,4.5,-2.1875,-0.002441406,-1.000977,0.1020508,0.03662109,0.2900391,0.02978516
2161,19.5,1,-0.8125,-0.02587891,-1.012695,0.105957,0.03564453,0.2875977,0.02539063
2165,17.5625,0.1875,-3.5,-0.04101563,-1.024414,0.140625,0.03417969,0.2861328,0.02539063
2169,11.375,-1.6875,-4.6875,0.1171875,-1.11377,0.06738281,0.03320313,0.2861328,0.02148438
2173,22.4375,5.75,1.6875,0.03564453,-0.9389648,0.2250977,0.03417969,0.2875977,0.02148438
2177,-4.5,-0.9375,-6.4375,0.02832031,-0.9736328,0.07519531,0.03076172,0.2861328,0.02001953
2181,-3.1875,0.4375,-6.375,0.09765625,-1.183594,-0.04394531,0.03173828,0.2836914,0.02392578
2185,1.9375,4,-3.25,0.02832031,-1.094238,-0.109375,0.03076172,0.2822266,0.02539063
2189,1,6.5625,-5.25,-0.002441406,-1.148438,-0.1435547,0.03076172,0.2836914,0.02392578
2193,2.1875,11.6875,-11.625,0.02832031,-1.203125,-0.1323242,0.02978516,0.2822266,0.02392578
2197,3.375,8.6875,-11.0625,-0.002441406,-1.233887,-0.1166992,0.02734375,0.2822266,0.02392578
2202,6.9375,-3.4375,-7.8125,0.03173828,-1.191406,-0.112793,0.02978516,0.2836914,0.02294922
2206,7.375,-7.625,-6.875,0.09033203,-1.133301,-0.1513672,0.02734375,0.2822266,0.02392578
2210,3.1875,-1.8125,-8.625,0.1015625,-1.121582,-0.1552734,0.02832031,0.2836914,0.02148438
2214,0.25,-1,-9.4375,0.03955078,-1.117676,-0.1015625,0.02490234,0.2836914,0.02294922
2218,-0.4375,-3.75,-7.125,0.05517578,-1.164063,-0.06689453,0.02490234,0.2836914,0.02294922
2222,4.6875,-9,-1.875,0.04736328,-1.183594,-0.07861328,0.02490234,0.2836914,0.02392578
2226,10.9375,-15,0.875,0.06298828,-1.175781,-0.1323242,0.02246094,0.2822266,0.02392578
2230,12.125,-18.9375,-3.75,0.07080078,-1.117676,-0.128418,0.02246094,0.2836914,0.02001953
2234,6.0625,-18,-9,0.1557617,-1.105957,-0.05517578,0.0234375,0.2836914,0.01708984
2238,1.25,-9,-7.1875,0.2026367,-1.183594,-0.001464844,0.02148438,0.2836914,0.02148438
2242,-3.9375,-3.8125,-4.0625,0.1171875,-1.164063,0.05957031,0.0234375,0.2836914,0.01464844
2246,-11.75,-3.5625,-5.5625,0.05908203,-1.241699,0.06347656,0.02246094,0.2836914,0.01708984
2250,-14.875,-5.375,-7.875,0.03955078,-1.29248,0.04785156,0.02490234,0.2851563,0.01708984
2254,-19.375,-11.1875,-11,0.0009765625,-1.334961,0.01708984,0.0234375,0.2851563,0.02001953
2258,-20.4375,-16.3125,-12.4375,0.03173828,-1.370117,0.005859375,0.02246094,0.2861328,0.02148438
2262,-26.3125,-16.1875,-14.625,0.04345703,-1.350586,0.01708984,0.0234375,0.2851563,0.02148438
2266,-32.9375,-14.5625,-18.75,0.02050781,-1.327148,0.04785156,0.02587891,0.2875977,0.02392578
2270,-42.5,-15.5625,-24.4375,0.03955078,-1.350586,0.01708984,0.02148438,0.2900391,0.02832031
2274,-43.1875,-16.125,-23.1875,0.03173828,-1.358398,0.001953125,0.02001953,0.2900391,0.03076172
2278,-45,-17.75,-22.875,0.04736328,-1.327148,-0.04736328,0.02001953,0.2924805,0.03222656
2282,-42.125,-17.4375,-21.6875,0.08251953,-1.312012,-0.07080078,0.01904297,0.2924805,0.0390625
2286,-37.8125,-17.4375,-16.5625,0.07861328,-1.257324,-0.08203125,0.01513672,0.2949219,0.0390625
2290,-38.875,-18.6875,-17.625,0.06689453,-1.160156,-0.07470703,0.01416016,0.2973633,0.04443359
2294,-39.625,-16.875,-23.75,0.08251953,-1.102051,-0.08984375,0.01269531,0.2988281,0.04736328
2298,-41.4375,-10.75,-28.125,0.1289063,-1.062988,-0.1743164,0.009277344,0.3012695,0.05273438
2302,-42.625,12,-27.5625,0.3691406,-1.043945,-0.2436523,0.006835938,0.3022461,0.05664063
2306,-45.9375,56.6875,-16.9375,0.4697266,-0.9931641,-0.3476563,0.003417969,0.3037109,0.06201172
2310,-39.3125,80.1875,0.5625,0.3149414,-1.133301,-0.4516602,0.003417969,0.3046875,0.06787109
2314,-8.4375,66.5625,14.625,-0.06054688,-1.164063,-0.378418,0.0009765625,0.3085938,0.0703125
2318,15.5625,15.4375,-10.25,-0.328125,-0.8535156,-0.1899414,-0.0009765625,0.3110352,0.0703125
2322,-2.875,-33.3125,-57.125,-0.1342773,-0.8066406,-0.1552734,0,0.3125,0.06884766
2326,6.3125,-56.3125,-65.5625,0.1635742,-1.133301,-0.1054688,-0.0078125,0.3198242,0.0703125
2331,16.8125,-43,-46.375,0.4970703,-1.012695,-0.09375,-0.01269531,0.3212891,0.0703125
2335,9.25,-4.75,-19.6875,0.6210938,-0.9775391,-0.03222656,-0.01416016,0.3237305,0.07177734
2339,-0.9375,29.375,-4.75,0.4116211,-0.8261719,0.04052734,-0.01611328,0.3261719,0.07177734
2343,-23.5625,39.0625,-13.4375,0.2026367,-0.7949219,0.07128906,-0.01855469,0.3300781,0.07324219
2347,-25.8125,32.375,-21.5625,0.08251953,-1.02832,0.06347656,-0.02246094,0.3310547,0.07714844
2351,-17.5,17.25,-26.0625,0.06298828,-0.9892578,0.03662109,-0.02832031,0.3325195,0.07861328
2355,-14.0625,9.5,-24.6875,0.1674805,-1.02832,-0.04003906,-0.03173828,0.3349609,0.08251953
2359,-1.75,9.1875,-8.8125,0.2568359,-1.024414,-0.109375,-0.03662109,0.3349609,0.08398438
2363,7.5,11.3125,5.1875,0.3417969,-0.9350586,-0.1552734,-0.03759766,0.3388672,0.08544922
2367,11.5,22.6875,3,0.190918,-0.534668,0.04785156,-0.03515625,0.3413086,0.08691406
2371,-18.3125,11.1875,-13.6875,0.07080078,-0.6630859,-0.03222656,-0.03759766,0.34375,0.08691406
2375,-8.5,3.375,-20.9375,0.1445313,-0.8881836,-0.08203125,-0.04150391,0.3461914,0.09082031
2379,5.1875,-8.4375,-16.9375,0.1674805,-0.8183594,-0.06298828,-0.04589844,0.347168,0.09228516
2383,13,-16.0625,-4.3125,0.2836914,-0.7094727,-0.06298828,-0.04589844,0.3510742,0.09326172
2387,7.25,-5.5,7.8125,0.4775391,-0.7719727,-0.1977539,-0.04589844,0.3525391,0.09326172
2391,7.4375,19.25,18.5,0.4658203,-0.8183594,-0.2978516,-0.04492188,0.3549805,0.09228516
2395,3.125,37.8125,16.3125,0.3378906,-0.8066406,-0.378418,-0.04492188,0.3598633,0.09082031
2399,2.75,38.8125,4.5,0.1171875,-0.8647461,-0.3359375,-0.04492188,0.3637695,0.09326172
2403,18.8125,20.5,4,0.01660156,-0.9116211,-0.2089844,-0.04589844,0.3671875,0.09228516
2407,28.25,7.8125,4,0.206543,-0.9814453,-0.2978516,-0.04589844,0.3701172,0.09228516
2411,33.875,24.6875,9.8125,0.3691406,-1.000977,-0.3823242,-0.04736328,0.375,0.08789063
2415,38.0625,48.0625,15.9375,0.4155273,-1.094238,-0.4594727,-0.04589844,0.3774414,0.08398438
2419,51.25,68.75,18.125,0.175293,-0.8183594,-0.3208008,-0.04589844,0.3823242,0.08105469
2423,46.9375,59.625,11.875,-0.02978516,-0.7172852,-0.1552734,-0.04736328,0.3886719,0.07324219
2427,48.75,50.8125,1.4375,0.07470703,-0.8027344,-0.1054688,-0.04589844,0.3935547,0.06494141
2431,53.0625,53,-2.5,0.190918,-0.9697266,-0.2861328,-0.04736328,0.3984375,0.05810547
2435,84.0625,54,18.125,0.1054688,-1.024414,-0.2246094,-0.04833984,0.4023438,0.05273438
2439,105.5625,50.1875,27.8125,0.09375,-0.8613281,-0.1206055,-0.04492188,0.4072266,0.03515625
2443,111.375,44.75,30.3125,-0.08398438,-0.6669922,0.1826172,-0.04150391,0.4125977,0.02392578
2447,96.9375,27.0625,19.1875,-0.2426758,-0.4960938,0.4560547,-0.03662109,0.4160156,0.009277344
2451,72.9375,6.875,-3.1875,-0.04101563,-0.6083984,0.4443359,-0.03515625,0.4199219,-0.006835938
2455,56.9375,6.4375,-1.0625,0.1557617,-0.5966797,0.3520508,-0.03515625,0.4208984,-0.01367188
2460,39.1875,17.6875,11.625,0.2797852,-0.7290039,0.3251953,-0.03662109,0.4248047,-0.02148438
2464,24.4375,22.4375,19.375,0.2490234,-0.6899414,0.1713867,-0.03076172,0.4262695,-0.02734375
2468,10.75,31.0625,30.0625,0.2104492,-0.7094727,0.2211914,-0.03076172,0.4272461,-0.02978516
2472,-12.5,32.5625,25.4375,0.07861328,-0.7094727,0.1557617,-0.02490234,0.4287109,-0.03125
2476,-19.75,24.875,17.9375,-0.04882813,-0.8803711,0.09423828,-0.02001953,0.4296875,-0.02734375
2480,-16.6875,9.875,14.5625,0.03955078,-0.9116211,-0.02832031,-0.01855469,0.4296875,-0.02294922
2484,-15,16.0625,18.4375,0.1518555,-0.9155273,-0.02050781,-0.01513672,0.4296875,-0.02050781
2488,-20.4375,20.75,19.25,0.05126953,-0.9155273,0.009765625,-0.01269531,0.4296875,-0.01757813
2492,-23,10.6875,15.5625,-0.06054688,-0.8842773,0.01367188,-0.01269531,0.4287109,-0.01757813
2496,-24.6875,3.9375,7,-0.02587891,-0.9350586,-0.112793,-0.01025391,0.4287109,-0.01074219
2500,-17.25,1.8125,2.0625,-0.006347656,-1.004883,-0.1821289,-0.0078125,0.4272461,-0.008300781
2504,-3.8125,-5.9375,1.375,-0.08789063,-1.05127,-0.09765625,-0.006835938,0.4272461,-0.005371094
2508,4.75,-24.4375,-4.25,-0.08007813,-0.9658203,-0.01318359,-0.009277344,0.4272461,-0.00390625
2512,2.0625,-27.1875,-6.3125,0.07080078,-0.8764648,0.09423828,-0.009277344,0.4272461,-0.006835938
2516,-10.1875,-16.875,-5.5,0.2294922,-0.8881836,0.06347656,-0.009277344,0.4272461,-0.006835938
2520,-14.5625,-4.75,4.875,0.2177734,-0.8183594,0.1328125,-0.01025391,0.4262695,-0.005371094
2524,-29.875,4.125,8.0625,0.2026367,-0.8261719,0.08642578,-0.009277344,0.4238281,-0.002441406
2528,-32.3125,7.5625,9.5625,0.05126953,-0.9350586,0.02490234,-0.0078125,0.4238281,0.002441406
2532,-26.6875,-4.25,8.9375,-0.07226563,-0.9970703,0.06738281,-0.006835938,0.4199219,0.006347656
2536,-22.5,-24.125,1.6875,-0.1147461,-0.8842773,0.07519531,-0.005859375,0.418457,0.009277344
2540,-22.4375,-31.875,-5.3125,0.03564453,-0.9350586,0.08251953,-0.0078125,0.4174805,0.009277344
2544,-26.5625,-25.6875,-3.5,0.1054688,-0.7949219,0.1289063,-0.0078125,0.4150391,0.01464844
2548,-39.25,-22.625,-2.125,0.01660156,-0.7641602,0.2329102,-0.0078125,0.4150391,0.01855469
2552,-49.125,-35.75,-5.75,-0.08398438,-0.6669922,0.2558594,-0.01171875,0.4111328,0.02392578
2556,-59.75,-38.25,-13.875,0.1015625,-0.8105469,0.02490234,-0.01269531,0.4086914,0.02978516
2560,-54.8125,-27.75,-14.1875,0.08642578,-0.8725586,-0.06298828,-0.01025391,0.4047852,0.04052734
2564,-48.0625,-31.875,-9.4375,-0.02587891,-0.8027344,-0.009277344,-0.01416016,0.3999023,0.04589844
2568,-45.0625,-50.125,-3.625,-0.1611328,-0.7055664,0.1210938,-0.01611328,0.3984375,0.05273438
2572,-48,-67.0625,-2.5625,-0.1069336,-0.6787109,0.1289063,-0.01513672,0.3911133,0.06201172
2576,-54.5,-72.0625,-8.5625,-0.01416016,-0.7602539,-0.05126953,-0.01513672,0.3896484,0.06494141
2580,-52.6875,-68.5625,-13.125,0.07470703,-0.8803711,-0.2475586,-0.01513672,0.3847656,0.07177734
2584,-44,-56.125,-15.75,0.2216797,-0.9541016,-0.4516602,-0.01513672,0.378418,0.07568359
2589,-30.125,-34.1875,-12.1875,0.1791992,-0.8725586,-0.3706055,-0.01269531,0.3774414,0.07861328
2593,-28.0625,-34.8125,-2.125,0.02441406,-0.7871094,-0.1938477,-0.01513672,0.3710938,0.08398438
2597,-28.3125,-45.75,1.75,0.05517578,-0.8496094,-0.07861328,-0.01416016,0.3662109,0.08544922
2601,-28.5,-50.625,4.3125,0.1831055,-0.9155273,-0.2475586,-0.01269531,0.3647461,0.08544922
2605,-21.4375,-38.75,11.625,0.2333984,-1.047363,-0.3208008,-0.0078125,0.3598633,0.08935547
2609,-7.8125,-26.5,12.875,0.08251953,-0.9619141,-0.2783203,-0.006835938,0.3574219,0.09082031
2613,-1.0625,-27.1875,6.5,-0.04101563,-0.8725586,-0.1245117,-0.0078125,0.3525391,0.08935547
2617,-1,-34.625,-4.4375,-0.01025391,-0.8959961,-0.05126953,-0.005859375,0.3486328,0.08789063
2621,-2.125,-41.25,-7.9375,0.07470703,-0.8803711,-0.05517578,-0.005859375,0.347168,0.08691406
2625,-5.375,-43.375,1.5,0.1210938,-0.8686523,-0.1054688,-0.005859375,0.3447266,0.08691406
2629,-1.4375,-33,10.6875,0.1518555,-0.9389648,-0.1401367,-0.003417969,0.3413086,0.08691406
2633,1.125,-14.125,6.8125,0.09033203,-0.8613281,-0.1708984,-0.001953125,0.3388672,0.08544922
2637,0,-13.1875,-2.3125,-0.01025391,-0.9658203,-0.112793,-0.0009765625,0.3374023,0.08544922
2641,6.25,-23.4375,-6.75,0.04736328,-1.05127,-0.08984375,0,0.3334961,0.08251953
2645,3.3125,-27.0625,-4.125,0.1518555,-1.004883,-0.112793,0,0.3300781,0.08105469
2649,-5.1875,-21.1875,-0.25,0.159668,-0.9658203,-0.1899414,0.003417969,0.3300781,0.08007813
2653,-8.0625,-5.625,-5,0.2177734,-1.043945,-0.309082,0.003417969,0.3261719,0.08007813
2657,-5.0625,15.1875,-14.6875,0.2216797,-1.043945,-0.324707,0.002441406,0.3237305,0.08105469
2661,-2.5,19.375,-12.4375,0.175293,-1.043945,-0.2592773,0.0009765625,0.3222656,0.08007813
2665,3.125,15.0625,-8.6875,0.175293,-1.074707,-0.1860352,0,0.3198242,0.08007813
2669,5.125,12.25,-9.875,0.1870117,-1.016602,-0.1245117,-0.0009765625,0.3173828,0.07861328
2673,2.625,12.875,-10.0625,0.2255859,-0.9853516,-0.1166992,-0.005859375,0.3149414,0.07714844
2677,-2.3125,18.0625,-9.5625,0.2490234,-0.9233398,-0.1552734,-0.003417969,0.3125,0.07714844
2681,-7.25,27.125,-9.5625,0.3266602,-0.9931641,-0.2089844,-0.006835938,0.3110352,0.07714844
2685,-3.375,34.875,-5.3125,0.2993164,-0.9931641,-0.2207031,-0.0078125,0.3085938,0.07861328
2689,1.75,32.3125,4.9375,0.2104492,-0.9853516,-0.2167969,-0.009277344,0.3061523,0.07714844
2693,3.8125,29.875,6.6875,0.1831055,-0.9541016,-0.2167969,-0.009277344,0.3037109,0.07421875
2697,3.3125,31.875,-4.625,0.206543,-0.9931641,-0.2089844,-0.01025391,0.3046875,0.07714844
2701,5.1875,31.875,-15.8125,0.1831055,-0.9970703,-0.1977539,-0.01025391,0.3012695,0.07568359
2705,6.5625,28.6875,-26.375,0.2177734,-0.9580078,-0.1630859,-0.01416016,0.2988281,0.07177734
2709,10.0625,17.125,-27,0.1987305,-0.9389648,-0.1206055,-0.01416016,0.2988281,0.07421875
2713,14.1875,0.875,-30.0625,0.2026367,-0.7485352,-0.09375,-0.01513672,0.2973633,0.07324219
2718,7.5625,3.5625,-38.875,0.3925781,-0.7832031,-0.2089844,-0.02246094,0.2949219,0.06787109
2722,11.125,25.0625,-42.8125,0.5161133,-0.9775391,-0.3325195,-0.02099609,0.2924805,0.0703125
2726,28.1875,32.75,-31.75,0.3769531,-1.047363,-0.309082,-0.02685547,0.2900391,0.06640625
2730,42.25,23.5625,-22.8125,0.2993164,-1.036133,-0.2207031,-0.02929688,0.2900391,0.06494141
2734,52.4375,13.3125,-16.0625,0.206543,-1.02832,-0.112793,-0.03320313,0.2885742,0.05957031
2738,48.9375,11.125,-14.75,0.3266602,-1.032227,-0.09375,-0.03515625,0.2875977,0.05517578
2742,37.375,32.25,-15.0625,0.3496094,-1.136719,-0.1401367,-0.03662109,0.2875977,0.04736328
2746,36.4375,39.4375,-7.25,0.2490234,-1.436035,-0.1435547,-0.04003906,0.2851563,0.04882813
2750,49.875,27.6875,2.25,0.1210938,-1.45166,-0.1054688,-0.03759766,0.2851563,0.04443359
2754,51.1875,11.875,2.75,0.08251953,-1.412598,-0.04394531,-0.0390625,0.2836914,0.0390625
2758,47.875,3.125,2.1875,0.125,-1.424316,-0.02832031,-0.03759766,0.2836914,0.03515625
2762,42,7.75,-7.8125,0.2646484,-1.405273,-0.01318359,-0.04150391,0.2822266,0.03222656
2766,29.9375,10.375,-14.25,0.2954102,-1.397461,0.001953125,-0.04150391,0.2822266,0.02685547
2770,25.875,2.6875,-8.9375,0.3730469,-1.319336,0.05175781,-0.04003906,0.2836914,0.02539063
2774,31.625,-3.125,21.0625,0.4931641,-1.37793,0.01708984,-0.04003906,0.2836914,0.02294922
2778,11.5,2.375,12.6875,0.3032227,-0.9892578,-0.02441406,-0.03759766,0.28125,0.01855469
2782,5.6875,1.8125,7.25,0.2724609,-1.284668,0.08642578,-0.03759766,0.2851563,0.01855469
2786,5.625,-4,0.9375,0.2026367,-1.117676,0.07128906,-0.03759766,0.2836914,0.01855469
2790,-1.5625,-6.625,-5.125,0.2646484,-1.086426,0.07128906,-0.03759766,0.2836914,0.01855469
2794,-3.1875,-3.8125,-3.875,0.2915039,-1.059082,0.02099609,-0.0390625,0.2851563,0.02001953
2798,-4.8125,-0.5,-6.3125,0.2758789,-1.024414,0.001953125,-0.04003906,0.2851563,0.01855469
2802,-5.5,-2.4375,-6.3125,0.2758789,-1.02832,0.02099609,-0.0390625,0.2822266,0.02001953
2806,-5.375,-6.0625,-4.8125,0.3149414,-1.036133,0.02490234,-0.04150391,0.2822266,0.02148438
2810,-4.8125,-10,-2.5625,0.3266602,-1.020508,0.05175781,-0.04003906,0.2822266,0.02148438
2814,-9.625,-12.3125,-0.8125,0.3339844,-1.047363,0.04785156,-0.04150391,0.2851563,0.02001953
2818,-11,-8.0625,-0.5,0.3188477,-1.129395,0.01367188,-0.04150391,0.2836914,0.02294922
2822,-15.5,-3.8125,-4.8125,0.3227539,-1.090332,0.02490234,-0.04003906,0.2836914,0.02294922
2826,-22.1875,-1.5,-4.9375,0.3032227,-1.152344,0.009765625,-0.04248047,0.2851563,0.02685547
2830,-23.3125,1.0625,-5.125,0.2915039,-1.179688,-0.01318359,-0.04150391,0.2851563,0.02685547
2834,-29.125,-2.25,-9.5625,0.2451172,-1.199219,-0.04394531,-0.04003906,0.2851563,0.02832031
2838,-30.0625,-7.1875,-10.375,0.2333984,-1.210938,-0.02441406,-0.04248047,0.2851563,0.02978516
2842,-34.9375,-13.125,-12.875,0.2451172,-1.210938,-0.04003906,-0.04003906,0.2851563,0.03369141
2847,-36.9375,-15.5,-14.5,0.2954102,-1.241699,-0.07080078,-0.04248047,0.2885742,0.03515625
2851,-35.25,-14.0625,-15.0625,0.3535156,-1.284668,-0.1323242,-0.04394531,0.2861328,0.04052734
2855,-31,-9.6875,-12.625,0.3959961,-1.334961,-0.1899414,-0.04394531,0.2885742,0.04296875
2859,-19.125,-4.875,-3.8125,0.4038086,-1.342773,-0.1860352,-0.04394531,0.2875977,0.04589844
2863,-14.6875,-10.5625,10.0625,0.2993164,-1.191406,-0.1362305,-0.04394531,0.2900391,0.04736328
2867,-23.6875,-14.5,12.875,0.2607422,-1.032227,-0.02050781,-0.04492188,0.2910156,0.04882813
2871,-51.5,-22,-2.5,0.2451172,-1.086426,-0.03222656,-0.04492188,0.293457,0.05126953
2875,-52.9375,-23.625,-7.1875,0.2836914,-1.366211,-0.08203125,-0.04492188,0.293457,0.05664063
2879,-40.8125,-28.625,-2.5625,0.2724609,-1.350586,-0.1323242,-0.04589844,0.2949219,0.06103516
2883,-33.5,-27.1875,6.625,0.3959961,-1.424316,-0.1630859,-0.04589844,0.2963867,0.06640625
2887,-26.6875,-13.4375,21.8125,0.5126953,-1.505859,-0.1513672,-0.04589844,0.2973633,0.06884766
2891,-35.1875,5.3125,33,0.4233398,-1.296387,-0.001464844,-0.04248047,0.3012695,0.07177734
2895,-60.625,26.75,24.4375,0.2836914,-1.160156,0.08642578,-0.04003906,0.3022461,0.07714844
2899,-78.3125,40.75,9,0.1713867,-1.136719,0.1635742,-0.04248047,0.3046875,0.08544922
2903,-96.8125,32.9375,5.4375,-0.03710938,-0.9775391,0.1865234,-0.04150391,0.3061523,0.09082031
2907,-101.3125,11,9.3125,0.06689453,-1.148438,0.09423828,-0.04394531,0.3046875,0.1030273
2911,-79.8125,3,22.125,0.1713867,-1.105957,-0.02050781,-0.04394531,0.3022461,0.1137695
2915,-66.6875,5.9375,43.1875,0.3305664,-0.9619141,-0.1435547,-0.04248047,0.3037109,0.1220703
2919,-58.25,33.8125,56.625,0.4467773,-0.8764648,-0.3325195,-0.04150391,0.3022461,0.1303711
2923,-48.625,62.5625,57.375,0.2836914,-0.7368164,-0.3208008,-0.03759766,0.3022461,0.1381836
2927,-64.125,63.6875,25.875,-0.006347656,-0.4921875,-0.3168945,-0.0390625,0.3022461,0.144043
2931,-69.6875,37.8125,-10.6875,-0.1225586,-0.6899414,-0.2978516,-0.04150391,0.3012695,0.1533203
2935,-44.0625,-0.25,-23.75,-0.07617188,-0.8066406,-0.3515625,-0.04492188,0.2998047,0.1630859
2939,-15.4375,-28.75,-19.25,0.1948242,-0.7563477,-0.4628906,-0.04980469,0.2973633,0.1669922
2943,3.4375,-26.4375,-7.6875,0.5161133,-0.6938477,-0.6206055,-0.05078125,0.2973633,0.1699219
2947,18.0625,-4.125,8.9375,0.6054688,-0.7290039,-0.7402344,-0.05078125,0.3012695,0.1708984
2951,32.4375,14.1875,18.6875,0.4619141,-0.6821289,-0.6787109,-0.05078125,0.3037109,0.1723633
2955,33.3125,14.125,7.125,0.3305664,-0.7290039,-0.6787109,-0.05224609,0.3085938,0.1708984
2959,38.5625,12.375,-9.5,0.2412109,-0.7094727,-0.4902344,-0.05224609,0.3125,0.1723633
2963,41.4375,-10.9375,-19.75,0.206543,-0.7719727,-0.4594727,-0.05419922,0.3173828,0.1699219
2967,48.25,-16.625,-27.8125,0.3959961,-0.8496094,-0.4902344,-0.05566406,0.3222656,0.1699219
2971,55.0625,-8.1875,-26.1875,0.5317383,-0.9311523,-0.4975586,-0.06152344,0.3276367,0.1699219
2976,76.25,-0.5,-5.5625,0.5395508,-0.8261719,-0.5244141,-0.06152344,0.3374023,0.1655273
2980,88.375,17.875,17.875,0.574707,-0.6821289,-0.4052734,-0.06396484,0.3461914,0.1616211
2984,79.875,42.6875,25.0625,0.543457,-0.5927734,-0.3823242,-0.06396484,0.3598633,0.1533203
2988,70.75,65.75,23,0.3457031,-0.5307617,-0.2861328,-0.06494141,0.3662109,0.1494141
2992,60.9375,73.0625,27.625,0.1210938,-0.5893555,-0.1630859,-0.06494141,0.378418,0.1425781
2996,64.4375,66.5,36.5625,0.004882813,-0.8144531,-0.1552734,-0.06298828,0.3935547,0.1328125
3000,90.8125,57.875,57.0625,-0.1689453,-0.6513672,-0.009277344,-0.06298828,0.4013672,0.1259766
3004,81.375,49.9375,48.25,-0.2583008,-0.4492188,0.1518555,-0.05810547,0.4160156,0.1152344
3008,53.75,42.375,15.8125,-0.2890625,-0.6083984,-0.001464844,-0.05322266,0.4287109,0.1030273
3012,57.5625,30.375,-4.1875,-0.3935547,-0.8457031,-0.009277344,-0.05322266,0.4335938,0.09765625
3016,65.4375,0.375,-16.625,-0.2426758,-0.8881836,-0.1591797,-0.05419922,0.4448242,0.08935547
3020,77.0625,-14.0625,-13.3125,-0.1962891,-0.7016602,0.06347656,-0.05810547,0.4511719,0.07568359
3024,58.4375,-32.875,-16.5,-0.1030273,-0.6123047,0.1865234,-0.05664063,0.4575195,0.06884766
3028,45.75,-42.125,-17.5,0.01660156,-0.7368164,0.1479492,-0.05908203,0.4624023,0.05664063
3032,34.4375,-39.625,-16.9375,0.1328125,-0.7211914,0.07128906,-0.05908203,0.4648438,0.05419922
3036,15.4375,-22.75,-18.875,0.3457031,-0.7446289,-0.128418,-0.05908203,0.46875,0.04980469
3040,4.25,7.9375,-10.8125,0.3457031,-0.8105469,-0.09765625,-0.06396484,0.4672852,0.04882813
3044,-1.25,12.625,-1.4375,0.2255859,-0.9272461,-0.08984375,-0.06298828,0.4672852,0.04882813
3048,6.6875,3.25,13,0.1518555,-0.8457031,0.05175781,-0.06298828,0.4672852,0.04589844
3052,-4.875,-5.375,15.5,0.125,-0.7910156,0.06738281,-0.06054688,0.4648438,0.04296875
3056,-12.5,-1.6875,12.875,0.1870117,-0.8613281,0.01367188,-0.05664063,0.4648438,0.04443359
3060,-20.625,8.5,9.25,0.175293,-0.9038086,-0.001464844,-0.05664063,0.4624023,0.04736328
3064,-23.5625,7.1875,5.625,0.08251953,-0.8686523,0.04052734,-0.05224609,0.4560547,0.04882813
3068,-25.6875,-0.0625,5.125,0.109375,-0.9619141,0.09423828,-0.05224609,0.4550781,0.05273438
3072,-27.5,-10.875,6.375,0.09033203,-0.8339844,0.1020508,-0.05322266,0.449707,0.05419922
3076,-33.3125,-12.75,6.9375,0.1987305,-0.9233398,0.03271484,-0.04833984,0.4472656,0.05957031
3080,-35.25,-5.25,13.0625,0.2685547,-0.9194336,-0.09765625,-0.04833984,0.4438477,0.06640625
3084,-33.9375,1.75,17.6875,0.125,-0.8842773,0.02880859,-0.04589844,0.4399414,0.06787109
3088,-38.625,-11.8125,20.5,-0.01806641,-0.7524414,0.2060547,-0.04394531,0.4311523,0.07324219
3092,-50.125,-24.1875,18.375,0.03955078,-0.6748047,0.2905273,-0.0390625,0.4287109,0.08105469
3096,-71.25,-25.875,11.625,0.1557617,-0.6938477,-0.109375,-0.03662109,0.4248047,0.08789063
3100,-66.0625,-7.5625,12.375,0.3110352,-1.094238,-0.4052734,-0.03417969,0.4174805,0.09912109
3105,-44,1.625,20.5625,0.09375,-0.9658203,-0.3745117,-0.03173828,0.4072266,0.105957
3109,-33.3125,-14,19.0625,-0.07617188,-0.9272461,-0.109375,-0.02929688,0.4038086,0.1113281
3113,-30.875,-40.4375,18.5625,-0.1459961,-0.7988281,0.07128906,-0.02587891,0.3984375,0.1113281
3117,-43.25,-51.3125,13.6875,-0.006347656,-0.7211914,-0.05908203,-0.02246094,0.3896484,0.1166992
3121,-48.875,-36.5625,10.4375,0.1791992,-1.016602,-0.2705078,-0.02001953,0.387207,0.1206055
3125,-35.9375,-31.3125,11.75,0.04345703,-0.9736328,-0.4282227,-0.01611328,0.3798828,0.125
3129,-22.5,-34.125,11.8125,0.03173828,-1.024414,-0.3359375,-0.01611328,0.3759766,0.1235352
3133,-10.625,-38.9375,12.0625,0.0009765625,-0.8496094,-0.1401367,-0.01416016,0.3710938,0.125
3137,-17.6875,-44.5,16.625,-0.06054688,-0.6513672,0.07519531,-0.01025391,0.3686523,0.1259766
3141,-36.375,-46.3125,16.875,0.008789063,-0.6044922,0.005859375,-0.0078125,0.3637695,0.1289063
3145,-58.4375,-29.75,8.5625,0.1674805,-0.8764648,-0.3515625,-0.005859375,0.3574219,0.1303711
3149,-45,-11.0625,3.8125,0.02832031,-1.109863,-0.4360352,-0.001953125,0.3525391,0.137207
3153,-26.4375,-23.9375,2.8125,-0.1420898,-0.9619141,-0.3745117,-0.001953125,0.347168,0.1411133
3157,-13,-43.875,-0.8125,-0.1303711,-0.8725586,-0.2324219,0.0009765625,0.34375,0.1381836
3161,-9.875,-58.5,-4.8125,-0.03710938,-0.6821289,-0.1513672,0.002441406,0.3398438,0.137207
3165,-27.875,-54.1875,-6.25,0.2216797,-0.7290039,-0.2436523,0.003417969,0.3349609,0.1381836
3169,-34.3125,-27.25,-5.1875,0.2954102,-0.9038086,-0.3286133,0.005859375,0.3325195,0.137207
3173,-37.375,-10.9375,-6.625,0.1674805,-0.8803711,-0.4360352,0.005859375,0.3276367,0.1411133
3177,-23.6875,-9.75,-4,0.05126953,-0.9580078,-0.4052734,0.005859375,0.3237305,0.1425781
3181,-9.875,-22.0625,-5.9375,-0.03320313,-0.8222656,-0.3325195,0.005859375,0.3222656,0.1396484
3185,-12.1875,-33.375,-13.9375,0.1054688,-0.9428711,-0.3129883,0.005859375,0.3188477,0.1396484
3189,-3.375,-30,-13.1875,0.1948242,-0.9389648,-0.3325195,0.006835938,0.3173828,0.1396484
3193,-4.4375,-18.6875,-8.5625,0.2568359,-0.8881836,-0.359375,0.006835938,0.3125,0.1381836
3197,-3.0625,-2.8125,-5.625,0.2026367,-0.8725586,-0.4208984,0.004394531,0.3110352,0.1357422
3201,-0.5625,6.5625,-8,0.1328125,-0.9389648,-0.5053711,0.004394531,0.3110352,0.1328125
3205,12.625,4.0625,-10.625,0.07470703,-1.012695,-0.4785156,0.003417969,0.3085938,0.1313477
3209,23.6875,2.875,-14.75,0.1367188,-1.047363,-0.4707031,0.003417969,0.3076172,0.1289063
3213,36.375,9.5625,-17.6875,0.1015625,-1.036133,-0.4091797,0.003417969,0.3085938,0.1259766
3217,52.875,16.25,-23.5625,0.02050781,-0.9853516,-0.3901367,0.002441406,0.3076172,0.1206055
3221,69.875,18.9375,-31.6875,0.02441406,-1.020508,-0.4052734,-0.0009765625,0.3076172,0.1123047
3225,87.125,18.125,-30.5,0.04345703,-0.9853516,-0.3359375,-0.006835938,0.3110352,0.105957
3229,94.4375,10.125,-24.125,0.02441406,-0.8803711,-0.2246094,-0.005859375,0.3110352,0.09765625
3234,94.5625,7,-18.4375,0.06298828,-0.8803711,-0.1977539,-0.0078125,0.3149414,0.08544922
3238,96.625,12.9375,-25.6875,0.03564453,-0.8842773,-0.1708984,-0.01025391,0.3134766,0.07714844
3242,99,16.6875,-44.8125,0.09033203,-0.8764648,-0.1513672,-0.01171875,0.3164063,0.06787109
3246,91.625,15.8125,-52.1875,0.125,-0.7988281,-0.1054688,-0.01513672,0.3164063,0.05664063
3250,77.3125,6.1875,-42.125,0.206543,-0.7602539,-0.02832031,-0.01855469,0.3164063,0.04736328
3254,65.6875,2.9375,-28.625,0.2138672,-0.7368164,0.02099609,-0.0234375,0.3149414,0.04199219
3258,57.6875,2.6875,-17,0.1557617,-0.7524414,0.06347656,-0.02490234,0.3134766,0.03369141
3262,48,-0.4375,-22.8125,0.2373047,-0.8647461,-0.009277344,-0.02490234,0.3100586,0.02978516
3266,47.875,7.875,-35.6875,0.3999023,-0.9970703,0.02099609,-0.02685547,0.3100586,0.02539063
3270,47.25,18.75,-34.9375,0.4736328,-0.9580078,0.07910156,-0.03076172,0.3076172,0.01855469
3274,34.5,22.9375,-24.5,0.4541016,-0.8959961,0.1132813,-0.03417969,0.3046875,0.01318359
3278,28.75,25,-6.5,0.4541016,-1.078613,0.1132813,-0.03417969,0.3022461,0.01318359
3282,33,35.0625,5.3125,0.4736328,-1.207031,0.1020508,-0.03320313,0.2998047,0.009277344
3286,33.0625,50.125,1.9375,0.5317383,-1.315918,0.1098633,-0.03515625,0.2988281,0.004882813
3290,29.9375,52.0625,11.8125,0.4389648,-1.334961,0.1518555,-0.03076172,0.2963867,0.00390625
3294,27.6875,45.4375,26.125,0.3652344,-1.366211,0.1674805,-0.02832031,0.293457,0.0009765625
3298,27.375,39.375,33.375,0.2797852,-1.397461,0.159668,-0.02685547,0.2924805,-0.001464844
3302,25.5,39.3125,24.25,0.159668,-1.358398,0.1748047,-0.02490234,0.2910156,-0.00390625
3306,18.1875,36.5625,10.4375,0.1210938,-1.42041,0.1635742,-0.02246094,0.2910156,-0.006835938
3310,17.0625,27.6875,2.1875,0.140625,-1.42041,0.2250977,-0.02246094,0.2900391,-0.008300781
3314,12.5625,19.0625,2.5625,0.1987305,-1.319336,0.2597656,-0.0234375,0.2875977,-0.009277344
3318,5.5,14.4375,5.5625,0.2216797,-1.249512,0.2558594,-0.02001953,0.2875977,-0.009277344
3322,0.3125,12.5,6.1875,0.2104492,-1.171875,0.2250977,-0.02246094,0.2875977,-0.01220703
3326,-4.3125,10.125,0.3125,0.1518555,-1.105957,0.1982422,-0.0234375,0.2875977,-0.008300781
3330,-5.625,-1.5625,-5.4375,0.09765625,-1.105957,0.2094727,-0.0234375,0.2875977,-0.009277344
3334,-0.75,-17.875,-6.0625,0.1948242,-1.094238,0.2094727,-0.02490234,0.2851563,-0.008300781
3338,0.75,-24.625,-4.0625,0.2724609,-0.9931641,0.1826172,-0.02587891,0.2861328,-0.009277344
3342,-2.875,-23.25,0.8125,0.3457031,-0.9467773,0.144043,-0.02587891,0.2836914,-0.006835938
3346,-4.3125,-13.375,8.4375,0.4038086,-0.9736328,0.09033203,-0.02587891,0.2851563,-0.006835938
3350,-5.375,-2.5,13,0.3378906,-0.9619141,0.09423828,-0.0234375,0.2861328,-0.008300781
3354,-6.4375,1.5,12.25,0.2333984,-0.9775391,0.1557617,-0.0234375,0.2851563,-0.006835938
3358,-7.9375,-4.375,9.5,0.140625,-1.032227,0.159668,-0.0234375,0.2851563,-0.00390625
3363,-5.9375,-14.125,10.4375,0.1674805,-1.102051,0.1826172,-0.01855469,0.2861328,-0.005371094
3367,-6.625,-11.9375,11.8125,0.2373047,-1.109863,0.1367188,-0.02001953,0.2861328,-0.00390625
3371,-7.875,-8.75,15.3125,0.2568359,-1.148438,0.09423828,-0.01757813,0.2851563,-0.005371094
3375,2,3.9375,17.5625,0.2646484,-1.222656,0.09033203,-0.01757813,0.2875977,-0.00390625
3379,-3.125,8.1875,11.4375,0.190918,-1.125488,0.07910156,-0.01611328,0.2861328,-0.00390625
3383,-9.375,5,5.3125,0.1557617,-1.245605,0.1098633,-0.01416016,0.2851563,-0.00390625
3387,-9.3125,-6.8125,6.875,0.1518555,-1.269043,0.08642578,-0.01757813,0.2861328,-0.00390625
3391,9.9375,-19.6875,30.6875,0.2412109,-1.338867,0.2021484,-0.01513672,0.2885742,-0.002441406
3395,-16.125,-27.5625,22.125,0.1289063,-1.05127,0.07910156,-0.01171875,0.2861328,-0.002441406
3399,-24.25,-27.9375,16.6875,0.190918,-1.257324,0.06347656,-0.01269531,0.2885742,-0.002441406
3403,-36.5,-26.125,7.8125,0.1484375,-1.140625,0.04785156,-0.01171875,0.2900391,0.0009765625
3407,-51.1875,-20.25,-5.9375,0.1518555,-1.210938,0.009765625,-0.01171875,0.2910156,0.00390625
3411,-57.4375,-17.8125,-14.4375,0.09033203,-1.222656,0.01708984,-0.01025391,0.2910156,0.0078125
3415,-62.875,-21.25,-20.375,0.08251953,-1.21875,0.009765625,-0.01025391,0.2924805,0.01318359
3419,-64,-24.25,-23.25,0.1171875,-1.272949,-0.02050781,-0.01416016,0.2924805,0.01855469
3423,-64.875,-23.0625,-18.375,0.1445313,-1.214844,-0.01318359,-0.01171875,0.2949219,0.02539063
3427,-70.625,-22.125,-16.3125,0.1015625,-1.140625,-0.001464844,-0.01416016,0.2949219,0.03076172
3431,-80.875,-19.8125,-22.875,0.1132813,-1.098145,-0.04736328,-0.01611328,0.2973633,0.03515625
3435,-84.4375,-11.75,-29.125,0.1674805,-1.15625,-0.128418,-0.02001953,0.2963867,0.04443359
3439,-82.6875,-6.5,-30.5625,0.1635742,-1.183594,-0.1821289,-0.02099609,0.2973633,0.05126953
3443,-75,-5.5,-24.3125,0.1289063,-1.214844,-0.2016602,-0.0234375,0.2973633,0.06201172
3447,-66.25,-17.25,-17.625,0.1171875,-1.1875,-0.1860352,-0.02929688,0.2963867,0.06787109
3451,-58.9375,-19.0625,-15.0625,0.206543,-1.055176,-0.1362305,-0.02929688,0.2988281,0.07421875
3455,-69.6875,-7,-23.75,0.2685547,-0.9736328,-0.1513672,-0.03173828,0.2998047,0.08105469
3459,-69.75,3.1875,-27.8125,0.2255859,-1.08252,-0.2246094,-0.03515625,0.2963867,0.08691406
3463,-60.5625,-2.1875,-26.5,0.175293,-1.094238,-0.2553711,-0.04003906,0.2963867,0.09619141
3467,-48.8125,-11.5,-23.25,0.1831055,-1.125488,-0.2631836,-0.04394531,0.2963867,0.1030273
3471,-32.625,-25.875,-16.4375,0.2026367,-1.062988,-0.2167969,-0.04394531,0.2963867,0.1098633
3475,-21.9375,-34,-8.375,0.3305664,-0.9233398,-0.1938477,-0.04492188,0.2963867,0.1123047
3479,-27.875,-17.3125,-10,0.6401367,-0.5854492,-0.112793,-0.04589844,0.2988281,0.1166992
3483,-64.375,27.375,-16.5,0.7333984,-0.5307617,-0.1591797,-0.04589844,0.2988281,0.1220703
3487,-67.125,50.0625,-8.1875,0.4736328,-0.8535156,-0.2475586,-0.05224609,0.2988281,0.1274414
3492,-48.5,36.875,4.5625,0.2333984,-0.9467773,-0.3286133,-0.05322266,0.2963867,0.137207
3496,-30.0625,16.8125,13.625,0.3032227,-1.000977,-0.4438477,-0.05419922,0.2973633,0.1396484
3500,-13.875,16.25,21.4375,0.3613281,-0.8613281,-0.4628906,-0.05566406,0.2988281,0.144043
3504,-22.8125,19.3125,11.375,0.2412109,-0.7329102,-0.3901367,-0.05419922,0.2988281,0.1450195
3508,-23.4375,20.9375,0.5,0.2333984,-0.8457031,-0.3476563,-0.05664063,0.2988281,0.1508789
3512,-27,26.75,-9.4375,0.2954102,-0.8647461,-0.3823242,-0.05908203,0.2988281,0.1533203
3516,-21.6875,36.0625,-9.125,0.3378906,-1.047363,-0.4785156,-0.06152344,0.3012695,0.15625
3520,-4.5,38.0625,2.5,0.3149414,-1.148438,-0.5668945,-0.06640625,0.3012695,0.1572266
3524,13.875,29,11.5,0.206543,-1.08252,-0.4399414,-0.06884766,0.3022461,0.1616211
3528,14.75,13.25,0.25,0.2216797,-1.11377,-0.3901367,-0.06884766,0.3046875,0.1601563
3532,19.375,3.25,-24.125,0.2373047,-0.9970703,-0.3012695,-0.06982422,0.3100586,0.1616211
3536,27.75,3.875,-38.75,0.4116211,-0.8222656,-0.1669922,-0.07470703,0.3125,0.1586914
3540,17.75,17.75,-40.75,0.6132813,-0.7250977,-0.3208008,-0.08203125,0.3173828,0.1616211
3544,17.3125,42.0625,-11.6875,0.6635742,-0.7329102,-0.3515625,-0.08398438,0.3212891,0.1616211
3548,20.5625,57.1875,18.1875,0.5473633,-0.5112305,-0.2397461,-0.08886719,0.324707,0.1616211
3552,14.1875,56,25.6875,0.3417969,-0.4335938,-0.1743164,-0.09130859,0.3334961,0.1616211
3556,18,49.875,35.625,0.3149414,-0.4453125,-0.2553711,-0.09033203,0.3374023,0.1601563
3560,9.625,60.125,32,0.5976563,-0.7329102,-0.7055664,-0.09228516,0.34375,0.1630859
3564,48.5625,86.6875,56.4375,0.5200195,-0.9658203,-0.7324219,-0.09130859,0.3510742,0.1572266
3568,71.75,76.9375,83.9375,0.05126953,-0.324707,-0.3515625,-0.08886719,0.3588867,0.1533203
3572,59.25,68.1875,84.5625,0.04345703,-0.3793945,-0.05126953,-0.08544922,0.3725586,0.1450195
3576,50.125,71.125,79.0625,-0.1030273,-0.3911133,0.105957,-0.07568359,0.3847656,0.137207
3580,29.875,62.5,63.875,-0.1689453,-0.5620117,0.05957031,-0.07226563,0.3886719,0.1303711
3584,26.875,49.375,53.5,-0.2426758,-0.7133789,-0.005371094,-0.06640625,0.3935547,0.1274414
3588,26.125,25.75,44.5625,-0.3125,-0.7329102,0.05175781,-0.06054688,0.4013672,0.1220703
3592,19.625,2.25,32.75,-0.2929688,-0.7719727,0.09033203,-0.05810547,0.4023438,0.1220703
3596,14.875,-19.0625,18.125,-0.2348633,-0.7680664,0.06347656,-0.05322266,0.4047852,0.1181641
3600,1.25,-26.125,3.75,0.0009765625,-0.8339844,-0.1630859,-0.05078125,0.4047852,0.1181641
3604,0,-19,-2.5,0.109375,-0.9077148,-0.2631836,-0.04589844,0.40625,0.1191406
3608,-1.6875,-11.0625,3.25,0.1328125,-0.9233398,-0.2207031,-0.04736328,0.4047852,0.1191406
3612,-3.8125,-8.625,6.25,0.01660156,-0.8881836,-0.1206055,-0.04492188,0.4047852,0.1220703
3616,-11.25,-15.0625,-1.9375,0.04345703,-0.8647461,-0.1513672,-0.04492188,0.40625,0.1191406
3621,-14.6875,-12.75,-2.4375,0.2373047,-0.9428711,-0.309082,-0.04394531,0.4047852,0.1220703
3625,-9.0625,5.5625,6.9375,0.2216797,-0.9697266,-0.2822266,-0.04248047,0.4023438,0.125
3629,-9.0625,4.6875,10.25,0.008789063,-0.9272461,-0.2055664,-0.04150391,0.4038086,0.125
3633,-7.0625,-8,4.6875,-0.09130859,-0.9506836,-0.1245117,-0.04150391,0.4013672,0.1259766
3637,-12.125,-16.75,-6.875,-0.002441406,-0.9272461,-0.2055664,-0.03759766,0.4013672,0.1274414
3641,-6.75,-15.375,-12.9375,0.07470703,-1.040039,-0.2436523,-0.04150391,0.3974609,0.1289063
3645,-3.4375,-17.125,-9.625,0.1484375,-0.9350586,-0.2978516,-0.04248047,0.3959961,0.1289063
3649,0.0625,-10.25,-1.9375,0.1289063,-0.9389648,-0.2246094,-0.04394531,0.3959961,0.1274414
3653,-2.25,-13.1875,1.875,0.02050781,-0.8300781,-0.1054688,-0.04394531,0.3959961,0.1303711
3657,-7.0625,-18.875,2.6875,-0.01416016,-0.7910156,0.02490234,-0.04248047,0.3935547,0.1289063
3661,-21.75,-27.5625,-3.4375,0.03564453,-0.7094727,-0.1401367,-0.04248047,0.3925781,0.1289063
3665,-20.625,-20.6875,-6.125,0.1289063,-0.9775391,-0.2670898,-0.04150391,0.3886719,0.1313477
3669,-9.9375,-27.75,-2.6875,0.05126953,-0.8686523,-0.309082,-0.04150391,0.3847656,0.1313477
3673,-1.6875,-33.625,-2.0625,0.01269531,-0.8574219,-0.1513672,-0.04150391,0.3823242,0.1342773
3677,-4.5625,-43.75,-5.25,0.03955078,-0.6708984,-0.112793,-0.0390625,0.3813477,0.1342773
3681,-18.5625,-33.875,-6.8125,0.2255859,-0.7211914,-0.1591797,-0.03759766,0.3774414,0.1328125
3685,-29.4375,-22.375,-9,0.2529297,-0.8417969,-0.3515625,-0.0390625,0.3725586,0.1357422
3689,-16.125,-18,-3.8125,0.1484375,-0.9541016,-0.2900391,-0.03759766,0.3725586,0.137207
3693,-3.8125,-30.5,1.5625,-0.02587891,-0.7792969,-0.1015625,-0.03662109,0.3671875,0.1381836
3697,-5.8125,-50,1.625,-0.06054688,-0.6083984,0.07519531,-0.03515625,0.3637695,0.1357422
3701,-24.5,-58.8125,-6.0625,0.1791992,-0.6591797,-0.06689453,-0.03417969,0.3598633,0.1381836
3705,-31.625,-43.625,-2,0.3652344,-0.7792969,-0.2436523,-0.03320313,0.3535156,0.1396484
3709,-34.5625,-22.375,7.875,0.3574219,-0.8613281,-0.3901367,-0.02929688,0.3500977,0.1425781
3713,-22.375,-12.625,17.25,0.1132813,-0.8535156,-0.2861328,-0.02929688,0.3447266,0.1425781
3717,-13.25,-25.8125,21.4375,-0.05273438,-0.7753906,-0.1513672,-0.02685547,0.3413086,0.144043
3721,-13.0625,-36.625,12.25,-0.01025391,-0.7172852,-0.1015625,-0.02099609,0.3374023,0.1425781
3725,-23.25,-36.3125,2.125,0.05517578,-0.7641602,-0.2055664,-0.02001953,0.3334961,0.144043
3729,-25.25,-29.5,-1.8125,0.09033203,-0.8764648,-0.3129883,-0.01611328,0.3300781,0.1450195
3733,-22.1875,-20.0625,-4.3125,0.07470703,-0.9389648,-0.3823242,-0.01611328,0.3237305,0.144043
3737,-9.1875,-17.1875,-4.5,-0.02197266,-0.9311523,-0.3554688,-0.01416016,0.3222656,0.144043
3741,1.5625,-24.9375,-8.3125,-0.08789063,-0.8881836,-0.2978516,-0.01416016,0.3198242,0.1425781
3745,3.6875,-37.125,-16.9375,-0.01806641,-0.8686523,-0.324707,-0.01269531,0.3173828,0.1425781
3750,2.875,-40.0625,-24,0.109375,-0.9541016,-0.3706055,-0.01269531,0.3164063,0.1396484
3754,4.125,-33.625,-29,0.159668,-0.9619141,-0.4516602,-0.01171875,0.3134766,0.137207
3758,10.375,-23.25,-32.6875,0.159668,-0.9970703,-0.5400391,-0.01269531,0.3125,0.1357422
3762,21.875,-16.4375,-39.5625,0.190918,-1.059082,-0.5283203,-0.01513672,0.3110352,0.1342773
3766,33.875,-18.625,-44.1875,0.2104492,-1.020508,-0.4399414,-0.01855469,0.3100586,0.1289063
3770,39,-23.5625,-40.25,0.2646484,-0.9428711,-0.3901367,-0.02246094,0.3085938,0.125
3774,40.375,-21.3125,-29.6875,0.2993164,-0.8920898,-0.3359375,-0.02490234,0.3076172,0.1220703
3778,42.75,-12.4375,-23.6875,0.3457031,-0.8881836,-0.3051758,-0.02587891,0.3085938,0.1166992
3782,40.9375,-0.1875,-15,0.3457031,-0.8457031,-0.2744141,-0.02685547,0.3100586,0.1098633
3786,37.0625,14.375,-5.8125,0.3535156,-0.8647461,-0.2128906,-0.02832031,0.3076172,0.1069336
3790,33,31.9375,0.1875,0.2646484,-0.8574219,-0.1474609,-0.02832031,0.3061523,0.1000977
3794,27.8125,36.4375,-2.4375,0.1289063,-0.9116211,-0.1245117,-0.02832031,0.3076172,0.09765625
3798,29.9375,31.3125,-11.75,0.1210938,-0.9697266,-0.1401367,-0.02832031,0.3061523,0.09326172
3802,33.375,22.8125,-8.125,0.206543,-0.9970703,-0.1323242,-0.03076172,0.3046875,0.09082031
3806,37.1875,24,2.375,0.3188477,-0.9814453,-0.1206055,-0.03173828,0.3037109,0.08544922
3810,34.5,37.4375,10.125,0.3032227,-0.9038086,-0.1206055,-0.02929688,0.3037109,0.08251953
3814,25.25,48.375,1.625,0.2529297,-0.8842773,-0.1245117,-0.02832031,0.3022461,0.07861328
3818,20.1875,56.0625,-9.75,0.2875977,-1.000977,-0.1362305,-0.03076172,0.2998047,0.07177734
3822,18.4375,48.875,-9.4375,0.3110352,-1.012695,-0.1206055,-0.03173828,0.2998047,0.07177734
3826,19.25,41.375,-1.375,0.3999023,-1.121582,-0.1054688,-0.03320313,0.2973633,0.0703125
3830,29.4375,35.875,15.5,0.3847656,-1.15625,-0.1435547,-0.03173828,0.2963867,0.06640625
3834,41.125,29.5625,33.25,0.3457031,-1.133301,-0.2128906,-0.03417969,0.2963867,0.06347656
3838,46.75,36.5,29.5,0.3417969,-1.036133,-0.2514648,-0.03076172,0.293457,0.05810547
3842,42.6875,47.5,16.75,0.2875977,-1.000977,-0.2397461,-0.02832031,0.2924805,0.05419922
3846,43.875,44.8125,9.5,0.2529297,-1.121582,-0.2167969,-0.02832031,0.2910156,0.04980469
3850,58.375,30.3125,13.75,0.1445313,-1.160156,-0.1821289,-0.02685547,0.2910156,0.04443359
3854,72.125,11.375,21.5,0.1054688,-1.133301,-0.1860352,-0.02685547,0.2910156,0.0390625
3858,77.375,4.4375,16,0.1054688,-1.105957,-0.1630859,-0.02246094,0.2900391,0.03515625
3862,79.1875,-2.5,5.125,0.1518555,-1.207031,-0.109375,-0.02246094,0.2900391,0.02392578
3866,85.4375,-17.3125,-5.0625,0.159668,-1.222656,0.01708984,-0.02246094,0.2885742,0.01611328
3870,82.375,-30.625,-7.875,0.2758789,-1.167969,0.09423828,-0.01855469,0.2900391,0.01318359
3874,71.5625,-15.5,0,0.4155273,-1.191406,0.1328125,-0.01855469,0.2900391,0.004882813
3879,56.1875,6.9375,5.5,0.3188477,-1.1875,0.1748047,-0.02001953,0.2875977,-0.001464844
3883,39.8125,18.8125,5.4375,0.2412109,-1.245605,0.2021484,-0.01855469,0.2861328,-0.00390625
3887,31,18.3125,7.5625,0.1948242,-1.304199,0.2021484,-0.01611328,0.2851563,-0.009277344
3891,29.25,15.3125,9.75,0.1171875,-1.296387,0.2290039,-0.01513672,0.2851563,-0.01220703
3895,24.3125,2.75,7.8125,0.01269531,-1.22998,0.2480469,-0.01611328,0.2836914,-0.01220703
3899,23.5625,-7.5625,-2.3125,0.008789063,-1.237793,0.2675781,-0.01611328,0.2851563,-0.01611328
3903,21.0625,-17.0625,-12.3125,0.07080078,-1.066895,0.2905273,-0.01416016,0.2822266,-0.01757813
3907,8.4375,-9.6875,-18,0.2333984,-0.9311523,0.2597656,-0.01757813,0.2822266,-0.01904297
3911,-7.6875,5.9375,-19.6875,0.3417969,-0.8066406,0.159668,-0.01855469,0.2822266,-0.01757813
3915,-19,12.6875,-17.375,0.2724609,-0.8686523,0.02880859,-0.02099609,0.2822266,-0.01757813
3919,-3.5625,-2.8125,-16.5,0.1518555,-1.059082,0.04052734,-0.02099609,0.28125,-0.01464844
3923,20.4375,-23.375,-14.75,0.1713867,-1.008789,0.105957,-0.02246094,0.28125,-0.01611328
3927,29.75,-35.9375,-14.75,0.2373047,-0.9970703,0.1826172,-0.02490234,0.28125,-0.01757813
3931,26.875,-34.4375,-12.6875,0.3730469,-0.9350586,0.2944336,-0.0234375,0.2822266,-0.02050781
3935,9.25,-10.1875,-7,0.4619141,-1.000977,0.4213867,-0.0234375,0.2797852,-0.02148438
3939,-8.25,7.25,1.5625,0.3110352,-1.121582,0.4750977,-0.02490234,0.2797852,-0.02148438
3943,-23.25,9.25,0.125,0.09375,-1.319336,0.4941406,-0.0234375,0.2797852,-0.02294922
3947,-28.5625,-8.75,-8.3125,-0.04101563,-1.447754,0.4750977,-0.0234375,0.28125,-0.02148438
3951,-32.625,-26.3125,-15.5,0.06689453,-1.471191,0.425293,-0.0234375,0.28125,-0.01757813
3955,-43,-29.6875,-21.5,0.1445313,-1.416504,0.3598633,-0.02685547,0.2797852,-0.01367188
3959,-54.6875,-26.6875,-28.8125,0.2294922,-1.408691,0.2827148,-0.02832031,0.2822266,-0.01074219
3963,-66.8125,-17.1875,-36.4375,0.3032227,-1.370117,0.1904297,-0.02929688,0.2836914,-0.006835938
3967,-74.75,-15.5625,-39.25,0.3417969,-1.350586,0.1171875,-0.03662109,0.2836914,0
3971,-78.8125,-15.1875,-35,0.3730469,-1.34668,0.009765625,-0.04003906,0.2822266,0.006347656
3975,-76.75,-25.25,-23.4375,0.3808594,-1.389648,-0.05908203,-0.04394531,0.2851563,0.01318359
3979,-65.75,-29.6875,-9.9375,0.4272461,-1.439941,-0.1552734,-0.04492188,0.2861328,0.01708984
3983,-54.5625,-37.8125,-0.5,0.2875977,-1.280762,-0.109375,-0.04589844,0.2885742,0.02539063
3987,-62.5,-43.1875,-3.375,0.3613281,-1.129395,-0.1166992,-0.04736328,0.2900391,0.03076172
3991,-78.625,-27.875,-13.1875,0.4814453,-1.08252,-0.1669922,-0.04492188,0.2924805,0.03613281
3995,-88,-11.0625,-14,0.4350586,-1.140625,-0.2324219,-0.04736328,0.293457,0.04589844
3999,-78.8125,-13.3125,-3.0625,0.3691406,-1.257324,-0.2861328,-0.04980469,0.2924805,0.05273438
4003,-53.5,-24.1875,13.9375,0.2836914,-1.312012,-0.324707,-0.04736328,0.293457,0.05810547
4008,-21,-42.3125,35.3125,0.3730469,-1.315918,-0.3823242,-0.04736328,0.2988281,0.06494141
4012,8,-41.4375,59.6875,0.4233398,-1.090332,-0.3168945,-0.04248047,0.2998047,0.06640625
4016,-0.875,-27.125,63.4375,0.3305664,-0.5927734,-0.1245117,-0.0390625,0.3046875,0.06640625
4020,-55,-14.0625,40.5,0.2993164,-0.4453125,-0.05126953,-0.03320313,0.3085938,0.06884766
4024,-87.3125,0.625,23.3125,0.3457031,-0.7753906,-0.09375,-0.02929688,0.3110352,0.07714844
4028,-79.5,22.125,15.75,0.4155273,-1.086426,-0.1630859,-0.03076172,0.3085938,0.08398438
4032,-52.25,24,25.625,0.2875977,-1.207031,-0.1860352,-0.03076172,0.3125,0.09326172
4036,-22.6875,8.25,40.4375,0.2915039,-1.160156,-0.1743164,-0.02929688,0.3149414,0.09912109
4040,-9.75,10,45.375,0.3613281,-1.059082,-0.1435547,-0.02832031,0.3125,0.1000977
4044,-15.6875,32.5,27.875,0.2915039,-0.8300781,-0.0859375,-0.0234375,0.3173828,0.1015625
4048,-34.5,51.3125,-11.4375,0.04345703,-0.7988281,-0.08203125,-0.02587891,0.3198242,0.1069336
4052,-35.625,32.5625,-30.9375,-0.2041016,-0.8261719,-0.04394531,-0.02832031,0.3212891,0.1083984
4056,-25.625,-4.75,-38.5,-0.1533203,-0.8803711,-0.07861328,-0.03417969,0.3222656,0.1152344
4060,-6.3125,-29.5,-34.5,-0.04882813,-0.8574219,-0.1054688,-0.04003906,0.3237305,0.1191406
4064,9.9375,-43.5625,-26.1875,0.1171875,-0.7290039,-0.1054688,-0.04003906,0.3261719,0.1220703
4068,11.5625,-31.625,-30.75,0.3071289,-0.5776367,-0.1630859,-0.04248047,0.3300781,0.1235352
4072,-1.9375,-2.5625,-35.9375,0.3149414,-0.5112305,-0.1860352,-0.04736328,0.3325195,0.1259766
4076,-5.5,10.5,-33.875,0.1674805,-0.5229492,-0.109375,-0.05224609,0.3349609,0.1274414
4080,-4.625,-3.625,-36.6875,0.004882813,-0.5307617,-0.1474609,-0.05566406,0.3359375,0.1289063
4084,4,-27.1875,-38.0625,0.04345703,-0.7094727,-0.1401367,-0.06054688,0.3374023,0.1328125
4088,12.8125,-45.75,-38.5625,0.1948242,-0.7172852,-0.2553711,-0.06298828,0.3374023,0.1328125
4092,17.125,-44.375,-30.4375,0.3613281,-0.7172852,-0.2475586,-0.06640625,0.3398438,0.1342773
4096,9.0625,-30.0625,-29.1875,0.4892578,-0.6591797,-0.378418,-0.06884766,0.3413086,0.1342773
4100,-1.75,-9.4375,-30.25,0.4931641,-0.7641602,-0.5976563,-0.07128906,0.3413086,0.1381836
4104,1.375,1.875,-31.625,0.6557617,-1.133301,-0.9052734,-0.07324219,0.3422852,0.1381836
4108,37.5,21.0625,-10.25,0.609375,-1.272949,-0.878418,-0.07714844,0.3461914,0.137207
4112,66.5,21.8125,13.0625,0.4311523,-0.9272461,-0.6401367,-0.08056641,0.3510742,0.1357422
4116,75.5,28.1875,21.875,0.3959961,-0.7563477,-0.3554688,-0.07714844,0.3574219,0.1274414
4120,70.8125,39,24.3125,0.3227539,-0.5893555,-0.2705078,-0.07958984,0.3662109,0.1181641
4124,62.1875,49.75,27.9375,0.4194336,-0.8378906,-0.324707,-0.07568359,0.3725586,0.1137695
4128,80.0625,69.625,48.375,0.3417969,-0.8105469,-0.3476563,-0.07324219,0.3823242,0.1044922
4132,88.0625,74.125,74.8125,0.1831055,-0.8183594,-0.3554688,-0.06884766,0.3911133,0.08935547
4137,109.4375,77.5625,92.5,-0.08789063,-0.7832031,-0.109375,-0.06152344,0.3974609,0.08251953
4141,109.5625,50.8125,94.9375,-0.3203125,-0.5,0.1787109,-0.04833984,0.4086914,0.06347656
4145,86.0625,49.9375,61.5,-0.1069336,-0.519043,0.2480469,-0.04003906,0.4111328,0.04882813
4149,55.5625,63.625,33.1875,-0.1845703,-0.5268555,0.2060547,-0.03515625,0.4150391,0.0390625
4153,41.8125,46.1875,9.5,-0.2119141,-0.8686523,0.1904297,-0.03173828,0.4174805,0.02978516
4157,49.6875,22.4375,-2.8125,-0.2426758,-0.7988281,0.1635742,-0.02929688,0.4208984,0.02148438
4161,45.5625,-14.5625,-13.625,-0.2543945,-0.8222656,0.1557617,-0.03320313,0.4199219,0.01708984
4165,48.0625,-55.625,-24.1875,-0.1499023,-0.7641602,0.07128906,-0.03515625,0.4223633,0.01171875
4169,42.4375,-74.8125,-27.8125,0.03173828,-0.7753906,0.009765625,-0.03662109,0.4199219,0.006347656
4173,31.375,-60.5625,-24.6875,0.3925781,-0.6977539,0.009765625,-0.0390625,0.4208984,0.004882813
4177,7.1875,-26.5,-14.1875,0.4775391,-0.7172852,-0.04003906,-0.04248047,0.4208984,0
4181,-5.125,-1.625,-1.125,0.4506836,-0.8920898,-0.01660156,-0.04394531,0.418457,0.0009765625
4185,-6,1.75,15.25,0.159668,-0.9038086,0.02490234,-0.04248047,0.418457,0.0009765625
4189,-7.625,-5.4375,16.25,0.09033203,-0.9038086,0.06738281,-0.0390625,0.418457,0.0009765625
4193,-7.6875,-13.9375,10.6875,0.01660156,-0.9350586,0.05566406,-0.03759766,0.4160156,0.00390625
4197,-6.1875,-19.5,5.5625,0.08642578,-1.008789,0.06347656,-0.03662109,0.4150391,0.00390625
4201,-5.1875,-19.1875,-1.375,0.1484375,-0.9658203,0.06347656,-0.03662109,0.4150391,0.004882813
4205,-11.3125,-7.875,-6.125,0.2216797,-0.9580078,0.1020508,-0.03662109,0.4111328,0.0078125
4209,-14.9375,-10.5625,-3.375,0.1054688,-0.8920898,0.140625,-0.03662109,0.4111328,0.006347656
4213,-20.25,-19.4375,-1.125,0.09375,-0.9194336,0.1328125,-0.03759766,0.4086914,0.009277344
4217,-22.9375,-24.0625,-1.375,0.1445313,-0.9194336,0.09814453,-0.03515625,0.4086914,0.01464844
4221,-25.9375,-18.875,0.875,0.1713867,-0.9194336,0.1289063,-0.03759766,0.40625,0.01611328
4225,-33.25,-13.9375,-0.75,0.1674805,-0.8457031,0.09033203,-0.03759766,0.4047852,0.01855469
4229,-41.125,-13.0625,-2.25,0.03955078,-0.8144531,0.105957,-0.03662109,0.4023438,0.02539063
4233,-46.3125,-18.25,-7.75,0.125,-0.8725586,0.009765625,-0.0390625,0.4013672,0.02832031
4237,-46.3125,-13.8125,-5.625,0.1484375,-0.9311523,-0.009277344,-0.03759766,0.3959961,0.03613281
4241,-44.5,-18.3125,-1.6875,0.1171875,-0.8881836,-0.04003906,-0.0390625,0.3935547,0.04199219
4245,-41.3125,-22.375,0.125,0.01660156,-0.8300781,0.06347656,-0.03759766,0.3935547,0.04589844
4249,-39.9375,-34.875,-0.1875,-0.06054688,-0.7250977,0.1479492,-0.03759766,0.387207,0.05126953
4253,-52.25,-40.625,-8.6875,0.09765625,-0.6821289,0.005859375,-0.03759766,0.3837891,0.05957031
4257,-61.9375,-21.8125,-16.375,0.2915039,-0.8378906,-0.1362305,-0.03759766,0.3837891,0.06347656
4261,-61.9375,-2.875,-16.4375,0.2138672,-0.8803711,-0.3051758,-0.03759766,0.3759766,0.07177734
4266,-48.625,-5.6875,-12.625,0.04345703,-0.9077148,-0.2397461,-0.04150391,0.3710938,0.08007813
4270,-31.9375,-29.8125,-3.4375,-0.05664063,-0.7485352,-0.07861328,-0.04003906,0.3701172,0.08007813
4274,-28.75,-52,6.125,0.02832031,-0.6787109,0.02880859,-0.04003906,0.3671875,0.08398438
4278,-34.8125,-50.8125,10.125,0.2294922,-0.6435547,-0.01660156,-0.03662109,0.3637695,0.08789063
4282,-52,-30,12.0625,0.3925781,-0.6591797,-0.2167969,-0.03515625,0.355957,0.08935547
4286,-62,5.1875,11.0625,0.3730469,-0.8222656,-0.4399414,-0.03515625,0.3525391,0.09619141
4290,-51.25,24.1875,3.875,0.125,-0.9350586,-0.4555664,-0.03320313,0.347168,0.1015625
4294,-30.25,7.75,4.6875,-0.08007813,-0.9389648,-0.359375,-0.03515625,0.34375,0.1044922
4298,-12.5625,-17.625,5.625,-0.01025391,-0.8417969,-0.2246094,-0.03417969,0.3388672,0.1044922
4302,-15.3125,-24.0625,4.3125,0.2373047,-0.7910156,-0.1821289,-0.03076172,0.3374023,0.1044922
4306,-22.0625,-3.5,10.75,0.3847656,-0.7832031,-0.2016602,-0.02929688,0.3349609,0.1069336
4310,-32.8125,23.4375,16.4375,0.3457031,-0.8339844,-0.3398438,-0.02832031,0.3310547,0.105957
4314,-32.9375,39.125,14.5,0.2490234,-1.02832,-0.4707031,-0.02685547,0.3276367,0.1098633
4318,-16.75,36.1875,9.1875,0.1831055,-1.160156,-0.4594727,-0.02587891,0.3237305,0.1098633
4322,-1.875,19.9375,10.75,0.140625,-1.066895,-0.378418,-0.0234375,0.3222656,0.1083984
4326,2.3125,10.3125,16.375,0.2836914,-1.043945,-0.2822266,-0.02490234,0.3188477,0.1083984
4330,-0.625,22.375,21.125,0.3808594,-0.9892578,-0.2397461,-0.02246094,0.3188477,0.1030273
4334,-9.375,40.625,30.1875,0.3457031,-0.9580078,-0.2363281,-0.01855469,0.3188477,0.105957
4338,-18.5625,47.9375,33.0625,0.2529297,-0.9697266,-0.2783203,-0.01611328,0.3164063,0.1044922
4342,-15.3125,42.5,36,0.159668,-1.020508,-0.3012695,-0.01513672,0.3134766,0.1044922
4346,-6.9375,32.25,39.5625,0.1054688,-0.9658203,-0.3168945,-0.01269531,0.3085938,0.1030273
4350,1.375,23.4375,34.375,0.08251953,-0.9658203,-0.3129883,-0.005859375,0.3085938,0.1030273
4354,7.8125,18.1875,24.1875,0.05908203,-0.9814453,-0.2744141,-0.0078125,0.3076172,0.1030273
4358,11.25,12,12.3125,0.1518555,-1.05127,-0.2397461,-0.005859375,0.3046875,0.09912109
4362,13.3125,14.3125,10.3125,0.1713867,-1.070801,-0.2167969,-0.003417969,0.3022461,0.09619141
4366,15.75,17.3125,6.5,0.1367188,-1.05127,-0.2016602,-0.004394531,0.3022461,0.09619141
4370,16.1875,21.875,-1,0.09033203,-1.032227,-0.128418,-0.003417969,0.2998047,0.09228516
4374,15.9375,17.8125,-6.25,0.04736328,-1.059082,-0.04394531,-0.001953125,0.2998047,0.09082031
4378,17,14.4375,-8.375,0.1015625,-1.066895,-0.01660156,-0.0009765625,0.2973633,0.08789063
4382,13.875,20.5,-8.75,0.109375,-1.02832,0.02099609,-0.003417969,0.2973633,0.08544922
4386,7.3125,29,-8.375,0.04345703,-0.9970703,-0.005371094,-0.006835938,0.2949219,0.08544922
4390,9.75,32.8125,-10.25,-0.02978516,-1.040039,0.001953125,-0.004394531,0.2949219,0.08398438
4395,7.1875,28.5625,-18.4375,0.02441406,-1.090332,-0.03222656,-0.006835938,0.2924805,0.08251953
4399,12.8125,21,-16.25,0.05908203,-1.070801,-0.01660156,-0.009277344,0.2910156,0.08105469
4403,8.375,17.25,-14.75,0.1171875,-1.012695,-0.02832031,-0.01269531,0.2910156,0.08105469
4407,10.0625,22.25,-13.8125,0.09765625,-1.012695,-0.07080078,-0.01416016,0.2900391,0.08105469
4411,10.25,21.75,-24.6875,0.109375,-1.047363,-0.1743164,-0.01855469,0.2861328,0.08007813
4415,17.1875,16.4375,-28.625,0.206543,-1.164063,-0.2016602,-0.02246094,0.2836914,0.08007813
4419,21.5625,3.5,-26.125,0.3110352,-1.117676,-0.2089844,-0.02587891,0.2836914,0.07714844
4423,21.875,-1.3125,-17.3125,0.4389648,-1.121582,-0.2514648,-0.02832031,0.2822266,0.07861328
4427,20.125,6.6875,-4.8125,0.4428711,-1.040039,-0.2705078,-0.03173828,0.2797852,0.07714844
4431,10.75,20.25,-0.0625,0.3457031,-1.004883,-0.3129883,-0.03320313,0.2788086,0.07324219
4435,4.9375,34.4375,-12.875,0.3339844,-1.117676,-0.3632813,-0.03515625,0.2763672,0.07568359
4439,12.1875,35.6875,-15.75,0.2412109,-1.284668,-0.3554688,-0.03662109,0.2773438,0.07324219
4443,25.5,18.6875,-14.5,0.2607422,-1.269043,-0.3398438,-0.0390625,0.2773438,0.07324219
4447,49.125,7,10.75,0.3886719,-1.358398,-0.2744141,-0.04150391,0.2763672,0.06884766
4451,35.625,6.625,3,0.2724609,-0.8842773,-0.2436523,-0.0390625,0.2788086,0.06640625
4455,20.625,22.4375,-12.25,0.3535156,-1.074707,-0.1743164,-0.04003906,0.2788086,0.06347656
4459,10.25,31.5,-27.625,0.2797852,-1.160156,-0.2207031,-0.04248047,0.2773438,0.06201172
4463,20.9375,13.9375,-27.875,0.2138672,-1.241699,-0.2016602,-0.04492188,0.2773438,0.06103516
4467,29.375,-3.8125,-26.875,0.2451172,-1.152344,-0.1708984,-0.04833984,0.2788086,0.05957031
4471,35,-17.375,-25.875,0.2646484,-1.11377,-0.1435547,-0.05078125,0.2788086,0.05957031
4475,33.0625,-22.9375,-31.6875,0.3110352,-1.090332,-0.1245117,-0.05322266,0.2763672,0.05517578
4479,31.1875,-27.25,-31.875,0.3769531,-1.070801,-0.08203125,-0.05419922,0.2797852,0.05126953
4483,23.8125,-22.6875,-27.5625,0.4775391,-1.012695,-0.05908203,-0.05810547,0.2788086,0.04980469
4487,15.125,-12.625,-17.3125,0.5473633,-1.024414,-0.05517578,-0.06054688,0.2788086,0.04980469
4491,7.125,-3.625,-6.75,0.4658203,-0.9619141,-0.04736328,-0.06298828,0.2788086,0.04736328
4495,-3.6875,1.8125,-5.625,0.3847656,-0.9931641,-0.05908203,-0.06152344,0.2773438,0.04736328
4499,-4.25,-1.5,-5.25,0.2724609,-1.11377,-0.09375,-0.06054688,0.2788086,0.04736328
4503,3.0625,-14.6875,-6.875,0.2373047,-1.133301,-0.06689453,-0.06054688,0.2773438,0.05126953
4507,5.8125,-23.8125,-6.8125,0.3032227,-1.117676,-0.05126953,-0.06054688,0.2773438,0.04882813
4511,3.125,-21.0625,-2.75,0.3847656,-1.078613,-0.03613281,-0.05908203,0.2797852,0.04589844
4515,-5.1875,-8.8125,-1.9375,0.3730469,-1.070801,-0.07080078,-0.06054688,0.2797852,0.04589844
4519,-10.6875,-7.8125,-1,0.2954102,-1.160156,-0.09765625,-0.05908203,0.2773438,0.04882813
4524,-6.9375,-14.4375,0.5,0.3378906,-1.249512,-0.1591797,-0.05908203,0.2797852,0.04882813
4528,-0.25,-17.6875,5.4375,0.3496094,-1.237793,-0.1860352,-0.05810547,0.2797852,0.04882813
4532,0.4375,-17.625,8.3125,0.3535156,-1.1875,-0.1708984,-0.05566406,0.28125,0.04882813
4536,-4.4375,-14.8125,3.3125,0.2954102,-1.148438,-0.1513672,-0.05566406,0.28125,0.04882813
4540,-12.125,-20.125,-7.4375,0.2993164,-1.203125,-0.1743164,-0.05566406,0.2851563,0.04980469
4544,-12.5625,-21.8125,-9.5625,0.3925781,-1.29248,-0.2128906,-0.05566406,0.2851563,0.05126953
4548,-2.9375,-19.125,-1.25,0.4467773,-1.342773,-0.2670898,-0.05810547,0.2851563,0.05419922
4552,12.1875,-16.1875,17.3125,0.4194336,-1.331055,-0.3012695,-0.05810547,0.2851563,0.05126953
4556,35.375,-16,39.375,0.4233398,-1.327148,-0.3208008,-0.05322266,0.2900391,0.04882813
4560,48.625,-12.875,45.375,0.3574219,-1.043945,-0.2324219,-0.04980469,0.2910156,0.04736328
4564,28.3125,-13.125,27.3125,0.2490234,-0.7753906,-0.0859375,-0.04394531,0.2949219,0.04199219
4568,0,-12.0625,-3.8125,0.2138672,-0.8764648,-0.05517578,-0.04394531,0.2973633,0.04052734
4572,-2.25,-20.375,-22.5625,0.1367188,-1.136719,-0.02441406,-0.04248047,0.2998047,0.04199219
4576,7.8125,-40.5,-21.25,0.1987305,-1.171875,-0.03222656,-0.04248047,0.3022461,0.0390625
4580,14.75,-47,-11.625,0.3999023,-1.195313,-0.03613281,-0.04589844,0.3046875,0.04052734
4584,21.25,-31.6875,5.8125,0.5395508,-1.164063,-0.07470703,-0.04248047,0.3085938,0.0390625
4588,23.4375,-13.5,24.75,0.4272461,-0.9970703,0.03662109,-0.04248047,0.3110352,0.03613281
4592,5,-12.4375,25.3125,0.2993164,-0.8300781,0.144043,-0.04003906,0.3134766,0.03515625
4596,-22.9375,-6.8125,7.375,0.2836914,-0.8999023,0.1713867,-0.0390625,0.3164063,0.03613281
4600,-34.6875,-2.8125,-9.5,0.2177734,-1.102051,0.105957,-0.04003906,0.3188477,0.0390625
4604,-27.6875,-12.9375,-8,0.1870117,-1.167969,0.08642578,-0.04248047,0.3212891,0.04296875
4608,-15.375,-20.1875,3.375,0.2836914,-1.167969,0.03271484,-0.04492188,0.3212891,0.04443359
4612,-3.25,-17,18.5625,0.3535156,-1.086426,0.03662109,-0.04248047,0.3237305,0.04736328
4616,6,-15.5,37.5,0.3496094,-1.05127,0.02490234,-0.04150391,0.3261719,0.04882813
4620,16.3125,-9.5,50.25,0.2954102,-0.9619141,0.07910156,-0.04003906,0.3286133,0.04980469
4624,10.375,-6.625,46.3125,0.2255859,-0.7446289,0.1210938,-0.03417969,0.3334961,0.04882813
4628,-9.25,-4.3125,33.375,0.206543,-0.7485352,0.05175781,-0.03320313,0.3388672,0.04882813
4632,-19.1875,-2.5625,24,0.2490234,-0.9116211,-0.08203125,-0.02929688,0.3398438,0.04980469
4636,-8.5,2.5625,26.375,0.2373047,-1.004883,-0.1630859,-0.02685547,0.3413086,0.05419922
4640,9.875,0.125,35.625,0.140625,-0.9311523,-0.1782227,-0.02587891,0.34375,0.05419922
4644,22.0625,-10.0625,42.0625,0.1132813,-0.8417969,-0.1513672,-0.02099609,0.3461914,0.05273438
4648,19.1875,-10.9375,32.0625,0.09375,-0.5893555,-0.09765625,-0.01757813,0.3500977,0.05517578
4653,6.875,-0.0625,11,0.1713867,-0.5268555,0.03271484,-0.01611328,0.3549805,0.05126953
4657,-12.6875,8.6875,-13.375,0.08251953,-0.4921875,-0.06298828,-0.01416016,0.355957,0.05273438
4661,-31.8125,13.4375,-31.75,0.09033203,-0.6201172,-0.1513672,-0.01855469,0.3574219,0.05517578
4665,-34.875,11.1875,-37.0625,0.1791992,-0.9116211,-0.3862305,-0.02246094,0.3598633,0.06103516
4669,-1.4375,9.5625,-23,0.1870117,-1.105957,-0.3862305,-0.02490234,0.3598633,0.06347656
4673,26.3125,1.1875,-4.5,0.1484375,-0.9350586,-0.3325195,-0.02929688,0.3647461,0.06201172
4677,30.6875,-3.4375,-5.25,0.2646484,-0.9116211,-0.2822266,-0.03076172,0.3662109,0.05957031
4681,28.5625,9.6875,-16.9375,0.2836914,-0.8144531,-0.2089844,-0.03173828,0.3671875,0.05664063
4685,17.6875,25.5,-24.25,0.3457031,-0.9389648,-0.128418,-0.03515625,0.3710938,0.05419922
4689,20.25,38.375,-23.8125,0.3652344,-1.167969,-0.1630859,-0.03515625,0.3725586,0.05126953
4693,48.9375,36.625,-6.25,0.2294922,-1.1875,-0.1669922,-0.0390625,0.3774414,0.04980469
4697,81.25,16.4375,11.125,0.140625,-1.245605,-0.1513672,-0.04003906,0.3798828,0.0390625
4701,124.5625,-4.25,32.1875,0.1289063,-1.109863,0.07519531,-0.03759766,0.387207,0.02685547
4705,133.4375,-2.125,46.375,0.1674805,-0.503418,0.4868164,-0.03173828,0.3935547,0.01464844
4709,78.375,18.1875,39,0.2216797,0.04736328,0.7480469,-0.02685547,0.3959961,-0.001464844
4713,-0.0625,46.25,21.8125,0.175293,-0.2822266,0.5405273,-0.0234375,0.3999023,-0.005371094
4717,-11.375,52.875,20.625,-0.05273438,-0.8647461,0.3364258,-0.02099609,0.3999023,-0.005371094
4721,-1.375,27.625,26.5,-0.2387695,-0.8144531,0.1479492,-0.01611328,0.4047852,-0.005371094
4725,-2.375,1.8125,22.5,-0.3007813,-0.7211914,-0.05908203,-0.01269531,0.4072266,-0.005371094
4729,0.5,-17,11.125,-0.2231445,-0.9506836,-0.1938477,-0.01025391,0.4038086,-0.00390625
4733,13.75,-27.8125,0.5,-0.1923828,-0.8999023,-0.2055664,-0.009277344,0.4072266,-0.002441406
4737,13.8125,-33.875,-7.75,-0.04882813,-0.7641602,-0.09765625,-0.01025391,0.4086914,-0.005371094
4741,4.1875,-29.3125,-10.1875,0.1171875,-0.7368164,-0.1323242,-0.01269531,0.4086914,-0.005371094
4745,2,-17.625,-4.9375,0.2216797,-0.9077148,-0.1938477,-0.01269531,0.4086914,-0.005371094
4749,10.1875,-9.8125,5.3125,0.206543,-0.9311523,-0.2285156,-0.01269531,0.4086914,-0.005371094
4753,15.9375,-3.0625,12.9375,0.2138672,-0.8725586,-0.1474609,-0.01171875,0.4086914,-0.006835938
4757,9.125,8.0625,15.0625,0.1557617,-0.7792969,-0.03613281,-0.01025391,0.4072266,-0.009277344
4761,4,11.625,14.5,0.07080078,-0.8339844,0.02099609,-0.0078125,0.4072266,-0.01220703
4765,-2.375,10.5,8.5625,0.0009765625,-0.8027344,0.1020508,-0.006835938,0.4072266,-0.009277344
4769,-9.375,8.6875,4.5625,0.04345703,-0.9194336,0.08642578,-0.006835938,0.4047852,-0.01074219
4773,-7.25,5.875,4.625,0.02832031,-0.9311523,0.03271484,-0.006835938,0.40625,-0.008300781
4777,-3.3125,-1.0625,5.75,-0.01416016,-0.9697266,0.06738281,-0.003417969,0.40625,-0.008300781
4782,-0.4375,-10.8125,5.6875,0.008789063,-0.9038086,0.09423828,-0.003417969,0.4047852,-0.009277344
4786,-4.75,-14.125,1.75,0.04345703,-0.8496094,0.144043,-0.003417969,0.4023438,-0.008300781
4790,-11.1875,-15.5,-1.0625,0.01660156,-0.8066406,0.2290039,-0.004394531,0.4013672,-0.008300781
4794,-19.5625,-23.125,-1.6875,0.03955078,-0.7832031,0.2250977,-0.001953125,0.3984375,-0.008300781
4798,-28.5,-18.625,-1.5625,0.140625,-0.8300781,0.1713867,-0.003417969,0.4013672,-0.002441406
4802,-31.875,-13.75,2.5625,0.05517578,-0.8222656,0.140625,-0.004394531,0.3959961,0
4806,-30.625,-20.5625,5.4375,-0.05273438,-0.7871094,0.1982422,-0.003417969,0.3950195,0.00390625
4810,-32.75,-35.5,5.5,-0.09130859,-0.7172852,0.2636719,-0.003417969,0.3925781,0.0078125
4814,-45.9375,-44.4375,-0.625,0.02050781,-0.6938477,0.05957031,-0.003417969,0.3896484,0.01171875
4818,-48.125,-36.9375,-5.6875,0.1171875,-0.8959961,0.005859375,-0.004394531,0.3862305,0.01708984
4822,-45,-30.3125,-3.6875,0.1210938,-0.8496094,-0.1245117,-0.004394531,0.3837891,0.02148438
4826,-36.4375,-26.8125,-2.75,0.06298828,-0.8764648,-0.05517578,-0.004394531,0.3813477,0.02685547
4830,-29.5,-32.5,-2.5,0.02832031,-0.7949219,0.04443359,-0.004394531,0.3774414,0.03076172
4834,-36.125,-36.5,-1.25,0.09765625,-0.6591797,0.09033203,-0.004394531,0.375,0.03369141
4838,-54.5625,-29.375,-2.3125,0.1674805,-0.6860352,0.001953125,-0.001953125,0.375,0.03759766
4842,-59.625,-21.1875,-1.5,0.1367188,-0.8300781,-0.1245117,-0.0009765625,0.3686523,0.04589844
4846,-49.6875,-19.375,1.1875,0.06298828,-0.9350586,-0.1938477,-0.004394531,0.3637695,0.05126953
4850,-33.625,-23.6875,4.6875,-0.01025391,-0.8535156,-0.1166992,-0.001953125,0.3613281,0.05664063
4854,-34.4375,-29.25,2.0625,0.03564453,-0.7446289,-0.02050781,-0.0009765625,0.3574219,0.05810547
4858,-48.875,-23.125,-5.6875,0.1445313,-0.6977539,-0.04736328,0,0.3535156,0.06103516
4862,-57.375,-8.3125,-5.875,0.2138672,-0.8457031,-0.1860352,-0.001953125,0.3500977,0.06347656
4866,-57.4375,6.1875,-7,0.1674805,-0.9194336,-0.3398438,-0.003417969,0.3447266,0.0703125
4870,-44.5,5.5625,-11.125,0.02441406,-1.02832,-0.3168945,-0.001953125,0.3413086,0.07568359
4874,-23.9375,-7.5,-7.5625,0.04345703,-1.043945,-0.2744141,-0.003417969,0.3349609,0.07714844
4878,-17,-14.0625,-9.3125,0.1674805,-0.9697266,-0.2553711,-0.004394531,0.3334961,0.08007813
4882,-22.5625,-7,-11.9375,0.3417969,-0.9619141,-0.3012695,-0.005859375,0.3310547,0.08105469
4886,-30.5625,13.375,-10.5625,0.4311523,-0.9658203,-0.3554688,-0.003417969,0.3276367,0.08105469
4890,-35.5625,36.75,-6.375,0.3417969,-0.9853516,-0.3862305,-0.005859375,0.324707,0.08251953
4894,-32.25,42.6875,-2.5625,0.175293,-1.070801,-0.3901367,-0.0078125,0.3212891,0.08789063
4898,-19.375,37.9375,-1.6875,0.140625,-1.195313,-0.3398438,-0.006835938,0.3173828,0.08789063
4902,-6.5625,25.875,-2.1875,0.08642578,-1.164063,-0.2670898,-0.006835938,0.3173828,0.08691406
4906,-3.0625,14.1875,-5.25,0.1171875,-1.059082,-0.1860352,-0.0078125,0.3134766,0.08398438
4911,-9.5,14.5,-7.75,0.2026367,-1.024414,-0.1899414,-0.006835938,0.3125,0.08398438
4915,-13.25,29.1875,-5.875,0.2412109,-1.016602,-0.2246094,-0.006835938,0.3110352,0.08544922
4919,-19.0625,37.5625,-1.5,0.1713867,-1.055176,-0.2939453,-0.0078125,0.3085938,0.08544922
4923,-11.875,32.5625,1.6875,0.109375,-1.129395,-0.2939453,-0.009277344,0.3046875,0.08691406
4927,0.25,18.1875,4.875,0.03564453,-1.105957,-0.2128906,-0.009277344,0.3037109,0.08691406
4931,10.6875,7.8125,2.3125,0.08251953,-1.094238,-0.1401367,-0.01025391,0.3012695,0.08544922
4935,13,9.1875,-11.5,0.1870117,-1.074707,-0.128418,-0.01171875,0.3012695,0.08544922
4939,11.25,17.4375,-20.1875,0.1831055,-1.094238,-0.09765625,-0.01171875,0.2988281,0.08398438
4943,14.6875,15.875,-16.1875,0.1713867,-1.070801,-0.06298828,-0.01416016,0.2973633,0.08251953
4947,19.5,7.4375,-8.375,0.1870117,-1.047363,-0.03613281,-0.01513672,0.2963867,0.08105469
4951,22.3125,11.625,-8.9375,0.2294922,-0.9619141,-0.01318359,-0.01757813,0.2963867,0.07861328
4955,20.8125,17.6875,-15,0.1635742,-0.8999023,0.01367188,-0.01855469,0.293457,0.07568359
4959,15.4375,21.8125,-24.375,0.2255859,-0.9580078,-0.04003906,-0.01855469,0.293457,0.07568359
4963,16.125,22.75,-22.9375,0.2216797,-0.9814453,-0.05126953,-0.02099609,0.2924805,0.07177734
4967,17.375,14.625,-18,0.2490234,-0.9697266,-0.07861328,-0.02587891,0.2900391,0.07324219
4971,21.125,17.5625,-18.75,0.2836914,-0.9697266,-0.112793,-0.02587891,0.2910156,0.07177734
4975,25,22.25,-18.0625,0.2607422,-0.9736328,-0.1669922,-0.02832031,0.2875977,0.06787109
4979,26.375,23.75,-22.6875,0.2954102,-1.020508,-0.2207031,-0.03320313,0.2875977,0.06640625
4983,34.5625,20.5,-15.9375,0.3339844,-1.098145,-0.2207031,-0.03320313,0.2875977,0.06640625
4987,42.875,15.75,-6.9375,0.3959961,-1.105957,-0.2285156,-0.03515625,0.2851563,0.06103516
4991,48.6875,18.0625,2.125,0.4272461,-1.078613,-0.2167969,-0.03662109,0.2851563,0.05810547
4995,47.125,29.3125,4,0.4038086,-1.012695,-0.2207031,-0.0390625,0.2836914,0.05273438
4999,34.1875,41.75,-7.5625,0.2875977,-0.9931641,-0.2016602,-0.04003906,0.2836914,0.05126953
5003,23.6875,34.4375,-19,0.2412109,-1.171875,-0.2089844,-0.04248047,0.2822266,0.04736328
5007,34.3125,19.3125,-13.125,0.2993164,-1.327148,-0.2055664,-0.04492188,0.28125,0.04589844
5011,41.625,11.25,-2.25,0.3808594,-1.245605,-0.2055664,-0.04736328,0.2797852,0.0390625
5015,45.25,17.5,14.9375,0.4853516,-1.505859,-0.309082,-0.04589844,0.28125,0.0390625
5019,44.3125,22.4375,18.375,0.3149414,-1.05127,-0.1323242,-0.04492188,0.28125,0.03369141
5023,26.625,22.3125,6.125,0.2875977,-1.167969,-0.04736328,-0.04248047,0.2822266,0.03222656
5027,24.9375,13.5625,-2.75,0.206543,-1.214844,-0.04736328,-0.04492188,0.2822266,0.02978516
5031,25.8125,0.4375,-5.625,0.190918,-1.237793,-0.02050781,-0.04150391,0.2822266,0.02539063
5035,28.6875,-9.75,-8.3125,0.1948242,-1.1875,-0.005371094,-0.04248047,0.28125,0.02392578
5040,27.625,-15.375,-11.4375,0.2333984,-1.175781,-0.02441406,-0.04394531,0.2822266,0.02001953
5044,29,-17.5,-13,0.3110352,-1.090332,0.04052734,-0.04248047,0.2836914,0.01855469
5048,16.875,-12.6875,-16.375,0.3959961,-0.9736328,0.06738281,-0.04492188,0.2851563,0.01464844
5052,4.375,-3.75,-16.4375,0.4233398,-0.9814453,0.1171875,-0.04589844,0.2822266,0.01708984
5056,-7.125,0.5,-11.625,0.4116211,-1.020508,0.09033203,-0.04736328,0.2822266,0.01611328
5060,-8.3125,0,-6.3125,0.3652344,-1.109863,0.05566406,-0.05078125,0.2836914,0.01708984
5064,-5.0625,-10.1875,-0.875,0.2875977,-1.125488,0.02099609,-0.04833984,0.2851563,0.01708984
5068,-1.375,-20.1875,0.5625,0.3305664,-1.179688,-0.01318359,-0.05224609,0.2822266,0.01855469
5072,3.6875,-30,4.3125,0.2875977,-1.175781,-0.001464844,-0.05078125,0.2822266,0.01855469
5076,0.125,-32.6875,4.1875,0.3808594,-1.140625,0.009765625,-0.04980469,0.2851563,0.01708984
5080,-8.1875,-20.4375,3.125,0.4272461,-1.167969,-0.01660156,-0.04589844,0.2851563,0.01855469
5084,-15.8125,-1.25,5.3125,0.4272461,-1.265137,-0.01660156,-0.04589844,0.2836914,0.01855469
5088,-14.5,6.4375,11.125,0.3378906,-1.486816,-0.03222656,-0.04589844,0.2861328,0.02148438
5092,0.125,-4.0625,26.3125,0.2568359,-1.626465,-0.07080078,-0.04248047,0.2875977,0.02001953
5096,26.25,-20.375,44.8125,0.1367188,-1.599121,0.02880859,-0.04003906,0.2885742,0.01855469
5100,33.3125,-45.9375,42.0625,-0.06835938,-1.171875,0.1557617,-0.03515625,0.2924805,0.01611328
5104,4,-73.0625,-2.875,-0.06054688,-1.004883,0.1904297,-0.03173828,0.293457,0.01464844
5108,-17.875,-73.9375,-45.4375,0.2177734,-1.059082,0.1826172,-0.03417969,0.2973633,0.01464844
5112,-33.5625,-63.75,-57.5,0.4233398,-1.070801,0.1210938,-0.03759766,0.2973633,0.01708984
5116,-38,-52.6875,-44.25,0.5473633,-1.152344,0.05566406,-0.04248047,0.2988281,0.02148438
5120,-32.125,-43.3125,-24.0625,0.5859375,-1.179688,-0.04003906,-0.04589844,0.2998047,0.02392578
5124,-27.5,-38.125,-8.5625,0.5708008,-1.098145,-0.1474609,-0.04833984,0.3012695,0.02978516
5128,-24.875,-31.625,8.0625,0.5395508,-1.078613,-0.1977539,-0.05078125,0.3037109,0.03076172
5132,-19.6875,-26.3125,22.125,0.4892578,-1.098145,-0.1899414,-0.04833984,0.3061523,0.03515625
5136,-7.5625,-24.4375,33.0625,0.4194336,-1.08252,-0.112793,-0.04492188,0.3085938,0.0390625
5140,-4.9375,-24.1875,38.5625,0.3652344,-0.9311523,-0.04736328,-0.04248047,0.3100586,0.03613281
5144,-10.0625,-22.875,42.9375,0.3378906,-0.8535156,-0.001464844,-0.04003906,0.3125,0.04052734
5148,-18.625,-17,43.5625,0.3339844,-0.8183594,0.02099609,-0.03515625,0.3173828,0.04199219
5152,-32.0625,-7.0625,37.6875,0.3149414,-0.8417969,-0.02050781,-0.03076172,0.3198242,0.04296875
5156,-33.5,1.75,32,0.2607422,-0.9077148,-0.05517578,-0.02929688,0.3198242,0.04882813
5160,-32.3125,7.125,26.8125,0.206543,-0.8881836,-0.1513672,-0.02587891,0.3237305,0.04980469
5164,-25.125,10.0625,22.8125,0.1518555,-0.9272461,-0.1513672,-0.0234375,0.3261719,0.05273438
5169,-18.8125,9.125,16.9375,0.1171875,-0.8999023,-0.1474609,-0.02246094,0.3276367,0.05957031
5173,-19.25,4.5625,10,0.08251953,-0.8105469,-0.1977539,-0.02099609,0.3286133,0.06103516
5177,-27.375,1.8125,-0.6875,0.125,-0.8066406,-0.2089844,-0.02001953,0.3300781,0.06201172
5181,-24.125,7.875,-9.4375,0.1518555,-0.8222656,-0.2246094,-0.02246094,0.3349609,0.06787109
5185,-15.0625,10,-12.625,0.05517578,-0.7792969,-0.1860352,-0.02490234,0.3359375,0.0703125
5189,-7.625,5.5625,-13.6875,0.06689453,-0.7172852,-0.2285156,-0.02685547,0.3359375,0.0703125
5193,-2.8125,6.875,-17.875,0.1054688,-0.8222656,-0.2128906,-0.02929688,0.3398438,0.07177734
5197,6.4375,1.8125,-22.25,0.07080078,-0.7988281,-0.2016602,-0.03173828,0.3413086,0.07324219
5201,11.9375,-9.25,-28.25,0.05126953,-0.8686523,-0.2631836,-0.03417969,0.3422852,0.07421875
5205,21.25,-17,-38.1875,0.05517578,-0.6977539,-0.2055664,-0.0390625,0.3447266,0.07324219
5209,20,-16.875,-43.0625,0.2333984,-0.7485352,-0.2089844,-0.04394531,0.3486328,0.0703125
5213,20.75,3.75,-42.0625,0.3574219,-0.7485352,-0.1977539,-0.04589844,0.3500977,0.06884766
5217,19.625,12.3125,-33,0.1484375,-0.7094727,-0.1015625,-0.05224609,0.3510742,0.06884766
5221,19.4375,-5.625,-27.125,0.1289063,-0.8027344,-0.05517578,-0.05566406,0.3549805,0.06640625
5225,16.9375,-16.5,-31.4375,0.3457031,-0.8881836,-0.1630859,-0.05419922,0.355957,0.06640625
5229,14.8125,1.5625,-41,0.5356445,-0.9506836,-0.1860352,-0.05908203,0.3574219,0.06494141
5233,9.625,25.125,-46.0625,0.4467773,-0.7871094,-0.1782227,-0.06396484,0.3588867,0.06201172
5237,2.4375,31.5,-39.5625,0.2915039,-0.8261719,-0.07861328,-0.06884766,0.3598633,0.06201172
5241,4.8125,26.25,-27.875,0.3339844,-0.8686523,-0.01660156,-0.07324219,0.3613281,0.05957031
5245,9.3125,24.6875,-10.6875,0.3652344,-0.9389648,-0.009277344,-0.078125,0.3623047,0.05957031
5249,15.9375,20.9375,4.375,0.3149414,-0.9155273,-0.06298828,-0.07958984,0.3637695,0.05664063
5253,25.75,16,9.9375,0.1328125,-0.9233398,-0.05517578,-0.07714844,0.3671875,0.05517578
5257,31.4375,7.1875,-1.875,0.1557617,-0.7988281,-0.02832031,-0.078125,0.3686523,0.04980469
5261,11.0625,34.75,-13,0.2607422,-0.6240234,-0.001464844,-0.07958984,0.3710938,0.04882813
5265,-16.375,53.4375,-9.25,0.109375,-0.7290039,0.01708984,-0.08203125,0.3701172,0.04589844
5269,-17.8125,41.5625,-2.5,-0.05273438,-0.8999023,-0.1054688,-0.08300781,0.3710938,0.04736328
5273,4.5,20.4375,-8.5,-0.01806641,-1.102051,-0.1821289,-0.08300781,0.3710938,0.04736328
5277,37,-9,-6.8125,-0.03320313,-1.000977,-0.1474609,-0.08544922,0.3710938,0.04589844
