Packet number,Gyroscope X (deg/s),Gyroscope Y (deg/s),Gyroscope Z (deg/s),Accelerometer X (g),Accelerometer Y (g),Accelerometer Z (g),Magnetometer X (G),Magnetometer Y (G),Magnetometer Z (G)
1,0.0625,0.125,7.875,-0.6650391,0.6459961,-0.1899414,0.1879883,-0.3056641,0.07324219
5,3.625,-2.625,6.4375,-0.6767578,0.6923828,-0.2167969,0.1879883,-0.3056641,0.07177734
9,2.625,-5.6875,7.3125,-0.6845703,0.7236328,-0.2167969,0.1879883,-0.3056641,0.07421875
13,2.25,-7.25,6.5625,-0.6806641,0.7587891,-0.2436523,0.1879883,-0.3056641,0.07177734
17,3.3125,-8.0625,5.1875,-0.6416016,0.7817383,-0.2363281,0.1879883,-0.3041992,0.0703125
21,8.375,-7.8125,-0.5625,-0.6962891,0.8364258,-0.309082,0.1879883,-0.3041992,0.07324219
25,11.5,-12.25,-4.9375,-0.7387695,0.9179688,-0.3286133,0.1865234,-0.3056641,0.07177734
29,12.6875,-14.0625,-8.75,-0.7504883,0.9643555,-0.3286133,0.1865234,-0.3056641,0.07324219
33,13,-14.875,-13.8125,-0.7578125,1.019043,-0.3051758,0.1855469,-0.3032227,0.07177734
37,8.75,-11.3125,-18.5625,-0.7504883,1.049805,-0.2744141,0.1889648,-0.3017578,0.07177734
41,-1.125,-3,-20.4375,-0.7231445,1.069336,-0.2167969,0.1889648,-0.3041992,0.07324219
46,-12,6.0625,-24.3125,-0.7773438,1.049805,-0.2128906,0.1914063,-0.3032227,0.07568359
50,-26.25,14.5,-25.625,-0.78125,1.003418,-0.1899414,0.1938477,-0.3007813,0.0703125
54,-38.0625,22.4375,-24.1875,-0.8198242,0.9023438,-0.2128906,0.1948242,-0.3007813,0.06884766
58,-43.0625,21.875,-21.3125,-0.8549805,0.793457,-0.2246094,0.1962891,-0.3007813,0.0703125
62,-34.8125,21.1875,-24.0625,-0.7773438,0.6811523,-0.1821289,0.1962891,-0.3017578,0.06787109
66,-21.875,22.8125,-30.6875,-0.8164063,0.6733398,-0.2016602,0.199707,-0.3007813,0.0703125
70,-15.25,20.375,-31.4375,-0.8588867,0.6303711,-0.2285156,0.203125,-0.3007813,0.06787109
74,-8.5625,14.625,-27.125,-0.9248047,0.5913086,-0.2324219,0.203125,-0.3007813,0.06884766
78,-5.875,9.8125,-17.5,-0.9091797,0.5722656,-0.2246094,0.2070313,-0.2983398,0.06787109
82,-5.125,6.5625,-7.3125,-0.8745117,0.6030273,-0.1708984,0.2080078,-0.2983398,0.06787109
86,-2.125,6.6875,-4.5625,-0.8818359,0.6459961,-0.1435547,0.2104492,-0.2983398,0.06884766
90,0.6875,9.0625,-3.5625,-0.9326172,0.6923828,-0.1245117,0.2094727,-0.3007813,0.0703125
94,4.375,10.0625,-0.25,-0.9985352,0.7158203,-0.1743164,0.2104492,-0.3032227,0.07177734
98,8.5,9.375,2.625,-1.095215,0.7856445,-0.2167969,0.2119141,-0.3007813,0.07177734
102,7.25,7.3125,9.875,-1.141602,0.8286133,-0.2670898,0.2104492,-0.3056641,0.07177734
106,3.5625,3.5625,20.5625,-1.129883,0.8208008,-0.2670898,0.2094727,-0.3041992,0.07324219
110,9.3125,5.375,21.375,-1.025391,0.8012695,-0.1743164,0.2119141,-0.3081055,0.07421875
114,18.375,7.4375,17.375,-1.075684,0.8867188,-0.1552734,0.2104492,-0.3120117,0.07568359
118,21.5,7.6875,14.75,-1.145508,0.9335938,-0.1323242,0.2080078,-0.3154297,0.08105469
122,14.8125,8.25,24,-1.195801,0.956543,-0.1552734,0.2104492,-0.3178711,0.08251953
126,-2.625,6.1875,42.375,-1.242188,0.9101563,-0.2246094,0.2094727,-0.3178711,0.08251953
130,-22.25,-6.25,65.875,-1.195801,0.8012695,-0.2978516,0.2070313,-0.3242188,0.08398438
134,-21.5625,-23.25,73.5625,-0.8896484,0.5952148,-0.1782227,0.2045898,-0.3344727,0.08398438
138,19.8125,-27,52.75,-0.6611328,0.5175781,-0.09765625,0.2045898,-0.3369141,0.08544922
142,60.4375,-36.5625,23.8125,-0.6884766,0.6616211,-0.1015625,0.2055664,-0.3417969,0.08691406
146,75.25,-45.875,10.4375,-0.5141602,0.6694336,0.03271484,0.2055664,-0.3442383,0.09326172
150,76.5625,-40.5625,11.8125,-0.5102539,0.6811523,-0.001464844,0.2094727,-0.3466797,0.09619141
154,59.25,-48.6875,31,-0.6186523,0.7236328,-0.112793,0.2094727,-0.3466797,0.1000977
158,38.125,-59.875,48.875,-0.4868164,0.7041016,-0.06689453,0.2104492,-0.3520508,0.1044922
162,36.5,-52.875,36.9375,-0.1845703,0.6342773,0.08642578,0.2119141,-0.3569336,0.1069336
166,50.8125,-37.1875,7.9375,-0.2387695,0.5566406,-0.01660156,0.2119141,-0.3618164,0.1137695
170,71.125,-43.875,-10.3125,-0.2348633,0.4399414,0.07910156,0.215332,-0.3603516,0.1166992
175,89.1875,-34.125,-20.125,-0.262207,0.5292969,0.04443359,0.2202148,-0.3618164,0.1206055
179,84.8125,-27.1875,-25.3125,-0.4750977,0.6884766,-0.1743164,0.2246094,-0.3579102,0.1313477
183,46.625,-32,-5,-0.4365234,0.7041016,-0.1938477,0.2270508,-0.3579102,0.1425781
187,6.3125,-20.4375,18.75,-0.1069336,0.5722656,-0.07080078,0.2319336,-0.3579102,0.1425781
191,0.6875,11,5.25,-0.362793,0.7353516,-0.4975586,0.2294922,-0.3642578,0.1479492
195,-4.375,3.8125,-18.625,-0.878418,1.092773,-1.121094,0.2319336,-0.3666992,0.1518555
199,-7.5,-43.75,-41.875,-1.199707,0.8828125,-1.324707,0.2368164,-0.3691406,0.15625
203,-12.5,-89.5625,-31.625,-0.5722656,0.4282227,-0.7133789,0.2436523,-0.3745117,0.15625
207,-9.3125,-82.375,-1.625,-0.03710938,0.07080078,0.02099609,0.2568359,-0.3857422,0.1508789
211,-14.5625,-49.8125,21.3125,-0.07226563,0.2963867,0.2709961,0.2592773,-0.3916016,0.1494141
215,-14.75,-28.9375,8.25,-0.4404297,0.6884766,-0.1743164,0.2641602,-0.402832,0.1494141
219,-24.5,-43.25,-1.375,-0.9399414,0.7856445,-0.6748047,0.2666016,-0.4155273,0.1464844
223,-58.25,-72.5,23.9375,-0.6186523,0.5371094,-0.5322266,0.2709961,-0.4257813,0.1411133
227,-49.5,-76.875,31.625,-0.2890625,0.2265625,-0.1401367,0.2758789,-0.4467773,0.1259766
231,-8.8125,-76.125,27.8125,-0.1689453,0.21875,0.2675781,0.2758789,-0.4619141,0.1123047
235,21.1875,-54.625,18,-0.1533203,0.5097656,0.390625,0.2724609,-0.4692383,0.1044922
239,16.375,-33.5625,10.875,-0.3085938,0.8208008,0.1982422,0.2709961,-0.4741211,0.1000977
243,-2.625,-23.75,13.875,-0.3354492,0.8671875,0.1289063,0.2709961,-0.4755859,0.09619141
247,-11.875,-9.75,9.875,-0.2851563,0.8632813,0.1518555,0.2700195,-0.4794922,0.09472656
251,-15.25,8.625,-2.125,-0.262207,0.9414063,0.1635742,0.2675781,-0.4819336,0.09228516
255,-25.5,22.375,-10.625,-0.3862305,0.9179688,0.08251953,0.2700195,-0.484375,0.08935547
259,-26.8125,29.8125,-18.6875,-0.4169922,0.8168945,0.009765625,0.2700195,-0.484375,0.08789063
263,-25,32.875,-17.375,-0.4482422,0.7587891,0.02099609,0.2758789,-0.484375,0.08789063
267,-26.3125,37.75,-14.5,-0.3974609,0.7392578,0.09033203,0.2792969,-0.4853516,0.08935547
271,-26.125,48.75,-12,-0.3242188,0.6459961,0.1713867,0.2817383,-0.4829102,0.09228516
275,-14,53.6875,-11.625,-0.3354492,0.5410156,0.1635742,0.2841797,-0.4804688,0.09912109
279,6,56.4375,-13.4375,-0.296875,0.4711914,0.07910156,0.2856445,-0.4755859,0.105957
283,21.625,55.6875,-14.5625,-0.378418,0.5175781,-0.06298828,0.2866211,-0.4692383,0.1123047
287,23.3125,55.1875,-13.4375,-0.2851563,0.5292969,-0.03613281,0.2856445,-0.453125,0.125
291,21.625,58.875,-11.6875,-0.215332,0.4672852,0.07910156,0.2807617,-0.4370117,0.1357422
295,25.25,67.375,-10.625,-0.1533203,0.3779297,0.1171875,0.2758789,-0.4267578,0.1411133
299,31.9375,79.25,-4.125,-0.2192383,0.4125977,-0.05517578,0.2709961,-0.4067383,0.1450195
304,30,82.4375,-2.4375,-0.296875,0.5605469,-0.3012695,0.2602539,-0.3916016,0.1533203
308,22.125,80.6875,-2.5625,-0.3745117,0.5527344,-0.3129883,0.2519531,-0.3803711,0.15625
312,15.125,73.75,1.6875,-0.378418,0.5019531,-0.2705078,0.2451172,-0.3706055,0.1616211
316,10.25,71.1875,7.4375,-0.3203125,0.4829102,-0.1513672,0.2353516,-0.359375,0.1616211
320,14.5,85.6875,5.625,-0.4521484,0.5644531,-0.4169922,0.230957,-0.3505859,0.1616211
324,6.8125,77.4375,4.9375,-0.715332,0.7041016,-0.574707,0.2202148,-0.3432617,0.1630859
328,-7.8125,62.625,6,-0.6303711,0.6147461,-0.5283203,0.2138672,-0.3393555,0.1640625
332,-19.5,54.625,12.8125,-0.5371094,0.4985352,-0.359375,0.2104492,-0.3330078,0.1616211
336,-20.75,49,14.4375,-0.5605469,0.5175781,-0.1860352,0.2045898,-0.3320313,0.1586914
340,-16.4375,62.0625,13.5,-0.5605469,0.5527344,-0.1782227,0.1972656,-0.3305664,0.15625
344,-22.125,74.8125,13.1875,-0.6806641,0.6499023,-0.309082,0.1914063,-0.3291016,0.1547852
348,-40.0625,69.75,15.125,-0.6650391,0.6459961,-0.3554688,0.1865234,-0.328125,0.1547852
352,-42.1875,58.125,16.9375,-0.7387695,0.5214844,-0.4130859,0.1806641,-0.328125,0.1508789
356,-22.1875,42,13.4375,-0.8276367,0.5136719,-0.3901367,0.1748047,-0.3305664,0.1494141
360,-11,35.1875,21.0625,-0.8896484,0.5991211,-0.4516602,0.1689453,-0.328125,0.1464844
364,-12.625,29.75,32.3125,-0.746582,0.6577148,-0.4516602,0.1650391,-0.328125,0.1464844
368,-15.75,26.0625,41,-0.8046875,0.793457,-0.6630859,0.1616211,-0.328125,0.1450195
372,-23.625,7.25,49.25,-0.8818359,0.8481445,-0.7246094,0.1533203,-0.3291016,0.1411133
376,-17.375,-13.375,54.625,-0.8666992,0.824707,-0.6748047,0.1508789,-0.3305664,0.137207
380,-1.375,-29.625,53.125,-0.7114258,0.9023438,-0.559082,0.1474609,-0.3330078,0.1328125
384,8.6875,-38.3125,42.6875,-0.6225586,1.053711,-0.4282227,0.1425781,-0.3344727,0.1313477
388,0.625,-36.8125,34,-0.5253906,1.13916,-0.3666992,0.1416016,-0.3344727,0.1274414
392,-12.0625,-28.4375,27.5625,-0.4091797,1.100586,-0.2436523,0.1376953,-0.3330078,0.1259766
396,-22.625,-21.625,21.625,-0.5214844,1.09668,-0.309082,0.1376953,-0.3344727,0.1220703
400,-29.5,-24.875,17.625,-0.5834961,1.003418,-0.309082,0.1367188,-0.3369141,0.1191406
404,-40.3125,-43.9375,22.1875,-0.4365234,0.8828125,-0.1245117,0.1357422,-0.3344727,0.1152344
408,-12.625,-32.875,-0.8125,-0.3935547,0.890625,-0.09375,0.1342773,-0.3369141,0.1098633
412,-2,-37.3125,-19.5625,-0.4829102,0.9492188,-0.1206055,0.1357422,-0.3354492,0.1083984
416,-2.25,-35.75,-25.4375,-0.4169922,0.953125,-0.05126953,0.1376953,-0.3354492,0.1044922
420,-14.4375,-23.6875,-25,-0.3974609,0.9604492,-0.02832031,0.1401367,-0.3320313,0.1015625
424,-39.1875,-11.5625,-18.75,-0.4091797,0.9375,-0.005371094,0.1425781,-0.328125,0.1000977
428,-65.6875,3.1875,-5.625,-0.5795898,0.9956055,-0.1054688,0.1425781,-0.3305664,0.09326172
433,-88.3125,14.1875,-8.625,-0.6806641,0.9414063,-0.1977539,0.1425781,-0.3320313,0.08935547
437,-70.625,15.6875,-24.875,-0.8007813,0.6499023,-0.3554688,0.1425781,-0.3305664,0.08105469
441,-36.75,1.125,-32.125,-0.9516602,0.6772461,-0.5014648,0.144043,-0.3305664,0.08007813
445,-13,-20.125,-32.125,-1.017578,0.8828125,-0.5898438,0.1450195,-0.3291016,0.07714844
449,-9.75,-32.4375,-29,-0.9438477,1.069336,-0.5244141,0.1484375,-0.3256836,0.07324219
453,-18.5,-31.625,-21.5,-0.8549805,1.150879,-0.4091797,0.1533203,-0.3256836,0.07177734
457,-22.25,-23.875,-16.9375,-0.7890625,1.186035,-0.3901367,0.1557617,-0.3217773,0.06884766
461,-18.6875,-25.1875,-22.625,-0.8085938,1.279297,-0.3974609,0.1547852,-0.3242188,0.06494141
465,-12.75,-26,-34.8125,-0.7695313,1.291016,-0.3325195,0.1582031,-0.3217773,0.06347656
469,-14.6875,-20,-38.875,-0.7387695,1.205566,-0.2285156,0.1616211,-0.3193359,0.06103516
473,-14.6875,-13.125,-36.5625,-0.7543945,1.04248,-0.1435547,0.1665039,-0.3178711,0.05957031
477,-10.625,-6.25,-28.6875,-0.7773438,0.9101563,-0.09375,0.1665039,-0.3178711,0.05810547
481,-3.125,-3,-23.375,-0.7929688,0.9023438,-0.05908203,0.1689453,-0.3168945,0.05517578
485,0.0625,1.25,-20.75,-0.8198242,0.890625,-0.06689453,0.1713867,-0.3168945,0.05517578
489,2.1875,4.75,-13,-0.8007813,0.7973633,-0.005371094,0.1713867,-0.3178711,0.05810547
493,10.125,6.75,-5.3125,-0.831543,0.8012695,-0.02441406,0.1713867,-0.3168945,0.05664063
497,18.1875,6,-0.4375,-0.7504883,0.8012695,0.03271484,0.1748047,-0.3168945,0.05810547
501,28.5625,11.8125,0.9375,-0.7348633,0.8598633,0.02490234,0.1713867,-0.3168945,0.05810547
505,37.1875,13.875,-0.25,-0.746582,0.9101563,-0.04394531,0.1699219,-0.3178711,0.06201172
509,48.75,17.1875,-3.4375,-0.7504883,0.9838867,-0.1669922,0.1723633,-0.3168945,0.06884766
513,55.5,15.625,-9.375,-0.8164063,1.120117,-0.3208008,0.1738281,-0.3144531,0.0703125
517,55.3125,13.375,-13,-0.78125,1.205566,-0.4091797,0.1748047,-0.3120117,0.07714844
521,44.375,15,-15.6875,-0.7890625,1.279297,-0.4594727,0.1748047,-0.3120117,0.08105469
525,26.4375,16.9375,-15.9375,-0.8164063,1.251953,-0.4667969,0.1748047,-0.3095703,0.08398438
529,12.4375,19.4375,-14.75,-0.8237305,1.162598,-0.4091797,0.1782227,-0.3081055,0.08789063
533,12.875,23.125,-17.125,-0.831543,1.06543,-0.3051758,0.1796875,-0.3105469,0.09082031
537,34.375,23.625,-30.0625,-0.8666992,0.987793,-0.324707,0.1796875,-0.3120117,0.09326172
541,60.625,14.625,-42.4375,-0.9711914,0.9916992,-0.3666992,0.1831055,-0.3095703,0.09765625
545,87.875,-2.9375,-43.625,-1.11084,1.015137,-0.4248047,0.1889648,-0.3041992,0.1069336
549,104.3125,-20.3125,-38.9375,-1.165039,1.166504,-0.4360352,0.1914063,-0.3032227,0.1123047
553,92,-25.25,-33.875,-1.041016,1.275391,-0.4130859,0.1948242,-0.2993164,0.1166992
557,62.25,-17.625,-39.3125,-0.8046875,1.20166,-0.3208008,0.2021484,-0.2919922,0.1274414
562,31.375,0,-42.0625,-0.7348633,1.015137,-0.2978516,0.2070313,-0.2929688,0.1289063
566,11.4375,5.6875,-45.4375,-0.8046875,0.8129883,-0.3666992,0.2104492,-0.2905273,0.1342773
570,1.375,1.6875,-44.875,-0.8354492,0.6420898,-0.359375,0.2163086,-0.2905273,0.1381836
574,-9.8125,-11.625,-26,-0.8818359,0.4750977,-0.359375,0.2211914,-0.2866211,0.1425781
578,-20.75,-25.375,-3.875,-0.8276367,0.3662109,-0.324707,0.2285156,-0.2895508,0.144043
582,-14.5,-36.4375,-6.75,-0.5952148,0.3740234,-0.1362305,0.234375,-0.2944336,0.144043
586,-3.125,-31.75,-27.4375,-0.3974609,0.3857422,-0.07470703,0.237793,-0.2929688,0.144043
590,-11.625,-21.5625,-39.5625,-0.3549805,0.4204102,0.001953125,0.2436523,-0.2944336,0.1450195
594,-19.3125,-13.8125,-46.3125,-0.4750977,0.3740234,-0.128418,0.253418,-0.2954102,0.1479492
598,-36.5,-16.5625,-32.375,-0.5449219,0.300293,-0.1938477,0.2602539,-0.2954102,0.1464844
602,-54.5,-26.375,-7.75,-0.7114258,0.3271484,-0.4975586,0.269043,-0.296875,0.1479492
606,-45.5,-47.9375,-16.75,-0.5292969,0.1992188,-0.3745117,0.2783203,-0.2993164,0.1450195
610,-13.25,-49,-44.6875,-0.3320313,0.09033203,-0.0859375,0.2856445,-0.3056641,0.144043
614,7.375,-43.6875,-50.4375,-0.347168,0.09814453,0.01367188,0.2998047,-0.3056641,0.1450195
618,-4.75,-40.75,-26.8125,-0.4013672,0.07080078,0.125,0.3115234,-0.3041992,0.1425781
622,0.3125,-36.5,-7.5625,-0.6767578,0.1757813,-0.109375,0.3188477,-0.3081055,0.144043
626,1.8125,-50.25,8.6875,-0.9169922,0.3740234,-0.394043,0.3295898,-0.3120117,0.1411133
630,-3.8125,-69.75,20,-0.6416016,0.3779297,-0.1938477,0.3427734,-0.3178711,0.1411133
634,4.4375,-54.875,9.0625,-0.3823242,0.3349609,0.05175781,0.3520508,-0.3256836,0.1381836
638,12.0625,-44.125,5.25,-0.5683594,0.4165039,0.08642578,0.3642578,-0.3354492,0.1357422
642,8.125,-39.1875,9.6875,-0.5488281,0.4086914,0.1210938,0.3759766,-0.3417969,0.1313477
646,13.8125,-28.5625,11,-0.7270508,0.4985352,-0.06298828,0.3876953,-0.3466797,0.1328125
650,16.6875,-37.5,8.375,-1.044922,0.7001953,-0.4208984,0.3984375,-0.3569336,0.1313477
654,-4.0625,-55.25,5.625,-0.8164063,0.8208008,-0.394043,0.4189453,-0.3706055,0.1274414
658,-30.4375,-48.875,0.5,-0.6186523,0.6069336,-0.05126953,0.434082,-0.3803711,0.1191406
662,-37.8125,-37.75,-0.3125,-0.6494141,0.3740234,0.08251953,0.4604492,-0.4003906,0.1044922
666,-21.6875,-40.0625,4.3125,-0.8237305,0.3120117,-0.001464844,0.4868164,-0.4257813,0.08691406
670,-7.125,-52.8125,14.5,-0.878418,0.3662109,-0.03222656,0.5058594,-0.4443359,0.07568359
674,-5.625,-53.4375,17.5,-0.6845703,0.4985352,-0.06298828,0.5317383,-0.4819336,0.04980469
678,-10.0625,-61.6875,25.5,-0.6767578,0.5566406,-0.02050781,0.5581055,-0.5205078,0.01708984
682,-5.3125,-71.75,15.4375,0.5708008,1.46582,0.3520508,0.574707,-0.5517578,-0.00390625
686,-5.5625,22.6875,-114.8125,0.7451172,0.7739258,-0.112793,0.6069336,-0.5615234,-0.02978516
691,-74.6875,25.0625,-33.5625,-1.161133,0.3466797,-0.5668945,0.6245117,-0.5493164,-0.02441406
695,12.625,-1.375,-39.125,-1.114746,-0.3208008,-0.02050781,0.6318359,-0.5444336,-0.03662109
699,39.6875,-34.375,-8.1875,-0.7578125,0.5410156,0.4521484,0.6269531,-0.5356445,-0.04882813
703,30.375,-17.9375,31.125,-0.3745117,0.4868164,0.7753906,0.6220703,-0.5366211,-0.04882813
707,38,17.8125,25.125,0.3730469,0.1796875,0.9174805,0.6176758,-0.5419922,-0.03125
711,173.8125,115.375,-90.25,-0.6455078,-0.1269531,0.05957031,0.597168,-0.519043,0.04052734
715,174.8125,67.875,-32.375,-1.560059,0.7973633,-0.5898438,0.5615234,-0.465332,0.1342773
719,73.0625,16.5625,37.5,-1.041016,0.921875,-0.112793,0.5390625,-0.4428711,0.1655273
723,54.5625,35.5625,29.6875,-0.6264648,0.6577148,-0.05908203,0.5102539,-0.4282227,0.1928711
727,63.9375,44,13.125,-0.9516602,0.8208008,-0.5864258,0.4794922,-0.4106445,0.2172852
731,38.6875,19.8125,16.75,-1.145508,1.092773,-0.8286133,0.4638672,-0.3994141,0.230957
735,-5.4375,8.4375,8.125,-0.796875,0.987793,-0.4248047,0.4545898,-0.3930664,0.2392578
739,-16.375,17.4375,6,-0.7348633,0.7197266,-0.1323242,0.4506836,-0.3881836,0.2446289
743,-19.875,23.5,4.625,-0.6494141,0.5839844,-0.03613281,0.4487305,-0.3891602,0.2485352
747,-22.1875,28.75,15,-0.6030273,0.4868164,0.02099609,0.4438477,-0.3857422,0.2539063
751,-17.25,37.6875,7.9375,-0.5527344,0.4243164,-0.1323242,0.4316406,-0.3769531,0.2592773
755,-13.125,37.4375,7.4375,-0.6147461,0.4711914,-0.2207031,0.4257813,-0.3754883,0.2607422
759,-23.3125,38,12,-0.5756836,0.5214844,-0.3129883,0.4106445,-0.3681641,0.262207
763,-32.75,37.9375,12.125,-0.5024414,0.4165039,-0.2128906,0.3974609,-0.3618164,0.2583008
767,-19.875,40.625,9.0625,-0.6186523,0.2807617,-0.3515625,0.3891602,-0.3569336,0.2524414
771,-4.875,30.4375,14.375,-0.5795898,0.315918,-0.3286133,0.3759766,-0.3520508,0.2460938
775,-6.625,31.3125,23.1875,-0.5063477,0.4243164,-0.2246094,0.3618164,-0.3457031,0.2392578
779,-18.6875,38.125,25.125,-0.3974609,0.4790039,-0.1552734,0.3520508,-0.3432617,0.2333984
783,-31.5,43.1875,22.375,-0.3242188,0.4672852,-0.02441406,0.3378906,-0.3408203,0.2202148
787,-38.625,57.75,22.875,-0.3125,0.4052734,-0.1821289,0.3237305,-0.3393555,0.2089844
791,-36.8125,55.4375,25,-0.5913086,0.4125977,-0.394043,0.3129883,-0.3354492,0.2050781
795,-18.75,39.3125,25.25,-0.4287109,0.2456055,-0.2246094,0.2998047,-0.3330078,0.1943359
799,2.5625,52.1875,33.9375,-0.2192383,0.2265625,0.07128906,0.2856445,-0.3291016,0.1889648
803,1.3125,66.625,39.5625,-0.28125,0.4052734,0.09814453,0.2783203,-0.3291016,0.1831055
807,-5.625,77.5,47.6875,-0.6533203,0.6147461,-0.3901367,0.2602539,-0.3256836,0.1791992
811,-24.375,65.75,50.375,-0.8857422,0.8286133,-0.6054688,0.2485352,-0.3217773,0.1762695
815,-46.5,54.9375,49.4375,-0.730957,0.8051758,-0.5131836,0.2392578,-0.328125,0.1723633
820,-54.6875,52.8125,50.125,-0.5566406,0.6030273,-0.2055664,0.2285156,-0.3305664,0.1669922
824,-39.9375,58.5,45.4375,-0.5991211,0.5097656,-0.1206055,0.2202148,-0.3320313,0.1630859
828,-8.6875,50.75,39.1875,-0.8354492,0.6655273,-0.3476563,0.2119141,-0.3320313,0.1586914
832,5.5,31.3125,33.3125,-0.8706055,0.8129883,-0.4248047,0.2055664,-0.3320313,0.1586914
836,-0.5625,22.375,32.375,-0.7504883,0.8945313,-0.4360352,0.199707,-0.3320313,0.1572266
840,-11.5625,19.3125,26.1875,-0.6147461,0.8364258,-0.2705078,0.1962891,-0.3305664,0.1547852
844,-13.1875,26.75,21.25,-0.5605469,0.7470703,-0.2397461,0.1914063,-0.3305664,0.1518555
848,-18,33.5625,26.4375,-0.699707,0.8828125,-0.3632813,0.184082,-0.3320313,0.1494141
852,-26.625,28.1875,22.4375,-0.730957,0.8945313,-0.378418,0.1831055,-0.3305664,0.1494141
856,-27.5,24.4375,19.6875,-0.6572266,0.777832,-0.3666992,0.1782227,-0.3320313,0.1450195
860,-20.0625,15.5,15.4375,-0.6108398,0.6884766,-0.3012695,0.1738281,-0.3330078,0.144043
864,-6.1875,9.625,9.8125,-0.5527344,0.6381836,-0.2436523,0.1723633,-0.3344727,0.1411133
868,6.625,2.3125,8.3125,-0.6728516,0.7470703,-0.324707,0.1699219,-0.3305664,0.137207
872,8.5625,-5.3125,8.875,-0.6342773,0.8520508,-0.2744141,0.1689453,-0.328125,0.1381836
876,1.6875,5.9375,9.1875,-0.5991211,0.9838867,-0.3706055,0.1674805,-0.3291016,0.1357422
880,-18.875,11.25,9.0625,-0.6303711,1.04248,-0.4360352,0.1640625,-0.3291016,0.1357422
884,-40.9375,15.5,6.1875,-0.5795898,0.9682617,-0.4746094,0.1616211,-0.3291016,0.1313477
888,-47.875,16.875,2.375,-0.7036133,0.8208008,-0.4936523,0.1616211,-0.3320313,0.1259766
892,-48.375,11.5,3.5625,-0.78125,0.7041016,-0.5170898,0.1567383,-0.3305664,0.1259766
896,-45.0625,-5.3125,12.5625,-0.8354492,0.6459961,-0.4746094,0.1582031,-0.3344727,0.1206055
900,-29.9375,-22.1875,15.375,-0.7075195,0.5800781,-0.3554688,0.1567383,-0.3330078,0.1181641
904,-13.75,-34.9375,15.4375,-0.6572266,0.6616211,-0.3476563,0.1547852,-0.3354492,0.1123047
908,-4.25,-47.125,10.3125,-0.5991211,0.7626953,-0.2900391,0.1547852,-0.3369141,0.1069336
912,-0.8125,-48.5,2.0625,-0.4985352,0.8520508,-0.2246094,0.1557617,-0.3344727,0.1044922
916,-13.3125,-42.75,1.125,-0.4907227,0.9296875,-0.2167969,0.1591797,-0.3320313,0.1015625
920,-30.375,-39,2.875,-0.5063477,0.9257813,-0.2397461,0.1582031,-0.3330078,0.09472656
924,-41.1875,-41.25,8.4375,-0.5874023,0.921875,-0.2939453,0.1567383,-0.3344727,0.09228516
928,-63.375,-67.625,25.625,-0.6728516,1.124023,-0.2822266,0.1582031,-0.3354492,0.08544922
932,-55.75,-76.625,16.4375,-0.4365234,1.135742,-0.2553711,0.1557617,-0.3354492,0.07568359
936,-47,-64.375,-18.875,-0.262207,1.248047,-0.08203125,0.1547852,-0.3408203,0.06884766
940,-48.375,-36.3125,-49.25,-0.2851563,1.333496,-0.05517578,0.1582031,-0.3408203,0.06103516
944,-70.6875,-12.625,-58.8125,-0.4790039,1.283203,-0.1166992,0.1650391,-0.3354492,0.05517578
949,-90,2.875,-55.5625,-0.6303711,1.131836,-0.2246094,0.1674805,-0.3369141,0.04980469
953,-93.8125,2.25,-53.4375,-0.8393555,0.9838867,-0.2861328,0.1713867,-0.3344727,0.04199219
957,-80.0625,-11.625,-55.5,-0.9829102,0.7666016,-0.2592773,0.1757813,-0.3330078,0.03613281
961,-38.8125,-31.875,-60.5,-1.071777,0.5253906,-0.1743164,0.1782227,-0.3320313,0.02978516
965,2.875,-47.5,-61.625,-1.048828,0.5527344,-0.1015625,0.184082,-0.328125,0.02685547
969,21.5625,-56.25,-55.125,-1.001953,0.6962891,-0.07470703,0.1904297,-0.3266602,0.02392578
973,19.5,-55.5,-47.1875,-0.8666992,0.824707,0.01367188,0.1938477,-0.3208008,0.02294922
977,4.25,-36.25,-38.4375,-0.765625,0.9140625,0.1210938,0.1987305,-0.3193359,0.02294922
981,-18.5,-13.6875,-29.5,-0.8046875,0.8867188,0.1479492,0.2011719,-0.3168945,0.01708984
985,-32.25,1.625,-18.75,-0.8896484,0.7739258,0.144043,0.2021484,-0.3154297,0.01708984
989,-33.1875,6.375,-6.6875,-0.9594727,0.6962891,0.1328125,0.2045898,-0.3144531,0.01318359
993,-19.875,1.75,-0.3125,-1.001953,0.6884766,0.1020508,0.203125,-0.3154297,0.01171875
997,-0.1875,-6.5,0.375,-0.9829102,0.7119141,0.08251953,0.203125,-0.3178711,0.01318359
1001,19.25,-8.125,-3.625,-0.8935547,0.7705078,0.1098633,0.2045898,-0.3168945,0.01074219
1005,33.4375,-4.8125,-9.9375,-0.8818359,0.8671875,0.09033203,0.2045898,-0.3168945,0.01171875
1009,35,2.25,-10.4375,-0.862793,0.953125,0.08251953,0.203125,-0.3178711,0.01464844
1013,26.1875,13.1875,-6.625,-0.8588867,0.987793,0.06738281,0.2055664,-0.3168945,0.01611328
1017,14.8125,21.9375,0.625,-0.9248047,0.9604492,0.001953125,0.2070313,-0.3154297,0.02001953
1021,8.875,22.5625,5.25,-0.9868164,0.8828125,-0.07861328,0.2080078,-0.3178711,0.02294922
1025,13.75,17.0625,5.25,-0.9711914,0.8051758,-0.09765625,0.2070313,-0.3178711,0.02539063
1029,27.25,18,-2.5625,-0.9052734,0.793457,-0.06298828,0.2055664,-0.3208008,0.02685547
1033,34.375,20.25,-11.0625,-0.9248047,0.8632813,-0.0859375,0.2094727,-0.3193359,0.02978516
1037,34.375,21.3125,-18.3125,-0.8935547,0.8598633,-0.128418,0.2094727,-0.3193359,0.03369141
1041,31.3125,22.5,-17.375,-0.9130859,0.8364258,-0.1899414,0.2128906,-0.3178711,0.0390625
1045,19.375,18.3125,-6.1875,-0.9711914,0.8632813,-0.2246094,0.215332,-0.3178711,0.04296875
1049,6.125,12.6875,5.0625,-0.9438477,0.8208008,-0.2285156,0.2163086,-0.3193359,0.04199219
1053,8,8.125,2,-0.9013672,0.7626953,-0.2246094,0.2177734,-0.3208008,0.04589844
1057,20.8125,1.1875,-10.125,-0.8432617,0.7392578,-0.1899414,0.21875,-0.3232422,0.04736328
1061,27.375,-2.125,-15.9375,-0.8354492,0.7041016,-0.1323242,0.2211914,-0.3232422,0.04736328
1065,23,-4.4375,-0.75,-0.8896484,0.6962891,-0.1591797,0.2246094,-0.3242188,0.05126953
1069,13.25,-8.875,27.0625,-0.9248047,0.6772461,-0.1899414,0.2246094,-0.328125,0.05419922
1073,3.375,-16.9375,50.8125,-0.8857422,0.7275391,-0.3051758,0.2260742,-0.3330078,0.05273438
1078,0.375,-21.125,45.375,-0.6533203,0.7314453,-0.2167969,0.2236328,-0.3369141,0.05419922
1082,0.5625,3.5625,54.25,-0.4365234,0.6303711,0.01367188,0.2202148,-0.3432617,0.05273438
1086,8.3125,4.6875,37.75,-0.5913086,0.6108398,0.05175781,0.2202148,-0.3491211,0.05517578
1090,13.75,-11.6875,31.125,-0.6455078,0.5991211,0.05957031,0.2202148,-0.3530273,0.05517578
1094,1,-7.6875,36.5,-0.4946289,0.5991211,0.2211914,0.2202148,-0.3569336,0.05664063
1098,1.875,12.5625,48,-0.378418,0.4165039,0.2441406,0.21875,-0.3618164,0.05517578
1102,26.1875,14.4375,12.5,-0.4248047,0.4594727,0.2597656,0.2177734,-0.3666992,0.05810547
1106,60.375,7.625,0.9375,-0.4907227,0.5488281,0.1020508,0.21875,-0.3666992,0.06201172
1110,54.75,-0.875,-4.875,-0.5644531,0.6962891,0.03662109,0.2211914,-0.3681641,0.06884766
1114,32.125,-10.5,-0.8125,-0.5332031,0.7705078,0.02490234,0.222168,-0.371582,0.07324219
1118,12.4375,-11.375,0.5,-0.4946289,0.7236328,0.02880859,0.2236328,-0.3691406,0.07421875
1122,6.75,-7.9375,1.5,-0.4594727,0.6616211,-0.02441406,0.2270508,-0.3730469,0.07568359
1126,13,-8.1875,-4.875,-0.4790039,0.6538086,-0.1166992,0.2294922,-0.3754883,0.07568359
1130,22.625,-17.875,-14.4375,-0.5102539,0.6225586,-0.0859375,0.230957,-0.3769531,0.07861328
1134,26.1875,-19.375,-18.3125,-0.4633789,0.6538086,-0.05908203,0.2368164,-0.3779297,0.08007813
1138,21.5625,-14,-19.5,-0.4365234,0.6884766,-0.08984375,0.2402344,-0.3793945,0.08105469
1142,11.9375,-2.375,-16.25,-0.4946289,0.7470703,-0.1938477,0.2412109,-0.3793945,0.08007813
1146,-0.4375,3.75,-17.375,-0.6108398,0.8012695,-0.34375,0.2451172,-0.3803711,0.08544922
1150,-18.125,-6.875,-21.8125,-0.6303711,0.7314453,-0.2514648,0.2485352,-0.3818359,0.08398438
1154,-26.625,-9.75,-20.3125,-0.5371094,0.5527344,-0.1708984,0.2519531,-0.3833008,0.08398438
1158,-19,-3,-17.0625,-0.5332031,0.4516602,-0.2016602,0.2558594,-0.3857422,0.08007813
1162,-8.1875,-3.5,-15.4375,-0.6303711,0.5332031,-0.2553711,0.2602539,-0.3857422,0.07714844
1166,-7.8125,-10.4375,-13.5,-0.6806641,0.6459961,-0.3208008,0.2602539,-0.3867188,0.07421875
1170,-16.25,-19.0625,-8.1875,-0.6376953,0.6655273,-0.2016602,0.2651367,-0.3881836,0.07568359
1174,-19.375,-18.375,-5.625,-0.5756836,0.6459961,-0.1362305,0.2675781,-0.390625,0.06884766
1178,-18.8125,-16.5625,-4.1875,-0.5566406,0.6616211,-0.1015625,0.2675781,-0.3891602,0.06640625
1182,-16,-15.5625,-3.125,-0.5795898,0.7080078,-0.07470703,0.2709961,-0.3955078,0.06347656
1186,-18.625,-21,-5.125,-0.5449219,0.6733398,0.06738281,0.2749023,-0.3979492,0.05664063
1190,-9.9375,-13.8125,-4.8125,-0.4985352,0.6225586,0.09814453,0.2749023,-0.3979492,0.05664063
1194,4.6875,-5.9375,-7.0625,-0.5913086,0.6655273,-0.05908203,0.2758789,-0.3994141,0.05419922
1198,5.75,-14.4375,-5.5,-0.6225586,0.7587891,-0.06298828,0.2773438,-0.4003906,0.05273438
1202,-2.1875,-13.5,-4.3125,-0.4985352,0.7895508,0.03271484,0.2792969,-0.402832,0.04980469
1207,-10,-1.5,-8.0625,-0.4326172,0.7705078,0.1328125,0.2792969,-0.402832,0.04882813
1211,-12.125,11.4375,-6.8125,-0.5214844,0.6772461,0.09423828,0.2807617,-0.402832,0.04736328
1215,-7.75,13.25,-8.125,-0.5449219,0.6459961,-0.005371094,0.2832031,-0.4057617,0.04882813
1219,-2.3125,14.4375,-8.25,-0.6108398,0.6655273,-0.1362305,0.2832031,-0.4057617,0.05126953
1223,-2.875,8.625,-7.625,-0.6572266,0.6884766,-0.1630859,0.2856445,-0.4057617,0.05126953
1227,-4.3125,3.5625,-7.875,-0.5991211,0.6538086,-0.07470703,0.2856445,-0.4018555,0.04980469
1231,-1.625,8.6875,-6.3125,-0.5834961,0.5913086,-0.009277344,0.2880859,-0.402832,0.05273438
1235,1.9375,11.9375,-5.1875,-0.6030273,0.5839844,0.001953125,0.2866211,-0.402832,0.05126953
1239,8.25,12.25,-2.6875,-0.6108398,0.5878906,-0.02832031,0.2890625,-0.3994141,0.05517578
1243,12.75,13.75,0,-0.5874023,0.5913086,-0.05126953,0.2880859,-0.3979492,0.05664063
1247,19.0625,14.625,0,-0.6147461,0.6186523,-0.08203125,0.2880859,-0.3994141,0.06347656
1251,20.25,14.0625,-1.6875,-0.6108398,0.6499023,-0.1513672,0.2856445,-0.3994141,0.06494141
1255,17.4375,9.8125,-0.75,-0.6069336,0.6186523,-0.128418,0.2856445,-0.3955078,0.06787109
1259,19.625,9.3125,0.1875,-0.5566406,0.5878906,-0.1630859,0.2817383,-0.3930664,0.07421875
1263,20.875,10,-1.125,-0.5175781,0.6420898,-0.1015625,0.2832031,-0.3945313,0.07568359
1267,17.6875,15.6875,-0.5,-0.5410156,0.6616211,-0.1166992,0.2807617,-0.390625,0.08251953
1271,7.8125,16.9375,1.1875,-0.4985352,0.6655273,-0.05908203,0.2783203,-0.3842773,0.08544922
1275,-0.1875,21.625,-0.3125,-0.5024414,0.6225586,-0.05908203,0.2758789,-0.3857422,0.08544922
1279,-5.8125,19.9375,-1.625,-0.4711914,0.5913086,-0.03222656,0.2734375,-0.3818359,0.08935547
1283,-8.5625,25.6875,0.5,-0.5024414,0.5644531,-0.1821289,0.2709961,-0.3803711,0.09082031
1287,-19.9375,23.4375,13.0625,-0.5834961,0.6030273,-0.2397461,0.269043,-0.3754883,0.09472656
1291,-40,10.6875,27.75,-0.6030273,0.7041016,-0.2631836,0.2626953,-0.3745117,0.09082031
1295,-64.6875,-19.75,20.5,-0.5913086,0.6694336,-0.1743164,0.2592773,-0.3745117,0.08789063
1299,-93.9375,-7.3125,32.9375,-0.296875,0.5449219,0.1328125,0.2583008,-0.3730469,0.08007813
1303,-89.9375,56,45.25,-0.3164063,0.4438477,0.02099609,0.2509766,-0.3779297,0.0703125
1307,-64.8125,74.25,33.4375,-0.6416016,0.6499023,-0.2670898,0.2426758,-0.3779297,0.06787109
1311,-60.1875,58.1875,24.5625,-0.6455078,0.6538086,-0.2900391,0.237793,-0.3779297,0.06787109
1315,-57.25,52.25,18.5,-0.5332031,0.5683594,-0.112793,0.230957,-0.3769531,0.06494141
1319,-43.8125,52.25,11.75,-0.6455078,0.5527344,-0.09765625,0.2236328,-0.3769531,0.06103516
1323,-29.9375,42,11.5625,-0.8393555,0.6538086,-0.2705078,0.222168,-0.3769531,0.06103516
1327,-20.6875,22.1875,9.375,-0.796875,0.7314453,-0.3051758,0.2163086,-0.3745117,0.06103516
1331,-14.25,13.9375,4.0625,-0.6611328,0.777832,-0.309082,0.2128906,-0.3730469,0.05957031
1336,-14.9375,9.6875,-3.1875,-0.6376953,0.8325195,-0.2285156,0.2119141,-0.3745117,0.05810547
1340,-18.0625,10,-1.4375,-0.6069336,0.8012695,-0.1015625,0.2104492,-0.3691406,0.05664063
1344,-15.25,9.5625,-2.75,-0.7192383,0.7895508,-0.04736328,0.2094727,-0.3681641,0.05126953
1348,-9.6875,3.6875,-0.75,-0.6923828,0.7314453,-0.02050781,0.2119141,-0.3666992,0.05126953
1352,-0.8125,-4.75,-2.8125,-0.6923828,0.7236328,-0.05908203,0.2070313,-0.3657227,0.04980469
1356,8.9375,-12.75,-8.5625,-0.6376953,0.7392578,-0.08984375,0.2055664,-0.3642578,0.04882813
1360,14.125,-16.5,-13.0625,-0.6806641,0.7856445,-0.109375,0.2055664,-0.3618164,0.04980469
1364,8.5,-16.75,-15.25,-0.6767578,0.8129883,-0.1166992,0.2070313,-0.3579102,0.04882813
1368,0.875,-14.25,-15.125,-0.6342773,0.7666016,-0.07470703,0.2080078,-0.3569336,0.04736328
1372,-4.1875,-11.1875,-15.8125,-0.6147461,0.7314453,-0.04394531,0.2055664,-0.3544922,0.04443359
1376,-3.8125,-11.1875,-17.75,-0.7036133,0.6884766,-0.0859375,0.2070313,-0.3505859,0.04296875
1380,-0.5625,-18.6875,-9.625,-0.7890625,0.6577148,-0.07470703,0.2080078,-0.3491211,0.04052734
1384,4.25,-26.375,-1.5625,-0.7426758,0.6342773,-0.02441406,0.2055664,-0.3505859,0.04052734
1388,12.1875,-26.0625,-2.4375,-0.6611328,0.6616211,0.03271484,0.2055664,-0.3466797,0.03613281
1392,16.125,-22.25,-6,-0.6728516,0.7314453,0.005859375,0.2055664,-0.3457031,0.03515625
1396,12.25,-20.4375,-3.4375,-0.7578125,0.7626953,-0.02832031,0.2045898,-0.3442383,0.03515625
1400,3.4375,-19.25,0.75,-0.7426758,0.7666016,-0.009277344,0.2045898,-0.3417969,0.03369141
1404,-0.4375,-15.4375,-0.375,-0.6689453,0.7236328,0.009765625,0.2021484,-0.3408203,0.03222656
1408,-4,-10.5625,-3.1875,-0.6572266,0.7314453,0.005859375,0.2021484,-0.3417969,0.03222656
1412,-9.875,-8.9375,-8.375,-0.6728516,0.7314453,-0.005371094,0.199707,-0.3393555,0.02832031
1416,-13.9375,-6.1875,-15.125,-0.6923828,0.6655273,-0.01660156,0.1987305,-0.3369141,0.02685547
1420,-20.6875,-5.5,-10.4375,-0.7114258,0.6225586,-0.01660156,0.2011719,-0.3369141,0.02685547
1424,-23.4375,-8.4375,-11.0625,-0.6845703,0.6030273,-0.01660156,0.2011719,-0.3344727,0.02294922
1428,-22.3125,-10.3125,-13.5,-0.6884766,0.6186523,-0.03613281,0.199707,-0.3330078,0.01855469
1432,-19.9375,-11.5,-17.375,-0.6923828,0.6420898,-0.009277344,0.2011719,-0.328125,0.01708984
1436,-19.5625,-14.125,-13.875,-0.7114258,0.6459961,0.001953125,0.203125,-0.3266602,0.01611328
1440,-16.8125,-13.9375,-11.6875,-0.6962891,0.6655273,0.01367188,0.2011719,-0.3266602,0.01074219
1444,-15.4375,-14.75,-8.0625,-0.7192383,0.7236328,-0.02441406,0.2021484,-0.3242188,0.01074219
1448,-13.875,-21.4375,-10.875,-0.7036133,0.7895508,-0.05126953,0.2011719,-0.3232422,0.01074219
1452,-7.9375,-26.75,-18.625,-0.765625,0.8520508,-0.07470703,0.199707,-0.3208008,0.0078125
1456,-11.0625,-26.3125,-21.6875,-0.7734375,0.8598633,-0.01660156,0.2011719,-0.3193359,0.006347656
1460,-18.5625,-20.5625,-17.125,-0.831543,0.875,-0.02050781,0.2011719,-0.3178711,0.002441406
1465,-32.5,-18.1875,-6.5,-0.8666992,0.824707,-0.04736328,0.2021484,-0.3154297,-0.00390625
1469,-41.5,-30.75,5.8125,-0.8198242,0.7705078,0.02490234,0.199707,-0.3144531,-0.00390625
1473,-5.8125,-25.8125,-10.0625,-0.8896484,0.7470703,-0.05126953,0.199707,-0.3144531,-0.008300781
1477,3.75,-36.8125,-8.8125,-1.009766,0.890625,-0.1054688,0.1987305,-0.3120117,-0.01074219
1481,3.375,-37.5625,-0.875,-0.9169922,0.8984375,-0.128418,0.199707,-0.3120117,-0.009277344
1485,-0.125,-35,4.3125,-0.9169922,0.972168,-0.1743164,0.199707,-0.3095703,-0.01367188
1489,-9.5625,-36.5,9.625,-0.8935547,0.9995117,-0.128418,0.1972656,-0.3105469,-0.01464844
1493,-13.625,-37.0625,9.9375,-0.9013672,1.022949,-0.03222656,0.1972656,-0.3095703,-0.01757813
1497,-11.75,-36.5625,1.5,-0.8354492,0.956543,0.144043,0.1962891,-0.3105469,-0.02294922
1501,-3.5,-24.0625,-9.4375,-0.746582,0.8789063,0.2905273,0.1962891,-0.3095703,-0.02587891
1505,-1.375,-11.5,-14.5625,-0.7929688,0.90625,0.3134766,0.1962891,-0.3095703,-0.02734375
1509,-5.625,-0.8125,-14.1875,-0.7890625,0.8789063,0.340332,0.1987305,-0.3081055,-0.02832031
1513,-8.625,12.875,-11.6875,-0.8354492,0.8208008,0.3364258,0.1972656,-0.3066406,-0.02832031
1517,-9.25,17.625,-6.0625,-0.8974609,0.7548828,0.3134766,0.1972656,-0.3105469,-0.02734375
1521,-3.875,22.875,-2.5625,-0.8818359,0.7197266,0.3017578,0.1987305,-0.3095703,-0.02734375
1525,5,26.375,-4.625,-0.8510742,0.6962891,0.2675781,0.1987305,-0.3081055,-0.02587891
1529,12.125,34.4375,-7.8125,-0.847168,0.7001953,0.2060547,0.2011719,-0.3095703,-0.02734375
1533,16.625,36.875,-7.125,-0.8818359,0.6962891,0.1328125,0.2011719,-0.3105469,-0.02148438
1537,20.1875,37.25,-2.75,-0.878418,0.7158203,0.1020508,0.2011719,-0.3095703,-0.01904297
1541,18.8125,39.1875,1.25,-0.847168,0.7973633,0.08251953,0.203125,-0.3095703,-0.01611328
1545,14.4375,41.5625,3.1875,-0.8588867,0.8168945,0.05566406,0.2021484,-0.3120117,-0.01074219
1549,11.9375,42.3125,5,-0.9052734,0.8208008,-0.005371094,0.2021484,-0.3105469,-0.008300781
1553,12.375,35.875,7.4375,-0.9790039,0.8286133,-0.1206055,0.2045898,-0.3105469,-0.00390625
1557,15.1875,24.3125,8.8125,-0.9399414,0.8632813,-0.1435547,0.2055664,-0.3120117,-0.001464844
1561,19.125,18.875,0.125,-0.8237305,0.9101563,-0.0859375,0.2045898,-0.3168945,0.002441406
1565,17.875,17.5,-9.1875,-0.7695313,0.9995117,-0.07861328,0.2055664,-0.3144531,0.00390625
1569,8.6875,22.5625,-16.8125,-0.765625,1.053711,-0.1015625,0.2094727,-0.3144531,0.006347656
1573,-10.3125,28.5,-18.375,-0.8432617,1.034668,-0.1552734,0.2104492,-0.3168945,0.0078125
1577,-32.875,23.4375,-9.875,-1.013672,0.987793,-0.2631836,0.2104492,-0.3154297,0.0078125
1581,-48.5,3.5625,3.8125,-1.187988,0.8364258,-0.3706055,0.2119141,-0.3178711,0.006347656
1585,-50.875,-26.125,15.4375,-1.11084,0.7353516,-0.3051758,0.2138672,-0.3208008,0.002441406
1589,-35.75,-34.375,-0.125,-0.730957,0.6884766,0.001953125,0.215332,-0.3242188,-0.002441406
1594,-21.6875,-18.375,-20,-0.6376953,0.7705078,0.1020508,0.2202148,-0.3266602,-0.005371094
1598,-34.5,-1.0625,-22.125,-0.7114258,0.8632813,0.07128906,0.222168,-0.328125,-0.009277344
1602,-50.4375,8.9375,-19.125,-0.8818359,0.8051758,-0.02832031,0.2260742,-0.328125,-0.009277344
1606,-55.5625,-2.8125,-14.0625,-1.041016,0.6499023,-0.128418,0.2285156,-0.3305664,-0.01367188
1610,-38.8125,-26.8125,-11.375,-0.9208984,0.3427734,0.02880859,0.2329102,-0.3305664,-0.02148438
1614,2.9375,-34.4375,-12.0625,-0.6806641,0.1293945,0.2250977,0.2353516,-0.3305664,-0.02148438
1618,44.9375,-33.875,-13.5,-0.6767578,0.2338867,0.2558594,0.2402344,-0.3344727,-0.02587891
1622,67,-31.1875,-13.5,-0.5527344,0.3896484,0.3364258,0.2426758,-0.3369141,-0.02148438
1626,77.5,-14.875,-17.5,-0.5102539,0.5332031,0.3520508,0.2451172,-0.3330078,-0.02050781
1630,73,-5.75,-13.4375,-0.6376953,0.6264648,0.2558594,0.2485352,-0.3344727,-0.01367188
1634,57.25,-6.1875,-1.875,-0.6689453,0.5952148,0.2172852,0.2519531,-0.3369141,-0.009277344
1638,51.75,-15.125,7.25,-0.6689453,0.5253906,0.1826172,0.2519531,-0.3378906,-0.005371094
1642,65.4375,-16.875,1.75,-0.4711914,0.3662109,0.3095703,0.2568359,-0.3378906,0
1646,91.4375,-9.25,-4.3125,-0.6342773,0.4555664,0.2480469,0.2583008,-0.3417969,0.004882813
1650,97.3125,-21.3125,-10.375,-0.6303711,0.5991211,0.2368164,0.2602539,-0.3432617,0.01074219
1654,87.9375,-10.25,-10.9375,-0.4868164,0.7197266,0.1748047,0.2641602,-0.3417969,0.01611328
1658,58.8125,-0.5625,-6.6875,-0.5102539,0.7626953,0.1479492,0.2666016,-0.3432617,0.02685547
1662,34.9375,5.875,-0.4375,-0.4672852,0.6108398,0.159668,0.2666016,-0.3442383,0.02832031
1666,30.1875,21.9375,0.375,-0.4633789,0.4829102,0.1328125,0.2709961,-0.3432617,0.03369141
1670,41.875,20.8125,-2.1875,-0.7773438,0.5605469,-0.1513672,0.2709961,-0.3457031,0.0390625
1674,49,0.0625,-11.5625,-0.7851563,0.5878906,-0.2592773,0.2734375,-0.3442383,0.04296875
1678,53.375,-8.875,-17.0625,-0.6962891,0.6069336,-0.2592773,0.2773438,-0.3417969,0.04980469
1682,40.6875,-9,-17.5625,-0.6342773,0.6655273,-0.1977539,0.2807617,-0.3417969,0.04980469
1686,23.5,-3.3125,-18.6875,-0.6455078,0.6923828,-0.2167969,0.2841797,-0.3417969,0.05664063
1690,7.875,-1.1875,-18.8125,-0.7036133,0.7197266,-0.2324219,0.2866211,-0.3417969,0.05810547
1694,0.5,0.6875,-22.8125,-0.6533203,0.6342773,-0.2324219,0.2915039,-0.3417969,0.05810547
1698,0.625,-2.125,-27.4375,-0.730957,0.5214844,-0.2363281,0.2949219,-0.3417969,0.05664063
1702,5.75,-12.0625,-25.8125,-0.6806641,0.3310547,-0.1166992,0.2998047,-0.3408203,0.05810547
1706,21.625,-13.5625,-17.375,-0.7192383,0.269043,-0.1166992,0.3056641,-0.3408203,0.05957031
1710,33.3125,-20.375,-11.0625,-0.7851563,0.3779297,-0.2207031,0.3081055,-0.3408203,0.05957031
1714,37.0625,-24.5,-10.9375,-0.7504883,0.5913086,-0.2397461,0.3129883,-0.3432617,0.05957031
1718,19.6875,-22.75,-12.125,-0.6225586,0.6772461,-0.1977539,0.3154297,-0.3417969,0.05957031
1723,-10.0625,-11.4375,-13.5625,-0.5605469,0.6459961,-0.05908203,0.3188477,-0.3432617,0.05810547
1727,-27.4375,-3,-7.3125,-0.5683594,0.3974609,0.005859375,0.3212891,-0.3442383,0.05810547
1731,-17.6875,0,-2.75,-0.715332,0.2885742,-0.02441406,0.3237305,-0.3481445,0.05273438
1735,3.75,-6.4375,-3.5625,-0.8164063,0.3974609,-0.05126953,0.328125,-0.3466797,0.05126953
1739,8.75,-11.375,-2.375,-0.7890625,0.5097656,-0.08984375,0.328125,-0.3466797,0.04882813
1743,1.75,-16.4375,-4.5,-0.6806641,0.5839844,0.001953125,0.328125,-0.3491211,0.04882813
1747,-4.375,-3.9375,-2.375,-0.5722656,0.5527344,0.1098633,0.3305664,-0.3505859,0.04736328
1751,-4.4375,3.5,0,-0.7192383,0.5913086,0.06347656,0.3305664,-0.3505859,0.04443359
1755,-4.875,3.0625,3.5625,-0.7543945,0.5800781,-0.001464844,0.3320313,-0.3530273,0.04443359
1759,-4.875,1.4375,7.1875,-0.7114258,0.5683594,0.001953125,0.3305664,-0.3530273,0.04443359
1763,0.1875,-0.25,6.9375,-0.7036133,0.5410156,-0.01318359,0.3320313,-0.3554688,0.04443359
1767,7.5,-1,6.125,-0.699707,0.5449219,-0.07080078,0.3305664,-0.3579102,0.04589844
1771,8.3125,-1.875,7.25,-0.6572266,0.6147461,-0.05126953,0.3305664,-0.3579102,0.04736328
1775,3,3.1875,6,-0.6186523,0.6381836,-0.09765625,0.3305664,-0.3603516,0.04589844
1779,-1.25,4,7.75,-0.6845703,0.5913086,-0.1245117,0.3320313,-0.3603516,0.04882813
1783,-6.5625,6.8125,9.9375,-0.6069336,0.5253906,-0.08203125,0.3295898,-0.3657227,0.04736328
1787,-5.125,6.8125,13.3125,-0.6264648,0.4790039,-0.05908203,0.328125,-0.3632813,0.04980469
1791,3.9375,5.75,15,-0.5332031,0.4165039,-0.02832031,0.3261719,-0.3657227,0.04980469
1795,15.6875,8.5,15.1875,-0.5253906,0.4438477,-0.04394531,0.3237305,-0.3657227,0.05126953
1799,23.625,9.875,12.5,-0.4946289,0.5371094,-0.06689453,0.3212891,-0.3657227,0.05419922
1803,22.0625,12.9375,10.625,-0.4790039,0.6030273,-0.07080078,0.3188477,-0.3632813,0.06201172
1807,12.8125,20.375,9.9375,-0.4326172,0.6147461,-0.02050781,0.3164063,-0.3618164,0.06201172
1811,1.9375,28.5,8,-0.4404297,0.5878906,0.01367188,0.3129883,-0.3603516,0.06640625
1815,-7.625,36,10.3125,-0.4052734,0.4868164,0.08642578,0.3081055,-0.3579102,0.07177734
1819,-7.9375,45,14.5625,-0.3901367,0.4125977,0.05175781,0.3032227,-0.3554688,0.07421875
1823,11.375,46,8.625,-0.7075195,0.4555664,-0.309082,0.2983398,-0.3520508,0.07714844
1827,21.875,25,7.4375,-0.8125,0.5913086,-0.4321289,0.2915039,-0.3481445,0.08251953
1831,19.5,13.4375,8.25,-0.78125,0.6420898,-0.4785156,0.2890625,-0.3457031,0.08544922
1835,3.125,9.4375,9.25,-0.6342773,0.7353516,-0.3359375,0.2856445,-0.3432617,0.08789063
1839,-23.1875,13.75,8.1875,-0.5063477,0.7041016,-0.1552734,0.2792969,-0.3393555,0.08691406
1843,-39.9375,26.5625,8.8125,-0.5527344,0.6225586,-0.04736328,0.2783203,-0.3432617,0.08691406
1847,-46.4375,29.5625,11.25,-0.7231445,0.5371094,-0.1401367,0.2724609,-0.3378906,0.08398438
1852,-38.8125,21.5,11.5625,-0.8085938,0.4790039,-0.1782227,0.2700195,-0.3393555,0.07861328
1856,-17.75,7.625,14.5,-0.8198242,0.4360352,-0.2285156,0.2651367,-0.3408203,0.08007813
1860,-1.0625,-1.4375,12.6875,-0.6923828,0.5488281,-0.1245117,0.2641602,-0.3417969,0.07568359
1864,-7.25,1.6875,13.6875,-0.5332031,0.6342773,-0.001464844,0.2592773,-0.3369141,0.07421875
1868,-22,18.25,11.875,-0.5488281,0.6186523,0.07128906,0.2568359,-0.3369141,0.07324219
1872,-29.5,24.375,17.625,-0.6806641,0.5527344,0.04785156,0.253418,-0.3369141,0.07177734
1876,-24.25,20.875,22,-0.7578125,0.4985352,-0.005371094,0.2485352,-0.3393555,0.06884766
1880,-9.6875,13.375,22.8125,-0.7504883,0.4711914,-0.04394531,0.2460938,-0.3354492,0.06884766
1884,8.375,4.25,20.4375,-0.7348633,0.5292969,-0.09765625,0.2402344,-0.3369141,0.06884766
1888,15.875,0,17.1875,-0.6572266,0.6108398,-0.08203125,0.237793,-0.3354492,0.06787109
1892,11.375,6.75,17.25,-0.5834961,0.6733398,0.01708984,0.2329102,-0.3344727,0.06884766
1896,5.9375,13.3125,19.625,-0.715332,0.6923828,-0.005371094,0.2294922,-0.3344727,0.06787109
1900,8.0625,7.375,22.1875,-0.8085938,0.7197266,-0.08203125,0.2260742,-0.3330078,0.0703125
1904,12.6875,-0.8125,22.0625,-0.7734375,0.7587891,-0.1401367,0.2236328,-0.3330078,0.06787109
1908,12.8125,-4.5,15.375,-0.7036133,0.824707,-0.1708984,0.2202148,-0.3320313,0.06787109
1912,6.375,0,8.5625,-0.6376953,0.8364258,-0.112793,0.2163086,-0.3291016,0.06884766
1916,-6.4375,8.875,10.4375,-0.699707,0.8442383,-0.1362305,0.2138672,-0.3320313,0.06787109
1920,-14,7.875,12.0625,-0.7734375,0.8129883,-0.1435547,0.2119141,-0.3320313,0.06640625
1924,-15.1875,4.3125,11.0625,-0.7695313,0.777832,-0.1513672,0.2094727,-0.3291016,0.06494141
1928,-14,0.75,7.6875,-0.7773438,0.7705078,-0.1669922,0.2094727,-0.3305664,0.06347656
1932,-14.0625,-0.125,3.5625,-0.7773438,0.7197266,-0.1669922,0.2070313,-0.3305664,0.06201172
1936,-10.3125,-1,6.75,-0.796875,0.6616211,-0.1860352,0.2045898,-0.3320313,0.06103516
1940,-6.5,-3.0625,12.0625,-0.8007813,0.6655273,-0.2055664,0.203125,-0.3256836,0.05810547
1944,-4,-8.375,16.125,-0.8125,0.7041016,-0.2397461,0.2021484,-0.3256836,0.05664063
1948,-2.5625,-15.1875,17.75,-0.7426758,0.7275391,-0.2475586,0.1972656,-0.3256836,0.05664063
1952,-2.5,-16,14.25,-0.715332,0.7548828,-0.2592773,0.1962891,-0.3242188,0.05419922
1956,-2.3125,-19.25,8.1875,-0.7617188,0.7666016,-0.3051758,0.1962891,-0.3232422,0.05273438
1960,-6.6875,-23.5625,11.25,-0.746582,0.7275391,-0.2861328,0.1938477,-0.3232422,0.04980469
1964,-8.625,-32.3125,16.5625,-0.7270508,0.7001953,-0.2978516,0.1928711,-0.3242188,0.04736328
1968,-6.1875,-44.25,17.5,-0.6611328,0.7158203,-0.2705078,0.1889648,-0.3242188,0.04443359
1972,1.4375,-51.4375,8.5,-0.6264648,0.7509766,-0.1743164,0.1889648,-0.3242188,0.04296875
1976,2.125,-52.9375,4.5625,-0.6225586,0.7817383,-0.08203125,0.1865234,-0.3242188,0.03759766
1981,-3.8125,-48.5625,5.0625,-0.6030273,0.7626953,-0.05126953,0.1865234,-0.3256836,0.03759766
1985,-11.375,-49.4375,11.25,-0.6030273,0.6845703,-0.03613281,0.1865234,-0.3232422,0.03222656
1989,-13.375,-47.0625,22.5625,-0.6186523,0.6381836,-0.03222656,0.1831055,-0.3232422,0.02832031
1993,-18.0625,-65,41.0625,-0.9438477,0.7626953,-0.1743164,0.1796875,-0.3242188,0.02392578
1997,-0.9375,-75.25,28.125,-0.6342773,0.6811523,0.09423828,0.1772461,-0.3256836,0.01855469
2001,13.4375,-65.375,18.3125,-0.6650391,0.8286133,0.1787109,0.1772461,-0.3256836,0.01708984
2005,14,-59.4375,13.25,-0.6572266,0.9140625,0.1674805,0.1757813,-0.3242188,0.01171875
2009,13.0625,-53,6,-0.6069336,1.034668,0.07128906,0.1723633,-0.3232422,0.01171875
2013,12.125,-49.875,-13,-0.6689453,1.146973,0.01708984,0.1738281,-0.3193359,0.01074219
2017,-5.4375,-37.375,-21.5625,-0.6225586,1.205566,0.105957,0.1757813,-0.3178711,0.0078125
2021,-35.125,-11.3125,-17.8125,-0.6455078,1.13916,0.1865234,0.1796875,-0.3168945,0.0078125
2025,-48.9375,8.3125,-19,-0.6923828,1.026855,0.1557617,0.1782227,-0.3144531,0.002441406
2029,-47.4375,17.3125,-21.3125,-0.7504883,0.9414063,0.05957031,0.1782227,-0.3144531,0.002441406
2033,-30.75,12.5,-32.625,-0.9052734,0.9414063,-0.03222656,0.1806641,-0.3105469,-0.001464844
2037,-26.875,12.4375,-33.25,-0.8276367,0.9453125,0.07910156,0.1821289,-0.3120117,-0.001464844
2041,-35,26.5,-28.5625,-0.847168,0.921875,0.07910156,0.184082,-0.3081055,-0.001464844
2045,-45.6875,36.0625,-16,-0.9091797,0.8364258,0.03662109,0.1865234,-0.3066406,-0.002441406
2049,-38.0625,32.5625,-7.125,-0.9208984,0.7431641,-0.02050781,0.1879883,-0.3081055,-0.001464844
2053,-13.6875,21.5625,-8.3125,-0.9091797,0.7001953,-0.03613281,0.1855469,-0.3081055,-0.00390625
2057,9.125,13.75,-13.3125,-0.8818359,0.7739258,-0.005371094,0.1879883,-0.3056641,-0.002441406
2061,9.5625,18.5625,-13.25,-0.7734375,0.8632813,0.07910156,0.1904297,-0.3056641,-0.00390625
2065,0.6875,30.3125,-12.5625,-0.8085938,0.9179688,0.04443359,0.1914063,-0.3041992,0
2069,-9.75,37.0625,-10.125,-0.8432617,0.9179688,0.01708984,0.1914063,-0.3032227,0.002441406
2073,-12.5,39,-9.25,-0.9208984,0.90625,-0.03222656,0.1948242,-0.3017578,0.002441406
2077,-7.875,35.25,-4.5,-1.009766,0.855957,-0.07080078,0.1962891,-0.3032227,0.00390625
2081,1.75,27.4375,1.1875,-0.9750977,0.8012695,-0.04003906,0.1948242,-0.3032227,0.004882813
2085,26.75,24.4375,-7.375,-0.8510742,0.7314453,0.02490234,0.1962891,-0.3017578,0.0078125
2089,53.8125,28.1875,-17.625,-0.9130859,0.8051758,-0.05908203,0.1972656,-0.3041992,0.01074219
2093,55.0625,27,-13.375,-0.9555664,0.9375,-0.1245117,0.1972656,-0.3017578,0.01708984
2097,43.4375,29.875,-3.625,-0.9208984,0.956543,-0.1630859,0.199707,-0.3032227,0.02148438
2101,25.9375,32.75,13.25,-0.9946289,0.972168,-0.2397461,0.1987305,-0.3056641,0.02539063
2105,0.0625,25.6875,34.4375,-0.9555664,0.9453125,-0.2475586,0.1972656,-0.3081055,0.02978516
2110,-3,28.0625,15.75,-0.5756836,0.6923828,-0.01318359,0.1948242,-0.3105469,0.03076172
2114,56.75,36.8125,-38.25,-0.7773438,0.2495117,-0.1552734,0.1972656,-0.3120117,0.03369141
2118,102.3125,20.1875,-49.3125,-0.9750977,0.2612305,-0.2744141,0.2011719,-0.3095703,0.04052734
2122,91.5,7.5,-26.875,-0.9868164,0.5527344,-0.3325195,0.203125,-0.3066406,0.04589844
2126,49.6875,3.75,-3.375,-0.8510742,0.7001953,-0.2397461,0.2070313,-0.3066406,0.05273438
2130,14.75,10.5,8.9375,-0.8198242,0.6884766,-0.2016602,0.2055664,-0.3095703,0.05664063
2134,2.1875,11.8125,10.4375,-0.8237305,0.6069336,-0.1015625,0.2080078,-0.3081055,0.05810547
2138,19.25,17.3125,0.5,-0.8706055,0.5644531,-0.07861328,0.2080078,-0.3105469,0.05957031
2142,36.0625,12.375,0,-0.9555664,0.6772461,-0.1401367,0.2080078,-0.3144531,0.06103516
2146,44.875,5.6875,7.8125,-0.9130859,0.7856445,-0.1435547,0.2094727,-0.3129883,0.06494141
2150,45.3125,2.125,12.125,-0.8164063,0.9799805,-0.08984375,0.2104492,-0.3144531,0.06787109
2154,43.0625,11.4375,4.9375,-0.8237305,1.150879,-0.05126953,0.2128906,-0.3168945,0.07177734
2158,29,22.1875,-1.375,-0.9208984,1.240234,-0.128418,0.2119141,-0.3208008,0.07421875
2162,9.8125,18.0625,2.1875,-0.9868164,1.146973,-0.2055664,0.2119141,-0.3193359,0.08007813
2166,3.8125,6.5,4.8125,-0.9013672,0.9956055,-0.2128906,0.2138672,-0.3217773,0.08105469
2170,15.3125,-1.9375,-5.375,-0.699707,0.890625,-0.07080078,0.215332,-0.3242188,0.08398438
2174,26,2.125,-18.5,-0.7578125,0.9296875,-0.128418,0.21875,-0.3266602,0.08789063
2178,14.625,-1,-25,-0.7851563,0.9682617,-0.1245117,0.2246094,-0.3256836,0.09326172
2182,-7.6875,-0.8125,-21.75,-0.6689453,0.9296875,-0.04736328,0.2285156,-0.328125,0.09472656
2186,-29.125,1.9375,-16.4375,-0.7036133,0.8051758,-0.0859375,0.2319336,-0.3266602,0.09619141
2190,-32.375,-8.875,-7.75,-0.831543,0.5136719,-0.1362305,0.237793,-0.3291016,0.09619141
2194,-10.4375,-28.375,6.75,-0.8164063,0.171875,-0.1899414,0.2402344,-0.328125,0.09326172
2198,49.1875,-50.8125,-19,-0.4946289,0.1098633,0.05175781,0.2426758,-0.3344727,0.09326172
2202,88.75,-39.5625,-40.25,-0.3510742,0.5097656,0.07910156,0.2519531,-0.3330078,0.1000977
2206,67.4375,-27.375,-51.75,-0.5024414,0.7470703,-0.06689453,0.2568359,-0.3291016,0.1030273
2210,26.875,-23.75,-42.4375,-0.5141602,0.6733398,-0.109375,0.2651367,-0.3242188,0.1083984
2214,-7.8125,-16.6875,-28.5625,-0.5024414,0.4829102,-0.09375,0.2724609,-0.3242188,0.1098633
2218,-16.8125,-13.0625,-22.5625,-0.5332031,0.3662109,-0.1206055,0.2749023,-0.3242188,0.1113281
2222,-3.75,-16.875,-25.125,-0.4946289,0.2070313,-0.02050781,0.2807617,-0.328125,0.1113281
2226,18.1875,-11.5,-28.4375,-0.4946289,0.1875,-0.112793,0.2880859,-0.3320313,0.1123047
2230,22.1875,-17.8125,-17.1875,-0.6108398,0.300293,-0.2089844,0.2915039,-0.3330078,0.1137695
2234,22.875,-23.9375,-13.5625,-0.7695313,0.2963867,-0.5517578,0.2973633,-0.3354492,0.1181641
2239,13.6875,-47.875,8,-0.7426758,0.3740234,-0.5170898,0.3007813,-0.3378906,0.1191406
2243,-4.1875,-51.375,12.5,-0.3320313,0.4125977,-0.1513672,0.3022461,-0.3442383,0.1152344
2247,-4.4375,-31.4375,3.5625,-0.3823242,0.4013672,-0.1166992,0.3056641,-0.3520508,0.1123047
2251,5.375,-32,-2.3125,-0.4365234,0.3974609,-0.03222656,0.3071289,-0.3554688,0.1113281
2255,17.375,-24.375,-3.9375,-0.4868164,0.4204102,-0.06689453,0.3081055,-0.3579102,0.1123047
2259,16.625,-22.875,-1.375,-0.5063477,0.5449219,-0.1166992,0.3115234,-0.359375,0.1137695
2263,11.125,-17.1875,-1.125,-0.6225586,0.5878906,-0.2631836,0.3115234,-0.3618164,0.1137695
2267,-1.625,-21,2,-0.6455078,0.6616211,-0.3666992,0.3115234,-0.3603516,0.1137695
2271,-10.375,-21.875,-1.875,-0.6030273,0.6884766,-0.3476563,0.3115234,-0.3642578,0.1152344
2275,-16.25,-22.1875,-6.5625,-0.6303711,0.7080078,-0.2978516,0.3139648,-0.3681641,0.1123047
2279,-21.3125,-23.8125,-9.8125,-0.5913086,0.6694336,-0.1552734,0.3139648,-0.3666992,0.1083984
2283,-20.25,-18.4375,-10,-0.6030273,0.6147461,-0.03222656,0.3154297,-0.3706055,0.1044922
2287,-21.75,-11.5,-6.125,-0.5913086,0.6030273,-0.009277344,0.3173828,-0.3706055,0.1000977
2291,-21,-4.75,-5,-0.6455078,0.5800781,-0.03222656,0.3188477,-0.3745117,0.1030273
2295,-21.625,-1.875,-2.5,-0.5913086,0.6030273,-0.04394531,0.3198242,-0.3745117,0.09619141
2299,-26.375,5.9375,-5.3125,-0.5527344,0.6264648,0.01708984,0.3212891,-0.3769531,0.09472656
2303,-31.5,16.5625,-9.75,-0.5024414,0.5644531,0.02880859,0.3212891,-0.3779297,0.09326172
2307,-24.8125,26.5,-16.25,-0.6030273,0.4013672,-0.06298828,0.3222656,-0.3793945,0.09326172
2311,-16.25,26.5,-10.8125,-0.7192383,0.3271484,-0.1669922,0.3222656,-0.3769531,0.09228516
2315,-6.625,21,2.6875,-0.78125,0.2885742,-0.2207031,0.3222656,-0.3769531,0.09472656
2319,3.3125,14.1875,12.8125,-0.7231445,0.3623047,-0.1669922,0.3222656,-0.3745117,0.09619141
2323,9.25,14.25,19.25,-0.6376953,0.4282227,-0.08984375,0.3164063,-0.3745117,0.1000977
2327,8.6875,19.4375,21.3125,-0.5332031,0.5292969,0.01708984,0.3154297,-0.3706055,0.1000977
2331,6.25,32,17.8125,-0.4711914,0.6030273,0.05566406,0.3105469,-0.3691406,0.1030273
2335,0.0625,42.375,10.8125,-0.4287109,0.6303711,-0.009277344,0.3071289,-0.3681641,0.105957
2339,0.6875,49.75,0.125,-0.4985352,0.5605469,-0.1708984,0.3032227,-0.3642578,0.1069336
2343,1.5,45.375,-1.25,-0.5913086,0.5683594,-0.2475586,0.3007813,-0.3579102,0.1113281
2347,-2.5,38.25,-2.6875,-0.6689453,0.5878906,-0.2978516,0.2973633,-0.3554688,0.1152344
2351,-10.6875,29.4375,-3.875,-0.6728516,0.6733398,-0.2436523,0.2963867,-0.3520508,0.1137695
2355,-21.75,21.5,-11.75,-0.6108398,0.6884766,-0.1860352,0.2915039,-0.3466797,0.1137695
2359,-26.25,22.125,-29.625,-0.4985352,0.6577148,-0.07470703,0.2939453,-0.3417969,0.1113281
2363,-24.6875,30.875,-50,-0.4594727,0.6538086,-0.05908203,0.2924805,-0.3408203,0.1113281
2368,-24.9375,39.9375,-64.6875,-0.5214844,0.6420898,-0.09765625,0.2963867,-0.3320313,0.1083984
2372,-31.625,46.5625,-67.6875,-0.6962891,0.5839844,-0.2167969,0.2963867,-0.3232422,0.1113281
2376,-39.1875,40.125,-51.25,-0.7734375,0.5019531,-0.3325195,0.2983398,-0.3178711,0.1083984
2380,-47.125,29.625,-33.1875,-0.6845703,0.4907227,-0.3398438,0.2973633,-0.3105469,0.1098633
2384,-54.4375,26,-21.6875,-0.6186523,0.5253906,-0.2436523,0.2963867,-0.3066406,0.1044922
2388,-56.625,34.1875,-21.6875,-0.6962891,0.5644531,-0.2631836,0.2963867,-0.3032227,0.1015625
2392,-54.0625,38.625,-22.5625,-0.8198242,0.5058594,-0.378418,0.2949219,-0.2983398,0.09912109
2396,-46.5,27,-19.9375,-0.8974609,0.4555664,-0.4628906,0.2924805,-0.3007813,0.09912109
2400,-33.4375,10.125,-15.0625,-0.878418,0.4243164,-0.4667969,0.2924805,-0.2929688,0.09472656
2404,-26.5,-3.25,-12.625,-0.8666992,0.5058594,-0.3823242,0.2900391,-0.2929688,0.09082031
2408,-35.5,-4.75,-10.9375,-0.8354492,0.5761719,-0.2705078,0.2924805,-0.2919922,0.08691406
2412,-53.75,3.5625,-2.1875,-0.7387695,0.5214844,-0.1513672,0.2900391,-0.2905273,0.08251953
2416,-67.4375,13.25,6.1875,-0.7890625,0.4438477,-0.1513672,0.2890625,-0.2895508,0.07861328
2420,-61.375,7.25,11.3125,-0.9013672,0.3310547,-0.2089844,0.2866211,-0.2944336,0.07421875
2424,-36.1875,-13.0625,6.625,-0.9711914,0.2924805,-0.1860352,0.2856445,-0.296875,0.06884766
2428,0.75,-38.875,-7.8125,-0.9829102,0.3349609,-0.1782227,0.2832031,-0.2944336,0.06347656
2432,29.1875,-59.5625,-22.125,-0.8276367,0.4477539,-0.01660156,0.2856445,-0.2905273,0.05957031
2436,32.0625,-48.375,-19.6875,-0.6923828,0.5410156,0.125,0.2841797,-0.2905273,0.05517578
2440,20,-31.75,-9.375,-0.7192383,0.5878906,0.1210938,0.2841797,-0.2880859,0.05273438
2444,7.75,-23.125,-5.4375,-0.8588867,0.5878906,0.03271484,0.2841797,-0.2866211,0.05126953
2448,-2.75,-24.8125,-0.375,-0.8818359,0.5175781,-0.009277344,0.2832031,-0.2841797,0.04882813
2452,-7.1875,-20.375,5.8125,-0.8164063,0.4125977,0.02880859,0.2817383,-0.2832031,0.04589844
2456,-4.125,-14.0625,16.1875,-0.878418,0.3623047,0.02099609,0.2807617,-0.2856445,0.04052734
2460,4.5625,-16.375,27.375,-0.9633789,0.3896484,-0.05126953,0.2773438,-0.2832031,0.04052734
2464,6.5,-13.4375,39.9375,-0.8198242,0.4829102,-0.009277344,0.2758789,-0.2856445,0.03759766
2468,-0.8125,-4.375,48,-0.8588867,0.5913086,-0.06689453,0.269043,-0.2866211,0.03515625
2472,-13.125,-5.5,49.625,-0.9052734,0.6303711,-0.07080078,0.2666016,-0.2929688,0.03613281
2476,-19.375,-6.1875,45.3125,-0.8974609,0.6303711,-0.07470703,0.2602539,-0.2929688,0.03515625
2480,-25.4375,-12.5625,43.25,-0.8745117,0.6499023,-0.03613281,0.2543945,-0.296875,0.03076172
2484,-34.3125,-15.875,48.9375,-0.847168,0.6538086,-0.02441406,0.2509766,-0.2993164,0.02832031
2488,-44,-15.9375,53,-0.8354492,0.6342773,0.02099609,0.2475586,-0.3032227,0.02294922
2492,-50.9375,-14.5625,56.6875,-0.8007813,0.6538086,0.02099609,0.2402344,-0.3066406,0.01708984
2497,-40.0625,-25.3125,31.9375,-0.8818359,0.7119141,-0.09375,0.2368164,-0.3120117,0.01318359
2501,-28.875,-51.4375,-2.9375,-0.8276367,0.8012695,-0.1015625,0.2319336,-0.3105469,0.006347656
2505,-29.625,-60.625,-23.4375,-0.6728516,0.7626953,-0.02441406,0.2353516,-0.3129883,0.002441406
2509,-35.875,-56.625,-32.1875,-0.6611328,0.7509766,-0.001464844,0.2353516,-0.3095703,-0.001464844
2513,-39.9375,-41.875,-33.875,-0.6147461,0.6733398,0.05957031,0.2368164,-0.3056641,-0.008300781
2517,-43.0625,-28.875,-33.9375,-0.7543945,0.6616211,0.005859375,0.2353516,-0.3017578,-0.01611328
2521,-40.25,-30.875,-39.0625,-0.847168,0.5761719,-0.04736328,0.2368164,-0.296875,-0.01904297
2525,-35.6875,-35.0625,-39.9375,-0.7617188,0.5292969,-0.001464844,0.2402344,-0.2919922,-0.02148438
2529,-31.625,-31.1875,-41.25,-0.7851563,0.5683594,0.04443359,0.2412109,-0.2895508,-0.02734375
2533,-30.9375,-33.75,-44.375,-0.9477539,0.5527344,0.05566406,0.2426758,-0.2841797,-0.02978516
2537,-33.375,-36.9375,-34.6875,-0.9438477,0.4477539,0.1635742,0.2436523,-0.2807617,-0.03515625
2541,-22.5625,-35.125,-25.8125,-0.9326172,0.3120117,0.2329102,0.2436523,-0.2753906,-0.04052734
2545,3.5625,-36.375,-21,-0.8818359,0.2963867,0.2675781,0.2451172,-0.2768555,-0.04052734
2549,29.4375,-35.25,-24.875,-0.8549805,0.4438477,0.2480469,0.2451172,-0.2705078,-0.04345703
2553,40.875,-30.5625,-36.1875,-0.9868164,0.5952148,0.1982422,0.2460938,-0.2680664,-0.04492188
2557,22.25,-23.625,-32.625,-1.029297,0.6733398,0.2060547,0.2460938,-0.2680664,-0.04052734
2561,-1.1875,-14.125,-20.375,-1.056641,0.6030273,0.1943359,0.2451172,-0.2641602,-0.04492188
2565,-7.9375,-9.9375,-10.0625,-1.021484,0.5058594,0.1748047,0.2460938,-0.2617188,-0.04345703
2569,5.0625,-10.3125,-13.75,-1.07959,0.5410156,0.1171875,0.2451172,-0.2607422,-0.04345703
2573,12.375,-16.0625,-20.8125,-1.118652,0.5991211,0.1289063,0.2460938,-0.2592773,-0.04199219
2577,5.5625,-14.1875,-18.125,-1.07959,0.5683594,0.2060547,0.2460938,-0.2583008,-0.04492188
2581,0.0625,-6.25,-9.75,-1.289063,0.5097656,0.1289063,0.2485352,-0.2543945,-0.04492188
2585,3,-14.6875,0.4375,-0.9594727,0.4594727,0.3056641,0.2475586,-0.2543945,-0.04638672
2589,21.1875,2.9375,-3.75,-1.005859,0.5214844,0.2675781,0.2460938,-0.2558594,-0.04492188
2593,22.9375,3.4375,-2.0625,-1.075684,0.5644531,0.1943359,0.2475586,-0.2529297,-0.04345703
2597,19.375,6.625,1.3125,-1.048828,0.6225586,0.1943359,0.2460938,-0.2543945,-0.04345703
2601,17.375,10.1875,1.625,-1.048828,0.6264648,0.1748047,0.2475586,-0.2529297,-0.04052734
2605,14.9375,13.25,2.3125,-1.071777,0.6420898,0.1787109,0.2460938,-0.2543945,-0.03955078
2609,10.4375,17.875,6.625,-1.075684,0.6342773,0.1748047,0.2475586,-0.2543945,-0.03662109
2613,8.1875,21.25,8.8125,-1.029297,0.6342773,0.1865234,0.2460938,-0.2558594,-0.03515625
2617,13.9375,28.5,3.375,-0.9985352,0.6303711,0.1787109,0.2460938,-0.2568359,-0.03369141
2621,15.4375,33.875,1.5,-1.017578,0.6694336,0.1479492,0.2475586,-0.2607422,-0.03125
2626,13.9375,37,-0.125,-1.048828,0.7236328,0.1289063,0.2475586,-0.2583008,-0.02832031
2630,9.125,37.0625,0,-1.103027,0.7001953,0.07519531,0.25,-0.2617188,-0.02441406
2634,10.5,27.6875,2.125,-1.199707,0.5683594,-0.005371094,0.2485352,-0.2631836,-0.02294922
2638,30.0625,10.9375,1.375,-0.9672852,0.4594727,0.08251953,0.2509766,-0.2641602,-0.02050781
2642,58.3125,27.4375,-17.25,-0.7348633,0.5136719,0.2060547,0.2519531,-0.2641602,-0.01757813
2646,57.125,45.125,-28.875,-0.9365234,0.7314453,0.08251953,0.2558594,-0.2631836,-0.01220703
2650,35.875,47,-30.0625,-1.063965,0.7041016,-0.009277344,0.2583008,-0.2617188,-0.005371094
2654,19.375,48.1875,-19.6875,-1.118652,0.5761719,-0.05517578,0.2602539,-0.2583008,-0.001464844
2658,4.3125,46.3125,-3.9375,-1.199707,0.4946289,-0.1474609,0.2626953,-0.2583008,0.00390625
2662,-0.8125,33.3125,12.375,-1.277344,0.3935547,-0.2553711,0.2651367,-0.2592773,0.0078125
2666,2.8125,20.25,20.8125,-1.106934,0.3623047,-0.1591797,0.2651367,-0.2607422,0.01171875
2670,15.875,30.625,15.8125,-0.796875,0.3818359,0.05175781,0.2666016,-0.2617188,0.01171875
2674,26.4375,41.375,7,-0.9790039,0.4555664,-0.02832031,0.269043,-0.2670898,0.01611328
2678,32.375,31.6875,5.25,-1.075684,0.4633789,-0.1054688,0.2675781,-0.2680664,0.02001953
2682,35.25,22.1875,10.9375,-1.048828,0.5058594,-0.1743164,0.2700195,-0.2695313,0.02392578
2686,30.6875,9.6875,19.375,-1.114746,0.6108398,-0.2631836,0.2709961,-0.2729492,0.02685547
2690,13.5625,-3.3125,27.75,-1.017578,0.6962891,-0.2167969,0.2724609,-0.2783203,0.03076172
2694,0.5,2.625,23.25,-0.6962891,0.6811523,0.05957031,0.2734375,-0.2807617,0.03076172
2698,5.625,19.0625,4.375,-0.6923828,0.5878906,0.1020508,0.2758789,-0.2807617,0.03222656
2702,28.25,22.1875,-14.75,-0.831543,0.5644531,0.07910156,0.2773438,-0.2832031,0.03515625
2706,62.875,11.375,-36.875,-1.118652,0.5214844,0.005859375,0.2792969,-0.2841797,0.0390625
2710,105.75,-6.9375,-38.375,-1.385742,0.3935547,-0.0859375,0.2880859,-0.2817383,0.04443359
2714,125.625,-30.1875,-14.1875,-1.351074,0.5292969,-0.2363281,0.2900391,-0.2729492,0.05273438
2718,111.375,-46.9375,0.125,-0.9169922,0.7314453,-0.0859375,0.2949219,-0.2729492,0.05517578
2722,95,-35.5625,-18.375,-0.5102539,0.7275391,0.1098633,0.3007813,-0.2729492,0.06103516
2726,95.375,-21.875,-51.25,-0.4985352,0.5878906,0.05566406,0.3032227,-0.2670898,0.06494141
2730,98.125,-12.25,-85.8125,-0.5024414,0.5878906,0.140625,0.3139648,-0.2607422,0.06884766
2734,88.8125,-6.625,-85.3125,-0.6147461,0.4013672,0.08251953,0.3198242,-0.2504883,0.07568359
2738,73.1875,-6.5,-60.375,-0.6845703,0.203125,0.009765625,0.328125,-0.2441406,0.08105469
2742,59.375,-11.875,-21.5,-0.5795898,0.06689453,-0.009277344,0.3344727,-0.2407227,0.08544922
2746,58.5625,-8.8125,4.875,-0.5371094,0.0009765625,-0.09375,0.3388672,-0.2382813,0.08789063
2750,64,-15.875,11.6875,-0.5102539,0.105957,-0.1708984,0.3427734,-0.2392578,0.09082031
2755,64.9375,-8.3125,2.3125,-0.3666992,0.2299805,-0.1054688,0.34375,-0.2431641,0.09326172
2759,46.9375,-0.25,-2.75,-0.5175781,0.3271484,-0.2436523,0.3486328,-0.2407227,0.09765625
2763,21.4375,-5.875,5,-0.4750977,0.3466797,-0.2207031,0.3486328,-0.2407227,0.1015625
2767,0.75,-3.875,9.6875,-0.4868164,0.3310547,-0.2016602,0.3510742,-0.2441406,0.1030273
2771,-12.4375,-2.3125,8.9375,-0.5410156,0.3896484,-0.2089844,0.3520508,-0.2470703,0.1000977
2775,-16,-0.75,1.6875,-0.6303711,0.3388672,-0.2631836,0.3520508,-0.2470703,0.1000977
2779,-11.25,-7.4375,-3.3125,-0.6186523,0.2573242,-0.1591797,0.3544922,-0.2504883,0.09765625
2783,1.3125,-3.125,-5.3125,-0.5214844,0.3120117,-0.04736328,0.3544922,-0.2529297,0.09912109
2787,1.75,9.3125,-12.375,-0.6845703,0.4672852,-0.0859375,0.3554688,-0.2495117,0.09765625
2791,-2,8.25,-12,-0.8354492,0.5683594,-0.1669922,0.3579102,-0.2495117,0.09912109
2795,-17.75,11.375,-13.6875,-0.8549805,0.5722656,-0.2592773,0.359375,-0.2480469,0.09912109
2799,-25.875,4.3125,-10.4375,-1.029297,0.5371094,-0.324707,0.3603516,-0.2480469,0.1000977
2803,-28.125,-8.75,-5.0625,-0.831543,0.4321289,-0.1938477,0.3603516,-0.2495117,0.1000977
2807,-23,-2.625,-7.0625,-0.7270508,0.4438477,-0.109375,0.362793,-0.2495117,0.09765625
2811,-23.9375,0.6875,-7.25,-0.7543945,0.3974609,-0.1630859,0.3618164,-0.2504883,0.09765625
2815,-25.75,3.0625,-5.9375,-0.7270508,0.3935547,-0.1552734,0.3652344,-0.2529297,0.09472656
2819,-31.5625,6.875,-4.1875,-0.765625,0.3740234,-0.2363281,0.3662109,-0.2529297,0.09472656
2823,-36.125,3.9375,1.6875,-0.8085938,0.3544922,-0.2822266,0.3676758,-0.2543945,0.09472656
2827,-31.75,0,2.9375,-0.8549805,0.2729492,-0.3862305,0.3662109,-0.2568359,0.09326172
2831,-23.25,-10.4375,6.75,-0.796875,0.253418,-0.3359375,0.3652344,-0.2592773,0.08935547
2835,-13.1875,-10.5,5.5,-0.7192383,0.2885742,-0.2475586,0.3662109,-0.2592773,0.08789063
2839,-10.5625,-10.5625,6.9375,-0.7192383,0.3466797,-0.1860352,0.3652344,-0.2607422,0.08544922
2843,-11.1875,-6.1875,6.8125,-0.6533203,0.4204102,-0.07080078,0.3662109,-0.2617188,0.08105469
2847,-16.3125,0.6875,6.125,-0.6376953,0.4438477,0.02490234,0.3662109,-0.2607422,0.08105469
2851,-19.5625,10.625,5,-0.6147461,0.4594727,0.07128906,0.3642578,-0.2617188,0.08007813
2855,-22.125,18.5,3.1875,-0.6376953,0.4243164,0.05957031,0.3642578,-0.2631836,0.08251953
2859,-7.5625,22.3125,0.1875,-0.6147461,0.2573242,0.07519531,0.359375,-0.2607422,0.08251953
2863,5.875,30.5,2.125,-0.5605469,0.300293,0.06738281,0.3579102,-0.2583008,0.08544922
2867,2.375,38.5625,7.3125,-0.5214844,0.3818359,0.04785156,0.3569336,-0.2592773,0.08935547
2871,-4.4375,46.25,6.9375,-0.6225586,0.3974609,-0.06689453,0.3535156,-0.2583008,0.09326172
2875,-6,44.375,7.1875,-0.730957,0.4165039,-0.2128906,0.3496094,-0.2583008,0.09765625
2879,-16.5,41.25,10.9375,-0.699707,0.4633789,-0.2285156,0.3452148,-0.2558594,0.1015625
2884,-27.875,37.1875,14.625,-0.6689453,0.5019531,-0.2128906,0.340332,-0.2568359,0.105957
2888,-37,37.1875,8.6875,-0.6186523,0.5449219,-0.1591797,0.3378906,-0.2592773,0.105957
2892,-47.125,39.3125,4.4375,-0.6923828,0.5332031,-0.1669922,0.3320313,-0.2583008,0.1083984
2896,-59.5,37.1875,6.9375,-0.8198242,0.4946289,-0.1938477,0.3320313,-0.2558594,0.1098633
2900,-67.6875,30.75,17.5,-0.878418,0.4438477,-0.2246094,0.324707,-0.2583008,0.1083984
2904,-81.625,22.5625,34.3125,-0.8549805,0.4711914,-0.2207031,0.3198242,-0.2607422,0.1030273
2908,-104.125,18.6875,49.5,-0.7851563,0.5019531,-0.2324219,0.3164063,-0.2631836,0.1000977
2912,-124,23.0625,50.25,-0.6650391,0.5449219,-0.2128906,0.3105469,-0.2705078,0.09619141
2916,-137.9375,38.4375,36.8125,-0.6147461,0.5371094,-0.1860352,0.3032227,-0.2807617,0.08935547
2920,-137.4375,52.375,24.1875,-0.7504883,0.4711914,-0.2436523,0.2983398,-0.2792969,0.08544922
2924,-126.5,48.6875,15.125,-0.9130859,0.3779297,-0.2978516,0.2949219,-0.2841797,0.08007813
2928,-105.5625,33.5,13.75,-0.9672852,0.2573242,-0.324707,0.2890625,-0.2866211,0.07421875
2932,-72.8125,16.375,20.875,-0.9868164,0.1293945,-0.3359375,0.2866211,-0.2905273,0.0703125
2936,-38.375,-1.25,36.625,-0.9516602,0.105957,-0.3208008,0.2832031,-0.2919922,0.06640625
2940,-8.5,-13.5,54.3125,-0.9013672,0.2070313,-0.3012695,0.2783203,-0.2944336,0.06347656
2944,8.875,-21.25,63.4375,-0.8276367,0.4052734,-0.2553711,0.2749023,-0.3017578,0.06103516
2948,12.875,-22,60.25,-0.6845703,0.5605469,-0.1977539,0.2675781,-0.3066406,0.05664063
2952,9.0625,-13.6875,50.5,-0.6186523,0.6225586,-0.1938477,0.2626953,-0.3095703,0.05664063
2956,3.875,-8.3125,40.0625,-0.6030273,0.5991211,-0.1821289,0.2568359,-0.3105469,0.05517578
2960,5.3125,-8.5625,35.1875,-0.6845703,0.5722656,-0.1977539,0.253418,-0.3129883,0.05273438
2964,11.6875,-16.25,36.1875,-0.746582,0.5800781,-0.2055664,0.25,-0.3144531,0.04980469
2968,19.25,-23.6875,36.9375,-0.6689453,0.6108398,-0.1245117,0.2460938,-0.3129883,0.04980469
2972,32.9375,-28.5,25.125,-0.6376953,0.6499023,-0.128418,0.2426758,-0.3154297,0.04980469
2976,41.25,-30.375,10.125,-0.5991211,0.7353516,-0.04394531,0.237793,-0.3154297,0.04589844
2980,45.9375,-27.4375,-0.4375,-0.6030273,0.7041016,-0.01318359,0.2392578,-0.3129883,0.04980469
2984,55.625,-32.875,-8.25,-0.6962891,0.7158203,-0.05517578,0.2368164,-0.3095703,0.04882813
2988,62.375,-45.125,-14.375,-0.8007813,0.7470703,-0.1054688,0.234375,-0.3066406,0.04980469
2992,56.25,-50.375,-14.6875,-0.8276367,0.8168945,-0.0859375,0.2368164,-0.3017578,0.04882813
2996,45.3125,-50.625,-13.5,-0.8935547,0.8168945,-0.08203125,0.2368164,-0.2993164,0.04882813
3000,26.3125,-48.4375,-8.875,-0.8745117,0.840332,-0.0859375,0.2353516,-0.296875,0.04736328
3004,5.6875,-45.125,-12.875,-0.7929688,0.824707,-0.04394531,0.234375,-0.296875,0.04443359
3008,-6.3125,-40.9375,-18.6875,-0.878418,0.7548828,-0.05908203,0.2353516,-0.2929688,0.04199219
3013,-8.375,-42.4375,-17.5625,-1.013672,0.6459961,-0.0859375,0.234375,-0.2895508,0.04052734
3017,-6.375,-46.3125,-13.625,-1.025391,0.6459961,-0.06298828,0.2353516,-0.2895508,0.03613281
3021,-6.5625,-47.625,-11.9375,-0.9907227,0.6962891,-0.06298828,0.234375,-0.2905273,0.03222656
3025,-11.625,-44.9375,-14.1875,-0.9208984,0.6884766,-0.04736328,0.234375,-0.2856445,0.02685547
3029,-18.625,-42.5,-17.75,-0.9477539,0.6884766,-0.07470703,0.2353516,-0.2832031,0.02539063
3033,-16.875,-45.625,-24.8125,-0.9829102,0.6069336,-0.07861328,0.2392578,-0.2807617,0.02148438
3037,-13.0625,-47.0625,-28.375,-0.9985352,0.5913086,-0.02050781,0.237793,-0.2792969,0.02001953
3041,-14.4375,-41.375,-23.8125,-0.9672852,0.5991211,0.02099609,0.2402344,-0.2729492,0.01318359
3045,-19.4375,-34.3125,-19.5,-0.9790039,0.5449219,0.04052734,0.2412109,-0.2705078,0.0078125
3049,-11.3125,-37.8125,-17.25,-1.052734,0.5449219,-0.04394531,0.2412109,-0.2695313,0.0078125
3053,0.5625,-42.125,-19.8125,-1.083496,0.5644531,-0.03222656,0.2412109,-0.265625,0.006347656
3057,-2.25,-37.875,-16.6875,-1.052734,0.6577148,0.01367188,0.2436523,-0.265625,0
3061,-9.6875,-30.875,-13,-1.013672,0.6811523,0.05566406,0.2436523,-0.2631836,-0.001464844
3065,-17,-23.4375,-9.8125,-1.044922,0.6962891,0.04052734,0.2436523,-0.2641602,-0.002441406
3069,-17.625,-23.1875,-9.8125,-1.071777,0.7197266,0.01367188,0.2436523,-0.2631836,-0.00390625
3073,-15.1875,-20.5,-12.75,-1.060547,0.7197266,0.05566406,0.2451172,-0.2631836,-0.008300781
3077,-20.375,-12.875,-11.3125,-1.067871,0.7001953,0.07519531,0.2451172,-0.2631836,-0.008300781
3081,-24.125,-6.125,-11.125,-1.063965,0.6069336,0.09033203,0.2460938,-0.2617188,-0.01367188
3085,-20.3125,-3.375,-12.375,-1.056641,0.5449219,0.07910156,0.2451172,-0.2617188,-0.01367188
3089,-16,-0.8125,-14.375,-1.052734,0.5605469,0.06347656,0.2485352,-0.2617188,-0.01464844
3093,-17.25,0.6875,-11.875,-0.9946289,0.5136719,0.1098633,0.2509766,-0.2592773,-0.01367188
3097,-17.5625,6.625,-5.8125,-0.9711914,0.4438477,0.144043,0.25,-0.2592773,-0.01464844
3101,-8,9.3125,-2.6875,-0.9750977,0.3974609,0.1826172,0.2509766,-0.2583008,-0.01611328
3105,0.9375,12.0625,0.3125,-0.9516602,0.4321289,0.2094727,0.2519531,-0.2583008,-0.01611328
3109,5.4375,16.5,3.375,-0.9672852,0.4829102,0.2094727,0.2519531,-0.2607422,-0.01464844
3113,7.5,21.125,6.125,-0.9829102,0.5136719,0.2094727,0.2519531,-0.2592773,-0.01220703
3117,7.5,24.5,9.625,-1.029297,0.5488281,0.144043,0.2519531,-0.2607422,-0.01074219
3121,9.0625,23.125,11.5625,-1.060547,0.5722656,0.1171875,0.253418,-0.2631836,-0.009277344
3125,10.875,24,13.375,-1.044922,0.6186523,0.1171875,0.2509766,-0.2631836,-0.008300781
3129,12.625,27.1875,13.375,-1.063965,0.6733398,0.105957,0.2519531,-0.265625,-0.00390625
3133,16.4375,31.0625,12,-1.017578,0.6342773,0.159668,0.2519531,-0.2670898,-0.002441406
3137,27.4375,42.375,7.875,-1.009766,0.6499023,0.159668,0.2519531,-0.2695313,0
3142,37.4375,45.625,2.75,-1.103027,0.7353516,0.1098633,0.253418,-0.2719727,0.004882813
3146,37.4375,48.25,1.8125,-1.114746,0.8168945,0.07910156,0.253418,-0.2705078,0.01074219
3150,29.5,52.0625,1.9375,-1.106934,0.8168945,0.03662109,0.2543945,-0.2753906,0.01464844
3154,24.75,53.25,2.25,-1.106934,0.7817383,-0.01318359,0.2558594,-0.2744141,0.02294922
3158,22.4375,50.0625,0.5,-1.129883,0.7236328,-0.05517578,0.2568359,-0.2744141,0.02685547
3162,24.75,44.5625,0.4375,-1.063965,0.6342773,-0.06689453,0.2583008,-0.2744141,0.03222656
3166,29.875,41.375,-1,-0.9985352,0.5488281,-0.08984375,0.2626953,-0.2753906,0.03759766
3170,36.375,38.9375,-0.4375,-0.9365234,0.5058594,-0.1166992,0.2626953,-0.2753906,0.04443359
3174,38.625,36.1875,2.4375,-0.9438477,0.5175781,-0.1591797,0.2651367,-0.2744141,0.04736328
3178,33,30.5,6.875,-0.9365234,0.5722656,-0.2016602,0.2666016,-0.2753906,0.05419922
3182,20.375,24.625,11.125,-0.8896484,0.5527344,-0.2285156,0.2675781,-0.2783203,0.06103516
3186,8.25,20.375,16.6875,-0.8935547,0.4868164,-0.2285156,0.269043,-0.2792969,0.06494141
3190,0.375,14,25.625,-0.9013672,0.4204102,-0.2514648,0.269043,-0.2783203,0.06640625
3194,-1.0625,3.9375,33.6875,-0.9052734,0.3818359,-0.2436523,0.2734375,-0.2841797,0.06884766
3198,4.8125,-5.8125,37.25,-0.8237305,0.3120117,-0.1362305,0.2700195,-0.2905273,0.0703125
3202,21.625,-8.5625,36.1875,-0.7348633,0.2456055,-0.05908203,0.2724609,-0.2929688,0.07177734
3206,40.25,-13.6875,39.0625,-0.6572266,0.2573242,-0.02441406,0.2724609,-0.2983398,0.07421875
3210,52.25,-11,37.6875,-0.4907227,0.3896484,0.02099609,0.2734375,-0.3007813,0.07714844
3214,53.875,-5.25,32.0625,-0.4790039,0.4946289,-0.04003906,0.2724609,-0.3066406,0.08251953
3218,47.6875,-5.75,25.3125,-0.4208984,0.5683594,-0.07861328,0.2709961,-0.3095703,0.08544922
3222,43.5,-3.375,16.5625,-0.4594727,0.6030273,-0.1435547,0.2724609,-0.3105469,0.09082031
3226,41.4375,-5.125,6.25,-0.5527344,0.6616211,-0.2783203,0.2734375,-0.3144531,0.09765625
3230,37.75,-10,-1.6875,-0.6767578,0.7119141,-0.3745117,0.2783203,-0.3129883,0.09912109
3234,21.6875,-22.3125,-4.1875,-0.6494141,0.7353516,-0.3632813,0.2807617,-0.3105469,0.1000977
3238,4.0625,-22.375,-11,-0.4829102,0.6420898,-0.2592773,0.2832031,-0.3129883,0.1015625
3242,-14.75,-12.1875,-14.1875,-0.4594727,0.5952148,-0.2055664,0.2866211,-0.3129883,0.1000977
3246,-28,-8.4375,-13.375,-0.6186523,0.5292969,-0.2822266,0.2880859,-0.3154297,0.09912109
3250,-40,-17.6875,-5.5625,-0.7387695,0.5605469,-0.3168945,0.2924805,-0.3178711,0.09472656
3254,-58.5625,-27.25,6.8125,-0.6962891,0.5214844,-0.2783203,0.2963867,-0.3242188,0.09082031
3258,-76.375,-30.75,17.625,-0.5874023,0.4790039,-0.1821289,0.2983398,-0.3291016,0.08691406
3262,-83.5,-24.125,17.375,-0.5024414,0.4399414,-0.1054688,0.2998047,-0.3354492,0.07568359
3266,-71.1875,-18.4375,1.4375,-0.5644531,0.3935547,-0.07470703,0.3022461,-0.3417969,0.06494141
3271,-46.75,-14.4375,-16.75,-0.6923828,0.4790039,-0.1362305,0.3022461,-0.3457031,0.05957031
3275,-32,-17.875,-12.125,-0.8046875,0.4594727,-0.1938477,0.3056641,-0.3491211,0.05273438
3279,-32.5625,-23.1875,-1.9375,-0.8393555,0.4711914,-0.1782227,0.3105469,-0.3491211,0.04736328
3283,-37.125,-29.9375,14.25,-0.7348633,0.4360352,-0.06298828,0.3129883,-0.3530273,0.04443359
3287,-38.125,-28.9375,18.5,-0.5756836,0.4086914,0.08642578,0.3115234,-0.3554688,0.03613281
3291,-28.5625,-18.6875,18.8125,-0.5371094,0.3466797,0.1635742,0.3105469,-0.3603516,0.02978516
3295,-15.0625,-10.5625,20.5625,-0.5834961,0.3974609,0.1367188,0.309082,-0.3618164,0.02539063
3299,1.125,-13.0625,19.875,-0.7231445,0.4360352,0.02880859,0.309082,-0.3681641,0.02294922
3303,18.625,-23.125,23.1875,-0.7075195,0.4829102,0.02099609,0.3081055,-0.3681641,0.02148438
3307,25.4375,-24.3125,26.75,-0.5991211,0.5605469,0.04785156,0.3032227,-0.3691406,0.02148438
3311,22.8125,-18.9375,21.9375,-0.4633789,0.6577148,0.1020508,0.3022461,-0.3730469,0.02148438
3315,17.3125,-5,16.125,-0.5063477,0.6923828,0.05566406,0.3007813,-0.3745117,0.02294922
3319,13.875,-2.0625,13.1875,-0.5952148,0.7001953,0.04443359,0.2998047,-0.3754883,0.02392578
3323,14.75,0.5,10.875,-0.6303711,0.6923828,-0.04394531,0.2973633,-0.3769531,0.02539063
3327,16.75,-1.375,8.375,-0.6069336,0.7314453,-0.03613281,0.2949219,-0.3769531,0.02685547
3331,7.25,2.0625,5.625,-0.5371094,0.7509766,-0.005371094,0.2949219,-0.3803711,0.02978516
3335,-1.3125,11,0.625,-0.5332031,0.7275391,0.02099609,0.2939453,-0.3793945,0.02978516
3339,-2.875,16.75,-2.5,-0.5991211,0.6733398,0.001953125,0.2949219,-0.3793945,0.03076172
3343,-2.0625,16.0625,-5.125,-0.5952148,0.6538086,0.005859375,0.2939453,-0.3793945,0.03222656
3347,-1,18.875,-6.5,-0.5332031,0.6342773,0.03662109,0.2939453,-0.3779297,0.03613281
3351,-0.8125,23.6875,-10.9375,-0.5488281,0.6186523,0.01708984,0.2939453,-0.3754883,0.03515625
3355,0.6875,26,-12.875,-0.5605469,0.5449219,0.01708984,0.2939453,-0.371582,0.03759766
3359,4.3125,27.625,-12.125,-0.5605469,0.4946289,0.01367188,0.2949219,-0.371582,0.04052734
3363,5.5625,30.25,-7.1875,-0.5449219,0.4711914,0.01708984,0.2939453,-0.3691406,0.04443359
3367,6.9375,33.0625,-0.75,-0.5566406,0.4750977,-0.009277344,0.2924805,-0.3666992,0.05126953
3371,4.5625,34.8125,1,-0.4985352,0.5175781,0.02099609,0.2900391,-0.3618164,0.05126953
3375,1.4375,41.375,0.125,-0.4208984,0.4790039,0.05175781,0.2866211,-0.3603516,0.05664063
3379,1.4375,51.875,-1.375,-0.4594727,0.4985352,0.009765625,0.2841797,-0.3603516,0.06103516
3383,3.0625,52.4375,-3.75,-0.5488281,0.4868164,-0.07080078,0.2817383,-0.3554688,0.06787109
3387,5.125,48.6875,-5.625,-0.5756836,0.4633789,-0.1435547,0.2792969,-0.3520508,0.07177734
3391,6.5,48.125,-2.3125,-0.5722656,0.4243164,-0.2089844,0.2773438,-0.3505859,0.07568359
3395,1.4375,50.6875,8.25,-0.6030273,0.4555664,-0.2167969,0.2724609,-0.3457031,0.07861328
3400,-6.875,48.8125,20.1875,-0.6806641,0.5253906,-0.1938477,0.2675781,-0.3457031,0.08251953
3404,-5.125,42.9375,22,-0.7114258,0.5097656,-0.1977539,0.2626953,-0.3442383,0.08251953
3408,2.625,40.125,21.5,-0.730957,0.5488281,-0.2475586,0.2568359,-0.3442383,0.08691406
3412,5.9375,33.625,19.75,-0.7231445,0.5761719,-0.3286133,0.2519531,-0.3408203,0.08789063
3416,2.375,27.5625,16.75,-0.6533203,0.6030273,-0.3286133,0.25,-0.3354492,0.08789063
3420,-8.5625,26.3125,15.25,-0.6845703,0.6342773,-0.2978516,0.2451172,-0.3378906,0.09082031
3424,-14,21.125,21.5625,-0.7929688,0.6499023,-0.2631836,0.2402344,-0.3378906,0.08691406
3428,-11.9375,13.375,20.5625,-0.7929688,0.6884766,-0.2089844,0.2392578,-0.3354492,0.08691406
3432,-7.4375,10.4375,13.75,-0.715332,0.6577148,-0.2089844,0.2368164,-0.3378906,0.08544922
3436,-8.6875,7.4375,8.3125,-0.6494141,0.6264648,-0.2016602,0.2329102,-0.3369141,0.08398438
3440,-11.875,6.875,5.8125,-0.5410156,0.6342773,-0.1166992,0.230957,-0.3354492,0.08251953
3444,-17.5,18.625,-1.75,-0.6416016,0.6845703,-0.1323242,0.2294922,-0.3330078,0.08251953
3448,-26.4375,18.1875,5.6875,-0.7890625,0.6884766,-0.07861328,0.2260742,-0.3330078,0.07861328
3452,-30.25,14.875,6.875,-0.6962891,0.6030273,-0.01318359,0.2246094,-0.3330078,0.07714844
3456,-9.25,17.0625,-4.125,-0.5913086,0.6030273,-0.01318359,0.2211914,-0.3344727,0.07324219
3460,-1,23.4375,-22.75,-0.5913086,0.8364258,-0.04394531,0.2202148,-0.3305664,0.07324219
3464,-19.625,24.125,-30.375,-0.6689453,0.8481445,-0.04736328,0.2202148,-0.3330078,0.07177734
3468,-37.0625,24.125,-17.8125,-0.6533203,0.6655273,-0.02050781,0.21875,-0.3291016,0.0703125
3472,-38.1875,25.25,-1,-0.6767578,0.5605469,-0.02832031,0.2177734,-0.3242188,0.06787109
3476,-22.5,19.6875,2.75,-0.6186523,0.6538086,0.001953125,0.215332,-0.3242188,0.06494141
3480,-11.5625,19.125,-14,-0.6108398,0.824707,-0.04003906,0.2128906,-0.3232422,0.06347656
3484,-15.25,19.375,-21.1875,-0.7231445,0.8364258,-0.1245117,0.2119141,-0.3208008,0.06494141
3488,-19.25,13.8125,-20.5625,-0.796875,0.7353516,-0.1938477,0.2128906,-0.3154297,0.06494141
3492,-8.9375,3.75,-17.625,-0.8046875,0.6459961,-0.2978516,0.2119141,-0.3129883,0.06347656
3496,0.9375,-6.6875,-11.9375,-0.765625,0.7314453,-0.3515625,0.2104492,-0.3105469,0.06347656
3500,4.3125,-10.4375,-22.625,-0.765625,0.921875,-0.4360352,0.2094727,-0.3066406,0.06201172
3504,-5.5,-10.8125,-38.25,-0.9477539,0.9799805,-0.5131836,0.2128906,-0.3017578,0.05957031
3508,-36.0625,-16.5,-29.3125,-0.9829102,0.9375,-0.4902344,0.2128906,-0.296875,0.05810547
3512,-54.3125,-16.9375,-20.0625,-0.9907227,0.7470703,-0.4667969,0.2128906,-0.296875,0.05664063
3516,-46.1875,-28.25,-15.6875,-0.9829102,0.6772461,-0.4555664,0.2138672,-0.2944336,0.05126953
3520,-24.25,-42.625,-24.5,-0.8745117,0.7236328,-0.4091797,0.2138672,-0.2944336,0.04443359
3524,-3.1875,-49.5625,-43.625,-0.8818359,0.7470703,-0.3515625,0.215332,-0.2944336,0.04052734
3529,-3.625,-50.375,-46.5,-0.8974609,0.7817383,-0.2978516,0.2202148,-0.2895508,0.03759766
3533,-22.3125,-50.75,-37.375,-0.9399414,0.7470703,-0.2592773,0.2202148,-0.2866211,0.03369141
3537,-40.8125,-54.8125,-23.5,-0.9169922,0.6616211,-0.2167969,0.222168,-0.2841797,0.03076172
3541,-48.3125,-69.4375,-10.875,-0.9130859,0.6108398,-0.2363281,0.2246094,-0.2832031,0.02392578
3545,-40.125,-73.375,-31.0625,-0.5683594,0.5952148,0.06347656,0.2236328,-0.2832031,0.01318359
3549,-24.375,-56.375,-61.375,-0.6533203,0.5097656,0.1865234,0.2270508,-0.2792969,0.01074219
3553,-21,-45.875,-73.0625,-0.8007813,0.4633789,0.159668,0.2319336,-0.2729492,0.004882813
3557,-34.3125,-43.125,-61.4375,-0.9287109,0.3623047,0.1518555,0.234375,-0.2695313,0.0009765625
3561,-41.9375,-40.25,-36.5625,-0.9868164,0.2807617,0.1289063,0.2392578,-0.2631836,-0.002441406
3565,-34.6875,-38.25,-21,-1.037109,0.315918,0.105957,0.2402344,-0.2617188,-0.008300781
3569,-21.8125,-37.6875,-13.25,-1.056641,0.4052734,0.1328125,0.2402344,-0.2583008,-0.01220703
3573,-13.0625,-30.9375,-8.25,-1.099121,0.5136719,0.1557617,0.2392578,-0.2568359,-0.01464844
3577,-8.375,-26.875,-3.0625,-1.106934,0.5991211,0.1748047,0.2392578,-0.2558594,-0.01757813
3581,4,-19.125,-6.875,-1.063965,0.6499023,0.1787109,0.2392578,-0.2543945,-0.01904297
3585,15.5625,-11.0625,-13.6875,-1.12207,0.7548828,0.125,0.237793,-0.2568359,-0.02050781
3589,14.75,-2.75,-12.5625,-1.129883,0.777832,0.09423828,0.2392578,-0.2558594,-0.02050781
3593,7.125,6,-6,-1.172852,0.777832,0.06738281,0.2412109,-0.2529297,-0.01904297
3597,1.1875,12.5,-0.9375,-1.087402,0.7158203,0.07910156,0.2412109,-0.2558594,-0.01904297
3601,0.375,21.375,1.9375,-1.083496,0.6538086,0.02880859,0.2392578,-0.2558594,-0.01464844
3605,3.5625,21.3125,5.1875,-1.041016,0.6069336,-0.02050781,0.2392578,-0.2543945,-0.01367188
3609,12.125,22,3.375,-0.9750977,0.5878906,-0.03613281,0.2412109,-0.2543945,-0.01220703
3613,15.1875,22.25,-0.9375,-0.9169922,0.6303711,-0.04003906,0.2412109,-0.2583008,-0.01220703
3617,8.625,25.3125,-5.25,-0.878418,0.6147461,-0.04736328,0.2402344,-0.2568359,-0.009277344
3621,-5.875,28.375,-3.625,-0.8974609,0.6147461,-0.07080078,0.2436523,-0.2543945,-0.006835938
3625,-18.25,26.75,-1.875,-0.9672852,0.5761719,-0.0859375,0.2426758,-0.2543945,-0.00390625
3629,-24.3125,21.375,0.4375,-0.9750977,0.4868164,-0.04003906,0.2451172,-0.2558594,-0.00390625
3633,-16.8125,23,0.3125,-0.9477539,0.4086914,0.02490234,0.2451172,-0.2558594,-0.005371094
3637,-5.8125,25,3.25,-1.052734,0.4052734,-0.01660156,0.2451172,-0.2558594,-0.00390625
3641,6.375,19.4375,10.3125,-1.099121,0.4360352,-0.06298828,0.2460938,-0.2568359,-0.002441406
3645,18.4375,14.0625,17.1875,-1.103027,0.5214844,-0.07861328,0.2436523,-0.2617188,-0.002441406
3649,21.875,13.1875,22.1875,-1.033203,0.6811523,-0.04003906,0.2451172,-0.2641602,0
3653,20.25,20.6875,18,-0.9750977,0.7587891,-0.02832031,0.2426758,-0.265625,0.0009765625
3658,22.875,24.9375,11.4375,-1.037109,0.7392578,-0.05908203,0.2426758,-0.2695313,0.002441406
3662,33,19.375,6.25,-1.060547,0.7041016,-0.112793,0.2436523,-0.2705078,0.006347656
3666,48.5625,12.5625,3.3125,-1.052734,0.7041016,-0.1362305,0.2436523,-0.2729492,0.009277344
3670,61.625,6.25,-0.125,-1.021484,0.777832,-0.1401367,0.2460938,-0.2753906,0.01074219
3674,71.125,6.25,-10.1875,-0.9868164,0.824707,-0.1474609,0.2460938,-0.2744141,0.01708984
3678,85.6875,2.6875,-19.8125,-0.9013672,0.7548828,-0.1782227,0.2519531,-0.2744141,0.02294922
3682,103.1875,3.3125,-39.125,-0.8276367,0.8012695,-0.2016602,0.2543945,-0.2719727,0.02685547
3686,95.5625,6.375,-61.0625,-0.8432617,0.9257813,-0.2514648,0.2592773,-0.2695313,0.03613281
3690,63.5,8.5625,-70.6875,-0.9555664,0.9140625,-0.324707,0.2651367,-0.265625,0.04199219
3694,4.75,9.3125,-56.8125,-1.048828,0.875,-0.3051758,0.2700195,-0.2568359,0.04443359
3698,-53.6875,11.1875,-33.75,-1.041016,0.5913086,-0.2167969,0.2758789,-0.2543945,0.04589844
3702,-61.125,4.125,-20.375,-1.145508,0.1757813,-0.1435547,0.2807617,-0.2568359,0.04443359
3706,-14,-13.125,-14.4375,-1.172852,-0.1577148,-0.04003906,0.2817383,-0.2583008,0.04296875
3710,44.0625,-27.9375,-3.75,-1.095215,-0.1230469,0.02490234,0.2880859,-0.2592773,0.04296875
3714,85.5,-39.1875,2.9375,-0.9477539,0.1254883,0.06347656,0.2924805,-0.2583008,0.04443359
3718,82.375,-37.375,6.125,-0.7387695,0.5566406,0.1865234,0.2924805,-0.2592773,0.04589844
3722,48.1875,-21.5,4.25,-0.6767578,0.6962891,0.2329102,0.2973633,-0.2592773,0.04882813
3726,22.0625,-15,1.5625,-0.78125,0.5644531,0.1210938,0.3022461,-0.2631836,0.04980469
3730,14.1875,-18.5625,-2.875,-0.730957,0.4438477,0.1367188,0.3046875,-0.2631836,0.05126953
3734,16.4375,-25.625,-7.125,-0.6767578,0.3896484,0.2211914,0.309082,-0.2631836,0.04882813
3738,32.625,-16,-17.5625,-0.5683594,0.3081055,0.1943359,0.3139648,-0.2631836,0.05273438
3742,43.5,-12.4375,-22.125,-0.6650391,0.2924805,0.125,0.3154297,-0.2583008,0.05126953
3746,44.25,-15.5,-23.1875,-0.6108398,0.3818359,0.08642578,0.3198242,-0.2568359,0.05419922
3750,28.3125,-5.5,-27.4375,-0.5449219,0.4907227,0.07910156,0.3271484,-0.2558594,0.05419922
3754,16.5625,-1.375,-34.75,-0.6650391,0.4399414,-0.02441406,0.328125,-0.2504883,0.05664063
3758,13.875,-1.875,-45.3125,-0.6416016,0.3857422,-0.1323242,0.3330078,-0.2470703,0.05664063
3762,17.4375,-1.875,-55.375,-0.7504883,0.3505859,-0.2207031,0.3388672,-0.2441406,0.05957031
3766,14.4375,-9,-61.4375,-0.6416016,0.3701172,-0.1782227,0.34375,-0.2407227,0.05957031
3770,15,-4.5625,-77.8125,-0.5874023,0.3349609,-0.1669922,0.3496094,-0.2319336,0.05957031
3774,19.5,0.5625,-83.375,-0.7348633,0.2338867,-0.3398438,0.3569336,-0.2231445,0.06103516
3778,5.6875,-14.125,-72.875,-0.8237305,0.2729492,-0.4208984,0.3603516,-0.2192383,0.06494141
3782,-16.1875,-25.625,-61.5625,-0.6845703,0.2456055,-0.3901367,0.3652344,-0.2104492,0.05957031
3787,-22.875,-27.375,-65.25,-0.7695313,0.1445313,-0.3862305,0.3710938,-0.2055664,0.05957031
3791,-10.375,-36.75,-67.25,-0.8237305,0.05908203,-0.3974609,0.3769531,-0.2006836,0.05419922
3795,-15.625,-43.75,-56.125,-0.8549805,0.1333008,-0.3745117,0.3808594,-0.1943359,0.04589844
3799,-25.3125,-55.5,-38,-1.001953,0.09814453,-0.3666992,0.3867188,-0.1879883,0.0390625
3803,-41.9375,-70.4375,-18.375,-0.847168,0.1914063,-0.1743164,0.3876953,-0.1855469,0.02978516
3807,-55.9375,-67.125,-10.25,-0.7231445,0.1640625,0.001953125,0.3935547,-0.1870117,0.01855469
3811,-42.1875,-58.875,-8.75,-0.7695313,-0.02978516,0.144043,0.3935547,-0.1879883,0.0078125
3815,-11.4375,-63.75,-5.1875,-0.8046875,-0.01416016,0.2250977,0.3935547,-0.1855469,0.0009765625
3819,-12.1875,-54.875,6,-0.5952148,0.1293945,0.425293,0.3950195,-0.1855469,-0.01074219
3823,-15.25,-33.625,12.375,-0.6494141,0.09814453,0.390625,0.3959961,-0.1904297,-0.01757813
3827,-11.0625,-23.1875,16.625,-0.6923828,0.09814453,0.3330078,0.3950195,-0.1904297,-0.01611328
3831,-5.5,-12.4375,17.5625,-0.6962891,0.15625,0.2709961,0.3950195,-0.1918945,-0.02441406
3835,1.25,-3.875,18.25,-0.8085938,0.15625,0.140625,0.3925781,-0.1958008,-0.02441406
3839,6.1875,-5.5,24.125,-0.8393555,0.253418,0.08642578,0.3935547,-0.1992188,-0.02441406
3843,-1.625,0.9375,24.6875,-0.7036133,0.3623047,0.1518555,0.3901367,-0.2006836,-0.02587891
3847,-0.75,10.6875,19.375,-0.8125,0.2651367,0.09423828,0.3901367,-0.2045898,-0.02441406
3851,6,10.4375,22.625,-0.9091797,0.1953125,0.01367188,0.3891602,-0.2080078,-0.02050781
3855,9.6875,6.875,28.375,-0.8818359,0.1875,0.01367188,0.3876953,-0.2094727,-0.02294922
3859,15.875,6.875,31.375,-0.8510742,0.2651367,0.04052734,0.3867188,-0.2128906,-0.02050781
3863,19.25,6.3125,32.25,-0.8510742,0.3271484,0.07910156,0.3842773,-0.2182617,-0.02050781
3867,18.625,10.5,31.875,-0.8354492,0.3857422,0.125,0.3808594,-0.2216797,-0.01757813
3871,11.9375,12.5,34.0625,-0.8007813,0.4086914,0.1518555,0.3793945,-0.2246094,-0.01367188
3875,6,18,33.5625,-0.6962891,0.4013672,0.2250977,0.3769531,-0.2270508,-0.01367188
3879,1.0625,29.5625,32.5,-0.6689453,0.4013672,0.2749023,0.3745117,-0.2319336,-0.009277344
3883,-6.0625,40.4375,38,-0.7426758,0.3583984,0.2133789,0.3710938,-0.2358398,-0.005371094
3887,-12.1875,42.375,46.5,-0.7348633,0.3388672,0.1826172,0.3710938,-0.2358398,-0.002441406
3891,-18.25,44.9375,54.1875,-0.6225586,0.3349609,0.2060547,0.3676758,-0.2416992,0.002441406
3895,-18.8125,49.6875,47,-0.5371094,0.3857422,0.2441406,0.3642578,-0.2495117,0.009277344
3899,-20,57.875,42.125,-0.6962891,0.4438477,0.09814453,0.3603516,-0.2519531,0.01318359
3903,-49.0625,55.75,60.6875,-0.8857422,0.5488281,-0.06298828,0.3569336,-0.2558594,0.01708984
3907,-120.625,54.8125,104.375,-0.9052734,0.6499023,-0.05126953,0.3486328,-0.2641602,0.02148438
3911,-187.875,64.3125,159.5625,-0.8510742,0.4360352,-0.07080078,0.3427734,-0.2744141,0.02148438
3916,-207.8125,74.0625,186.9375,-0.6494141,0.3310547,0.04785156,0.3271484,-0.296875,0.01464844
3920,-180,84.0625,171.25,-0.4521484,0.1835938,0.1865234,0.3129883,-0.3144531,0.0078125
3924,-122.9375,82.875,148.9375,-0.7036133,0.1367188,0.07128906,0.3032227,-0.3266602,0.00390625
3928,-80.75,63.5,147.0625,-0.7348633,0.1293945,0.02880859,0.2866211,-0.3378906,0.00390625
3932,-40.1875,45.5,149.8125,-0.730957,0.2612305,-0.005371094,0.2700195,-0.3520508,0.004882813
3936,-9.875,30,137.6875,-0.5952148,0.4711914,-0.03222656,0.2617188,-0.3569336,0.006347656
3940,15.9375,23.5625,111.625,-0.6108398,0.809082,-0.1435547,0.2460938,-0.3666992,0.006347656
3944,17.875,20.3125,84.875,-0.5102539,0.972168,-0.0859375,0.234375,-0.371582,0.01171875
3948,6.625,27.3125,66.5,-0.4985352,0.9916992,-0.07080078,0.2285156,-0.371582,0.01708984
3952,-5.5625,28.5,56.9375,-0.5410156,0.953125,-0.07080078,0.21875,-0.3745117,0.01708984
3956,-9.625,30.875,52.625,-0.5722656,0.8867188,-0.08203125,0.2104492,-0.3745117,0.01708984
3960,-3.5625,26.625,47.375,-0.6845703,0.9101563,-0.2324219,0.2070313,-0.3754883,0.01855469
3964,1.75,14.9375,38.0625,-0.7075195,1.003418,-0.2822266,0.199707,-0.3754883,0.02001953
3968,7.25,8,20.625,-0.6147461,1.034668,-0.3012695,0.1962891,-0.3754883,0.02148438
3972,9.4375,5.8125,2.625,-0.5683594,1.045898,-0.2592773,0.1928711,-0.3754883,0.02001953
3976,4.25,7.3125,-11.25,-0.5991211,0.9995117,-0.2514648,0.1914063,-0.371582,0.02294922
3980,-4.6875,10.5,-12.1875,-0.6611328,0.890625,-0.2055664,0.1928711,-0.3706055,0.02294922
3984,-13.875,8.8125,-5.25,-0.6845703,0.7895508,-0.1591797,0.1904297,-0.3691406,0.02148438
3988,-15.8125,4.125,-1.9375,-0.6962891,0.7236328,-0.1435547,0.1914063,-0.3666992,0.02148438
3992,-12.5,-5.375,-1.0625,-0.6923828,0.6538086,-0.1015625,0.1914063,-0.3691406,0.02001953
3996,-0.75,-11.375,-3,-0.6728516,0.6030273,-0.02050781,0.1914063,-0.3666992,0.01855469
4000,13.375,-11.8125,-7.875,-0.6533203,0.5952148,0.02490234,0.1889648,-0.3657227,0.01464844
4004,17.1875,-12.1875,-6.1875,-0.6806641,0.6264648,0.02490234,0.1879883,-0.3632813,0.01855469
4008,12.0625,-10.5,0.625,-0.6303711,0.6108398,0.04052734,0.1914063,-0.3603516,0.01855469
4012,10.75,-8.25,3.5,-0.6494141,0.6069336,0.02490234,0.1865234,-0.3579102,0.01708984
4016,14.25,-8.875,1.4375,-0.699707,0.5839844,0.01367188,0.1865234,-0.3579102,0.01708984
4020,15,-10.125,4.3125,-0.7387695,0.5566406,-0.03222656,0.1865234,-0.3579102,0.01855469
4024,11.1875,-9.875,10.75,-0.715332,0.5097656,-0.08984375,0.1855469,-0.3544922,0.01708984
4028,9.125,-7.875,18.3125,-0.6728516,0.4868164,-0.0859375,0.1831055,-0.3544922,0.01855469
4032,6.4375,-10.3125,28.25,-0.7231445,0.5175781,-0.1435547,0.1796875,-0.3530273,0.01855469
4036,5.5,-20,34.5625,-0.7695313,0.5605469,-0.1435547,0.1748047,-0.3544922,0.01611328
4040,8.375,-28.25,38.1875,-0.746582,0.6108398,-0.1206055,0.1738281,-0.3544922,0.01611328
4045,14.4375,-35.3125,40,-0.7114258,0.6420898,-0.1245117,0.1650391,-0.3569336,0.01318359
4049,25.5,-45.375,39.3125,-0.6342773,0.6962891,-0.0859375,0.1630859,-0.3554688,0.01318359
4053,43.3125,-54.875,30.0625,-0.5527344,0.824707,-0.07470703,0.1582031,-0.3530273,0.01171875
4057,52.5625,-58.6875,20.375,-0.5410156,0.953125,-0.07861328,0.1567383,-0.3554688,0.01171875
4061,39.75,-54.25,20.0625,-0.5214844,1.081055,-0.06298828,0.1523438,-0.3544922,0.01318359
4065,15.8125,-48.0625,22.5,-0.5024414,1.135742,-0.05517578,0.1499023,-0.3530273,0.01318359
4069,-1.8125,-42.9375,22,-0.4482422,1.088867,-0.009277344,0.1484375,-0.3505859,0.01171875
4073,-3.25,-41.625,8.75,-0.4750977,1.088867,-0.02832031,0.1459961,-0.3505859,0.006347656
4077,-6.625,-47.1875,13.0625,-0.7075195,1.100586,-0.1362305,0.1450195,-0.3481445,0.004882813
4081,-1.3125,-43.1875,-9,-0.4052734,0.9414063,0.1289063,0.1459961,-0.3481445,0.004882813
4085,1.375,-26,-17.875,-0.5488281,1.069336,0.09423828,0.1459961,-0.3442383,0.004882813
4089,-11,-25.1875,-18.25,-0.5410156,1.04248,0.04052734,0.1474609,-0.3432617,0.0009765625
4093,-11.9375,-18.5625,-32.5625,-0.5795898,1.01123,0.04052734,0.1474609,-0.3417969,0.0009765625
4097,-18.0625,-9.5625,-36.3125,-0.6572266,0.9140625,0.05566406,0.1499023,-0.3369141,-0.001464844
4101,-25.1875,2.5,-33.375,-0.7231445,0.777832,0.06347656,0.1547852,-0.3354492,-0.001464844
4105,-26.125,11.0625,-32.875,-0.8007813,0.7236328,-0.01660156,0.1557617,-0.3354492,-0.001464844
4109,-27,9.3125,-32.25,-0.8125,0.7509766,-0.05517578,0.1582031,-0.3330078,-0.00390625
4113,-22.4375,10.875,-39.875,-0.8588867,0.7856445,-0.08984375,0.1582031,-0.328125,-0.005371094
4117,-21.3125,10.375,-40,-0.9633789,0.7973633,-0.0859375,0.1616211,-0.328125,-0.006835938
4121,-32.125,12.375,-24.4375,-0.9477539,0.7314453,-0.009277344,0.1650391,-0.3256836,-0.008300781
4125,-29.25,12.9375,-12.3125,-0.9052734,0.7080078,0.02099609,0.1650391,-0.3242188,-0.009277344
4129,-12,8.875,-10,-0.9287109,0.7314453,0.001953125,0.1665039,-0.3217773,-0.01074219
4133,14,-2.3125,-9.125,-0.878418,0.7973633,0.01367188,0.1674805,-0.3208008,-0.009277344
4137,31.0625,-3.4375,-9.9375,-0.7851563,0.9414063,0.07128906,0.1674805,-0.3208008,-0.01074219
4141,28.75,2.75,-8.9375,-0.7036133,1.084961,0.08642578,0.1699219,-0.3193359,-0.008300781
4145,20.8125,15.9375,-10.8125,-0.6533203,1.073242,0.1020508,0.1699219,-0.3168945,-0.005371094
4149,10.1875,26.875,-10.8125,-0.7270508,1.081055,0.02099609,0.1723633,-0.3178711,-0.002441406
4153,3.3125,30.4375,-7.75,-0.7695313,0.9995117,-0.02441406,0.1699219,-0.3168945,-0.001464844
4157,5.375,27.1875,-6.3125,-0.8007813,0.9643555,-0.03222656,0.1699219,-0.3144531,0.0009765625
4161,11.3125,26.625,-6,-0.7617188,0.90625,-0.009277344,0.1699219,-0.3154297,0.0009765625
4165,19.625,25.125,-8.5625,-0.7695313,0.855957,-0.02832031,0.1713867,-0.3178711,0.00390625
4169,32.25,25.125,-12.0625,-0.7734375,0.8286133,-0.05126953,0.1713867,-0.3154297,0.004882813
4174,41.1875,22.375,-12.1875,-0.8085938,0.8867188,-0.1054688,0.1738281,-0.3154297,0.01171875
4178,43.1875,21.6875,-11,-0.7773438,0.9604492,-0.1015625,0.1723633,-0.3168945,0.01318359
4182,39,24.25,-11.875,-0.7734375,1.01123,-0.112793,0.1748047,-0.3154297,0.01611328
4186,26.6875,34.4375,-8.6875,-0.7270508,1.022949,-0.09765625,0.1748047,-0.3168945,0.02148438
4190,11.3125,46.5,-2.875,-0.7734375,0.9604492,-0.1245117,0.1772461,-0.3168945,0.02392578
4194,10.8125,54.1875,-3.875,-0.7348633,0.8598633,-0.1245117,0.1757813,-0.3168945,0.02539063
4198,22.375,59.25,-7.875,-0.8818359,0.8129883,-0.2016602,0.1796875,-0.3193359,0.03222656
4202,27.9375,49.125,-2.3125,-1.001953,0.7548828,-0.2900391,0.1796875,-0.3168945,0.03759766
4206,32.5,39.1875,9,-1.005859,0.6962891,-0.34375,0.1772461,-0.3178711,0.04296875
4210,43.5625,27.375,11.125,-0.9326172,0.7353516,-0.2978516,0.1782227,-0.3208008,0.04736328
4214,48.75,24.1875,7.125,-0.8510742,0.8710938,-0.2363281,0.1806641,-0.3208008,0.04980469
4218,40.625,26.875,3.8125,-0.8046875,0.90625,-0.1899414,0.1772461,-0.3193359,0.05517578
4222,32.875,26.4375,4.6875,-0.831543,0.8671875,-0.2246094,0.1806641,-0.3232422,0.06103516
4226,34.875,21.625,3.9375,-0.8354492,0.8325195,-0.2631836,0.1782227,-0.3256836,0.06201172
4230,42.375,12.125,6.375,-0.862793,0.824707,-0.3168945,0.1806641,-0.3256836,0.06787109
4234,58.25,0.375,-0.3125,-0.796875,0.8598633,-0.2978516,0.1806641,-0.3266602,0.07421875
4238,73,-8.0625,-10.9375,-0.7270508,0.956543,-0.2978516,0.1821289,-0.3305664,0.07714844
4242,75.9375,-10,-24.8125,-0.6962891,1.081055,-0.3286133,0.1855469,-0.3291016,0.08544922
4246,58.4375,-11.3125,-25.5,-0.7231445,1.135742,-0.3554688,0.1904297,-0.3256836,0.09082031
4250,28.1875,-14,-11.625,-0.8007813,1.088867,-0.3666992,0.1928711,-0.3242188,0.09472656
4254,-1.625,-16.75,6.8125,-0.765625,0.9604492,-0.2822266,0.1962891,-0.328125,0.09912109
4258,-15.75,-26.375,14.6875,-0.699707,0.8051758,-0.2324219,0.1972656,-0.3305664,0.09912109
4262,-2.25,-29.3125,1.625,-0.4248047,0.5952148,-0.04736328,0.2011719,-0.3320313,0.09765625
4266,22.25,-12.5,-20.75,-0.4907227,0.5913086,-0.1015625,0.2045898,-0.3320313,0.09912109
4270,17.0625,-15.5,-16.5625,-0.6416016,0.6694336,-0.08203125,0.2094727,-0.3344727,0.1030273
4274,-11.25,-13.8125,4.75,-0.6147461,0.6655273,-0.1166992,0.2119141,-0.3320313,0.1044922
4278,-47.6875,-11.25,31.0625,-0.6845703,0.6499023,-0.1591797,0.2138672,-0.3369141,0.105957
4282,-60.9375,-14.0625,34.125,-0.5410156,0.4985352,-0.06298828,0.2128906,-0.3432617,0.1015625
4286,-35.25,-11.6875,4.6875,-0.4365234,0.4086914,0.009765625,0.2119141,-0.3505859,0.09912109
4290,-1.3125,-8.375,-22.75,-0.4750977,0.4052734,-0.04736328,0.2163086,-0.3520508,0.09912109
4294,16.1875,-9.625,-30.0625,-0.7231445,0.4750977,-0.2744141,0.2202148,-0.3530273,0.1030273
4298,11.9375,-37.125,-23.9375,-0.5756836,0.3779297,-0.1743164,0.2236328,-0.3569336,0.1044922
4303,9.1875,-27.3125,-11.0625,-0.3510742,0.4013672,-0.09765625,0.2285156,-0.3579102,0.105957
4307,-8.0625,-17.6875,-5.8125,-0.4404297,0.4321289,-0.08984375,0.2319336,-0.3579102,0.105957
4311,-12.125,-15.5625,-7,-0.4443359,0.4052734,-0.05908203,0.2329102,-0.3618164,0.105957
4315,-1.875,-11.5625,-14,-0.5410156,0.3818359,-0.2128906,0.2392578,-0.3642578,0.105957
4319,7,-20.75,-14.625,-0.6186523,0.3974609,-0.2592773,0.2412109,-0.3666992,0.105957
4323,10.8125,-26,-8,-0.6108398,0.3583984,-0.2592773,0.2436523,-0.3642578,0.105957
4327,13,-28.4375,-1.5,-0.4750977,0.3701172,-0.1435547,0.2475586,-0.3681641,0.105957
4331,15.1875,-19.3125,0.0625,-0.4326172,0.4477539,-0.06298828,0.2475586,-0.3691406,0.105957
4335,13.8125,-7.9375,-4.375,-0.5371094,0.5371094,-0.1708984,0.2509766,-0.3691406,0.1069336
4339,16.125,-10.5,-3.75,-0.7387695,0.6303711,-0.3012695,0.2519531,-0.371582,0.1098633
4343,15.5,-19.1875,-1.375,-0.7348633,0.6459961,-0.3632813,0.2519531,-0.3730469,0.1098633
4347,18.4375,-27.375,-0.75,-0.6533203,0.6811523,-0.3012695,0.2543945,-0.3754883,0.1123047
4351,9.6875,-26,-0.5625,-0.4672852,0.7236328,-0.1323242,0.2568359,-0.3754883,0.1113281
4355,-2.4375,-10.125,-8.4375,-0.4287109,0.777832,-0.03613281,0.2583008,-0.3754883,0.1098633
4359,-17.375,3,-13.1875,-0.5991211,0.7856445,-0.1474609,0.2583008,-0.3803711,0.1113281
4363,-29,2.0625,-11.5,-0.7231445,0.7041016,-0.2055664,0.2617188,-0.3793945,0.1083984
4367,-27.875,-6,-4.125,-0.6962891,0.5097656,-0.1669922,0.2626953,-0.3833008,0.1069336
4371,-12.8125,-6.8125,-5.0625,-0.5488281,0.4321289,-0.04003906,0.2626953,-0.3867188,0.1044922
4375,-0.25,-2.375,-7.4375,-0.5566406,0.5136719,-0.01660156,0.2626953,-0.3867188,0.1044922
4379,-2.125,3.1875,-5.9375,-0.5605469,0.5800781,-0.01660156,0.2651367,-0.3881836,0.1044922
4383,-3.875,9.125,-5.0625,-0.7075195,0.5952148,-0.1591797,0.2651367,-0.3881836,0.1044922
4387,-5.125,3.625,4.1875,-0.78125,0.5800781,-0.2397461,0.2651367,-0.3881836,0.1044922
4391,-7.125,-3,11.9375,-0.6767578,0.5449219,-0.2089844,0.2617188,-0.3891602,0.105957
4395,0.375,-5.5,13.625,-0.6494141,0.5019531,-0.1782227,0.2617188,-0.3916016,0.1044922
4399,10.875,-5.625,13.8125,-0.5874023,0.5527344,-0.08984375,0.2592773,-0.390625,0.1044922
4403,15.75,-3.4375,14.6875,-0.6147461,0.5991211,-0.07470703,0.2583008,-0.3891602,0.1069336
4407,18.4375,-2.625,16,-0.5874023,0.6420898,-0.1054688,0.2568359,-0.3891602,0.1069336
4411,20.625,-1.3125,15.25,-0.5410156,0.6733398,-0.07080078,0.253418,-0.3881836,0.1069336
4415,18.9375,4.8125,11.75,-0.4907227,0.7119141,-0.07080078,0.2509766,-0.3881836,0.1113281
4419,14.6875,10.8125,7.875,-0.5214844,0.7197266,-0.08203125,0.2485352,-0.3881836,0.1113281
4423,12.75,13.5625,5.8125,-0.5292969,0.6303711,-0.09375,0.2475586,-0.3857422,0.1152344
4427,17.8125,15.5,4.25,-0.5063477,0.6108398,-0.1245117,0.2460938,-0.3803711,0.1152344
4432,20.8125,20.1875,1.5,-0.5141602,0.6342773,-0.1821289,0.2426758,-0.3793945,0.1181641
4436,17.3125,20.25,1.0625,-0.5683594,0.6733398,-0.2705078,0.2402344,-0.3793945,0.1206055
4440,11.875,17.875,-2.0625,-0.4985352,0.6811523,-0.2744141,0.2402344,-0.3754883,0.1235352
4444,3.9375,22.9375,-4.875,-0.4985352,0.6845703,-0.2939453,0.237793,-0.3730469,0.1235352
4448,-7.625,24.9375,-5.4375,-0.5292969,0.6459961,-0.2475586,0.2368164,-0.3706055,0.125
4452,-10.75,25,-3.5625,-0.4985352,0.5566406,-0.1977539,0.2353516,-0.3691406,0.125
4456,-4.8125,25.8125,-6.875,-0.5024414,0.5136719,-0.2246094,0.234375,-0.3657227,0.1235352
4460,1.375,25.9375,-11.6875,-0.5756836,0.5761719,-0.2978516,0.2353516,-0.3632813,0.1235352
4464,-0.0625,21.3125,-9.4375,-0.6884766,0.5800781,-0.3012695,0.2319336,-0.3579102,0.1220703
4468,-2.875,18.6875,-1.4375,-0.6416016,0.5292969,-0.2553711,0.230957,-0.3544922,0.1220703
4472,-1.3125,15.875,2.9375,-0.6108398,0.4868164,-0.2128906,0.230957,-0.3520508,0.1259766
4476,1.5625,16.125,1.5625,-0.5605469,0.5253906,-0.1435547,0.2270508,-0.3520508,0.1206055
4480,-2.375,29,2.4375,-0.6303711,0.5449219,-0.1323242,0.2270508,-0.3481445,0.1206055
4484,-11.3125,32.25,11.1875,-0.8549805,0.4321289,-0.2705078,0.2246094,-0.3466797,0.1206055
4488,-4.875,16.1875,25.0625,-0.8745117,0.2612305,-0.3051758,0.2202148,-0.3466797,0.1206055
4492,20.6875,1.75,35.25,-0.7929688,0.21875,-0.2822266,0.2177734,-0.3505859,0.1220703
4496,47.25,-10.9375,44.75,-0.7270508,0.3623047,-0.2363281,0.2128906,-0.3466797,0.1181641
4500,59.125,-14.625,51.1875,-0.5834961,0.5488281,-0.1513672,0.2080078,-0.3481445,0.1206055
4504,59.9375,-7.5625,52.75,-0.4829102,0.6962891,-0.1245117,0.2045898,-0.3466797,0.1206055
4508,56.0625,-1.6875,50.5,-0.4555664,0.8012695,-0.1513672,0.1987305,-0.3457031,0.1220703
4512,52.8125,-0.625,45.9375,-0.4130859,0.855957,-0.1899414,0.1914063,-0.3432617,0.1259766
4516,49.5,2.125,37.9375,-0.3935547,0.9296875,-0.2670898,0.1904297,-0.3417969,0.1274414
4520,40.6875,5.875,26.0625,-0.4169922,1.038574,-0.3515625,0.1831055,-0.3408203,0.1274414
4524,22.6875,8.1875,13.625,-0.4521484,1.108398,-0.3901367,0.1806641,-0.3393555,0.1313477
4528,3.1875,9.75,3.1875,-0.4482422,1.088867,-0.4130859,0.1821289,-0.3344727,0.1313477
4532,-13,12,-7.625,-0.4326172,1.038574,-0.3974609,0.1796875,-0.3344727,0.1289063
4536,-27.625,15.5,-16.9375,-0.4248047,0.9799805,-0.4130859,0.1782227,-0.3354492,0.125
4540,-40.25,22.5625,-21.9375,-0.4633789,0.9335938,-0.3974609,0.1782227,-0.3330078,0.1235352
4544,-52.5,26.75,-24.3125,-0.6264648,0.890625,-0.4667969,0.1782227,-0.3330078,0.1206055
4548,-57.4375,18.25,-21.125,-0.7270508,0.809082,-0.5209961,0.1782227,-0.3305664,0.1152344
4552,-54.75,2.4375,-17.3125,-0.730957,0.7548828,-0.5244141,0.1772461,-0.3344727,0.1113281
4556,-41,-6.125,-26.8125,-0.6650391,0.7739258,-0.4360352,0.1796875,-0.3330078,0.105957
4561,-44.625,-1.625,-28.4375,-0.6186523,0.7705078,-0.3632813,0.1796875,-0.3320313,0.1015625
4565,-64.8125,6.3125,-15.625,-0.6303711,0.6733398,-0.3359375,0.1796875,-0.3344727,0.09472656
4569,-84.9375,19,12.375,-0.6069336,0.5332031,-0.3554688,0.1782227,-0.3354492,0.08935547
4573,-87.1875,15.6875,33,-0.7617188,0.4438477,-0.559082,0.1757813,-0.3393555,0.08398438
4577,-68.4375,-5.5625,37.25,-0.7695313,0.4052734,-0.6015625,0.1738281,-0.3393555,0.07714844
4581,-44.625,-18.8125,29.625,-0.8046875,0.4052734,-0.5131836,0.1689453,-0.3432617,0.06884766
4585,-34.5,-36.8125,35,-0.78125,0.4516602,-0.394043,0.1665039,-0.3466797,0.06347656
4589,-30.25,-53.625,31.5625,-0.6416016,0.5058594,-0.2631836,0.1630859,-0.3442383,0.05810547
4593,-21.125,-62.125,27.0625,-0.5644531,0.5371094,-0.07470703,0.1606445,-0.3466797,0.04882813
4597,-20.25,-59.875,30.1875,-0.5214844,0.6962891,0.05957031,0.1547852,-0.3491211,0.04199219
4601,-34.125,-59,34.125,-0.5175781,0.8632813,0.1098633,0.1533203,-0.3481445,0.03613281
4605,-42.0625,-59.5625,22.9375,-0.4750977,0.9179688,0.1518555,0.1499023,-0.3491211,0.02978516
4609,-36.5,-65.5,7.1875,-0.4946289,0.9179688,0.1635742,0.1459961,-0.3491211,0.02001953
4613,-27.4375,-67.5625,-7.9375,-0.5292969,0.9335938,0.2060547,0.1425781,-0.3491211,0.01464844
4617,-24.75,-62.25,-10.8125,-0.5449219,1.003418,0.2749023,0.1425781,-0.3466797,0.01074219
4621,-28.875,-52.5,-11.125,-0.6069336,1.015137,0.2866211,0.1416016,-0.3417969,0.00390625
4625,-31,-43,-11.625,-0.6455078,1.030762,0.1674805,0.1401367,-0.3442383,0.002441406
4629,-23.3125,-44.0625,-21.0625,-0.746582,1.061523,0.05175781,0.1401367,-0.3378906,-0.002441406
4633,-18.4375,-41.9375,-29.875,-0.9672852,1.20166,-0.04003906,0.1425781,-0.3354492,-0.00390625
4637,-33.0625,-48.5,-24.5625,-0.765625,1.09668,0.105957,0.144043,-0.3330078,-0.009277344
4641,-19.25,-36.375,-34.3125,-0.7578125,1.049805,0.03662109,0.1450195,-0.3291016,-0.009277344
4645,-22.0625,-35.6875,-33.375,-0.8666992,1.061523,-0.06689453,0.1459961,-0.328125,-0.01367188
4649,-16.4375,-36.75,-35.1875,-0.862793,1.01123,-0.05908203,0.1523438,-0.3232422,-0.01367188
4653,-19.6875,-27,-30.125,-0.8393555,0.987793,0.009765625,0.1533203,-0.3208008,-0.01611328
4657,-22.25,-18.9375,-25.1875,-0.8745117,0.8867188,0.01708984,0.1557617,-0.3193359,-0.01757813
4661,-12.0625,-14.9375,-24.0625,-0.8706055,0.8051758,-0.01660156,0.1567383,-0.3168945,-0.02050781
4665,0.375,-17.875,-24.125,-0.8896484,0.8325195,-0.06689453,0.1616211,-0.3129883,-0.02050781
4669,6.4375,-16.125,-22,-0.9208984,0.840332,-0.07470703,0.1630859,-0.3129883,-0.02050781
4673,-10.4375,-2.5,-2.125,-0.8818359,0.8129883,-0.001464844,0.1630859,-0.3129883,-0.02050781
4677,-18.5,8.1875,16.6875,-0.9907227,0.6538086,-0.109375,0.1630859,-0.3144531,-0.02148438
4681,-12.125,4.375,32.1875,-0.9555664,0.6459961,-0.1860352,0.1616211,-0.3129883,-0.02294922
4685,0.3125,0.875,35.3125,-0.9399414,0.7314453,-0.2475586,0.1567383,-0.3168945,-0.02148438
4690,4,-6.375,37.5625,-0.8935547,0.840332,-0.1630859,0.1523438,-0.3178711,-0.02587891
4694,4.375,-6.375,38.4375,-0.7890625,0.9023438,-0.01318359,0.1499023,-0.3217773,-0.02587891
4698,11.3125,-0.5,31.875,-0.7114258,0.9956055,0.1132813,0.1474609,-0.3232422,-0.02734375
4702,14.6875,7.5625,25.875,-0.7036133,1.049805,0.2060547,0.1416016,-0.3256836,-0.02734375
4706,18,14.1875,19.375,-0.7036133,1.100586,0.2402344,0.1391602,-0.328125,-0.02832031
4710,24.4375,19.3125,8.6875,-0.6884766,1.120117,0.2402344,0.1401367,-0.3291016,-0.02441406
4714,29.3125,24.0625,-1.5625,-0.7192383,1.154785,0.2133789,0.1391602,-0.3305664,-0.02441406
4718,33.75,26.8125,-13.125,-0.7231445,1.150879,0.2133789,0.1391602,-0.3330078,-0.02050781
4722,40.375,30.5,-21.1875,-0.7734375,1.108398,0.1943359,0.1425781,-0.3320313,-0.02050781
4726,44.0625,30.9375,-23.6875,-0.8198242,1.09668,0.1132813,0.1459961,-0.3330078,-0.01464844
4730,45.25,32.0625,-24.4375,-0.7578125,1.092773,0.1171875,0.1484375,-0.3369141,-0.009277344
4734,38.5625,41,-29.9375,-0.7270508,1.135742,0.05566406,0.1523438,-0.3354492,-0.005371094
4738,30.75,41.6875,-41.375,-0.765625,1.06543,-0.005371094,0.1567383,-0.3378906,-0.001464844
4742,33.8125,35.8125,-52.6875,-0.7851563,0.9453125,-0.05126953,0.1630859,-0.3393555,0.00390625
4746,38.5625,28,-58.5625,-0.8432617,0.8442383,-0.112793,0.1650391,-0.3393555,0.004882813
4750,38.6875,13.6875,-47.75,-0.9326172,0.6962891,-0.2246094,0.1738281,-0.3378906,0.01318359
4754,37.8125,-6.3125,-27.875,-0.862793,0.6459961,-0.2670898,0.1806641,-0.3378906,0.01708984
4758,34.5,-20.9375,-18.6875,-0.6962891,0.6733398,-0.2246094,0.184082,-0.3417969,0.01708984
4762,27.375,-14.5625,-38,-0.4248047,0.777832,-0.05126953,0.1889648,-0.3432617,0.02148438
4766,21.75,11,-68.4375,-0.5102539,0.7548828,-0.109375,0.1948242,-0.3408203,0.02539063
4770,5.375,17.3125,-70.25,-0.8276367,0.7119141,-0.2436523,0.2021484,-0.3378906,0.02832031
4774,-21.0625,6.625,-53.1875,-0.878418,0.7119141,-0.2055664,0.2119141,-0.3330078,0.02832031
4778,-38.8125,0.375,-38.6875,-0.8276367,0.5952148,-0.1591797,0.2177734,-0.3369141,0.02978516
4782,-37.5,-5.3125,-29.3125,-0.8164063,0.4985352,-0.09765625,0.2236328,-0.3320313,0.03076172
4786,-20.125,-9.75,-27.1875,-0.6884766,0.4282227,0.02880859,0.2294922,-0.3344727,0.02685547
4790,7,1.625,-33.9375,-0.6108398,0.4829102,0.1210938,0.2319336,-0.3344727,0.02685547
4794,23.6875,12,-39.625,-0.6845703,0.6264648,0.02490234,0.237793,-0.3305664,0.02685547
4798,23.125,11.625,-33.8125,-0.7773438,0.7705078,-0.0859375,0.2412109,-0.3291016,0.03515625
4802,12.3125,5.875,-27.625,-0.8007813,0.8168945,-0.1166992,0.2485352,-0.328125,0.0390625
4806,-1.4375,6.75,-14.0625,-0.8237305,0.7548828,-0.1206055,0.25,-0.328125,0.04052734
4810,-8.6875,4.1875,-3.9375,-0.730957,0.6538086,-0.03222656,0.253418,-0.3266602,0.04296875
4814,-0.5625,7.625,-9.25,-0.6108398,0.5371094,0.009765625,0.2558594,-0.328125,0.04199219
4819,16.625,8.875,-17.875,-0.6069336,0.5527344,-0.01660156,0.2568359,-0.3320313,0.04589844
4823,26.125,3.25,-22.4375,-0.6962891,0.5722656,-0.0859375,0.2617188,-0.3291016,0.04980469
4827,19.9375,-2.875,-14.1875,-0.7348633,0.5527344,-0.1362305,0.2651367,-0.3291016,0.05419922
4831,0.875,-12.6875,4.5,-0.6611328,0.4790039,-0.02832031,0.2666016,-0.328125,0.05517578
4835,-5.375,-9.75,10,-0.5253906,0.4321289,-0.05908203,0.2675781,-0.3330078,0.05517578
4839,-0.75,-4.125,5.1875,-0.4672852,0.4555664,0.04785156,0.2700195,-0.3354492,0.05517578
4843,6.1875,-0.25,-7.1875,-0.5253906,0.4321289,0.001953125,0.2709961,-0.3330078,0.05664063
4847,15.25,-2.5625,-13.5625,-0.5410156,0.3935547,0.001953125,0.2734375,-0.3330078,0.05810547
4851,20.4375,3.625,-10.875,-0.6342773,0.3740234,-0.109375,0.2749023,-0.3344727,0.05957031
4855,21.1875,-3.375,1.25,-0.7695313,0.3662109,-0.2436523,0.2758789,-0.3344727,0.06494141
4859,17.875,-9.9375,10.9375,-0.6030273,0.4438477,-0.112793,0.2773438,-0.3330078,0.06640625
4863,17.75,-0.0625,3.6875,-0.4521484,0.4594727,0.01708984,0.2773438,-0.3369141,0.06640625
4867,31.25,11.25,-12.125,-0.6494141,0.3818359,-0.1054688,0.2792969,-0.3378906,0.06884766
4871,58.875,-3.25,-9.1875,-0.8393555,0.2148438,-0.1630859,0.2807617,-0.3369141,0.07568359
4875,87,-17,10.625,-0.7695313,0.1914063,-0.1054688,0.2817383,-0.3354492,0.08007813
4879,96.8125,-13.4375,26.1875,-0.6650391,0.4399414,-0.1474609,0.2807617,-0.3369141,0.08544922
4883,90.625,-10.0625,29.625,-0.6147461,0.7001953,-0.2285156,0.2792969,-0.3369141,0.09326172
4887,65.125,-5.5625,20.125,-0.5410156,0.8984375,-0.2089844,0.2758789,-0.3369141,0.1000977
4891,36.1875,-0.25,0.8125,-0.4365234,0.890625,-0.128418,0.2773438,-0.3369141,0.1044922
4895,17.5625,5.6875,-17.4375,-0.3706055,0.8168945,-0.109375,0.2773438,-0.3378906,0.1083984
4899,-1.375,16.625,-41.0625,-0.4750977,0.793457,-0.2167969,0.2807617,-0.3354492,0.1098633
4903,-22.125,16.0625,-46.375,-0.6728516,0.6655273,-0.3359375,0.2817383,-0.3320313,0.1098633
4907,-40.0625,13.1875,-42.1875,-0.8085938,0.5019531,-0.4360352,0.2856445,-0.3305664,0.1123047
4911,-49.125,3.5,-27.0625,-0.8745117,0.3466797,-0.3901367,0.2915039,-0.328125,0.1044922
4915,-46.375,-5.375,-12.1875,-0.715332,0.2885742,-0.2631836,0.2915039,-0.328125,0.1030273
4919,-35.25,-1.5,-13.5,-0.6303711,0.3583984,-0.1977539,0.2939453,-0.328125,0.1015625
4923,-36.9375,2.875,-14,-0.6884766,0.4013672,-0.2128906,0.2949219,-0.3305664,0.09765625
4927,-32.375,-0.0625,-7.8125,-0.847168,0.2924805,-0.3051758,0.2949219,-0.328125,0.09472656
4931,-18.25,-14.625,10.75,-0.8896484,0.300293,-0.2783203,0.2963867,-0.3291016,0.09228516
4935,-9.125,-20.375,19.6875,-0.699707,0.4282227,-0.1474609,0.2949219,-0.3320313,0.08935547
4939,-6.8125,-15.4375,19.75,-0.5644531,0.5761719,-0.03613281,0.2924805,-0.3354492,0.08691406
4943,-10.375,-3.875,12.5,-0.5449219,0.5991211,-0.009277344,0.2915039,-0.3354492,0.08398438
4948,-9.625,2.125,9.8125,-0.6069336,0.5991211,-0.005371094,0.2924805,-0.3378906,0.08398438
4952,-3.25,4.5625,6.5625,-0.6030273,0.5913086,0.005859375,0.2915039,-0.3408203,0.08398438
4956,-1.9375,10,2.125,-0.5527344,0.6616211,0.009765625,0.2880859,-0.3408203,0.08398438
4960,-6.75,16.75,-3.5625,-0.5292969,0.6733398,-0.009277344,0.2866211,-0.3378906,0.08544922
4964,-13.125,23.0625,-12,-0.5449219,0.6577148,-0.03613281,0.2856445,-0.3369141,0.08251953
4968,-15.375,26.6875,-14.4375,-0.5913086,0.5566406,-0.04736328,0.2856445,-0.3354492,0.08544922
4972,-13.25,30,-13.625,-0.5722656,0.5332031,-0.05517578,0.2841797,-0.3354492,0.08544922
4976,-4.4375,34.5,-20.375,-0.6225586,0.4907227,-0.1899414,0.2856445,-0.3291016,0.08544922
4980,-4.625,29.9375,-18.6875,-0.6572266,0.5761719,-0.2246094,0.2832031,-0.3266602,0.09082031
4984,-13.4375,25.6875,-15.8125,-0.6069336,0.5878906,-0.2128906,0.2841797,-0.3232422,0.08789063
4988,-21.25,23.8125,-17.0625,-0.5292969,0.6030273,-0.07080078,0.2841797,-0.3193359,0.09082031
4992,-24.0625,30.75,-24.875,-0.5253906,0.5839844,-0.05126953,0.2832031,-0.3178711,0.09082031
4996,-18,35.3125,-29.375,-0.6494141,0.4829102,-0.1669922,0.2832031,-0.3144531,0.08935547
5000,-9.625,28,-29.5,-0.7387695,0.4321289,-0.2167969,0.2832031,-0.3129883,0.09228516
5004,-3.125,20.625,-21.0625,-0.6767578,0.4633789,-0.2055664,0.2832031,-0.3095703,0.09228516
5008,-8.875,19.3125,-14.4375,-0.4946289,0.5800781,-0.05126953,0.2817383,-0.3041992,0.09082031
5012,-24.5,33.25,-19.0625,-0.5332031,0.6459961,-0.1166992,0.2817383,-0.3041992,0.09228516
5016,-32.125,39.4375,-25.8125,-0.7504883,0.5722656,-0.3901367,0.2807617,-0.3007813,0.09326172
5020,-35.6875,25.5,-25.6875,-0.8818359,0.4985352,-0.5053711,0.2783203,-0.2983398,0.09228516
5024,-40,-1.4375,-17.75,-0.8432617,0.4399414,-0.4824219,0.2792969,-0.296875,0.08935547
5028,-47.5,-26.375,-13.3125,-0.746582,0.4321289,-0.3823242,0.2792969,-0.296875,0.08251953
5032,-52.8125,-39.25,-2.6875,-0.6572266,0.3740234,-0.2246094,0.2807617,-0.296875,0.07861328
5036,-53.625,-26.25,5.625,-0.6728516,0.3232422,-0.1591797,0.2792969,-0.2944336,0.0703125
5040,-33.25,-23.25,2.0625,-0.78125,0.3120117,-0.2592773,0.2792969,-0.296875,0.06347656
5044,-16.3125,-25.75,-3.8125,-0.7929688,0.4321289,-0.2744141,0.2783203,-0.296875,0.05810547
5048,-22.6875,-21.1875,-0.625,-0.7695313,0.5527344,-0.2128906,0.2773438,-0.2929688,0.05517578
5052,-36.5625,-20.375,7.125,-0.8935547,0.5371094,-0.128418,0.2734375,-0.2919922,0.04736328
5056,-42.25,-22.25,17.1875,-0.9013672,0.4477539,-0.05126953,0.2749023,-0.2944336,0.04296875
5060,-37.1875,-21.0625,27.875,-0.8857422,0.3740234,0.02099609,0.2709961,-0.296875,0.03759766
5064,-21.8125,-18.9375,34.0625,-0.831543,0.4052734,0.02880859,0.2675781,-0.3007813,0.02978516
5068,-3.75,-16.625,22.9375,-0.8354492,0.5410156,0.005859375,0.2641602,-0.3017578,0.02685547
5072,3.875,-19.5,15.9375,-0.8935547,0.6616211,-0.04736328,0.2602539,-0.3056641,0.02539063
5077,-3.5625,-17.6875,12.9375,-0.8745117,0.7353516,0.001953125,0.2583008,-0.3041992,0.02294922
5081,-13.125,-13.6875,13,-0.8588867,0.6923828,0.05175781,0.253418,-0.3032227,0.01855469
5085,-12.0625,-12,10.5,-0.8510742,0.6538086,0.05566406,0.253418,-0.3066406,0.01855469
5089,-9.75,-9.0625,7.0625,-0.7890625,0.6655273,0.09033203,0.25,-0.3066406,0.01611328
5093,-2,-6.6875,-2.25,-0.8046875,0.6030273,0.07910156,0.2460938,-0.3041992,0.01318359
5097,7.9375,-5.375,-8.8125,-0.8706055,0.5913086,0.06738281,0.2475586,-0.3017578,0.01171875
5101,12.9375,-5.9375,-8.8125,-0.8432617,0.5644531,0.05175781,0.2460938,-0.3007813,0.009277344
5105,18.125,-5,-9.25,-0.8085938,0.5913086,0.04785156,0.2436523,-0.296875,0.01464844
5109,17.6875,-5.25,-9.3125,-0.7734375,0.6303711,0.04052734,0.2451172,-0.2929688,0.01318359
5113,16.1875,-4.875,-13.3125,-0.8276367,0.6225586,0.001953125,0.2412109,-0.2895508,0.01611328
5117,14.1875,-5.5625,-15.875,-0.8549805,0.5952148,-0.02441406,0.2402344,-0.2880859,0.01318359
5121,12.5,-8.1875,-13.9375,-0.8935547,0.5175781,-0.04003906,0.2412109,-0.2832031,0.01708984
5125,10.5,-13.5625,-7.3125,-0.9326172,0.5019531,-0.07861328,0.2392578,-0.2832031,0.01855469
5129,9.125,-25.6875,-2.5,-0.9633789,0.5136719,-0.08984375,0.2368164,-0.2768555,0.01708984
5133,6.375,-41.375,1.8125,-0.9516602,0.5722656,-0.04003906,0.2368164,-0.2783203,0.01611328
5137,0.4375,-51.625,1,-0.9711914,0.5683594,0.04785156,0.2353516,-0.2768555,0.01318359
5141,-2.9375,-55.25,2.4375,-0.9829102,0.5253906,0.06347656,0.2353516,-0.2719727,0.01074219
5145,-3.5,-56.0625,4.25,-0.9907227,0.4711914,0.02880859,0.2329102,-0.2744141,0.006347656
5149,-1.75,-57.1875,12.5625,-1.037109,0.4438477,-0.1166992,0.2319336,-0.2744141,0.002441406
5153,-0.375,-59.5625,23.5625,-1.025391,0.5175781,-0.06689453,0.230957,-0.2719727,0
5157,3.0625,-55.125,25.3125,-1.071777,0.6342773,-0.07861328,0.230957,-0.2719727,-0.001464844
5161,0,-48.375,27.8125,-1.067871,0.6499023,-0.03222656,0.230957,-0.2729492,-0.005371094
5165,-1.375,-37.375,31.125,-1.021484,0.6381836,0.01367188,0.2246094,-0.2729492,-0.008300781
5169,9.9375,-23.5,30.25,-1.009766,0.6303711,-0.009277344,0.2260742,-0.2729492,-0.006835938
5173,23.1875,-13.375,25.5625,-1.021484,0.7275391,-0.04736328,0.2236328,-0.2729492,-0.009277344
5177,25.3125,-2.75,16,-1.037109,0.824707,-0.06689453,0.2211914,-0.2729492,-0.008300781
5181,18.6875,3.5625,8.6875,-1.029297,0.855957,-0.05908203,0.2211914,-0.2744141,-0.005371094
5185,13.375,10.5,5.375,-0.9985352,0.7856445,-0.05126953,0.2211914,-0.2705078,-0.00390625
5189,13.875,16.5,5.625,-0.9946289,0.7314453,-0.04394531,0.2211914,-0.2729492,-0.001464844
5193,19.8125,17.8125,5,-0.9868164,0.6884766,-0.05908203,0.21875,-0.2744141,-0.001464844
5197,24.0625,21.0625,2.25,-0.9169922,0.7431641,-0.05908203,0.2202148,-0.2753906,0
5201,19.0625,25.125,1.125,-0.8896484,0.7856445,-0.07080078,0.2202148,-0.2744141,0.006347656
5206,7.8125,28.625,1.125,-0.8549805,0.8168945,-0.08984375,0.2177734,-0.2753906,0.006347656
5210,-4.375,31.375,-0.4375,-0.8276367,0.8051758,-0.0859375,0.21875,-0.2768555,0.009277344
5214,-10.6875,35.4375,-6.375,-0.78125,0.7705078,-0.04736328,0.2211914,-0.2768555,0.009277344
5218,-12.75,44.8125,-14.4375,-0.8085938,0.7392578,-0.05908203,0.2211914,-0.2744141,0.01074219
5222,-7.6875,43.625,-18.5625,-0.9438477,0.6538086,-0.112793,0.21875,-0.2744141,0.01464844
5226,10.375,35.125,-21.375,-0.9985352,0.5991211,-0.1362305,0.2202148,-0.2729492,0.01855469
5230,28.375,28.5625,-21.4375,-1.013672,0.6264648,-0.128418,0.2260742,-0.2729492,0.02001953
5234,36.8125,26.875,-18.5,-1.001953,0.7119141,-0.1474609,0.2260742,-0.2719727,0.02294922
5238,34.4375,28.9375,-14.3125,-0.9790039,0.7739258,-0.2089844,0.2260742,-0.2695313,0.02685547
5242,30.6875,29.6875,-12.1875,-1.025391,0.7895508,-0.2822266,0.2285156,-0.2670898,0.03076172
5246,29.1875,26.4375,-15.125,-1.067871,0.8168945,-0.3051758,0.2294922,-0.2680664,0.03515625
5250,26.0625,21.75,-20.1875,-1.118652,0.7666016,-0.3051758,0.2329102,-0.2670898,0.0390625
5254,28,14.25,-22.1875,-1.12207,0.6577148,-0.2822266,0.2319336,-0.2680664,0.04052734
5258,36.1875,6.9375,-20.5625,-1.11084,0.5136719,-0.2744141,0.2329102,-0.265625,0.04296875
5262,50.25,1.125,-13.9375,-1.067871,0.4282227,-0.2670898,0.237793,-0.265625,0.04589844
5266,57.8125,-1.0625,-3.625,-1.056641,0.5058594,-0.2324219,0.237793,-0.2695313,0.04882813
5270,46.375,-2.5625,6.75,-1.013672,0.6225586,-0.1938477,0.2426758,-0.2680664,0.05419922
5274,29.625,0,12.9375,-0.9091797,0.6499023,-0.1323242,0.2426758,-0.2680664,0.05517578
5278,16.4375,8.75,15.625,-0.8588867,0.6538086,-0.109375,0.2426758,-0.2744141,0.05664063
5282,10.5,14.3125,13.4375,-0.8666992,0.6459961,-0.112793,0.2436523,-0.2768555,0.05957031
5286,12.0625,14.125,9.25,-0.8745117,0.6069336,-0.109375,0.2451172,-0.2783203,0.06201172
5290,21.6875,15.4375,5.625,-0.8549805,0.5644531,-0.09765625,0.2475586,-0.2768555,0.06494141
5294,38.8125,16.75,0.9375,-0.9130859,0.5878906,-0.1435547,0.2475586,-0.2792969,0.06787109
5298,50.875,12.125,2.25,-0.9438477,0.6420898,-0.2016602,0.2485352,-0.2807617,0.07324219
5302,53.625,7.4375,4.5,-0.9130859,0.7236328,-0.2436523,0.2509766,-0.2783203,0.07861328
5306,48.8125,4.1875,4.9375,-0.831543,0.7973633,-0.2207031,0.2519531,-0.2807617,0.08251953
5310,44.125,6.5,-2.625,-0.7695313,0.777832,-0.1708984,0.2558594,-0.2817383,0.08935547
5314,43.9375,13.3125,-10.4375,-0.7504883,0.7705078,-0.1782227,0.2583008,-0.2807617,0.09082031
5318,36.875,11.4375,-15.0625,-0.796875,0.7817383,-0.1977539,0.2602539,-0.2792969,0.09912109
5322,18.25,5,-9.3125,-0.7387695,0.7856445,-0.1552734,0.2626953,-0.2768555,0.1030273
