Packet number,Gyroscope X (deg/s),Gyroscope Y (deg/s),Gyroscope Z (deg/s),Accelerometer X (g),Accelerometer Y (g),Accelerometer Z (g),Magnetometer X (G),Magnetometer Y (G),Magnetometer Z (G)
0,-5.5625,-13.125,-18.3125,-0.1611328,-0.9736328,-0.128418,0.09521484,0.262207,0.08398438
4,-10.25,-6,-16.5,-0.2001953,-0.9155273,-0.109375,0.09765625,0.2612305,0.08251953
8,-15.3125,-3.375,-17.125,-0.2348633,-0.9506836,-0.09375,0.09375,0.262207,0.08691406
12,-20.5625,-3.125,-20.3125,-0.262207,-0.9619141,-0.109375,0.09375,0.2612305,0.08691406
16,-26.375,-0.9375,-22.5625,-0.2661133,-0.9814453,-0.1362305,0.09277344,0.2612305,0.08789063
20,-30.375,1.5,-22,-0.2773438,-1.062988,-0.1977539,0.09033203,0.262207,0.09228516
24,-32.375,-0.125,-20.625,-0.3085938,-1.11377,-0.2207031,0.08789063,0.2612305,0.09326172
28,-36.0625,-10,-14,-0.3393555,-1.183594,-0.2592773,0.08789063,0.2612305,0.09619141
32,-38.9375,-20.0625,-7.25,-0.2851563,-1.245605,-0.3051758,0.08544922,0.2612305,0.1000977
36,-40.625,-16.0625,-6.25,-0.2231445,-1.284668,-0.3359375,0.08691406,0.2597656,0.1030273
40,-44.3125,-6.9375,-6.4375,-0.2387695,-1.338867,-0.378418,0.08544922,0.2597656,0.1044922
44,-46.625,-3.375,-1.5,-0.2734375,-1.475098,-0.4321289,0.08544922,0.2573242,0.1098633
48,-40.6875,-1.4375,12.9375,-0.230957,-1.580078,-0.4667969,0.08691406,0.2573242,0.1123047
52,-24.0625,3.4375,33.6875,-0.2119141,-1.591309,-0.5014648,0.08789063,0.2573242,0.1166992
56,-11.4375,10.4375,46.5625,-0.2426758,-1.428223,-0.4282227,0.09375,0.2548828,0.1181641
60,-9.1875,11.0625,47.4375,-0.378418,-1.233887,-0.3862305,0.09521484,0.2539063,0.1191406
64,-12.1875,2.875,36.375,-0.4248047,-1.183594,-0.34375,0.09960938,0.2539063,0.1206055
68,-18.375,-5.125,26.625,-0.4365234,-1.171875,-0.34375,0.1035156,0.2509766,0.1235352
72,-18.3125,-13.4375,24.1875,-0.362793,-1.1875,-0.359375,0.105957,0.2539063,0.125
76,-17,-13.3125,26.625,-0.2929688,-1.191406,-0.3862305,0.1079102,0.2548828,0.1259766
80,-9.25,-8.625,33.9375,-0.2543945,-1.199219,-0.4130859,0.1118164,0.2524414,0.1274414
84,-0.125,3.625,37.75,-0.2348633,-1.140625,-0.3901367,0.1176758,0.2548828,0.1289063
88,3.1875,17.8125,30.75,-0.28125,-1.047363,-0.3706055,0.1201172,0.2563477,0.1313477
92,-3,30.1875,16.25,-0.3432617,-1.032227,-0.2939453,0.1225586,0.2563477,0.1342773
96,-5.125,32.6875,7.4375,-0.4555664,-1.043945,-0.2631836,0.1210938,0.2573242,0.137207
100,1.375,23.1875,4.875,-0.4868164,-1.008789,-0.2670898,0.1201172,0.2597656,0.1396484
104,9,11.25,4.4375,-0.4829102,-0.9814453,-0.2705078,0.1210938,0.2636719,0.1425781
108,15.3125,-2.125,4.1875,-0.4130859,-1.032227,-0.3325195,0.1235352,0.2675781,0.144043
112,26.5625,-6.5625,7.3125,-0.3007813,-0.9697266,-0.2939453,0.1235352,0.2675781,0.144043
116,32.625,-1.75,9.125,-0.2192383,-0.7055664,-0.1474609,0.1259766,0.2724609,0.1464844
121,26.5,14.5625,-1.875,-0.1845703,-0.6005859,-0.009277344,0.1259766,0.2773438,0.1450195
125,20.1875,27.25,-15.8125,-0.2700195,-0.5966797,-0.01318359,0.125,0.28125,0.1479492
129,17,25.625,-16.9375,-0.3393555,-0.7172852,-0.1513672,0.1235352,0.2861328,0.1518555
133,24.5625,14,-14.25,-0.3549805,-0.8105469,-0.1630859,0.1176758,0.2900391,0.1547852
137,33.875,-3.4375,-4.375,-0.3393555,-0.6396484,-0.07470703,0.1186523,0.293457,0.1518555
141,30,-9.75,-8,-0.2700195,-0.4726563,-0.005371094,0.1186523,0.3012695,0.15625
145,23,-6.3125,-13.4375,-0.2583008,-0.355957,0.03662109,0.1166992,0.3046875,0.1547852
149,5.25,-6.75,-21.4375,-0.28125,-0.46875,-0.1015625,0.1166992,0.3061523,0.15625
153,-0.75,-11.9375,-21.625,-0.2504883,-0.7641602,-0.2705078,0.112793,0.3100586,0.1616211
157,17.25,-20.25,-7.5625,-0.215332,-0.9155273,-0.3325195,0.1103516,0.3134766,0.1640625
161,38.1875,-27.3125,2.25,-0.2041016,-0.6669922,-0.2324219,0.112793,0.3164063,0.1640625
165,33.375,-21.125,-1.5,-0.1611328,-0.4609375,-0.109375,0.112793,0.3212891,0.1655273
169,11.6875,-6.1875,-20.875,-0.1650391,-0.484375,-0.1821289,0.1142578,0.3222656,0.1669922
173,-2.1875,-0.4375,-14.875,-0.2041016,-0.8535156,-0.3012695,0.1103516,0.3261719,0.168457
177,22.0625,-7.75,-5.0625,-0.2348633,-0.8959961,-0.3012695,0.1079102,0.3276367,0.1723633
181,41.5,-13.625,-3.0625,-0.2504883,-0.7055664,-0.2055664,0.1069336,0.3325195,0.1708984
185,33.0625,-20.125,-0.875,-0.2387695,-0.565918,-0.1860352,0.1079102,0.3325195,0.1738281
189,12.0625,-17.5625,-2.875,-0.2080078,-0.6899414,-0.2475586,0.1069336,0.3359375,0.1708984
193,14.125,-17.25,1.375,-0.1533203,-0.9155273,-0.2592773,0.1079102,0.3349609,0.1708984
197,32.5,-12.5,7.25,-0.06054688,-0.9506836,-0.1743164,0.105957,0.3388672,0.1708984
201,42.5,4.5625,10.1875,-0.03710938,-0.8803711,-0.1015625,0.1079102,0.3398438,0.168457
205,32.5625,18.6875,14.25,-0.1264648,-0.8105469,-0.07080078,0.1079102,0.3413086,0.1669922
209,10.3125,35.125,17,-0.215332,-0.9619141,-0.1513672,0.1069336,0.3413086,0.1640625
213,16.4375,34.25,21.375,-0.3510742,-1.012695,-0.1821289,0.109375,0.3398438,0.168457
217,38.875,28.5625,21.25,-0.4287109,-0.9194336,-0.05908203,0.1079102,0.3413086,0.1699219
221,46.1875,25.6875,10.8125,-0.4868164,-0.7524414,-0.02441406,0.109375,0.34375,0.1669922
225,30.125,10.375,5.0625,-0.5756836,-0.6787109,-0.01318359,0.1069336,0.3447266,0.1640625
229,13.5,-15.125,2.375,-0.5024414,-0.7524414,-0.02050781,0.1069336,0.3461914,0.1655273
233,22.125,-36.4375,1.9375,-0.3164063,-0.7407227,0.02490234,0.105957,0.34375,0.1616211
237,21.75,-29.75,3.0625,-0.1264648,-0.6591797,0.08642578,0.1103516,0.3422852,0.1586914
241,12.0625,-7.3125,0.5625,-0.09521484,-0.5737305,0.1367188,0.1079102,0.3422852,0.15625
245,1.9375,5.125,4.375,-0.1689453,-0.5229492,0.1787109,0.109375,0.3388672,0.1533203
250,-10.0625,6.25,2.3125,-0.2119141,-0.4609375,0.1557617,0.1103516,0.3334961,0.1508789
254,-28.9375,2.0625,3.125,-0.1845703,-0.453125,0.06738281,0.109375,0.3286133,0.1494141
258,-46.8125,7.0625,9.375,-0.1108398,-0.5463867,-0.005371094,0.1103516,0.3237305,0.1479492
262,-44.125,16.6875,8.5625,-0.1147461,-0.6162109,-0.005371094,0.1103516,0.3164063,0.1508789
266,-39.25,16.375,10.3125,-0.1420898,-0.581543,-0.08203125,0.109375,0.3125,0.1508789
270,-50.5625,28.8125,10.375,-0.1572266,-0.550293,-0.1323242,0.1103516,0.3061523,0.1494141
274,-46,32.5,4.5,-0.3320313,-0.565918,-0.1782227,0.109375,0.3022461,0.1494141
278,-53.3125,7.1875,11.125,-0.4829102,-0.5893555,-0.3051758,0.109375,0.2963867,0.1494141
282,-55.9375,-21.4375,17.4375,-0.4633789,-0.7368164,-0.2861328,0.1103516,0.2910156,0.1518555
286,-50,-38.25,22.75,-0.3354492,-0.8222656,-0.378418,0.1142578,0.2836914,0.1494141
290,-39.5,-42.0625,33.4375,-0.246582,-0.8417969,-0.3359375,0.1176758,0.2797852,0.1494141
294,-30.25,-39.6875,39.5625,-0.215332,-0.7329102,-0.3051758,0.1210938,0.2763672,0.1494141
298,-26.5,-28.75,40.1875,-0.2001953,-0.7871094,-0.2553711,0.1293945,0.2700195,0.144043
302,-26.125,-8.375,38.125,-0.2080078,-0.6821289,-0.1591797,0.1318359,0.2651367,0.144043
306,-46.5,10.8125,25.9375,-0.2929688,-0.7250977,-0.2670898,0.1333008,0.2636719,0.144043
310,-50.5625,14.9375,26.1875,-0.4013672,-1.000977,-0.3862305,0.1333008,0.2597656,0.1479492
314,-37.4375,4.375,34.125,-0.4868164,-1.070801,-0.4863281,0.1367188,0.2548828,0.1494141
318,-25.0625,-7.8125,37.25,-0.4946289,-0.9931641,-0.4282227,0.1357422,0.2485352,0.1479492
322,-21.9375,-15.1875,36.625,-0.4711914,-0.9541016,-0.378418,0.1416016,0.2460938,0.1464844
326,-17.8125,-13.125,32.25,-0.4208984,-0.9892578,-0.3012695,0.1450195,0.2426758,0.144043
330,-16.875,0.4375,25.75,-0.4130859,-0.9541016,-0.309082,0.1474609,0.2387695,0.1450195
334,-17.9375,4.5625,18.9375,-0.5371094,-1.008789,-0.359375,0.1484375,0.2373047,0.1464844
338,-18.0625,-10.9375,18.25,-0.5605469,-0.9814453,-0.4013672,0.1484375,0.2348633,0.1450195
342,-17,-30.375,24.625,-0.4594727,-0.9233398,-0.378418,0.1508789,0.2324219,0.144043
346,-11.3125,-33.5,28.9375,-0.3320313,-0.9194336,-0.324707,0.1533203,0.2299805,0.1411133
350,-5.75,-20.6875,32.4375,-0.3164063,-0.9506836,-0.309082,0.1567383,0.2275391,0.1381836
354,-6.5,-4.375,31.4375,-0.3862305,-0.8959961,-0.3632813,0.1582031,0.2260742,0.137207
358,-10.5,0.25,26.0625,-0.5253906,-0.9155273,-0.4477539,0.1606445,0.2236328,0.1357422
362,-11.5,-5.5625,10.125,-0.5449219,-0.7641602,-0.4785156,0.1606445,0.2197266,0.1381836
366,-10.875,-13.5,5.3125,-0.5253906,-0.7871094,-0.4594727,0.1630859,0.21875,0.1381836
370,-3.1875,-16.0625,8.1875,-0.4482422,-0.9194336,-0.4477539,0.1630859,0.2163086,0.137207
374,8.5,-7.625,14.6875,-0.4404297,-0.9311523,-0.4130859,0.1650391,0.2148438,0.1342773
379,14.875,-3.3125,13.875,-0.5834961,-0.8535156,-0.3862305,0.1650391,0.2148438,0.1342773
383,14.25,-18.375,10.8125,-0.6303711,-0.8183594,-0.3862305,0.1665039,0.2138672,0.1313477
387,15.875,-29,5.9375,-0.5175781,-0.7680664,-0.3286133,0.1665039,0.2163086,0.1289063
391,15.875,-22.375,-1.5625,-0.4169922,-0.7094727,-0.2553711,0.1689453,0.2138672,0.125
395,14.375,-10.8125,-6,-0.4365234,-0.7910156,-0.1899414,0.1665039,0.2148438,0.1220703
399,17.125,-5.9375,-6.5625,-0.4946289,-0.8999023,-0.1821289,0.1699219,0.2148438,0.1220703
403,17.4375,-10.875,-3.5,-0.5332031,-0.8842773,-0.1821289,0.1674805,0.2148438,0.1181641
407,14.5,-18.3125,-2.5,-0.5332031,-0.8574219,-0.1860352,0.1650391,0.2163086,0.1166992
411,9.8125,-20.125,-7.0625,-0.4985352,-0.8417969,-0.2016602,0.1674805,0.2163086,0.1152344
415,7.5625,-15.25,-11.125,-0.4790039,-0.9541016,-0.2167969,0.1665039,0.2148438,0.1137695
419,5.25,-15.875,-9.875,-0.5175781,-1.043945,-0.1860352,0.1650391,0.2163086,0.1113281
423,-9.9375,-32.3125,1.5,-0.4907227,-1.350586,-0.3129883,0.1665039,0.2172852,0.1098633
427,6.4375,-52.8125,26.6875,-0.3862305,-1.036133,-0.1206055,0.1674805,0.2163086,0.1069336
431,-21.4375,-34.3125,23.625,-0.3393555,-1.000977,-0.1821289,0.1699219,0.2124023,0.1044922
435,-17.4375,-8.9375,11.6875,-0.3935547,-1.086426,-0.2822266,0.1748047,0.2114258,0.1044922
439,-14.5,16.9375,4.9375,-0.4790039,-1.059082,-0.2939453,0.1738281,0.2099609,0.1069336
443,-12.25,27.25,5.75,-0.5644531,-0.9931641,-0.2939453,0.1738281,0.2084961,0.105957
447,-9.6875,25.4375,7.9375,-0.6455078,-0.9233398,-0.2978516,0.1723633,0.2060547,0.1069336
451,-9.0625,18.75,7.0625,-0.6845703,-0.8183594,-0.324707,0.1713867,0.2075195,0.1123047
455,-5.6875,16.875,-1.5,-0.6728516,-0.8105469,-0.3476563,0.1699219,0.2060547,0.1113281
459,-0.0625,18.5,-14.75,-0.6416016,-0.7792969,-0.34375,0.1689453,0.2060547,0.1137695
463,0,13.9375,-22.25,-0.6494141,-0.7719727,-0.324707,0.1674805,0.2060547,0.1123047
467,2.3125,-0.625,-20.5625,-0.6225586,-0.7719727,-0.309082,0.1650391,0.2060547,0.1123047
471,5.8125,-12.375,-16.125,-0.5683594,-0.7792969,-0.2822266,0.1630859,0.2075195,0.1113281
475,11.1875,-10.75,-17.8125,-0.4946289,-0.8339844,-0.2861328,0.1630859,0.2075195,0.1098633
479,19.3125,5.0625,-27.0625,-0.4672852,-0.8959961,-0.2861328,0.1630859,0.2099609,0.1083984
483,22.4375,10.875,-28.375,-0.5527344,-0.9233398,-0.2592773,0.1591797,0.2124023,0.1098633
487,23.3125,2.5,-22.75,-0.6069336,-0.9853516,-0.2705078,0.1567383,0.2138672,0.1083984
491,24.0625,-10.625,-16.0625,-0.6376953,-1.012695,-0.2670898,0.1567383,0.2148438,0.105957
495,22.1875,-16.1875,-11.625,-0.5991211,-1.047363,-0.2861328,0.1557617,0.2163086,0.1015625
499,20.8125,-8.5,-15.875,-0.5795898,-1.055176,-0.2592773,0.1547852,0.21875,0.1015625
503,11,4.5625,-27.75,-0.6069336,-1.004883,-0.2246094,0.1547852,0.2172852,0.1015625
508,-2.8125,8.75,-35.3125,-0.6689453,-1.086426,-0.2436523,0.1499023,0.2197266,0.1000977
512,-8.3125,2.8125,-33.3125,-0.6728516,-1.164063,-0.2861328,0.1484375,0.2226563,0.1000977
516,-13.375,-0.9375,-32.0625,-0.6494141,-1.183594,-0.324707,0.1474609,0.2226563,0.1015625
520,-16.0625,-3.8125,-29.25,-0.6186523,-1.22998,-0.3359375,0.1425781,0.2260742,0.1030273
524,-15.25,-5.875,-23,-0.5874023,-1.276855,-0.378418,0.144043,0.2250977,0.1030273
528,-11.6875,-7.625,-17.5625,-0.5756836,-1.272949,-0.3974609,0.1416016,0.2260742,0.105957
532,-9.4375,-6.625,-16.6875,-0.5371094,-1.222656,-0.394043,0.1391602,0.2275391,0.1044922
536,-12.1875,-1.1875,-19.5625,-0.4985352,-1.140625,-0.4013672,0.1401367,0.2275391,0.105957
540,-15.3125,6.9375,-24.125,-0.4868164,-1.199219,-0.4169922,0.1391602,0.2285156,0.1069336
544,-13.75,13.8125,-25.8125,-0.4907227,-1.210938,-0.4169922,0.1367188,0.2299805,0.1083984
548,-12.625,17.4375,-24.75,-0.5024414,-1.207031,-0.4052734,0.1357422,0.2314453,0.1113281
552,-11.8125,14.3125,-21,-0.5214844,-1.167969,-0.3901367,0.1342773,0.2324219,0.1113281
556,-11.5,7.9375,-19.5625,-0.5024414,-1.133301,-0.4013672,0.1308594,0.2348633,0.1137695
560,-10.25,1.3125,-18.875,-0.4750977,-1.109863,-0.3974609,0.1318359,0.2348633,0.1152344
564,-7.6875,0.6875,-21.75,-0.4365234,-1.102051,-0.4052734,0.1318359,0.2373047,0.1152344
568,-4.1875,0.3125,-26.0625,-0.4287109,-1.136719,-0.378418,0.1293945,0.2397461,0.1166992
572,-1.125,-3.25,-27.0625,-0.4052734,-1.098145,-0.359375,0.1293945,0.2397461,0.1181641
576,-0.1875,-8.4375,-22.4375,-0.3393555,-1.11377,-0.3476563,0.1293945,0.2436523,0.1181641
580,4.625,-7.9375,-18,-0.2851563,-1.094238,-0.2978516,0.1293945,0.2460938,0.1191406
584,4,-2.375,-20.1875,-0.296875,-1.070801,-0.2436523,0.128418,0.2460938,0.1191406
588,-7.25,4.1875,-28.75,-0.3393555,-1.175781,-0.1708984,0.128418,0.2485352,0.1191406
592,-21,21.5625,-43.875,-0.3203125,-1.405273,-0.1821289,0.125,0.2509766,0.1220703
596,-17.5,36.5625,-60.8125,-0.4169922,-1.48291,-0.3515625,0.1225586,0.2548828,0.1289063
600,-6.6875,25.875,-52.9375,-0.4829102,-1.486816,-0.4936523,0.1152344,0.2597656,0.1303711
604,12.5625,-5.625,-25.9375,-0.4169922,-1.308105,-0.4628906,0.1118164,0.262207,0.1328125
608,8.625,-49.5625,12.4375,-0.2929688,-0.9619141,-0.3554688,0.112793,0.2636719,0.1342773
612,1.3125,-58.6875,23.375,-0.1069336,-0.8339844,-0.1782227,0.1186523,0.2675781,0.1342773
616,5.6875,-32.125,4.1875,-0.006347656,-0.8339844,-0.04736328,0.1235352,0.2700195,0.1342773
620,22.3125,-6.625,-0.75,0.125,-0.8105469,-0.009277344,0.1235352,0.2724609,0.1381836
624,41.8125,16.1875,7.1875,0.175293,-0.4335938,0.06738281,0.1269531,0.2773438,0.137207
628,48.0625,68.875,1.4375,0.1171875,-0.4882813,0.09814453,0.1259766,0.28125,0.1381836
632,53.8125,81.8125,1.8125,-0.2041016,-0.4179688,0.09033203,0.1235352,0.2851563,0.1411133
637,61.5625,54.875,12.9375,-0.3549805,-0.2939453,0.1865234,0.1210938,0.2924805,0.144043
641,44.625,27.3125,20.9375,-0.3164063,-0.2241211,0.1210938,0.1225586,0.2973633,0.1425781
645,14.1875,27.9375,24.8125,-0.1728516,-0.355957,-0.02441406,0.1235352,0.2973633,0.144043
649,2.3125,48.375,29.6875,-0.1611328,-0.5463867,-0.1323242,0.1259766,0.2988281,0.1464844
653,35.9375,60.5625,14.5625,-0.2231445,-0.5776367,-0.04736328,0.1259766,0.3022461,0.1518555
657,46.125,54.75,6.3125,-0.3588867,-0.355957,0.005859375,0.1235352,0.3037109,0.15625
661,11.0625,41.0625,4.4375,-0.3823242,-0.3950195,-0.01318359,0.1210938,0.3061523,0.1533203
665,-15.1875,24.1875,5.625,-0.3974609,-0.5927734,-0.1860352,0.1186523,0.3046875,0.1586914
669,-12.375,13.0625,7.9375,-0.3666992,-0.8144531,-0.2324219,0.1210938,0.3061523,0.1630859
673,4.8125,8.8125,1.125,-0.3354492,-0.7871094,-0.2705078,0.1201172,0.3046875,0.1655273
677,3.8125,10,-4.6875,-0.347168,-0.7172852,-0.2475586,0.1176758,0.3061523,0.1669922
681,-8.9375,6.125,-4.4375,-0.3242188,-0.8222656,-0.324707,0.1176758,0.3061523,0.168457
685,-5.6875,-0.3125,-4.5,-0.2851563,-0.9272461,-0.4321289,0.1166992,0.3046875,0.1708984
689,12.0625,2.9375,0.0625,-0.2890625,-1.047363,-0.3476563,0.1152344,0.3076172,0.1723633
693,38.3125,2.0625,-3.0625,-0.3510742,-0.9038086,-0.1938477,0.1166992,0.3076172,0.1738281
697,34.6875,-1.125,-5.4375,-0.3706055,-0.6938477,-0.08984375,0.1166992,0.3110352,0.1723633
701,5.8125,-3.9375,-3.0625,-0.2851563,-0.7211914,-0.1860352,0.1152344,0.3110352,0.1708984
705,-5.25,1.6875,1.625,-0.2504883,-0.9077148,-0.2553711,0.1142578,0.3134766,0.1708984
709,12.8125,8.8125,3.75,-0.3393555,-0.9853516,-0.2744141,0.1166992,0.3110352,0.1738281
713,26.875,2.75,-1.6875,-0.4052734,-0.8535156,-0.3051758,0.1142578,0.3134766,0.1738281
717,21.875,-1.375,-3.8125,-0.3974609,-0.8066406,-0.2246094,0.112793,0.3149414,0.1699219
721,20.5,-6.5,-8.375,-0.378418,-0.7988281,-0.1743164,0.1142578,0.3164063,0.1723633
725,15.5625,-7.75,-8.5,-0.3164063,-0.7988281,-0.1474609,0.112793,0.3188477,0.1699219
729,7.75,-2.375,-5.875,-0.2851563,-0.8725586,-0.2128906,0.1118164,0.3212891,0.1708984
733,13.25,-2.5625,-4.0625,-0.3203125,-0.8803711,-0.1977539,0.1118164,0.3212891,0.1699219
737,17.6875,-3.9375,-5.5,-0.347168,-0.8496094,-0.1323242,0.1118164,0.324707,0.168457
741,14.75,-8.75,-6.625,-0.3203125,-0.7871094,-0.08984375,0.1103516,0.3261719,0.1669922
745,4.625,-6.25,-6.3125,-0.2504883,-0.8105469,-0.09375,0.109375,0.3261719,0.1669922
749,3.125,3.9375,-9.375,-0.2080078,-0.8066406,-0.08984375,0.1079102,0.3261719,0.1640625
753,-0.875,13.0625,-6.625,-0.246582,-0.8066406,-0.1054688,0.1079102,0.3261719,0.1655273
757,-6.375,14.25,-5,-0.2851563,-0.8183594,-0.1323242,0.105957,0.3286133,0.1655273
761,-10,12,-2.0625,-0.2734375,-0.8574219,-0.109375,0.1044922,0.3261719,0.1669922
766,-8.25,15.6875,-2.6875,-0.2270508,-0.8183594,-0.0859375,0.1035156,0.3261719,0.168457
770,-8.0625,24.125,-5.1875,-0.2504883,-0.7680664,-0.04394531,0.1035156,0.324707,0.1669922
774,-13.8125,24.0625,-8.4375,-0.3046875,-0.6860352,-0.04736328,0.1010742,0.3237305,0.1669922
778,-26.125,15.0625,-4.4375,-0.3745117,-0.6899414,-0.0859375,0.09863281,0.3237305,0.168457
782,-35.3125,0.1875,-5.125,-0.4052734,-0.6977539,-0.1591797,0.09863281,0.3198242,0.1699219
786,-38.375,-20.125,-3.6875,-0.4248047,-0.7329102,-0.1899414,0.09863281,0.3173828,0.1699219
790,-36.375,-41.6875,1.5,-0.3164063,-0.7368164,-0.2363281,0.09863281,0.3125,0.1708984
794,-31.3125,-49.3125,13.6875,-0.246582,-0.7988281,-0.2128906,0.1010742,0.3110352,0.168457
798,-20.75,-43.6875,31.25,-0.1845703,-0.7524414,-0.1552734,0.105957,0.3046875,0.1640625
802,-13.6875,-27.875,23.6875,-0.1108398,-0.6474609,-0.04736328,0.1103516,0.3037109,0.1640625
806,-20.625,-34.125,36.875,-0.1806641,-0.6435547,-0.128418,0.1152344,0.2998047,0.1630859
810,-36.375,-63.625,67,-0.1499023,-0.7524414,-0.2397461,0.1225586,0.2963867,0.1586914
814,-19.3125,-79.375,87.8125,-0.1499023,-0.8339844,-0.2939453,0.1293945,0.2910156,0.1572266
818,11,-77.875,95.25,-0.1767578,-0.6357422,-0.2128906,0.1425781,0.2836914,0.1518555
822,11.5,-66.25,81.875,-0.2504883,-0.5151367,-0.2207031,0.1567383,0.2788086,0.1396484
826,-5.0625,-59.125,67.875,-0.3125,-0.6899414,-0.309082,0.1606445,0.2739258,0.137207
830,-6.5625,-40.4375,61.5625,-0.2929688,-0.8574219,-0.324707,0.1699219,0.2700195,0.1328125
834,1.5,-17.1875,68.1875,-0.2543945,-0.8378906,-0.2475586,0.1772461,0.262207,0.125
838,0.875,12.6875,65.9375,-0.262207,-0.6552734,-0.112793,0.1821289,0.2597656,0.1235352
842,-16.3125,36.8125,54.5,-0.3935547,-0.6977539,-0.08984375,0.1855469,0.2539063,0.1206055
846,-20.1875,43.375,37.75,-0.5683594,-0.8496094,-0.1362305,0.1879883,0.2485352,0.125
850,-11.8125,39.3125,17.125,-0.699707,-0.9272461,-0.309082,0.1879883,0.2460938,0.125
854,-8.6875,26.5625,-1.6875,-0.8085938,-0.9580078,-0.34375,0.1855469,0.2436523,0.125
858,-11,5.3125,-14.125,-0.7543945,-0.9775391,-0.3325195,0.184082,0.2412109,0.1220703
862,-7.875,-18.375,-10.9375,-0.6689453,-1.012695,-0.3012695,0.1831055,0.2397461,0.1235352
866,-2.75,-29.8125,-14.25,-0.5214844,-0.9233398,-0.2592773,0.1831055,0.2397461,0.1206055
870,-2.0625,-24,-9.875,-0.4130859,-0.9038086,-0.2055664,0.1821289,0.2397461,0.1166992
874,-4.875,-12.8125,-4.0625,-0.3974609,-0.8647461,-0.2475586,0.1821289,0.2397461,0.1137695
878,5.3125,-0.375,-11.875,-0.5024414,-1.078613,-0.2670898,0.1831055,0.2387695,0.1152344
882,16.625,-1.625,-21.4375,-0.5449219,-0.9658203,-0.2167969,0.1806641,0.2397461,0.1098633
886,11.375,-5.5625,-12.875,-0.4594727,-0.8686523,-0.1362305,0.1782227,0.2397461,0.1098633
890,8.6875,-5.25,1,-0.5063477,-0.8764648,-0.1166992,0.1772461,0.2397461,0.1069336
895,7.0625,-1.4375,8.0625,-0.5253906,-0.8105469,-0.08203125,0.1772461,0.2373047,0.1069336
899,1.3125,-5.125,5.9375,-0.5795898,-0.7910156,-0.128418,0.1772461,0.2387695,0.105957
903,1,-16.875,1.5,-0.5795898,-0.8647461,-0.1743164,0.1772461,0.2363281,0.1030273
907,6.75,-29.375,2.6875,-0.4711914,-0.9194336,-0.1821289,0.1782227,0.2363281,0.1015625
911,8.5,-26.4375,11.3125,-0.3510742,-0.9272461,-0.1860352,0.1806641,0.2348633,0.09912109
915,11.125,-11.125,15.0625,-0.3510742,-0.8647461,-0.1669922,0.1796875,0.2324219,0.09472656
919,11.0625,2.625,8.1875,-0.4672852,-0.7910156,-0.1938477,0.1806641,0.2314453,0.09228516
923,9.875,7.375,-7.125,-0.5722656,-0.8066406,-0.2324219,0.1821289,0.2314453,0.09472656
927,13.875,-3.8125,-18.625,-0.6069336,-0.9389648,-0.2363281,0.1831055,0.2324219,0.09082031
931,16,-23,-17,-0.5175781,-0.9116211,-0.2167969,0.1782227,0.2324219,0.09082031
935,15.9375,-29.6875,-6.4375,-0.3706055,-0.8959961,-0.1552734,0.1772461,0.2324219,0.08789063
939,19.6875,-16.875,-3.875,-0.3354492,-0.8222656,-0.1054688,0.1782227,0.2338867,0.08691406
943,19.5,0.6875,-11.75,-0.4169922,-0.7602539,-0.128418,0.1757813,0.2324219,0.08007813
947,14.0625,5.9375,-22.625,-0.4907227,-0.8378906,-0.1513672,0.1748047,0.2338867,0.08105469
951,16.1875,-3.125,-20.6875,-0.4790039,-0.8999023,-0.128418,0.1748047,0.2348633,0.07714844
955,16.625,-10,-12.0625,-0.4052734,-0.8959961,-0.1206055,0.1699219,0.2348633,0.07714844
959,19.6875,-10.1875,-4.25,-0.3935547,-0.8378906,-0.109375,0.1699219,0.2348633,0.07324219
963,24.1875,-1.4375,-7.5625,-0.4091797,-0.8222656,-0.128418,0.1689453,0.2338867,0.07324219
967,27.8125,4.4375,-16.125,-0.4443359,-0.9038086,-0.1435547,0.1674805,0.2373047,0.06787109
971,32.375,0.3125,-15.875,-0.4482422,-0.9467773,-0.09765625,0.1674805,0.2348633,0.0703125
975,32.5625,-7.3125,-10.1875,-0.4208984,-0.9428711,-0.0859375,0.1630859,0.2373047,0.06494141
979,32.25,-9.125,3.375,-0.3974609,-0.9580078,-0.08203125,0.1630859,0.2373047,0.06201172
983,50.75,-10.9375,22.3125,-0.4555664,-0.9389648,0.009765625,0.1640625,0.2373047,0.05957031
987,32.625,3.3125,1.0625,-0.4868164,-0.7949219,-0.06689453,0.1650391,0.2363281,0.05419922
991,22.875,-3.25,-3.25,-0.6030273,-1.133301,-0.04736328,0.1640625,0.2348633,0.05126953
995,24.0625,-17.25,5.1875,-0.4907227,-1.144531,-0.05517578,0.1630859,0.2373047,0.04980469
999,20.5625,-14.625,19.375,-0.4169922,-1.140625,-0.04736328,0.1650391,0.2363281,0.04736328
1003,19.6875,3.625,25.9375,-0.4326172,-1.167969,-0.01660156,0.1665039,0.2348633,0.04443359
1007,18.5625,22.1875,28.1875,-0.5410156,-1.183594,-0.02050781,0.1674805,0.2314453,0.04296875
1011,17.375,28.8125,30.5625,-0.6455078,-1.183594,-0.03613281,0.1689453,0.2299805,0.04296875
1015,12.6875,25.875,30.8125,-0.7036133,-1.102051,-0.03613281,0.1699219,0.2299805,0.04296875
1019,4.5625,22,29.375,-0.7348633,-1.074707,-0.07861328,0.1723633,0.2260742,0.04443359
1024,4.875,19.0625,25.125,-0.7426758,-1.094238,-0.09765625,0.1713867,0.2250977,0.04589844
1028,6.375,14.75,22.5,-0.7270508,-1.043945,-0.09765625,0.1723633,0.2250977,0.04443359
1032,3.8125,6.6875,23.875,-0.7270508,-0.9931641,-0.08203125,0.1757813,0.2226563,0.04589844
1036,0,-4.1875,21.125,-0.715332,-0.9038086,-0.05517578,0.1782227,0.2236328,0.04296875
1040,-9.875,-8.625,8.375,-0.6884766,-0.8378906,-0.04394531,0.1782227,0.2211914,0.04589844
1044,-16.625,-8.75,-3.4375,-0.6767578,-0.9116211,-0.06689453,0.1806641,0.2211914,0.04443359
1048,-16.1875,-8.1875,-14.75,-0.6611328,-0.9658203,-0.08984375,0.1782227,0.2197266,0.04589844
1052,-16.5625,-8.3125,-24.8125,-0.6533203,-0.9853516,-0.109375,0.1772461,0.2197266,0.04589844
1056,-17.5625,-10.9375,-28.0625,-0.6416016,-1.05127,-0.1245117,0.1772461,0.2226563,0.04736328
1060,-17.125,-15.75,-22.75,-0.6303711,-1.109863,-0.1435547,0.1757813,0.2236328,0.04882813
1064,-15.5625,-18.4375,-16.1875,-0.6147461,-1.144531,-0.1362305,0.1748047,0.2250977,0.04736328
1068,-13.875,-14.25,-17.9375,-0.5913086,-1.040039,-0.09375,0.1748047,0.2275391,0.04980469
1072,-23.3125,-5.875,-28.4375,-0.5991211,-1.000977,-0.09375,0.1723633,0.2260742,0.04882813
1076,-29.5625,-0.4375,-39.5625,-0.6147461,-1.059082,-0.109375,0.1723633,0.2275391,0.05126953
1080,-30.8125,4.25,-47.1875,-0.5756836,-1.11377,-0.1362305,0.1699219,0.2314453,0.05419922
1084,-29.4375,9.5,-46.1875,-0.5683594,-1.15625,-0.1591797,0.1640625,0.2324219,0.05517578
1088,-26.625,7.6875,-39.9375,-0.5991211,-1.1875,-0.1977539,0.1640625,0.2348633,0.05957031
1092,-21.4375,-1.125,-29.1875,-0.6303711,-1.183594,-0.2363281,0.1606445,0.2363281,0.06103516
1096,-16.9375,-15.6875,-24.75,-0.6303711,-1.121582,-0.2207031,0.1606445,0.2363281,0.06347656
1100,-14.4375,-21.125,-27.75,-0.5024414,-1.020508,-0.1669922,0.1591797,0.2412109,0.06201172
1104,-22.6875,-9.9375,-38.3125,-0.4169922,-0.9428711,-0.1669922,0.1591797,0.2397461,0.06201172
1108,-25.125,6.3125,-48.75,-0.4208984,-1.059082,-0.1860352,0.1557617,0.2436523,0.06494141
1112,-17.5,11.75,-52.4375,-0.4594727,-1.129395,-0.2167969,0.1533203,0.2475586,0.06787109
1116,-11.5625,4.9375,-39.1875,-0.4555664,-1.144531,-0.2128906,0.1508789,0.2509766,0.06884766
1120,-6.8125,-4.3125,-18.75,-0.3588867,-1.164063,-0.2285156,0.1484375,0.2539063,0.0703125
1124,2.5,5.8125,-6.5625,-0.2080078,-1.133301,-0.1630859,0.1459961,0.2548828,0.07177734
1128,-0.125,46.875,-13.875,-0.1147461,-0.9970703,-0.05126953,0.1499023,0.2563477,0.07421875
1132,-5.6875,93.8125,-24.1875,-0.2041016,-1.066895,-0.01660156,0.1450195,0.2597656,0.07421875
1136,-4.9375,130.4375,-34.8125,-0.3007813,-1.059082,-0.07470703,0.1401367,0.2636719,0.08251953
1140,-7.4375,137.6875,-23.5625,-0.5024414,-1.11377,-0.1708984,0.1357422,0.2661133,0.08935547
1144,-3.0625,108.25,4.6875,-0.6767578,-1.164063,-0.2939453,0.1318359,0.2685547,0.09765625
1148,15,69.875,27.5625,-0.6376953,-1.144531,-0.2783203,0.1308594,0.2700195,0.1000977
1153,27.25,45.0625,27,-0.5253906,-0.8417969,-0.1630859,0.1308594,0.2724609,0.1015625
1157,17.25,41.875,8.5625,-0.4365234,-0.7055664,-0.06689453,0.1318359,0.2749023,0.1030273
1161,10.75,43,-11.4375,-0.4287109,-0.7680664,-0.02832031,0.1318359,0.2773438,0.1044922
1165,12.1875,33.0625,-20.625,-0.4248047,-0.8027344,-0.02441406,0.1308594,0.2797852,0.105957
1169,12.0625,13.375,-6.3125,-0.3974609,-0.8300781,-0.03613281,0.128418,0.2851563,0.1083984
1173,8.625,-7.625,6.8125,-0.347168,-0.8959961,-0.1591797,0.1269531,0.2875977,0.1083984
1177,21.375,-13.3125,8.625,-0.2041016,-0.7407227,-0.03222656,0.1269531,0.2910156,0.1098633
1181,18.375,-5.4375,-0.4375,-0.1533203,-0.5073242,0.005859375,0.1318359,0.293457,0.1083984
1185,1.4375,12,-21.4375,-0.1499023,-0.519043,0.04443359,0.1308594,0.2973633,0.1098633
1189,1,18.6875,-28.125,-0.2734375,-0.7563477,0.01708984,0.1269531,0.3012695,0.1098633
1193,6.5,3.3125,-18.75,-0.3085938,-0.7446289,-0.009277344,0.1259766,0.3061523,0.1152344
1197,5.8125,-12,-11.5625,-0.2387695,-0.7133789,-0.08203125,0.125,0.3100586,0.1152344
1201,7.25,-15.25,-9.3125,-0.1689453,-0.7988281,-0.109375,0.1235352,0.3125,0.1166992
1205,10.875,-14.5625,-13.5625,-0.2119141,-0.7055664,-0.09765625,0.1235352,0.3149414,0.1181641
1209,6,-20.1875,-27.375,-0.2773438,-0.6357422,-0.06298828,0.1201172,0.3188477,0.1166992
1213,2.125,-20.3125,-38.1875,-0.1845703,-0.7792969,-0.08203125,0.1201172,0.3222656,0.1181641
1217,7.8125,-16.5625,-30.75,-0.1186523,-0.8613281,-0.1245117,0.1152344,0.3261719,0.1206055
1221,10.1875,-10.9375,-13.5625,-0.07226563,-0.9814453,-0.1782227,0.1152344,0.3310547,0.1206055
1225,18.25,3.5,-6.0625,-0.1186523,-1.036133,-0.2705078,0.112793,0.3325195,0.1191406
1229,31.125,6.8125,-17.1875,-0.2543945,-0.9619141,-0.2363281,0.1118164,0.3349609,0.1220703
1233,33.1875,-10.125,-22.25,-0.3046875,-0.8496094,-0.2744141,0.1103516,0.3422852,0.1220703
1237,32.375,-20.9375,-21.3125,-0.1728516,-0.9194336,-0.2978516,0.109375,0.3461914,0.1191406
1241,45.5,-19.4375,-16.25,-0.1069336,-0.9580078,-0.2900391,0.1069336,0.3549805,0.1181641
1245,52.3125,-9.625,-5.375,-0.08007813,-0.8764648,-0.2128906,0.109375,0.3598633,0.1123047
1249,52.1875,-5.25,5.4375,-0.1533203,-0.7524414,-0.1401367,0.109375,0.3637695,0.1098633
1253,49.6875,-1.75,7.6875,-0.2231445,-0.7407227,-0.05908203,0.1103516,0.3710938,0.1069336
1257,46.25,-0.875,5.4375,-0.230957,-0.7871094,-0.08203125,0.112793,0.3774414,0.1030273
1261,49.375,4.1875,13.375,-0.2270508,-0.7719727,-0.01318359,0.1142578,0.3837891,0.1015625
1265,45,12.625,18.3125,-0.2231445,-0.7211914,-0.01660156,0.1186523,0.3886719,0.09619141
1269,43.1875,19.1875,20.625,-0.328125,-0.6977539,-0.001464844,0.1201172,0.3950195,0.09228516
1273,38.5625,13.4375,19.6875,-0.378418,-0.7290039,-0.02050781,0.125,0.3984375,0.08789063
1277,35.625,7.1875,19.625,-0.3432617,-0.7133789,-0.04736328,0.1269531,0.4013672,0.08691406
1282,31.1875,6.75,20.75,-0.3320313,-0.7832031,-0.05908203,0.1293945,0.4072266,0.08105469
1286,29.5625,4.4375,16.875,-0.4013672,-0.7094727,-0.04003906,0.1318359,0.4072266,0.08007813
1290,23,-1.4375,12.5625,-0.4594727,-0.7792969,-0.01660156,0.1367188,0.4111328,0.07568359
1294,20.6875,-10.9375,5.375,-0.4711914,-0.7563477,0.001953125,0.1401367,0.4111328,0.07324219
1298,13.125,-20.875,-1,-0.4521484,-0.7524414,-0.001464844,0.1416016,0.4135742,0.06787109
1302,9.125,-26.125,-2.75,-0.3666992,-0.8764648,-0.03222656,0.1425781,0.4135742,0.06347656
1306,11.3125,-23.3125,-3.5625,-0.3549805,-0.8803711,0.01708984,0.144043,0.4125977,0.06103516
1310,7.25,-22.25,-2.6875,-0.347168,-0.8647461,0.07128906,0.144043,0.4160156,0.05810547
1314,2.625,-23.625,-5.125,-0.3745117,-0.8027344,0.1171875,0.1450195,0.4160156,0.05664063
1318,-6.8125,-29.75,-7.4375,-0.3320313,-0.7832031,0.1210938,0.144043,0.4150391,0.05273438
1322,-11.4375,-23.375,-7.1875,-0.2426758,-0.8725586,0.1132813,0.144043,0.4135742,0.05273438
1326,-12.0625,-14.125,-6.1875,-0.2700195,-0.8920898,0.105957,0.144043,0.4135742,0.05273438
1330,-14.4375,-11.8125,-5.0625,-0.2890625,-0.8725586,0.1171875,0.1425781,0.4111328,0.04980469
1334,-18.0625,-7.25,-2.9375,-0.3007813,-0.8496094,0.1713867,0.1425781,0.4111328,0.05419922
1338,-26.3125,-7.3125,-5.625,-0.3432617,-0.7290039,0.1826172,0.1416016,0.4086914,0.05517578
1342,-36.6875,-5.625,-8.6875,-0.2929688,-0.8105469,0.1098633,0.1401367,0.4038086,0.05957031
1346,-35.4375,-2.8125,-8.6875,-0.296875,-0.8183594,0.06347656,0.1391602,0.4013672,0.06201172
1350,-37.3125,-6.125,-7.25,-0.3164063,-0.7719727,0.04052734,0.1391602,0.3959961,0.06347656
1354,-40.375,-15.25,-6.5,-0.3354492,-0.7407227,0.07128906,0.1367188,0.3925781,0.0703125
1358,-47.375,-25,-4.9375,-0.3007813,-0.7094727,0.07128906,0.1357422,0.3886719,0.07177734
1362,-57.5625,-26.1875,-5.9375,-0.215332,-0.7602539,-0.08203125,0.1357422,0.3837891,0.07714844
1366,-51.875,-10.75,-4,-0.1381836,-0.8881836,-0.1630859,0.1342773,0.3759766,0.08398438
1370,-44.1875,-1.25,2.4375,-0.2080078,-0.8222656,-0.1669922,0.1342773,0.3725586,0.08544922
1374,-42.625,-4.1875,9.3125,-0.3203125,-0.7719727,-0.08203125,0.1318359,0.3647461,0.08789063
1378,-45.0625,-14.8125,13.125,-0.328125,-0.7719727,-0.03222656,0.1333008,0.3598633,0.09082031
1382,-48.9375,-13.375,16.8125,-0.2583008,-0.7680664,-0.07080078,0.1342773,0.3535156,0.09326172
1386,-48.875,-4.8125,20.5,-0.2734375,-0.7641602,-0.1015625,0.1367188,0.347168,0.09472656
1390,-43.6875,-0.6875,22.375,-0.3706055,-0.6938477,-0.05517578,0.1376953,0.3398438,0.09912109
1394,-44,-11.9375,23.75,-0.4672852,-0.6279297,0.01708984,0.1376953,0.3388672,0.1015625
1398,-48.8125,-27.0625,24.5625,-0.4326172,-0.6162109,0.08251953,0.1425781,0.3310547,0.1030273
1402,-56.4375,-30.8125,25.125,-0.3007813,-0.6279297,0.04052734,0.144043,0.3222656,0.105957
1406,-60.25,-18.0625,28.1875,-0.1845703,-0.6435547,0.005859375,0.144043,0.3164063,0.105957
1411,-59.1875,0,30.75,-0.1884766,-0.6123047,-0.06298828,0.1474609,0.3100586,0.1098633
1415,-63.1875,12.0625,30.8125,-0.2773438,-0.6708984,-0.1591797,0.1474609,0.2998047,0.1137695
1419,-58,14.625,27.6875,-0.3393555,-0.8417969,-0.2397461,0.1474609,0.2924805,0.1152344
1423,-50.5,8.5,25.6875,-0.347168,-0.8613281,-0.3012695,0.1484375,0.2885742,0.1206055
1427,-45.875,-1.5625,26.0625,-0.3510742,-0.8725586,-0.3168945,0.1499023,0.2797852,0.1220703
1431,-37.1875,-9.625,30.25,-0.3203125,-0.9116211,-0.324707,0.1523438,0.2763672,0.1235352
1435,-29.0625,-13.6875,33,-0.3007813,-0.9541016,-0.3012695,0.1523438,0.2700195,0.1235352
1439,-20.6875,-15.5625,31.125,-0.3007813,-1.012695,-0.3051758,0.1567383,0.2636719,0.125
1443,-12.6875,-13.875,28.25,-0.28125,-1.094238,-0.3051758,0.1567383,0.262207,0.1220703
1447,-2.1875,-5.375,19.8125,-0.3666992,-1.102051,-0.2397461,0.1591797,0.2573242,0.1220703
1451,3.5625,-9.6875,11.5625,-0.4868164,-0.9736328,-0.2285156,0.1616211,0.2563477,0.1191406
1455,6.1875,-31.75,5.625,-0.6069336,-0.9272461,-0.2167969,0.1616211,0.2539063,0.1166992
1459,7.3125,-76.625,6.5625,-0.6884766,-0.8339844,-0.1708984,0.1640625,0.2509766,0.1123047
1463,-0.4375,-109.1875,11.0625,-0.4521484,-0.9038086,-0.1435547,0.1674805,0.25,0.1069336
1467,1.1875,-92.125,10.5,-0.2426758,-0.9775391,-0.1669922,0.1689453,0.2475586,0.1030273
1471,5.25,-56.75,9,-0.28125,-1.032227,-0.2207031,0.1723633,0.2460938,0.09765625
1475,12.875,-35.1875,2.1875,-0.4208984,-1.008789,-0.2822266,0.1738281,0.2436523,0.09326172
1479,17.375,-34.0625,-6.1875,-0.5102539,-0.8803711,-0.2783203,0.1738281,0.2436523,0.09082031
1483,8.0625,-47.8125,-3.125,-0.5527344,-0.8378906,-0.2592773,0.1748047,0.2426758,0.08544922
1487,-0.9375,-62.5,7.6875,-0.5292969,-0.8881836,-0.2167969,0.1748047,0.2426758,0.08105469
1491,-3.125,-63.625,13.625,-0.4672852,-0.9658203,-0.2246094,0.1772461,0.2397461,0.07861328
1495,3.5625,-42.625,9.8125,-0.3588867,-0.9428711,-0.1630859,0.1772461,0.2373047,0.07568359
1499,0.375,-16.625,4.875,-0.3901367,-0.8613281,-0.1630859,0.1796875,0.2348633,0.07177734
1503,-1.125,-5.75,0.25,-0.5371094,-0.8686523,-0.1899414,0.1772461,0.2363281,0.0703125
1507,1.375,-11.375,-3.3125,-0.5913086,-0.8999023,-0.2246094,0.1782227,0.2348633,0.0703125
1511,5.8125,-18,-6.125,-0.5795898,-0.9389648,-0.2324219,0.1772461,0.2338867,0.06884766
1515,11.875,-26.375,-4.4375,-0.5644531,-0.9658203,-0.2246094,0.1757813,0.2338867,0.06884766
1519,16.6875,-34.25,0.75,-0.4750977,-0.9467773,-0.2167969,0.1772461,0.2338867,0.06494141
1523,21,-32.0625,5.5,-0.4443359,-0.8959961,-0.1821289,0.1772461,0.2324219,0.05957031
1527,17.5625,-23.5,2.125,-0.4555664,-0.8105469,-0.1362305,0.1757813,0.2314453,0.05957031
1531,14.5625,-10.9375,-14.6875,-0.4404297,-0.9233398,-0.1166992,0.1772461,0.2314453,0.05664063
1535,21,4.5625,-31.0625,-0.4013672,-1.024414,-0.1206055,0.1748047,0.2348633,0.05419922
1540,26.9375,13.75,-31.625,-0.3974609,-1.070801,-0.1401367,0.1713867,0.2324219,0.05419922
1544,31.1875,11.75,-19.0625,-0.4287109,-1.05127,-0.1015625,0.1689453,0.2363281,0.05273438
1548,31.75,5.5625,-11.4375,-0.4482422,-1.016602,-0.1054688,0.1665039,0.2348633,0.04980469
1552,31.625,1.75,-11.5,-0.4404297,-1.070801,-0.05517578,0.1640625,0.2363281,0.04882813
1556,38.6875,-1.1875,0.4375,-0.4326172,-1.319336,-0.1245117,0.1650391,0.2363281,0.04589844
1560,44.25,3.625,-11,-0.3393555,-0.9311523,0.04052734,0.1630859,0.2373047,0.04443359
1564,22.5625,11.8125,-17.8125,-0.3432617,-0.8920898,0.03662109,0.1630859,0.2387695,0.04052734
1568,17.6875,14.0625,-19.4375,-0.3588867,-1.043945,-0.03222656,0.1591797,0.2397461,0.03759766
1572,18.9375,14.0625,-18.5,-0.3666992,-1.117676,-0.1054688,0.1567383,0.2397461,0.0390625
1576,20.625,3.0625,-10.4375,-0.4482422,-1.191406,-0.09765625,0.1557617,0.2412109,0.03759766
1580,19.9375,-20.4375,3.3125,-0.4404297,-1.086426,-0.05517578,0.1557617,0.2412109,0.03515625
1584,11.4375,-26.0625,10.4375,-0.3706055,-1.062988,-0.009277344,0.1557617,0.2387695,0.03369141
1588,12.125,-12.5,8.0625,-0.378418,-1.15625,-0.02050781,0.1567383,0.2397461,0.03222656
1592,16.375,9.625,1.8125,-0.3745117,-1.152344,-0.02832031,0.1567383,0.2387695,0.02832031
1596,11.875,26,-0.875,-0.4750977,-1.066895,-0.005371094,0.1567383,0.2397461,0.03076172
1600,2.3125,30.0625,-0.875,-0.5756836,-1.11377,-0.01318359,0.1567383,0.2373047,0.02978516
1604,-0.25,24.8125,2.625,-0.6376953,-1.148438,-0.03613281,0.1557617,0.2373047,0.03076172
1608,-4.1875,16.625,7.25,-0.6611328,-1.144531,-0.05126953,0.1547852,0.2387695,0.03222656
1612,-8.8125,9.125,5.3125,-0.6494141,-1.191406,-0.06298828,0.1557617,0.2373047,0.03222656
1616,-10.9375,3.5,5.75,-0.6264648,-1.164063,-0.04736328,0.1591797,0.2373047,0.03515625
1620,-16.4375,6.6875,3,-0.5913086,-1.167969,-0.05126953,0.1567383,0.2387695,0.03515625
1624,-16.8125,15.625,-3.75,-0.6069336,-1.203125,-0.07080078,0.1567383,0.2373047,0.03759766
1628,-15.875,20.6875,-11.5,-0.6455078,-1.167969,-0.09765625,0.1582031,0.2373047,0.0390625
1632,-20.25,18.3125,-16.75,-0.6689453,-1.152344,-0.112793,0.1557617,0.2373047,0.04199219
1636,-26.5625,9,-17.125,-0.6884766,-1.121582,-0.1245117,0.1557617,0.2397461,0.04296875
1640,-33.6875,-3.0625,-18.625,-0.6611328,-1.179688,-0.1591797,0.1523438,0.2397461,0.04589844
1644,-34.6875,-14,-17.875,-0.6030273,-1.195313,-0.1821289,0.1533203,0.2397461,0.04882813
1648,-31.75,-18.0625,-17.5625,-0.5102539,-1.1875,-0.1860352,0.1523438,0.2412109,0.04980469
1652,-24.625,-14.0625,-21.375,-0.4287109,-1.171875,-0.2016602,0.1533203,0.2436523,0.05126953
1656,-19.0625,-6.5625,-31.3125,-0.4130859,-1.043945,-0.1743164,0.1523438,0.2451172,0.05126953
1660,-21.6875,-2.5,-47.5,-0.4287109,-1.020508,-0.1782227,0.1484375,0.2475586,0.05517578
1664,-23.4375,-14.6875,-58.625,-0.4711914,-1.016602,-0.1860352,0.1459961,0.2485352,0.05517578
1669,-22.25,-37.25,-63.125,-0.4130859,-1.055176,-0.2167969,0.1416016,0.2563477,0.05664063
1673,-14.625,-54,-59.4375,-0.3125,-1.094238,-0.2324219,0.1391602,0.2563477,0.06103516
1677,-7.625,-65.5625,-51.125,-0.2426758,-1.090332,-0.2207031,0.1367188,0.2597656,0.05517578
1681,1.75,-68.4375,-44.25,-0.1381836,-1.105957,-0.2016602,0.1342773,0.2651367,0.05517578
1685,6.0625,-56.25,-38.25,-0.01416016,-1.074707,-0.1630859,0.1342773,0.2685547,0.05273438
1689,5.3125,-18.125,-34.75,0.07080078,-1.074707,-0.1401367,0.1318359,0.2685547,0.04980469
1693,4.1875,22.5,-29.25,-0.02197266,-1.074707,-0.0859375,0.1318359,0.2739258,0.04980469
1697,3.1875,29.8125,-12.875,-0.2387695,-1.032227,-0.06298828,0.1293945,0.2763672,0.04980469
1701,2.25,14.1875,2.75,-0.3203125,-1.016602,-0.005371094,0.1293945,0.2788086,0.04980469
1705,1.8125,4.5625,10.5625,-0.3320313,-1.012695,0.02880859,0.1293945,0.2788086,0.05126953
1709,1.3125,-0.3125,10.3125,-0.3242188,-1.004883,0.04785156,0.1333008,0.28125,0.05273438
1713,1.5625,7.0625,6.6875,-0.1962891,-0.9892578,0.05957031,0.1367188,0.28125,0.05126953
1717,-2.1875,31.25,3.4375,-0.1108398,-0.9658203,0.02880859,0.1367188,0.2875977,0.05419922
1721,-3.1875,55.5,5.6875,-0.2080078,-1.008789,0.005859375,0.1357422,0.2875977,0.05664063
1725,-2.5625,46.25,15.4375,-0.3862305,-0.9428711,0.01367188,0.1357422,0.2885742,0.05810547
1729,1.0625,18.8125,21.125,-0.3935547,-0.8881836,0.02880859,0.1401367,0.2910156,0.06494141
1733,6.9375,6.125,22.4375,-0.262207,-0.8496094,-0.01660156,0.1401367,0.293457,0.06201172
1737,12.8125,13.8125,23.375,-0.1611328,-0.8066406,-0.04394531,0.1425781,0.2949219,0.06347656
1741,22.375,35.0625,8.5,-0.1845703,-0.7680664,0.02099609,0.144043,0.2949219,0.06494141
1745,20.6875,38.375,8.5625,-0.2773438,-0.7250977,-0.09375,0.1450195,0.2988281,0.06787109
1749,6.8125,28.5,14.75,-0.328125,-0.7680664,-0.09765625,0.1484375,0.2998047,0.06787109
1753,7.5625,5.5,24.9375,-0.3901367,-0.8105469,-0.1362305,0.1499023,0.3012695,0.06884766
1757,23.4375,-14.375,29.5,-0.3046875,-0.8378906,-0.08984375,0.1523438,0.3046875,0.06884766
1761,30.375,-19,28.75,-0.2426758,-0.6513672,0.01708984,0.1557617,0.3061523,0.06787109
1765,21.9375,-5.75,18.5625,-0.1650391,-0.6474609,0.009765625,0.1616211,0.3061523,0.06347656
1769,14.125,26.0625,7.3125,-0.1689453,-0.7133789,-0.02441406,0.1630859,0.3085938,0.06494141
1773,11.75,42.875,-2.5,-0.3203125,-0.7563477,-0.05517578,0.1640625,0.3125,0.06884766
1777,11.5,36.375,-3.875,-0.4750977,-0.7094727,-0.02832031,0.1616211,0.3149414,0.06787109
1781,8.1875,7.3125,-2.25,-0.5683594,-0.6083984,0.005859375,0.1630859,0.3164063,0.0703125
1785,0.9375,-22.0625,-7.625,-0.4790039,-0.7016602,-0.06298828,0.1650391,0.3198242,0.07177734
1789,4.5,-26.0625,-18.25,-0.3320313,-0.9194336,-0.1245117,0.1640625,0.3222656,0.07177734
1793,14.875,-20.5,-19.9375,-0.1728516,-0.9697266,-0.1860352,0.1630859,0.3261719,0.07324219
1798,24.1875,-6.375,-14.8125,-0.1225586,-0.9428711,-0.128418,0.1630859,0.3286133,0.0703125
1802,27.5625,7.6875,-8.3125,-0.1767578,-0.7871094,-0.04736328,0.1630859,0.3334961,0.0703125
1806,20.75,8.1875,-7.1875,-0.28125,-0.7524414,-0.0859375,0.1640625,0.3374023,0.06884766
1810,19.6875,4.875,-9.1875,-0.3354492,-0.8920898,-0.109375,0.1606445,0.3398438,0.06884766
1814,28,-5.1875,-13.875,-0.3242188,-0.8686523,-0.1708984,0.1630859,0.3447266,0.06884766
1818,33.8125,-7.125,-12.9375,-0.2348633,-0.9428711,-0.1743164,0.1630859,0.3461914,0.06347656
1822,43.5,-1.75,-8.0625,-0.1767578,-1.000977,-0.1743164,0.1616211,0.3510742,0.06347656
1826,53.5625,-1.4375,2.6875,-0.2192383,-0.9736328,-0.109375,0.1630859,0.355957,0.05664063
1830,58.4375,-6.8125,10.125,-0.215332,-0.8686523,-0.009277344,0.1650391,0.3574219,0.05419922
1834,59.3125,-6.625,11.3125,-0.1806641,-0.8300781,-0.03613281,0.1689453,0.3637695,0.04589844
1838,70.3125,5.5,14.1875,-0.1806641,-0.8920898,0.04052734,0.1713867,0.3701172,0.0390625
1842,75.0625,15.625,14.875,-0.2929688,-0.6977539,0.1479492,0.1757813,0.3725586,0.03369141
1846,52.875,15.3125,11.25,-0.4130859,-0.5268555,0.2709961,0.1796875,0.3735352,0.02685547
1850,27.0625,5.5,8.625,-0.4287109,-0.6669922,0.2675781,0.1806641,0.3759766,0.01855469
1854,22.5625,-4,12.5,-0.4443359,-0.6860352,0.2866211,0.1831055,0.3759766,0.02001953
1858,5.5625,-6.875,8.8125,-0.4482422,-0.6083984,0.2060547,0.1879883,0.378418,0.02001953
1862,-5.25,-4.0625,-0.875,-0.4907227,-0.7910156,0.1098633,0.1865234,0.378418,0.01855469
1866,-3.5,-11.375,-8.0625,-0.5024414,-0.8764648,0.03271484,0.1889648,0.378418,0.01855469
1870,0.1875,-22.3125,-6.8125,-0.4555664,-0.8378906,0.04443359,0.1879883,0.378418,0.01708984
1874,-5.6875,-25.4375,-8,-0.3706055,-0.7792969,0.08642578,0.1855469,0.3798828,0.01855469
1878,-10.875,-20.75,-7.9375,-0.2661133,-0.8144531,0.1098633,0.1855469,0.378418,0.01464844
1882,-12.375,-9.625,-4.875,-0.1884766,-0.8300781,0.1098633,0.1855469,0.3813477,0.01708984
1886,-13.0625,3.5625,-0.3125,-0.2119141,-0.8027344,0.144043,0.184082,0.3798828,0.02001953
1890,-18.4375,7.8125,3.25,-0.28125,-0.7485352,0.1518555,0.184082,0.3798828,0.02001953
1894,-27.125,6.875,2.6875,-0.3164063,-0.7133789,0.09423828,0.1821289,0.375,0.02294922
1898,-33.25,7.4375,-0.5,-0.3203125,-0.8105469,-0.005371094,0.1821289,0.375,0.02832031
1902,-27.625,5.125,-1.1875,-0.296875,-0.9311523,-0.1015625,0.1821289,0.375,0.02978516
1906,-15.125,0.3125,3.9375,-0.2890625,-0.8920898,-0.07861328,0.1806641,0.3710938,0.03076172
1910,-10.8125,-0.875,9.5625,-0.2661133,-0.7329102,0.05566406,0.1806641,0.3686523,0.03369141
1914,-22.4375,-0.5,8.75,-0.3007813,-0.5893555,0.1479492,0.1806641,0.3671875,0.03222656
1918,-37.6875,0.8125,2.3125,-0.3046875,-0.5966797,0.105957,0.1806641,0.3623047,0.03613281
1922,-46.0625,3.875,-5,-0.2426758,-0.7792969,-0.04736328,0.1782227,0.3588867,0.04052734
1927,-33.375,10.625,-7.4375,-0.2119141,-0.9155273,-0.1435547,0.1757813,0.355957,0.04199219
1931,-17.625,15.5,-2.5625,-0.2080078,-0.8496094,-0.09765625,0.1699219,0.3525391,0.04589844
1935,-17.5,9.9375,9.5,-0.3085938,-0.6396484,0.03271484,0.1713867,0.347168,0.04736328
1939,-30.625,-3.0625,15.0625,-0.3046875,-0.6201172,0.125,0.1723633,0.34375,0.04736328
1943,-39,-11.4375,20.5625,-0.2504883,-0.534668,0.1171875,0.1723633,0.3388672,0.04882813
1947,-51.6875,-2.625,22.1875,-0.1806641,-0.6787109,-0.04003906,0.1738281,0.3334961,0.05126953
1951,-43.3125,19.25,11.8125,-0.2504883,-0.8959961,-0.3051758,0.1713867,0.3286133,0.05419922
1955,-21.6875,31.3125,-3.125,-0.3935547,-1.08252,-0.4516602,0.1713867,0.3237305,0.05810547
1959,14.375,12.3125,-5.375,-0.5332031,-1.004883,-0.3632813,0.1689453,0.3212891,0.05810547
1963,29.0625,-26.375,6.625,-0.5063477,-0.7753906,-0.1860352,0.1674805,0.3212891,0.05273438
1967,22.25,-53.25,19.4375,-0.3549805,-0.6591797,-0.03613281,0.1689453,0.3164063,0.04589844
1971,7,-44.3125,24.5,-0.1499023,-0.7094727,0.04785156,0.1713867,0.3134766,0.04052734
1975,-2.1875,-12.5625,20.375,-0.1381836,-0.8261719,-0.01660156,0.1713867,0.3100586,0.03613281
1979,2.9375,7.5625,15.875,-0.3125,-0.8881836,0.01367188,0.1738281,0.3076172,0.03515625
1983,9.1875,-2.125,18.5625,-0.4868164,-0.7407227,0.1635742,0.1738281,0.3022461,0.03222656
1987,0.3125,-16,19.6875,-0.4711914,-0.6513672,0.2827148,0.1772461,0.2998047,0.03076172
1991,-13.625,-21.25,15.8125,-0.3823242,-0.6240234,0.2788086,0.1748047,0.2963867,0.02978516
1995,-25.4375,-11.3125,11.125,-0.28125,-0.8222656,0.1943359,0.1772461,0.293457,0.02832031
1999,-20.5,-2.25,9.875,-0.328125,-0.8881836,0.1518555,0.1757813,0.2900391,0.02832031
2003,-18.0625,-0.1875,15,-0.3706055,-0.8066406,0.144043,0.1748047,0.2851563,0.02978516
2007,-17.125,-8.25,17.6875,-0.4790039,-0.8066406,0.1826172,0.1772461,0.2822266,0.02832031
2011,-24.75,-18.5,10.875,-0.4130859,-0.8144531,0.1674805,0.1782227,0.2788086,0.03076172
2015,-33.4375,-16.375,4.875,-0.3549805,-0.9736328,0.1367188,0.1757813,0.2763672,0.02978516
2019,-29.5625,-6.75,7.9375,-0.2773438,-1.070801,0.08642578,0.1772461,0.2709961,0.03222656
2023,-21,4.5625,16,-0.3320313,-1.032227,0.03271484,0.1772461,0.2709961,0.03222656
2027,-13.6875,8.5,20.9375,-0.3935547,-0.9116211,0.05566406,0.1772461,0.2661133,0.03515625
2031,-19,7.3125,11.1875,-0.4208984,-0.9077148,-0.005371094,0.1782227,0.262207,0.03515625
2035,-27.5625,4,5.5,-0.3862305,-1.012695,-0.05126953,0.1748047,0.2597656,0.03759766
2039,-23.125,4.3125,7.875,-0.2929688,-1.094238,-0.06298828,0.1757813,0.2573242,0.04052734
2043,-14,11.5,15.375,-0.296875,-1.032227,-0.06689453,0.1748047,0.2548828,0.04199219
2047,-6.0625,19.625,23,-0.3432617,-0.9580078,-0.06689453,0.1748047,0.2539063,0.04296875
2051,-3.0625,28.8125,19.8125,-0.4091797,-0.9814453,-0.08984375,0.1757813,0.25,0.04296875
2056,1.375,33.6875,11.1875,-0.4790039,-0.9970703,-0.1245117,0.1738281,0.2475586,0.04736328
2060,1.9375,24.0625,6.125,-0.5141602,-0.9350586,-0.128418,0.1738281,0.2460938,0.04736328
2064,3.5625,13.5625,5.75,-0.4829102,-0.8725586,-0.109375,0.1738281,0.2451172,0.05273438
2068,8.4375,15.0625,4.125,-0.4130859,-0.8027344,-0.1245117,0.1723633,0.2426758,0.04882813
2072,11.125,30.0625,-9.5625,-0.3901367,-0.8647461,-0.1401367,0.1699219,0.2412109,0.04736328
2076,18.0625,45.375,-21.5,-0.3432617,-0.9038086,-0.1782227,0.1674805,0.2412109,0.04980469
2080,27.5,64.375,-22.375,-0.1225586,-0.8300781,-0.1591797,0.1630859,0.2426758,0.04980469
2084,27.8125,88.25,-22.8125,-0.1845703,-0.6899414,-0.2285156,0.1606445,0.2412109,0.05126953
2088,27.5,83.5625,-23,-0.5605469,-0.9311523,-0.3208008,0.1547852,0.2426758,0.05419922
2092,38.75,45.1875,-28.5,-0.715332,-1.133301,-0.3745117,0.1499023,0.2436523,0.05273438
2096,47.125,8.5625,-28.9375,-0.6376953,-1.199219,-0.3706055,0.1474609,0.2436523,0.05273438
2100,50.25,-17.6875,-21.25,-0.4521484,-1.233887,-0.3012695,0.1425781,0.2460938,0.04882813
2104,51,-20.8125,-8.9375,-0.3320313,-1.269043,-0.2089844,0.1416016,0.2485352,0.04296875
2108,56.0625,1.6875,-6.875,-0.262207,-1.319336,-0.09375,0.1425781,0.2460938,0.04199219
2112,50.9375,29.9375,2.875,-0.4711914,-1.645996,-0.1899414,0.1401367,0.2475586,0.03515625
2116,56.6875,34,-2.8125,-0.5795898,-1.308105,0.05566406,0.1416016,0.2475586,0.03369141
2120,30.375,25.8125,-11.1875,-0.730957,-1.300293,0.02880859,0.1376953,0.2460938,0.03076172
2124,19.6875,10.25,-14.125,-0.7231445,-1.439941,0.005859375,0.1357422,0.2475586,0.03076172
2128,13.8125,-3,-14.1875,-0.6147461,-1.370117,0.05175781,0.1333008,0.2475586,0.02978516
2132,2.875,-5.6875,-13.5,-0.4907227,-1.288574,0.07128906,0.1342773,0.25,0.03076172
2136,-3.75,-1.4375,-11.375,-0.4091797,-1.26123,0.07519531,0.1333008,0.25,0.02832031
2140,-7.875,4.5,-11.8125,-0.3510742,-1.233887,0.06738281,0.1308594,0.2509766,0.02832031
2144,-11.4375,7.1875,-10.0625,-0.3354492,-1.179688,0.05957031,0.1308594,0.2524414,0.02978516
2148,-17.625,6.375,-5.25,-0.3510742,-1.160156,0.02880859,0.1308594,0.2539063,0.03076172
2152,-22.8125,-2.6875,-1,-0.4052734,-1.15625,0.01367188,0.1308594,0.2509766,0.03222656
2156,-26.875,-11.375,-0.375,-0.4169922,-1.183594,-0.009277344,0.1308594,0.2539063,0.03515625
2160,-30.8125,-18.6875,2.3125,-0.4052734,-1.21875,-0.03613281,0.1293945,0.2524414,0.03369141
2164,-30.125,-16.5625,6.5625,-0.3432617,-1.249512,-0.01660156,0.1308594,0.2524414,0.03759766
2168,-28.3125,-6.4375,6.75,-0.3745117,-1.237793,-0.05126953,0.1333008,0.2524414,0.0390625
2172,-24.375,1.125,3.6875,-0.4365234,-1.29248,-0.08203125,0.1342773,0.2524414,0.04296875
2176,-19.8125,1.625,0.625,-0.5063477,-1.257324,-0.05908203,0.1342773,0.2539063,0.04296875
2180,-30,-4.3125,-1.375,-0.4985352,-1.136719,-0.02050781,0.1357422,0.2524414,0.04443359
2185,-40.25,-6.125,-3.25,-0.4594727,-1.253418,-0.06689453,0.1367188,0.2539063,0.04589844
2189,-35.1875,-5.5,1.75,-0.4555664,-1.331055,-0.1206055,0.1367188,0.2524414,0.04980469
2193,-28.75,-9.5,10.1875,-0.4946289,-1.323242,-0.2055664,0.1367188,0.2539063,0.05273438
2197,-16.375,-14.5625,14.125,-0.4594727,-1.26123,-0.2167969,0.1376953,0.2548828,0.05419922
2201,-13.5,-12.375,9.875,-0.3588867,-1.098145,-0.1782227,0.1416016,0.2563477,0.05517578
2205,-16.625,-2.5625,6.6875,-0.3510742,-1.062988,-0.1513672,0.144043,0.2524414,0.05517578
2209,-15.4375,-2.875,5.25,-0.4091797,-1.02832,-0.1245117,0.1459961,0.2573242,0.05810547
2213,-18.8125,-13,5.25,-0.4711914,-0.9736328,-0.09765625,0.1474609,0.2573242,0.05810547
2217,-24.1875,-29,5.9375,-0.4404297,-0.9931641,-0.0859375,0.1484375,0.2573242,0.06103516
2221,-23.25,-34.625,7.8125,-0.3242188,-1.012695,-0.07470703,0.1508789,0.2597656,0.06201172
2225,-19.125,-20.1875,6.5,-0.2231445,-1.02832,-0.08203125,0.1533203,0.262207,0.06347656
2229,-13.125,-5.5625,8.4375,-0.2851563,-1.055176,-0.08203125,0.1547852,0.2636719,0.06347656
2233,-7.625,-2.9375,9.4375,-0.3901367,-0.9970703,-0.05908203,0.1582031,0.262207,0.06494141
2237,-7.4375,-9.125,10.9375,-0.4208984,-0.9350586,-0.005371094,0.1591797,0.2651367,0.06494141
2241,-14.3125,-0.6875,11.25,-0.3125,-0.8881836,0.02880859,0.1616211,0.2661133,0.06787109
2245,-14.75,30,5.375,-0.3164063,-0.9736328,0.005859375,0.1630859,0.2685547,0.07177734
2249,-11.75,49.6875,-2.3125,-0.4985352,-1.02832,-0.04736328,0.1630859,0.2724609,0.07861328
2253,-6.0625,47.125,-4.8125,-0.5756836,-1.016602,-0.109375,0.1630859,0.2724609,0.08105469
2257,-0.3125,27.375,0.0625,-0.5991211,-0.8959961,-0.1513672,0.1616211,0.2763672,0.08544922
2261,5.1875,8.0625,3.4375,-0.378418,-0.7949219,-0.1474609,0.1630859,0.2773438,0.08935547
2265,2.8125,15.9375,8.5625,-0.1225586,-0.6591797,-0.1513672,0.1640625,0.28125,0.08935547
2269,1.1875,73.8125,-14.5,0.1987305,-0.6630859,-0.08984375,0.1630859,0.2836914,0.09619141
2273,32.6875,128.8125,-36,-0.1767578,-0.7753906,-0.1977539,0.1582031,0.2900391,0.1000977
2277,33.125,104.9375,-43.4375,-0.3901367,-0.6708984,-0.3745117,0.1508789,0.2963867,0.1069336
2281,32.9375,62.6875,-32,-0.4633789,-0.7832031,-0.3554688,0.1459961,0.3012695,0.1113281
2285,39.875,18.25,-18.8125,-0.3354492,-0.6435547,-0.2670898,0.1425781,0.3085938,0.1152344
2289,46.375,-0.6875,-16.25,-0.2080078,-0.5151367,-0.1435547,0.1416016,0.3125,0.1113281
2293,37.625,0.25,-23.5625,-0.09912109,-0.4765625,-0.05908203,0.1391602,0.3198242,0.1123047
2297,29.25,11.625,-28.0625,-0.1030273,-0.5385742,-0.009277344,0.1391602,0.3276367,0.1113281
2301,28.625,11.75,-24.3125,-0.215332,-0.519043,0.02880859,0.1367188,0.3325195,0.1113281
2305,24.3125,6.1875,-19.4375,-0.2426758,-0.5151367,0.03662109,0.1333008,0.3388672,0.1113281
2309,17,-2.875,-19.1875,-0.2661133,-0.581543,-0.02050781,0.1333008,0.3422852,0.1113281
2314,14.875,-14.9375,-14.125,-0.215332,-0.6318359,-0.07470703,0.1308594,0.347168,0.1113281
2318,10.4375,-16.375,-12.9375,-0.1499023,-0.8300781,-0.1513672,0.1308594,0.3510742,0.1113281
2322,18.0625,-9.9375,-3.75,-0.09130859,-0.9038086,-0.1743164,0.1308594,0.3535156,0.1123047
2326,24.75,2.125,8.875,-0.09521484,-0.8261719,-0.1435547,0.1333008,0.355957,0.1113281
2330,26.6875,9.375,14.375,-0.2080078,-0.7563477,-0.09375,0.1342773,0.3598633,0.1113281
2334,23.375,7.625,13.8125,-0.3125,-0.6669922,0.001953125,0.1367188,0.3637695,0.1113281
2338,7.375,-2.125,6.5,-0.3862305,-0.7446289,-0.07080078,0.1391602,0.3637695,0.1083984
2342,5.3125,-8.75,5.8125,-0.296875,-0.9931641,-0.1782227,0.1425781,0.3647461,0.1113281
2346,24.125,-5.625,16.3125,-0.2700195,-0.9970703,-0.1206055,0.1450195,0.3671875,0.1098633
2350,29.375,-6.375,23.75,-0.3510742,-0.7719727,-0.001464844,0.1459961,0.3701172,0.1069336
2354,19.6875,-11.375,22.5625,-0.4052734,-0.6513672,0.07910156,0.1508789,0.3701172,0.105957
2358,4.25,-14.0625,12,-0.4013672,-0.6318359,0.09033203,0.1547852,0.3710938,0.1044922
2362,-6.625,-14,4.3125,-0.3706055,-0.7329102,0.009765625,0.1567383,0.3710938,0.1030273
2366,-9.875,-8.5625,1.0625,-0.3164063,-0.8300781,-0.109375,0.1582031,0.3710938,0.1044922
2370,-4.8125,-2.9375,2.5,-0.3510742,-0.8881836,-0.1669922,0.1606445,0.3701172,0.105957
2374,-1.5,-6.0625,5.5625,-0.3974609,-0.8496094,-0.1435547,0.1582031,0.3671875,0.105957
2378,-3.0625,-12.125,5.6875,-0.4287109,-0.8261719,-0.1206055,0.1616211,0.3686523,0.105957
2382,-4.25,-15.1875,0.9375,-0.4130859,-0.7832031,-0.06689453,0.1630859,0.3647461,0.1044922
2386,-11.4375,-17.0625,-5,-0.4130859,-0.7792969,-0.08984375,0.1616211,0.3662109,0.1044922
2390,-11.8125,-18.5,-7.75,-0.4091797,-0.8496094,-0.06298828,0.1606445,0.3637695,0.1044922
2394,-11.25,-23.5625,-10.5625,-0.4365234,-0.7832031,-0.07080078,0.1606445,0.3623047,0.1030273
2398,-14,-24.375,-10,-0.3046875,-0.7949219,-0.009277344,0.1591797,0.3623047,0.1015625
2402,-15.75,-15.5,-7.625,-0.2700195,-0.7753906,0.02880859,0.1582031,0.3598633,0.1015625
2406,-20.625,-9.375,-4.0625,-0.2734375,-0.7055664,0.07519531,0.1582031,0.3574219,0.1015625
2410,-29.9375,-5.25,-5.375,-0.3125,-0.6318359,0.03271484,0.1582031,0.355957,0.1015625
2414,-36.1875,-4,-13,-0.3666992,-0.6821289,-0.07470703,0.1557617,0.3525391,0.1000977
2418,-34.25,-11,-19.0625,-0.3745117,-0.7329102,-0.1552734,0.1523438,0.3486328,0.1044922
2422,-33.8125,-25,-15.125,-0.3549805,-0.7250977,-0.1708984,0.1499023,0.347168,0.1044922
2426,-36.5,-36.4375,-6.3125,-0.296875,-0.7871094,-0.1552734,0.1484375,0.3422852,0.105957
2430,-31.875,-37.9375,-1.5,-0.28125,-0.8027344,-0.1323242,0.1484375,0.3388672,0.1069336
2434,-27.8125,-39.75,-3.1875,-0.2734375,-0.7871094,-0.1513672,0.1474609,0.3359375,0.1030273
2438,-24.9375,-39.625,-6.375,-0.2700195,-0.7641602,-0.1323242,0.1484375,0.3300781,0.105957
2443,-23.875,-44.5,-9,-0.3203125,-0.7949219,-0.112793,0.1474609,0.3276367,0.1000977
2447,-22.8125,-51.3125,-13.3125,-0.3510742,-0.7753906,-0.0859375,0.1474609,0.3261719,0.09912109
2451,-21.4375,-58.75,-18.4375,-0.4287109,-0.7524414,-0.07080078,0.1484375,0.3222656,0.09765625
2455,-17.3125,-67.1875,-34.6875,-0.4985352,-0.7250977,-0.05908203,0.1450195,0.3198242,0.09326172
2459,-18.4375,-82.3125,-52.8125,-0.5371094,-0.6591797,-0.07080078,0.1425781,0.3198242,0.09228516
2463,-28.75,-106.25,-63.875,-0.4482422,-0.6899414,-0.1591797,0.1376953,0.3173828,0.08691406
2467,-33.875,-120.6875,-66.875,-0.1845703,-0.8920898,-0.1977539,0.1342773,0.3173828,0.08251953
2471,-27,-106.25,-53.0625,0.05517578,-1.040039,-0.2128906,0.1293945,0.3164063,0.08105469
2475,-12.875,-74.625,-34.6875,0.1831055,-1.094238,-0.1552734,0.1269531,0.3149414,0.07568359
2479,2.1875,-37.1875,-16.125,0.1831055,-0.9892578,-0.1474609,0.125,0.3149414,0.07324219
2483,-1.1875,-15.8125,2,0.02050781,-0.8803711,-0.1206055,0.1235352,0.3125,0.0703125
2487,-14.6875,-15.6875,13.4375,-0.1030273,-0.8105469,-0.109375,0.1259766,0.3100586,0.06787109
2491,-29.625,-18.5,15.8125,-0.06835938,-0.8686523,-0.1054688,0.1259766,0.3061523,0.06884766
2495,-33.1875,-12.4375,25.125,-0.02197266,-0.9272461,-0.1323242,0.1269531,0.3037109,0.0703125
2499,-27.25,-3.4375,34.9375,-0.006347656,-0.9506836,-0.1591797,0.1308594,0.2998047,0.0703125
2503,-18.5625,8.8125,43.5,-0.06835938,-0.9428711,-0.2016602,0.1333008,0.293457,0.07177734
2507,-13.9375,15.6875,49.0625,-0.1767578,-0.9853516,-0.1977539,0.1357422,0.2924805,0.07177734
2511,-9.75,14.9375,47.6875,-0.262207,-1.004883,-0.1401367,0.1401367,0.2851563,0.07177734
2515,-8.4375,11.6875,42.1875,-0.262207,-0.9658203,-0.1166992,0.1425781,0.2822266,0.07177734
2519,-9.25,15.1875,38.6875,-0.2080078,-0.9272461,-0.07861328,0.144043,0.2797852,0.07177734
2523,-10.625,23.5,41.6875,-0.2080078,-0.8613281,-0.06689453,0.1459961,0.2749023,0.07324219
2527,-12.25,36.3125,44.25,-0.2773438,-0.9311523,-0.112793,0.1484375,0.2709961,0.07177734
2531,-6.375,44.625,40.5625,-0.3935547,-1.040039,-0.1552734,0.1523438,0.2661133,0.07568359
2535,3.6875,44.0625,33.5625,-0.4868164,-1.059082,-0.1821289,0.1523438,0.2651367,0.07421875
2539,11.5,36.875,24,-0.5488281,-0.9506836,-0.1435547,0.1547852,0.2597656,0.07324219
2543,12.0625,25.75,11.875,-0.5683594,-0.8339844,-0.1206055,0.1533203,0.2612305,0.07568359
2547,9.75,14.625,-1.25,-0.5756836,-0.8417969,-0.1245117,0.1547852,0.2573242,0.07324219
2551,12.5,0,-15.25,-0.5566406,-0.9580078,-0.1630859,0.1523438,0.2563477,0.07324219
2555,20.5625,-19.5,-21.8125,-0.4907227,-0.9892578,-0.1552734,0.1499023,0.2563477,0.07324219
2559,27.75,-33.5625,-24.4375,-0.3549805,-0.9775391,-0.1323242,0.1459961,0.2573242,0.0703125
2563,33.5,-32.3125,-24.4375,-0.2270508,-0.9272461,-0.08984375,0.1450195,0.2573242,0.06347656
2567,39.875,-16.375,-25.1875,-0.1767578,-0.8613281,-0.04003906,0.1416016,0.2563477,0.06103516
2572,34.3125,-4.75,-29.6875,-0.2504883,-0.7719727,0.02880859,0.1401367,0.2587891,0.05517578
2576,22,-3.6875,-32,-0.2543945,-0.8920898,0.02490234,0.1376953,0.2587891,0.05419922
2580,18.5625,-4.5,-32.75,-0.230957,-1.040039,-0.005371094,0.1342773,0.2587891,0.05273438
2584,21.5625,-3.875,-22,-0.1962891,-1.090332,-0.03222656,0.1308594,0.2587891,0.04980469
2588,24.8125,1.1875,-9.5,-0.1923828,-1.102051,-0.0859375,0.128418,0.2612305,0.04882813
2592,30.125,11.25,-9.9375,-0.2387695,-1.183594,-0.09765625,0.1259766,0.2587891,0.04589844
2596,31.0625,14.75,-8,-0.296875,-1.140625,-0.07080078,0.1259766,0.2573242,0.04443359
2600,21.9375,11.25,-6.0625,-0.3203125,-1.094238,-0.06298828,0.125,0.2587891,0.04296875
2604,14.75,12.1875,-5.4375,-0.2890625,-1.183594,-0.1206055,0.1225586,0.2597656,0.04199219
2608,18.8125,21.6875,-6.375,-0.3125,-1.249512,-0.1743164,0.1210938,0.2587891,0.04052734
2612,22.5,29.875,-9.9375,-0.347168,-1.304199,-0.2285156,0.1186523,0.2587891,0.04052734
2616,27.125,27,-8.3125,-0.4013672,-1.401367,-0.2705078,0.1176758,0.2573242,0.04199219
2620,42.75,10.5625,8.8125,-0.4052734,-1.463379,-0.2514648,0.1166992,0.2573242,0.03759766
2624,38.75,7.125,17.25,-0.2890625,-1.179688,-0.1474609,0.1166992,0.2587891,0.03515625
2628,28.6875,17.5,16.25,-0.2661133,-1.171875,-0.07861328,0.1186523,0.2587891,0.03369141
2632,23.1875,31,11.4375,-0.3242188,-1.207031,-0.09765625,0.1166992,0.2587891,0.03222656
2636,15.6875,34,8.5,-0.4208984,-1.199219,-0.0859375,0.1176758,0.2563477,0.03076172
2640,9.0625,26,7.25,-0.4365234,-1.241699,-0.07470703,0.1186523,0.2563477,0.03076172
2644,6.875,17.375,9.5625,-0.4365234,-1.26123,-0.07861328,0.1176758,0.2563477,0.02978516
2648,4.5625,12,11.5,-0.4052734,-1.22998,-0.05126953,0.1201172,0.2563477,0.03076172
2652,0.9375,10.625,11.25,-0.4013672,-1.203125,-0.009277344,0.1210938,0.2539063,0.03076172
2656,-6.5,11.4375,6.8125,-0.3706055,-1.133301,0.04785156,0.1210938,0.2548828,0.02978516
2660,-18.875,13.5625,3.375,-0.3901367,-1.140625,0.04785156,0.1201172,0.2548828,0.03613281
2664,-27.9375,12.125,1.125,-0.3974609,-1.183594,0.03271484,0.1210938,0.2524414,0.03613281
2668,-33,11.375,-0.1875,-0.4052734,-1.233887,-0.01318359,0.1210938,0.2524414,0.03759766
2672,-33.9375,13.75,-1.375,-0.4013672,-1.284668,-0.07470703,0.1210938,0.2539063,0.04199219
2676,-31.375,14.9375,0,-0.4130859,-1.34668,-0.1206055,0.1225586,0.2548828,0.04296875
2680,-23.9375,13.6875,4.0625,-0.4287109,-1.366211,-0.1708984,0.1225586,0.2539063,0.04589844
2684,-16.625,10.25,8.6875,-0.4365234,-1.288574,-0.1669922,0.1235352,0.2548828,0.04980469
2688,-16.125,6.6875,9.9375,-0.4555664,-1.102051,-0.1166992,0.1225586,0.2563477,0.05126953
2692,-29.625,2.4375,4.6875,-0.4750977,-1.016602,-0.1166992,0.1259766,0.2539063,0.05273438
2696,-38.375,-0.5,-3.3125,-0.4443359,-1.08252,-0.1323242,0.1259766,0.2548828,0.05419922
2701,-39,1.875,-7.0625,-0.3666992,-1.15625,-0.1630859,0.1269531,0.2548828,0.05664063
2705,-33.375,7.6875,-5.0625,-0.3393555,-1.226563,-0.1860352,0.125,0.2563477,0.06103516
2709,-23,10.3125,0.0625,-0.3549805,-1.183594,-0.1743164,0.125,0.2573242,0.06347656
2713,-20.375,8.75,4.0625,-0.3510742,-1.059082,-0.1938477,0.1259766,0.2563477,0.06640625
2717,-24.6875,6.625,4.6875,-0.3706055,-1.062988,-0.1977539,0.128418,0.2573242,0.06787109
2721,-25.0625,6.6875,1.0625,-0.3242188,-1.133301,-0.1977539,0.1293945,0.2597656,0.07324219
2725,-24.0625,14.1875,-0.875,-0.2890625,-1.133301,-0.1977539,0.128418,0.2587891,0.07421875
2729,-27.1875,18.75,-0.375,-0.2583008,-1.129395,-0.2397461,0.128418,0.2587891,0.07714844
2733,-25.3125,22.0625,3.5625,-0.2851563,-1.1875,-0.2670898,0.1308594,0.262207,0.08251953
2737,-13.9375,19.625,11.75,-0.3164063,-1.191406,-0.2631836,0.1318359,0.2597656,0.08398438
2741,-5.6875,17.3125,18.375,-0.3046875,-1.094238,-0.2475586,0.1318359,0.2651367,0.08691406
2745,-2.5,18,17.125,-0.28125,-0.9853516,-0.2514648,0.1333008,0.2651367,0.09082031
2749,-1.8125,23.9375,9.75,-0.2734375,-0.9619141,-0.2475586,0.1342773,0.2661133,0.09326172
2753,1,25.625,4.1875,-0.362793,-1.008789,-0.2363281,0.1357422,0.2700195,0.09472656
2757,8.1875,10.1875,6.25,-0.4208984,-0.9853516,-0.2363281,0.1367188,0.2700195,0.09619141
2761,15.8125,-4.8125,11.25,-0.3549805,-0.9389648,-0.1782227,0.1391602,0.2724609,0.09619141
2765,17,-7.8125,14.3125,-0.230957,-0.8496094,-0.1401367,0.1401367,0.2749023,0.09765625
2769,14.9375,10.4375,10.625,-0.1533203,-0.8535156,-0.06689453,0.144043,0.2788086,0.09912109
2773,12.3125,28.75,0.0625,-0.2387695,-0.8144531,-0.1054688,0.1416016,0.2797852,0.09912109
2777,9.3125,31.6875,-10.8125,-0.347168,-0.8842773,-0.1323242,0.1425781,0.2822266,0.1000977
2781,15.9375,19.8125,-13.6875,-0.378418,-0.8725586,-0.1708984,0.1416016,0.2875977,0.1044922
2785,23.375,3.75,-0.8125,-0.3085938,-0.9233398,-0.2705078,0.1401367,0.2910156,0.105957
2789,38.75,-4.625,4.75,-0.230957,-0.7055664,-0.09375,0.1416016,0.2963867,0.1044922
2793,31.9375,-4.6875,2.375,-0.2270508,-0.453125,-0.01318359,0.1459961,0.3012695,0.1030273
2797,15.3125,0.9375,-16.875,-0.2041016,-0.4140625,0.005859375,0.1450195,0.3046875,0.1030273
2801,13.25,13.6875,-35,-0.1962891,-0.4765625,0.03271484,0.1425781,0.3100586,0.1044922
2805,14.1875,15.375,-44.625,-0.2504883,-0.5073242,-0.04736328,0.1376953,0.3164063,0.105957
2809,17.5625,-0.0625,-38.9375,-0.2387695,-0.581543,-0.1015625,0.1357422,0.3198242,0.1069336
2813,18.75,-14.9375,-23.25,-0.1689453,-0.7910156,-0.1474609,0.1357422,0.324707,0.1069336
2817,32.1875,-23.9375,-4.75,-0.1459961,-0.8300781,-0.1821289,0.1333008,0.3310547,0.105957
2821,35.375,-29.75,1.0625,-0.08398438,-0.6435547,-0.1708984,0.1342773,0.3334961,0.105957
2825,32.125,-23.5,1.8125,-0.02197266,-0.6860352,-0.1362305,0.1357422,0.3374023,0.1030273
2830,30.25,-7.5,-0.5,0.02050781,-0.6938477,-0.1323242,0.1391602,0.3422852,0.09912109
2834,24.25,9.625,2.8125,-0.006347656,-0.7910156,-0.1552734,0.1391602,0.3447266,0.09912109
2838,24.875,22.375,14.375,-0.03320313,-1.094238,-0.3208008,0.1401367,0.347168,0.09765625
2842,50.875,24.5625,35.125,-0.1767578,-1.090332,-0.3129883,0.1425781,0.3510742,0.09619141
2846,60.125,17.6875,43.0625,-0.2890625,-0.8144531,-0.1860352,0.1474609,0.3525391,0.09228516
2850,47.8125,18.4375,17.4375,-0.3164063,-0.6630859,-0.1435547,0.1533203,0.3574219,0.08789063
2854,41.4375,39,-15.9375,-0.2851563,-0.8457031,-0.2167969,0.1557617,0.3623047,0.08251953
2858,53.5,59.625,-33.8125,-0.3046875,-1.241699,-0.3476563,0.1547852,0.3662109,0.08105469
2862,97.1875,30,6,-0.5488281,-1.133301,0.005859375,0.1508789,0.375,0.07568359
2866,95.8125,-14.625,31.0625,-0.4750977,-0.5073242,0.4829102,0.1582031,0.3813477,0.06103516
2870,54.875,-12.375,11,-0.3203125,-0.5541992,0.5175781,0.1616211,0.3837891,0.05664063
2874,42.25,11.875,1.5625,-0.2661133,-0.8183594,0.4829102,0.1650391,0.3896484,0.04882813
2878,35.25,28.875,1,-0.3007813,-0.7524414,0.3710938,0.1665039,0.3925781,0.04736328
2882,22,33.0625,1.6875,-0.362793,-0.6977539,0.3330078,0.1674805,0.3950195,0.04882813
2886,2.6875,26.6875,5.875,-0.4052734,-0.7016602,0.2558594,0.1674805,0.3959961,0.04736328
2890,-12.5625,17.5,5.9375,-0.3974609,-0.7329102,0.105957,0.1699219,0.3950195,0.05126953
2894,-18.5625,13.25,5.6875,-0.3549805,-0.8105469,-0.03222656,0.1713867,0.3950195,0.05517578
2898,-18.0625,6.625,7.75,-0.3666992,-0.8261719,-0.1669922,0.1699219,0.3935547,0.06103516
2902,-15.375,-1.875,5.0625,-0.347168,-0.7988281,-0.2475586,0.1713867,0.3935547,0.06347656
2906,-10.0625,-3.125,1.25,-0.3007813,-0.8613281,-0.2285156,0.1723633,0.3911133,0.06494141
2910,-6.0625,-5.5625,5,-0.2929688,-0.7988281,-0.109375,0.1713867,0.3911133,0.06787109
2914,-12.3125,-5.4375,5.3125,-0.3046875,-0.7832031,0.02099609,0.1738281,0.3886719,0.06787109
2918,-20.375,-6.8125,4.0625,-0.3393555,-0.6860352,0.08642578,0.1748047,0.387207,0.06884766
2922,-35.0625,-1.875,1,-0.2929688,-0.7524414,0.06738281,0.1738281,0.3837891,0.0703125
2926,-38.5,2.5625,-1.5625,-0.3085938,-0.7871094,-0.01318359,0.1723633,0.378418,0.07568359
2930,-38.9375,5,2.6875,-0.3320313,-0.8803711,-0.05126953,0.1713867,0.3774414,0.07861328
2934,-35.625,-2.1875,6.375,-0.4091797,-0.7832031,0.05175781,0.1723633,0.3725586,0.08251953
2938,-42.6875,-11.375,8.4375,-0.4521484,-0.6357422,0.1748047,0.1713867,0.3671875,0.08398438
2942,-57.9375,-21.25,5.125,-0.3549805,-0.3754883,0.2133789,0.1699219,0.3637695,0.08691406
2946,-77.4375,-6.3125,-7.5,-0.1342773,-0.5,0.04785156,0.1699219,0.355957,0.09082031
2950,-77.75,16.375,-8.5625,-0.1147461,-0.7290039,-0.1513672,0.1640625,0.3486328,0.1000977
2954,-63.25,22.5,3.75,-0.2773438,-0.7871094,-0.1630859,0.1630859,0.34375,0.105957
2959,-54.3125,4.5,12.9375,-0.4594727,-0.5776367,-0.02832031,0.1606445,0.3349609,0.1123047
2963,-65.625,-21.3125,9.75,-0.4594727,-0.3989258,0.06738281,0.1591797,0.3286133,0.1113281
2967,-85.375,-27.375,-1.875,-0.262207,-0.4414063,-0.01660156,0.1582031,0.3222656,0.1137695
2971,-101.875,-5.1875,-6.5625,-0.04882813,-0.7250977,-0.3286133,0.1557617,0.3164063,0.1206055
2975,-85.0625,21.875,4.25,-0.1069336,-1.121582,-0.5209961,0.1533203,0.3076172,0.1274414
2979,-47.1875,23.8125,21.9375,-0.3588867,-1.062988,-0.4824219,0.1508789,0.3022461,0.1303711
2983,-31.1875,0.25,31.4375,-0.5214844,-0.8920898,-0.3286133,0.1508789,0.293457,0.1313477
2987,-31.4375,-19.125,33,-0.4169922,-0.7250977,-0.2128906,0.1533203,0.2885742,0.1303711
2991,-41.625,-14.125,25.625,-0.328125,-0.8027344,-0.2436523,0.1547852,0.2836914,0.1313477
2995,-38.5625,-5.25,20.4375,-0.3125,-0.8686523,-0.2592773,0.1567383,0.2763672,0.1313477
2999,-38.875,2.375,23.3125,-0.3085938,-0.8535156,-0.3359375,0.1567383,0.2749023,0.1328125
3003,-29.25,4,26.1875,-0.4013672,-0.9077148,-0.3554688,0.1606445,0.2700195,0.1328125
3007,-17.6875,-7.9375,26.1875,-0.4829102,-0.8613281,-0.3398438,0.1591797,0.2651367,0.1357422
3011,-17.4375,-18.875,23.75,-0.4521484,-0.8105469,-0.2705078,0.1630859,0.2636719,0.1328125
3015,-23.375,-20.625,20.1875,-0.4169922,-0.8574219,-0.2861328,0.1640625,0.2587891,0.1303711
3019,-24,-12.3125,13.3125,-0.3393555,-0.9619141,-0.3515625,0.1650391,0.2548828,0.1303711
3023,-15.1875,-1.625,10.375,-0.328125,-0.9853516,-0.3706055,0.1665039,0.2509766,0.1303711
3027,-4.75,-1.625,13.9375,-0.3935547,-0.8725586,-0.3476563,0.1640625,0.25,0.1274414
3031,-2.3125,-9.375,17.6875,-0.4633789,-0.8261719,-0.2475586,0.1674805,0.2475586,0.1274414
3035,-8.9375,-14.8125,10.1875,-0.4672852,-0.8803711,-0.2553711,0.1674805,0.2451172,0.1259766
3039,-14.125,-13.5,1.75,-0.4365234,-0.9931641,-0.3012695,0.1674805,0.2436523,0.125
3043,-9.4375,-14.3125,0.125,-0.3935547,-1.05127,-0.359375,0.1689453,0.2412109,0.1220703
3047,0.0625,-14.25,3.125,-0.4013672,-0.9619141,-0.3515625,0.1674805,0.2387695,0.1220703
3051,6.25,-13.0625,0.75,-0.4287109,-0.8457031,-0.3208008,0.1689453,0.2373047,0.1206055
3055,3.1875,-12.8125,-6.5,-0.4790039,-0.8457031,-0.2670898,0.1674805,0.2387695,0.1191406
3059,-4.375,-11.9375,-18,-0.4365234,-0.8417969,-0.1743164,0.1674805,0.2373047,0.1166992
3063,-16.8125,-5.25,-27.8125,-0.4287109,-0.8959961,-0.1782227,0.1665039,0.2373047,0.1181641
3067,-20.875,-4.5,-31.1875,-0.4482422,-0.9038086,-0.1821289,0.1616211,0.2373047,0.1152344
3071,-25.0625,4.1875,-38.4375,-0.4091797,-0.7602539,-0.1743164,0.1591797,0.2373047,0.1181641
3075,-33,19.875,-51.625,-0.4091797,-0.7446289,-0.1821289,0.1567383,0.2363281,0.1191406
3079,-33.1875,32.9375,-63.375,-0.4130859,-0.9506836,-0.2553711,0.1499023,0.2373047,0.1235352
3083,-20.875,34,-61,-0.4594727,-1.016602,-0.3051758,0.1425781,0.2387695,0.1259766
3088,-9.6875,20.625,-53.125,-0.4711914,-0.9506836,-0.3012695,0.1367188,0.2387695,0.1259766
3092,-1.375,14.375,-53.625,-0.4130859,-0.8222656,-0.2978516,0.1333008,0.2397461,0.1274414
3096,2.625,8.25,-60.6875,-0.3823242,-0.7485352,-0.2436523,0.125,0.2387695,0.1274414
3100,7.25,0.875,-64.75,-0.3046875,-0.7641602,-0.2128906,0.1210938,0.2426758,0.1274414
3104,15.5,-0.75,-63.4375,-0.215332,-0.7641602,-0.1821289,0.1166992,0.2412109,0.1274414
3108,24.75,0.625,-60.4375,-0.1845703,-0.8300781,-0.2436523,0.1079102,0.2451172,0.1259766
3112,42.125,-1.3125,-62.75,-0.1845703,-0.9233398,-0.3051758,0.1044922,0.2451172,0.1235352
3116,56.75,-18.0625,-54.8125,-0.1264648,-0.9970703,-0.3745117,0.09863281,0.2485352,0.1181641
3120,63.4375,-30.375,-43.75,0.0009765625,-1.102051,-0.359375,0.09521484,0.2524414,0.1123047
3124,68.1875,-25.375,-23.6875,0.1210938,-1.195313,-0.3554688,0.09130859,0.2524414,0.1098633
3128,71.25,-10.625,-5.3125,0.1015625,-1.1875,-0.3515625,0.09033203,0.2539063,0.1030273
3132,68.125,4,6.4375,0.02441406,-1.167969,-0.3745117,0.09130859,0.2563477,0.09472656
3136,63.6875,18.75,5.625,-0.05273438,-1.300293,-0.3823242,0.09033203,0.2563477,0.09326172
3140,62.375,17.25,13.6875,-0.1806641,-1.34668,-0.394043,0.09033203,0.2573242,0.08691406
3144,62.1875,14.75,24.0625,-0.215332,-1.381836,-0.3823242,0.09130859,0.2573242,0.08398438
3148,65.6875,14,30.5625,-0.2890625,-1.34668,-0.359375,0.09130859,0.2587891,0.07568359
3152,63.9375,11.75,29.5625,-0.3666992,-1.319336,-0.3012695,0.09375,0.2587891,0.07177734
3156,58.875,5.6875,27.4375,-0.3745117,-1.42041,-0.3129883,0.09765625,0.2587891,0.06640625
3160,54.5625,5,23.9375,-0.3823242,-1.144531,-0.1245117,0.09619141,0.2587891,0.06103516
3164,34.4375,8.375,7,-0.3432617,-1.144531,-0.112793,0.09863281,0.2573242,0.05810547
3168,26.5,10.8125,0.6875,-0.362793,-1.269043,-0.1708984,0.09863281,0.2612305,0.05664063
3172,26.125,7.1875,4.5625,-0.3393555,-1.257324,-0.1401367,0.09863281,0.2587891,0.05419922
3176,21.4375,5.5,6.375,-0.347168,-1.210938,-0.1015625,0.1010742,0.2587891,0.05273438
3180,14.8125,-0.8125,3.875,-0.3666992,-1.129395,-0.02441406,0.09863281,0.2573242,0.04736328
3184,3.75,-4.5,-2.8125,-0.3393555,-1.090332,0.02880859,0.09960938,0.2612305,0.04980469
3188,-4.875,-7.75,-11.4375,-0.3046875,-1.121582,0.02490234,0.09863281,0.2587891,0.04980469
3192,-10,-6.1875,-11.125,-0.2426758,-1.183594,0.03662109,0.09960938,0.2587891,0.04736328
3196,-14.75,-5.6875,-8.25,-0.2504883,-1.183594,0.03662109,0.09863281,0.262207,0.04980469
3200,-19.125,-8.375,-8.9375,-0.2890625,-1.175781,0.02490234,0.09960938,0.2597656,0.04980469
3204,-23.1875,-15.0625,-10.5,-0.2929688,-1.160156,0.02880859,0.09863281,0.2612305,0.05273438
3208,-28.375,-22.375,-10.1875,-0.2890625,-1.140625,0.001953125,0.09765625,0.2597656,0.05419922
3212,-33.875,-27.375,-11.5625,-0.2543945,-1.148438,-0.02050781,0.09863281,0.2597656,0.05273438
3217,-34.6875,-23.5,-12.125,-0.230957,-1.203125,-0.05908203,0.09765625,0.2636719,0.05810547
3221,-33.625,-16,-14,-0.2504883,-1.195313,-0.06689453,0.09619141,0.2597656,0.06103516
3225,-34,-9.4375,-16.875,-0.2583008,-1.1875,-0.08984375,0.09765625,0.2612305,0.06103516
3229,-34.625,-1.4375,-21.25,-0.2773438,-1.195313,-0.1323242,0.09619141,0.2612305,0.06494141
3233,-33.8125,2.25,-24.8125,-0.3203125,-1.22998,-0.1860352,0.09375,0.2612305,0.06640625
3237,-29.25,-0.75,-25.25,-0.3354492,-1.253418,-0.2436523,0.09375,0.262207,0.0703125
3241,-23.5,-4.125,-23.25,-0.3164063,-1.257324,-0.2705078,0.09130859,0.2651367,0.07177734
3245,-19.5,-7.3125,-16.875,-0.3046875,-1.21875,-0.2822266,0.09033203,0.2661133,0.07324219
3249,-21.875,-15.625,-10.875,-0.3203125,-1.148438,-0.2705078,0.08886719,0.2661133,0.07568359
3253,-25,-25.25,-5.9375,-0.2929688,-1.148438,-0.2592773,0.09033203,0.2675781,0.07861328
3257,-25.9375,-29.375,-7.3125,-0.2119141,-1.102051,-0.2397461,0.09277344,0.2709961,0.07714844
3261,-30.375,-20.8125,-12.0625,-0.1420898,-1.098145,-0.2514648,0.09130859,0.2709961,0.08007813
3265,-32,-9,-13.0625,-0.1303711,-1.125488,-0.2861328,0.09277344,0.2709961,0.08398438
3269,-27.375,-3.875,-8.5,-0.1923828,-1.15625,-0.2939453,0.09130859,0.2709961,0.08691406
3273,-19.5625,-9,-3.5,-0.2387695,-1.175781,-0.2822266,0.09033203,0.2749023,0.09082031
3277,-10.625,-18.3125,1.1875,-0.2504883,-1.105957,-0.2631836,0.09277344,0.2749023,0.09082031
3281,-8.6875,-28.1875,2.9375,-0.1923828,-1.008789,-0.2363281,0.09375,0.2749023,0.09082031
3285,-9.9375,-27.625,0.625,-0.1030273,-0.9389648,-0.1977539,0.09521484,0.2797852,0.09228516
3289,-12.0625,-16.3125,-1.125,-0.01025391,-0.9155273,-0.1630859,0.09765625,0.2797852,0.09228516
3293,-15.3125,1.125,-1.4375,0.0009765625,-0.9541016,-0.1474609,0.09619141,0.2797852,0.09472656
3297,-14.625,8.625,2.1875,-0.1069336,-0.9775391,-0.2128906,0.09765625,0.28125,0.09765625
3301,-8.5,4.8125,4.6875,-0.1767578,-0.9506836,-0.2705078,0.09765625,0.2851563,0.1015625
3305,-4.75,2.0625,3.75,-0.1767578,-0.9892578,-0.309082,0.09765625,0.2861328,0.1030273
3309,6.6875,-0.5625,6.0625,-0.2041016,-1.094238,-0.2822266,0.09960938,0.2875977,0.1015625
3313,18.25,-6.6875,14.9375,-0.2270508,-1.008789,-0.2285156,0.09960938,0.2910156,0.1044922
3317,19.875,-12.125,19.875,-0.2543945,-0.8725586,-0.128418,0.1020508,0.2924805,0.1030273
3321,12.375,-17.5625,13.75,-0.2734375,-0.7949219,-0.05908203,0.105957,0.293457,0.1015625
3325,2.5625,-19.3125,7.8125,-0.2231445,-0.7485352,-0.08984375,0.1079102,0.2973633,0.1015625
3329,-4.5625,-12.125,1.75,-0.1303711,-0.8378906,-0.1938477,0.1103516,0.2988281,0.105957
3333,3.25,1.625,1.0625,-0.08007813,-1.000977,-0.3168945,0.1118164,0.3012695,0.1069336
3337,24.625,11.375,6.6875,-0.1767578,-1.040039,-0.324707,0.1118164,0.3022461,0.1083984
3341,35.75,5.5625,12.3125,-0.2080078,-0.9233398,-0.3359375,0.1103516,0.3061523,0.1069336
3346,40.3125,-2.9375,15.125,-0.2041016,-0.7329102,-0.2436523,0.112793,0.3110352,0.1044922
3350,38.8125,-10.1875,12.4375,-0.2387695,-0.565918,-0.1015625,0.1166992,0.3164063,0.1044922
3354,24.5,-19.25,-4.3125,-0.2426758,-0.4726563,-0.05126953,0.1176758,0.3173828,0.1030273
3358,11.3125,-25.375,-22.9375,-0.2041016,-0.6240234,-0.1166992,0.1186523,0.3222656,0.1000977
3362,17.875,-21.6875,-31.625,-0.04101563,-0.9853516,-0.2397461,0.1176758,0.3276367,0.09912109
3366,44.6875,-7.3125,-12.1875,0.03564453,-1.059082,-0.2783203,0.1166992,0.3310547,0.1015625
3370,63.75,-6.125,22.5,-0.01416016,-0.9736328,-0.2246094,0.1176758,0.3374023,0.09472656
3374,75.25,-14,47.75,-0.08398438,-0.7910156,-0.09765625,0.1210938,0.34375,0.08935547
3378,67.6875,-21,54.375,-0.1381836,-0.565918,0.005859375,0.1269531,0.3447266,0.08691406
3382,52.9375,-19,40.3125,-0.1069336,-0.550293,0.1020508,0.1376953,0.3510742,0.07714844
3386,44.375,-6.1875,23.6875,-0.06445313,-0.5966797,0.09033203,0.1425781,0.3549805,0.07177734
3390,41.4375,5,20.625,-0.1147461,-0.7680664,-0.009277344,0.1474609,0.355957,0.06884766
3394,44.5,7.875,27.375,-0.1689453,-0.7832031,-0.07861328,0.1499023,0.3588867,0.06640625
3398,45.125,2.9375,38.0625,-0.2583008,-0.8496094,-0.1015625,0.1557617,0.3613281,0.06103516
3402,50.5,-14.75,51.75,-0.3706055,-0.8378906,-0.07080078,0.1591797,0.3623047,0.05810547
3406,49.75,-35.375,57.8125,-0.3242188,-0.7329102,-0.02050781,0.1699219,0.3637695,0.04980469
3410,40.625,-42.9375,52.3125,-0.230957,-0.5229492,0.1479492,0.1782227,0.3637695,0.04296875
3414,18.1875,-22,28.625,-0.08007813,-0.4609375,0.1904297,0.1831055,0.3637695,0.03759766
3418,3.5,9.4375,17.9375,-0.1533203,-0.7250977,0.1289063,0.1889648,0.3613281,0.03515625
3422,7.9375,23.3125,17.6875,-0.3046875,-0.8183594,0.1210938,0.1904297,0.3637695,0.03613281
3426,6.5625,19.875,19.8125,-0.4248047,-0.7524414,0.1367188,0.1928711,0.3613281,0.03759766
3430,-4.5,7.0625,18.75,-0.4672852,-0.6162109,0.1518555,0.1948242,0.3588867,0.03515625
3434,-18.875,0.125,10.75,-0.4443359,-0.7524414,0.07128906,0.1987305,0.355957,0.03759766
3438,-17.6875,0,7.125,-0.4013672,-0.8417969,0.06347656,0.1972656,0.3549805,0.04052734
3442,-18.5,4.1875,7.5625,-0.3588867,-0.7988281,0.07519531,0.199707,0.3510742,0.04296875
3446,-23.5,8.5625,5.6875,-0.3935547,-0.7680664,0.07910156,0.1972656,0.3486328,0.04443359
3450,-28.4375,7.4375,1.625,-0.3935547,-0.7563477,0.08251953,0.1987305,0.3461914,0.04736328
3454,-35.5625,7.0625,-1.9375,-0.3666992,-0.7641602,0.04785156,0.1972656,0.3447266,0.05126953
3458,-39.125,10.6875,-4.0625,-0.3320313,-0.7988281,0.009765625,0.1962891,0.3422852,0.05517578
3462,-38.9375,16.875,-5.6875,-0.328125,-0.8378906,-0.07080078,0.1938477,0.3388672,0.05957031
3466,-33.5625,18.375,-4.8125,-0.378418,-0.8417969,-0.1015625,0.1928711,0.3359375,0.06347656
3470,-31.5625,12.75,-4.25,-0.378418,-0.8144531,-0.0859375,0.1904297,0.3310547,0.06787109
3475,-31.625,8.625,-1.25,-0.362793,-0.8339844,-0.05908203,0.1865234,0.3300781,0.0703125
3479,-33.375,4.0625,0.8125,-0.3510742,-0.7602539,-0.07861328,0.1865234,0.324707,0.07421875
3483,-36.0625,4.875,0.375,-0.3242188,-0.7871094,-0.1166992,0.1855469,0.3222656,0.07714844
3487,-33.8125,6,-1.25,-0.3432617,-0.7949219,-0.1245117,0.1831055,0.3212891,0.07861328
3491,-33.0625,8.6875,0.0625,-0.3203125,-0.8261719,-0.1323242,0.1806641,0.3149414,0.08007813
3495,-29.4375,12.0625,5.1875,-0.3320313,-0.7910156,-0.07080078,0.1796875,0.3134766,0.08398438
3499,-30.4375,11.9375,7.375,-0.3125,-0.7094727,-0.08203125,0.1782227,0.3110352,0.08544922
3503,-38.625,17.4375,6.875,-0.3007813,-0.7407227,-0.1166992,0.1796875,0.3061523,0.08691406
3507,-38.125,19.875,8.0625,-0.347168,-0.8574219,-0.1669922,0.1748047,0.3022461,0.09228516
3511,-28.9375,18.3125,11.75,-0.3510742,-0.8535156,-0.1860352,0.1757813,0.2998047,0.09326172
3515,-22.5,19.3125,20.75,-0.2851563,-0.8261719,-0.1401367,0.1757813,0.2949219,0.09472656
3519,-19.75,19.3125,34.6875,-0.2661133,-0.7680664,-0.0859375,0.1772461,0.2910156,0.09619141
3523,-27.625,26.375,43.1875,-0.2041016,-0.6787109,-0.03222656,0.1782227,0.2875977,0.09765625
3527,-40.1875,45.625,37.5625,-0.1767578,-0.8222656,-0.08203125,0.1782227,0.2822266,0.1000977
3531,-39.5,62.8125,39.75,-0.262207,-0.8920898,-0.2167969,0.1796875,0.2739258,0.1044922
3535,-38.875,60.25,39.875,-0.4208984,-0.8881836,-0.324707,0.1782227,0.2724609,0.1098633
3539,-26.1875,45.6875,41.75,-0.4711914,-0.8764648,-0.3208008,0.1782227,0.2661133,0.1137695
3543,-26.625,28.0625,40.625,-0.4907227,-0.7832031,-0.3325195,0.1782227,0.2612305,0.1166992
3547,-32.4375,21.4375,37.5625,-0.4711914,-0.9077148,-0.3398438,0.1806641,0.2563477,0.1181641
3551,-22.5625,24.5625,33.375,-0.4711914,-0.9892578,-0.3476563,0.1806641,0.2509766,0.1191406
3555,-10,27.4375,30.0625,-0.5214844,-0.9931641,-0.3666992,0.184082,0.2485352,0.1220703
3559,2.125,22.6875,26.625,-0.5722656,-0.8764648,-0.3208008,0.1821289,0.2451172,0.1235352
3563,7.875,13.4375,21.875,-0.5834961,-0.7602539,-0.2363281,0.184082,0.2412109,0.1206055
3567,-0.75,6.0625,12.375,-0.5644531,-0.6435547,-0.1435547,0.184082,0.2412109,0.1206055
3571,-12,6.875,7.5,-0.5332031,-0.8261719,-0.2055664,0.184082,0.2412109,0.1191406
3575,-1.8125,10.6875,9.9375,-0.5332031,-0.9580078,-0.2900391,0.1831055,0.2348633,0.1191406
3579,10.8125,15.25,7.25,-0.4868164,-0.8496094,-0.2978516,0.1831055,0.2363281,0.1166992
3583,8.875,20.9375,-7.125,-0.4711914,-0.7368164,-0.2475586,0.1806641,0.2348633,0.1166992
3587,-1.8125,18.6875,-17.625,-0.4829102,-0.6513672,-0.1821289,0.1796875,0.2348633,0.1181641
3591,-25,8.125,-26.0625,-0.4946289,-0.7792969,-0.2397461,0.1772461,0.2348633,0.1181641
3595,-23.75,-15.125,-14.4375,-0.5952148,-0.9155273,-0.2861328,0.1738281,0.2338867,0.1191406
3599,-15.25,-41.8125,-17.5625,-0.7270508,-0.7792969,-0.359375,0.1738281,0.2324219,0.1206055
3604,-16.25,-65.9375,-13.1875,-0.5141602,-0.9038086,-0.3476563,0.1738281,0.2314453,0.1181641
3608,-12.375,-74,-7,-0.3588867,-0.8959961,-0.3012695,0.1748047,0.2299805,0.1152344
3612,-6.5,-65.5,2.5,-0.1923828,-0.9233398,-0.2553711,0.1772461,0.2285156,0.1123047
3616,1.9375,-37.625,8.8125,-0.1767578,-0.8378906,-0.2167969,0.1782227,0.2275391,0.1069336
3620,4.5,-15.6875,0.75,-0.3085938,-0.8417969,-0.2128906,0.1782227,0.2260742,0.105957
3624,4.25,-11.4375,-10.9375,-0.3974609,-0.8339844,-0.1938477,0.1782227,0.2236328,0.1030273
3628,-4,-18.375,-17.3125,-0.3862305,-0.8339844,-0.1938477,0.1782227,0.2260742,0.1030273
3632,-3.75,-18.25,-20.3125,-0.3125,-0.9233398,-0.2397461,0.1748047,0.2275391,0.1015625
3636,7.3125,-5.875,-18.4375,-0.3125,-0.9775391,-0.2744141,0.1738281,0.2236328,0.1015625
3640,17.0625,8.625,-20,-0.4052734,-0.9814453,-0.2744141,0.1699219,0.2260742,0.09765625
3644,15.75,7.25,-21.375,-0.4750977,-0.9580078,-0.2363281,0.1699219,0.2260742,0.09765625
3648,16.6875,1.4375,-22.3125,-0.4633789,-0.9814453,-0.2285156,0.1674805,0.2260742,0.09619141
3652,17.0625,3.4375,-22.625,-0.378418,-0.9814453,-0.2324219,0.1640625,0.2275391,0.09326172
3656,16.75,15.5625,-16.375,-0.3745117,-1.02832,-0.3012695,0.1606445,0.2260742,0.09472656
3660,19.75,22.625,-11.375,-0.4482422,-1.078613,-0.3286133,0.1591797,0.2285156,0.09326172
3664,26.125,22.875,-8.9375,-0.4711914,-1.094238,-0.34375,0.1557617,0.2285156,0.09326172
3668,30.6875,21.875,-5.25,-0.4594727,-1.036133,-0.3168945,0.1547852,0.2285156,0.09228516
3672,28.6875,20.625,-1.5,-0.4594727,-1.000977,-0.3168945,0.1533203,0.2299805,0.09082031
3676,29.5,23.375,-1,-0.5102539,-1.012695,-0.3359375,0.1508789,0.2299805,0.08935547
3680,30.5,18.625,-5.1875,-0.6069336,-1.032227,-0.34375,0.1523438,0.2299805,0.08935547
3684,30.9375,4.75,-11.1875,-0.5874023,-1.020508,-0.2939453,0.1484375,0.2285156,0.08544922
3688,25.25,-7.375,-19.6875,-0.4521484,-1.024414,-0.2744141,0.1474609,0.2314453,0.08544922
3692,21.6875,-9.5,-20.1875,-0.28125,-1.160156,-0.2978516,0.1459961,0.2338867,0.08251953
3696,24.75,-2.4375,-12.5,-0.262207,-1.214844,-0.2705078,0.144043,0.2324219,0.08007813
3700,25.5625,2.125,-12.125,-0.362793,-1.152344,-0.2285156,0.1450195,0.2348633,0.07568359
3704,21.5,1.4375,-15.0625,-0.4750977,-1.129395,-0.2016602,0.144043,0.2363281,0.07714844
3708,15.75,-4.9375,-18.1875,-0.5214844,-1.125488,-0.1743164,0.1416016,0.2363281,0.07421875
3712,7.5,-11.0625,-20.125,-0.5371094,-1.094238,-0.1362305,0.1401367,0.2373047,0.07324219
3716,0.25,-15.3125,-23.3125,-0.5292969,-1.102051,-0.1166992,0.1401367,0.2373047,0.0703125
3720,-3.9375,-15.6875,-23.4375,-0.4404297,-1.125488,-0.08203125,0.1401367,0.2397461,0.07177734
3724,-7.6875,-4,-24.6875,-0.3549805,-1.11377,-0.05908203,0.1367188,0.2412109,0.0703125
3728,-11.6875,7.5,-25.25,-0.4091797,-1.129395,-0.07080078,0.1357422,0.2426758,0.07324219
3733,-15.875,5.5,-24.5625,-0.4521484,-1.129395,-0.0859375,0.1333008,0.2426758,0.07421875
3737,-20.5,-0.4375,-23.3125,-0.4248047,-1.11377,-0.0859375,0.1308594,0.2436523,0.07568359
3741,-27.4375,-2.375,-21.3125,-0.3901367,-1.109863,-0.1166992,0.1293945,0.2426758,0.07714844
3745,-31.75,-2.3125,-20.625,-0.3935547,-1.105957,-0.1206055,0.1259766,0.2451172,0.08007813
3749,-35.875,0.5625,-22.5625,-0.362793,-1.148438,-0.1552734,0.1259766,0.2451172,0.08398438
3753,-36.8125,9.4375,-23.5625,-0.3046875,-1.195313,-0.1782227,0.1235352,0.2436523,0.08544922
3757,-38.0625,16.5625,-20.0625,-0.2851563,-1.233887,-0.2436523,0.1225586,0.2451172,0.09228516
3761,-34.5,25.5,-14.5625,-0.3007813,-1.276855,-0.2900391,0.1201172,0.2451172,0.09472656
3765,-32.4375,28.5625,-11.3125,-0.3706055,-1.133301,-0.2978516,0.1201172,0.2451172,0.09619141
3769,-36.0625,27.6875,-16.5625,-0.4443359,-1.086426,-0.34375,0.1166992,0.2475586,0.1000977
3773,-39.75,12.5,-19.8125,-0.5024414,-1.117676,-0.4169922,0.1142578,0.2460938,0.105957
3777,-36.4375,-5.5625,-19.4375,-0.3823242,-1.249512,-0.4785156,0.112793,0.2460938,0.1083984
3781,-25.6875,-5.5625,-12.1875,-0.2700195,-1.29248,-0.4667969,0.1142578,0.2475586,0.1123047
3785,-15.9375,1.3125,-5.8125,-0.2773438,-1.26123,-0.4169922,0.1152344,0.2475586,0.1181641
3789,-8.375,5.4375,-0.75,-0.3046875,-1.152344,-0.3632813,0.1118164,0.2485352,0.1166992
3793,-7.75,4.875,2.0625,-0.3164063,-1.036133,-0.3398438,0.1142578,0.25,0.1191406
3797,-10.5,5.625,-0.5,-0.328125,-0.9428711,-0.3168945,0.1152344,0.25,0.1206055
3801,-16.5,6.8125,-12.1875,-0.3432617,-0.8457031,-0.3129883,0.112793,0.2509766,0.1220703
3805,-25.5625,2.9375,-20.25,-0.3432617,-0.8496094,-0.3325195,0.112793,0.2539063,0.1259766
3809,-30.0625,-0.9375,-20.8125,-0.230957,-0.9541016,-0.394043,0.1118164,0.2539063,0.1289063
3813,-19.6875,5.875,-17.0625,-0.1303711,-1.08252,-0.4594727,0.109375,0.2539063,0.1289063
3817,-6,12,-6.0625,-0.1186523,-1.090332,-0.5014648,0.1103516,0.2563477,0.1342773
3821,4.5,8.4375,8.9375,-0.2231445,-1.040039,-0.4975586,0.109375,0.2587891,0.1357422
3825,11.1875,-0.125,12.25,-0.1845703,-0.8999023,-0.4091797,0.1103516,0.2587891,0.137207
3829,5,13.3125,2.1875,-0.1225586,-0.8066406,-0.4130859,0.112793,0.2612305,0.1381836
3833,5.5625,28.3125,-5.9375,-0.1225586,-0.9116211,-0.4321289,0.1103516,0.2636719,0.1381836
3837,12.875,45.8125,-4.6875,-0.1611328,-0.9428711,-0.4785156,0.1103516,0.2651367,0.1425781
3841,14.8125,41.5625,3.3125,-0.3549805,-0.8378906,-0.4130859,0.109375,0.2685547,0.1425781
3845,5.4375,16.625,6.625,-0.4169922,-0.6396484,-0.2744141,0.1079102,0.2700195,0.1425781
3849,-8.4375,11.9375,-10.6875,-0.2700195,-0.6435547,-0.2207031,0.1079102,0.2709961,0.1464844
3853,-8.75,37.375,-36.5625,-0.09912109,-0.8457031,-0.309082,0.105957,0.2763672,0.1508789
3857,6.0625,70.6875,-44.5,-0.1225586,-1.040039,-0.3706055,0.09960938,0.2788086,0.1533203
3862,19.875,63,-27.5,-0.296875,-1.15625,-0.378418,0.09521484,0.2797852,0.15625
3866,34.5625,32.1875,0.5625,-0.2231445,-1.062988,-0.3476563,0.09033203,0.2851563,0.1572266
3870,44.6875,17.875,19.875,-0.09521484,-0.8027344,-0.1552734,0.09130859,0.2885742,0.1586914
3874,38.25,23.5625,22.6875,0.05908203,-0.7719727,-0.09765625,0.09033203,0.2910156,0.1586914
3878,39.3125,37.4375,28.0625,0.01660156,-0.8027344,-0.04394531,0.09375,0.2973633,0.1572266
3882,39.8125,42.4375,33,-0.04492188,-0.7988281,-0.1245117,0.09375,0.3022461,0.1572266
3886,38.875,36.8125,33.9375,-0.1533203,-0.7368164,-0.1513672,0.09521484,0.3037109,0.15625
3890,40.3125,26.25,38.8125,-0.2080078,-0.7524414,-0.128418,0.09765625,0.3061523,0.1547852
3894,40.875,17.375,38.875,-0.1884766,-0.6083984,-0.07861328,0.1010742,0.3125,0.1518555
3898,31.75,17.75,25.875,-0.2387695,-0.4960938,-0.05908203,0.105957,0.3149414,0.1533203
3902,20.4375,20.5625,9.1875,-0.2001953,-0.7094727,-0.2553711,0.1069336,0.3188477,0.1547852
3906,33.1875,25.1875,5.25,-0.1767578,-0.9619141,-0.4052734,0.1069336,0.3198242,0.1547852
3910,49.875,17.3125,14.0625,-0.2851563,-0.7485352,-0.2939453,0.1079102,0.3237305,0.1547852
3914,39.3125,0.8125,8.9375,-0.3085938,-0.550293,-0.1743164,0.1069336,0.3300781,0.1518555
3918,26.125,-3,-7.375,-0.246582,-0.6938477,-0.2089844,0.1079102,0.3334961,0.1479492
3922,29.625,4,-17.3125,-0.08007813,-0.9970703,-0.3706055,0.1079102,0.3349609,0.1494141
3926,48.6875,9.3125,3.5,-0.08007813,-1.036133,-0.2939453,0.1069336,0.3398438,0.1464844
3930,52.4375,5.9375,27.3125,-0.1689453,-0.7290039,-0.08203125,0.1103516,0.3461914,0.1425781
3934,32.75,3.1875,26.6875,-0.3046875,-0.5737305,0.06347656,0.112793,0.347168,0.1411133
3938,15.8125,2.1875,14.8125,-0.3549805,-0.7250977,0.03271484,0.1176758,0.3500977,0.137207
3942,12,-0.0625,8.3125,-0.3007813,-0.7250977,-0.05126953,0.1186523,0.3525391,0.1357422
3946,7.6875,4.6875,5.6875,-0.2583008,-0.7910156,-0.1323242,0.1186523,0.3525391,0.1357422
3950,9.375,-2.25,7.4375,-0.362793,-0.7871094,-0.1821289,0.1210938,0.3549805,0.1357422
3954,6.75,-20,6.0625,-0.3974609,-0.7602539,-0.1245117,0.1235352,0.3549805,0.1342773
3958,0.0625,-23.25,4.75,-0.246582,-0.8183594,-0.1474609,0.125,0.3549805,0.1357422
3962,0.375,-14.9375,5,-0.230957,-0.7910156,-0.1323242,0.1259766,0.3535156,0.1342773
3966,-6.4375,-10.375,2.625,-0.246582,-0.8535156,-0.2363281,0.128418,0.3549805,0.1342773
3970,-1,-12.5625,2.4375,-0.2661133,-0.8764648,-0.2436523,0.128418,0.3535156,0.1357422
3974,-1.125,-12.25,5.8125,-0.2504883,-0.9038086,-0.1782227,0.1308594,0.3535156,0.1328125
3978,-1.375,-10,12.3125,-0.2661133,-0.8457031,-0.07861328,0.1318359,0.3510742,0.1313477
3982,-7.0625,-3.5,12,-0.3046875,-0.7602539,-0.02832031,0.1333008,0.3510742,0.1313477
3986,-18.25,1.875,5.3125,-0.3432617,-0.7329102,-0.04003906,0.1342773,0.3510742,0.1313477
3991,-26.375,1.625,-2.6875,-0.3823242,-0.7910156,-0.1166992,0.1342773,0.3461914,0.1328125
3995,-24,-5.9375,-4.375,-0.3935547,-0.8574219,-0.128418,0.1333008,0.3447266,0.1357422
3999,-23.1875,-14.875,-2.5625,-0.3510742,-0.7719727,-0.05908203,0.1333008,0.3398438,0.1357422
4003,-27.875,-18.125,-1.3125,-0.328125,-0.6860352,0.005859375,0.1318359,0.3359375,0.1381836
4007,-36.75,-17.1875,0.375,-0.2773438,-0.6708984,0.001953125,0.1333008,0.3334961,0.1381836
4011,-45.5625,-12.8125,-2.1875,-0.2734375,-0.6591797,-0.1015625,0.1333008,0.3300781,0.1396484
4015,-47.9375,-11.9375,-6.75,-0.2661133,-0.7832031,-0.2670898,0.1293945,0.324707,0.1425781
4019,-36.375,-20.125,-1.5,-0.296875,-0.7792969,-0.2363281,0.1318359,0.3222656,0.144043
4023,-31.6875,-31.125,6.3125,-0.262207,-0.7368164,-0.1401367,0.1293945,0.3164063,0.144043
4027,-30.8125,-36.5,16.1875,-0.2700195,-0.6435547,-0.02832031,0.1318359,0.3110352,0.144043
4031,-50,-25.375,10.5625,-0.06054688,-0.5424805,-0.1782227,0.1318359,0.3085938,0.144043
4035,-58.1875,7.6875,7.9375,-0.1186523,-0.8417969,-0.3476563,0.1342773,0.2998047,0.1450195
4039,-44.6875,10.25,8.875,-0.3242188,-0.8647461,-0.5092773,0.1333008,0.2963867,0.1494141
4043,-31.3125,-8.3125,12.3125,-0.4594727,-0.8496094,-0.4628906,0.1333008,0.2910156,0.1508789
4047,-18.25,-33.25,17.3125,-0.4555664,-0.8999023,-0.34375,0.1333008,0.2885742,0.1494141
4051,-10.25,-46.4375,24.125,-0.3588867,-0.7641602,-0.1630859,0.1357422,0.2836914,0.1479492
4055,-18.5,-44.9375,26.1875,-0.3007813,-0.6201172,-0.0859375,0.1376953,0.2797852,0.1450195
4059,-33,-30.25,16.5625,-0.2700195,-0.5927734,-0.1513672,0.144043,0.2773438,0.1425781
4063,-44.5625,-5.9375,-1.6875,-0.2700195,-0.7485352,-0.378418,0.1425781,0.2700195,0.1425781
4067,-35,3.0625,-14.25,-0.4287109,-0.9619141,-0.4746094,0.144043,0.2685547,0.144043
4071,-15.625,-12.1875,-10.3125,-0.4750977,-0.9467773,-0.4169922,0.1416016,0.2651367,0.1450195
4075,-8.8125,-27.75,-5.1875,-0.4130859,-0.8300781,-0.359375,0.1391602,0.2651367,0.144043
4079,-10.875,-30,-4.4375,-0.3007813,-0.7832031,-0.2592773,0.1416016,0.2636719,0.144043
4083,-17.5,-16.4375,-12.4375,-0.2119141,-0.7719727,-0.309082,0.1401367,0.2597656,0.1396484
4087,-23.75,0,-21.75,-0.2583008,-0.8881836,-0.4360352,0.1376953,0.2587891,0.1396484
4091,-10.75,-2.125,-22.0625,-0.378418,-1.032227,-0.5361328,0.1367188,0.2573242,0.1411133
4095,3.5625,-18.6875,-20.75,-0.4594727,-0.9350586,-0.4863281,0.1333008,0.2573242,0.137207
4099,3.625,-35.8125,-25.25,-0.3588867,-0.9038086,-0.4746094,0.1333008,0.2563477,0.1357422
4103,4.125,-37.375,-27.5625,-0.215332,-1.032227,-0.5014648,0.1333008,0.2573242,0.1313477
4107,13.25,-27.625,-27.5625,-0.06835938,-1.047363,-0.5439453,0.1308594,0.2573242,0.1289063
4111,19.75,-9.6875,-21.8125,-0.1186523,-1.016602,-0.5400391,0.1308594,0.2573242,0.1274414
4115,28.625,-9.6875,-19.5,-0.3203125,-1.000977,-0.5668945,0.128418,0.2587891,0.125
4120,39.625,-31.8125,-24.625,-0.4365234,-0.9970703,-0.5014648,0.1269531,0.262207,0.1235352
4124,46.25,-54.625,-23.3125,-0.3242188,-0.9697266,-0.3666992,0.1269531,0.262207,0.1137695
4128,46.9375,-56,-19.25,-0.1069336,-0.9272461,-0.1821289,0.1259766,0.262207,0.1069336
4132,45.5625,-31.9375,-15.75,-0.002441406,-0.8959961,-0.03613281,0.1259766,0.2636719,0.1000977
4136,36.625,-9.8125,-14.125,-0.1264648,-0.8686523,0.005859375,0.125,0.2651367,0.09472656
4140,28.125,-3.4375,-12.6875,-0.246582,-0.9155273,-0.01318359,0.1259766,0.2661133,0.09082031
4144,27.3125,-9.5625,-7.125,-0.3242188,-1.036133,-0.04394531,0.125,0.2661133,0.08789063
4148,31.875,-19.8125,2.8125,-0.3085938,-1.090332,0.009765625,0.1235352,0.2651367,0.08398438
4152,35.1875,-21.9375,8.8125,-0.2583008,-1.036133,0.125,0.125,0.2675781,0.08105469
4156,25.875,-16,9.375,-0.2270508,-0.9541016,0.2211914,0.125,0.2636719,0.07421875
4160,16.1875,-3.9375,10,-0.246582,-0.9736328,0.2709961,0.1269531,0.2636719,0.07177734
4164,9.1875,7.875,5.875,-0.3510742,-1.012695,0.2329102,0.128418,0.262207,0.07177734
4168,3.625,7.4375,3.125,-0.4482422,-1.05127,0.1748047,0.1259766,0.2612305,0.0703125
4172,5.1875,-4.5625,4.1875,-0.4790039,-1.105957,0.1171875,0.1259766,0.2597656,0.0703125
4176,12.0625,-20.625,7.625,-0.4711914,-1.074707,0.09423828,0.125,0.2587891,0.07177734
4180,19.25,-37.375,11.125,-0.4443359,-1.117676,0.05957031,0.1259766,0.2587891,0.06884766
4184,30.125,-46.375,16.875,-0.378418,-1.183594,-0.009277344,0.1269531,0.2587891,0.06494141
4188,38.375,-49.5625,26.1875,-0.3432617,-1.191406,-0.04736328,0.1269531,0.2573242,0.06347656
4192,40.4375,-51.625,35.0625,-0.3354492,-1.109863,-0.07861328,0.1308594,0.2539063,0.05664063
4196,34.875,-51.5625,38.4375,-0.3320313,-1.047363,-0.08203125,0.1342773,0.2548828,0.05419922
4200,25.375,-44.25,34,-0.28125,-0.9814453,-0.0859375,0.1367188,0.2509766,0.04882813
4204,11.0625,-29.625,26.625,-0.2661133,-0.9931641,-0.0859375,0.1367188,0.2509766,0.04736328
4208,-8.0625,-12.4375,18.6875,-0.246582,-1.020508,-0.112793,0.1391602,0.2485352,0.04589844
4212,-22.8125,5.8125,18.25,-0.2543945,-1.070801,-0.1669922,0.1425781,0.25,0.04736328
4216,-32.8125,20.4375,20.5,-0.3164063,-1.133301,-0.2670898,0.1416016,0.2451172,0.05126953
4220,-34.5625,29.0625,23.8125,-0.4208984,-1.195313,-0.3666992,0.1416016,0.2451172,0.05517578
4224,-29.875,28.0625,17.8125,-0.5175781,-1.22998,-0.4282227,0.1425781,0.2426758,0.05810547
4228,-22.9375,18.8125,6.375,-0.5527344,-1.245605,-0.4594727,0.1425781,0.2412109,0.06201172
4232,-19.3125,8.4375,1.3125,-0.4672852,-1.175781,-0.4321289,0.1416016,0.2397461,0.06494141
4236,-21.3125,7.1875,1.6875,-0.3974609,-1.140625,-0.4248047,0.1416016,0.2397461,0.06640625
4240,-22.25,9.9375,1.8125,-0.3901367,-1.160156,-0.4248047,0.1416016,0.2363281,0.06787109
4244,-20.5625,11.5,2.0625,-0.3935547,-1.199219,-0.4248047,0.1391602,0.2397461,0.07177734
4249,-16.5625,11.0625,3.4375,-0.3862305,-1.222656,-0.4208984,0.1416016,0.2373047,0.07177734
4253,-12.3125,12.4375,7.25,-0.4013672,-1.226563,-0.378418,0.1425781,0.2373047,0.07421875
4257,-8.3125,10.625,12,-0.4248047,-1.203125,-0.34375,0.1416016,0.2373047,0.07568359
4261,-7.8125,11.25,13.5625,-0.4326172,-1.15625,-0.3168945,0.1425781,0.2387695,0.07714844
4265,-9.75,12.375,12.5625,-0.4750977,-1.152344,-0.2670898,0.144043,0.2363281,0.07714844
4269,-13.9375,13.875,9.4375,-0.4711914,-1.140625,-0.2553711,0.1459961,0.2363281,0.07861328
4273,-17.9375,19.6875,6.3125,-0.4985352,-1.148438,-0.2744141,0.1459961,0.2338867,0.08007813
4277,-19.4375,27,0.875,-0.5332031,-1.152344,-0.3168945,0.1459961,0.2348633,0.08251953
4281,-19.6875,30.4375,-4.4375,-0.6494141,-1.1875,-0.3515625,0.1474609,0.2363281,0.08544922
4285,-17.9375,23.5625,-3.5625,-0.7387695,-1.257324,-0.3398438,0.1450195,0.2363281,0.08789063
4289,-19.125,12.75,-11.25,-0.7578125,-1.362305,-0.2705078,0.1450195,0.2373047,0.08789063
4293,-20.6875,5.4375,-16.3125,-0.6923828,-1.34668,-0.2397461,0.1450195,0.2387695,0.09619141
4297,-24.4375,2.6875,-28.75,-0.5991211,-1.199219,-0.2436523,0.1416016,0.2397461,0.09472656
4301,-32.1875,2.6875,-40.9375,-0.4868164,-1.078613,-0.2861328,0.1425781,0.2412109,0.09765625
4305,-37.6875,5.6875,-48.25,-0.362793,-1.047363,-0.3632813,0.1391602,0.2436523,0.1015625
4309,-35.75,10.25,-52.25,-0.28125,-1.105957,-0.4438477,0.1367188,0.2451172,0.1044922
4313,-22.875,9.625,-47.25,-0.2661133,-1.175781,-0.4746094,0.1333008,0.2485352,0.1123047
4317,-0.6875,0.1875,-32.625,-0.2426758,-1.195313,-0.4516602,0.1293945,0.2524414,0.1123047
4321,19.5625,-13.9375,-12.125,-0.230957,-1.109863,-0.3666992,0.128418,0.2539063,0.1113281
4325,29.6875,-24.25,7.125,-0.1303711,-0.9814453,-0.2514648,0.1318359,0.2573242,0.1098633
4329,30.4375,-15.9375,16.3125,-0.05273438,-0.8417969,-0.1782227,0.1342773,0.2612305,0.1069336
4333,23.5625,3.75,12.625,-0.05664063,-0.7329102,-0.1435547,0.1357422,0.262207,0.1069336
4337,16.625,21.1875,6.125,-0.1420898,-0.7446289,-0.1435547,0.1367188,0.2661133,0.1069336
4341,15.1875,27.1875,2.8125,-0.2119141,-0.8222656,-0.1743164,0.1376953,0.2675781,0.1083984
4345,22.5625,23,5,-0.2583008,-0.8496094,-0.1743164,0.1401367,0.2685547,0.1083984
4349,29.9375,16.125,8.0625,-0.2080078,-0.8842773,-0.1513672,0.1391602,0.2749023,0.1083984
4353,32,17.875,12.625,-0.1108398,-0.7680664,-0.0859375,0.1401367,0.2773438,0.1098633
4357,22.6875,34.4375,15.9375,-0.02197266,-0.7680664,-0.08984375,0.1425781,0.2797852,0.1083984
4361,21.25,53.625,17.375,-0.06445313,-0.7871094,-0.1552734,0.144043,0.2822266,0.1098633
4365,33.125,67.125,20.3125,-0.1381836,-0.8535156,-0.2167969,0.144043,0.2851563,0.1113281
4369,50.625,67.75,24.9375,-0.215332,-0.8647461,-0.2705078,0.144043,0.2875977,0.1152344
4373,69.8125,59.5,40.8125,-0.2583008,-0.9541016,-0.2900391,0.1474609,0.2910156,0.1137695
4378,96.375,43.25,66.3125,-0.3007813,-1.020508,-0.3286133,0.1499023,0.2963867,0.1098633
4382,119.4375,34.5625,84.9375,-0.28125,-0.9658203,-0.2592773,0.1557617,0.2973633,0.105957
4386,127.9375,40.9375,81.8125,-0.3901367,-0.6279297,-0.1015625,0.1650391,0.3012695,0.09619141
4390,110.875,42.625,58.125,-0.5795898,-0.2822266,0.04443359,0.1738281,0.3061523,0.08935547
4394,79.5,28.375,27.1875,-0.7114258,-0.1616211,0.1171875,0.1796875,0.3100586,0.08251953
4398,48.9375,0.8125,12.375,-0.7426758,-0.3989258,0.05566406,0.1821289,0.3134766,0.08007813
4402,39.375,-21.4375,7.8125,-0.6494141,-0.6630859,-0.01318359,0.184082,0.3173828,0.07568359
4406,42.9375,-24.9375,1.5625,-0.5102539,-0.7871094,-0.08203125,0.1855469,0.3212891,0.07421875
4410,55.5,-14.125,-12.1875,-0.4555664,-0.7211914,-0.09765625,0.1879883,0.3286133,0.06884766
4414,58.0625,-14,-29,-0.5102539,-0.5893555,-0.1166992,0.1889648,0.3349609,0.06201172
4418,46.3125,-31.0625,-38.1875,-0.4985352,-0.534668,-0.1401367,0.1889648,0.3413086,0.05664063
4422,31.4375,-54.375,-43.625,-0.4594727,-0.5737305,-0.109375,0.1865234,0.3500977,0.05273438
4426,26.3125,-82.9375,-36.3125,-0.4208984,-0.6474609,-0.04003906,0.184082,0.3588867,0.04443359
4430,23.25,-105.875,-23,-0.2773438,-0.6708984,-0.01318359,0.1831055,0.3613281,0.04052734
4434,21.375,-104.8125,-15.5,-0.1303711,-0.7407227,0.01367188,0.1821289,0.3671875,0.02978516
4438,27.1875,-88.8125,-15.8125,-0.04882813,-0.7368164,0.02099609,0.1821289,0.3710938,0.02001953
4442,25.8125,-65.1875,-16.75,-0.04882813,-0.7329102,0.02880859,0.1821289,0.3735352,0.01318359
4446,23.25,-48.25,-18,-0.08398438,-0.7329102,0.07128906,0.1806641,0.3774414,0.004882813
4450,20.8125,-36.8125,-12.375,-0.1030273,-0.7949219,0.09423828,0.1796875,0.3813477,0
4454,23.1875,-24.4375,-2.75,-0.09912109,-0.8457031,0.1635742,0.1806641,0.3813477,-0.005371094
4458,24.375,-10.75,9.8125,-0.1884766,-0.8764648,0.1904297,0.1796875,0.3813477,-0.01367188
4462,23.4375,-8.8125,16.125,-0.378418,-0.8496094,0.1826172,0.1821289,0.3798828,-0.01757813
4466,18.5,-23.1875,18.5,-0.5410156,-0.8144531,0.1635742,0.184082,0.3798828,-0.02148438
4470,13.8125,-47.5625,10.625,-0.6416016,-0.7832031,0.1982422,0.1855469,0.3759766,-0.02441406
4474,10.8125,-70.6875,-3,-0.5913086,-0.7910156,0.2250977,0.1855469,0.3759766,-0.03271484
4478,8.9375,-82.0625,-13.625,-0.4365234,-0.7719727,0.2905273,0.1855469,0.3759766,-0.03955078
4482,3.4375,-81.9375,-17.25,-0.3085938,-0.7563477,0.3212891,0.1831055,0.3759766,-0.04492188
4486,-5.0625,-75.5625,-15.125,-0.2348633,-0.6708984,0.3134766,0.1821289,0.3759766,-0.04736328
4490,-18.875,-68.4375,-10.0625,-0.1767578,-0.7055664,0.3212891,0.1772461,0.3759766,-0.05175781
4494,-26.5625,-58,-6.1875,-0.1225586,-0.7250977,0.355957,0.1738281,0.3735352,-0.05175781
4498,-31.6875,-44,-0.1875,-0.06445313,-0.6977539,0.3867188,0.1723633,0.3735352,-0.05029297
4502,-41.5,-29.1875,3.8125,-0.07226563,-0.6005859,0.375,0.1738281,0.3710938,-0.04736328
4507,-53.875,-18.0625,10,-0.09130859,-0.565918,0.355957,0.1723633,0.3701172,-0.04345703
4511,-67.0625,-6.8125,14.625,-0.1069336,-0.5893555,0.2866211,0.1713867,0.3647461,-0.03369141
4515,-71.3125,0.0625,18.375,-0.1420898,-0.6123047,0.2866211,0.1713867,0.3623047,-0.02734375
4519,-70.25,8.25,22,-0.1108398,-0.5776367,0.2905273,0.1738281,0.3535156,-0.01904297
4523,-78.1875,18,29.25,-0.1069336,-0.4296875,0.2827148,0.1748047,0.347168,-0.008300781
4527,-95.5,31.25,34.25,-0.1264648,-0.46875,0.1557617,0.1748047,0.3413086,-0.001464844
4531,-102.5,44.375,33.8125,-0.2119141,-0.5620117,-0.02441406,0.1782227,0.3349609,0.01171875
4535,-101,49.125,31.5,-0.3242188,-0.6708984,-0.1513672,0.1796875,0.324707,0.02539063
4539,-85.375,39.9375,30.625,-0.3901367,-0.7871094,-0.1323242,0.1796875,0.3188477,0.03613281
4543,-73.375,32.4375,32.375,-0.3393555,-0.7446289,-0.0859375,0.1782227,0.3110352,0.04443359
4547,-77.9375,35,33.75,-0.2700195,-0.6938477,-0.08984375,0.1821289,0.2998047,0.05126953
4551,-83.1875,49.0625,35.6875,-0.2192383,-0.7407227,-0.1782227,0.1806641,0.2973633,0.05810547
4555,-86.5,61.1875,37.0625,-0.3320313,-0.7641602,-0.3515625,0.1821289,0.2875977,0.06884766
4559,-81.0625,63.0625,33.4375,-0.4482422,-1.059082,-0.4863281,0.1806641,0.2788086,0.07714844
4563,-54.5,54,26.9375,-0.5874023,-1.22998,-0.5283203,0.1796875,0.2749023,0.08251953
4567,-25.125,32.5,19.9375,-0.6416016,-1.207031,-0.4555664,0.1796875,0.2675781,0.08935547
4571,-14.1875,10.1875,21.0625,-0.5488281,-0.9619141,-0.2783203,0.1806641,0.2651367,0.08935547
4575,-22.8125,-0.0625,23.625,-0.4130859,-0.8613281,-0.1899414,0.1806641,0.262207,0.08935547
4579,-27.5,10.6875,23.6875,-0.2851563,-0.9389648,-0.1630859,0.1821289,0.2573242,0.09326172
4583,-25.0625,35.375,22.5625,-0.28125,-0.9541016,-0.2324219,0.1806641,0.2539063,0.09228516
4587,-19.25,50.4375,20.125,-0.4404297,-1.036133,-0.2939453,0.1806641,0.25,0.09472656
4591,-5.5,41.125,20.75,-0.5913086,-0.9970703,-0.2939453,0.1806641,0.2475586,0.09912109
4595,-0.8125,23.5,18.3125,-0.6108398,-0.8686523,-0.2128906,0.1796875,0.2436523,0.09912109
4599,-3.75,14.8125,12.875,-0.5332031,-0.8496094,-0.1630859,0.1782227,0.2412109,0.09912109
4603,-8.125,18,8.875,-0.4829102,-0.8535156,-0.1206055,0.1806641,0.2412109,0.09912109
4607,-9.5625,23.0625,2.9375,-0.4985352,-0.8842773,-0.1743164,0.1782227,0.2387695,0.1000977
4611,-5.0625,25.125,-2.9375,-0.5024414,-0.8842773,-0.2089844,0.1757813,0.2363281,0.1000977
4615,-4.9375,21.5,-12.25,-0.5292969,-0.9350586,-0.2324219,0.1757813,0.2363281,0.1000977
4619,-4.8125,14.875,-11.75,-0.4443359,-0.9892578,-0.2016602,0.1723633,0.2348633,0.1015625
4623,-7.25,10,-5.5625,-0.3549805,-0.9619141,-0.1591797,0.1699219,0.2348633,0.1030273
4627,-11.0625,12.6875,-1.6875,-0.328125,-0.9233398,-0.1669922,0.1699219,0.2338867,0.1030273
4631,-13.0625,15,-5.8125,-0.3320313,-0.9697266,-0.2285156,0.1689453,0.2324219,0.105957
4636,-8.875,12.5,-5.25,-0.3164063,-0.9814453,-0.2822266,0.1650391,0.2314453,0.1069336
4640,-3.0625,5.8125,1.3125,-0.2734375,-0.9541016,-0.3359375,0.1640625,0.2285156,0.1069336
4644,2,-0.0625,8.25,-0.2773438,-0.8920898,-0.34375,0.1650391,0.2285156,0.1044922
4648,5.4375,-2.75,10.3125,-0.2890625,-0.9272461,-0.378418,0.1640625,0.2260742,0.1044922
4652,12,-6.3125,14.1875,-0.3242188,-0.9853516,-0.3706055,0.1650391,0.2250977,0.1044922
4656,17.1875,-4.375,23.875,-0.3085938,-0.9853516,-0.34375,0.1665039,0.2250977,0.1030273
4660,23.1875,6.0625,29.1875,-0.3706055,-0.9389648,-0.3286133,0.1665039,0.2226563,0.1000977
4664,26.9375,19.6875,24.5625,-0.5063477,-0.9389648,-0.34375,0.1674805,0.2197266,0.09912109
4668,30.375,20.5,13.25,-0.6728516,-0.9038086,-0.3208008,0.1674805,0.2197266,0.09765625
4672,27.75,12.0625,0.4375,-0.715332,-0.8920898,-0.2978516,0.1665039,0.2197266,0.09619141
4676,27.375,0.1875,-8.4375,-0.6845703,-0.9428711,-0.2553711,0.1665039,0.2197266,0.09326172
4680,27.125,-4.4375,-9.5,-0.6069336,-0.9506836,-0.2324219,0.1650391,0.2197266,0.09082031
4684,25.625,-0.25,-9.6875,-0.5449219,-1.02832,-0.2285156,0.1640625,0.2226563,0.09082031
4688,28.4375,4.3125,-10.6875,-0.5756836,-1.074707,-0.2363281,0.1630859,0.2197266,0.08544922
4692,29.875,1.6875,-11.5,-0.6186523,-1.078613,-0.2363281,0.1616211,0.2211914,0.08544922
4696,29.3125,-2.3125,-11.875,-0.5834961,-1.012695,-0.2167969,0.1616211,0.2226563,0.08398438
4700,22.4375,-1.5625,-18.125,-0.5449219,-1.02832,-0.2285156,0.1582031,0.2250977,0.08105469
4704,20.5625,-2.9375,-22.75,-0.5253906,-1.117676,-0.2670898,0.1567383,0.2260742,0.07714844
4708,19.1875,-10.3125,-20.375,-0.4829102,-1.070801,-0.2705078,0.1547852,0.2285156,0.07714844
4712,15.3125,-13.8125,-13.4375,-0.4013672,-1.098145,-0.2861328,0.1523438,0.2275391,0.07714844
4716,18.1875,-8.5,-5.9375,-0.3549805,-1.105957,-0.3051758,0.1533203,0.2285156,0.07421875
4720,22.25,-1.5,-6,-0.4287109,-1.059082,-0.2900391,0.1533203,0.2285156,0.07421875
4724,19.375,-2.625,-8.8125,-0.5214844,-1.02832,-0.2514648,0.1547852,0.2299805,0.07324219
4728,14.9375,-13.3125,-10,-0.5449219,-1.040039,-0.1977539,0.1523438,0.2314453,0.06884766
4732,11.5,-17.3125,-11.0625,-0.4790039,-1.016602,-0.1708984,0.1523438,0.2324219,0.06787109
4736,9.125,-15.1875,-12.0625,-0.4946289,-1.047363,-0.1591797,0.1523438,0.2314453,0.06640625
4740,7.5625,-14.75,-12.625,-0.5063477,-1.024414,-0.1166992,0.1523438,0.2348633,0.06494141
4744,1.9375,-11.875,-15.25,-0.4482422,-1.043945,-0.06689453,0.1499023,0.2348633,0.06347656
4748,-2.375,-2.875,-14.75,-0.4287109,-1.105957,-0.02832031,0.1499023,0.2348633,0.06201172
4752,-6.75,3.25,-9.9375,-0.4555664,-1.125488,-0.02832031,0.1474609,0.2363281,0.06201172
4756,-11.875,2.9375,-7.5,-0.4946289,-1.074707,-0.04003906,0.1484375,0.2363281,0.06640625
4760,-17.4375,1,-10.5625,-0.5332031,-1.074707,-0.06298828,0.1484375,0.2363281,0.06640625
4765,-22.125,-3,-14.6875,-0.5024414,-1.059082,-0.08984375,0.1484375,0.2373047,0.0703125
4769,-29.625,-0.625,-20.6875,-0.4555664,-1.05127,-0.1015625,0.1459961,0.2363281,0.06787109
4773,-32.125,2.9375,-23.875,-0.4482422,-1.121582,-0.1206055,0.1459961,0.2373047,0.0703125
4777,-31.5625,7.3125,-24.6875,-0.4208984,-1.102051,-0.1669922,0.144043,0.2387695,0.07421875
4781,-30.4375,8.8125,-24.3125,-0.4326172,-1.136719,-0.1938477,0.1401367,0.2397461,0.07568359
4785,-25.75,6.5625,-22.1875,-0.4208984,-1.102051,-0.2363281,0.1401367,0.2412109,0.08007813
4789,-22.875,1.25,-18.875,-0.3935547,-1.032227,-0.2475586,0.1376953,0.2397461,0.08398438
4793,-24.1875,0.0625,-19.8125,-0.3588867,-0.9467773,-0.2475586,0.1367188,0.2426758,0.08398438
4797,-27.5,7.4375,-28,-0.3354492,-0.9350586,-0.2592773,0.1367188,0.2436523,0.08544922
4801,-26.4375,14.125,-39.75,-0.3354492,-0.9775391,-0.3168945,0.1342773,0.2451172,0.09082031
4805,-22.875,14,-43.1875,-0.3125,-1.016602,-0.3476563,0.1333008,0.2475586,0.09228516
4809,-16.3125,8.5,-40.125,-0.3046875,-1.070801,-0.3901367,0.128418,0.2485352,0.09472656
4813,-7.8125,1.125,-32.0625,-0.3125,-1.11377,-0.3974609,0.125,0.2509766,0.09619141
4817,1.625,-11.5625,-23.25,-0.3320313,-1.117676,-0.378418,0.1235352,0.2509766,0.09765625
4821,5.8125,-27.75,-14.9375,-0.328125,-1.055176,-0.2939453,0.1235352,0.2539063,0.09619141
4825,2.3125,-35.75,-10.1875,-0.2426758,-0.9428711,-0.1938477,0.125,0.2563477,0.09472656
4829,-6.875,-22.5625,-12.4375,-0.1572266,-0.8300781,-0.0859375,0.125,0.2563477,0.09765625
4833,-20.5,-0.6875,-21.3125,-0.1845703,-0.8959961,-0.09375,0.1235352,0.2573242,0.09619141
4837,-27.375,11.125,-24,-0.3125,-1.129395,-0.1323242,0.1225586,0.2587891,0.1000977
4841,-30.3125,6.25,-18.5,-0.3549805,-1.319336,-0.1474609,0.1186523,0.2612305,0.1030273
4845,-33,-2.25,-9,-0.2851563,-1.432129,-0.1708984,0.1186523,0.262207,0.1044922
4849,-31,-10.4375,17.5,-0.2773438,-1.408691,-0.1708984,0.1210938,0.2612305,0.1098633
4853,-30.625,-21.1875,39.625,-0.3007813,-1.22998,-0.1591797,0.1235352,0.2597656,0.1113281
4857,-34.625,-21.5,47.75,-0.2851563,-1.086426,-0.1474609,0.128418,0.2597656,0.1137695
4861,-38.5,-7.4375,47.25,-0.2348633,-1.05127,-0.1977539,0.1333008,0.2597656,0.1181641
4865,-34.375,15.375,42.75,-0.1884766,-1.078613,-0.2553711,0.1357422,0.2573242,0.1220703
4869,-21.125,49.5625,46.75,-0.09912109,-1.074707,-0.3051758,0.1391602,0.2563477,0.1274414
4873,-8.625,82.4375,50.4375,-0.1420898,-1.036133,-0.359375,0.1425781,0.2548828,0.1313477
4877,3.9375,103.5625,53.5625,-0.2426758,-0.8686523,-0.4248047,0.1416016,0.2539063,0.1381836
4881,7.0625,105.9375,52.4375,-0.4130859,-0.7329102,-0.4438477,0.1425781,0.2524414,0.1450195
4885,9.4375,89.8125,41,-0.5488281,-0.6513672,-0.4594727,0.1425781,0.2524414,0.1508789
4889,17.3125,65.4375,20,-0.6767578,-0.6005859,-0.4248047,0.1416016,0.2524414,0.15625
4894,17.4375,23.25,-1.5,-0.78125,-0.581543,-0.3823242,0.1401367,0.2563477,0.1601563
4898,19.4375,-16.875,-16.625,-0.5991211,-0.550293,-0.2978516,0.1391602,0.2597656,0.1630859
4902,15.75,-26.0625,-33.0625,-0.3432617,-0.5581055,-0.3051758,0.1401367,0.262207,0.1601563
4906,18.8125,-10.6875,-49.6875,-0.1108398,-0.6513672,-0.3012695,0.1367188,0.2675781,0.1640625
4910,23.5,10.125,-52.125,-0.1459961,-0.7329102,-0.2978516,0.1342773,0.2724609,0.1630859
4914,25.25,1.5625,-53.0625,-0.3203125,-0.7055664,-0.3208008,0.1308594,0.2763672,0.1630859
4918,25.4375,-20.625,-57.8125,-0.3666992,-0.6474609,-0.2670898,0.1259766,0.2797852,0.1630859
4922,16.125,-49.3125,-73,-0.2929688,-0.5,-0.2705078,0.1210938,0.2875977,0.1630859
4926,7.625,-64.375,-84.1875,-0.1459961,-0.6787109,-0.3286133,0.1166992,0.2910156,0.1640625
4930,14.6875,-54.9375,-85.4375,0.2026367,-0.9467773,-0.3706055,0.1118164,0.2963867,0.1616211
4934,28.375,-20.375,-61.875,0.3110352,-1.012695,-0.3706055,0.1069336,0.3022461,0.1616211
4938,40.375,3.1875,-30.9375,0.2216797,-0.9853516,-0.3208008,0.1035156,0.3076172,0.1616211
4942,39.1875,12.6875,-11.6875,0.125,-0.8261719,-0.3823242,0.1010742,0.3125,0.1601563
4946,37.5,23.25,-3.3125,0.02050781,-0.9428711,-0.3823242,0.1010742,0.3188477,0.1572266
4950,50.625,16.6875,3.3125,-0.09912109,-0.8803711,-0.4169922,0.09863281,0.3212891,0.1586914
4954,57.4375,3.5,16.4375,-0.1225586,-0.7680664,-0.3359375,0.09960938,0.324707,0.15625
4958,59.5625,1.0625,28.75,-0.07617188,-0.7719727,-0.2128906,0.1044922,0.3334961,0.1533203
4962,60.375,12.375,32.5625,-0.07617188,-0.6396484,-0.1743164,0.105957,0.3359375,0.1508789
4966,52.125,29.4375,29.0625,-0.1420898,-0.5698242,-0.1206055,0.1103516,0.3398438,0.1450195
4970,44.875,32.5625,17.875,-0.328125,-0.581543,-0.1743164,0.112793,0.3461914,0.1425781
4974,43.375,11.9375,11.4375,-0.4790039,-0.5893555,-0.1591797,0.1142578,0.3486328,0.144043
4978,36.75,-13.625,6.3125,-0.3974609,-0.6279297,-0.07861328,0.1166992,0.3549805,0.137207
4982,29.1875,-17.0625,6.625,-0.2583008,-0.7172852,-0.05126953,0.1176758,0.3549805,0.1313477
4986,26.25,-7.9375,9.375,-0.2504883,-0.7016602,-0.009277344,0.1201172,0.3588867,0.1303711
4990,16.3125,3.125,4.9375,-0.3164063,-0.7211914,-0.06298828,0.1225586,0.3613281,0.125
4994,11.625,0.375,-4.375,-0.4248047,-0.7680664,-0.1015625,0.125,0.3598633,0.1259766
4998,8.0625,-9,-7.125,-0.362793,-0.8066406,-0.05517578,0.1235352,0.3623047,0.1191406
5002,0.25,-8.8125,-10.8125,-0.2583008,-0.8300781,-0.1206055,0.1235352,0.3647461,0.1166992
5006,4.6875,-2.375,-8.125,-0.2773438,-0.9580078,-0.1552734,0.1225586,0.3647461,0.1166992
5010,6.8125,-5.375,-5.9375,-0.3046875,-0.8686523,-0.1362305,0.1235352,0.3623047,0.1137695
5014,5.75,-11.8125,-6.1875,-0.3320313,-0.8686523,-0.07080078,0.1210938,0.3647461,0.1123047
5018,2.9375,-17.75,-6.75,-0.28125,-0.7910156,0.009765625,0.1210938,0.3647461,0.1069336
5023,-5.1875,-20.4375,-6.625,-0.2543945,-0.7910156,0.06347656,0.1186523,0.3623047,0.1044922
5027,-13.0625,-18.1875,-6.0625,-0.1728516,-0.7602539,0.1132813,0.1210938,0.3613281,0.1044922
5031,-22.75,-9.75,-4.8125,-0.1572266,-0.7368164,0.125,0.1210938,0.3588867,0.1044922
5035,-29.5,-3.875,-1.6875,-0.1689453,-0.7368164,0.1210938,0.1210938,0.3549805,0.1044922
5039,-35.6875,-5,0.125,-0.2348633,-0.6513672,0.144043,0.1210938,0.3510742,0.1069336
5043,-47.3125,-7.8125,-1.25,-0.2001953,-0.5737305,0.1132813,0.1201172,0.3461914,0.1098633
5047,-60.0625,-1.0625,-5.875,-0.1767578,-0.6279297,-0.03613281,0.1186523,0.3413086,0.1123047
5051,-63.6875,-3.375,-7.3125,-0.230957,-0.7524414,-0.1708984,0.1166992,0.3349609,0.1166992
5055,-58.625,-8.125,0.1875,-0.230957,-0.8647461,-0.2514648,0.1152344,0.3300781,0.1235352
5059,-48.375,-16.375,3.8125,-0.2773438,-0.8535156,-0.2397461,0.1152344,0.3261719,0.1235352
5063,-44.8125,-27.75,8.0625,-0.2890625,-0.7832031,-0.1899414,0.1142578,0.3198242,0.1259766
5067,-48.375,-34.75,10.5625,-0.2231445,-0.8261719,-0.1245117,0.1166992,0.3149414,0.1274414
5071,-49.1875,-31.5625,9.25,-0.2192383,-0.8261719,-0.1401367,0.1186523,0.3100586,0.1274414
5075,-47.3125,-38.3125,7.9375,-0.3549805,-0.8378906,-0.109375,0.1201172,0.3037109,0.1303711
5079,-44.1875,-63.1875,4.125,-0.4829102,-0.8300781,-0.1015625,0.1225586,0.2988281,0.1303711
5083,-45.4375,-98.5,-0.8125,-0.5756836,-0.8027344,-0.07470703,0.1225586,0.2963867,0.1313477
5087,-51,-145.5625,-7.9375,-0.730957,-0.7719727,-0.08203125,0.1269531,0.2900391,0.1274414
5091,-58.375,-192.9375,-18.6875,-0.6108398,-0.6787109,-0.1362305,0.1318359,0.2851563,0.1235352
5095,-64,-183.3125,-31.3125,0.008789063,-0.7055664,-0.09375,0.1357422,0.2822266,0.1191406
5099,-73.8125,-106,-27.3125,0.3339844,-0.8183594,-0.1630859,0.1376953,0.2788086,0.1181641
5103,-72.375,-36,-6.75,0.1870117,-1.004883,-0.2705078,0.1376953,0.2724609,0.1206055
5107,-58.3125,-6.25,12.125,-0.1689453,-1.032227,-0.3974609,0.1376953,0.2685547,0.1220703
5111,-48.5,-14,18.25,-0.347168,-0.8999023,-0.4091797,0.1391602,0.2636719,0.1274414
5115,-51.8125,-18.125,18.1875,-0.262207,-0.8535156,-0.5053711,0.1376953,0.2587891,0.1274414
5119,-42.5625,-13.125,17.25,-0.2270508,-1.020508,-0.5439453,0.1391602,0.2548828,0.1289063
5123,-28.125,1.25,16.1875,-0.2001953,-0.9931641,-0.6132813,0.1401367,0.2509766,0.1303711
5127,-15.375,8.1875,12.8125,-0.28125,-1.05127,-0.5898438,0.1416016,0.2460938,0.1328125
5131,-4.75,5.1875,17.8125,-0.28125,-1.000977,-0.5825195,0.1416016,0.2451172,0.1328125
5135,2.5,5.1875,25.5,-0.2583008,-1.016602,-0.609375,0.1416016,0.2426758,0.1328125
5139,15.3125,5.5625,26.4375,-0.3393555,-1.05127,-0.5976563,0.144043,0.2397461,0.1303711
5143,27.625,2.0625,24.0625,-0.3666992,-1.016602,-0.5517578,0.1425781,0.2387695,0.1289063
5147,34.4375,0.1875,20.3125,-0.347168,-0.9775391,-0.4594727,0.1450195,0.2387695,0.1274414
5152,34,4.625,14.375,-0.3046875,-0.9233398,-0.4013672,0.1474609,0.2387695,0.1206055
5156,35.6875,10.25,8.5,-0.3203125,-0.9853516,-0.3823242,0.1459961,0.2387695,0.1191406
5160,39.75,12.5,6.1875,-0.3164063,-0.9697266,-0.3476563,0.1474609,0.2363281,0.1181641
5164,40.4375,14.5,4.25,-0.3393555,-0.9892578,-0.3325195,0.144043,0.2373047,0.1137695
5168,45.25,14.0625,4.25,-0.362793,-1.02832,-0.3168945,0.144043,0.2387695,0.1113281
5172,48.625,11.125,3.1875,-0.3588867,-1.008789,-0.2783203,0.144043,0.2397461,0.1069336
5176,48.6875,8.1875,4.25,-0.3320313,-0.9736328,-0.2436523,0.1416016,0.2412109,0.105957
5180,45.75,11.125,3.9375,-0.2700195,-0.9194336,-0.1821289,0.144043,0.2397461,0.09912109
5184,40.4375,21.4375,-2.25,-0.2700195,-0.9467773,-0.1743164,0.1416016,0.2412109,0.09765625
5188,34.1875,30.3125,-11.6875,-0.3046875,-1.016602,-0.1938477,0.1416016,0.2426758,0.09472656
5192,29.125,25.4375,-11.625,-0.3354492,-1.074707,-0.2089844,0.1376953,0.2426758,0.09472656
5196,25.75,21.375,-7.4375,-0.2890625,-1.105957,-0.2055664,0.1367188,0.2436523,0.09082031
5200,19.9375,23.3125,-3.125,-0.262207,-1.129395,-0.2128906,0.1342773,0.2451172,0.09082031
5204,11.25,28.75,-1.8125,-0.2700195,-1.164063,-0.2324219,0.1333008,0.2436523,0.09082031
5208,3.625,33.5,-6.3125,-0.328125,-1.15625,-0.2861328,0.1318359,0.2436523,0.09082031
5212,2.5625,28.6875,-10.5625,-0.4208984,-1.222656,-0.3745117,0.1308594,0.2436523,0.09326172
5216,8.8125,18.875,-15.0625,-0.4365234,-1.249512,-0.4130859,0.1269531,0.2436523,0.09228516
5220,15,2.6875,-12.375,-0.4365234,-1.241699,-0.3901367,0.1259766,0.2436523,0.09326172
5224,15.4375,-14.875,-6.5625,-0.3974609,-1.222656,-0.3706055,0.1235352,0.2451172,0.09228516
5228,19.9375,-28.125,-1.8125,-0.3706055,-1.167969,-0.2939453,0.1259766,0.2451172,0.08935547
5232,13.875,-31.375,-3.625,-0.3007813,-1.016602,-0.2246094,0.125,0.2460938,0.08789063
5236,5.875,-24.0625,-10.375,-0.28125,-1.024414,-0.1899414,0.125,0.2475586,0.08398438
5240,1.4375,-11.5625,-15.1875,-0.2734375,-1.074707,-0.1708984,0.1259766,0.2475586,0.08398438
5244,-2.5,-5.1875,-13.5625,-0.3085938,-1.086426,-0.1821289,0.1235352,0.2485352,0.08251953
5248,-4.625,-2.125,-10.4375,-0.3549805,-1.121582,-0.1860352,0.1235352,0.2475586,0.08544922
5252,-5,-5.4375,-7.3125,-0.3901367,-1.136719,-0.2055664,0.1225586,0.2475586,0.08105469
5256,-6.75,-8.75,-5.1875,-0.3588867,-1.140625,-0.2363281,0.1225586,0.2485352,0.08251953
5260,-7.1875,-8.5,-2.25,-0.328125,-1.183594,-0.2324219,0.125,0.2485352,0.08398438
5264,-6.5625,-7.3125,2.375,-0.3125,-1.195313,-0.2363281,0.125,0.25,0.08251953
5268,-5.1875,-6.125,6.5625,-0.328125,-1.195313,-0.2324219,0.1235352,0.25,0.08544922
5272,-7,-3.8125,7.9375,-0.3320313,-1.125488,-0.2128906,0.125,0.2475586,0.08691406
5276,-11.75,0.75,5.75,-0.3588867,-1.105957,-0.2207031,0.1259766,0.25,0.08544922
5281,-14.875,2.9375,2.75,-0.3823242,-1.133301,-0.2592773,0.125,0.2485352,0.08544922
5285,-13.0625,7,1.625,-0.3588867,-1.183594,-0.2978516,0.1269531,0.2485352,0.08691406
5289,-7.375,11.8125,2.3125,-0.3393555,-1.207031,-0.3476563,0.128418,0.2485352,0.08935547
5293,-2.375,14.375,6.625,-0.3549805,-1.195313,-0.378418,0.128418,0.25,0.09326172
5297,2.25,13.5625,8.75,-0.3745117,-1.133301,-0.3823242,0.1269531,0.2485352,0.09082031
5301,2,14.3125,5.8125,-0.3666992,-1.004883,-0.3286133,0.1269531,0.2485352,0.08935547
5305,-8.375,18.5,-3.0625,-0.3935547,-0.9428711,-0.3012695,0.1293945,0.2509766,0.09228516
5309,-15.8125,16.875,-14.125,-0.4404297,-1.008789,-0.3051758,0.128418,0.2524414,0.09472656
5313,-15.1875,9.625,-24.125,-0.4091797,-1.055176,-0.3051758,0.1269531,0.2524414,0.09765625
5317,-12.875,7.6875,-29.625,-0.2929688,-1.090332,-0.3325195,0.125,0.2539063,0.09912109
5321,-7.75,15.5625,-29.0625,-0.2041016,-1.090332,-0.3398438,0.1235352,0.2548828,0.09765625
5325,-2.875,25.9375,-26,-0.1767578,-1.129395,-0.3554688,0.1225586,0.2573242,0.1015625
5329,6.5,33.1875,-20.75,-0.2080078,-1.15625,-0.3398438,0.1176758,0.2612305,0.1030273
5333,14.5625,32.4375,-15.6875,-0.246582,-1.094238,-0.2978516,0.1176758,0.262207,0.1030273
5337,17.875,25.125,-12.9375,-0.246582,-1.008789,-0.2592773,0.1166992,0.2651367,0.1069336
5341,17.1875,21.375,-10.1875,-0.1845703,-0.9541016,-0.2363281,0.1142578,0.2675781,0.105957
5345,13.75,21.75,-10.125,-0.1962891,-0.9506836,-0.2055664,0.112793,0.2724609,0.105957
5349,14.6875,18.625,-9.125,-0.1923828,-0.9814453,-0.2089844,0.1103516,0.2724609,0.1083984
5353,16.5,15.125,-2.875,-0.1884766,-1.043945,-0.2055664,0.1103516,0.2763672,0.1069336
5357,24,9.25,8.3125,-0.1767578,-1.074707,-0.2324219,0.1103516,0.2788086,0.105957
5361,32.25,8.6875,16.8125,-0.1303711,-0.9428711,-0.1669922,0.112793,0.2797852,0.105957
