Packet number,Gyroscope X (deg/s),Gyroscope Y (deg/s),Gyroscope Z (deg/s),Accelerometer X (g),Accelerometer Y (g),Accelerometer Z (g),Magnetometer X (G),Magnetometer Y (G),Magnetometer Z (G)
1,-10.0625,-0.375,-9.0625,-0.4946289,0.793457,-0.3325195,0.1079102,-0.3330078,0.1069336
5,-8.75,-4.375,-4.8125,-0.4868164,0.793457,-0.3286133,0.1103516,-0.3354492,0.1069336
9,-5.375,-7.5625,-6.625,-0.4130859,0.824707,-0.2783203,0.109375,-0.3344727,0.105957
13,-6.3125,1.875,-13.8125,-0.3354492,0.8632813,-0.2207031,0.1118164,-0.3330078,0.1098633
17,-9.4375,9.125,-25.125,-0.378418,0.8364258,-0.2631836,0.112793,-0.3330078,0.105957
21,-15.875,14.1875,-28.1875,-0.3549805,0.7431641,-0.2475586,0.1152344,-0.3330078,0.105957
25,-18.25,16.9375,-29.5,-0.4672852,0.7119141,-0.309082,0.1166992,-0.3320313,0.1044922
29,-16.0625,5.9375,-30.125,-0.6225586,0.7314453,-0.378418,0.1186523,-0.3291016,0.1030273
33,-21.8125,1.625,-19.375,-0.6069336,0.7705078,-0.3051758,0.1201172,-0.3305664,0.1000977
37,-26.875,1.375,-10.3125,-0.6264648,0.8012695,-0.2822266,0.1201172,-0.3320313,0.1015625
41,-22.75,-0.625,-8.4375,-0.6611328,0.890625,-0.2744141,0.1210938,-0.3291016,0.09765625
45,-15.9375,-0.875,-9.5625,-0.6962891,0.9682617,-0.2705078,0.1210938,-0.3320313,0.09765625
49,-7.8125,3.375,-5.25,-0.7504883,1.038574,-0.2822266,0.1186523,-0.3330078,0.09472656
53,1.25,2.75,-1.8125,-0.8354492,1.124023,-0.3398438,0.1186523,-0.3344727,0.09326172
57,11.9375,1.4375,-1.5,-0.8237305,1.189941,-0.378418,0.1201172,-0.3330078,0.09472656
61,16.4375,6.1875,4.875,-0.7929688,1.232422,-0.3706055,0.1210938,-0.3344727,0.09472656
65,17.4375,14.1875,11.25,-0.8164063,1.225098,-0.4667969,0.1166992,-0.3354492,0.09472656
69,19,15.375,13.625,-0.8198242,1.244141,-0.5209961,0.1176758,-0.3354492,0.09912109
73,17.8125,16.25,15.3125,-0.7348633,1.228516,-0.4824219,0.1166992,-0.3344727,0.1000977
78,16.625,21.6875,14.1875,-0.6767578,1.186035,-0.4399414,0.1176758,-0.3378906,0.1030273
82,16.5625,23.125,11.3125,-0.6884766,1.162598,-0.4399414,0.1142578,-0.3393555,0.105957
86,12.6875,21.375,16.75,-0.7348633,1.088867,-0.4863281,0.1166992,-0.3393555,0.1083984
90,5.5625,15.3125,29.6875,-0.796875,1.038574,-0.5400391,0.112793,-0.3417969,0.1123047
94,-3.625,3.6875,46.1875,-0.8125,0.9760742,-0.5864258,0.109375,-0.3457031,0.1098633
98,-9.6875,-7.125,58.0625,-0.5874023,0.9023438,-0.4130859,0.1079102,-0.3481445,0.1137695
102,-2.1875,-10.3125,50.9375,-0.4326172,0.9257813,-0.3051758,0.1044922,-0.3544922,0.1123047
106,3.5,-3.5625,24.6875,-0.3007813,1.015137,-0.1821289,0.1044922,-0.359375,0.1123047
110,-1.9375,5.75,5.1875,-0.4013672,0.9995117,-0.2128906,0.1010742,-0.3618164,0.1152344
114,-15.9375,6.4375,13.125,-0.6147461,0.8867188,-0.359375,0.1020508,-0.3642578,0.1181641
118,-35.6875,-6.375,42.8125,-0.6845703,0.8520508,-0.3901367,0.1010742,-0.3691406,0.1137695
122,-60.125,-16.1875,76.125,-0.6108398,0.8481445,-0.3286133,0.09765625,-0.3745117,0.1137695
126,-73.875,-17.9375,93.625,-0.262207,0.7001953,-0.05126953,0.09130859,-0.3803711,0.1069336
130,-42.125,-11.3125,58.9375,-0.01806641,0.5644531,0.1787109,0.08544922,-0.3916016,0.1030273
134,23.5,-10.8125,4.875,-0.1030273,0.6772461,0.1367188,0.08300781,-0.3930664,0.1030273
138,51.5,-18.625,-16.3125,-0.296875,0.8364258,-0.03222656,0.08544922,-0.3930664,0.1069336
142,48,-31.3125,-8.1875,-0.4443359,0.7856445,-0.2167969,0.08886719,-0.3930664,0.1123047
146,44.1875,-44.75,16.75,-0.4829102,0.8012695,-0.34375,0.09375,-0.3916016,0.1166992
150,35.0625,-55.375,35.5625,-0.4365234,0.8945313,-0.4936523,0.09375,-0.3916016,0.1235352
154,24.6875,-66.3125,41.5625,-0.3935547,1.007324,-0.5283203,0.09277344,-0.3945313,0.125
158,25.25,-66.5,18.875,-0.1147461,0.9604492,-0.3286133,0.09375,-0.3945313,0.1259766
162,31.6875,-55.3125,-7.8125,-0.09521484,1.034668,-0.3325195,0.09375,-0.3969727,0.1274414
166,21.0625,-44.375,-33.625,-0.1225586,1.09668,-0.359375,0.09863281,-0.3979492,0.1313477
170,7.8125,-33.3125,-49.75,-0.3320313,1.100586,-0.4785156,0.105957,-0.3979492,0.1342773
174,-20,-25.4375,-43.5625,-0.4829102,1.01123,-0.5864258,0.1118164,-0.3994141,0.1342773
178,-56.3125,-32.3125,-16.4375,-0.5795898,0.8012695,-0.5825195,0.1186523,-0.4018555,0.1313477
182,-63.5625,-43.1875,-6.3125,-0.4208984,0.6342773,-0.4013672,0.1201172,-0.4116211,0.1274414
186,-46.375,-49.3125,-22.4375,-0.296875,0.6030273,-0.2397461,0.125,-0.4169922,0.125
190,-24.75,-53,-49.25,-0.1767578,0.5913086,-0.06298828,0.1293945,-0.421875,0.1137695
194,-12.5625,-46.25,-60.5625,-0.1767578,0.5839844,-0.009277344,0.1376953,-0.4243164,0.1137695
198,-18.625,-31.375,-59.125,-0.3242188,0.7314453,-0.1591797,0.1474609,-0.4267578,0.1098633
202,-24.0625,-36.8125,-50.5625,-0.8974609,0.8442383,-0.5551758,0.1547852,-0.4282227,0.105957
207,-49.625,-65.5,-15.875,-0.7504883,0.6069336,-0.4477539,0.1630859,-0.4291992,0.09912109
211,-59.3125,-63.0625,13.5625,-0.3588867,0.3232422,-0.06298828,0.1650391,-0.4355469,0.08935547
215,-49.9375,-66.375,21.375,-0.2543945,0.3583984,0.09814453,0.1665039,-0.4428711,0.07568359
219,-22.4375,-72.25,8.8125,-0.2543945,0.4633789,0.159668,0.1674805,-0.4428711,0.06884766
223,-8.4375,-64.1875,5.875,-0.2080078,0.6342773,0.1943359,0.1699219,-0.4482422,0.06494141
227,-15,-46.9375,13.1875,-0.3242188,0.6420898,0.144043,0.1689453,-0.4492188,0.05517578
231,-18.8125,-46.3125,31.875,-0.3125,0.5136719,0.159668,0.1674805,-0.4492188,0.05419922
235,0.1875,-41.5,42.25,-0.1264648,0.5175781,0.2329102,0.1650391,-0.453125,0.04589844
239,24.3125,-31.125,30.25,-0.1533203,0.8129883,0.08251953,0.1591797,-0.4570313,0.04882813
243,22.0625,-20.75,12.9375,-0.1572266,0.9995117,-0.01660156,0.1591797,-0.4580078,0.04980469
247,2.6875,-1.3125,6.25,-0.1303711,0.953125,-0.001464844,0.1567383,-0.4594727,0.05126953
251,-3.0625,13.125,2.0625,-0.2700195,0.8208008,-0.05908203,0.1567383,-0.4594727,0.05273438
255,5,10.6875,2.9375,-0.3203125,0.8325195,-0.05908203,0.1567383,-0.4594727,0.05273438
259,9.75,18.125,-3.8125,-0.2734375,0.8867188,-0.08203125,0.1557617,-0.4604492,0.05273438
263,2.0625,24,-3.1875,-0.378418,0.8945313,-0.1591797,0.1557617,-0.4580078,0.05664063
267,-2.8125,22.625,2.75,-0.4091797,0.8129883,-0.1630859,0.1567383,-0.4570313,0.05810547
271,2.375,17.625,5.1875,-0.328125,0.8129883,-0.05126953,0.1557617,-0.4594727,0.05810547
275,7.8125,20.0625,0.875,-0.230957,0.8828125,0.08251953,0.1557617,-0.4594727,0.06103516
279,7.4375,28.625,-6.125,-0.2543945,0.8789063,0.05175781,0.1523438,-0.4555664,0.06103516
283,6.5,30.125,-7.5625,-0.2734375,0.8598633,0.04052734,0.1533203,-0.4555664,0.06494141
287,8.875,32.4375,-9.9375,-0.262207,0.855957,0.03662109,0.1547852,-0.4541016,0.06884766
291,5.375,37.8125,-13.375,-0.1728516,0.8286133,0.09033203,0.1533203,-0.453125,0.0703125
295,2.0625,47.8125,-16.6875,-0.1069336,0.8364258,0.1674805,0.1547852,-0.4506836,0.07421875
299,2.5,61.5,-29,-0.1381836,0.8286133,0.1635742,0.1547852,-0.4492188,0.07861328
303,0,75.8125,-32.5,-0.3046875,0.7739258,0.08251953,0.1567383,-0.4453125,0.08251953
307,-1.5625,72.5625,-24.3125,-0.4829102,0.5952148,-0.0859375,0.1567383,-0.4428711,0.08789063
311,11.125,52.75,-16.75,-0.4555664,0.5058594,-0.112793,0.1582031,-0.4379883,0.09326172
315,24.375,48.0625,-4.3125,-0.3046875,0.5371094,-0.01318359,0.1582031,-0.4394531,0.09912109
319,29.375,47.1875,-2.375,-0.3974609,0.7705078,-0.07861328,0.1547852,-0.4316406,0.1044922
323,28.8125,43.625,-4.4375,-0.4130859,0.809082,-0.1245117,0.1523438,-0.4267578,0.1098633
327,20,48.125,2.75,-0.3432617,0.7666016,-0.1630859,0.1499023,-0.4228516,0.1137695
331,17.625,45.125,9,-0.3588867,0.7666016,-0.2670898,0.1459961,-0.4179688,0.1206055
336,10.625,37,11.6875,-0.2348633,0.7587891,-0.2055664,0.144043,-0.4130859,0.125
340,12.125,42.125,6.8125,-0.2504883,0.777832,-0.1513672,0.1416016,-0.4067383,0.125
344,16.5,45.3125,-3.6875,-0.4052734,0.8364258,-0.2592773,0.1401367,-0.402832,0.1274414
348,17.8125,40.5,-4.4375,-0.4404297,0.7817383,-0.2939453,0.1367188,-0.3969727,0.1303711
352,15.1875,36.875,-1.8125,-0.3164063,0.7197266,-0.2553711,0.1333008,-0.3916016,0.1328125
356,11.8125,38.3125,2.125,-0.1767578,0.6962891,-0.1591797,0.1318359,-0.390625,0.1342773
360,12.0625,50.75,-5.6875,-0.2387695,0.8012695,-0.1591797,0.1308594,-0.3833008,0.1357422
364,14.5625,55.75,-15.625,-0.4868164,0.8671875,-0.3398438,0.128418,-0.3818359,0.137207
368,11.5,51.1875,-13.75,-0.6225586,0.8632813,-0.4863281,0.125,-0.3754883,0.1396484
372,4.1875,39.8125,-5.4375,-0.6108398,0.8286133,-0.4975586,0.125,-0.3691406,0.1411133
376,-3.25,34.3125,0.8125,-0.4404297,0.7705078,-0.3554688,0.1225586,-0.3691406,0.1396484
380,-4.1875,34.5,0.5625,-0.4907227,0.8012695,-0.3325195,0.1201172,-0.3666992,0.1381836
384,4.3125,26.3125,-0.375,-0.5566406,0.8325195,-0.324707,0.1166992,-0.3632813,0.1425781
388,7.625,20.9375,-4.0625,-0.5102539,0.8867188,-0.2592773,0.1152344,-0.3618164,0.1396484
392,3.3125,30.6875,-4.375,-0.4555664,0.8632813,-0.2397461,0.1152344,-0.359375,0.1411133
396,-5.125,36.5,1.625,-0.5292969,0.840332,-0.3398438,0.1118164,-0.3569336,0.1411133
400,-8.4375,28.125,5.75,-0.5795898,0.8442383,-0.3901367,0.1103516,-0.3520508,0.1411133
404,-5.125,19.6875,7.0625,-0.5566406,0.8168945,-0.3745117,0.1079102,-0.3491211,0.1381836
408,-5.75,12.375,11.1875,-0.5102539,0.855957,-0.3515625,0.105957,-0.3491211,0.1396484
412,-5.125,12.125,9.4375,-0.4790039,0.875,-0.3398438,0.105957,-0.3457031,0.1381836
416,-5.875,14.5625,10.375,-0.4711914,0.8867188,-0.3398438,0.105957,-0.3466797,0.137207
420,-7.9375,17.125,10.625,-0.4594727,0.875,-0.3745117,0.1020508,-0.3442383,0.1357422
424,-9.8125,13.4375,11.25,-0.5063477,0.8984375,-0.4208984,0.09960938,-0.3417969,0.1342773
428,-11.875,5.5,14.5625,-0.4985352,0.8789063,-0.4438477,0.09863281,-0.3417969,0.1357422
432,-9.375,1,15.6875,-0.4521484,0.8984375,-0.4091797,0.09521484,-0.3417969,0.1342773
436,-6.125,-2.3125,17.0625,-0.4443359,0.9682617,-0.4477539,0.09521484,-0.3417969,0.1313477
440,-5.75,-7.3125,11.0625,-0.3901367,1.01123,-0.4555664,0.09375,-0.3408203,0.1303711
444,-5.75,-11.125,5.0625,-0.328125,1.015137,-0.4438477,0.09375,-0.3408203,0.1274414
448,-7.3125,-11.375,-3.0625,-0.328125,1.049805,-0.4399414,0.09375,-0.3408203,0.1274414
452,-10.9375,-10.4375,-9.4375,-0.3432617,1.022949,-0.4091797,0.09375,-0.3378906,0.1259766
456,-14.5,-5,-12.5,-0.3588867,0.9604492,-0.3745117,0.09619141,-0.3354492,0.125
460,-16.3125,-3.0625,-11.875,-0.4169922,0.9140625,-0.4169922,0.09619141,-0.3369141,0.125
465,-14.25,-12.75,-14.3125,-0.4555664,0.90625,-0.4248047,0.09960938,-0.3344727,0.125
469,-4.4375,-19.9375,-17.5625,-0.5102539,0.9335938,-0.4438477,0.09960938,-0.3344727,0.1220703
473,-9.9375,-18.25,-12.375,-0.5527344,0.9682617,-0.4248047,0.1020508,-0.3305664,0.1206055
477,-34.75,-23.3125,9.125,-0.5913086,1.003418,-0.3666992,0.1020508,-0.3320313,0.1191406
481,-19.625,-18.125,13.8125,-0.5253906,0.8945313,-0.3974609,0.1035156,-0.3320313,0.1152344
485,-9,-28.125,6.9375,-0.5683594,1.007324,-0.4399414,0.1020508,-0.3320313,0.1137695
489,9.125,-35.4375,-8.5,-0.5102539,1.04248,-0.4091797,0.1035156,-0.3320313,0.1123047
493,15.5,-30.5625,-18.5625,-0.4750977,1.116211,-0.3862305,0.105957,-0.3291016,0.1123047
497,5.375,-19.3125,-17.75,-0.4946289,1.13916,-0.4248047,0.1079102,-0.3291016,0.1137695
501,-7.6875,-8.1875,-12.125,-0.5102539,1.120117,-0.4594727,0.1079102,-0.328125,0.1137695
505,-16.5625,-3.8125,-9.5,-0.5566406,1.120117,-0.4863281,0.1118164,-0.328125,0.1137695
509,-19,-2.75,-10.875,-0.5410156,1.077148,-0.4477539,0.1118164,-0.3305664,0.1098633
513,-15.75,-0.3125,-14.875,-0.5683594,1.026855,-0.4321289,0.1103516,-0.3291016,0.1069336
517,-8.75,-1.5625,-16.875,-0.6342773,0.9916992,-0.4438477,0.112793,-0.3291016,0.1069336
521,1.625,-9.9375,-14.1875,-0.6494141,0.9453125,-0.4516602,0.1152344,-0.3291016,0.1069336
525,13.5625,-21.0625,-10.625,-0.6225586,0.9375,-0.4785156,0.1166992,-0.328125,0.1044922
529,25.0625,-32.1875,-12.1875,-0.5332031,0.9643555,-0.4628906,0.1176758,-0.3266602,0.1083984
533,32.25,-33.5625,-13.375,-0.5253906,1.04248,-0.4130859,0.1201172,-0.3266602,0.1098633
537,22.1875,-26.875,-6.1875,-0.4907227,1.112305,-0.378418,0.1235352,-0.3256836,0.1098633
541,3.8125,-6.5,3,-0.4287109,1.13916,-0.3129883,0.125,-0.3242188,0.1113281
545,-13.9375,16.6875,8.8125,-0.4907227,1.178223,-0.3286133,0.1235352,-0.3256836,0.1098633
549,-30.8125,30.9375,13,-0.6264648,1.131836,-0.3862305,0.1235352,-0.3256836,0.1113281
553,-31.4375,25.9375,20.0625,-0.765625,0.9682617,-0.4169922,0.1201172,-0.3305664,0.1069336
557,-14.625,9.0625,25.4375,-0.831543,0.8325195,-0.4130859,0.1186523,-0.3320313,0.1083984
561,11.875,-14.8125,28.375,-0.7929688,0.8598633,-0.4169922,0.1166992,-0.3320313,0.1083984
565,27.75,-28.6875,30.5625,-0.6728516,0.972168,-0.3823242,0.1142578,-0.3354492,0.1083984
569,24.9375,-27.3125,33,-0.5683594,1.088867,-0.3398438,0.1118164,-0.3369141,0.1083984
573,16.3125,-19.875,34.9375,-0.5253906,1.092773,-0.324707,0.109375,-0.3369141,0.1098633
577,16.8125,-14.9375,30.1875,-0.5102539,1.069336,-0.359375,0.1079102,-0.3393555,0.1123047
581,19,-17.9375,23.125,-0.5292969,1.077148,-0.3554688,0.1069336,-0.3417969,0.1137695
585,20.0625,-18.75,18.6875,-0.4946289,1.053711,-0.3359375,0.1069336,-0.3442383,0.1152344
589,18,-20.625,17.0625,-0.5024414,1.049805,-0.3823242,0.1044922,-0.3442383,0.1152344
594,16.125,-26.625,15.125,-0.5141602,1.049805,-0.378418,0.105957,-0.3442383,0.1152344
598,16.375,-32.4375,11.5625,-0.4326172,0.9916992,-0.2861328,0.1069336,-0.3466797,0.1181641
602,19.8125,-27,10.75,-0.3862305,0.9682617,-0.2167969,0.105957,-0.3466797,0.1181641
606,24.4375,-25.8125,4.1875,-0.3354492,0.956543,-0.1474609,0.1079102,-0.3481445,0.1220703
610,38,-19.4375,-9.25,-0.296875,0.9799805,-0.1669922,0.1118164,-0.3481445,0.1235352
614,40.6875,-20.5,-20.5625,-0.3588867,1.069336,-0.2363281,0.1118164,-0.3466797,0.1303711
618,33.1875,-18.3125,-16,-0.3666992,1.015137,-0.2475586,0.1152344,-0.3491211,0.1342773
622,16.5,-13.5625,-3.4375,-0.4052734,1.01123,-0.2553711,0.1186523,-0.3481445,0.1357422
626,-2.25,-8.5625,8.4375,-0.4482422,0.953125,-0.3129883,0.1176758,-0.3505859,0.1381836
630,-16.8125,-10.75,15.4375,-0.5024414,0.9257813,-0.2783203,0.1166992,-0.3544922,0.137207
634,-7.9375,-20.0625,5,-0.4868164,0.7509766,-0.2128906,0.1176758,-0.3569336,0.1357422
638,18.5625,-30.6875,-8.6875,-0.4594727,0.7001953,-0.1860352,0.1201172,-0.3569336,0.1381836
642,30.875,-40.125,-16.375,-0.4208984,0.7973633,-0.1552734,0.1225586,-0.3579102,0.1411133
646,27.6875,-37.5,-16.125,-0.3354492,0.8168945,-0.1362305,0.1269531,-0.359375,0.1450195
650,17.5,-26.5625,-9.125,-0.3745117,0.8598633,-0.1513672,0.1308594,-0.359375,0.1464844
654,-2.375,-19.3125,0.9375,-0.4365234,0.90625,-0.2822266,0.1342773,-0.359375,0.1518555
658,-16.6875,-20.75,-1.125,-0.4130859,0.8520508,-0.2514648,0.1367188,-0.3632813,0.1518555
662,-19.8125,-18.0625,-8.1875,-0.347168,0.7470703,-0.2324219,0.1401367,-0.3666992,0.1508789
666,-18.25,-23.8125,-18.75,-0.378418,0.6381836,-0.2128906,0.144043,-0.3666992,0.1518555
670,2.0625,-25.125,-28.625,-0.3242188,0.5800781,-0.1938477,0.1484375,-0.3706055,0.1547852
674,4.25,-22,-29.5625,-0.4013672,0.6694336,-0.2514648,0.1508789,-0.3706055,0.1547852
678,-13.25,-21.375,-18,-0.4169922,0.7470703,-0.2324219,0.1557617,-0.371582,0.15625
682,-34.4375,-17.3125,-2.4375,-0.3510742,0.6616211,-0.1362305,0.1616211,-0.3745117,0.15625
686,-42.5,-3.5,3.25,-0.2851563,0.6030273,-0.1362305,0.1630859,-0.3803711,0.1547852
690,-32.9375,-5,2.75,-0.6030273,0.7119141,-0.3745117,0.1665039,-0.3833008,0.1518555
694,-31.6875,-27.375,-1.25,-0.5605469,0.6884766,-0.394043,0.1665039,-0.390625,0.1533203
698,-15.5625,-41.375,-3.0625,-0.4482422,0.5175781,-0.2553711,0.1723633,-0.3955078,0.1508789
702,-8.8125,-36.375,9.375,-0.2504883,0.5839844,-0.06689453,0.1748047,-0.3979492,0.1518555
706,-13.375,-22.125,12.9375,-0.328125,0.7470703,-0.1591797,0.1757813,-0.4018555,0.1518555
710,-16.25,-21.75,8.5625,-0.4750977,0.921875,-0.3823242,0.1796875,-0.4091797,0.1533203
714,-24.125,-31.25,4.1875,-0.6069336,0.8867188,-0.5092773,0.1821289,-0.4116211,0.1508789
718,-33.5625,-49.875,20.5,-0.5214844,0.5761719,-0.2436523,0.1865234,-0.4204102,0.1494141
723,-22.5625,-59.0625,46.375,-0.3085938,0.2573242,0.1635742,0.1865234,-0.4316406,0.144043
727,21.0625,-56.875,75.75,-0.1572266,0.4165039,0.2480469,0.1879883,-0.4370117,0.1425781
731,51.0625,-47.5625,68.3125,-0.1069336,0.8945313,0.144043,0.1806641,-0.4453125,0.1425781
735,46.125,-38.75,45.375,-0.04492188,1.302734,0.02099609,0.1782227,-0.4482422,0.1450195
739,4.625,-9.9375,27.5625,0.159668,1.302734,0.04443359,0.1738281,-0.4506836,0.1494141
743,-26.8125,25.3125,-2.1875,0.06298828,1.205566,-0.1166992,0.1748047,-0.4555664,0.1494141
747,-40.3125,34.0625,-22,-0.2231445,0.9682617,-0.2783203,0.1757813,-0.4570313,0.1494141
751,-40,29.5,-27.25,-0.3549805,0.8208008,-0.3208008,0.1772461,-0.4580078,0.1494141
755,-39.4375,26.125,-27.5625,-0.4672852,0.6884766,-0.3359375,0.1831055,-0.4594727,0.1479492
759,-30.1875,8.125,-17.9375,-0.6147461,0.5952148,-0.2978516,0.1879883,-0.4628906,0.1450195
763,-19,-8.0625,-6.0625,-0.4907227,0.5913086,-0.1401367,0.1889648,-0.4643555,0.1425781
767,-9.875,-5.5625,1.8125,-0.4130859,0.6030273,-0.01318359,0.1928711,-0.4667969,0.1381836
771,-2.8125,-4.5625,6.125,-0.4404297,0.7041016,-0.04736328,0.1914063,-0.4707031,0.137207
775,-0.9375,-3.25,6,-0.328125,0.7080078,0.03271484,0.1914063,-0.4682617,0.137207
779,2.375,8.125,8.5,-0.2426758,0.6962891,0.09033203,0.1904297,-0.4692383,0.1357422
783,3.5625,20.625,8.0625,-0.2661133,0.7314453,0.05957031,0.1865234,-0.4667969,0.1342773
787,7.5,23,7.4375,-0.2426758,0.7158203,0.09423828,0.184082,-0.465332,0.1342773
791,15.3125,30.625,2.25,-0.1806641,0.7119141,0.08251953,0.1796875,-0.4604492,0.137207
795,25.5,37.5,-5.9375,-0.1499023,0.7353516,0.05957031,0.1748047,-0.4541016,0.1381836
799,25.5625,48.4375,-15.75,-0.1264648,0.7392578,-0.06298828,0.1723633,-0.4492188,0.1396484
803,18.9375,56.6875,-20.25,-0.1806641,0.7431641,-0.1206055,0.1699219,-0.4404297,0.1450195
807,14.0625,62.6875,-22.75,-0.2734375,0.7431641,-0.1782227,0.1665039,-0.4306641,0.1479492
811,11.75,57.75,-20.3125,-0.296875,0.7119141,-0.1513672,0.1630859,-0.4267578,0.1494141
815,7.9375,55.5,-23.5625,-0.2231445,0.6381836,-0.09375,0.1582031,-0.4194336,0.1508789
819,10.875,57.375,-27.4375,-0.1303711,0.5605469,-0.001464844,0.1567383,-0.4091797,0.1494141
823,20.75,69.8125,-33.9375,-0.246582,0.6108398,-0.1821289,0.1533203,-0.4057617,0.1494141
827,23.9375,58.8125,-31.4375,-0.5141602,0.7197266,-0.394043,0.1523438,-0.3994141,0.1518555
831,12.375,41.625,-19.4375,-0.4594727,0.6962891,-0.378418,0.1499023,-0.3881836,0.1533203
835,-5.5,43.25,-5.6875,-0.2851563,0.6962891,-0.2167969,0.1474609,-0.3867188,0.1508789
839,-13.9375,57.25,-3.375,-0.2426758,0.7001953,-0.1435547,0.144043,-0.3857422,0.1494141
843,-12.8125,67.875,-3.9375,-0.378418,0.7236328,-0.2514648,0.1376953,-0.3803711,0.1494141
847,-4.4375,63.0625,-4.6875,-0.5253906,0.7548828,-0.3901367,0.1357422,-0.3769531,0.1450195
852,0.9375,45.0625,-4.3125,-0.5214844,0.7817383,-0.4208984,0.1308594,-0.3730469,0.1450195
856,-4.375,34.1875,-3,-0.3974609,0.8051758,-0.3325195,0.1293945,-0.3730469,0.144043
860,-6.875,36.375,-1.625,-0.3974609,0.793457,-0.2324219,0.1269531,-0.3691406,0.1411133
864,2.1875,39.5625,4.5,-0.4711914,0.7666016,-0.2939453,0.1235352,-0.3666992,0.1411133
868,13.8125,35.4375,4,-0.5141602,0.8481445,-0.3286133,0.1210938,-0.3657227,0.1396484
872,18.875,27.8125,1.5,-0.5102539,0.9023438,-0.4052734,0.1186523,-0.3603516,0.1396484
876,17.625,19.25,0.125,-0.5024414,0.972168,-0.4360352,0.1176758,-0.359375,0.1411133
880,12.125,9.6875,-2.3125,-0.4946289,1.007324,-0.4399414,0.1142578,-0.3569336,0.144043
884,8.375,4.5625,-7.5625,-0.4829102,1.04248,-0.394043,0.112793,-0.3554688,0.1411133
888,3.1875,6.5,-9,-0.4482422,1.030762,-0.3476563,0.1152344,-0.3530273,0.1396484
892,-4.9375,15.9375,-4.9375,-0.4365234,1.026855,-0.3666992,0.112793,-0.3520508,0.1396484
896,-13,18.25,-3.0625,-0.4594727,0.9916992,-0.4477539,0.1103516,-0.3505859,0.1381836
900,-14.125,9.5,-9.75,-0.4633789,0.9956055,-0.4902344,0.1118164,-0.3505859,0.1357422
904,-15.9375,2,-17.1875,-0.4750977,0.9916992,-0.4555664,0.1103516,-0.3491211,0.1328125
908,-22.875,1.625,-16.875,-0.4326172,0.9799805,-0.359375,0.1103516,-0.3491211,0.1313477
912,-26.75,8.4375,-18.625,-0.3901367,0.921875,-0.2631836,0.112793,-0.3481445,0.1289063
916,-25.5625,13,-18.5,-0.4169922,0.8984375,-0.2861328,0.112793,-0.3481445,0.125
920,-23.5625,3.875,-26.875,-0.4672852,0.9414063,-0.3208008,0.1142578,-0.3457031,0.1235352
924,-19.875,-3.0625,-32.6875,-0.4946289,0.8481445,-0.2670898,0.1166992,-0.3442383,0.1206055
928,-20.875,-2.375,-27.375,-0.5024414,0.8012695,-0.1938477,0.1186523,-0.3432617,0.1181641
932,-20.8125,-2.3125,-17.875,-0.5063477,0.7470703,-0.2089844,0.1225586,-0.3417969,0.1166992
936,-18.125,-9.5625,-5.4375,-0.4711914,0.7587891,-0.1821289,0.1225586,-0.3417969,0.1123047
940,-13.875,-19.0625,-0.0625,-0.4907227,0.90625,-0.1782227,0.1225586,-0.3408203,0.1113281
944,-12,-32.1875,0,-0.5449219,1.007324,-0.1513672,0.1225586,-0.3417969,0.105957
948,-20.875,-35.125,7.9375,-0.4750977,1.045898,-0.05517578,0.1225586,-0.3393555,0.105957
952,-39.625,-17.875,20.25,-0.3549805,1.019043,0.02880859,0.1225586,-0.3408203,0.1030273
956,-53.875,5,20.8125,-0.378418,1.019043,-0.04003906,0.1186523,-0.3432617,0.09765625
960,-57,17.875,5.375,-0.5063477,1.06543,-0.1552734,0.1176758,-0.3442383,0.09326172
964,-52.4375,18.0625,-12.375,-0.6689453,0.9956055,-0.2285156,0.1176758,-0.3432617,0.08935547
968,-43,13.25,-19.6875,-0.796875,0.8208008,-0.2285156,0.1176758,-0.3457031,0.08691406
972,-24.5625,6.5,-9.6875,-0.8510742,0.6811523,-0.2207031,0.1186523,-0.3457031,0.08691406
976,-11.1875,1.375,13.5625,-0.8354492,0.6845703,-0.2246094,0.1176758,-0.3432617,0.08398438
981,1.375,-8.5,30.25,-0.8046875,0.7895508,-0.3012695,0.1176758,-0.3417969,0.08251953
985,11.0625,-21.4375,29.375,-0.7114258,0.987793,-0.324707,0.1166992,-0.3432617,0.08251953
989,13.625,-20.3125,17.875,-0.5795898,1.04248,-0.2822266,0.112793,-0.3417969,0.08398438
993,15.4375,-12.5,16.4375,-0.7075195,1.061523,-0.4516602,0.1142578,-0.3417969,0.08544922
997,6.1875,-15.8125,20.5,-0.5644531,0.953125,-0.3823242,0.112793,-0.3417969,0.08251953
1001,7.1875,-17.375,24.3125,-0.5566406,1.053711,-0.4130859,0.1118164,-0.3393555,0.08398438
1005,4.8125,-24.1875,18.3125,-0.5566406,1.124023,-0.4052734,0.109375,-0.3417969,0.08398438
1009,2.375,-20.9375,16.8125,-0.4482422,1.04248,-0.309082,0.109375,-0.3417969,0.08251953
1013,6.5,-14.125,15.0625,-0.4365234,1.053711,-0.2705078,0.1079102,-0.3408203,0.08251953
1017,6,-9.5625,11.25,-0.4365234,1.146973,-0.2861328,0.105957,-0.3417969,0.08105469
1021,0.375,-5.1875,7.5625,-0.4052734,1.174316,-0.2939453,0.1044922,-0.3432617,0.08007813
1025,-1.9375,0.1875,2.8125,-0.3862305,1.186035,-0.2631836,0.105957,-0.3417969,0.08105469
1029,-7.5625,8.4375,-2.4375,-0.3935547,1.213379,-0.2397461,0.1020508,-0.3432617,0.08105469
1033,-11.75,16.125,-4.75,-0.4555664,1.135742,-0.2285156,0.1044922,-0.3442383,0.08105469
1037,-8.75,15.375,-7.1875,-0.5756836,1.088867,-0.2744141,0.1044922,-0.3432617,0.07714844
1041,-1.3125,6,-8.5625,-0.6069336,1.084961,-0.2978516,0.1035156,-0.3442383,0.08007813
1045,4.6875,-0.25,-8.8125,-0.5874023,1.100586,-0.2822266,0.105957,-0.3442383,0.08251953
1049,7.75,1.3125,-9.3125,-0.5644531,1.104492,-0.2705078,0.105957,-0.3432617,0.07861328
1053,10.5,5.8125,-9.9375,-0.5566406,1.135742,-0.2822266,0.1069336,-0.3417969,0.08251953
1057,9.6875,6.6875,-12.25,-0.5756836,1.182129,-0.2939453,0.1079102,-0.3432617,0.08251953
1061,9.875,8.75,-15.6875,-0.5488281,1.197754,-0.2822266,0.109375,-0.3457031,0.08398438
1065,7.9375,15.6875,-19.75,-0.5488281,1.259766,-0.2397461,0.1118164,-0.3432617,0.08691406
1069,1.5,27.5,-23.0625,-0.5605469,1.283203,-0.1899414,0.1118164,-0.3432617,0.08691406
1073,-4.1875,39.125,-26.125,-0.6030273,1.248047,-0.2055664,0.112793,-0.3442383,0.08691406
1077,-9.3125,44.625,-26.5,-0.5834961,1.182129,-0.2089844,0.1142578,-0.3457031,0.08789063
1081,-9.1875,49,-24.3125,-0.6030273,1.081055,-0.2436523,0.1152344,-0.3457031,0.08935547
1085,-6.1875,43.75,-22,-0.6728516,1.04248,-0.2631836,0.1176758,-0.3466797,0.09228516
1089,0.375,32.25,-21.625,-0.6845703,0.9604492,-0.3129883,0.1176758,-0.3491211,0.09228516
1093,13.8125,17.5625,-22.1875,-0.6806641,0.9179688,-0.359375,0.1176758,-0.3491211,0.09472656
1097,26,3.75,-22,-0.6767578,0.9682617,-0.3823242,0.1201172,-0.3505859,0.09765625
1101,22.9375,-6.625,-17.5,-0.6303711,1.061523,-0.3666992,0.1225586,-0.3481445,0.1000977
1105,3.8125,-2.375,-7.25,-0.4907227,1.030762,-0.2475586,0.1235352,-0.3530273,0.1030273
1110,-12.5625,8.1875,-1.375,-0.4750977,0.9023438,-0.2285156,0.1259766,-0.3530273,0.1015625
1114,-12.125,13.125,-1.5,-0.4946289,0.8012695,-0.2514648,0.1259766,-0.3554688,0.1044922
1118,-5.5,9.75,-7,-0.5527344,0.7739258,-0.3515625,0.128418,-0.3569336,0.1044922
1122,5.5,-4.4375,-15.375,-0.6069336,0.7275391,-0.4321289,0.1293945,-0.359375,0.105957
1126,10.75,-21.875,-17.625,-0.6728516,0.875,-0.4321289,0.1308594,-0.359375,0.1069336
1130,-9.5625,-31.5,-3.9375,-0.5795898,0.8598633,-0.309082,0.1367188,-0.3603516,0.1083984
1134,-29.8125,-24.3125,15.9375,-0.5102539,0.6884766,-0.2285156,0.1376953,-0.3642578,0.1083984
1138,-29.25,-26.125,21.4375,-0.4750977,0.5371094,-0.2016602,0.1391602,-0.3691406,0.105957
1142,-3.4375,-33.5625,9.875,-0.4946289,0.5605469,-0.1860352,0.1391602,-0.3730469,0.105957
1146,11.125,-49.3125,-4.4375,-0.5488281,0.7548828,-0.2397461,0.1416016,-0.3754883,0.105957
1150,-2.5625,-59,-4.625,-0.4443359,0.8789063,-0.1474609,0.144043,-0.3818359,0.105957
1154,-39.4375,-49.375,13.8125,-0.3666992,0.7509766,-0.01660156,0.1484375,-0.3857422,0.1030273
1158,-65.25,-31.5625,48.8125,-0.3549805,0.7001953,0.05566406,0.1484375,-0.390625,0.09765625
1162,-87.875,-15.875,74.6875,-0.4521484,0.8632813,-0.01660156,0.1459961,-0.3979492,0.09228516
1166,-106.1875,-17.6875,79.4375,-0.4091797,0.7973633,0.03662109,0.1401367,-0.4106445,0.08251953
1170,-73.5625,-27.9375,44.6875,-0.2192383,0.4594727,0.2749023,0.1342773,-0.4204102,0.07324219
1174,-9.8125,-24.8125,1.875,-0.1225586,0.4985352,0.3637695,0.1357422,-0.4228516,0.07177734
1178,7.5,-13.125,-10.5,-0.262207,0.7119141,0.2636719,0.1376953,-0.4282227,0.07177734
1182,5.8125,5.9375,-5.75,-0.3706055,0.7001953,0.02490234,0.1401367,-0.4331055,0.07324219
1186,3.0625,2.25,5,-0.6533203,0.9023438,-0.2324219,0.1416016,-0.4331055,0.07861328
1190,-8.125,-24.0625,16.375,-0.7114258,0.8520508,-0.3901367,0.1416016,-0.4379883,0.07714844
1194,-22.9375,-49.375,29.25,-0.4750977,0.6733398,-0.2016602,0.1425781,-0.4443359,0.08007813
1198,-15.5625,-49.125,31.375,-0.1728516,0.4672852,0.1210938,0.1416016,-0.4506836,0.07714844
1202,9.0625,-39.9375,23.75,-0.1650391,0.4672852,0.1982422,0.1391602,-0.4580078,0.07714844
1206,32,-36.25,9.4375,-0.1381836,0.5332031,0.1367188,0.1391602,-0.4628906,0.08105469
1210,47.6875,-24.875,0.625,-0.28125,0.7705078,-0.07861328,0.1391602,-0.465332,0.08251953
1214,37.625,-31.125,-1,-0.4443359,0.9414063,-0.34375,0.1401367,-0.465332,0.09082031
1218,18.25,-40.625,8.3125,-0.4052734,0.8286133,-0.3862305,0.1416016,-0.4682617,0.09619141
1222,0.5625,-39.5625,21.5625,-0.2270508,0.7705078,-0.2016602,0.1416016,-0.4741211,0.09619141
1226,-8.3125,-24.4375,22.125,-0.1767578,0.8168945,-0.07861328,0.1376953,-0.4794922,0.09765625
1230,-8.6875,-18.9375,15.0625,-0.28125,0.8828125,-0.08984375,0.1357422,-0.4829102,0.09619141
1234,-7.375,-20.0625,8.75,-0.3203125,0.8286133,-0.1362305,0.1367188,-0.4868164,0.09472656
1239,0.6875,-29.3125,6.875,-0.4443359,0.8012695,-0.2514648,0.1318359,-0.4907227,0.09619141
1243,5.25,-46.75,11.1875,-0.3706055,0.7973633,-0.1977539,0.1342773,-0.4956055,0.09619141
1247,2.875,-43.9375,18.5625,-0.262207,0.8632813,-0.07470703,0.1333008,-0.496582,0.09326172
1251,-6.75,-36.75,25.8125,-0.2773438,0.90625,-0.005371094,0.1318359,-0.5029297,0.09082031
1255,-6.625,-39.0625,27.25,-0.3549805,0.8012695,0.05566406,0.128418,-0.5068359,0.08691406
1259,20.6875,-60.125,28.3125,-0.3432617,0.6884766,0.06738281,0.125,-0.5068359,0.08544922
1263,42.5625,-68.625,24.625,-0.09912109,0.90625,0.144043,0.1225586,-0.5107422,0.08935547
1267,36.8125,-47.5,18.0625,0.1557617,1.124023,0.2402344,0.1210938,-0.5092773,0.08935547
1271,12.0625,-4,4.8125,0.2915039,1.20166,0.2675781,0.1186523,-0.5107422,0.09326172
1275,-17.0625,45.1875,-11.75,0.2490234,1.189941,0.2133789,0.1201172,-0.5117188,0.09472656
1279,-41.6875,84.375,-29.25,-0.02978516,1.04248,0.02099609,0.1201172,-0.5078125,0.09472656
1283,-42.8125,83.0625,-32.0625,-0.4013672,0.7895508,-0.1821289,0.125,-0.5117188,0.09472656
1287,-32.6875,66.1875,-29.0625,-0.5292969,0.6616211,-0.1630859,0.128418,-0.5092773,0.09472656
1291,-20,53.75,-20.25,-0.5292969,0.5952148,-0.08203125,0.1293945,-0.5078125,0.09326172
1295,-4.8125,41.25,-10,-0.6108398,0.5332031,-0.05517578,0.1318359,-0.5078125,0.09619141
1299,13.3125,26.5,0.625,-0.5644531,0.5449219,-0.08984375,0.1308594,-0.5029297,0.09472656
1303,25,19.875,7.0625,-0.4985352,0.6733398,-0.128418,0.1293945,-0.4980469,0.1000977
1307,21.125,17.6875,12.25,-0.4013672,0.7470703,-0.1015625,0.128418,-0.4916992,0.1015625
1311,14.875,21.5,17.9375,-0.3007813,0.7353516,-0.01318359,0.1235352,-0.4868164,0.1044922
1315,10.3125,29.9375,21.875,-0.2041016,0.6733398,0.105957,0.1176758,-0.4829102,0.1030273
1319,25.6875,37.3125,16.75,-0.215332,0.5761719,0.009765625,0.1166992,-0.4794922,0.1044922
1323,48.625,28.625,8.6875,-0.296875,0.7001953,-0.1708984,0.1118164,-0.4692383,0.105957
1327,50.1875,20.4375,1.3125,-0.246582,0.8481445,-0.2553711,0.1079102,-0.4619141,0.1098633
1331,34.1875,23.6875,1.9375,-0.1806641,0.8945313,-0.1977539,0.105957,-0.4570313,0.1152344
1335,15.125,29.25,1.8125,-0.1650391,0.840332,-0.1166992,0.1035156,-0.4492188,0.1137695
1339,17.3125,36.6875,-2.125,-0.1767578,0.7509766,-0.1669922,0.1020508,-0.4443359,0.1152344
1343,18.8125,39.4375,-2.0625,-0.1572266,0.793457,-0.2363281,0.1010742,-0.4404297,0.1123047
1347,17.75,49.1875,-4.1875,-0.1884766,0.8984375,-0.3632813,0.09863281,-0.4355469,0.1123047
1351,5.5,42.5625,-11.3125,-0.2890625,0.9956055,-0.4091797,0.09765625,-0.4316406,0.1123047
1355,-5.625,32.9375,-16.5,-0.3164063,0.890625,-0.3286133,0.09619141,-0.4291992,0.1113281
1359,-8.4375,20.125,-12.4375,-0.3901367,0.7817383,-0.2436523,0.09765625,-0.4257813,0.1098633
1363,-0.6875,11.25,-8.0625,-0.2700195,0.6845703,-0.109375,0.09863281,-0.4243164,0.1069336
1368,13.8125,19.75,-4.5625,-0.1884766,0.7236328,-0.07470703,0.09960938,-0.4204102,0.1044922
1372,14.8125,25.4375,-6.0625,-0.230957,0.8520508,-0.1474609,0.09863281,-0.4155273,0.1044922
1376,6.5625,23.0625,-7.6875,-0.2700195,0.8984375,-0.2128906,0.09619141,-0.4130859,0.1030273
1380,2.75,19.4375,-10.5,-0.3007813,0.890625,-0.1591797,0.09863281,-0.4082031,0.1044922
1384,0.3125,18.4375,-10.125,-0.3085938,0.8789063,-0.1245117,0.09765625,-0.4057617,0.09912109
1388,-1.8125,17.5625,-9.5,-0.3432617,0.9023438,-0.1474609,0.09619141,-0.4042969,0.1000977
1392,-4.6875,15.8125,-12.1875,-0.3432617,0.8520508,-0.1206055,0.09863281,-0.4003906,0.09912109
1396,-3.375,17.1875,-13.5,-0.328125,0.8168945,-0.09765625,0.09619141,-0.3994141,0.09619141
1400,-1.3125,17.9375,-13.9375,-0.3862305,0.8867188,-0.1323242,0.09863281,-0.3945313,0.09326172
1404,-2.625,15.375,-11.875,-0.4868164,0.9179688,-0.1743164,0.09765625,-0.3955078,0.09228516
1408,0.375,9.5625,-8,-0.5141602,0.9296875,-0.2363281,0.09619141,-0.3916016,0.09228516
1412,1.25,3.625,-8.5,-0.4555664,0.956543,-0.2822266,0.09619141,-0.390625,0.08935547
1416,-2.625,-0.5,-13.25,-0.4482422,1.007324,-0.324707,0.09765625,-0.3891602,0.08789063
1420,-15.75,-2.1875,-13.3125,-0.4711914,1.015137,-0.2783203,0.09765625,-0.3891602,0.08789063
1424,-25.3125,-0.9375,-8.3125,-0.4790039,0.9492188,-0.1938477,0.09619141,-0.3857422,0.08105469
1428,-24.9375,-0.4375,-4.625,-0.4672852,0.9140625,-0.1362305,0.09863281,-0.3857422,0.08007813
1432,-23.5625,-2.625,-5.3125,-0.4555664,0.9643555,-0.128418,0.09619141,-0.3857422,0.07568359
1436,-23.375,-5.25,-10.25,-0.4287109,0.9492188,-0.0859375,0.09765625,-0.3818359,0.07177734
1440,-15.125,-8,-17.875,-0.4404297,0.8867188,-0.08203125,0.09960938,-0.3818359,0.0703125
1444,-11.75,-13.5,-18.5625,-0.4443359,0.90625,-0.08984375,0.1010742,-0.3818359,0.06787109
1448,-14.625,-15.5625,-15.1875,-0.4169922,0.972168,-0.05126953,0.1010742,-0.3779297,0.06494141
1452,-17.5,-13,-14.4375,-0.4521484,0.9916992,-0.02441406,0.1044922,-0.3769531,0.06347656
1456,-15.75,-12.9375,-16.5,-0.4711914,0.9257813,0.005859375,0.1035156,-0.3730469,0.05957031
1460,-9.375,-16.1875,-18.8125,-0.4555664,0.855957,0.005859375,0.105957,-0.3730469,0.05664063
1464,-1.5,-18.875,-19.5625,-0.3706055,0.8520508,-0.01660156,0.105957,-0.3730469,0.05517578
1468,0.3125,-17.75,-28.1875,-0.4091797,1.007324,-0.02441406,0.1069336,-0.3706055,0.05517578
1472,-4.9375,-15.1875,-33.6875,-0.4829102,0.9682617,-0.04003906,0.1103516,-0.3666992,0.05419922
1476,-9.375,-12.9375,-30.5625,-0.5292969,0.8364258,-0.03613281,0.112793,-0.3642578,0.05273438
1480,-8.1875,-13.5625,-20.625,-0.5605469,0.7353516,-0.06689453,0.1152344,-0.3642578,0.05126953
1484,-3.5625,-21.25,-9.5,-0.5991211,0.7705078,-0.128418,0.1142578,-0.359375,0.05126953
1488,2.5,-32.5,-10,-0.5952148,0.921875,-0.1782227,0.1152344,-0.359375,0.05126953
1492,-0.3125,-33.75,-16.5,-0.6069336,0.9643555,-0.128418,0.1166992,-0.3579102,0.04736328
1497,-6.0625,-25.9375,-14.4375,-0.6416016,0.855957,-0.128418,0.1186523,-0.3544922,0.04882813
1501,-9.9375,-19.3125,0.5,-0.7270508,0.7392578,-0.1782227,0.1201172,-0.3530273,0.04736328
1505,-1.0625,-24.9375,19.875,-0.8354492,0.7666016,-0.2744141,0.1176758,-0.3505859,0.04443359
1509,14.5625,-42.3125,32.125,-0.8974609,0.8598633,-0.3476563,0.1186523,-0.3520508,0.04296875
1513,11.1875,-70.1875,46.1875,-0.8393555,1.104492,-0.2978516,0.1176758,-0.3505859,0.04443359
1517,25,-65.875,46.25,-0.5527344,1.077148,-0.1708984,0.1152344,-0.3491211,0.04296875
1521,29.875,-51.6875,40.1875,-0.4248047,1.236328,-0.112793,0.1079102,-0.3491211,0.04052734
1525,26.5,-33.3125,30.875,-0.4052734,1.349121,-0.112793,0.1069336,-0.3505859,0.04199219
1529,17.375,-19.4375,20.375,-0.4633789,1.43457,-0.1552734,0.1044922,-0.3520508,0.04443359
1533,6.0625,-11.5625,13.75,-0.4829102,1.388184,-0.1401367,0.1044922,-0.3491211,0.04296875
1537,-1.125,-2.9375,14.5,-0.4711914,1.298828,-0.1015625,0.1010742,-0.3505859,0.04443359
1541,-4.5,0.1875,15.5625,-0.4985352,1.283203,-0.1245117,0.09863281,-0.3520508,0.04296875
1545,-4.3125,-1.3125,9.625,-0.4287109,1.213379,-0.07080078,0.09863281,-0.3520508,0.04296875
1549,8.5625,-0.8125,-7.125,-0.4130859,1.174316,-0.06689453,0.09863281,-0.3530273,0.04052734
1553,17,-2.1875,-21.5,-0.4326172,1.174316,-0.0859375,0.09863281,-0.3520508,0.04589844
1557,14.375,0.875,-26.4375,-0.4365234,1.182129,-0.06689453,0.09960938,-0.3505859,0.04296875
1561,5.5,10.6875,-28.125,-0.4248047,1.178223,-0.05126953,0.1044922,-0.3505859,0.04589844
1565,-5.125,22,-27.1875,-0.4443359,1.13916,-0.06298828,0.1069336,-0.3491211,0.04736328
1569,-10.5625,30.6875,-23.875,-0.4790039,1.049805,-0.06689453,0.1069336,-0.3481445,0.04589844
1573,-0.6875,31.5625,-26.5625,-0.5722656,0.972168,-0.109375,0.1118164,-0.3466797,0.04736328
1577,18.5625,22.0625,-31,-0.6806641,0.9760742,-0.1743164,0.1118164,-0.3505859,0.05126953
1581,31.25,10.5,-31.6875,-0.6923828,1.049805,-0.2285156,0.1152344,-0.3491211,0.05273438
1585,31.625,5.8125,-29.1875,-0.6376953,1.135742,-0.2167969,0.1166992,-0.3466797,0.05419922
1589,20.5625,12.125,-28.375,-0.5952148,1.209473,-0.1860352,0.1201172,-0.3457031,0.05810547
1593,10.1875,18.0625,-30.75,-0.6806641,1.116211,-0.1860352,0.1235352,-0.3457031,0.05957031
1597,11.125,22.1875,-31.8125,-0.715332,0.9760742,-0.1938477,0.1235352,-0.3481445,0.06103516
1601,16.4375,22.875,-28.0625,-0.7929688,0.855957,-0.2744141,0.1269531,-0.3457031,0.06347656
1605,24.4375,15,-21.25,-0.8125,0.8051758,-0.3359375,0.1293945,-0.3466797,0.06640625
1609,28,9.125,-15.1875,-0.7734375,0.8481445,-0.3208008,0.128418,-0.3466797,0.06884766
1613,22.875,10.375,-11.8125,-0.7270508,0.9140625,-0.2978516,0.1308594,-0.3481445,0.07177734
1617,12,16.625,-6.1875,-0.730957,0.9375,-0.2978516,0.1318359,-0.3481445,0.07421875
1621,-0.3125,17.625,-0.5625,-0.7036133,0.921875,-0.309082,0.1357422,-0.3481445,0.07714844
1626,-6.1875,16.6875,4.3125,-0.6533203,0.9257813,-0.2783203,0.1342773,-0.3505859,0.07568359
1630,-7.9375,13.8125,7.625,-0.6264648,0.9375,-0.2016602,0.1357422,-0.3554688,0.07861328
1634,-2.375,8.375,8.875,-0.6069336,0.890625,-0.1513672,0.1342773,-0.3554688,0.07861328
1638,11.875,0.5,8.1875,-0.5991211,0.8828125,-0.128418,0.1342773,-0.359375,0.07861328
1642,29.25,-7.75,5,-0.5566406,0.9492188,-0.1362305,0.1342773,-0.3632813,0.08105469
1646,29.875,-12.1875,4.875,-0.5102539,1.081055,-0.1362305,0.1357422,-0.3618164,0.08544922
1650,14.3125,-13.125,6.9375,-0.4482422,1.100586,-0.1245117,0.1376953,-0.3632813,0.08789063
1654,0.875,-11.375,10.6875,-0.4443359,1.007324,-0.1362305,0.1376953,-0.3642578,0.08789063
1658,0.3125,-14.5625,10.25,-0.4130859,0.8632813,-0.1708984,0.1391602,-0.3691406,0.08789063
1662,15.75,-22.375,-3.1875,-0.3862305,0.8286133,-0.1630859,0.1391602,-0.3706055,0.09082031
1666,22.1875,-26.875,-12.4375,-0.2734375,0.809082,-0.09765625,0.1401367,-0.3745117,0.09228516
1670,20.9375,-19.3125,-19.5625,-0.2504883,0.8867188,-0.05908203,0.144043,-0.3745117,0.09326172
1674,7.5625,-13.375,-20.625,-0.3125,0.8671875,-0.109375,0.1474609,-0.3769531,0.09765625
1678,-6.3125,-13.1875,-16.125,-0.3588867,0.8168945,-0.1552734,0.1508789,-0.3769531,0.1000977
1682,-16.6875,-10.6875,-11.5,-0.3007813,0.7197266,-0.05908203,0.1547852,-0.3803711,0.1000977
1686,-10.875,-7.125,-13.75,-0.347168,0.6225586,-0.0859375,0.1557617,-0.3818359,0.1000977
1690,3.3125,-15.5625,-21.8125,-0.3901367,0.6264648,-0.1362305,0.1616211,-0.3842773,0.09912109
1694,11,-26.5625,-25.3125,-0.4248047,0.6733398,-0.2363281,0.1650391,-0.3803711,0.1030273
1698,8.9375,-29.9375,-26.625,-0.296875,0.6538086,-0.09375,0.1699219,-0.3842773,0.1030273
1702,10.0625,-10.6875,-23.5,-0.3666992,0.7119141,-0.05126953,0.1757813,-0.3842773,0.1044922
1706,11.0625,-2.6875,-17.75,-0.4829102,0.6811523,-0.109375,0.1782227,-0.3842773,0.1069336
1710,19.5,-7.125,-15,-0.5102539,0.5488281,-0.1669922,0.1831055,-0.3857422,0.1113281
1714,29.6875,-20.75,-11.3125,-0.4985352,0.5410156,-0.2016602,0.1865234,-0.3857422,0.1152344
1718,44.4375,-31.9375,-15.875,-0.5795898,0.6108398,-0.3012695,0.1879883,-0.3857422,0.1166992
1722,49,-43.1875,-19.25,-0.6030273,0.7509766,-0.359375,0.1938477,-0.3867188,0.1220703
1726,34.5,-41.0625,-14.3125,-0.4790039,0.7739258,-0.2514648,0.1972656,-0.3857422,0.1259766
1730,15.25,-24.9375,-5.0625,-0.3320313,0.7275391,-0.128418,0.199707,-0.3881836,0.1259766
1734,1.4375,-6.625,-7.5,-0.3901367,0.7353516,-0.1435547,0.203125,-0.3891602,0.1274414
1738,0.875,-11.8125,-14.875,-0.5874023,0.7197266,-0.2514648,0.2070313,-0.3916016,0.1303711
1742,4.6875,-27.3125,-12.75,-0.6572266,0.5683594,-0.2861328,0.2104492,-0.3930664,0.1303711
1746,14.3125,-43.375,6.0625,-0.6845703,0.5410156,-0.2861328,0.2138672,-0.3969727,0.1303711
1750,9.0625,-49.25,26.25,-0.4248047,0.6147461,-0.1977539,0.215332,-0.4003906,0.1289063
1755,-3.8125,-30.0625,23.625,-0.1420898,0.7314453,0.005859375,0.2163086,-0.4042969,0.1303711
1759,-13.875,-4.0625,6.4375,-0.2348633,0.8051758,-0.02050781,0.2163086,-0.4082031,0.1274414
1763,-22,4.8125,-6.125,-0.378418,0.7817383,-0.0859375,0.2177734,-0.4116211,0.1259766
1767,-20.25,5.125,-13.8125,-0.5644531,0.6694336,-0.2207031,0.2202148,-0.4130859,0.1259766
1771,-4.8125,-11,-9.8125,-0.6728516,0.5761719,-0.3208008,0.2236328,-0.4140625,0.1235352
1775,-2.9375,-21.3125,3.9375,-0.5527344,0.6923828,-0.2592773,0.2236328,-0.4140625,0.1220703
1779,-14.875,-13.25,6.375,-0.3046875,0.7314453,-0.06689453,0.2246094,-0.4179688,0.1220703
1783,-24,7.0625,-1.9375,-0.3432617,0.7666016,-0.07470703,0.2270508,-0.4194336,0.1181641
1787,-29.6875,13,-9.9375,-0.5292969,0.7236328,-0.1591797,0.2285156,-0.421875,0.1166992
1791,-24.125,4.6875,-4.8125,-0.6186523,0.6420898,-0.2016602,0.2270508,-0.4228516,0.1152344
1795,-15.3125,-5.9375,-0.1875,-0.5722656,0.6264648,-0.1401367,0.2294922,-0.4228516,0.1123047
1799,-5.4375,-7.3125,1.625,-0.4169922,0.6733398,-0.01660156,0.2285156,-0.4228516,0.1098633
1803,-3.125,2.75,-5.125,-0.3935547,0.7392578,-0.009277344,0.2270508,-0.4243164,0.1083984
1807,-6.25,11.625,-7.8125,-0.5214844,0.7548828,-0.08203125,0.2285156,-0.4228516,0.1083984
1811,-6.75,11.125,-2.375,-0.6069336,0.6962891,-0.1245117,0.2260742,-0.421875,0.1069336
1815,-1.875,7.4375,4.0625,-0.5874023,0.6577148,-0.1054688,0.2285156,-0.4204102,0.105957
1819,4.875,5.875,7.375,-0.5410156,0.7041016,-0.07470703,0.2246094,-0.4204102,0.105957
1823,7.3125,6.6875,4.125,-0.4790039,0.7587891,-0.02832031,0.2236328,-0.4179688,0.1069336
1827,9.25,13.125,-0.4375,-0.4790039,0.7431641,-0.05126953,0.222168,-0.4179688,0.1083984
1831,10.5625,15.0625,-1.8125,-0.5605469,0.7470703,-0.1435547,0.2202148,-0.4140625,0.1098633
1835,7.8125,12.5,0.875,-0.5175781,0.7275391,-0.112793,0.21875,-0.4106445,0.1113281
1839,8.4375,16.75,2.375,-0.5063477,0.7314453,-0.08984375,0.21875,-0.4091797,0.1113281
1843,8.8125,16.875,2.1875,-0.4985352,0.7856445,-0.07080078,0.215332,-0.4057617,0.1123047
1847,7.25,23.5625,0.625,-0.4555664,0.7431641,-0.05908203,0.2119141,-0.402832,0.1152344
1851,4.9375,26.5625,1.0625,-0.4907227,0.7470703,-0.109375,0.2104492,-0.4018555,0.1166992
1855,0.6875,28.1875,1.5625,-0.4091797,0.7001953,-0.05126953,0.2080078,-0.3994141,0.1181641
1859,2.75,36.3125,0.8125,-0.4404297,0.7119141,-0.06689453,0.2070313,-0.3955078,0.1191406
1863,1.1875,37.75,0.6875,-0.5102539,0.7666016,-0.1206055,0.2021484,-0.3955078,0.1191406
1867,-1.0625,36.6875,2.5,-0.5024414,0.7314453,-0.1362305,0.1972656,-0.3930664,0.1220703
1871,3.9375,35.1875,3.75,-0.5332031,0.6264648,-0.2128906,0.1962891,-0.3891602,0.1220703
1875,12.5625,27.25,7,-0.5488281,0.6499023,-0.2822266,0.1914063,-0.3867188,0.125
1879,13.4375,21.1875,9.75,-0.4907227,0.7119141,-0.2324219,0.1879883,-0.3842773,0.1235352
1884,7.125,25.6875,9.4375,-0.4169922,0.7587891,-0.1938477,0.1855469,-0.3833008,0.1274414
1888,-2.625,32.875,9.375,-0.4365234,0.7817383,-0.1899414,0.184082,-0.3779297,0.125
1892,-9.9375,38,8.3125,-0.4482422,0.7509766,-0.2514648,0.1782227,-0.3754883,0.1259766
1896,-6.375,36.4375,6.1875,-0.5292969,0.7392578,-0.324707,0.1757813,-0.3769531,0.1259766
1900,-7.5625,26.1875,4.3125,-0.5410156,0.7470703,-0.3632813,0.1723633,-0.3730469,0.1259766
1904,-8.8125,17,5.375,-0.4633789,0.6962891,-0.2861328,0.1723633,-0.371582,0.125
1908,-5.5,13.9375,5.4375,-0.4248047,0.6694336,-0.2246094,0.1689453,-0.3691406,0.1235352
1912,-0.125,21.75,4.4375,-0.3354492,0.6845703,-0.1860352,0.1665039,-0.3681641,0.1220703
1916,9.6875,35.5625,0.3125,-0.4404297,0.7666016,-0.3901367,0.1650391,-0.3666992,0.1220703
1920,7.0625,20.1875,-6.25,-0.6303711,0.8598633,-0.5708008,0.1616211,-0.3642578,0.1220703
1924,0.75,-1.9375,-12.25,-0.5952148,0.7817383,-0.5439453,0.1606445,-0.3642578,0.125
1928,10.25,-18,-21.3125,-0.4482422,0.6420898,-0.3862305,0.1616211,-0.3603516,0.1206055
1932,38.25,-19.0625,-43.9375,-0.4287109,0.6186523,-0.3745117,0.1640625,-0.3579102,0.1191406
1936,69.8125,-23.0625,-68.4375,-0.5253906,0.6845703,-0.4438477,0.1674805,-0.3544922,0.1206055
1940,77.375,-30.4375,-75.25,-0.6030273,0.809082,-0.5053711,0.1738281,-0.3457031,0.1220703
1944,51.8125,-40.1875,-63.25,-0.6376953,0.855957,-0.4936523,0.1821289,-0.3393555,0.1259766
1948,21.25,-34.6875,-39.8125,-0.5141602,0.8442383,-0.3208008,0.1831055,-0.3344727,0.1259766
1952,-7.6875,-16.9375,-15.5,-0.5063477,0.7817383,-0.2324219,0.184082,-0.3305664,0.1220703
1956,-19.875,-10.625,-3.5625,-0.5527344,0.7856445,-0.1938477,0.1865234,-0.3305664,0.1191406
1960,-24.6875,-19.9375,-6.25,-0.5332031,0.824707,-0.1435547,0.1865234,-0.3291016,0.1181641
1964,-31,-20.8125,-9.8125,-0.4672852,0.8286133,-0.005371094,0.1855469,-0.3291016,0.1113281
1968,-32.8125,-14.875,-11.5625,-0.5253906,0.7739258,0.07128906,0.1889648,-0.3305664,0.105957
1972,-26.4375,-6.6875,-8,-0.5952148,0.6733398,0.06347656,0.1865234,-0.328125,0.1030273
1976,-18.875,-6.625,1.5,-0.6689453,0.7041016,-0.02441406,0.1855469,-0.328125,0.1015625
1980,-17.625,-11.125,9.5625,-0.5913086,0.793457,-0.05517578,0.1855469,-0.3266602,0.09472656
1984,-22.625,-10.6875,6.25,-0.5795898,0.8984375,-0.07861328,0.1831055,-0.3291016,0.09472656
1988,-30.875,-8.875,-4.0625,-0.5913086,0.9296875,0.009765625,0.1806641,-0.3266602,0.09082031
1992,-33.125,1.9375,-10.0625,-0.6923828,0.793457,-0.02050781,0.1806641,-0.3256836,0.08691406
1996,-32.8125,5.4375,-3.3125,-0.7734375,0.6694336,-0.1245117,0.1806641,-0.3266602,0.08398438
2000,-22.8125,-0.4375,2.5625,-0.7578125,0.6811523,-0.2128906,0.1806641,-0.3256836,0.08251953
2004,-19.4375,-10.6875,-2.625,-0.7270508,0.8442383,-0.2553711,0.1782227,-0.3242188,0.07861328
2008,-21.875,-15.6875,-10,-0.7348633,0.8442383,-0.1977539,0.1782227,-0.3242188,0.08007813
2013,-28.25,-12.8125,-8.9375,-0.78125,0.7973633,-0.1708984,0.1782227,-0.3208008,0.07568359
2017,-29.5,-16.125,-2.5,-0.7851563,0.7041016,-0.1552734,0.1796875,-0.3208008,0.07177734
2021,-23,-21.1875,3.875,-0.7231445,0.7197266,-0.1669922,0.1806641,-0.3193359,0.0703125
2025,-19.125,-24.0625,-0.375,-0.6650391,0.8442383,-0.1513672,0.1806641,-0.3193359,0.06787109
2029,-17.3125,-22.125,-10.75,-0.6845703,0.8789063,-0.1054688,0.1782227,-0.3178711,0.06347656
2033,-19.6875,-16.75,-12.625,-0.7348633,0.8208008,-0.09375,0.1806641,-0.3154297,0.06201172
2037,-18.375,-16.125,-8.6875,-0.847168,0.7739258,-0.1669922,0.1806641,-0.3129883,0.05957031
2041,-13.1875,-24.8125,-2.4375,-0.9091797,0.8051758,-0.2553711,0.1806641,-0.3120117,0.05517578
2045,-8.6875,-30.9375,-2.4375,-0.9091797,0.8945313,-0.2475586,0.1796875,-0.3120117,0.05517578
2049,-14.875,-25.625,2.6875,-0.8706055,0.9179688,-0.2089844,0.1796875,-0.3095703,0.05419922
2053,-17.5,-20.375,12.0625,-0.9169922,0.8208008,-0.2475586,0.1821289,-0.3105469,0.05126953
2057,-4.8125,-28,16.375,-0.9130859,0.7895508,-0.3666992,0.1796875,-0.3120117,0.04736328
2061,11.6875,-39.875,9.875,-0.8510742,0.9140625,-0.4594727,0.1796875,-0.3129883,0.04589844
2065,15.0625,-46.8125,-2.8125,-0.8237305,1.069336,-0.4785156,0.1796875,-0.3095703,0.04589844
2069,-3.25,-41.25,-8.9375,-0.7504883,1.112305,-0.3901367,0.1782227,-0.3120117,0.04589844
2073,-29.25,-26.1875,-4.5,-0.7578125,1.030762,-0.3051758,0.1806641,-0.3105469,0.04052734
2077,-42.1875,-22.75,1,-0.78125,0.9179688,-0.2670898,0.1806641,-0.3120117,0.03759766
2081,-47.1875,-21.6875,-0.5,-0.7617188,0.9296875,-0.1821289,0.1806641,-0.3105469,0.03369141
2085,-52.5,-17.6875,-8.3125,-0.6845703,0.9101563,-0.03222656,0.1806641,-0.3129883,0.02539063
2089,-55.6875,-5.3125,-17.375,-0.6572266,0.8945313,0.125,0.1806641,-0.3129883,0.02148438
2093,-56.375,6.5625,-21.375,-0.7231445,0.7548828,0.2250977,0.1855469,-0.3120117,0.01855469
2097,-39.125,9.1875,-19.75,-0.8007813,0.6499023,0.2597656,0.1865234,-0.3120117,0.01318359
2101,-16.75,7.625,-17.6875,-0.8549805,0.6381836,0.2749023,0.1865234,-0.3120117,0.01318359
2105,-3.0625,10.625,-10,-0.8666992,0.7001953,0.2866211,0.1879883,-0.3105469,0.01318359
2109,0.75,20.5625,0,-0.8745117,0.7626953,0.2519531,0.1889648,-0.3129883,0.01318359
2113,4,27.5625,7.75,-0.8896484,0.8208008,0.159668,0.1865234,-0.3120117,0.01464844
2117,6.5,34.5625,9.1875,-0.8237305,0.9140625,0.1289063,0.1855469,-0.3144531,0.01611328
2121,4.1875,45.125,8.625,-0.8085938,0.956543,0.06738281,0.1855469,-0.3144531,0.02148438
2125,6.5,54.4375,3.0625,-0.8745117,0.9296875,0.02490234,0.184082,-0.3144531,0.02148438
2129,16.1875,56.25,3.375,-0.9868164,0.8632813,-0.07080078,0.1831055,-0.3168945,0.02539063
2133,26.625,47.9375,9.3125,-1.021484,0.8828125,-0.1860352,0.1831055,-0.3178711,0.02978516
2137,30.6875,37.625,18.1875,-0.9365234,0.9760742,-0.2631836,0.1821289,-0.3193359,0.03515625
2142,18,39.25,24.4375,-0.8198242,1.143066,-0.2016602,0.1821289,-0.3193359,0.03759766
2146,-9.3125,56.5,23.625,-0.715332,1.193848,-0.07470703,0.1806641,-0.3217773,0.04052734
2150,-24.75,77.3125,11.75,-0.8007813,1.030762,-0.07470703,0.1782227,-0.3256836,0.04443359
2154,-16.3125,74.125,7.4375,-0.9248047,0.8012695,-0.1552734,0.1782227,-0.3256836,0.04589844
2158,7.625,49,13.5625,-1.021484,0.6342773,-0.2324219,0.1782227,-0.328125,0.04736328
2162,31.75,20.3125,25.9375,-0.9208984,0.7470703,-0.2207031,0.1757813,-0.3305664,0.05273438
2166,32.75,8.25,32.6875,-0.7504883,0.9643555,-0.1669922,0.1748047,-0.3320313,0.05419922
2170,8.875,16.8125,40.5625,-0.6030273,1.081055,-0.1054688,0.1738281,-0.3354492,0.05810547
2174,-19,36.875,43.0625,-0.4711914,1.077148,-0.05908203,0.1713867,-0.3408203,0.06103516
2178,-38.75,50.5625,38.75,-0.5605469,1.022949,-0.1362305,0.1689453,-0.3466797,0.05957031
2182,-37.8125,38.875,30.3125,-0.6845703,0.777832,-0.2089844,0.1674805,-0.3491211,0.06201172
2186,2,5.125,20,-0.7348633,0.5449219,-0.2246094,0.1640625,-0.3530273,0.06103516
2190,41.25,-17.125,12.3125,-0.7075195,0.7041016,-0.1938477,0.1640625,-0.3569336,0.06494141
2194,39.0625,-23.25,17.5625,-0.6806641,0.9335938,-0.1977539,0.1640625,-0.3603516,0.06640625
2198,12.4375,-19.1875,29.4375,-0.5566406,1.015137,-0.1474609,0.1640625,-0.3603516,0.0703125
2202,-15.4375,-5.8125,37.5,-0.4326172,0.9375,-0.1401367,0.1650391,-0.3657227,0.07177734
2206,-26.875,2.6875,33.5,-0.3588867,0.875,-0.1323242,0.1630859,-0.3681641,0.0703125
2210,-16.0625,-0.875,8.0625,-0.4594727,0.7392578,-0.2016602,0.1630859,-0.3754883,0.06884766
2214,18.75,-27.0625,-19,-0.5332031,0.6538086,-0.2167969,0.1650391,-0.3754883,0.0703125
2218,23.9375,-41.375,-20.8125,-0.4404297,0.7275391,-0.1630859,0.1699219,-0.3754883,0.07421875
2222,1.75,-33.5625,-5.0625,-0.3125,0.793457,-0.07861328,0.1748047,-0.3793945,0.07568359
2226,-26.25,-13.875,4.0625,-0.246582,0.8286133,0.01708984,0.1757813,-0.3803711,0.07421875
2230,-31.75,8.9375,-11.8125,-0.1767578,0.6655273,0.04443359,0.1806641,-0.3833008,0.07324219
2234,-19.75,10.3125,-31.125,-0.3901367,0.6030273,-0.128418,0.1831055,-0.3867188,0.07324219
2238,-1.3125,-12.5,-44.6875,-0.5141602,0.4946289,-0.2705078,0.1865234,-0.3881836,0.07421875
2242,17.5625,-29.25,-43.375,-0.5102539,0.4790039,-0.3325195,0.1948242,-0.3881836,0.07421875
2246,17.1875,-36.1875,-32.9375,-0.4868164,0.6845703,-0.3325195,0.2011719,-0.3867188,0.07714844
2250,6.4375,-33.6875,-39.625,-0.4365234,0.7548828,-0.3398438,0.2045898,-0.390625,0.07568359
2254,-2.25,-34.375,-63.0625,-0.3823242,0.7895508,-0.2705078,0.215332,-0.3881836,0.07421875
2258,-17.5,-31.5,-76.8125,-0.3823242,0.7001953,-0.1899414,0.2236328,-0.3881836,0.07177734
2262,-30,-26.875,-71.5625,-0.4985352,0.5253906,-0.1821289,0.2319336,-0.3891602,0.06884766
2266,-35.5,-28,-54.1875,-0.6376953,0.4555664,-0.2744141,0.2402344,-0.3867188,0.06494141
2271,-38.125,-41.0625,-39.75,-0.6303711,0.4868164,-0.1782227,0.25,-0.3881836,0.05419922
2275,-37.75,-39.375,-33,-0.7114258,0.5175781,-0.2436523,0.2558594,-0.3881836,0.04980469
2279,-41.625,-56.5625,-27.75,-0.730957,0.5605469,-0.1323242,0.2641602,-0.3891602,0.04199219
2283,-37.875,-60.5,-21.1875,-0.6186523,0.4013672,0.03271484,0.269043,-0.390625,0.02978516
2287,-33.1875,-54,-6,-0.5214844,0.3896484,0.2675781,0.2734375,-0.3930664,0.02392578
2291,-20.1875,-49.4375,3.8125,-0.5991211,0.4477539,0.2905273,0.2749023,-0.3930664,0.01074219
2295,-12.3125,-47.5625,9.4375,-0.4633789,0.5136719,0.390625,0.2758789,-0.3969727,0.0009765625
2299,-8.625,-31.0625,12.8125,-0.3935547,0.5800781,0.4443359,0.2749023,-0.3955078,-0.001464844
2303,-6.25,-14.6875,6.875,-0.3549805,0.5839844,0.4018555,0.2758789,-0.3979492,-0.00390625
2307,3.25,-2.5,-4.375,-0.4711914,0.6030273,0.2636719,0.2758789,-0.4018555,-0.008300781
2311,7.6875,0.0625,-7,-0.6650391,0.6147461,0.009765625,0.2773438,-0.4003906,-0.006835938
2315,3.375,-3.625,-3.0625,-0.6186523,0.6108398,0.001953125,0.2783203,-0.4018555,-0.006835938
2319,0.0625,-0.1875,5.625,-0.6455078,0.5913086,-0.01660156,0.2783203,-0.4003906,-0.005371094
2323,-1.125,0,11.625,-0.6186523,0.5527344,0.04785156,0.2773438,-0.402832,-0.006835938
2327,13.5,-1.4375,12.5625,-0.6342773,0.5253906,-0.001464844,0.2758789,-0.4057617,-0.006835938
2331,20.4375,-5.6875,11.125,-0.6455078,0.6694336,-0.07470703,0.2749023,-0.4067383,-0.005371094
2335,18.4375,-11.4375,12.8125,-0.6650391,0.7041016,-0.09375,0.2734375,-0.4082031,-0.00390625
2339,13.875,-13.125,14.25,-0.5834961,0.7626953,-0.02050781,0.2700195,-0.4082031,-0.001464844
2343,6.6875,-7.3125,12.75,-0.5024414,0.8012695,0.08251953,0.269043,-0.4091797,-0.00390625
2347,1.3125,2.4375,5.375,-0.5102539,0.7856445,0.02880859,0.269043,-0.4082031,-0.001464844
2351,-1.125,4.1875,0.5625,-0.5952148,0.7817383,0.005859375,0.2666016,-0.4067383,-0.001464844
2355,-4.4375,4.875,0.3125,-0.6108398,0.7041016,0.03271484,0.2641602,-0.4067383,-0.001464844
2359,-0.3125,3.4375,1.4375,-0.6303711,0.6655273,0.09423828,0.2675781,-0.4057617,0.0009765625
2363,5.625,6.25,2.1875,-0.5952148,0.6538086,0.1328125,0.2666016,-0.4042969,0
2367,10.75,6,3.5,-0.6572266,0.6733398,0.09814453,0.2651367,-0.4057617,0.002441406
2371,13.125,6.9375,4.8125,-0.6030273,0.6420898,0.07128906,0.2641602,-0.4057617,0.002441406
2375,13.75,7.8125,5.5,-0.5952148,0.6962891,0.07128906,0.2626953,-0.4042969,0.00390625
2379,12.6875,12.3125,4.6875,-0.5175781,0.6577148,0.144043,0.2592773,-0.4042969,0.0078125
2383,16.0625,19,6.125,-0.5253906,0.6538086,0.1943359,0.2592773,-0.4018555,0.01074219
2387,18.5625,27.4375,6.25,-0.4711914,0.6147461,0.2402344,0.2568359,-0.4042969,0.01611328
2391,27.4375,32.0625,5.0625,-0.4985352,0.5839844,0.1865234,0.2568359,-0.4042969,0.01855469
2395,35.5,36.6875,1.5,-0.5063477,0.5449219,0.05957031,0.2519531,-0.4003906,0.02539063
2400,40.5,30.5,3.875,-0.6494141,0.6381836,-0.09375,0.2519531,-0.3994141,0.03222656
2404,36.4375,27.9375,7.25,-0.5488281,0.6186523,-0.08203125,0.2475586,-0.3969727,0.04052734
2408,37.25,30,10.3125,-0.5834961,0.6108398,-0.112793,0.2460938,-0.3916016,0.04736328
2412,33.25,29.5,15.5625,-0.5683594,0.6264648,-0.08984375,0.2412109,-0.3916016,0.05419922
2416,31.125,29.75,18.75,-0.5063477,0.6147461,-0.03222656,0.237793,-0.390625,0.06103516
2420,34.75,31.9375,17.5625,-0.4482422,0.5878906,0.01708984,0.2368164,-0.3867188,0.06201172
2424,50.9375,33.75,14.6875,-0.6572266,0.5839844,-0.2744141,0.2294922,-0.3833008,0.06884766
2428,49.4375,12.75,19.625,-0.6533203,0.7587891,-0.3012695,0.2270508,-0.3818359,0.07714844
2432,34.625,16.25,23.125,-0.4326172,0.7817383,-0.1860352,0.2246094,-0.3769531,0.07714844
2436,17.4375,24.75,21.4375,-0.3901367,0.793457,-0.06298828,0.2177734,-0.3769531,0.08105469
2440,9.1875,34.25,18.75,-0.378418,0.6772461,0.07910156,0.2138672,-0.3754883,0.08398438
2444,14.125,40.6875,22.1875,-0.4829102,0.5605469,0.05957031,0.2104492,-0.3769531,0.08789063
2448,32.3125,36.5625,27,-0.5214844,0.4790039,-0.05126953,0.2045898,-0.3745117,0.09228516
2452,58.5625,27.25,24.75,-0.5834961,0.6147461,-0.2822266,0.199707,-0.371582,0.09765625
2456,56.375,13.5625,24.25,-0.5913086,0.8325195,-0.4282227,0.1938477,-0.3691406,0.1015625
2460,31.8125,14.1875,24.875,-0.4404297,0.9101563,-0.324707,0.1889648,-0.3642578,0.105957
2464,3,24.3125,24.1875,-0.3974609,0.8364258,-0.2207031,0.184082,-0.3642578,0.1069336
2468,-4.1875,29.5,20.4375,-0.4482422,0.6962891,-0.112793,0.1831055,-0.3603516,0.1083984
2472,5.5,27.3125,19.0625,-0.5175781,0.6186523,-0.07470703,0.1772461,-0.3603516,0.1069336
2476,26.0625,19.5625,18.0625,-0.5795898,0.5878906,-0.1513672,0.1738281,-0.3603516,0.1083984
2480,43.375,8.25,15.625,-0.5913086,0.6845703,-0.2744141,0.1723633,-0.3544922,0.1098633
2484,37.0625,4.6875,17.4375,-0.5024414,0.8481445,-0.3168945,0.1689453,-0.3530273,0.1137695
2488,14.5,10.5,14.8125,-0.4169922,0.9101563,-0.2436523,0.1640625,-0.3491211,0.1152344
2492,-7.3125,20.375,13.9375,-0.4326172,0.8632813,-0.1782227,0.1616211,-0.3491211,0.1152344
2496,-16.3125,22.5,13.9375,-0.5722656,0.7353516,-0.1977539,0.1591797,-0.3481445,0.1123047
2500,-7.375,16.9375,14.3125,-0.6264648,0.6655273,-0.2207031,0.1557617,-0.3457031,0.1113281
2504,5,8.9375,17.4375,-0.5991211,0.6420898,-0.2475586,0.1523438,-0.3481445,0.1123047
2508,13.5625,0.875,18.9375,-0.6069336,0.7470703,-0.3208008,0.1499023,-0.3432617,0.1098633
2512,11.625,-9,21.5625,-0.5605469,0.8364258,-0.3012695,0.1474609,-0.3417969,0.1137695
2516,4.3125,-8.875,19.25,-0.4482422,0.921875,-0.2055664,0.1450195,-0.3432617,0.1098633
2520,1.375,-1.5625,9.3125,-0.4829102,0.953125,-0.2363281,0.1401367,-0.3417969,0.1083984
2524,-2.5625,1.3125,1.4375,-0.5952148,0.9604492,-0.324707,0.1401367,-0.3393555,0.1083984
2529,-4.3125,-4.0625,-0.0625,-0.6455078,0.90625,-0.4091797,0.1401367,-0.3378906,0.1069336
2533,-1.9375,-11.8125,0.6875,-0.6108398,0.9296875,-0.4248047,0.1391602,-0.3354492,0.105957
2537,-1.125,-19.5625,-5.8125,-0.5756836,0.9916992,-0.4130859,0.1391602,-0.3354492,0.1044922
2541,-6.25,-16.875,-12.375,-0.5913086,1.015137,-0.359375,0.1416016,-0.3320313,0.105957
2545,-11.8125,-11.875,-16.125,-0.6455078,0.987793,-0.3554688,0.1416016,-0.3291016,0.1000977
2549,-13.1875,-12.4375,-18.4375,-0.7075195,0.9760742,-0.3745117,0.144043,-0.328125,0.1015625
2553,-12.625,-19.375,-19.5,-0.7075195,0.9916992,-0.3901367,0.144043,-0.3256836,0.09765625
2557,-13.9375,-19.9375,-23.875,-0.7192383,1.049805,-0.359375,0.1450195,-0.3232422,0.09912109
2561,-17.625,-21.6875,-24.4375,-0.765625,1.038574,-0.3129883,0.1484375,-0.3208008,0.09326172
2565,-17.125,-20.0625,-20.6875,-0.7543945,0.9799805,-0.2397461,0.1484375,-0.3217773,0.09228516
2569,-11.6875,-17.125,-17.3125,-0.7504883,0.972168,-0.2246094,0.1508789,-0.3208008,0.08935547
2573,-4.875,-18.4375,-17.0625,-0.7578125,1.022949,-0.2861328,0.1523438,-0.3168945,0.08935547
2577,2.5,-20.1875,-25.3125,-0.7192383,1.045898,-0.3012695,0.1523438,-0.3193359,0.08789063
2581,4.625,-13.5625,-19.5625,-0.9594727,1.077148,-0.4555664,0.1567383,-0.3154297,0.08691406
2585,-5.25,-18.25,-19.6875,-0.6533203,0.9140625,-0.2324219,0.1567383,-0.3154297,0.08544922
2589,9.5,-7.5625,-32.5625,-0.6689453,0.972168,-0.2363281,0.1606445,-0.3154297,0.08691406
2593,5.625,-6.25,-40.6875,-0.6650391,1.026855,-0.2939453,0.1630859,-0.3120117,0.08691406
2597,-7.875,3.4375,-42.4375,-0.6455078,1.057617,-0.3168945,0.1665039,-0.3081055,0.08544922
2601,-25.625,10.9375,-44.1875,-0.6962891,0.9838867,-0.34375,0.1689453,-0.3056641,0.08691406
2605,-38.5625,16.625,-41.4375,-0.7543945,0.824707,-0.3208008,0.1723633,-0.3066406,0.08398438
2609,-41.75,20.0625,-34.875,-0.7695313,0.6147461,-0.2363281,0.1757813,-0.3041992,0.08251953
2613,-25.75,17.1875,-30.125,-0.862793,0.4946289,-0.2475586,0.1782227,-0.3017578,0.08105469
2617,-6.375,2.8125,-23.375,-0.8745117,0.5683594,-0.2670898,0.1782227,-0.3017578,0.08105469
2621,4.125,-3.125,-21.375,-0.765625,0.7236328,-0.2285156,0.1806641,-0.3007813,0.08105469
2625,-2.25,2.5625,-21.5625,-0.7426758,0.8789063,-0.2397461,0.1821289,-0.3007813,0.08105469
2629,-23.6875,14,-13.4375,-0.7617188,0.921875,-0.2207031,0.184082,-0.3007813,0.07861328
2633,-37.1875,24.875,-9.3125,-0.7773438,0.8867188,-0.1977539,0.1831055,-0.3007813,0.07861328
2637,-42.125,31.375,-4.5625,-0.7851563,0.8364258,-0.1821289,0.184082,-0.3041992,0.07714844
2641,-29.125,33.625,-6.875,-0.8125,0.7856445,-0.1782227,0.1821289,-0.3041992,0.07861328
2645,-12.875,26.875,-8.5,-0.8935547,0.8208008,-0.2089844,0.1831055,-0.3041992,0.07861328
2649,2.0625,19.5,-6.625,-0.9248047,0.840332,-0.2285156,0.1831055,-0.3066406,0.07861328
2653,7.75,14.625,1.3125,-0.9438477,0.9492188,-0.2670898,0.1831055,-0.3041992,0.07861328
2658,1.125,13.125,16.375,-0.9399414,1.030762,-0.3129883,0.1806641,-0.3066406,0.08398438
2662,-20.25,19.8125,39.3125,-0.8706055,1.150879,-0.3325195,0.1821289,-0.3081055,0.08105469
2666,-52.875,31.1875,55.4375,-0.7036133,1.20166,-0.2939453,0.1772461,-0.3120117,0.08105469
2670,-77.375,53.4375,50.625,-0.5063477,1.174316,-0.1899414,0.1738281,-0.3178711,0.08007813
2674,-65.9375,59.6875,25.4375,-0.6303711,0.953125,-0.2246094,0.1723633,-0.3208008,0.07714844
2678,-33.375,53.375,1.5,-0.7543945,0.8789063,-0.2324219,0.1674805,-0.3266602,0.07861328
2682,-2.5625,40.625,-8.0625,-0.9326172,0.855957,-0.2978516,0.1689453,-0.328125,0.07861328
2686,17.1875,18.375,-1.0625,-1.001953,0.8945313,-0.3325195,0.1689453,-0.328125,0.08007813
2690,12.125,15.25,15.4375,-0.9248047,0.9799805,-0.2631836,0.1699219,-0.3291016,0.08251953
2694,-2.75,18.4375,32.875,-0.9208984,1.022949,-0.2592773,0.1674805,-0.3305664,0.08544922
2698,-19.625,19.375,47.4375,-0.8818359,0.9453125,-0.2246094,0.1640625,-0.3354492,0.08789063
2702,-15.375,17.6875,46.4375,-0.7695313,0.7895508,-0.1054688,0.1630859,-0.3417969,0.08691406
2706,19.8125,11.4375,24.4375,-0.7578125,0.6694336,-0.02441406,0.1616211,-0.3442383,0.09228516
2710,57.125,1.375,9.6875,-0.8085938,0.6884766,-0.02441406,0.1582031,-0.3481445,0.09326172
2714,73.1875,-5,11.0625,-0.7890625,0.7236328,-0.1245117,0.1616211,-0.3466797,0.1000977
2718,80.4375,-12.8125,17.75,-0.8125,0.7895508,-0.3208008,0.1616211,-0.3481445,0.1113281
2722,77.9375,-31.25,22.5625,-0.8510742,0.8598633,-0.4594727,0.1630859,-0.3466797,0.1152344
2726,68.375,-45.5625,29,-0.7036133,0.8520508,-0.4052734,0.1616211,-0.3457031,0.1235352
2730,68.25,-45.6875,16.25,-0.4633789,0.8364258,-0.2397461,0.1650391,-0.3466797,0.1303711
2734,64.6875,-37.5,-3.1875,-0.4208984,0.890625,-0.2207031,0.1674805,-0.3466797,0.1342773
2738,54.375,-35.75,-8.3125,-0.5683594,0.777832,-0.309082,0.1713867,-0.3466797,0.1411133
2742,44.8125,-49.0625,1.4375,-0.699707,0.7314453,-0.4248047,0.1748047,-0.3442383,0.1450195
2746,28.3125,-64.6875,22.0625,-0.6376953,0.7080078,-0.4360352,0.1782227,-0.3481445,0.1518555
2750,6.625,-76.75,36.4375,-0.4946289,0.7158203,-0.3823242,0.1821289,-0.3491211,0.1533203
2754,5.75,-79.6875,13.3125,-0.2041016,0.6772461,-0.1743164,0.1889648,-0.3579102,0.1533203
2758,18.3125,-68.25,-28.5,-0.1923828,0.840332,-0.03222656,0.1914063,-0.3579102,0.1547852
2762,20.875,-56.25,-69.1875,-0.2231445,0.7973633,-0.001464844,0.2021484,-0.359375,0.1586914
2766,13.75,-43.875,-86.25,-0.1572266,0.5527344,0.04443359,0.21875,-0.3569336,0.1640625
2770,0.75,-22.625,-81.75,-0.296875,0.4516602,-0.06298828,0.2260742,-0.3569336,0.1669922
2774,-12.3125,-15.8125,-62.25,-0.6376953,0.3740234,-0.2861328,0.2402344,-0.3544922,0.175293
2778,-29.25,-26.625,-33.25,-0.6264648,0.3583984,-0.2705078,0.2485352,-0.3544922,0.1791992
2782,-27.5,-29.4375,-15.6875,-0.4013672,0.2612305,-0.1054688,0.2558594,-0.3569336,0.1821289
2787,-18.3125,-22.875,-17.8125,-0.2543945,0.3081055,0.005859375,0.2666016,-0.3603516,0.1889648
2791,-9.125,-12.8125,-25.4375,-0.1225586,0.3388672,0.09033203,0.2709961,-0.359375,0.1967773
2795,1.375,5.875,-37.5,-0.378418,0.4243164,-0.1474609,0.2758789,-0.3579102,0.2011719
2799,-0.125,-7.9375,-21.625,-0.7231445,0.4321289,-0.34375,0.2807617,-0.3569336,0.2104492
2803,-4.75,-17.875,3.9375,-0.6689453,0.3505859,-0.3359375,0.2832031,-0.3544922,0.2143555
2807,-1.6875,-24.1875,23.5625,-0.5371094,0.3466797,-0.2553711,0.2832031,-0.3569336,0.21875
2811,9.1875,-19.25,24,-0.2773438,0.4477539,-0.05908203,0.2832031,-0.3579102,0.2241211
2815,15.9375,4.0625,8.0625,-0.3393555,0.6459961,-0.1630859,0.2807617,-0.359375,0.2280273
2819,13.5625,2.625,-4.3125,-0.5527344,0.7431641,-0.3515625,0.2792969,-0.3579102,0.2324219
2823,5.5625,0.8125,-4.25,-0.6572266,0.6962891,-0.4707031,0.2783203,-0.3569336,0.2348633
2827,-9.125,-8.375,10,-0.6494141,0.7041016,-0.4130859,0.2773438,-0.3579102,0.2402344
2831,-24.5,-5.125,17.875,-0.4594727,0.6962891,-0.2436523,0.2758789,-0.3618164,0.237793
2835,-30.375,12.125,8.25,-0.4248047,0.7041016,-0.1206055,0.2758789,-0.3681641,0.2392578
2839,-27,16.125,-0.6875,-0.5488281,0.6655273,-0.1474609,0.2724609,-0.3706055,0.237793
2843,-19.0625,16.875,-4.5625,-0.5795898,0.6030273,-0.2167969,0.2724609,-0.3745117,0.2363281
2847,-9,5.875,-2.6875,-0.6884766,0.6499023,-0.3325195,0.2709961,-0.3745117,0.2348633
2851,-8.4375,1.75,-3.0625,-0.5795898,0.6884766,-0.2670898,0.2700195,-0.3754883,0.2333984
2855,-18.8125,10.375,-1.4375,-0.5644531,0.7587891,-0.2089844,0.2724609,-0.3793945,0.2348633
2859,-31.1875,17,0.5,-0.5991211,0.7236328,-0.1630859,0.2709961,-0.3803711,0.230957
2863,-36.3125,23.4375,1.5,-0.5605469,0.6499023,-0.1245117,0.2724609,-0.3842773,0.2270508
2867,-27.8125,25,-1.5,-0.6030273,0.5683594,-0.1166992,0.269043,-0.3881836,0.2241211
2871,-13.9375,19.8125,0.4375,-0.6806641,0.5722656,-0.1552734,0.2675781,-0.3891602,0.2202148
2875,-4,13.25,4.75,-0.6611328,0.6069336,-0.1362305,0.2641602,-0.3916016,0.2172852
2879,-0.8125,13.6875,6.75,-0.5449219,0.6499023,-0.03613281,0.2626953,-0.3916016,0.2158203
2883,-4.125,23.25,4.5,-0.4169922,0.6616211,0.03662109,0.2602539,-0.3891602,0.2119141
2887,-4.25,39.9375,1.375,-0.4052734,0.6420898,0.01708984,0.2543945,-0.3891602,0.206543
2891,-1.9375,46.25,-1.25,-0.5722656,0.6538086,-0.1435547,0.2509766,-0.3881836,0.2050781
2895,0.125,42.125,0.25,-0.5566406,0.6225586,-0.1821289,0.2460938,-0.3842773,0.2011719
2899,0.5625,41.875,1.375,-0.4907227,0.6381836,-0.1474609,0.2402344,-0.3803711,0.1967773
2903,-6.625,46.9375,-0.3125,-0.378418,0.6342773,-0.05908203,0.234375,-0.3779297,0.1967773
2907,-11.625,58.5625,-3.8125,-0.4013672,0.5952148,-0.04003906,0.2294922,-0.3779297,0.1914063
2911,-11.375,63.3125,-3.25,-0.4521484,0.5332031,-0.09765625,0.222168,-0.3730469,0.1875
2916,-2.375,67.125,-1.125,-0.4829102,0.4672852,-0.2475586,0.21875,-0.3691406,0.1831055
2920,12,56.125,3.625,-0.6264648,0.5175781,-0.4321289,0.2128906,-0.3642578,0.1845703
2924,10.0625,38.1875,7.3125,-0.5175781,0.6186523,-0.3823242,0.2055664,-0.359375,0.1831055
2928,-5.125,38.625,11.625,-0.3510742,0.6538086,-0.2167969,0.203125,-0.3569336,0.1791992
2932,-23.0625,56.5625,19.3125,-0.2734375,0.6225586,-0.1054688,0.1987305,-0.3554688,0.1738281
2936,-29.6875,73.9375,24.4375,-0.347168,0.5722656,-0.1591797,0.1904297,-0.3554688,0.1708984
2940,-20.0625,75.125,26,-0.4365234,0.5253906,-0.3129883,0.1855469,-0.3530273,0.1699219
2944,0.25,59.4375,24.625,-0.5141602,0.5175781,-0.4785156,0.1772461,-0.3530273,0.1669922
2948,13.3125,34.125,20.5625,-0.5102539,0.6577148,-0.5053711,0.1738281,-0.3505859,0.1655273
2952,6.1875,21.75,19.375,-0.4365234,0.7509766,-0.3901367,0.1713867,-0.3505859,0.1630859
2956,-9.75,22,24.625,-0.362793,0.7431641,-0.2861328,0.1640625,-0.3481445,0.1616211
2960,-13.75,28.8125,28.625,-0.3354492,0.6845703,-0.2363281,0.1606445,-0.3466797,0.1572266
2964,-4.1875,32.75,26.0625,-0.3901367,0.7119141,-0.2631836,0.1582031,-0.3491211,0.1547852
2968,4.5625,26.1875,18.4375,-0.4482422,0.8012695,-0.3286133,0.1523438,-0.3481445,0.1533203
2972,8.0625,12.125,9,-0.5214844,0.7973633,-0.3554688,0.1499023,-0.3457031,0.1533203
2976,9.9375,2.875,6.875,-0.5253906,0.855957,-0.2861328,0.1474609,-0.3432617,0.1508789
2980,8.875,5.5,5.375,-0.5141602,0.8598633,-0.2783203,0.1474609,-0.3417969,0.1479492
2984,11.625,14.1875,1,-0.5722656,0.8945313,-0.4248047,0.1450195,-0.3393555,0.1479492
2988,5.6875,10.5,-7.1875,-0.7426758,0.9956055,-0.5898438,0.144043,-0.3369141,0.1464844
2992,-5.5625,-3.625,-9.6875,-0.746582,0.9414063,-0.5898438,0.1450195,-0.3344727,0.1450195
2996,-14.875,-9.5625,-8.5,-0.7075195,0.9179688,-0.5092773,0.144043,-0.3330078,0.1425781
3000,-20.5625,-10.6875,-7.25,-0.746582,0.875,-0.4902344,0.1459961,-0.3305664,0.1396484
3004,-26.3125,-17.375,-5.0625,-0.78125,0.8168945,-0.4516602,0.1474609,-0.3305664,0.1342773
3008,-21.9375,-26,-2.0625,-0.6884766,0.6884766,-0.34375,0.1484375,-0.3320313,0.1303711
3012,-5.8125,-34.4375,2.375,-0.6455078,0.6499023,-0.2978516,0.1459961,-0.3305664,0.1303711
3016,10.3125,-45.6875,-0.1875,-0.5913086,0.7470703,-0.2978516,0.1484375,-0.3305664,0.125
3020,15.625,-51.375,-8.6875,-0.5795898,0.875,-0.2861328,0.1499023,-0.328125,0.1235352
3024,9,-46.6875,-13.3125,-0.6108398,0.8520508,-0.2553711,0.1508789,-0.3291016,0.1206055
3028,-0.9375,-39.8125,-7.9375,-0.6455078,0.7705078,-0.2514648,0.1523438,-0.3266602,0.1191406
3032,-3.625,-39.1875,3.0625,-0.715332,0.6884766,-0.3051758,0.1547852,-0.3256836,0.1152344
3036,5.25,-52.75,10.125,-0.730957,0.7197266,-0.34375,0.1533203,-0.3242188,0.1113281
3040,22.375,-65.25,0.6875,-0.6884766,0.793457,-0.3129883,0.1533203,-0.3232422,0.1098633
3045,33.0625,-63.5,-6.5,-0.6376953,0.8442383,-0.2553711,0.1567383,-0.3232422,0.1069336
3049,28.625,-56.1875,-6.1875,-0.6845703,0.9257813,-0.2592773,0.1582031,-0.3193359,0.1069336
3053,19.625,-51.75,-4.125,-0.715332,0.9414063,-0.3051758,0.1606445,-0.3168945,0.1044922
3057,10.6875,-47.875,-1.8125,-0.7504883,0.9682617,-0.3129883,0.1606445,-0.3168945,0.1030273
3061,6.75,-47.625,1.0625,-0.78125,0.9492188,-0.3208008,0.1630859,-0.3129883,0.1015625
3065,4.75,-44.5,4.125,-0.7504883,0.9682617,-0.309082,0.1650391,-0.3120117,0.09912109
3069,3.25,-43.5625,4.9375,-0.746582,1.007324,-0.309082,0.1630859,-0.3120117,0.09619141
3073,0,-39,1.3125,-0.7348633,1.06543,-0.2822266,0.1665039,-0.3105469,0.09619141
3077,-5.6875,-30.4375,-2.625,-0.7270508,1.034668,-0.2324219,0.1650391,-0.3095703,0.09326172
3081,-6.0625,-22,-3.5,-0.7387695,0.953125,-0.2167969,0.1674805,-0.3095703,0.09228516
3085,0.5625,-19.25,-2.8125,-0.8085938,0.9179688,-0.2705078,0.1665039,-0.3105469,0.08789063
3089,7.25,-25,0.25,-0.8549805,0.9375,-0.3359375,0.1665039,-0.3095703,0.08935547
3093,11.625,-33.25,3.9375,-0.8510742,0.9140625,-0.34375,0.1689453,-0.3081055,0.08789063
3097,8.375,-31.5,8,-0.7270508,0.9760742,-0.2783203,0.1665039,-0.3095703,0.08691406
3101,1.125,-19.8125,4.625,-0.6416016,0.9760742,-0.2128906,0.1665039,-0.3095703,0.08544922
3105,-6.4375,-4.5,-3.0625,-0.6225586,0.987793,-0.2167969,0.1674805,-0.3081055,0.08398438
3109,-14.375,5.8125,-8.9375,-0.6650391,0.956543,-0.2553711,0.1699219,-0.3105469,0.08544922
3113,-17.75,6.25,-12.9375,-0.7578125,0.875,-0.3129883,0.1689453,-0.3095703,0.08398438
3117,-15.375,-0.5625,-11.9375,-0.8046875,0.7739258,-0.2900391,0.1713867,-0.3120117,0.08105469
3121,-9.1875,-8.1875,-8.0625,-0.8125,0.7275391,-0.2592773,0.1713867,-0.3081055,0.08105469
3125,-4.3125,-13.6875,-5.4375,-0.7231445,0.7353516,-0.2128906,0.1723633,-0.3095703,0.08105469
3129,-5.3125,-8.4375,-8.6875,-0.6342773,0.8129883,-0.1669922,0.1748047,-0.3120117,0.07861328
3133,-12.875,-0.8125,-16.375,-0.6416016,0.8364258,-0.1552734,0.1772461,-0.3066406,0.08007813
3137,-19.5,5.5,-22.0625,-0.699707,0.7856445,-0.1630859,0.1757813,-0.3081055,0.07861328
3141,-25.6875,8.1875,-22.625,-0.7387695,0.7353516,-0.1513672,0.1782227,-0.3095703,0.07861328
3145,-26.625,9.9375,-18.5625,-0.7617188,0.7001953,-0.1206055,0.1772461,-0.3081055,0.07568359
3149,-26.4375,13.9375,-14.9375,-0.7617188,0.7158203,-0.07470703,0.1806641,-0.3095703,0.07421875
3153,-25.25,18.6875,-12.0625,-0.7543945,0.7080078,-0.07470703,0.1806641,-0.3081055,0.07324219
3157,-18.9375,22.5,-8.875,-0.7617188,0.7001953,-0.07861328,0.1821289,-0.3105469,0.07177734
3161,-9.0625,24.5625,-7.5625,-0.78125,0.7001953,-0.1166992,0.1806641,-0.3105469,0.07324219
3165,0.875,22.4375,-6.5625,-0.8125,0.7856445,-0.1743164,0.1806641,-0.3120117,0.07421875
3169,7.1875,16.375,-4.1875,-0.8237305,0.8325195,-0.1821289,0.1806641,-0.3129883,0.07421875
3174,11.1875,13.8125,1,-0.7773438,0.8945313,-0.1782227,0.1821289,-0.3120117,0.07421875
3178,9.625,16,5.125,-0.7387695,0.9799805,-0.1860352,0.1806641,-0.3120117,0.07861328
3182,4.6875,20.8125,6.5625,-0.7114258,1.038574,-0.2246094,0.1821289,-0.3120117,0.08007813
3186,-1.5625,25.625,6.875,-0.6962891,1.022949,-0.2631836,0.1796875,-0.3120117,0.08105469
3190,-0.75,26.3125,5.625,-0.7348633,0.9643555,-0.309082,0.1806641,-0.3144531,0.08251953
3194,14.375,11.5625,1.5625,-0.8198242,0.8208008,-0.3823242,0.1796875,-0.3144531,0.08544922
3198,40.75,-11.5,-3.8125,-0.8549805,0.777832,-0.4169922,0.1806641,-0.3154297,0.08789063
3202,55.8125,-25.5,-5.125,-0.765625,0.8598633,-0.3823242,0.1831055,-0.3120117,0.09228516
3206,48.5,-22.125,1.3125,-0.6806641,0.956543,-0.3168945,0.1831055,-0.3129883,0.09326172
3210,29.375,-10.75,5.3125,-0.699707,0.953125,-0.2939453,0.184082,-0.3129883,0.09619141
3214,30.6875,-17.4375,5.0625,-0.7851563,0.7275391,-0.3476563,0.1865234,-0.3129883,0.09765625
3218,51.625,-33.375,-1.5,-0.8549805,0.6538086,-0.34375,0.1855469,-0.3154297,0.09912109
3222,79.5,-57,-9.1875,-0.8432617,0.6147461,-0.3476563,0.1889648,-0.3129883,0.1044922
3226,95.6875,-68.8125,-14.8125,-0.8046875,0.7509766,-0.3515625,0.1914063,-0.3095703,0.1069336
3230,94.125,-79.5625,-23.125,-0.8046875,0.855957,-0.4208984,0.1972656,-0.3095703,0.1113281
3234,83.6875,-86.75,-30.5,-0.7929688,0.9296875,-0.394043,0.203125,-0.3066406,0.1123047
3238,61.0625,-82.25,-27.375,-0.7426758,0.8867188,-0.2900391,0.2104492,-0.3041992,0.1137695
3242,44.9375,-73.125,-18.125,-0.6416016,0.7705078,-0.2207031,0.215332,-0.3007813,0.1123047
3246,42.0625,-57.3125,-14.8125,-0.6030273,0.6962891,-0.1552734,0.2202148,-0.296875,0.1137695
3250,41.75,-41.5,-11.9375,-0.5913086,0.6577148,-0.1245117,0.2260742,-0.2983398,0.1123047
3254,45.25,-27.375,-12.6875,-0.6030273,0.6459961,-0.1630859,0.2294922,-0.2993164,0.1166992
3258,42.375,-16.125,-16.8125,-0.6225586,0.7314453,-0.2055664,0.2329102,-0.2944336,0.1191406
3262,33.0625,-12.0625,-16.9375,-0.7270508,0.7197266,-0.2397461,0.2368164,-0.2919922,0.1206055
3266,23.8125,-18,-13.25,-0.746582,0.6845703,-0.2397461,0.2402344,-0.2944336,0.1259766
3270,13.6875,-17.3125,-5.1875,-0.5449219,0.6303711,-0.1054688,0.2436523,-0.2905273,0.1259766
3274,10.6875,3.8125,-8.25,-0.2890625,0.6030273,0.04443359,0.2451172,-0.2929688,0.1289063
3278,15.6875,36.25,-25.0625,-0.28125,0.6499023,-0.005371094,0.2485352,-0.296875,0.1328125
3282,11.125,43.625,-37.4375,-0.6030273,0.6845703,-0.2436523,0.2509766,-0.2919922,0.137207
3286,7.8125,21.75,-42.4375,-0.7773438,0.5878906,-0.3745117,0.253418,-0.2895508,0.1450195
3290,8,5.1875,-37.875,-0.7114258,0.4750977,-0.3012695,0.2558594,-0.2895508,0.1479492
3294,9.6875,6.6875,-31.125,-0.6108398,0.4711914,-0.1860352,0.2602539,-0.2856445,0.1494141
3298,16,10.125,-36.4375,-0.5332031,0.4711914,-0.1630859,0.2626953,-0.2841797,0.1547852
3303,24.5,13.25,-49.125,-0.5292969,0.5097656,-0.112793,0.2666016,-0.2817383,0.1572266
3307,34.4375,14.0625,-65.0625,-0.8046875,0.3662109,-0.2978516,0.2724609,-0.2783203,0.1616211
3311,49.4375,-5.625,-47.0625,-1.106934,0.1992188,-0.4707031,0.2783203,-0.2695313,0.168457
3315,44.1875,-30.75,-3.875,-0.9750977,0.2070313,-0.4516602,0.2817383,-0.2641602,0.1699219
3319,16.625,-28.75,36.75,-0.6494141,0.4052734,-0.1977539,0.2866211,-0.2641602,0.1708984
3323,-12.1875,-9.25,49.4375,-0.3549805,0.5253906,0.08251953,0.2866211,-0.2705078,0.1738281
3327,-16.625,10.4375,29.625,-0.246582,0.5488281,0.07519531,0.2866211,-0.2768555,0.1723633
3331,-6.5625,17.9375,-5,-0.4829102,0.5214844,-0.1166992,0.2866211,-0.2792969,0.1738281
3335,7.75,9.125,-14.875,-0.7192383,0.3896484,-0.2783203,0.2880859,-0.2807617,0.1762695
3339,17.25,-3.125,-1.125,-0.796875,0.4165039,-0.394043,0.2890625,-0.2792969,0.1791992
3343,18,-4.4375,8.5625,-0.9365234,0.4829102,-0.59375,0.2900391,-0.2807617,0.1821289
3347,-1.125,-18.9375,32.375,-0.9052734,0.6342773,-0.628418,0.2900391,-0.2807617,0.1831055
3351,-29.875,-11.9375,41.625,-0.3901367,0.7353516,-0.2514648,0.2915039,-0.2856445,0.1845703
3355,-42.875,11.1875,16.25,-0.4248047,0.7666016,-0.2670898,0.2890625,-0.2944336,0.1806641
3359,-40.9375,1.375,-9.125,-0.6186523,0.6186523,-0.2592773,0.2915039,-0.2983398,0.1821289
3363,-23.25,-0.9375,-12.875,-0.7695313,0.4594727,-0.3476563,0.2924805,-0.2993164,0.1821289
3367,-23,-13.8125,3.4375,-0.8007813,0.5761719,-0.4130859,0.2949219,-0.3032227,0.1777344
3371,-41.3125,-10.5625,12.5625,-0.5683594,0.6459961,-0.3129883,0.2973633,-0.3056641,0.1777344
3375,-61,5.8125,11.75,-0.3901367,0.7119141,-0.1552734,0.2973633,-0.3095703,0.1738281
3379,-72.25,19.5625,-4.3125,-0.4555664,0.6303711,-0.1630859,0.2963867,-0.3168945,0.1723633
3383,-60,18.125,-18.4375,-0.6650391,0.4282227,-0.1821289,0.2998047,-0.3208008,0.168457
3387,-31.5625,7.875,-10.375,-0.8745117,0.2495117,-0.2592773,0.3007813,-0.3208008,0.168457
3391,-4.25,-8.875,7,-0.8085938,0.3081055,-0.2475586,0.3007813,-0.3208008,0.1640625
3395,0.0625,-7.1875,14.5,-0.5527344,0.5644531,-0.1743164,0.2998047,-0.3242188,0.1640625
3399,-14.625,5.8125,8,-0.4907227,0.6811523,-0.1669922,0.2998047,-0.3242188,0.1616211
3403,-19.5625,15.25,1.6875,-0.7114258,0.5371094,-0.1782227,0.2963867,-0.3256836,0.1616211
3407,-14.3125,9.4375,14.625,-0.7387695,0.5410156,-0.1630859,0.2973633,-0.3256836,0.1601563
3411,-5.3125,10.5,18.25,-0.5644531,0.5527344,-0.07080078,0.2924805,-0.3266602,0.1616211
3415,-0.1875,16.3125,12.75,-0.4829102,0.6459961,-0.07080078,0.2915039,-0.3305664,0.15625
3419,-5.9375,25.5,5,-0.4013672,0.7158203,-0.05908203,0.2856445,-0.328125,0.1601563
3423,-17.4375,39.0625,-8.1875,-0.4555664,0.7236328,-0.09375,0.2841797,-0.3291016,0.1601563
3427,-23.0625,45.8125,-13.25,-0.5952148,0.6342773,-0.2055664,0.2807617,-0.328125,0.1616211
3432,-24.9375,45.25,-12.375,-0.6494141,0.5683594,-0.2978516,0.2758789,-0.3242188,0.1640625
3436,-25.3125,42.125,-6.625,-0.6264648,0.5449219,-0.2822266,0.2749023,-0.3217773,0.1640625
3440,-30.625,43.6875,-5.3125,-0.5214844,0.5878906,-0.2089844,0.2709961,-0.3208008,0.1640625
3444,-34.25,49.25,-6.3125,-0.5683594,0.5527344,-0.1938477,0.2641602,-0.3217773,0.1630859
3448,-34.125,53.25,-6.875,-0.5952148,0.5371094,-0.2324219,0.2626953,-0.3178711,0.1616211
3452,-34,52.375,-5.0625,-0.6225586,0.5332031,-0.2900391,0.2583008,-0.3168945,0.1616211
3456,-37,50.9375,-1.9375,-0.5488281,0.5292969,-0.2744141,0.2519531,-0.3154297,0.1616211
3460,-41.5625,50.9375,0.1875,-0.5253906,0.5644531,-0.2207031,0.2509766,-0.3144531,0.1586914
3464,-45,54.75,-2.1875,-0.5488281,0.5566406,-0.2207031,0.2451172,-0.3154297,0.1572266
3468,-44.4375,57.125,-0.4375,-0.6108398,0.5292969,-0.2705078,0.2412109,-0.3144531,0.15625
3472,-43.0625,54.1875,5.875,-0.6186523,0.5019531,-0.2939453,0.2368164,-0.3168945,0.1586914
3476,-32.9375,49.8125,11,-0.5683594,0.4594727,-0.3632813,0.2319336,-0.3154297,0.1533203
3480,-21.5625,42.375,8,-0.6264648,0.5800781,-0.4707031,0.2270508,-0.3154297,0.1518555
3484,-29.1875,33.4375,5.5,-0.6186523,0.6884766,-0.4438477,0.2236328,-0.3178711,0.1518555
3488,-44.0625,33.125,7.5,-0.5874023,0.6772461,-0.3554688,0.21875,-0.3168945,0.1494141
3492,-55.125,35.8125,11.4375,-0.5527344,0.6459961,-0.2861328,0.2177734,-0.3178711,0.1450195
3496,-55.625,38.3125,10.25,-0.5214844,0.6108398,-0.2553711,0.2128906,-0.3208008,0.144043
3500,-40.875,40,-0.75,-0.6416016,0.5527344,-0.359375,0.2094727,-0.3232422,0.1396484
3504,-19.0625,24.9375,-3.9375,-0.8046875,0.5058594,-0.4594727,0.2080078,-0.3208008,0.137207
3508,-6.875,6.75,2.75,-0.7890625,0.5952148,-0.4824219,0.2070313,-0.3178711,0.1357422
3512,-15.125,-3.0625,11.875,-0.6494141,0.7314453,-0.4091797,0.203125,-0.3193359,0.1328125
3516,-30.75,2.625,10.6875,-0.5795898,0.7666016,-0.3129883,0.2011719,-0.3193359,0.1274414
3520,-38.1875,13,7.0625,-0.5795898,0.7158203,-0.2744141,0.2021484,-0.3168945,0.1274414
3524,-27.875,14.4375,2.625,-0.7192383,0.6108398,-0.3476563,0.1987305,-0.3193359,0.1235352
3528,-8.625,1.25,3.0625,-0.7504883,0.6264648,-0.4282227,0.1948242,-0.3178711,0.1206055
3532,-0.25,-5.25,3.5,-0.6264648,0.7314453,-0.3745117,0.1948242,-0.3193359,0.1191406
3536,-7.625,-3.6875,3.625,-0.5644531,0.8632813,-0.3168945,0.1938477,-0.3208008,0.1166992
3540,-20.5,2.25,-4.125,-0.5722656,0.9140625,-0.3051758,0.1928711,-0.3193359,0.1137695
3544,-27.125,3.9375,-15.8125,-0.6069336,0.8867188,-0.2822266,0.1914063,-0.3208008,0.1113281
3548,-25.6875,1,-29.1875,-0.6806641,0.793457,-0.3129883,0.1914063,-0.3193359,0.1083984
3552,-19.0625,-4.4375,-40.9375,-0.715332,0.7739258,-0.2553711,0.1948242,-0.3144531,0.1044922
3556,-18,-9.4375,-44.5625,-0.8198242,0.7197266,-0.2363281,0.1962891,-0.3168945,0.1044922
3561,-21.8125,-10.8125,-33.125,-0.8510742,0.6381836,-0.1552734,0.199707,-0.3129883,0.09912109
3565,-20.625,-14.125,-17.375,-0.8857422,0.5371094,-0.1630859,0.2011719,-0.3105469,0.09765625
3569,-11.8125,-20,-6.5625,-0.862793,0.5605469,-0.1323242,0.199707,-0.3066406,0.09619141
3573,-6.375,-21.625,-2.8125,-0.8085938,0.6342773,-0.1054688,0.199707,-0.3041992,0.09228516
3577,-6.875,-17.75,-0.5625,-0.862793,0.7001953,-0.1166992,0.2011719,-0.3066406,0.08935547
3581,-10.875,-20.1875,3.875,-0.847168,0.6923828,-0.05517578,0.2011719,-0.3041992,0.08691406
3585,-3.8125,-19.25,8.3125,-0.8125,0.6459961,-0.04003906,0.2011719,-0.3041992,0.08691406
3589,1.6875,-19.1875,13.625,-0.7773438,0.6923828,-0.04394531,0.1987305,-0.3041992,0.08251953
3593,1.5625,-14.625,16.8125,-0.7851563,0.7739258,-0.08984375,0.1987305,-0.3032227,0.08105469
3597,-1.5625,-16.3125,13.75,-0.8046875,0.8129883,-0.09765625,0.1948242,-0.3017578,0.08105469
3601,-4.5,-12.375,8,-0.8046875,0.7626953,-0.06298828,0.1948242,-0.3007813,0.07861328
3605,-5.9375,-10.4375,10.75,-0.8432617,0.7080078,-0.07080078,0.1938477,-0.3056641,0.08007813
3609,-0.0625,-14,21.6875,-0.8588867,0.6186523,-0.1054688,0.1928711,-0.3032227,0.07861328
3613,7.375,-17.0625,31.9375,-0.831543,0.6616211,-0.1362305,0.1904297,-0.3056641,0.07568359
3617,10.9375,-17.8125,35.6875,-0.7578125,0.7509766,-0.1362305,0.1879883,-0.3041992,0.07861328
3621,9.3125,-13.5,32.5625,-0.7348633,0.7739258,-0.09765625,0.1865234,-0.3041992,0.07714844
3625,9.5625,-7.8125,28.3125,-0.7504883,0.7470703,-0.1401367,0.184082,-0.3056641,0.07568359
3629,16.6875,-10,27.5625,-0.8276367,0.6733398,-0.2167969,0.1831055,-0.3056641,0.07861328
3633,26.75,-16.25,32.25,-0.8046875,0.7041016,-0.2939453,0.1796875,-0.3041992,0.07861328
3637,29.3125,-21.875,32.3125,-0.8198242,0.7973633,-0.3476563,0.1772461,-0.3032227,0.08398438
3641,24.375,-21.9375,30.375,-0.7695313,0.8286133,-0.3286133,0.1782227,-0.3032227,0.08251953
3645,18.6875,-13.5,29.5,-0.746582,0.7973633,-0.3359375,0.1748047,-0.3032227,0.08105469
3649,13.6875,-16.375,37.0625,-0.9711914,0.8208008,-0.5478516,0.1738281,-0.3056641,0.08105469
3653,14.5,-20.375,41.5,-0.765625,0.793457,-0.4169922,0.1723633,-0.3041992,0.08398438
3657,21.25,-16.375,38.5625,-0.7426758,0.90625,-0.4013672,0.1699219,-0.3041992,0.08544922
3661,18.875,-10.875,31,-0.7192383,1.01123,-0.4013672,0.1665039,-0.3066406,0.08544922
3665,13.1875,-2.4375,22.6875,-0.715332,1.049805,-0.4208984,0.1640625,-0.3066406,0.08544922
3669,8.5,-1.1875,17.8125,-0.7578125,1.084961,-0.4628906,0.1630859,-0.3066406,0.08691406
3673,1.9375,-2.5625,13.125,-0.7543945,1.120117,-0.4555664,0.1630859,-0.3081055,0.08789063
3677,-9.8125,1.5,8.125,-0.7270508,1.13916,-0.4013672,0.1616211,-0.3105469,0.08691406
3681,-24.125,9.1875,7.8125,-0.730957,1.057617,-0.359375,0.1606445,-0.3120117,0.08544922
3685,-34.25,18.5625,11.875,-0.7504883,0.972168,-0.3325195,0.1591797,-0.3129883,0.08251953
3690,-38.375,20,16.0625,-0.8198242,0.8671875,-0.3359375,0.1591797,-0.3154297,0.08251953
3694,-29.75,13.25,17.875,-0.8085938,0.7509766,-0.3129883,0.1557617,-0.3178711,0.08105469
3698,-12.0625,5.375,17.6875,-0.7773438,0.7236328,-0.2939453,0.1557617,-0.3193359,0.07861328
3702,4.125,-1.625,15.3125,-0.7504883,0.7705078,-0.2822266,0.1567383,-0.3193359,0.08007813
3706,12.5,-5.0625,14.375,-0.7231445,0.8598633,-0.2978516,0.1547852,-0.3217773,0.07861328
3710,7.0625,-3.8125,18.625,-0.7075195,0.953125,-0.2939453,0.1533203,-0.3232422,0.08251953
3714,-5.75,-1.3125,26.25,-0.6923828,1.003418,-0.2822266,0.1533203,-0.3232422,0.08007813
3718,-15.9375,4.0625,30.3125,-0.6728516,0.9995117,-0.2631836,0.1499023,-0.3266602,0.08007813
3722,-19.4375,11.0625,29.3125,-0.6962891,0.972168,-0.2324219,0.1484375,-0.3305664,0.07714844
3726,-18.875,12.5625,30.0625,-0.7543945,0.8984375,-0.2397461,0.1499023,-0.3320313,0.07861328
3730,-18.5,6.5625,38.625,-0.8085938,0.8867188,-0.2783203,0.144043,-0.3354492,0.07861328
3734,-40.3125,-1.375,58.0625,-0.862793,1.034668,-0.2631836,0.1416016,-0.3393555,0.07421875
3738,-66.5625,4.1875,85.125,-0.7851563,1.022949,-0.2207031,0.1367188,-0.3442383,0.0703125
3742,-67.625,11.8125,99.3125,-0.7695313,0.9375,-0.2363281,0.128418,-0.3530273,0.06494141
3746,-46.8125,2.375,96.875,-0.6767578,0.8481445,-0.2089844,0.1186523,-0.359375,0.05957031
3750,-3.625,-5.9375,74.875,-0.4594727,0.855957,-0.08984375,0.1142578,-0.3642578,0.05957031
3754,32.6875,-10.375,39.6875,-0.3706055,0.9838867,-0.1552734,0.109375,-0.371582,0.05957031
3758,23.375,-5.5,32.75,-0.3432617,1.019043,-0.1206055,0.1069336,-0.3730469,0.06494141
3762,29.25,2.6875,27.5625,-0.4326172,1.015137,-0.2055664,0.105957,-0.3745117,0.06494141
3766,36.0625,-6.75,13.75,-0.4711914,1.030762,-0.2822266,0.1035156,-0.3754883,0.06787109
3770,48.25,-16.0625,-7.5,-0.378418,1.01123,-0.1860352,0.105957,-0.3779297,0.07324219
3774,50.4375,-15.0625,-17.875,-0.246582,1.06543,-0.04003906,0.1069336,-0.3769531,0.07568359
3778,37.625,-1.3125,-23.125,-0.1420898,1.015137,0.005859375,0.109375,-0.3779297,0.08105469
3782,29.25,11.875,-31.3125,-0.1767578,1.081055,0.001953125,0.1142578,-0.3779297,0.08789063
3786,16.8125,18.25,-44.4375,-0.262207,1.143066,-0.04736328,0.1142578,-0.3769531,0.09082031
3790,17.375,14.9375,-56.6875,-0.4248047,1.026855,-0.1474609,0.1210938,-0.3779297,0.09326172
3794,8.5,3.875,-49.6875,-0.4248047,1.09668,-0.07470703,0.1259766,-0.3779297,0.09912109
3798,0.4375,15.0625,-45.0625,-0.4091797,1.36084,0.09423828,0.1308594,-0.3769531,0.1000977
3802,-2.5,48.625,-53.375,-0.3588867,1.516113,0.2402344,0.1342773,-0.3779297,0.1044922
3806,-42.0625,79,-73,-0.1264648,1.523926,0.3173828,0.1401367,-0.3779297,0.1098633
3810,-76.5,117.25,-104.4375,0.05517578,0.9179688,0.3867188,0.1450195,-0.3803711,0.1098633
3814,-48.8125,120.0625,-122.125,-0.4907227,0.2148438,-0.03222656,0.1547852,-0.3818359,0.1152344
3819,-16.5625,88.375,-112.5625,-0.6147461,0.06689453,-0.1015625,0.1616211,-0.3769531,0.1206055
3823,-4.8125,74.375,-93,-0.5756836,0.1953125,-0.1669922,0.1699219,-0.3754883,0.125
3827,-15.8125,68.9375,-77.9375,-0.3935547,0.2299805,-0.1552734,0.1738281,-0.371582,0.1328125
3831,-13.6875,77.5,-72.5,-0.3007813,-0.02587891,-0.1206055,0.1782227,-0.3681641,0.1396484
3835,15.8125,65.6875,-62.875,-0.5913086,-0.08007813,-0.3974609,0.1806641,-0.3657227,0.1464844
3839,45.625,32.75,-43.125,-0.8549805,0.203125,-0.7207031,0.1831055,-0.3618164,0.1547852
3843,50.5,1.9375,-23.875,-0.9287109,0.6616211,-0.9169922,0.1831055,-0.3569336,0.1640625
3847,14.5625,-13.5,-3.8125,-0.5253906,0.7817383,-0.6860352,0.1865234,-0.3554688,0.1669922
3851,-12.8125,4.4375,-3.875,-0.2851563,0.6030273,-0.4438477,0.1865234,-0.3554688,0.1699219
3855,-15.1875,9.9375,-8.25,-0.4555664,0.4516602,-0.4360352,0.1855469,-0.3569336,0.1738281
3859,6.9375,-13.5,-4.875,-0.8276367,0.3740234,-0.6206055,0.1879883,-0.359375,0.175293
3863,5.625,-39.1875,14.6875,-0.6611328,0.4946289,-0.5131836,0.1865234,-0.3579102,0.1762695
3867,-10.1875,-39.9375,38.125,-0.5722656,0.5878906,-0.4169922,0.1879883,-0.3642578,0.175293
3871,-34.25,-31.75,49.375,-0.4052734,0.5839844,-0.2553711,0.1879883,-0.3666992,0.175293
3875,-26.75,-22.5625,49.375,-0.6264648,0.5527344,-0.4321289,0.184082,-0.3769531,0.1738281
3879,-7.375,-49.0625,46.625,-0.78125,0.6225586,-0.5786133,0.1796875,-0.3803711,0.1708984
3883,15,-67.5625,34.875,-0.4287109,0.5722656,-0.2783203,0.1796875,-0.3857422,0.1708984
3887,23,-55.0625,26.6875,-0.215332,0.6772461,-0.03222656,0.1806641,-0.390625,0.1723633
3891,6.6875,-31.5,26.875,-0.4130859,0.7392578,-0.06689453,0.1796875,-0.3930664,0.1708984
3895,7.125,-35.25,40.4375,-0.746582,0.6923828,-0.2592773,0.1806641,-0.3930664,0.1708984
3899,11.6875,-51.9375,54.5,-0.6494141,0.8168945,-0.2861328,0.1748047,-0.3979492,0.1708984
3903,6.625,-54.375,52.8125,-0.3320313,0.8710938,-0.1669922,0.1723633,-0.4042969,0.1708984
3907,7.125,-37.875,30.125,-0.09912109,0.9179688,0.001953125,0.1713867,-0.4091797,0.1723633
3911,-1.6875,-13.625,8.5,-0.09912109,0.9257813,-0.02832031,0.1699219,-0.4067383,0.1708984
3915,-13.875,3.4375,-4.1875,-0.296875,0.8984375,-0.1206055,0.1689453,-0.4116211,0.1708984
3919,-18,7.5,-4.9375,-0.4711914,0.7587891,-0.1977539,0.1689453,-0.4106445,0.1699219
3923,-14.3125,2.0625,-1.9375,-0.5214844,0.7392578,-0.2324219,0.1713867,-0.4116211,0.1699219
3927,-11.4375,-0.75,-4.3125,-0.4365234,0.7548828,-0.1669922,0.1713867,-0.4140625,0.168457
3931,-14,7.8125,-9.0625,-0.3935547,0.7275391,-0.109375,0.1699219,-0.4155273,0.1669922
3935,-18.75,13.8125,-10.625,-0.4287109,0.6923828,-0.09765625,0.1723633,-0.4169922,0.1655273
3939,-16.75,20.875,-8.1875,-0.5332031,0.5839844,-0.1899414,0.1723633,-0.4155273,0.1640625
3943,-8.75,9.25,0.625,-0.6225586,0.5913086,-0.2207031,0.1723633,-0.4169922,0.1601563
3948,2.3125,5.75,7.0625,-0.5371094,0.5913086,-0.1938477,0.1699219,-0.4155273,0.1616211
3952,7.8125,3.625,9.375,-0.4633789,0.6962891,-0.1743164,0.1689453,-0.4130859,0.1586914
3956,3.8125,9.25,6,-0.3549805,0.6962891,-0.06298828,0.1665039,-0.4106445,0.1572266
3960,9.1875,18,4.4375,-0.4633789,0.6108398,-0.1977539,0.1665039,-0.4106445,0.15625
3964,17.9375,5.0625,6,-0.6108398,0.7041016,-0.4052734,0.1650391,-0.4082031,0.15625
3968,17.125,-5.5,9.9375,-0.4790039,0.7470703,-0.3554688,0.1650391,-0.4057617,0.15625
3972,8.875,-2.5,7.4375,-0.3745117,0.8051758,-0.2670898,0.1630859,-0.402832,0.1533203
3976,-1.9375,3.3125,-0.8125,-0.3125,0.7353516,-0.09765625,0.1616211,-0.4018555,0.1508789
3980,-4.1875,12.125,-5.5625,-0.3549805,0.5761719,0.009765625,0.1616211,-0.3979492,0.1494141
3984,3.875,19.8125,2.9375,-0.4365234,0.4321289,-0.03613281,0.1616211,-0.3969727,0.1479492
3988,22.8125,15.0625,16.25,-0.5371094,0.4360352,-0.2055664,0.1606445,-0.3945313,0.1464844
3992,33.0625,1.3125,21.875,-0.4482422,0.5991211,-0.2900391,0.1582031,-0.3916016,0.1450195
3996,27.9375,1.75,19.0625,-0.3164063,0.7001953,-0.2246094,0.1547852,-0.3881836,0.1425781
4000,14.6875,12.5625,15.8125,-0.3320313,0.7626953,-0.2016602,0.1533203,-0.3857422,0.1425781
4004,1.75,19.6875,15.4375,-0.3901367,0.7041016,-0.1821289,0.1508789,-0.3842773,0.1411133
4008,3.875,22.6875,20.125,-0.4443359,0.5952148,-0.2475586,0.1484375,-0.3833008,0.1396484
4012,6.8125,13.4375,25.5,-0.4985352,0.6459961,-0.2705078,0.144043,-0.3779297,0.1381836
4016,10,7.6875,29.875,-0.4091797,0.6499023,-0.2285156,0.1416016,-0.3779297,0.1357422
4020,13.5625,11.75,29.9375,-0.3862305,0.7431641,-0.2207031,0.1391602,-0.3754883,0.1342773
4024,3.9375,13.75,29,-0.3823242,0.8286133,-0.2128906,0.1333008,-0.3769531,0.1328125
4028,-5.625,20,28.9375,-0.362793,0.809082,-0.2285156,0.1308594,-0.3730469,0.1313477
4032,-7.0625,22.5625,29.3125,-0.4052734,0.8208008,-0.2822266,0.1259766,-0.371582,0.1274414
4036,-1.8125,17.625,19.6875,-0.5332031,0.8789063,-0.3359375,0.125,-0.3706055,0.1274414
4040,-0.1875,8,15,-0.5449219,0.824707,-0.3168945,0.1210938,-0.371582,0.1259766
4044,-2.25,1.625,19.25,-0.4829102,0.7509766,-0.309082,0.1201172,-0.3706055,0.1235352
4048,-3,1.5625,19.625,-0.3549805,0.7973633,-0.2246094,0.1166992,-0.3666992,0.1235352
4052,-2.6875,19.375,0.375,-0.3823242,0.9453125,-0.1743164,0.1166992,-0.3666992,0.1191406
4056,-6.0625,34.3125,-12.5625,-0.5722656,0.8442383,-0.2822266,0.1152344,-0.3657227,0.1181641
4060,-9,26.625,-7.6875,-0.730957,0.6962891,-0.3706055,0.1142578,-0.3632813,0.1152344
4064,-3.1875,4.0625,10.5625,-0.6767578,0.5800781,-0.3706055,0.1118164,-0.3618164,0.1137695
4068,17.625,-10.25,11.25,-0.4052734,0.6694336,-0.1938477,0.1103516,-0.3603516,0.1123047
4072,41.6875,-7.1875,-13.375,-0.3164063,0.7817383,-0.1513672,0.1103516,-0.359375,0.1123047
4077,51.1875,-0.25,-34.25,-0.4555664,0.8984375,-0.2363281,0.1103516,-0.3544922,0.1152344
4081,42.125,-1.6875,-31.375,-0.5913086,0.9023438,-0.324707,0.1118164,-0.3505859,0.1166992
4085,33.0625,-9.875,-6.375,-0.6416016,0.8632813,-0.394043,0.1142578,-0.3466797,0.1206055
4089,30.625,-20.5,18.5625,-0.6069336,0.9414063,-0.4667969,0.1166992,-0.3417969,0.1191406
4093,34.75,-32.375,19.3125,-0.5756836,1.120117,-0.5551758,0.1152344,-0.3408203,0.1191406
4097,29.875,-39.3125,7.25,-0.4672852,1.271484,-0.5244141,0.112793,-0.3378906,0.1191406
4101,11.875,-31.1875,-5.125,-0.3706055,1.32959,-0.4438477,0.1142578,-0.3354492,0.1206055
4105,-8.1875,-19.8125,-11.25,-0.4013672,1.321777,-0.4248047,0.1152344,-0.3330078,0.1191406
4109,-22.6875,-12.875,-17.4375,-0.4404297,1.240234,-0.4052734,0.1166992,-0.3320313,0.1181641
4113,-27.375,-6.8125,-22.5625,-0.5371094,1.166504,-0.3632813,0.1152344,-0.3330078,0.1166992
4117,-35.4375,-2.0625,-15,-0.6147461,1.053711,-0.3325195,0.1176758,-0.3305664,0.1113281
4121,-33.3125,-7.1875,-4.0625,-0.6884766,0.9335938,-0.3286133,0.1201172,-0.3320313,0.1098633
4125,-21.0625,-21.125,3.875,-0.6108398,0.875,-0.3325195,0.1201172,-0.3330078,0.1069336
4129,-5.875,-31.875,-0.4375,-0.5371094,1.015137,-0.324707,0.1201172,-0.3344727,0.1030273
4133,-1,-32.125,-10.8125,-0.4829102,1.022949,-0.2514648,0.1210938,-0.3305664,0.1015625
4137,-8.9375,-23.6875,-16.5,-0.4829102,1.019043,-0.2324219,0.1225586,-0.3320313,0.1015625
4141,-17.75,-15.625,-18.1875,-0.5175781,0.9414063,-0.2744141,0.1235352,-0.3320313,0.1000977
4145,-24.0625,-17.0625,-18.5,-0.5566406,0.9296875,-0.3359375,0.125,-0.3320313,0.09472656
4149,-26.8125,-20.8125,-23.125,-0.5683594,0.875,-0.3398438,0.1269531,-0.328125,0.09472656
4153,-24.6875,-24.6875,-22.375,-0.847168,0.9023438,-0.4785156,0.1293945,-0.3291016,0.09082031
4157,-39.1875,-38.3125,-14.5,-0.5371094,0.6845703,-0.2592773,0.1318359,-0.3305664,0.08691406
4161,-25.25,-28.75,-20.625,-0.4907227,0.7666016,-0.2285156,0.1357422,-0.3266602,0.08544922
4165,-27.8125,-27.6875,-33.375,-0.5449219,0.8789063,-0.2783203,0.1376953,-0.328125,0.08251953
4169,-31.8125,-26.75,-46.125,-0.5795898,0.855957,-0.2822266,0.1391602,-0.328125,0.07861328
4173,-36,-24.9375,-49.125,-0.6303711,0.7666016,-0.2744141,0.144043,-0.3256836,0.07714844
4177,-37.5,-29.5,-45.6875,-0.7075195,0.7275391,-0.2705078,0.1484375,-0.3232422,0.0703125
4181,-32.5,-38.5625,-42.5625,-0.7270508,0.7041016,-0.2592773,0.1533203,-0.3232422,0.06640625
4185,-27.8125,-43.625,-42.9375,-0.6689453,0.7587891,-0.1899414,0.1547852,-0.3217773,0.06347656
4189,-30.5625,-38.0625,-43.6875,-0.6416016,0.824707,-0.1401367,0.1606445,-0.3217773,0.05957031
4193,-35.6875,-28.625,-47.125,-0.6884766,0.8364258,-0.109375,0.1650391,-0.3178711,0.05517578
4197,-43.125,-19.125,-45.375,-0.730957,0.840332,-0.09765625,0.1650391,-0.3178711,0.05126953
4201,-48.375,-8.6875,-39.1875,-0.7695313,0.7739258,-0.08203125,0.1699219,-0.3154297,0.04589844
4206,-42.5625,-5.1875,-33.4375,-0.862793,0.7119141,-0.1206055,0.1723633,-0.3154297,0.04296875
4210,-28.6875,-13.5625,-29.6875,-0.9208984,0.7197266,-0.1474609,0.1772461,-0.3129883,0.0390625
4214,-13.875,-19.5625,-26.9375,-0.9013672,0.7353516,-0.09375,0.1796875,-0.3129883,0.0390625
4218,-7.1875,-17.375,-21.25,-0.8549805,0.793457,-0.05126953,0.1806641,-0.3105469,0.03515625
4222,-7.375,-5.125,-17,-0.8046875,0.8520508,-0.02441406,0.1821289,-0.3095703,0.03369141
4226,-11.0625,5.1875,-11.375,-0.8588867,0.855957,-0.07080078,0.1831055,-0.3105469,0.03515625
4230,-8.8125,5.875,-4.3125,-0.9248047,0.7973633,-0.128418,0.1831055,-0.3105469,0.03222656
4234,-0.5625,1.8125,0.6875,-0.9287109,0.793457,-0.1206055,0.1831055,-0.3095703,0.03515625
4238,4.125,1.1875,4.6875,-0.8935547,0.8325195,-0.09375,0.1831055,-0.3105469,0.03515625
4242,7.9375,4.375,6.6875,-0.878418,0.840332,-0.109375,0.1831055,-0.3105469,0.03515625
4246,9.5625,4.625,9.9375,-0.8666992,0.8442383,-0.128418,0.1831055,-0.3120117,0.03515625
4250,12.0625,4.6875,14.4375,-0.831543,0.8520508,-0.1323242,0.1806641,-0.3120117,0.03515625
4254,13,5.4375,16.375,-0.7734375,0.855957,-0.1362305,0.1806641,-0.3120117,0.03613281
4258,11.5625,10.625,14.25,-0.7617188,0.9335938,-0.1015625,0.1796875,-0.3154297,0.03369141
4262,1.75,18.8125,14.3125,-0.7617188,0.875,-0.0859375,0.1806641,-0.3178711,0.03613281
4266,-0.4375,25.25,14.8125,-0.7578125,0.7705078,-0.07861328,0.1772461,-0.3193359,0.0390625
4270,3.875,23.1875,15.3125,-0.7504883,0.7041016,-0.09765625,0.1757813,-0.3193359,0.0390625
4274,10.3125,22,12.1875,-0.7387695,0.7275391,-0.109375,0.1738281,-0.3232422,0.04199219
4278,9.25,21.0625,5.0625,-0.765625,0.7314453,-0.1362305,0.1723633,-0.3242188,0.04296875
4282,7,21.5,-1.375,-0.7851563,0.7080078,-0.1362305,0.1757813,-0.3232422,0.04296875
4286,8.6875,19.8125,-7.6875,-0.765625,0.6811523,-0.1054688,0.1757813,-0.3232422,0.04443359
4290,8.625,18.75,-10.375,-0.7270508,0.7392578,-0.09765625,0.1772461,-0.3256836,0.04980469
4294,0.4375,22.3125,-4.9375,-0.6728516,0.7587891,-0.0859375,0.1782227,-0.3242188,0.04882813
4298,-3.625,27.5625,0.75,-0.715332,0.7626953,-0.08203125,0.1772461,-0.3242188,0.04980469
4302,1.4375,25.75,7.25,-0.7929688,0.6884766,-0.112793,0.1772461,-0.328125,0.05126953
4306,18,20,13.25,-0.7851563,0.7197266,-0.06298828,0.1757813,-0.3305664,0.05126953
4310,32,15.5625,14.3125,-0.7075195,0.8442383,-0.06298828,0.1748047,-0.3291016,0.05419922
4314,36,15.3125,12.375,-0.6533203,0.9682617,-0.09765625,0.1757813,-0.3305664,0.05664063
4318,30,17.9375,7.9375,-0.6342773,1.073242,-0.1206055,0.1738281,-0.3330078,0.06103516
4322,20.375,21.9375,6.875,-0.6845703,1.061523,-0.1630859,0.1748047,-0.3344727,0.06347656
4326,13.75,20.625,9.4375,-0.7348633,1.003418,-0.2089844,0.1723633,-0.3344727,0.06787109
4330,13.75,16.75,10.6875,-0.6923828,0.890625,-0.2055664,0.1723633,-0.3369141,0.06884766
4335,26.5625,7.5625,6.25,-0.6884766,0.7856445,-0.2324219,0.1738281,-0.3393555,0.07324219
4339,46.4375,-6.1875,2.0625,-0.6650391,0.7431641,-0.2822266,0.1738281,-0.3408203,0.07714844
4343,55.8125,-16.4375,-1.375,-0.6225586,0.8286133,-0.2939453,0.1748047,-0.3378906,0.07861328
4347,46.3125,-19.25,-0.4375,-0.5756836,0.8671875,-0.3129883,0.1772461,-0.3393555,0.08398438
4351,33.5625,-25.4375,-0.5,-0.6147461,0.793457,-0.359375,0.1772461,-0.3378906,0.08691406
4355,26.375,-37.375,-0.5625,-0.6962891,0.6264648,-0.4282227,0.1806641,-0.3378906,0.09228516
4359,28.625,-59.625,3.75,-0.7192383,0.4555664,-0.4248047,0.184082,-0.3393555,0.09228516
4363,36.6875,-77.4375,13.125,-0.6342773,0.4243164,-0.359375,0.1865234,-0.3408203,0.08935547
4367,39.1875,-79.1875,19.1875,-0.4868164,0.4399414,-0.2705078,0.1879883,-0.3417969,0.09228516
4371,30.5625,-66.875,27.1875,-0.4052734,0.6069336,-0.2089844,0.1889648,-0.3432617,0.08935547
4375,4.75,-48.4375,30.3125,-0.3125,0.6733398,-0.1206055,0.1889648,-0.3466797,0.08935547
4379,-8.6875,-28.875,22.25,-0.3588867,0.6962891,-0.05908203,0.1879883,-0.3491211,0.08691406
4383,-20.875,-17.1875,20.375,-0.4750977,0.7001953,-0.05126953,0.1879883,-0.3530273,0.08691406
4387,-21,-10.25,24.0625,-0.5449219,0.6459961,0.02880859,0.1889648,-0.3554688,0.08398438
4391,-5,-10.625,26.75,-0.6416016,0.6030273,0.02099609,0.1879883,-0.359375,0.08251953
4395,13.75,-20.5,29.875,-0.6416016,0.6577148,0.01367188,0.184082,-0.3642578,0.08251953
4399,26.3125,-20.625,23.875,-0.4946289,0.8129883,-0.02441406,0.184082,-0.3657227,0.08398438
4403,20.5,-11.4375,26.4375,-0.4443359,0.956543,0.125,0.1831055,-0.3666992,0.08691406
4407,10.3125,5.9375,19.375,-0.4052734,0.9335938,0.08251953,0.1831055,-0.3691406,0.08691406
4411,12.9375,19.4375,9.0625,-0.4985352,0.956543,-0.02050781,0.1796875,-0.3706055,0.09082031
4415,-0.375,17.25,4.1875,-0.4829102,0.9956055,-0.07470703,0.1796875,-0.3691406,0.09228516
4419,-9.9375,18.375,-5.875,-0.3706055,0.8984375,-0.04003906,0.1806641,-0.3691406,0.09619141
4423,-0.3125,20.625,-16.5,-0.4404297,0.7353516,-0.09765625,0.1821289,-0.3754883,0.09765625
4427,14.0625,14.875,-21.25,-0.5605469,0.7626953,-0.2089844,0.1831055,-0.371582,0.1000977
4431,15.875,8.8125,-24.125,-0.5371094,0.824707,-0.2285156,0.1855469,-0.371582,0.1030273
4435,9.375,14.5,-28,-0.5488281,0.8710938,-0.2670898,0.1904297,-0.3681641,0.1069336
4439,-6.6875,17.0625,-26.9375,-0.5722656,0.8286133,-0.3168945,0.1889648,-0.3691406,0.1098633
4443,-17.375,14.3125,-25.625,-0.5605469,0.7470703,-0.3706055,0.1914063,-0.3666992,0.1098633
4447,-17.5625,9.1875,-28.1875,-0.5566406,0.6499023,-0.3476563,0.1938477,-0.3681641,0.1123047
4451,-7.1875,5.0625,-30.6875,-0.6767578,0.6303711,-0.378418,0.1962891,-0.3706055,0.1113281
4455,-3.6875,-5.3125,-26.5,-0.765625,0.6186523,-0.4169922,0.2011719,-0.3691406,0.1137695
4459,-5.875,-18.75,-15,-0.746582,0.6108398,-0.4208984,0.2045898,-0.3691406,0.1137695
4464,-14.375,-27.0625,-3.5625,-0.6186523,0.5913086,-0.4013672,0.2045898,-0.3706055,0.1113281
4468,-23.5,-26.125,0.0625,-0.5644531,0.5952148,-0.3666992,0.2080078,-0.3754883,0.1113281
4472,-28.25,-24.1875,-0.625,-0.5874023,0.6264648,-0.34375,0.2119141,-0.3793945,0.1069336
4476,-30.9375,-22.8125,-6.4375,-0.6264648,0.5800781,-0.309082,0.2119141,-0.3793945,0.105957
4480,-24.8125,-23.4375,-2.5,-0.7851563,0.5839844,-0.3515625,0.215332,-0.3833008,0.1000977
4484,-22.75,-41.375,9.5625,-0.8237305,0.5683594,-0.3706055,0.2163086,-0.3857422,0.09619141
4488,-14.0625,-56.625,25.6875,-0.7348633,0.5449219,-0.2822266,0.2177734,-0.3881836,0.09228516
4492,-9,-63.375,33.125,-0.5102539,0.6264648,-0.06689453,0.2177734,-0.3930664,0.08691406
4496,-3.4375,-54.3125,32.625,-0.3935547,0.7080078,0.07128906,0.2177734,-0.3979492,0.08105469
4500,-4.875,-41.6875,29,-0.2851563,0.8129883,0.159668,0.2163086,-0.4018555,0.08007813
4504,-10.75,-24.375,14,-0.2504883,0.8520508,0.1865234,0.2138672,-0.4067383,0.07324219
4508,-12.0625,-12.875,4.8125,-0.3432617,0.8012695,0.1518555,0.2138672,-0.4082031,0.0703125
4512,-9.0625,-8.0625,-0.0625,-0.4248047,0.777832,0.1132813,0.215332,-0.4116211,0.06884766
4516,-8.5,-6,-2.375,-0.4365234,0.7666016,0.09814453,0.2163086,-0.4116211,0.0703125
4520,-11.125,2.75,-6.625,-0.3666992,0.7626953,0.03271484,0.2138672,-0.4106445,0.06640625
4524,-18.25,11.625,-12.875,-0.4404297,0.7548828,0.01367188,0.2177734,-0.4130859,0.06494141
4528,-27,19.5625,-12.25,-0.4868164,0.6811523,-0.009277344,0.21875,-0.4116211,0.06347656
4532,-25.875,25,-10.625,-0.5332031,0.5488281,0.01708984,0.2177734,-0.4106445,0.06201172
4536,-12.1875,21.625,-5.25,-0.6186523,0.4868164,-0.02832031,0.2202148,-0.4106445,0.06201172
4540,-0.0625,16.1875,-1,-0.5795898,0.5449219,-0.01318359,0.2177734,-0.4106445,0.06201172
4544,8.625,18.5625,-1.625,-0.5756836,0.5488281,-0.02441406,0.2177734,-0.4091797,0.06494141
4548,12.625,17.5625,4.5,-0.6069336,0.5761719,-0.04736328,0.2163086,-0.4057617,0.06640625
4552,14.625,18.5,9.5,-0.5410156,0.5800781,-0.001464844,0.2163086,-0.4042969,0.06640625
4556,16.25,20.4375,12.125,-0.4946289,0.6186523,-0.005371094,0.2119141,-0.4018555,0.0703125
4560,20.1875,24.9375,10.9375,-0.4672852,0.6303711,0.02099609,0.2094727,-0.4003906,0.07324219
4564,24.1875,28.625,11.75,-0.4829102,0.6499023,-0.01660156,0.2070313,-0.3979492,0.07568359
4568,24.8125,30.25,9.875,-0.4326172,0.6733398,-0.02832031,0.203125,-0.3945313,0.08007813
4572,20.8125,35.6875,5.375,-0.4052734,0.7158203,-0.03613281,0.2011719,-0.3930664,0.08398438
4576,14.5,41.9375,3.5,-0.4169922,0.6772461,-0.01660156,0.1972656,-0.3916016,0.08691406
4580,14.4375,47.9375,4.625,-0.4672852,0.5991211,-0.06689453,0.1948242,-0.3857422,0.09082031
4584,25.375,47.5625,5.6875,-0.5874023,0.6459961,-0.2089844,0.1914063,-0.3842773,0.09082031
4588,24.9375,40.5,4.4375,-0.6030273,0.7353516,-0.2670898,0.1865234,-0.3803711,0.09472656
4593,18.125,39.125,7.0625,-0.5834961,0.7587891,-0.3129883,0.1855469,-0.3793945,0.1000977
4597,9.3125,37.125,8.5,-0.5683594,0.7314453,-0.2783203,0.1821289,-0.3769531,0.1000977
4601,5.75,33.5,10.25,-0.5371094,0.7158203,-0.2089844,0.1821289,-0.3754883,0.1015625
4605,4.5625,36.9375,12.4375,-0.4946289,0.6538086,-0.1206055,0.1772461,-0.3730469,0.1030273
4609,9.5625,40.1875,17.75,-0.5292969,0.6538086,-0.1513672,0.1748047,-0.3706055,0.1030273
4613,18.5,35.5625,19.9375,-0.5756836,0.6772461,-0.2475586,0.1689453,-0.3681641,0.105957
4617,27.125,25.5,22.25,-0.5605469,0.7119141,-0.3051758,0.1665039,-0.3657227,0.1069336
4621,26.9375,18.375,24.5625,-0.4790039,0.8012695,-0.309082,0.1665039,-0.3632813,0.1098633
4625,15.8125,21.625,22.4375,-0.4208984,0.890625,-0.2631836,0.1591797,-0.3618164,0.1113281
4629,-0.1875,28.9375,22.6875,-0.4482422,0.875,-0.2207031,0.1582031,-0.3618164,0.1123047
4633,-7.6875,33.3125,27.9375,-0.4907227,0.793457,-0.2363281,0.1523438,-0.359375,0.1113281
4637,-4.25,31.5625,34.8125,-0.4985352,0.7197266,-0.2670898,0.1474609,-0.3603516,0.1113281
4641,8.375,18.5625,36.0625,-0.4750977,0.7548828,-0.3168945,0.144043,-0.359375,0.1098633
4645,17.3125,8.875,24.3125,-0.3935547,0.9179688,-0.2900391,0.1376953,-0.3632813,0.1113281
4649,12.3125,11,9.5,-0.3549805,0.9956055,-0.2475586,0.1367188,-0.3603516,0.1123047
4653,1.0625,17.6875,2.5625,-0.3823242,0.9956055,-0.2475586,0.1342773,-0.3569336,0.1123047
4657,-8.625,18.9375,1.6875,-0.4326172,0.9335938,-0.2822266,0.1342773,-0.3554688,0.1098633
4661,-10.125,12.75,-3.4375,-0.4404297,0.8945313,-0.2900391,0.1333008,-0.3579102,0.1123047
4665,-10.9375,9.6875,-6.5,-0.4555664,0.855957,-0.2670898,0.1318359,-0.3544922,0.105957
4669,-9.9375,9.6875,-8,-0.4829102,0.8129883,-0.2475586,0.1318359,-0.3505859,0.1069336
4673,-9.1875,11.3125,-3.875,-0.5102539,0.8051758,-0.2592773,0.1318359,-0.3505859,0.105957
4677,-8.9375,7.875,3.1875,-0.5488281,0.8129883,-0.3286133,0.1308594,-0.3491211,0.1044922
4681,-7.4375,-1.1875,-0.0625,-0.5253906,0.9179688,-0.3515625,0.1293945,-0.3481445,0.1069336
4685,-13.0625,-2,-10.1875,-0.5795898,0.9101563,-0.3398438,0.1293945,-0.3457031,0.1030273
4689,-28.0625,4.3125,-6.4375,-0.5913086,0.8598633,-0.2939453,0.1308594,-0.3457031,0.1030273
4693,-31.9375,9.1875,2.3125,-0.6376953,0.7158203,-0.3168945,0.1293945,-0.3442383,0.1000977
4697,-23.4375,-1.3125,13.625,-0.7192383,0.7041016,-0.394043,0.128418,-0.3442383,0.09765625
4701,-10.4375,-22.375,17.8125,-0.7348633,0.7817383,-0.4248047,0.1269531,-0.3442383,0.09326172
4705,-3.9375,-35.3125,19.75,-0.6767578,0.8632813,-0.3901367,0.125,-0.3442383,0.09228516
4709,-8.3125,-37.4375,25.0625,-0.6494141,0.890625,-0.3632813,0.1235352,-0.3432617,0.09082031
4713,-14.0625,-40.0625,32.3125,-0.6611328,0.8598633,-0.378418,0.1225586,-0.3442383,0.08544922
4717,-15.8125,-51.3125,44.1875,-0.6689453,0.8168945,-0.3974609,0.1186523,-0.3457031,0.08251953
4722,-10.6875,-67.3125,52.25,-0.6572266,0.8481445,-0.4052734,0.1166992,-0.3466797,0.07861328
4726,-4.0625,-77.9375,51.625,-0.6069336,0.90625,-0.3706055,0.1142578,-0.3457031,0.07568359
4730,-5,-78.1875,53.5,-0.5449219,0.956543,-0.3051758,0.1118164,-0.3481445,0.07421875
4734,-14.4375,-70.1875,58.5,-0.4521484,0.987793,-0.2167969,0.1079102,-0.3491211,0.0703125
4738,-23.0625,-55.5625,62.5625,-0.347168,0.9604492,-0.128418,0.1035156,-0.3530273,0.06494141
4742,-21.875,-40.6875,61.125,-0.2929688,1.073242,-0.08984375,0.1020508,-0.3520508,0.06201172
4746,-20.9375,-27.375,42.5,-0.347168,1.209473,-0.1015625,0.09765625,-0.3520508,0.05957031
4750,-21.6875,-20.0625,18.625,-0.4208984,1.225098,-0.1054688,0.09375,-0.3544922,0.05517578
4754,-21.25,-12.625,3.0625,-0.4482422,1.166504,-0.1054688,0.09375,-0.3530273,0.05664063
4758,-20.625,-6.6875,2.1875,-0.5102539,1.112305,-0.1552734,0.09521484,-0.3530273,0.05126953
4762,-22.0625,-12,5.6875,-0.5722656,1.162598,-0.2128906,0.09277344,-0.3530273,0.05126953
4766,-24.9375,-17.0625,1.5625,-0.5410156,1.193848,-0.1708984,0.09130859,-0.3544922,0.04589844
4770,-20.1875,-16.875,-1.6875,-0.4633789,1.150879,-0.1054688,0.09375,-0.3544922,0.04296875
4774,-14.5,-9.75,-12.3125,-0.4248047,1.092773,-0.04736328,0.09277344,-0.3544922,0.04443359
4778,-9.25,-1.0625,-21.125,-0.4365234,1.104492,-0.07470703,0.09375,-0.3569336,0.04199219
4782,-9.5625,4.375,-28.375,-0.4633789,1.135742,-0.112793,0.09521484,-0.3569336,0.04296875
4786,-15.8125,11.625,-31.5,-0.4829102,1.124023,-0.112793,0.09863281,-0.3544922,0.04052734
4790,-24.625,19.4375,-29.875,-0.5214844,1.06543,-0.128418,0.1010742,-0.3530273,0.0390625
4794,-28.375,22.5,-24.75,-0.5566406,1.015137,-0.1401367,0.1010742,-0.3544922,0.03613281
4798,-27.125,23,-25.5625,-0.5756836,0.987793,-0.1206055,0.105957,-0.3544922,0.03613281
4802,-19.3125,19.5625,-30.6875,-0.6147461,0.953125,-0.1206055,0.1069336,-0.3530273,0.03759766
4806,-11.4375,18.0625,-33,-0.6225586,0.9375,-0.1054688,0.1103516,-0.3530273,0.03515625
4810,-6,17.4375,-30.25,-0.6303711,0.921875,-0.09765625,0.1142578,-0.3544922,0.03515625
4814,-2.8125,17.5,-27.0625,-0.6376953,0.9682617,-0.1323242,0.1152344,-0.3505859,0.03613281
4818,-5.0625,16.3125,-21.8125,-0.6494141,1.019043,-0.1591797,0.1201172,-0.3505859,0.03369141
4822,-8.4375,17.625,-18.8125,-0.6728516,1.084961,-0.1362305,0.1186523,-0.3520508,0.03515625
4826,-15,20.75,-16.75,-0.7348633,1.069336,-0.1245117,0.1186523,-0.3520508,0.03515625
4830,-5.8125,15.625,-12.1875,-0.765625,0.9453125,-0.128418,0.1210938,-0.3520508,0.03613281
4834,12.125,8.0625,-5.6875,-0.7114258,0.9492188,-0.0859375,0.1225586,-0.3530273,0.03759766
4838,22.6875,4.1875,0.125,-0.6376953,1.061523,-0.04003906,0.1210938,-0.3569336,0.03759766
4842,22,9.1875,1.1875,-0.5410156,1.158691,0.009765625,0.1210938,-0.3569336,0.0390625
4846,15.125,20.3125,-0.8125,-0.5063477,1.186035,0.02490234,0.1210938,-0.3569336,0.04199219
4851,5.5625,32.5,-4.5,-0.5175781,1.158691,0.02099609,0.1235352,-0.359375,0.04296875
4855,2.75,40.0625,-6,-0.6264648,1.092773,-0.02832031,0.1225586,-0.3603516,0.04589844
4859,7.625,34.125,-4.5625,-0.7114258,1.038574,-0.04394531,0.1235352,-0.3618164,0.04882813
4863,17.75,24.3125,-1.75,-0.7114258,0.921875,-0.07861328,0.125,-0.3618164,0.04980469
4867,31.5,14.625,3,-0.699707,0.8867188,-0.07470703,0.1259766,-0.3632813,0.05419922
4871,48,6.1875,4.4375,-0.6303711,0.8520508,-0.0859375,0.1259766,-0.3657227,0.05957031
4875,67.375,3.25,3.4375,-0.5874023,0.8828125,-0.1591797,0.1269531,-0.3632813,0.06347656
4879,81.5,-4,-1.9375,-0.6342773,1.015137,-0.3012695,0.128418,-0.3642578,0.07177734
4883,82.3125,-14.4375,-9.6875,-0.5874023,1.084961,-0.3632813,0.1293945,-0.3632813,0.08105469
4887,66.125,-21,-14.5625,-0.5605469,1.100586,-0.3745117,0.1318359,-0.3618164,0.08544922
4891,50.9375,-24.1875,-14,-0.5141602,0.9916992,-0.3554688,0.1342773,-0.3618164,0.09326172
4895,42.875,-27.25,-13.75,-0.5063477,0.8984375,-0.3706055,0.1391602,-0.3603516,0.09765625
4899,37.125,-31.8125,-16.25,-0.5063477,0.8710938,-0.3554688,0.1391602,-0.3632813,0.1015625
4903,27.4375,-34.9375,-18.75,-0.4326172,0.855957,-0.2783203,0.1450195,-0.3618164,0.1069336
4907,18.1875,-29.1875,-22.625,-0.3242188,0.793457,-0.1743164,0.1484375,-0.3618164,0.1083984
4911,8.3125,-17.8125,-27.0625,-0.2851563,0.7587891,-0.1435547,0.1523438,-0.3642578,0.1098633
4915,-0.8125,-10,-30.6875,-0.3085938,0.6884766,-0.1401367,0.1557617,-0.3666992,0.1123047
4919,-2.1875,-3.75,-31.125,-0.3935547,0.6069336,-0.109375,0.1616211,-0.3657227,0.1137695
4923,4.125,-2,-32.625,-0.5605469,0.5527344,-0.1401367,0.1650391,-0.3666992,0.1152344
4927,14.5,-16.375,-24.625,-0.6186523,0.4321289,-0.2089844,0.1689453,-0.3681641,0.1181641
4931,26.5625,-32.75,-15.25,-0.5527344,0.4438477,-0.2089844,0.1738281,-0.3666992,0.1220703
4935,29.4375,-37.0625,-12.6875,-0.4208984,0.5292969,-0.1938477,0.1772461,-0.3681641,0.125
4939,26.875,-33,-10.8125,-0.362793,0.6108398,-0.1323242,0.1806641,-0.3666992,0.1259766
4943,16.25,-21.8125,-14.9375,-0.3510742,0.6962891,-0.2246094,0.1879883,-0.3681641,0.1303711
4947,1.9375,-18.3125,-19.875,-0.4130859,0.7197266,-0.2475586,0.1889648,-0.3666992,0.1313477
4951,-11.1875,-18.1875,-20.125,-0.362793,0.5952148,-0.1669922,0.1928711,-0.3681641,0.1313477
4955,-9,-13.5625,-23.25,-0.3125,0.4907227,-0.109375,0.1962891,-0.3706055,0.1313477
4959,4.1875,-7.0625,-30.375,-0.4248047,0.5253906,-0.1669922,0.1987305,-0.3730469,0.1328125
4963,22.0625,-8.375,-36.25,-0.796875,0.6303711,-0.3901367,0.2045898,-0.3745117,0.1357422
4967,19.5625,-33.0625,-24.75,-0.8354492,0.7392578,-0.4438477,0.2104492,-0.3691406,0.137207
4971,10.25,-39.6875,-8,-0.5371094,0.6538086,-0.2631836,0.2128906,-0.3706055,0.1381836
4975,-6.8125,-25.4375,0.125,-0.362793,0.6962891,-0.1630859,0.2177734,-0.3754883,0.1381836
4980,-19.6875,-9,-5.9375,-0.3549805,0.7197266,-0.109375,0.2202148,-0.3779297,0.1381836
4984,-15.4375,0.6875,-20.625,-0.6264648,0.7080078,-0.2514648,0.2211914,-0.3779297,0.137207
4988,-18.0625,-16.25,-13.1875,-0.831543,0.6655273,-0.3325195,0.2260742,-0.3803711,0.1357422
4992,-28,-26.5625,12.9375,-0.6147461,0.5019531,-0.1899414,0.2285156,-0.3842773,0.1313477
4996,-36.4375,-11.6875,40.4375,-0.4287109,0.5371094,-0.04003906,0.2285156,-0.3881836,0.1328125
5000,-47.0625,11.25,67.125,-0.5024414,0.5913086,-0.08984375,0.2270508,-0.3945313,0.1259766
5004,-44.1875,21.3125,64.625,-0.5332031,0.6420898,-0.1015625,0.21875,-0.4042969,0.1235352
5008,-7.9375,5.625,28.125,-0.7504883,0.6694336,-0.34375,0.2163086,-0.4082031,0.1235352
5012,3.25,-31.3125,30.6875,-0.7426758,0.7080078,-0.324707,0.215332,-0.4155273,0.1235352
5016,-11.6875,-37.5625,50.6875,-0.3085938,0.6884766,-0.04003906,0.2104492,-0.4204102,0.1206055
5020,-27.0625,-4.3125,51.9375,-0.06445313,0.7509766,0.1635742,0.2104492,-0.4267578,0.1166992
5024,-28.9375,30.8125,31.4375,-0.246582,0.7705078,0.1904297,0.2045898,-0.4306641,0.1123047
5028,-6.4375,41.25,20.875,-0.4750977,0.7509766,-0.02050781,0.199707,-0.434082,0.1137695
5032,-6.75,20.875,22.0625,-0.5332031,0.7509766,-0.03222656,0.1972656,-0.4370117,0.1137695
5036,-2.5625,10.9375,17.625,-0.3666992,0.7353516,0.02490234,0.1914063,-0.4355469,0.1152344
5040,0.75,16.625,9.25,-0.2504883,0.7626953,0.08642578,0.1889648,-0.4355469,0.1152344
5044,4.4375,31.125,-0.0625,-0.362793,0.7353516,0.02880859,0.1889648,-0.434082,0.1166992
5048,9.4375,35.6875,-0.3125,-0.4985352,0.7158203,-0.06689453,0.184082,-0.434082,0.1191406
5052,17,27.1875,4.125,-0.5332031,0.7001953,-0.1474609,0.1796875,-0.4282227,0.1206055
5056,25.375,19.1875,9.1875,-0.4633789,0.7001953,-0.1821289,0.1821289,-0.4257813,0.125
5060,29.75,20.8125,7.6875,-0.4443359,0.8129883,-0.2016602,0.1772461,-0.4228516,0.1303711
5064,26.0625,20.3125,7.875,-0.4868164,0.8442383,-0.2397461,0.1748047,-0.4179688,0.1342773
5068,17.875,19.25,12.9375,-0.4594727,0.8051758,-0.2128906,0.1723633,-0.4140625,0.1342773
5072,13.3125,18.375,16.9375,-0.3974609,0.7739258,-0.1782227,0.1689453,-0.4106445,0.137207
5076,11.375,20.125,19.4375,-0.3354492,0.7431641,-0.1362305,0.1630859,-0.4091797,0.1381836
5080,7.5625,23.125,18.3125,-0.296875,0.7739258,-0.0859375,0.1616211,-0.4067383,0.1396484
5084,3.75,30.625,13.4375,-0.2661133,0.7314453,-0.02832031,0.1567383,-0.4067383,0.1396484
5088,8.75,43.5,11.5,-0.2890625,0.6577148,-0.1362305,0.1523438,-0.402832,0.1411133
5092,14.8125,50.3125,16.9375,-0.3935547,0.7817383,-0.2783203,0.1484375,-0.4003906,0.1411133
5096,1,43.1875,25.3125,-0.4248047,0.8671875,-0.3706055,0.144043,-0.3955078,0.144043
5100,-16.75,39.875,34.3125,-0.3510742,0.875,-0.3051758,0.1376953,-0.3945313,0.144043
5104,-27.125,47,34.6875,-0.328125,0.7509766,-0.2285156,0.1333008,-0.3945313,0.1425781
5109,-18.625,48.3125,32.5,-0.3823242,0.6186523,-0.2436523,0.125,-0.3955078,0.1396484
5113,4.375,38.125,31.25,-0.4169922,0.6030273,-0.3129883,0.1201172,-0.3930664,0.137207
5117,27.9375,20.5625,31,-0.4711914,0.6962891,-0.4208984,0.1166992,-0.3930664,0.137207
5121,30.875,3.125,27.8125,-0.3935547,0.8710938,-0.34375,0.1118164,-0.3891602,0.1411133
5125,22,4.1875,24.8125,-0.2929688,0.9101563,-0.2514648,0.109375,-0.3867188,0.1411133
5129,9,15.25,24.6875,-0.2700195,0.8598633,-0.1708984,0.1079102,-0.3842773,0.1411133
5133,5.0625,22.75,26.6875,-0.328125,0.809082,-0.2055664,0.1035156,-0.3818359,0.1411133
5137,8.0625,16.25,31.1875,-0.362793,0.7895508,-0.2397461,0.09863281,-0.3779297,0.1396484
5141,17.5625,9.6875,25.875,-0.296875,0.824707,-0.2705078,0.09521484,-0.3769531,0.1411133
5145,31.0625,4.6875,15.375,-0.3510742,0.9257813,-0.3901367,0.09375,-0.3745117,0.1396484
5149,30.5,-1.3125,9.9375,-0.3549805,1.053711,-0.4208984,0.09130859,-0.371582,0.1425781
5153,10,1.5,11.25,-0.3046875,1.049805,-0.3554688,0.09033203,-0.3706055,0.1425781
5157,-7.9375,5.9375,12.625,-0.2851563,1.003418,-0.2900391,0.09033203,-0.3681641,0.1425781
5161,-17.25,17.125,12.375,-0.2773438,0.987793,-0.1821289,0.08691406,-0.3681641,0.1396484
5165,-18.5625,30.9375,12.5625,-0.4169922,0.90625,-0.2397461,0.08300781,-0.3706055,0.1396484
5169,-8.625,29.875,13.5,-0.5175781,0.8867188,-0.359375,0.08203125,-0.3691406,0.137207
5173,4.25,13.1875,12.25,-0.5253906,0.8710938,-0.4169922,0.07861328,-0.3657227,0.1342773
5177,13.4375,-2.6875,7,-0.4326172,0.9492188,-0.3706055,0.07861328,-0.3642578,0.137207
5181,12.5625,-3.25,2.1875,-0.362793,0.9838867,-0.3051758,0.07714844,-0.3642578,0.137207
5185,3.625,6.25,3.4375,-0.3666992,1.019043,-0.2861328,0.07714844,-0.3632813,0.137207
5189,-4.75,14.6875,5.75,-0.4013672,0.972168,-0.3168945,0.07861328,-0.359375,0.137207
5193,-4.9375,12.5625,7.125,-0.4013672,0.9101563,-0.3129883,0.07470703,-0.359375,0.1357422
5197,0.875,9.125,3.875,-0.3706055,0.9023438,-0.3325195,0.07470703,-0.359375,0.1357422
5201,6.75,2.0625,-4.3125,-0.4013672,0.8945313,-0.3706055,0.07373047,-0.3569336,0.1342773
5205,10.1875,-3.625,-8.0625,-0.4052734,0.8984375,-0.3706055,0.07470703,-0.3544922,0.1357422
5209,6.5,-6.8125,-7.3125,-0.4208984,0.9140625,-0.3823242,0.07617188,-0.3530273,0.137207
5213,1.1875,-9.8125,-2.6875,-0.4248047,0.9101563,-0.3632813,0.07617188,-0.3530273,0.1342773
5217,-5.25,-9.4375,2.4375,-0.3862305,0.875,-0.34375,0.07714844,-0.3505859,0.1328125
5221,-8.6875,-7.8125,4.0625,-0.3666992,0.8598633,-0.3476563,0.07714844,-0.3491211,0.1342773
5225,-7.875,-9.75,-2.0625,-0.3354492,0.8442383,-0.3515625,0.07617188,-0.3491211,0.1313477
5229,-1.9375,-7.8125,-13.875,-0.3432617,0.8286133,-0.3359375,0.07617188,-0.3491211,0.1313477
5233,-0.25,-4.5,-19.9375,-0.362793,0.809082,-0.3706055,0.07958984,-0.3481445,0.1289063
5238,-3.625,-5.875,-19.875,-0.4052734,0.777832,-0.4321289,0.07958984,-0.3466797,0.1303711
5242,-7.1875,-12.625,-17.5,-0.4013672,0.7705078,-0.4746094,0.08056641,-0.3466797,0.1289063
5246,-6.75,-21.125,-26.8125,-0.4443359,0.8442383,-0.4936523,0.08300781,-0.3432617,0.1259766
5250,-10,-21.4375,-31.4375,-0.3901367,0.824707,-0.4399414,0.08691406,-0.3417969,0.125
5254,-22.875,-5.6875,-28.4375,-0.3432617,0.8364258,-0.3745117,0.08789063,-0.3408203,0.1220703
5258,-34.5,8.9375,-25.5,-0.3935547,0.8364258,-0.4013672,0.09033203,-0.3432617,0.1191406
5262,-43.5625,15,-25.875,-0.4711914,0.855957,-0.4594727,0.09375,-0.3408203,0.1181641
5266,-46.4375,10.625,-25.5,-0.5527344,0.8208008,-0.4785156,0.09521484,-0.3393555,0.1137695
5270,-38.375,-1.25,-24.1875,-0.6186523,0.7197266,-0.4555664,0.09521484,-0.3393555,0.1098633
5274,-24.3125,-18.1875,-16.6875,-0.6611328,0.7080078,-0.4594727,0.09619141,-0.3408203,0.1083984
5278,-30.4375,-34.9375,2.25,-0.6728516,0.9335938,-0.394043,0.09863281,-0.3408203,0.1030273
5282,-35.875,-38.0625,10.5625,-0.4555664,0.987793,-0.2285156,0.1010742,-0.3417969,0.09912109
5286,-36.8125,-29.9375,4.6875,-0.4750977,1.088867,-0.1899414,0.09765625,-0.3417969,0.09472656
5290,-35.8125,-29,-2.1875,-0.4790039,1.104492,-0.1782227,0.09863281,-0.3442383,0.08935547
5294,-29.0625,-29.5625,-4.4375,-0.4946289,1.01123,-0.1513672,0.09960938,-0.3417969,0.08691406
5298,-17.875,-28.0625,-4.125,-0.5063477,1.088867,-0.1513672,0.09960938,-0.3442383,0.08398438
5302,-15.75,-27.875,-2.375,-0.5063477,1.236328,-0.1743164,0.09960938,-0.3466797,0.08007813
5306,-21.3125,-24.5625,-3.25,-0.4946289,1.302734,-0.1669922,0.1020508,-0.3442383,0.07861328
5310,-25.8125,-21.375,-6.4375,-0.4521484,1.263672,-0.112793,0.1020508,-0.3442383,0.07421875
5314,-19.8125,-15.3125,-14.625,-0.4443359,1.182129,-0.07080078,0.1010742,-0.3442383,0.07324219
5318,-3.75,-10.125,-23.375,-0.4555664,1.131836,-0.07470703,0.1044922,-0.3432617,0.0703125
5322,2.25,0,-29,-0.4711914,1.166504,-0.09765625,0.1079102,-0.3432617,0.0703125
5326,2.6875,6.5,-29.8125,-0.5253906,1.150879,-0.1552734,0.1103516,-0.3442383,0.07177734
5330,5.0625,8,-28.375,-0.5874023,1.108398,-0.2016602,0.112793,-0.3408203,0.07177734
5334,6.25,6.5,-25.6875,-0.6225586,1.084961,-0.2128906,0.1152344,-0.3393555,0.0703125
5338,9.125,5.3125,-22.5,-0.6147461,1.049805,-0.2016602,0.1166992,-0.3369141,0.07324219
5342,12.25,7.8125,-21.9375,-0.5722656,1.019043,-0.1860352,0.1201172,-0.3369141,0.07568359
5346,16.875,12.625,-26.3125,-0.5874023,1.019043,-0.2167969,0.1186523,-0.3378906,0.07421875
5350,20.1875,12.125,-32.0625,-0.6376953,1.019043,-0.2861328,0.1210938,-0.3354492,0.07861328
5354,22.5625,8.875,-32.875,-0.6923828,0.9682617,-0.3168945,0.125,-0.3320313,0.08007813
5358,19.9375,7.9375,-22.8125,-0.7387695,0.9414063,-0.3359375,0.125,-0.3354492,0.08105469
