Packet number,Gyroscope X (deg/s),Gyroscope Y (deg/s),Gyroscope Z (deg/s),Accelerometer X (g),Accelerometer Y (g),Accelerometer Z (g),Magnetometer X (G),Magnetometer Y (G),Magnetometer Z (G)
0,-1.125,-10.0625,-0.0625,-0.1342773,-1.032227,-0.2324219,0.08886719,0.2651367,0.08251953
4,-2.8125,-8,0.25,-0.09521484,-1.062988,-0.2592773,0.08886719,0.2685547,0.08105469
8,-3.3125,0,1.4375,-0.1147461,-1.109863,-0.2592773,0.08886719,0.2661133,0.08251953
12,-4.875,7.3125,3.875,-0.1611328,-1.140625,-0.2631836,0.09033203,0.2636719,0.08251953
16,-8.0625,14.5625,4.375,-0.2231445,-1.214844,-0.2744141,0.09033203,0.2651367,0.08398438
20,-11.4375,18.75,4,-0.28125,-1.253418,-0.2631836,0.09033203,0.2651367,0.08398438
24,-18.4375,19.25,-1.1875,-0.3706055,-1.237793,-0.2705078,0.08886719,0.2661133,0.08691406
28,-24.5625,12.9375,-7.4375,-0.4013672,-1.26123,-0.2705078,0.09277344,0.2651367,0.08691406
33,-28.5,4.1875,-14.375,-0.4052734,-1.253418,-0.3051758,0.09033203,0.2651367,0.09228516
37,-29.5625,-6.625,-15.5625,-0.3666992,-1.300293,-0.3398438,0.08886719,0.2661133,0.09472656
41,-24.4375,-18.125,-13.0625,-0.3242188,-1.284668,-0.3476563,0.08886719,0.2675781,0.09472656
45,-21.4375,-25.75,-11.5,-0.2270508,-1.195313,-0.3208008,0.08886719,0.2675781,0.09765625
49,-24.5625,-21.0625,-15.75,-0.1225586,-1.05127,-0.2631836,0.08886719,0.2700195,0.09912109
53,-31.1875,-9.25,-21.6875,-0.08789063,-1.024414,-0.2514648,0.08789063,0.2685547,0.1030273
57,-31.3125,-0.5,-24.375,-0.09521484,-1.036133,-0.2553711,0.08544922,0.2709961,0.1044922
61,-30.8125,-2.6875,-21.4375,-0.1342773,-1.086426,-0.2861328,0.08447266,0.2724609,0.1069336
65,-23.1875,-11.25,-13.1875,-0.1381836,-1.214844,-0.3666992,0.08203125,0.2700195,0.1113281
69,-11.25,-15.875,-0.5625,-0.1303711,-1.265137,-0.378418,0.08203125,0.2709961,0.1123047
73,-4.5625,-17.8125,8.25,-0.1499023,-1.171875,-0.359375,0.08300781,0.2739258,0.1123047
77,-8.5625,-6.8125,-1,-0.07226563,-1.059082,-0.2978516,0.08203125,0.2739258,0.1123047
81,-21.75,17.1875,-16.375,-0.03320313,-1.148438,-0.3706055,0.08300781,0.2773438,0.1181641
85,-20.375,38.4375,-22.625,-0.01806641,-1.284668,-0.4707031,0.07861328,0.2788086,0.1191406
89,-10.9375,52,-20.4375,-0.1225586,-1.354492,-0.5322266,0.07958984,0.2797852,0.1235352
93,2.6875,43.8125,-10.625,-0.215332,-1.432129,-0.6054688,0.07617188,0.2836914,0.1274414
97,25.5625,28.3125,-2.875,-0.2348633,-1.338867,-0.559082,0.07373047,0.2861328,0.1289063
101,34.1875,22.375,-16.8125,-0.1225586,-1.024414,-0.4594727,0.07373047,0.2900391,0.1274414
105,35.125,41.5625,-35.0625,0.1132813,-1.066895,-0.4248047,0.06884766,0.2963867,0.1274414
109,51.1875,69.4375,-39.875,0.1557617,-1.102051,-0.394043,0.06298828,0.3012695,0.1259766
113,66,84.25,-40.5625,0.1132813,-1.070801,-0.4667969,0.05810547,0.3061523,0.125
117,83.0625,82.125,-30.5,0.02050781,-1.05127,-0.4399414,0.04980469,0.3134766,0.1191406
121,88.1875,57.375,-9.4375,-0.1108398,-0.8300781,-0.34375,0.04492188,0.3212891,0.1137695
125,75.0625,35.0625,-20.3125,-0.1342773,-0.6708984,-0.1821289,0.04052734,0.3286133,0.1083984
129,58.25,29.375,-44.125,-0.09521484,-0.7250977,-0.1474609,0.03564453,0.3359375,0.1030273
133,52.3125,25.5625,-58.6875,-0.02978516,-0.8183594,-0.2939453,0.02978516,0.347168,0.09912109
137,56.0625,36.1875,-58.75,0.109375,-1.148438,-0.559082,0.0234375,0.3500977,0.09472656
141,80.5625,51.4375,-48.5,0.1831055,-1.210938,-0.6748047,0.01416016,0.3588867,0.08691406
145,116,49.375,-21.3125,0.0009765625,-1.160156,-0.6401367,0.006835938,0.3671875,0.07714844
149,141.625,23.5,-6.6875,-0.08789063,-0.7290039,-0.4013672,0.004394531,0.3735352,0.06494141
153,143.0625,1.25,-15.625,-0.02197266,-0.4179688,-0.1821289,0.004394531,0.3847656,0.04882813
157,141.1875,-0.875,-25.125,0.1791992,-0.3793945,-0.005371094,0,0.3950195,0.02294922
162,144,24.6875,-11.4375,0.4814453,-0.4067383,0.1171875,0,0.3999023,0.01074219
166,147.6875,56.875,18.875,0.4580078,-0.3364258,0.1748047,0.0009765625,0.4038086,-0.009277344
170,144.8125,80.75,50.625,0.3378906,-0.3481445,0.2749023,0.008300781,0.40625,-0.03369141
174,138.625,89.5625,67.0625,0.159668,-0.1928711,0.355957,0.01416016,0.4072266,-0.04638672
178,119.875,96.375,73.9375,0.04345703,-0.07226563,0.4672852,0.02734375,0.4047852,-0.06787109
182,86.875,107.9375,66.5,-0.08007813,-0.1191406,0.5058594,0.0390625,0.4013672,-0.08154297
186,53.8125,102.75,52.5625,-0.4013672,-0.2314453,0.5522461,0.04736328,0.3984375,-0.08984375
190,28.4375,62.25,32,-0.6069336,-0.4765625,0.5019531,0.05957031,0.3959961,-0.09667969
194,16.625,13.75,29.1875,-0.4946289,-0.6669922,0.4365234,0.06152344,0.3935547,-0.09765625
198,10.4375,-7.5,28.625,-0.262207,-0.7329102,0.375,0.06396484,0.3925781,-0.09912109
202,-1.6875,-12.25,25.3125,-0.1806641,-0.6748047,0.3291016,0.06982422,0.3925781,-0.09912109
206,-16.4375,-6.5,18.25,-0.1069336,-0.7602539,0.3017578,0.07226563,0.3896484,-0.1020508
210,-24,3.9375,15.5625,-0.1303711,-0.8339844,0.2827148,0.07373047,0.3886719,-0.09765625
214,-28.9375,7.875,13.5,-0.1728516,-0.8222656,0.2480469,0.07617188,0.3896484,-0.09521484
218,-32.1875,12.75,14.9375,-0.1728516,-0.8261719,0.2519531,0.07861328,0.3896484,-0.09082031
222,-39.1875,12.1875,15.3125,-0.2661133,-0.7792969,0.2788086,0.08203125,0.3886719,-0.08544922
226,-47.3125,5.875,14.0625,-0.3164063,-0.7792969,0.2983398,0.08056641,0.3896484,-0.08007813
230,-51.5,0.75,9.875,-0.3354492,-0.7172852,0.2905273,0.08300781,0.3911133,-0.07177734
234,-56.9375,-3.375,3.8125,-0.3354492,-0.6474609,0.2441406,0.08447266,0.3911133,-0.06640625
238,-65.5625,-17.125,-2.1875,-0.3901367,-0.5463867,0.2211914,0.08203125,0.3925781,-0.05712891
242,-74.125,-36.25,-3.75,-0.3666992,-0.6513672,0.144043,0.08056641,0.3911133,-0.05175781
246,-71.625,-50.5625,-4.4375,-0.3007813,-0.6860352,0.1020508,0.07958984,0.3911133,-0.04199219
250,-73,-58.0625,-7.0625,-0.1962891,-0.7485352,-0.009277344,0.07861328,0.3911133,-0.03271484
254,-64.3125,-52.375,-1.8125,0.02441406,-0.8261719,-0.03222656,0.07617188,0.3896484,-0.02148438
258,-60.8125,-31,5.0625,0.09375,-0.6787109,-0.001464844,0.07373047,0.387207,-0.01757813
262,-68.6875,-12,7.5,-0.01025391,-0.5893555,0.07519531,0.07226563,0.3862305,-0.008300781
266,-73.375,-3.25,8.875,-0.1225586,-0.7753906,0.07519531,0.07373047,0.3823242,0
270,-68.625,-9.3125,3.0625,-0.2231445,-0.8999023,-0.06298828,0.07226563,0.3798828,0.01074219
274,-55,-26.5,2.5625,-0.2270508,-1.008789,-0.1743164,0.07373047,0.375,0.01708984
278,-32.8125,-28.0625,-1.25,-0.05273438,-0.9350586,-0.1669922,0.07226563,0.3725586,0.02392578
282,-24.125,-6.25,-12.625,-0.01806641,-0.8183594,-0.07080078,0.07373047,0.3701172,0.02685547
286,-26.875,10,-30.875,-0.1459961,-0.8417969,-0.005371094,0.07128906,0.3647461,0.03076172
291,-21,3.6875,-44.8125,-0.1923828,-0.9970703,-0.02832031,0.06542969,0.3623047,0.03369141
295,-8.125,-13.5,-43.5,-0.1689453,-0.9541016,-0.05126953,0.06298828,0.3598633,0.03613281
299,-4.625,-27.125,-22.5625,-0.1030273,-0.8842773,-0.08984375,0.05810547,0.3588867,0.03759766
303,-10.25,-30.75,4.0625,-0.006347656,-0.9077148,-0.08203125,0.05810547,0.3535156,0.03759766
307,-15.625,-20.0625,10.9375,0.05126953,-1.02832,-0.05908203,0.05712891,0.3525391,0.03613281
311,-14.375,-2.6875,13.3125,0.07080078,-1.098145,-0.01318359,0.05810547,0.3461914,0.0390625
315,-13.875,10.5,21.9375,0.0009765625,-1.004883,0.05566406,0.06298828,0.34375,0.04199219
319,-21.75,16.9375,24.5625,-0.1069336,-0.9389648,0.05175781,0.06054688,0.3422852,0.04199219
323,-25.625,18,26.6875,-0.1689453,-0.9467773,0.01367188,0.06298828,0.3349609,0.04589844
327,-29.1875,12.25,32.9375,-0.1962891,-1.094238,-0.07861328,0.06640625,0.3334961,0.04882813
331,-19.9375,6.6875,40.9375,-0.1767578,-1.117676,-0.112793,0.06787109,0.3300781,0.05126953
335,-13.625,9.0625,38.8125,-0.1884766,-0.9853516,-0.05908203,0.07226563,0.3261719,0.05126953
339,-13.625,15.75,25.3125,-0.230957,-0.9233398,-0.04736328,0.07470703,0.3222656,0.05273438
343,-11.8125,13.875,18.5,-0.2583008,-0.9619141,-0.01660156,0.07861328,0.3188477,0.05419922
347,-13.9375,6.5625,19.5625,-0.2504883,-0.9658203,0.02880859,0.07861328,0.3164063,0.05810547
351,-21,-1.5625,18.0625,-0.2192383,-0.9619141,0.07910156,0.08056641,0.3134766,0.05810547
355,-24.6875,-3.5,14.1875,-0.1767578,-1.020508,0.04785156,0.08203125,0.3110352,0.06103516
359,-19.5625,-8.5,12.5625,-0.215332,-1.070801,-0.02050781,0.08203125,0.3046875,0.06201172
363,-12.375,-21.875,12.1875,-0.1962891,-1.02832,-0.0859375,0.08300781,0.3037109,0.06201172
367,-11.4375,-34.6875,13.5,-0.1030273,-1.086426,-0.1323242,0.08447266,0.3022461,0.06347656
371,-8.8125,-38.5625,20.4375,-0.02197266,-1.066895,-0.1245117,0.08447266,0.2988281,0.06494141
375,-8.6875,-31.1875,18.5625,0.0009765625,-1.024414,-0.112793,0.08691406,0.2949219,0.06201172
379,-8.1875,-17.0625,11.6875,-0.02197266,-1.08252,-0.1899414,0.08789063,0.293457,0.06201172
383,-4.25,-7.75,9.0625,-0.1147461,-1.059082,-0.1743164,0.08544922,0.2910156,0.06201172
387,-4.875,-13.6875,3.25,-0.2119141,-1.08252,-0.1743164,0.08886719,0.2885742,0.06347656
391,0,-30.9375,6.75,-0.215332,-1.020508,-0.1245117,0.08544922,0.2861328,0.06494141
395,-3.25,-40.375,8.75,-0.09912109,-0.9970703,-0.1166992,0.08691406,0.2822266,0.06201172
399,5.0625,-34.5,15.9375,0.0009765625,-1.074707,-0.109375,0.08789063,0.2851563,0.06347656
403,37.3125,-15.8125,35.875,0.1445313,-0.7368164,0.1210938,0.09033203,0.28125,0.05810547
407,-5.125,24.125,5.25,-0.01025391,-0.7988281,0.144043,0.09375,0.2788086,0.05810547
411,-3.0625,34.875,3.25,-0.1689453,-1.070801,0.001953125,0.09130859,0.2788086,0.05810547
415,0.9375,22.3125,15.4375,-0.2929688,-1.055176,-0.05126953,0.09130859,0.2763672,0.05810547
420,1.875,9.3125,19.3125,-0.3007813,-1.086426,-0.1015625,0.09130859,0.2724609,0.06103516
424,-1.0625,3.3125,14.6875,-0.3393555,-1.059082,-0.1206055,0.09277344,0.2739258,0.05957031
428,-5.8125,-2.1875,3.0625,-0.3706055,-1.148438,-0.1401367,0.09375,0.2709961,0.05957031
432,-7.4375,-9.625,-6,-0.347168,-1.284668,-0.2055664,0.09277344,0.2709961,0.05957031
436,-7.6875,-10.1875,-7.4375,-0.1689453,-1.334961,-0.2592773,0.09130859,0.2700195,0.06103516
440,-4.25,2.625,-5,-0.08789063,-1.408691,-0.3325195,0.08886719,0.2700195,0.06201172
444,-2,13.75,1.8125,-0.1499023,-1.304199,-0.3515625,0.08789063,0.2685547,0.06347656
448,-1.0625,13.4375,8,-0.2543945,-1.312012,-0.3398438,0.08789063,0.2675781,0.06347656
452,-6.75,10.4375,5.625,-0.3085938,-1.237793,-0.2939453,0.08544922,0.2661133,0.06494141
456,-11.75,6.5,4.875,-0.3354492,-1.29248,-0.2631836,0.08691406,0.2661133,0.06494141
460,-14.875,3.5,8.25,-0.2890625,-1.300293,-0.2553711,0.08691406,0.2651367,0.06640625
464,-14.1875,8.5625,11.1875,-0.230957,-1.26123,-0.2705078,0.08789063,0.2636719,0.06884766
468,-14.0625,16.9375,11.3125,-0.2504883,-1.160156,-0.2705078,0.08691406,0.2661133,0.06787109
472,-16.25,18.8125,6.1875,-0.3125,-1.195313,-0.2670898,0.08789063,0.2651367,0.07177734
476,-12.8125,9,8.5,-0.3432617,-1.222656,-0.2592773,0.08886719,0.262207,0.0703125
480,-10.9375,0,9.9375,-0.3242188,-1.199219,-0.2324219,0.09130859,0.262207,0.07421875
484,-14.6875,0.8125,3.6875,-0.3046875,-1.195313,-0.1938477,0.09033203,0.262207,0.07568359
488,-20.875,6,-5.375,-0.328125,-1.222656,-0.1977539,0.09130859,0.2612305,0.07324219
492,-26.5625,7.625,-8,-0.3007813,-1.288574,-0.1938477,0.09130859,0.262207,0.07861328
496,-31.4375,11.125,-9.75,-0.3046875,-1.331055,-0.2167969,0.08886719,0.2612305,0.08007813
500,-42.25,12.8125,-10.5625,-0.328125,-1.29248,-0.2397461,0.09033203,0.2636719,0.08398438
504,-44.9375,11,-10.0625,-0.3706055,-1.393555,-0.3129883,0.08886719,0.262207,0.08789063
508,-40.9375,2.5625,-5.0625,-0.3974609,-1.408691,-0.34375,0.08886719,0.2597656,0.09228516
512,-33.1875,-6.375,2.875,-0.3510742,-1.424316,-0.3666992,0.08691406,0.2612305,0.09326172
516,-31,-6.3125,1.875,-0.2851563,-1.199219,-0.2939453,0.08789063,0.2612305,0.09619141
520,-46.4375,3.875,-15.6875,-0.2543945,-1.090332,-0.2939453,0.08886719,0.262207,0.1000977
524,-50.0625,10.3125,-28,-0.2773438,-1.22998,-0.3168945,0.08789063,0.262207,0.1030273
528,-46.5625,7.8125,-28.25,-0.262207,-1.319336,-0.3745117,0.08544922,0.2636719,0.1083984
532,-38.875,-8.875,-9,-0.2231445,-1.405273,-0.378418,0.08300781,0.2651367,0.1137695
536,-29.6875,-25.375,11.5,-0.1069336,-1.257324,-0.3325195,0.08789063,0.2651367,0.1166992
540,-43.625,-24.375,-1.5625,-0.09521484,-0.8920898,-0.2705078,0.08789063,0.2651367,0.1191406
544,-58.875,-21.3125,-23.25,-0.1533203,-1.090332,-0.324707,0.08886719,0.2661133,0.125
549,-44.75,-24.625,-15.0625,-0.03320313,-1.296387,-0.3823242,0.09130859,0.2661133,0.1289063
553,-20.5625,-18.5625,13.0625,0.1171875,-1.436035,-0.3862305,0.09130859,0.2675781,0.1342773
557,8.875,0.125,34.75,0.1367188,-1.094238,-0.2822266,0.09619141,0.2700195,0.1342773
561,-5.75,26.125,19.125,0.004882813,-0.7446289,-0.2207031,0.09619141,0.2700195,0.1328125
565,-4.625,35.125,5.3125,-0.2700195,-1.020508,-0.309082,0.09863281,0.2724609,0.1381836
569,-1.5,28,-13.0625,-0.4208984,-0.7871094,-0.2822266,0.09765625,0.2788086,0.1396484
573,-6,19.75,-22.875,-0.3666992,-1.117676,-0.3862305,0.09375,0.2797852,0.144043
577,22.625,19.1875,-1.3125,-0.2001953,-1.210938,-0.3974609,0.09375,0.28125,0.1464844
581,46,34.25,14.25,-0.2080078,-0.8574219,-0.2861328,0.09277344,0.2885742,0.1464844
585,45.375,49.1875,1.6875,-0.347168,-0.6123047,-0.3051758,0.09033203,0.2910156,0.1450195
589,40.25,51.3125,-27.875,-0.5214844,-0.5385742,-0.1821289,0.09033203,0.2973633,0.1450195
593,32.875,36.125,-53.5,-0.5332031,-0.7133789,-0.2744141,0.08300781,0.3046875,0.1450195
597,61.4375,19.0625,-44.625,-0.3901367,-0.7719727,-0.2285156,0.07958984,0.3100586,0.1464844
601,73.125,-2.6875,-18.4375,-0.2426758,-0.9619141,-0.5209961,0.07470703,0.3212891,0.1411133
605,108.875,-10.5625,-3.375,-0.1108398,-0.7641602,-0.4746094,0.07470703,0.3300781,0.137207
609,93.8125,-3.3125,-26.25,-0.1069336,-0.09570313,-0.2285156,0.07470703,0.3398438,0.1289063
613,65.5625,2.625,-52.6875,-0.1381836,-0.4492188,-0.1435547,0.07128906,0.3500977,0.1235352
617,72.5625,4,-57.5,0.01660156,-0.7290039,-0.3012695,0.06298828,0.3613281,0.1137695
621,90.3125,7.1875,-33.375,0.08642578,-0.8261719,-0.3398438,0.05957031,0.3701172,0.1098633
625,103.625,8.4375,-9.6875,0.1518555,-0.8764648,-0.5322266,0.05712891,0.3823242,0.09912109
629,113.625,13.125,-7.4375,0.07080078,-0.6513672,-0.4594727,0.05566406,0.3925781,0.08398438
633,117.8125,14.9375,-8.75,0.04736328,-0.7250977,-0.3359375,0.05322266,0.3984375,0.07177734
637,121.125,15.625,-9.625,0.07861328,-0.6005859,-0.309082,0.0546875,0.4111328,0.05273438
641,130.875,26.375,1.3125,0.1171875,-0.7641602,-0.1708984,0.0546875,0.418457,0.03222656
645,143.125,37.3125,19.875,0.109375,-0.5424805,0.09423828,0.0546875,0.4223633,0.01464844
649,122.9375,58.0625,19.5,0.06689453,-0.2900391,0.2329102,0.06152344,0.4238281,-0.009277344
653,103.25,71.8125,15.0625,-0.1108398,-0.5112305,0.2827148,0.06542969,0.4223633,-0.02734375
657,95.875,67.5,18.9375,-0.3203125,-0.5229492,0.4018555,0.06982422,0.4223633,-0.03662109
661,75.6875,45.4375,14.125,-0.4404297,-0.4296875,0.5634766,0.07470703,0.418457,-0.05273438
665,51.5,24.25,3.75,-0.4750977,-0.5737305,0.5981445,0.07958984,0.4160156,-0.05957031
669,29.8125,-2.9375,-6.5625,-0.4404297,-0.5927734,0.5327148,0.08056641,0.4150391,-0.06542969
673,16.3125,-17.3125,-8.4375,-0.2348633,-0.8144531,0.4521484,0.08056641,0.4135742,-0.06933594
678,6.375,-19.5625,-4.375,-0.08789063,-0.7485352,0.409668,0.07958984,0.4150391,-0.07080078
682,-6,-12.5625,-0.4375,-0.04101563,-0.7094727,0.4326172,0.07958984,0.4125977,-0.07080078
686,-24.0625,-3.8125,2.125,0.0009765625,-0.8378906,0.3134766,0.07861328,0.4135742,-0.07080078
690,-26.5625,10,4.8125,-0.03320313,-0.9194336,0.2368164,0.07861328,0.4135742,-0.06542969
694,-29.3125,22.3125,4.1875,-0.05273438,-0.9853516,0.1210938,0.08056641,0.4111328,-0.06103516
698,-25.125,26,7.625,-0.1264648,-0.9697266,0.06347656,0.08300781,0.4135742,-0.05859375
702,-18.8125,26.1875,10.875,-0.2080078,-1.02832,0.07910156,0.08544922,0.4111328,-0.05419922
706,-16.4375,17.75,12.5625,-0.3007813,-0.9467773,0.1479492,0.08300781,0.4111328,-0.05175781
710,-18.0625,6.5,8.5625,-0.3706055,-0.8881836,0.1982422,0.08544922,0.4111328,-0.04882813
714,-24.4375,-1.6875,0.875,-0.347168,-0.8803711,0.1674805,0.08691406,0.4111328,-0.04492188
718,-22.875,-6.875,-5.625,-0.3164063,-0.9736328,0.08642578,0.08544922,0.4086914,-0.04345703
722,-19.625,-8.9375,-8.25,-0.2583008,-0.9428711,0.105957,0.08691406,0.4086914,-0.03808594
726,-19,-13.25,-8.5,-0.2543945,-0.9038086,0.1635742,0.08203125,0.4111328,-0.03662109
730,-22.625,-18.3125,-5.875,-0.215332,-0.8066406,0.2250977,0.08447266,0.409668,-0.03369141
734,-30.0625,-19.4375,-6.0625,-0.1728516,-0.8027344,0.1865234,0.08056641,0.4125977,-0.02978516
738,-33.6875,-19.0625,-10.625,-0.1728516,-0.8647461,0.06738281,0.07958984,0.4111328,-0.02734375
742,-28.125,-22.875,-13,-0.1689453,-0.8842773,0.02880859,0.07714844,0.4111328,-0.02148438
746,-27.375,-21.8125,-14.875,-0.1533203,-0.8339844,0.09033203,0.07470703,0.4125977,-0.01904297
750,-29.875,-26.75,-11.8125,-0.2231445,-0.7407227,0.2133789,0.07373047,0.4111328,-0.01074219
754,-40.25,-37.1875,-11.8125,-0.2504883,-0.6240234,0.2133789,0.07373047,0.4111328,-0.009277344
758,-50.125,-45.375,-16.4375,-0.1420898,-0.7524414,0.105957,0.06982422,0.4086914,-0.005371094
762,-50.75,-41.875,-14.8125,-0.03320313,-0.8261719,0.005859375,0.06787109,0.4072266,0.00390625
766,-48.5625,-30.9375,-12.625,-0.02587891,-0.7719727,0.02490234,0.06298828,0.40625,0.01074219
770,-50.6875,-26.75,-8.625,-0.09130859,-0.6552734,0.1020508,0.06054688,0.4023438,0.01855469
774,-58.4375,-27.25,-8.4375,-0.1264648,-0.6083984,0.1171875,0.06054688,0.3999023,0.02832031
778,-67.75,-30.625,-8.4375,-0.1459961,-0.6977539,0.03271484,0.05712891,0.3974609,0.03222656
782,-70.1875,-29.4375,-11.3125,-0.08789063,-0.8613281,-0.1977539,0.05712891,0.3911133,0.04052734
786,-57.9375,-27.375,-10.6875,-0.1108398,-0.9814453,-0.2783203,0.05322266,0.3837891,0.05126953
790,-46.4375,-30.875,-7.5625,-0.1499023,-0.8647461,-0.2363281,0.05322266,0.378418,0.05664063
794,-43.1875,-35.9375,-5,-0.1689453,-0.7368164,-0.09765625,0.05322266,0.375,0.06347656
798,-50.375,-29.75,-10.5,-0.06445313,-0.8457031,-0.09375,0.05322266,0.3701172,0.06640625
802,-47.625,-19.5,-10.5625,-0.04492188,-0.9506836,-0.1552734,0.0546875,0.3662109,0.0703125
807,-48.125,-14.1875,-13.5625,-0.06835938,-1.032227,-0.2744141,0.05224609,0.3623047,0.07568359
811,-34.8125,-18,-13.625,-0.1264648,-1.074707,-0.2783203,0.05078125,0.355957,0.08105469
815,-26.375,-28.3125,-11,-0.1381836,-0.8686523,-0.1782227,0.05078125,0.3510742,0.08398438
819,-25.9375,-33,-13.8125,-0.06835938,-0.8999023,-0.09375,0.05078125,0.3510742,0.08251953
823,-25.1875,-35,-8.5,-0.006347656,-0.9619141,-0.06689453,0.04980469,0.3422852,0.08544922
827,-26.125,-29.5,-1.375,0.1171875,-0.9931641,-0.08203125,0.04736328,0.3413086,0.08691406
831,-24.9375,-11.75,1.9375,0.140625,-0.9428711,-0.05908203,0.04980469,0.3388672,0.08789063
835,-26.625,5.0625,3.75,0.09033203,-0.8999023,-0.05126953,0.05078125,0.3334961,0.09082031
839,-22.6875,13.0625,5.5625,-0.01806641,-0.8764648,-0.08203125,0.04980469,0.3300781,0.08789063
843,-25.3125,18.375,-3.4375,-0.05664063,-0.8725586,-0.0859375,0.05078125,0.3261719,0.09326172
847,-20.8125,19.5625,-9.9375,-0.1030273,-1.070801,-0.128418,0.04882813,0.3222656,0.09472656
851,-16.6875,13.25,-3.6875,-0.1342773,-1.040039,-0.1206055,0.04736328,0.3198242,0.09619141
855,-17.875,7,0.3125,-0.1225586,-1.000977,-0.1474609,0.04736328,0.3173828,0.09619141
859,-14.6875,5.1875,0.4375,-0.1303711,-1.016602,-0.1860352,0.04638672,0.3134766,0.09765625
863,-11.75,-2.5625,4.3125,-0.1459961,-0.9389648,-0.2207031,0.04882813,0.3125,0.1000977
867,-11.0625,-6.3125,1.625,-0.07226563,-1.086426,-0.2744141,0.04882813,0.3085938,0.09912109
871,-7.25,-1.1875,0.375,-0.002441406,-1.074707,-0.2670898,0.04882813,0.3061523,0.09912109
875,-3.625,5.75,1.9375,-0.03320313,-1.148438,-0.2783203,0.04980469,0.3046875,0.09765625
879,1.875,8.125,-0.875,-0.1186523,-1.055176,-0.2822266,0.04882813,0.3022461,0.09912109
883,4.625,-1.25,-7.25,-0.1845703,-0.9814453,-0.2744141,0.04882813,0.3012695,0.09912109
887,6.9375,-16.75,-7.4375,-0.1069336,-0.9775391,-0.2553711,0.04638672,0.3012695,0.09912109
891,11.3125,-19.125,-4.3125,0.03564453,-1.032227,-0.2055664,0.04638672,0.2973633,0.09619141
895,12.8125,-9.3125,-2.8125,0.1171875,-1.012695,-0.1630859,0.04736328,0.2988281,0.09472656
899,15.6875,3.625,2.1875,0.109375,-0.9892578,-0.1323242,0.04492188,0.2949219,0.09326172
903,16.125,15.25,3.75,0.07861328,-0.9077148,-0.1245117,0.04492188,0.293457,0.08935547
907,15.9375,25.5625,-1.5,0.008789063,-0.9077148,-0.1435547,0.04492188,0.2924805,0.08691406
911,15.8125,25,-1.25,-0.05273438,-1.05127,-0.1630859,0.04248047,0.2910156,0.08691406
915,20.9375,16.9375,7.1875,-0.05273438,-1.070801,-0.1474609,0.04248047,0.2910156,0.08789063
919,22.4375,16.375,8.5625,-0.02978516,-1.102051,-0.1474609,0.04150391,0.2910156,0.08398438
923,26.5,19.375,20.25,0.01269531,-1.669434,-0.3706055,0.04150391,0.2900391,0.08398438
927,35.0625,34.6875,17.4375,-0.06445313,-0.6552734,-0.1899414,0.04492188,0.2875977,0.08007813
931,11.5,44.25,-10.9375,-0.1845703,-1.210938,-0.128418,0.04248047,0.2885742,0.07714844
936,17.75,24,-11.6875,-0.2387695,-1.393555,-0.2285156,0.04150391,0.2861328,0.07568359
940,22.5625,-5.5,-1.8125,-0.1728516,-1.374023,-0.2744141,0.03808594,0.2875977,0.07421875
944,24.875,-17.75,2.3125,-0.01806641,-1.37793,-0.2514648,0.04150391,0.2875977,0.07177734
948,20.0625,-14.5625,4.3125,0.06298828,-1.319336,-0.2363281,0.04150391,0.2836914,0.06884766
952,13.75,-0.0625,5.3125,0.08642578,-1.296387,-0.1977539,0.04052734,0.2861328,0.06640625
956,5.3125,12.3125,1.75,0.05126953,-1.29248,-0.1782227,0.04052734,0.2836914,0.06640625
960,1.875,22.375,4.75,0.02832031,-1.350586,-0.1977539,0.0390625,0.2836914,0.06494141
964,-1.125,26.875,9.6875,-0.05664063,-1.29248,-0.1899414,0.0390625,0.2836914,0.06494141
968,1.3125,24.5625,13.5625,-0.1533203,-1.358398,-0.2016602,0.04052734,0.2822266,0.06640625
972,-0.9375,10.125,12,-0.2270508,-1.191406,-0.1552734,0.0390625,0.2836914,0.06787109
976,-3.5,-5,7.3125,-0.2080078,-1.171875,-0.1245117,0.04150391,0.2836914,0.06884766
980,-7.625,-12.8125,4.8125,-0.1303711,-1.098145,-0.0859375,0.04150391,0.2836914,0.06884766
984,-14.8125,-8.4375,-1.875,-0.05273438,-1.066895,-0.08984375,0.04248047,0.2797852,0.06787109
988,-18.5,0.375,-6.0625,-0.04882813,-1.105957,-0.09765625,0.04052734,0.2822266,0.0703125
992,-19.4375,4.5625,-4.1875,-0.05273438,-1.129395,-0.1166992,0.04052734,0.28125,0.07177734
996,-17.125,5.375,-2.0625,-0.08007813,-1.136719,-0.1362305,0.04248047,0.2797852,0.07324219
1000,-18.1875,1.5625,-2.5625,-0.1069336,-1.098145,-0.1362305,0.04394531,0.28125,0.07421875
1004,-22.5,-8.375,-3.1875,-0.1499023,-1.086426,-0.1474609,0.04150391,0.28125,0.07714844
1008,-26.375,-16.0625,-6.8125,-0.1147461,-1.121582,-0.1630859,0.04394531,0.28125,0.07714844
1012,-27.5,-12.8125,-8.4375,-0.03320313,-1.183594,-0.1899414,0.04248047,0.28125,0.08251953
1016,-28.4375,2.5625,-11.5625,0.03173828,-1.245605,-0.2128906,0.04394531,0.28125,0.08251953
1020,-29.0625,19.9375,-12.3125,0.004882813,-1.272949,-0.2324219,0.04150391,0.2797852,0.08691406
1024,-27.625,28.625,-6.6875,-0.09130859,-1.408691,-0.2783203,0.0390625,0.28125,0.08789063
1028,-15.8125,20.0625,8.1875,-0.2348633,-1.541016,-0.3286133,0.03808594,0.2797852,0.09228516
1032,-13.8125,-0.5625,3.875,-0.3588867,-1.179688,-0.2592773,0.03662109,0.28125,0.09082031
1036,-38.5,-14.5625,-33.75,-0.3393555,-1.066895,-0.2553711,0.03808594,0.2822266,0.09472656
1040,-46.0625,-27.0625,-56.5625,-0.2543945,-1.315918,-0.3476563,0.03320313,0.2822266,0.1015625
1044,-37.125,-36.3125,-52,-0.06835938,-1.342773,-0.4052734,0.03076172,0.2822266,0.1000977
1048,-23.9375,-30.9375,-39.125,0.109375,-1.385742,-0.4438477,0.02734375,0.28125,0.105957
1052,-3.125,-22.5,-14.625,0.1674805,-1.405273,-0.4130859,0.02734375,0.2851563,0.1083984
1056,3.875,-16.6875,-6.1875,0.07470703,-0.9077148,-0.2514648,0.02587891,0.2875977,0.1083984
1060,-24.5625,-5,-31,0.01269531,-0.8613281,-0.1782227,0.02832031,0.2900391,0.1098633
1065,-28.6875,-1.875,-48.125,-0.04101563,-1.036133,-0.2128906,0.02148438,0.2900391,0.1137695
1069,-27.375,-4.1875,-47.9375,-0.01025391,-1.047363,-0.2324219,0.01904297,0.2900391,0.1137695
1073,-21.4375,-3.375,-39,0.05517578,-1.11377,-0.2705078,0.01513672,0.2924805,0.1166992
1077,-7.625,-3.0625,-18.625,0.06298828,-1.203125,-0.324707,0.01416016,0.2963867,0.1220703
1081,11.5,-0.5,-1.1875,0.07861328,-1.040039,-0.3012695,0.01074219,0.2963867,0.1235352
1085,-2.5625,12.9375,-20.6875,0.03173828,-0.6357422,-0.1860352,0.009277344,0.2988281,0.1206055
1089,-15.3125,15.25,-42.125,-0.09130859,-0.8803711,-0.1977539,0.005859375,0.2998047,0.1274414
1093,-17,7.3125,-53.4375,-0.06445313,-0.8725586,-0.2089844,-0.0009765625,0.3012695,0.1259766
1097,-17.4375,1.1875,-55.875,0.02050781,-0.9194336,-0.2783203,-0.004394531,0.3037109,0.1313477
1101,-10,-3.875,-50.5,0.08642578,-0.9931641,-0.2900391,-0.01171875,0.3046875,0.1342773
1105,-4.625,-1.1875,-44.9375,0.2177734,-0.8647461,-0.2553711,-0.01611328,0.3061523,0.1357422
1109,-14.6875,20.0625,-59.5,0.2915039,-0.8457031,-0.2285156,-0.02246094,0.3076172,0.1396484
1113,-16.0625,47.25,-89.8125,0.2724609,-0.9853516,-0.2397461,-0.03173828,0.3085938,0.1411133
1117,-17.125,45.375,-101.9375,0.06689453,-0.8457031,-0.2705078,-0.04003906,0.3100586,0.1425781
1121,-13.5,23.9375,-100.5,0.1171875,-0.9389648,-0.34375,-0.05322266,0.3100586,0.1464844
1125,3,10.75,-96,0.2333984,-0.8686523,-0.359375,-0.06640625,0.3110352,0.1479492
1129,10.5625,5.125,-86.1875,0.3691406,-0.9619141,-0.4248047,-0.07226563,0.3110352,0.1479492
1133,23.3125,1.375,-76.1875,0.4892578,-1.171875,-0.5400391,-0.08398438,0.3149414,0.1479492
1137,37.875,10.9375,-73.6875,0.3886719,-0.7172852,-0.4321289,-0.09375,0.3173828,0.1464844
1141,34.75,9.0625,-74.875,0.3959961,-0.8535156,-0.4130859,-0.09863281,0.3212891,0.144043
1145,45.125,8.6875,-71.625,0.4658203,-0.9038086,-0.3745117,-0.109375,0.3222656,0.144043
1149,56.1875,4.625,-56.6875,0.4389648,-0.8999023,-0.3051758,-0.1176758,0.3261719,0.1396484
1153,69.1875,3.625,-42,0.3925781,-0.8300781,-0.2246094,-0.1235352,0.3310547,0.1328125
1157,70.6875,5.9375,-34.6875,0.4580078,-0.6513672,-0.2089844,-0.1293945,0.3359375,0.1259766
1161,67.875,26.9375,-28.875,0.5356445,-0.7524414,-0.1669922,-0.1367188,0.34375,0.1191406
1165,66.875,40.5,-14.9375,0.5161133,-0.7446289,-0.2016602,-0.1411133,0.3461914,0.1123047
1169,71.625,55.6875,4.5625,0.5668945,-0.7910156,-0.2670898,-0.1484375,0.355957,0.1044922
1173,79.3125,68.0625,27.625,0.5087891,-0.7016602,-0.2475586,-0.1494141,0.3637695,0.09082031
1177,82.6875,78.3125,48.0625,0.4194336,-0.7250977,-0.1552734,-0.1508789,0.3725586,0.08251953
1181,88.0625,81.4375,65.6875,0.3149414,-0.6162109,-0.04394531,-0.1474609,0.3813477,0.06640625
1185,83.3125,86.0625,73.3125,0.1870117,-0.4765625,0.1098633,-0.1401367,0.3911133,0.04882813
1189,67.8125,88.5625,70.8125,0.125,-0.3833008,0.140625,-0.1352539,0.3999023,0.03759766
1194,52.125,94.5625,71.9375,0.1210938,-0.5854492,0.144043,-0.1259766,0.4047852,0.02294922
1198,45.875,90.375,70.25,-0.09912109,-0.5927734,0.1635742,-0.1137695,0.4111328,0.006347656
1202,41.0625,63,61,-0.3164063,-0.6318359,0.2636719,-0.1069336,0.4125977,0.002441406
1206,31.4375,25,44.5625,-0.3242188,-0.6279297,0.3173828,-0.09716797,0.4174805,-0.005371094
1210,19.6875,-2.6875,25.25,-0.2231445,-0.6938477,0.2944336,-0.09375,0.418457,-0.009277344
1214,9.5625,-20.3125,13.125,-0.03710938,-0.7719727,0.1826172,-0.09033203,0.418457,-0.01464844
1218,1.375,-17.625,8.3125,0.2177734,-0.8842773,0.05566406,-0.08789063,0.4174805,-0.01220703
1222,0,-8.25,14.125,0.2490234,-0.9116211,0.02099609,-0.08544922,0.418457,-0.01367188
1226,-5.3125,-0.5,19.125,0.2568359,-0.9116211,0.01367188,-0.08642578,0.4160156,-0.01367188
1230,-6.875,1.5,18.875,0.1210938,-0.9619141,0.07519531,-0.08203125,0.418457,-0.01074219
1234,-7.125,-10,16.5625,0.01660156,-0.9194336,0.1171875,-0.07714844,0.4150391,-0.01074219
1238,-11.0625,-12.5625,9.375,0.1518555,-0.9389648,0.02880859,-0.07714844,0.4174805,-0.01220703
1242,-7.75,-1.9375,10.125,0.2758789,-1.129395,-0.09375,-0.07470703,0.4160156,-0.009277344
1246,3.875,4.875,19.5,0.2138672,-1.136719,-0.04736328,-0.07324219,0.4160156,-0.01074219
1250,8.3125,4.4375,26.6875,0.1171875,-1.012695,0.09423828,-0.06884766,0.4160156,-0.01074219
1254,3.9375,-1.375,25.6875,-0.01416016,-0.8959961,0.2675781,-0.06738281,0.4160156,-0.01074219
1258,-9.625,-10.5625,14.9375,-0.05664063,-0.8066406,0.340332,-0.06298828,0.4160156,-0.008300781
1262,-23.5625,-12.125,4.3125,0.05126953,-0.8574219,0.2675781,-0.06054688,0.4160156,-0.006835938
1266,-30.125,-8.625,1.375,0.1210938,-0.9077148,0.1865234,-0.06054688,0.4160156,-0.002441406
1270,-34.5,-5.25,5.25,0.140625,-0.8959961,0.1674805,-0.06054688,0.4150391,0
1274,-40.125,-7.3125,9.0625,0.08642578,-0.8378906,0.2250977,-0.05908203,0.4150391,0.004882813
1278,-49.1875,-11.8125,13.25,0.02441406,-0.7602539,0.2558594,-0.05810547,0.4135742,0.01074219
1282,-63.0625,-15.5625,11.625,0.03955078,-0.7719727,0.1982422,-0.05908203,0.4125977,0.02148438
1286,-65.625,-19.625,13.8125,0.02050781,-0.8574219,0.1098633,-0.05566406,0.4111328,0.02685547
1290,-63,-29.3125,17.8125,-0.03320313,-0.8535156,0.005859375,-0.05664063,0.4072266,0.0390625
1294,-55.0625,-48.25,21.1875,-0.1030273,-0.8920898,-0.03613281,-0.05224609,0.40625,0.04882813
1298,-45.6875,-67.625,27.5,-0.02197266,-0.8144531,-0.05908203,-0.05078125,0.4047852,0.05419922
1302,-48.0625,-66.625,29.8125,0.1987305,-0.8457031,-0.1435547,-0.04589844,0.3984375,0.06103516
1306,-39.9375,-57.0625,40.3125,0.2104492,-0.9697266,-0.2207031,-0.04003906,0.3959961,0.06884766
1310,-27.625,-58.625,53,0.1367188,-1.004883,-0.3359375,-0.03515625,0.3950195,0.07568359
1314,0,-74.75,62.6875,-0.04492188,-1.05127,-0.34375,-0.02587891,0.3911133,0.07861328
1318,27.6875,-106.0625,67.625,-0.1767578,-0.9541016,-0.2822266,-0.01513672,0.387207,0.08007813
1323,37.3125,-135.3125,66.25,-0.1186523,-0.8574219,-0.2324219,-0.006835938,0.387207,0.07714844
1327,29.625,-137.4375,54.6875,0.07470703,-0.7988281,-0.2324219,0.004394531,0.3837891,0.07177734
1331,13.5,-106.25,37.25,0.2177734,-0.7832031,-0.2089844,0.01416016,0.3813477,0.06884766
1335,2.5,-67.4375,30.1875,0.1987305,-0.8378906,-0.1821289,0.01904297,0.378418,0.06494141
1339,3.0625,-44.4375,31.5,0.05517578,-0.7753906,-0.1015625,0.02246094,0.375,0.06494141
1343,0.375,-42.9375,40.375,-0.05273438,-0.7290039,-0.005371094,0.02978516,0.3701172,0.06494141
1347,-7.25,-49.625,51.8125,-0.07617188,-0.8066406,-0.04003906,0.03320313,0.3662109,0.06347656
1351,-12.25,-52.6875,58.6875,-0.02978516,-0.8881836,-0.08203125,0.04052734,0.3623047,0.06494141
1355,-11.75,-43.5,54.875,-0.002441406,-0.8764648,-0.1401367,0.05078125,0.3588867,0.06201172
1359,-11.25,-30.4375,42.5625,-0.04882813,-0.8378906,-0.09765625,0.05224609,0.3549805,0.06347656
1363,-12,-22.375,33.8125,-0.07226563,-0.8261719,-0.009277344,0.05957031,0.3500977,0.06201172
1367,-15.6875,-15.1875,35.375,-0.06835938,-0.8574219,0.01708984,0.06396484,0.3461914,0.06201172
1371,-19.6875,-10.5,38.625,-0.09912109,-0.8686523,0.005859375,0.06787109,0.3422852,0.06201172
1375,-23.75,-7.125,36.125,-0.1303711,-0.9311523,-0.08984375,0.07128906,0.3374023,0.06640625
1379,-20.0625,-6.6875,24.6875,-0.1499023,-0.9697266,-0.1362305,0.07373047,0.3334961,0.06347656
1383,-16,-4.125,17.8125,-0.1147461,-0.9814453,-0.112793,0.07617188,0.3310547,0.06787109
1387,-12.75,5.375,14.875,-0.09130859,-0.9970703,-0.09375,0.07861328,0.3261719,0.06787109
1391,-10.75,13.25,10.5,-0.1611328,-0.9853516,-0.05908203,0.07958984,0.3212891,0.06884766
1395,-16.125,11.9375,1.125,-0.2001953,-0.9580078,-0.09765625,0.08056641,0.3198242,0.06787109
1399,-16.25,6.375,-4.25,-0.2080078,-1.094238,-0.1513672,0.07861328,0.3188477,0.0703125
1403,-10,-0.25,-3.0625,-0.1806641,-1.144531,-0.2055664,0.07714844,0.3164063,0.07177734
1407,-3.875,0.5625,-2.6875,-0.1030273,-1.136719,-0.1899414,0.07714844,0.3125,0.0703125
1411,1.5,9.1875,-2.5,-0.09521484,-1.070801,-0.1708984,0.07617188,0.3100586,0.0703125
1415,3.1875,16.625,-4.25,-0.1108398,-1.066895,-0.1743164,0.07470703,0.3100586,0.0703125
1419,7.1875,21.125,-10.4375,-0.1303711,-1.043945,-0.1782227,0.07226563,0.3061523,0.07177734
1423,4.75,18.0625,-19.3125,-0.1806641,-1.016602,-0.1513672,0.06982422,0.3061523,0.07177734
1427,7.3125,6.375,-19.75,-0.1845703,-1.047363,-0.1362305,0.06787109,0.3037109,0.06884766
1431,11.3125,-6.125,-17.9375,-0.1533203,-1.004883,-0.1206055,0.06640625,0.3037109,0.0703125
1435,13.5,-12.4375,-18.8125,-0.07226563,-0.9389648,-0.109375,0.06396484,0.3012695,0.06787109
1439,15.1875,-12.0625,-23.4375,0.0009765625,-0.9697266,-0.109375,0.06054688,0.3012695,0.06640625
1443,14.5,-3.6875,-29.875,0.07080078,-1.016602,-0.109375,0.06152344,0.3022461,0.06494141
1447,16.875,3.875,-30,0.09033203,-1.105957,-0.07470703,0.05810547,0.2998047,0.06201172
1452,15.375,7.625,-25.375,0.05908203,-1.117676,-0.07080078,0.05224609,0.2998047,0.06103516
1456,15.1875,6.875,-15.125,0.05908203,-1.133301,-0.05517578,0.05566406,0.2998047,0.05957031
1460,12.5,7.75,-8.375,0.04736328,-1.098145,-0.07080078,0.05322266,0.2988281,0.05957031
1464,5.75,19.6875,-17.3125,0.07470703,-1.207031,-0.109375,0.04980469,0.2973633,0.05664063
1468,6.4375,22,-22.125,0.02050781,-1.334961,-0.1435547,0.04882813,0.2988281,0.05810547
1472,5.6875,13.875,-11.3125,0.05126953,-1.370117,-0.1630859,0.04492188,0.2949219,0.05664063
1476,10.875,12.4375,4.875,0.09033203,-1.455566,-0.1782227,0.04492188,0.2963867,0.05664063
1480,15.5,19.5625,17.9375,0.07861328,-1.366211,-0.1821289,0.04150391,0.2963867,0.05517578
1484,9.9375,33.125,15.375,0.01269531,-1.22998,-0.1591797,0.04248047,0.293457,0.05517578
1488,0.75,40.9375,-1,-0.08398438,-1.237793,-0.1513672,0.04248047,0.2949219,0.05517578
1492,-6.9375,37.9375,-13.125,-0.1030273,-1.22998,-0.1743164,0.04150391,0.293457,0.05517578
1496,-7.375,28.0625,-8.375,-0.07617188,-1.304199,-0.1977539,0.03808594,0.2949219,0.05664063
1500,16.75,20.375,15,-0.02978516,-1.253418,-0.128418,0.0390625,0.293457,0.05664063
1504,4,18.4375,16.125,-0.05664063,-1.059082,-0.1708984,0.04150391,0.293457,0.05517578
1508,8.875,12.5,13.9375,-0.1147461,-1.121582,-0.1513672,0.04150391,0.2949219,0.05664063
1512,3.4375,4.9375,4.3125,-0.1147461,-1.020508,-0.112793,0.04248047,0.2924805,0.05517578
1516,0.4375,-5.5,0.0625,-0.09521484,-1.090332,-0.109375,0.04492188,0.293457,0.05419922
1520,1.75,-10.5,3.3125,-0.02978516,-1.070801,-0.08203125,0.04492188,0.293457,0.05810547
1524,0.25,-7.6875,3.25,0.008789063,-1.047363,-0.04736328,0.04638672,0.2949219,0.05517578
1528,-1.4375,-2.625,2.625,-0.002441406,-1.078613,-0.02832031,0.04736328,0.2949219,0.05517578
1532,-3.3125,-0.375,6.1875,0.0009765625,-1.121582,-0.03222656,0.04736328,0.2963867,0.05517578
1536,-2.1875,3.5625,9.5,-0.002441406,-1.160156,-0.02050781,0.04736328,0.293457,0.05517578
1540,-3.6875,7.0625,10.625,-0.05273438,-1.121582,-0.02441406,0.04736328,0.2949219,0.05419922
1544,-6.9375,5.75,6.75,-0.1069336,-1.109863,-0.02441406,0.04882813,0.2949219,0.05517578
1548,-11.5625,1,1.8125,-0.1342773,-1.109863,-0.02832031,0.04882813,0.2963867,0.05517578
1552,-16.5625,-2.5625,0.625,-0.1147461,-1.136719,-0.06298828,0.04638672,0.2949219,0.05810547
1556,-16.625,-4.75,1.1875,-0.09521484,-1.160156,-0.08203125,0.04882813,0.2949219,0.05810547
1560,-16.1875,-6.125,4.75,-0.06054688,-1.179688,-0.09375,0.04882813,0.2949219,0.06103516
1564,-15.3125,-4.9375,7.3125,-0.05664063,-1.167969,-0.1015625,0.04882813,0.2949219,0.06201172
1568,-16.0625,-2.8125,7.6875,-0.04101563,-1.148438,-0.1166992,0.05078125,0.2963867,0.06494141
1572,-17.1875,-1.8125,7.9375,-0.03320313,-1.15625,-0.1362305,0.04980469,0.2973633,0.06494141
1576,-17.9375,1.75,8.8125,-0.02197266,-1.15625,-0.1860352,0.05322266,0.2988281,0.06787109
1581,-18.375,6.9375,6.625,-0.04101563,-1.15625,-0.2016602,0.05322266,0.2963867,0.06884766
1585,-18.75,8.875,5.4375,-0.05664063,-1.167969,-0.2397461,0.0546875,0.2973633,0.0703125
1589,-13.875,9.75,5.625,-0.08007813,-1.226563,-0.2631836,0.0546875,0.2973633,0.07177734
1593,-6.6875,4.4375,8.8125,-0.09521484,-1.203125,-0.2705078,0.05810547,0.2988281,0.07421875
1597,-2.4375,-6,11.4375,-0.06445313,-1.167969,-0.2592773,0.05712891,0.3012695,0.07568359
1601,0,-13.75,9.25,0.01269531,-1.05127,-0.2128906,0.05566406,0.3022461,0.07714844
1605,-7.125,-14.875,7,0.07470703,-0.9814453,-0.1977539,0.06054688,0.3022461,0.07714844
1609,-5.5,-7.3125,5.6875,0.1367188,-1.047363,-0.1977539,0.06054688,0.3037109,0.07568359
1613,-3.8125,8.875,7,0.1713867,-1.008789,-0.2016602,0.05957031,0.3037109,0.07714844
1617,-7.5,26.5,10,0.159668,-1.070801,-0.2167969,0.06054688,0.3061523,0.07861328
1621,-5.4375,42.0625,13.1875,0.1054688,-1.094238,-0.2363281,0.06152344,0.3076172,0.07861328
1625,-4.875,50.125,17.9375,-0.02197266,-1.11377,-0.2089844,0.06298828,0.3085938,0.08251953
1629,-0.0625,48.625,17.9375,-0.1650391,-1.05127,-0.2089844,0.06152344,0.3125,0.08251953
1633,1.625,44.3125,9.9375,-0.2426758,-1.020508,-0.1669922,0.06396484,0.3110352,0.08398438
1637,-1.1875,38.5,-2.125,-0.2583008,-1.059082,-0.1591797,0.06542969,0.3134766,0.08398438
1641,-0.1875,35.4375,-8.1875,-0.2119141,-1.117676,-0.1899414,0.06396484,0.3173828,0.08691406
1645,4.3125,38.25,-11.5,-0.1459961,-1.210938,-0.2592773,0.06152344,0.3198242,0.08789063
1649,15.8125,43.5625,-11.0625,-0.1225586,-1.183594,-0.3129883,0.06054688,0.3237305,0.08544922
1653,23.5625,46.6875,-9.25,-0.1420898,-1.078613,-0.3208008,0.05957031,0.3276367,0.08691406
1657,30.125,47.0625,-12.375,-0.1923828,-1.016602,-0.2822266,0.05566406,0.3325195,0.08544922
1661,35.25,41.875,-23.6875,-0.2504883,-0.9467773,-0.2861328,0.05322266,0.3359375,0.08251953
1665,42.1875,32.75,-32.375,-0.2583008,-1.000977,-0.2822266,0.04980469,0.3413086,0.08105469
1669,57.6875,25,-34,-0.1533203,-0.8959961,-0.2553711,0.04638672,0.3461914,0.07861328
1673,55.375,18.1875,-42.25,-0.1303711,-0.9931641,-0.3901367,0.04150391,0.3510742,0.07421875
1677,89.0625,9.375,-29.5,-0.07617188,-1.066895,-0.4052734,0.03662109,0.3588867,0.06640625
1681,112.3125,0.8125,-9.5,-0.006347656,-0.9116211,-0.34375,0.03662109,0.3662109,0.05273438
1685,131.625,-5.1875,9.8125,0.06689453,-0.7602539,-0.2592773,0.03320313,0.3701172,0.04052734
1689,141.75,0,10.8125,0.08251953,-0.4960938,-0.09765625,0.03564453,0.378418,0.02539063
1693,130.3125,9.75,7.75,0.09375,-0.4257813,-0.02441406,0.03808594,0.3837891,0.004882813
1697,122.625,21.5625,9.375,0.08251953,-0.5151367,-0.001464844,0.04052734,0.3847656,-0.005371094
1701,123.3125,30.75,19.625,0.07861328,-0.6708984,0.009765625,0.04394531,0.3886719,-0.02148438
1705,124.625,34,30.4375,0.07861328,-0.6513672,-0.04003906,0.04882813,0.3896484,-0.04199219
1710,129.3125,44.625,44.1875,0.09375,-0.6083984,0.06347656,0.05322266,0.3911133,-0.05273438
1714,123.5625,61.1875,44.4375,0.02441406,-0.484375,0.1367188,0.06152344,0.3862305,-0.07080078
1718,113.25,70.875,39.8125,-0.1303711,-0.5073242,0.1904297,0.06982422,0.3823242,-0.08984375
1722,105.125,70.875,32.625,-0.2583008,-0.46875,0.2905273,0.07470703,0.378418,-0.09765625
1726,92.875,61.75,23.5625,-0.3666992,-0.565918,0.3212891,0.08447266,0.3735352,-0.1098633
1730,93.8125,43,23.6875,-0.4130859,-0.6318359,0.390625,0.08691406,0.3701172,-0.1196289
1734,87.625,24.9375,18.75,-0.4287109,-0.6279297,0.4287109,0.08886719,0.3647461,-0.1264648
1738,78.8125,4.0625,14.3125,-0.4521484,-0.581543,0.4941406,0.09521484,0.3613281,-0.137207
1742,65.625,-11.25,3.5625,-0.378418,-0.6240234,0.5405273,0.09521484,0.355957,-0.1494141
1746,54.75,-19.5625,-4.5,-0.3320313,-0.6630859,0.5751953,0.09375,0.3535156,-0.1538086
1750,41.875,-27.9375,-7.375,-0.3242188,-0.6474609,0.6176758,0.09033203,0.3510742,-0.1606445
1754,29.75,-36.4375,-7.4375,-0.2773438,-0.7407227,0.6367188,0.09033203,0.3510742,-0.1645508
1758,20.4375,-46.4375,-4.4375,-0.246582,-0.7329102,0.6367188,0.08886719,0.3486328,-0.1660156
1762,8.375,-46.875,-5.8125,-0.1108398,-0.7485352,0.5981445,0.08691406,0.347168,-0.1699219
1766,1.6875,-32.5625,-8,-0.01025391,-0.7910156,0.5595703,0.08447266,0.3461914,-0.1713867
1770,-6.25,-13.4375,-7.8125,-0.01806641,-0.7407227,0.5288086,0.08300781,0.347168,-0.1728516
1774,-17.125,-2.5,-6.25,-0.1030273,-0.7211914,0.5327148,0.08203125,0.3500977,-0.1699219
1778,-25.5625,-0.375,-9.25,-0.1572266,-0.8647461,0.4560547,0.07958984,0.3500977,-0.1674805
1782,-19.6875,-5.625,-4.1875,-0.1728516,-0.9311523,0.3979492,0.07958984,0.3500977,-0.1660156
1786,-15.0625,-8.375,1.5625,-0.1108398,-0.8999023,0.4057617,0.08056641,0.3500977,-0.1645508
1790,-13.875,-3.75,3.6875,-0.09912109,-0.8496094,0.4213867,0.07958984,0.3486328,-0.1591797
1794,-17.1875,0.3125,1.6875,-0.1342773,-0.8222656,0.4443359,0.07714844,0.3510742,-0.1616211
1798,-19.75,-3,0.75,-0.1806641,-0.8183594,0.4711914,0.07714844,0.3525391,-0.1577148
1802,-24.375,-10.875,1.125,-0.215332,-0.7368164,0.5214844,0.07861328,0.3510742,-0.1547852
1806,-34.8125,-22.8125,-0.375,-0.2543945,-0.6787109,0.5444336,0.07470703,0.3525391,-0.1538086
1810,-45.5,-30.5625,-3.8125,-0.215332,-0.6860352,0.5483398,0.07617188,0.3535156,-0.1494141
1814,-55.1875,-35.625,-4.8125,-0.2080078,-0.6821289,0.5214844,0.07373047,0.355957,-0.144043
1818,-60.875,-44.375,-7.0625,-0.1728516,-0.7133789,0.4711914,0.07226563,0.3574219,-0.1386719
1822,-63.625,-52.0625,0.4375,-0.07617188,-0.6318359,0.4711914,0.06982422,0.3598633,-0.1347656
1826,-74.625,-48.125,6.375,-0.01806641,-0.5463867,0.4711914,0.06884766,0.3623047,-0.1235352
1830,-90.5,-34.625,5.5,0.01269531,-0.6044922,0.4287109,0.06884766,0.3647461,-0.1196289
1834,-96.375,-19.5,3.3125,-0.07226563,-0.7250977,0.2983398,0.06787109,0.3637695,-0.105957
1839,-97.3125,-20.9375,1.125,-0.1303711,-0.8144531,0.2021484,0.06640625,0.3686523,-0.09521484
1843,-87.125,-31.5,4.8125,-0.1533203,-0.8496094,0.1635742,0.06787109,0.3686523,-0.08447266
1847,-83.5625,-43.75,13.3125,-0.1303711,-0.7719727,0.2133789,0.06640625,0.3710938,-0.07470703
1851,-83.5,-43.5625,18.0625,-0.03710938,-0.7871094,0.2133789,0.06787109,0.3701172,-0.0625
1855,-85.5625,-31.4375,20.5625,-0.02197266,-0.7172852,0.2133789,0.06640625,0.3701172,-0.05712891
1859,-92.4375,-14.75,15.875,-0.02587891,-0.7407227,0.144043,0.06884766,0.3686523,-0.04638672
1863,-90.375,-4.75,12,-0.1225586,-0.8066406,0.07910156,0.06982422,0.3671875,-0.03125
1867,-86.3125,-8.875,12.0625,-0.1806641,-0.8496094,0.03271484,0.06982422,0.3647461,-0.02441406
1871,-75.3125,-24.4375,16.0625,-0.2231445,-0.8574219,0.04052734,0.07128906,0.3637695,-0.01464844
1875,-70.8125,-34.625,23.125,-0.1499023,-0.7832031,0.07519531,0.07373047,0.3613281,-0.006835938
1879,-74.125,-27.375,21.625,-0.09521484,-0.7719727,0.06347656,0.07617188,0.3588867,0
1883,-76.25,-15.5,15.9375,-0.1225586,-0.8574219,0.02490234,0.07617188,0.3535156,0.009277344
1887,-73.6875,-11.1875,14.8125,-0.1611328,-0.8725586,0.005859375,0.07861328,0.3486328,0.01855469
1891,-71.125,-10.9375,14.25,-0.2041016,-0.9077148,-0.04736328,0.07958984,0.347168,0.02539063
1895,-64.5625,-17.1875,12.6875,-0.2348633,-0.9116211,-0.0859375,0.08056641,0.3422852,0.03222656
1899,-61.3125,-25,13.875,-0.2001953,-0.9506836,-0.09765625,0.08203125,0.3398438,0.03759766
1903,-56.1875,-31.375,15.75,-0.1303711,-0.9311523,-0.08203125,0.08447266,0.3334961,0.04199219
1907,-54.875,-31.5625,19.6875,-0.08398438,-0.9580078,-0.1166992,0.08691406,0.3286133,0.04882813
1911,-48.1875,-23.75,23.5625,-0.03320313,-0.9350586,-0.1015625,0.08886719,0.3222656,0.05517578
1915,-48.4375,-7.375,24.625,-0.03320313,-0.8881836,-0.109375,0.08886719,0.3212891,0.05517578
1919,-50.1875,8.9375,18.8125,-0.09521484,-0.9619141,-0.1513672,0.09130859,0.3173828,0.05957031
1923,-45.25,12.875,14.875,-0.2001953,-1.000977,-0.1630859,0.09375,0.3110352,0.06494141
1927,-41.25,1,13.875,-0.2426758,-1.036133,-0.2016602,0.09277344,0.3100586,0.0703125
1931,-34.0625,-17.5625,16.25,-0.215332,-1.000977,-0.2089844,0.09375,0.3046875,0.07324219
1935,-28.8125,-26.625,19.6875,-0.1225586,-1.000977,-0.2324219,0.09521484,0.2998047,0.07714844
1939,-21.625,-21.75,23.6875,-0.09521484,-0.9658203,-0.2363281,0.09619141,0.2973633,0.07714844
1943,-18.5625,-11.4375,18,-0.1303711,-0.9541016,-0.2744141,0.09765625,0.2910156,0.07861328
1947,-15.6875,-2.4375,6.25,-0.1420898,-0.9272461,-0.2397461,0.09619141,0.2910156,0.07714844
1951,-16.5,-1.6875,-3.125,-0.2192383,-0.9697266,-0.2246094,0.09960938,0.2885742,0.07861328
1955,-9.6875,-13.5,-1.5625,-0.2426758,-0.9736328,-0.2397461,0.09619141,0.2861328,0.08105469
1959,-2.6875,-25.375,0,-0.2080078,-0.9658203,-0.2207031,0.09765625,0.2836914,0.08007813
1963,3.1875,-26.125,-2.9375,-0.1303711,-0.9619141,-0.2016602,0.09765625,0.28125,0.08105469
1968,4.8125,-19.5625,-5.125,-0.09521484,-1.02832,-0.2016602,0.09619141,0.2797852,0.07861328
1972,10.375,-13.75,-3,-0.09521484,-1.08252,-0.2285156,0.09521484,0.2773438,0.07568359
1976,12.5625,-8.9375,-2.5,-0.1108398,-1.012695,-0.1899414,0.09619141,0.2749023,0.07324219
1980,12.9375,-3.3125,-5.625,-0.1572266,-1.047363,-0.1938477,0.09521484,0.2749023,0.07324219
1984,18.875,0.5,6.5625,-0.1728516,-1.568359,-0.394043,0.09521484,0.2739258,0.07421875
1988,26.75,6.125,-0.9375,-0.2080078,-0.9619141,-0.2978516,0.09277344,0.2724609,0.07177734
1992,12.3125,-0.3125,-12.9375,-0.296875,-1.257324,-0.2783203,0.09277344,0.2739258,0.06787109
1996,20.9375,-16.5625,-8.25,-0.230957,-1.312012,-0.3666992,0.09130859,0.2724609,0.06640625
2000,24.3125,-17.125,-4.8125,-0.1728516,-1.241699,-0.3632813,0.08789063,0.2724609,0.06494141
2004,23.1875,-1.3125,-11.625,-0.1572266,-1.245605,-0.3554688,0.08544922,0.2709961,0.06347656
2008,20.4375,8.0625,-18.9375,-0.2700195,-1.214844,-0.324707,0.08447266,0.2739258,0.06103516
2012,13.375,-5.375,-22.1875,-0.3085938,-1.249512,-0.2978516,0.08447266,0.2724609,0.05957031
2016,10.25,-20.5625,-19.75,-0.1845703,-1.304199,-0.2514648,0.08203125,0.2700195,0.05957031
2020,6.0625,-13.625,-10.9375,-0.01806641,-1.272949,-0.2016602,0.08056641,0.2724609,0.05517578
2024,0.8125,8.625,-3.3125,-0.01806641,-1.276855,-0.1782227,0.08056641,0.2700195,0.05810547
2028,-3,29.4375,-3.5625,-0.09521484,-1.284668,-0.1552734,0.08056641,0.2724609,0.05517578
2032,-6.5,31.4375,-3.125,-0.2348633,-1.312012,-0.1323242,0.07958984,0.2700195,0.05810547
2036,-5.75,17.875,-2.125,-0.328125,-1.272949,-0.1054688,0.08056641,0.2700195,0.05810547
2040,-11.5,0.375,-0.5625,-0.3007813,-1.222656,-0.08984375,0.07958984,0.2709961,0.05810547
2044,-14.9375,-10.625,3.0625,-0.215332,-1.26123,-0.09375,0.07958984,0.2700195,0.06103516
2048,-15.0625,-10,5.75,-0.1533203,-1.249512,-0.08984375,0.07958984,0.2709961,0.06103516
2052,-22.625,-0.125,1.8125,-0.1225586,-1.144531,-0.05126953,0.08056641,0.2685547,0.06201172
2056,-30.75,10.375,-2.3125,-0.1381836,-1.210938,-0.07861328,0.08056641,0.2709961,0.06494141
2060,-34.375,18.625,-3.125,-0.1499023,-1.226563,-0.1206055,0.07958984,0.2700195,0.06640625
2064,-39.5625,22.5625,-4.75,-0.1962891,-1.21875,-0.1435547,0.07861328,0.2700195,0.07177734
2068,-43.375,20.1875,-4.3125,-0.2543945,-1.207031,-0.1435547,0.07714844,0.2685547,0.07714844
2072,-47.875,15.5625,-7.5,-0.2929688,-1.226563,-0.1977539,0.07714844,0.2685547,0.07861328
2076,-47.375,6.875,-7.1875,-0.3125,-1.280762,-0.2670898,0.07470703,0.2685547,0.08544922
2080,-42.8125,-1.125,-7.0625,-0.2929688,-1.253418,-0.2978516,0.07617188,0.2675781,0.08789063
2084,-40,-4.8125,-8.4375,-0.2348633,-1.125488,-0.2822266,0.07617188,0.2675781,0.09082031
2088,-49.5625,-0.375,-18.8125,-0.1923828,-1.05127,-0.2900391,0.07373047,0.2685547,0.09326172
2092,-53.3125,6.8125,-27.5,-0.1845703,-1.129395,-0.2822266,0.07373047,0.2661133,0.1015625
2097,-53.375,14.5,-32.25,-0.1533203,-1.090332,-0.2900391,0.07373047,0.2700195,0.1044922
2101,-54.625,17.125,-32.9375,-0.1884766,-1.164063,-0.3168945,0.07128906,0.2685547,0.1098633
2105,-49.5,13.4375,-28.0625,-0.2001953,-1.203125,-0.3476563,0.06640625,0.2685547,0.1166992
2109,-45.6875,7,-25.5625,-0.2119141,-1.195313,-0.3359375,0.06542969,0.2685547,0.1220703
2113,-43.125,4.125,-28.9375,-0.1572266,-1.140625,-0.3051758,0.06054688,0.2685547,0.1259766
2117,-50.8125,6.4375,-39.5625,-0.1420898,-1.016602,-0.2705078,0.05957031,0.2700195,0.1303711
2121,-55.5625,13.0625,-47.3125,-0.04882813,-1.090332,-0.2822266,0.05078125,0.2709961,0.137207
2125,-54,25.0625,-47.75,-0.002441406,-1.164063,-0.3168945,0.04980469,0.2709961,0.144043
2129,-49.5,28.9375,-38.375,-0.04492188,-1.276855,-0.359375,0.04248047,0.2724609,0.1508789
2133,-37.25,19.9375,-24.8125,-0.1069336,-1.253418,-0.3974609,0.0390625,0.2709961,0.1547852
2137,-29.5,6.1875,-26.3125,-0.1689453,-0.9814453,-0.34375,0.03417969,0.2709961,0.1586914
2141,-38.625,-4,-45.0625,-0.1264648,-0.8881836,-0.359375,0.03320313,0.2709961,0.1630859
2145,-40.5,-3.25,-57.875,0.02441406,-0.9736328,-0.3666992,0.02978516,0.2700195,0.1669922
2149,-42.375,15.875,-65.8125,0.2026367,-1.000977,-0.4169922,0.0234375,0.2739258,0.175293
2153,-40.5625,37.9375,-60.125,0.2177734,-1.129395,-0.4936523,0.01513672,0.2709961,0.1791992
2157,-26.8125,46.8125,-47.125,0.09375,-1.203125,-0.5322266,0.01074219,0.2724609,0.1860352
2161,-13.125,35,-43.8125,-0.1342773,-1.02832,-0.5322266,0.002441406,0.2739258,0.1899414
2165,-8.1875,1.75,-51.1875,-0.2773438,-0.9467773,-0.4130859,-0.004394531,0.2749023,0.1943359
2169,-5.5625,-28.9375,-67.4375,-0.2192383,-0.8222656,-0.3129883,-0.005859375,0.2763672,0.1967773
2173,-5.9375,-43.125,-83.375,-0.006347656,-0.7988281,-0.3398438,-0.01416016,0.2763672,0.2011719
2177,2.6875,-31.5,-84.3125,0.3266602,-0.9233398,-0.4477539,-0.02001953,0.2773438,0.2036133
2181,18.4375,-9.3125,-60.4375,0.4619141,-0.9155273,-0.5361328,-0.02587891,0.2788086,0.2036133
2185,29.375,12.75,-37.9375,0.4506836,-0.8300781,-0.5361328,-0.03076172,0.28125,0.2080078
2189,41.125,17.5625,-16.1875,0.3149414,-0.8183594,-0.6171875,-0.03759766,0.2861328,0.2104492
2193,36.9375,19.125,-34.8125,0.1987305,-0.3520508,-0.5131836,-0.04150391,0.2900391,0.2104492
2197,32.1875,13.0625,-43.25,0.2724609,-0.6396484,-0.4628906,-0.04736328,0.2924805,0.2104492
2201,45.5,11.75,-33.25,0.3730469,-0.6669922,-0.4936523,-0.05419922,0.2973633,0.2080078
2205,54.9375,18.1875,-13.3125,0.4697266,-0.7792969,-0.4555664,-0.05908203,0.3022461,0.2104492
2209,64.5,28.875,8.25,0.5087891,-0.6396484,-0.4013672,-0.06396484,0.3085938,0.2080078
2213,59.375,52.5,19.4375,0.5200195,-0.4726563,-0.3051758,-0.06884766,0.3173828,0.2080078
2217,51.25,79,21.875,0.4541016,-0.6748047,-0.3632813,-0.06884766,0.3237305,0.2050781
2221,59.875,77.875,34.3125,0.159668,-0.5698242,-0.2705078,-0.07470703,0.3325195,0.2021484
2226,54.4375,63.5625,36.8125,0.06298828,-0.5268555,-0.109375,-0.07958984,0.3422852,0.2011719
2230,47.5625,50.8125,33.8125,0.01660156,-0.4179688,-0.03222656,-0.07958984,0.3500977,0.199707
2234,34.3125,51.6875,31.0625,0.07470703,-0.6708984,-0.1166992,-0.08203125,0.3588867,0.199707
2238,33.0625,51.3125,31.1875,0.04345703,-0.7016602,-0.1860352,-0.08544922,0.3647461,0.1982422
2242,34.1875,48.0625,31.0625,-0.05664063,-0.7792969,-0.1899414,-0.08544922,0.3710938,0.1982422
2246,29.125,36.5,20.4375,-0.08789063,-0.6474609,-0.1630859,-0.08642578,0.3774414,0.1982422
2250,23.9375,17.5,9.0625,-0.1767578,-0.6552734,-0.08984375,-0.08886719,0.3823242,0.1953125
2254,18.3125,-9.0625,3.75,-0.08789063,-0.6938477,-0.0859375,-0.09130859,0.3847656,0.1967773
2258,10.5625,1.9375,-18,0.02441406,-0.5893555,-0.1591797,-0.09130859,0.387207,0.1953125
2262,3.875,-3.875,-20.125,0.01269531,-0.8959961,-0.3359375,-0.09375,0.3886719,0.1982422
2266,12.4375,-6.0625,-15.6875,0.03955078,-0.9853516,-0.4399414,-0.09472656,0.3862305,0.199707
2270,12.125,-12.3125,-14.4375,0.03173828,-0.8261719,-0.378418,-0.09716797,0.3886719,0.1967773
2274,9.6875,-13.1875,-11.875,0.175293,-0.8222656,-0.2397461,-0.09960938,0.3886719,0.1967773
2278,-3.125,-7.375,-13.75,0.1948242,-0.5966797,0.01367188,-0.09863281,0.3896484,0.1943359
2282,-14.4375,-5.1875,-25.875,0.06298828,-0.3442383,0.3710938,-0.1010742,0.3886719,0.1928711
2286,-46.25,2.8125,-32.9375,0.3652344,-0.2861328,0.1904297,-0.1010742,0.3847656,0.1967773
2290,-83.4375,45.4375,-47.9375,0.3652344,-1.004883,-0.3168945,-0.1020508,0.3798828,0.1982422
2294,-57,35.5625,-17,0.2373047,-1.405273,-0.7402344,-0.1069336,0.3671875,0.2021484
2298,-17.5,11.125,6.5,0.1171875,-1.233887,-0.6899414,-0.1079102,0.3637695,0.2036133
2302,1.8125,-12.875,20.3125,0.1445313,-1.117676,-0.4477539,-0.1069336,0.3623047,0.2036133
2306,9.75,-17.875,28.9375,0.2758789,-0.8959961,-0.2592773,-0.1010742,0.3637695,0.2011719
2310,-5.5,-4.3125,26.9375,0.3305664,-0.7753906,-0.2363281,-0.09619141,0.3623047,0.2011719
2314,-14.3125,16,21.0625,0.4311523,-1.203125,-0.5825195,-0.09472656,0.3637695,0.1982422
2318,14.375,16.9375,35,0.2177734,-1.257324,-0.6206055,-0.09033203,0.3637695,0.1982422
2322,32.125,2.6875,41.8125,0.1289063,-0.9658203,-0.4091797,-0.08642578,0.3686523,0.1928711
2326,26.5625,-5.6875,34.625,0.1054688,-0.7792969,-0.1860352,-0.08398438,0.3710938,0.1899414
2330,20,-6.4375,33.25,0.1054688,-0.8027344,-0.0859375,-0.07958984,0.3759766,0.1845703
2334,12.5,-6,32.4375,0.05908203,-0.6708984,-0.02832031,-0.07568359,0.3774414,0.1831055
2338,-3.625,-1.6875,23.4375,0.07470703,-0.7446289,-0.1474609,-0.07226563,0.3774414,0.1821289
2342,-0.75,-7.6875,21.6875,-0.02587891,-0.7988281,-0.2167969,-0.06640625,0.375,0.1777344
2346,3.6875,-23.75,25.9375,-0.04101563,-0.7719727,-0.2089844,-0.06152344,0.375,0.1738281
2350,7.9375,-42.25,28.375,-0.08789063,-0.6240234,-0.1015625,-0.05566406,0.3759766,0.1738281
2355,2.0625,-59.125,34.25,-0.07226563,-0.581543,0.005859375,-0.04833984,0.3710938,0.1708984
2359,-9,-66.6875,35.5,0.0009765625,-0.4765625,-0.01660156,-0.0390625,0.3701172,0.168457
2363,-22.875,-57.9375,29.6875,0.09375,-0.565918,-0.1435547,-0.03173828,0.3662109,0.1655273
2367,-24.5625,-46.125,27.8125,0.1171875,-0.6860352,-0.2089844,-0.02246094,0.3598633,0.1655273
2371,-22.25,-43.25,28.625,0.03173828,-0.6552734,-0.1708984,-0.01855469,0.3549805,0.1630859
2375,-21.0625,-56.9375,38.25,-0.01416016,-0.6240234,-0.1513672,-0.01171875,0.3500977,0.1640625
2379,-22.9375,-64.25,40.3125,0.04736328,-0.6860352,-0.1630859,-0.001953125,0.3447266,0.1616211
2383,-27.875,-61.5,38.375,0.1445313,-0.8725586,-0.4248047,0.006835938,0.3374023,0.1630859
2387,-15.6875,-51,38,0.1674805,-1.140625,-0.5864258,0.01171875,0.3334961,0.1601563
2391,5.625,-47.375,39.125,0.1367188,-1.055176,-0.59375,0.02001953,0.3286133,0.1572266
2395,19.5625,-51.5625,43.875,0.03564453,-0.8725586,-0.4594727,0.02832031,0.3261719,0.1518555
2399,22.3125,-60.6875,49.1875,0.04736328,-0.7949219,-0.2900391,0.03417969,0.3222656,0.1479492
2403,16.75,-49.625,51.25,0.140625,-0.8378906,-0.1669922,0.04248047,0.3212891,0.1450195
2407,5.5625,-22.125,44.75,0.1484375,-0.9697266,-0.1054688,0.05224609,0.3188477,0.137207
2411,-0.0625,-2.4375,38.75,0.02832031,-0.9506836,-0.112793,0.0546875,0.3164063,0.137207
2415,-3.25,0.3125,33.1875,-0.09912109,-0.9038086,-0.1323242,0.06054688,0.3134766,0.1328125
2419,-0.125,-6.9375,39.125,-0.1420898,-0.8881836,-0.1435547,0.06396484,0.3076172,0.1303711
2423,0.0625,-5.125,41.0625,-0.09912109,-0.9736328,-0.1630859,0.06640625,0.3076172,0.1289063
2427,2.25,6,40.4375,-0.1342773,-1.004883,-0.1669922,0.07226563,0.3037109,0.1259766
2431,-0.375,13.1875,37.6875,-0.215332,-1.08252,-0.1782227,0.07617188,0.2998047,0.1274414
2435,1.8125,11.8125,29.5625,-0.3085938,-1.070801,-0.1899414,0.07617188,0.2988281,0.125
2439,4.3125,2.9375,23.5,-0.3588867,-1.036133,-0.2324219,0.07958984,0.2949219,0.1220703
2443,8.5,-9.875,17.5625,-0.3510742,-0.9736328,-0.2475586,0.08300781,0.2924805,0.1191406
2447,7.5625,-9.6875,7.8125,-0.2387695,-1.05127,-0.3051758,0.08056641,0.2900391,0.1166992
2451,12.5625,-2.5,3.5,-0.2270508,-1.140625,-0.2900391,0.08203125,0.2885742,0.1137695
2455,17.0625,-3.1875,2.3125,-0.296875,-1.164063,-0.2978516,0.08056641,0.2861328,0.1123047
2459,24.375,-15.3125,3.8125,-0.3164063,-1.090332,-0.2705078,0.08447266,0.2875977,0.1113281
2463,24.9375,-29,-2.1875,-0.2890625,-0.9853516,-0.2744141,0.08447266,0.2851563,0.1069336
2467,25.125,-39.625,-9.375,-0.1884766,-0.9619141,-0.2705078,0.08447266,0.2836914,0.1015625
2471,25.875,-35.25,-15.75,-0.02587891,-0.9931641,-0.2670898,0.08544922,0.2822266,0.1000977
2475,30.9375,-20,-13.75,0.125,-1.059082,-0.2514648,0.08544922,0.2822266,0.09472656
2479,39.75,2.8125,0.6875,0.1948242,-1.059082,-0.2128906,0.08300781,0.2836914,0.09082031
2484,41.25,25.0625,11.1875,0.1210938,-0.9389648,-0.1513672,0.08447266,0.2822266,0.08789063
2488,40.125,41.5,12.5,0.0009765625,-0.9814453,-0.1435547,0.08300781,0.28125,0.08544922
2492,39.25,50.4375,8.0625,-0.1533203,-0.9775391,-0.1435547,0.08447266,0.28125,0.08105469
2496,36.9375,43.875,2,-0.2700195,-1.05127,-0.1435547,0.08203125,0.28125,0.08007813
2500,40.8125,22.9375,3.1875,-0.3203125,-1.117676,-0.1708984,0.08056641,0.2797852,0.07568359
2504,47.3125,2.9375,8.875,-0.2661133,-1.125488,-0.1591797,0.08056641,0.2797852,0.07177734
2508,66.5,-7.875,32.4375,-0.1767578,-1.288574,-0.1899414,0.08056641,0.2797852,0.06884766
2512,56.125,5.1875,16.4375,-0.08007813,-0.8725586,-0.1166992,0.08300781,0.2788086,0.06103516
2516,42.6875,26.4375,-2.4375,-0.09912109,-1.098145,-0.04736328,0.08203125,0.2797852,0.05810547
2520,40.375,31.5625,-8.25,-0.1650391,-1.160156,-0.109375,0.08056641,0.2788086,0.05517578
2524,40.8125,25.375,-5.5625,-0.2119141,-1.179688,-0.1206055,0.07958984,0.2773438,0.05273438
2528,40.8125,22.5,-1.875,-0.2080078,-1.241699,-0.1166992,0.07714844,0.2788086,0.04882813
2532,40.9375,24.125,-1.6875,-0.2426758,-1.21875,-0.06298828,0.07617188,0.2773438,0.04882813
2536,33.75,22.25,-8.3125,-0.3046875,-1.1875,-0.009277344,0.07617188,0.2797852,0.04443359
2540,23.75,10.3125,-16.0625,-0.3242188,-1.226563,-0.01660156,0.07373047,0.2788086,0.04296875
2544,19.1875,-4.375,-16.75,-0.2080078,-1.312012,-0.03222656,0.07470703,0.2773438,0.04199219
2548,14.6875,-8.9375,-7.8125,-0.1030273,-1.308105,-0.04003906,0.07226563,0.2788086,0.04052734
2552,11.875,-3.625,-0.1875,-0.06835938,-1.350586,-0.06298828,0.06982422,0.2773438,0.04052734
2556,10.1875,2.625,4.5625,-0.1108398,-1.296387,-0.05517578,0.07226563,0.2788086,0.03759766
2560,3.3125,6.5,4.6875,-0.1303711,-1.195313,-0.03613281,0.07470703,0.2788086,0.03759766
2564,-6.6875,8.9375,1.875,-0.1533203,-1.226563,-0.05517578,0.07226563,0.2773438,0.03613281
2568,-10.8125,3.8125,2.0625,-0.1923828,-1.15625,-0.04736328,0.07128906,0.2788086,0.03759766
2572,-18.4375,-1.5625,1.0625,-0.1650391,-1.171875,-0.0859375,0.07128906,0.2773438,0.0390625
2576,-16.5625,-2.875,2.8125,-0.1572266,-1.167969,-0.09375,0.07128906,0.2788086,0.0390625
2580,-17.375,-2.0625,2.75,-0.1225586,-1.094238,-0.08984375,0.06982422,0.2773438,0.04199219
2584,-20.875,-1,0.75,-0.1381836,-1.040039,-0.07080078,0.07128906,0.2773438,0.04296875
2588,-21.875,-3.875,3,-0.1303711,-1.08252,-0.03613281,0.07226563,0.2773438,0.04443359
2592,-21.375,-4.375,5.875,-0.1108398,-1.066895,-0.02441406,0.07128906,0.2749023,0.04882813
2596,-25.625,-1.125,3.4375,-0.1381836,-1.043945,-0.03613281,0.07226563,0.2749023,0.04980469
2600,-26.75,0.1875,4.9375,-0.1767578,-1.125488,-0.05517578,0.07373047,0.2749023,0.05126953
2604,-27.1875,1.8125,3.5625,-0.1689453,-1.121582,-0.08203125,0.07617188,0.2749023,0.05419922
2608,-27.625,2.25,2.25,-0.1923828,-1.179688,-0.1166992,0.07470703,0.2749023,0.05517578
2613,-24.6875,-0.6875,6.6875,-0.1962891,-1.237793,-0.1513672,0.07470703,0.2739258,0.05664063
2617,-19.9375,-1.875,13.5,-0.1767578,-1.253418,-0.1591797,0.07714844,0.2749023,0.05957031
2621,-27.0625,7.4375,9.5625,-0.1533203,-1.020508,-0.08203125,0.07714844,0.2763672,0.06201172
2625,-46.3125,25.5,-4,-0.1845703,-1.055176,-0.07861328,0.07861328,0.2763672,0.06494141
2629,-52.4375,36.375,-12.375,-0.2231445,-1.195313,-0.1245117,0.07714844,0.2739258,0.06884766
2633,-53.8125,41,-11.1875,-0.262207,-1.26123,-0.1474609,0.07714844,0.2749023,0.07568359
2637,-51.75,40.6875,-8.75,-0.3085938,-1.315918,-0.1630859,0.07373047,0.2739258,0.08105469
2641,-51.25,26.5,-8.125,-0.3862305,-1.171875,-0.1513672,0.06982422,0.2749023,0.08544922
2645,-56.125,6.5625,-14.5,-0.3203125,-1.15625,-0.1977539,0.06884766,0.2739258,0.09082031
2649,-54.375,-10.1875,-16.4375,-0.1728516,-1.102051,-0.2285156,0.06884766,0.2724609,0.09619141
2653,-53.9375,-11.1875,-17.0625,0.01660156,-1.032227,-0.2475586,0.06787109,0.2739258,0.1015625
2657,-51.3125,0.625,-11.3125,0.1328125,-1.040039,-0.2822266,0.06542969,0.2749023,0.105957
2661,-44.875,14.8125,-2.125,0.1635742,-1.008789,-0.3012695,0.06542969,0.2724609,0.1113281
2665,-38.5,25.1875,6.5625,0.1015625,-1.02832,-0.309082,0.06542969,0.2739258,0.1166992
2669,-30.375,27.875,15,0.05126953,-0.9272461,-0.309082,0.06640625,0.2724609,0.1191406
2673,-36.125,28.3125,10.6875,-0.01806641,-0.8144531,-0.2900391,0.06640625,0.2724609,0.1235352
2677,-36.75,29.125,4.5,-0.09130859,-0.9038086,-0.309082,0.06542969,0.2724609,0.1274414
2681,-33.3125,22.1875,2.875,-0.1381836,-0.8920898,-0.2978516,0.06884766,0.2724609,0.1328125
2685,-29.75,14.125,5.375,-0.1499023,-0.9541016,-0.2861328,0.06542969,0.2709961,0.1342773
2689,-23.875,6.75,10.5625,-0.1264648,-0.9116211,-0.2744141,0.06542969,0.2724609,0.1396484
2693,-19.125,5.1875,14.8125,-0.06445313,-0.8999023,-0.2861328,0.06787109,0.2709961,0.1411133
2697,-18,13.875,13.125,-0.02587891,-0.7792969,-0.2978516,0.06787109,0.2700195,0.1425781
2701,-22.6875,28.1875,3.5,-0.05273438,-0.7910156,-0.3168945,0.06787109,0.2709961,0.1450195
2705,-25,36.5625,-6.1875,-0.1225586,-0.8183594,-0.34375,0.06640625,0.2709961,0.1494141
2709,-22.9375,30.625,-8.0625,-0.1767578,-0.8686523,-0.359375,0.06396484,0.2700195,0.15625
2713,-16.125,20.0625,-6.125,-0.1459961,-0.9155273,-0.3862305,0.06054688,0.2709961,0.1572266
2717,-8.4375,13.5,0.1875,-0.1069336,-0.8920898,-0.4091797,0.06152344,0.2724609,0.1586914
2721,-2.8125,11.9375,3.625,-0.09912109,-0.8686523,-0.4667969,0.05810547,0.2724609,0.1586914
2725,-1.4375,17.8125,-6.875,-0.06835938,-0.8261719,-0.4477539,0.06152344,0.2739258,0.1601563
2729,-2.1875,22.125,-14.375,-0.1069336,-0.8261719,-0.4399414,0.05810547,0.2739258,0.1616211
2733,0.5625,21.8125,-17.125,-0.1225586,-0.8535156,-0.4208984,0.05566406,0.2763672,0.1630859
2737,3.875,14.0625,-13.1875,-0.1611328,-0.8535156,-0.4130859,0.05566406,0.2773438,0.1630859
2742,8.375,3.25,-9.125,-0.1499023,-0.8920898,-0.4091797,0.05322266,0.2788086,0.1630859
2746,15.375,-6.625,-4.375,-0.1303711,-0.8881836,-0.4130859,0.05322266,0.2822266,0.1630859
2750,15.8125,-7.4375,-5.375,-0.1030273,-0.8300781,-0.4321289,0.0546875,0.2822266,0.1640625
2754,17,0.5,-11.5,-0.07617188,-0.8881836,-0.3862305,0.0546875,0.2861328,0.1616211
2758,16.375,10.75,-16.0625,-0.1030273,-0.8027344,-0.3325195,0.0546875,0.2851563,0.1616211
2762,10.75,12,-17.5,-0.1147461,-0.8144531,-0.2900391,0.04882813,0.2885742,0.1601563
2766,10.625,7.375,-14.3125,-0.1186523,-0.7988281,-0.2324219,0.04736328,0.2910156,0.1616211
2770,9.375,5.6875,-9,-0.06054688,-0.8222656,-0.2363281,0.04638672,0.2924805,0.1616211
2774,11.25,7,-3.5625,-0.04882813,-0.8613281,-0.2670898,0.04492188,0.293457,0.1572266
2778,13.25,4.4375,1.375,-0.09130859,-0.8496094,-0.2363281,0.04394531,0.2963867,0.1601563
2782,11.5625,2.125,3.5625,-0.07617188,-0.8144531,-0.2128906,0.04394531,0.2988281,0.1572266
2786,7.6875,4.3125,3.5625,-0.06445313,-0.7563477,-0.1821289,0.04638672,0.2973633,0.1601563
2790,2.5625,10.625,3.5625,-0.06445313,-0.7641602,-0.1782227,0.04638672,0.2988281,0.1586914
2794,-1.0625,10.9375,2.375,-0.1381836,-0.7988281,-0.2128906,0.04394531,0.2988281,0.1572266
2798,-1.5625,4.1875,7,-0.09521484,-0.8574219,-0.2324219,0.04638672,0.3012695,0.1601563
2802,-2.75,5.0625,7.125,-0.08398438,-0.9311523,-0.2978516,0.04638672,0.3012695,0.1586914
2806,-0.5,1.5,9.8125,-0.1030273,-0.9272461,-0.2900391,0.04882813,0.2998047,0.1586914
2810,-1.5625,-1.1875,10.5,-0.1108398,-0.8842773,-0.309082,0.04736328,0.3012695,0.1586914
2814,-2.5625,-1.8125,8.5625,-0.1030273,-0.8183594,-0.2939453,0.05224609,0.2998047,0.1586914
2818,-9,3.125,3.25,-0.06054688,-0.8378906,-0.2744141,0.05322266,0.2988281,0.1601563
2822,-9.75,5.6875,6.3125,-0.07617188,-0.9350586,-0.2783203,0.04980469,0.3012695,0.1616211
2826,-8.1875,5.0625,10.3125,-0.07617188,-0.9233398,-0.2939453,0.05078125,0.2973633,0.1601563
2830,-7.6875,3.6875,13.625,-0.09130859,-0.9194336,-0.3286133,0.05224609,0.2973633,0.1630859
2834,-6,0.125,15.75,-0.1108398,-0.8920898,-0.3515625,0.05078125,0.2973633,0.1630859
2838,-6.0625,-1.6875,13.125,-0.1225586,-0.8300781,-0.3476563,0.05322266,0.2963867,0.1630859
2842,-5.375,-7.6875,12.75,-0.1381836,-0.8339844,-0.3359375,0.0546875,0.2963867,0.1630859
2846,-2.0625,-13.125,12.25,-0.1459961,-0.7871094,-0.3359375,0.05566406,0.2949219,0.1616211
2850,-3.1875,-15.5625,11.625,-0.09130859,-0.7719727,-0.3012695,0.05566406,0.2963867,0.1630859
2854,-4.125,-11.4375,9.75,-0.09912109,-0.7871094,-0.3325195,0.05957031,0.2924805,0.1616211
2858,-2.6875,-12.3125,8.875,-0.1420898,-0.7792969,-0.359375,0.06298828,0.2924805,0.1616211
2862,0,-17.0625,6.9375,-0.1533203,-0.7446289,-0.3666992,0.06152344,0.2910156,0.1601563
2866,1.5625,-22.875,3.625,-0.1499023,-0.6977539,-0.3168945,0.06396484,0.2900391,0.1601563
2871,1.1875,-24.375,2.3125,-0.1108398,-0.7524414,-0.3208008,0.06787109,0.2885742,0.1601563
2875,1.3125,-21.75,1.75,-0.1030273,-0.7871094,-0.3051758,0.06884766,0.2900391,0.1586914
2879,-0.3125,-23.25,5.625,-0.1108398,-0.8725586,-0.3515625,0.06982422,0.2875977,0.1572266
2883,3.375,-24.0625,7.75,-0.1186523,-0.9077148,-0.3666992,0.07128906,0.2885742,0.15625
2887,5.4375,-26.125,9.375,-0.1342773,-0.8764648,-0.3554688,0.07470703,0.2851563,0.1533203
2891,6.375,-28.25,10.5,-0.1264648,-0.8803711,-0.3208008,0.07714844,0.2851563,0.1508789
2895,6.9375,-25.875,12.0625,-0.08398438,-0.8959961,-0.3208008,0.07617188,0.2851563,0.1494141
2899,5.9375,-18,12.1875,-0.07226563,-0.8803711,-0.3476563,0.08056641,0.2836914,0.1479492
2903,7.75,-13.25,13.375,-0.09912109,-0.9428711,-0.4091797,0.08203125,0.2836914,0.1450195
2907,13.25,-15.5625,17.6875,-0.1225586,-0.9428711,-0.4399414,0.08300781,0.28125,0.1450195
2911,16.375,-20.0625,19.875,-0.1499023,-0.8613281,-0.4091797,0.08447266,0.28125,0.1396484
2915,15.75,-21.25,16.875,-0.1264648,-0.8535156,-0.3901367,0.08886719,0.28125,0.137207
2919,18.125,-16.4375,15.125,-0.08789063,-0.9194336,-0.3862305,0.08886719,0.2797852,0.1381836
2923,22.25,-9.8125,17.4375,-0.1303711,-0.9467773,-0.3974609,0.09375,0.2797852,0.1328125
2927,26,-9.375,17.3125,-0.1806641,-0.9038086,-0.3666992,0.09521484,0.2788086,0.1289063
2931,28.625,-14.0625,18.25,-0.2119141,-0.9194336,-0.3325195,0.09960938,0.2773438,0.1274414
2935,32.25,-13.3125,19.875,-0.1767578,-0.8842773,-0.2939453,0.1020508,0.2788086,0.1220703
2939,32.0625,-3.1875,19.875,-0.1572266,-0.9155273,-0.2436523,0.1035156,0.2773438,0.1166992
2943,29.1875,8.1875,19.0625,-0.1962891,-0.8959961,-0.2055664,0.105957,0.2763672,0.1137695
2947,28.375,14.375,17.4375,-0.2773438,-0.9038086,-0.1860352,0.1079102,0.2773438,0.1098633
2951,27.375,15.1875,11.8125,-0.3085938,-0.8725586,-0.1899414,0.109375,0.2773438,0.1083984
2955,26.5625,7.9375,2.375,-0.3745117,-0.9194336,-0.2436523,0.1079102,0.2763672,0.105957
2959,34.5,-13,5.9375,-0.3549805,-1.004883,-0.2783203,0.1103516,0.2749023,0.1030273
2963,43.4375,-25.5,11,-0.2583008,-1.016602,-0.2553711,0.1103516,0.2749023,0.09472656
2967,47.0625,-23.9375,13.9375,-0.1806641,-0.9389648,-0.2089844,0.1103516,0.2749023,0.09326172
2971,46.4375,-10.375,14.125,-0.1728516,-0.9233398,-0.1743164,0.112793,0.2763672,0.08789063
2975,41.0625,5.9375,3.875,-0.2001953,-0.8999023,-0.1513672,0.1152344,0.2749023,0.08251953
2979,37.75,11.375,-0.0625,-0.3046875,-0.9697266,-0.1474609,0.1142578,0.2739258,0.07861328
2983,38.1875,4.6875,0.75,-0.328125,-1.043945,-0.1513672,0.1142578,0.2749023,0.07421875
2987,41.4375,-5.625,4.125,-0.3393555,-1.062988,-0.1552734,0.1142578,0.2739258,0.0703125
2991,45.75,-9.0625,7.25,-0.2851563,-1.062988,-0.1401367,0.1176758,0.2749023,0.06640625
2995,45.25,-1.9375,3.75,-0.2700195,-1.020508,-0.1206055,0.1166992,0.2709961,0.06201172
3000,41.8125,1,-2.75,-0.3164063,-1.036133,-0.1245117,0.1166992,0.2739258,0.05810547
3004,41.9375,-6.1875,-4.75,-0.347168,-1.066895,-0.112793,0.1176758,0.2724609,0.05664063
3008,45.25,-16.75,-2.4375,-0.3393555,-1.08252,-0.109375,0.1166992,0.2709961,0.04980469
