Packet number,Gyroscope X (deg/s),Gyroscope Y (deg/s),Gyroscope Z (deg/s),Accelerometer X (g),Accelerometer Y (g),Accelerometer Z (g),Magnetometer X (G),Magnetometer Y (G),Magnetometer Z (G)
2,-12,-13.625,-25.8125,-0.796875,0.3466797,-0.09765625,0.253418,-0.2358398,0.04199219
6,-12.1875,-11.5625,-21.375,-0.8432617,0.3193359,-0.09375,0.2519531,-0.2382813,0.04199219
10,-8.25,-12.8125,-15.75,-0.8706055,0.3041992,-0.07861328,0.2543945,-0.2358398,0.0390625
14,-0.125,-13.625,-11.375,-0.878418,0.3271484,-0.08203125,0.2558594,-0.2329102,0.03759766
18,7.25,-11.4375,-10.125,-0.8974609,0.3857422,-0.08203125,0.2558594,-0.234375,0.03613281
22,14,-10.0625,-13.0625,-0.9248047,0.4477539,-0.08984375,0.2568359,-0.2329102,0.03613281
26,16.625,-7.5625,-16.875,-0.9399414,0.4790039,-0.07861328,0.2558594,-0.2329102,0.03759766
30,14.25,-3.3125,-16.8125,-0.9672852,0.5058594,-0.07861328,0.2568359,-0.2294922,0.03759766
34,9.875,-0.3125,-13.375,-1.021484,0.5214844,-0.109375,0.2592773,-0.2255859,0.03759766
38,7.25,1.125,-10.3125,-1.052734,0.5136719,-0.09375,0.2568359,-0.2270508,0.0390625
42,9.3125,3.8125,-8.5625,-1.083496,0.5019531,-0.09375,0.2592773,-0.2231445,0.03759766
46,14.875,7.5,-6.9375,-1.11084,0.5019531,-0.1015625,0.2583008,-0.2255859,0.03759766
51,19.5,10.625,-5.75,-1.141602,0.5292969,-0.1206055,0.2602539,-0.2231445,0.04052734
55,24.375,14.6875,-6.125,-1.141602,0.5761719,-0.1323242,0.2592773,-0.2216797,0.04052734
59,23.875,20.5625,-8,-1.180664,0.6264648,-0.1591797,0.2568359,-0.2231445,0.04443359
63,20.125,23.375,-6,-1.20752,0.6381836,-0.1743164,0.2583008,-0.2216797,0.04736328
67,14.5,27.6875,-5.6875,-1.203613,0.6303711,-0.1860352,0.2592773,-0.2231445,0.04980469
71,13.3125,32.625,-6.25,-1.223145,0.5991211,-0.2128906,0.2617188,-0.2231445,0.05126953
75,16.375,34.375,-6.25,-1.20752,0.5449219,-0.2475586,0.2602539,-0.2207031,0.05419922
79,19.1875,37.375,-5.125,-1.180664,0.5175781,-0.2861328,0.2626953,-0.2207031,0.05810547
83,20.1875,37.0625,-1.875,-1.20752,0.5097656,-0.3515625,0.2626953,-0.2231445,0.06201172
87,19.875,32.75,0.625,-1.20752,0.4946289,-0.3745117,0.2626953,-0.2246094,0.06787109
91,18,29.8125,0.8125,-1.187988,0.5175781,-0.3862305,0.2651367,-0.2216797,0.0703125
95,13.0625,25.3125,3,-1.187988,0.4907227,-0.4399414,0.2641602,-0.2246094,0.07324219
99,7.4375,17.3125,8,-1.161133,0.4321289,-0.4321289,0.2675781,-0.2255859,0.07568359
103,6.375,15,10.75,-1.07959,0.4013672,-0.394043,0.2675781,-0.2246094,0.08007813
107,10.1875,14.1875,4.3125,-1.145508,0.4086914,-0.3706055,0.2700195,-0.2270508,0.08105469
111,13.8125,10.625,1.5625,-1.25,0.3935547,-0.3901367,0.2709961,-0.2294922,0.08398438
115,13.75,7,0.125,-1.203613,0.3974609,-0.3325195,0.2709961,-0.2304688,0.08544922
119,9.5,4.75,3.8125,-1.199707,0.3310547,-0.3901367,0.2758789,-0.2304688,0.08789063
123,2.8125,-5.75,11.9375,-1.168945,0.3271484,-0.3632813,0.2773438,-0.234375,0.08789063
127,-3.375,-14.125,23.6875,-1.137695,0.2807617,-0.3168945,0.2792969,-0.2368164,0.09082031
131,0.4375,-21.75,30.875,-1.056641,0.2768555,-0.2705078,0.2817383,-0.2392578,0.09228516
135,16.0625,-24.625,26.1875,-0.9516602,0.315918,-0.2128906,0.2856445,-0.2456055,0.09082031
139,34.1875,-25.5625,16.625,-0.9750977,0.3193359,-0.2128906,0.2866211,-0.2495117,0.09082031
143,41.875,-32.3125,21.375,-1.033203,0.3935547,-0.2592773,0.2900391,-0.2519531,0.09228516
147,39.6875,-48.375,35.4375,-1.149414,0.3623047,-0.4013672,0.2939453,-0.2558594,0.09326172
151,24.6875,-78.625,67.8125,-1.067871,0.3818359,-0.3974609,0.2963867,-0.2583008,0.09228516
155,-5.6875,-107.125,102,-0.7348633,0.4438477,-0.1362305,0.2998047,-0.2680664,0.08691406
159,-14.875,-101.4375,96.125,-0.3588867,0.4907227,0.105957,0.3007813,-0.2817383,0.07714844
163,10.0625,-83.5,52.75,-0.2929688,0.4711914,0.1982422,0.3022461,-0.2895508,0.07177734
167,36.1875,-62.4375,8.0625,-0.1845703,0.5175781,0.2368164,0.3032227,-0.2944336,0.06787109
171,32.8125,-40.25,-8.75,-0.2387695,0.4555664,0.2749023,0.309082,-0.2983398,0.06494141
175,13.75,-34.5625,8.1875,-0.2700195,0.3623047,0.2749023,0.3105469,-0.3007813,0.06494141
180,1,-33.875,20.8125,-0.2583008,0.3081055,0.2094727,0.3139648,-0.3056641,0.06201172
184,0.25,-26.0625,17.3125,-0.3588867,0.3974609,0.001953125,0.3154297,-0.3105469,0.06201172
188,-3.8125,-25.5,9.3125,-0.5527344,0.4204102,-0.2363281,0.3173828,-0.3144531,0.06103516
192,-13.25,-38.5625,11.375,-0.3393555,0.3427734,-0.1166992,0.3222656,-0.3193359,0.05664063
196,-10.875,-26.4375,3.875,-0.1303711,0.2768555,0.144043,0.3237305,-0.3232422,0.05273438
200,7.25,-4.4375,-4.1875,-0.328125,0.269043,0.1367188,0.3222656,-0.3266602,0.05273438
204,5,5.875,-4.8125,-0.5371094,0.3779297,0.04785156,0.3261719,-0.3266602,0.05664063
208,-6.4375,5.5,7.75,-0.6962891,0.2885742,-0.09375,0.3261719,-0.3291016,0.05517578
212,-7,-1.375,23.625,-0.6533203,0.237793,-0.1860352,0.324707,-0.3330078,0.05810547
216,4.6875,-4,27.625,-0.6342773,0.3466797,-0.1630859,0.3237305,-0.3344727,0.05810547
220,12.8125,-3.625,21.0625,-0.6923828,0.4594727,-0.2246094,0.3222656,-0.3369141,0.05957031
224,16.8125,-5.5,19.5625,-0.765625,0.5175781,-0.2246094,0.3198242,-0.3378906,0.06347656
228,19.1875,-6.125,21.5,-0.7192383,0.5527344,-0.1977539,0.3188477,-0.3378906,0.06494141
232,23.4375,-9.3125,26.9375,-0.6611328,0.5952148,-0.1474609,0.3154297,-0.3417969,0.06494141
236,24.625,-8.875,24.0625,-0.5756836,0.7197266,-0.06298828,0.3139648,-0.3417969,0.06640625
240,15.25,-1.1875,13.5625,-0.5566406,0.8481445,-0.01660156,0.3105469,-0.3417969,0.06787109
244,-1.8125,5.9375,1.875,-0.5874023,0.8442383,0.01367188,0.3105469,-0.3432617,0.06884766
248,-13.3125,12.1875,-4.0625,-0.5991211,0.7275391,-0.001464844,0.3105469,-0.3432617,0.06884766
252,-12.625,16.1875,-7.875,-0.5644531,0.6499023,0.02490234,0.3105469,-0.3432617,0.0703125
256,-1.6875,22.625,-11.125,-0.5605469,0.5410156,0.03662109,0.309082,-0.3408203,0.0703125
260,11,28.375,-12.375,-0.5605469,0.5488281,0.03662109,0.309082,-0.3408203,0.07324219
264,15.3125,34.75,-11.5625,-0.5683594,0.5722656,0.01367188,0.309082,-0.3393555,0.07714844
268,15.75,38.875,-14.8125,-0.5991211,0.6303711,-0.06298828,0.3071289,-0.3354492,0.08105469
272,9.5625,43,-16.8125,-0.6108398,0.6538086,-0.112793,0.3081055,-0.3330078,0.08398438
276,-1.1875,41.5,-14.4375,-0.6069336,0.6264648,-0.1206055,0.3056641,-0.3305664,0.09082031
280,-6.75,42.25,-16,-0.5795898,0.5952148,-0.05908203,0.3046875,-0.3256836,0.09472656
284,-5.875,47.4375,-18.875,-0.5913086,0.4790039,-0.04394531,0.3071289,-0.3232422,0.09619141
288,1.5,48.6875,-13.6875,-0.5605469,0.3583984,0.009765625,0.3032227,-0.3178711,0.1000977
292,10.75,53.25,-7.6875,-0.4711914,0.3349609,0.01708984,0.3007813,-0.3154297,0.105957
296,18.8125,61.3125,-7.5625,-0.5410156,0.4204102,-0.06689453,0.2983398,-0.3105469,0.1083984
300,18.3125,62.75,-10.1875,-0.7231445,0.4633789,-0.2592773,0.2939453,-0.3056641,0.1152344
304,9.6875,54.4375,-5.9375,-0.7387695,0.4594727,-0.2900391,0.2900391,-0.2993164,0.1220703
309,1.5,49.875,0.4375,-0.6342773,0.3974609,-0.2128906,0.2866211,-0.296875,0.1235352
313,3.4375,51.9375,7.1875,-0.5795898,0.3857422,-0.1245117,0.2841797,-0.2929688,0.1303711
317,9.25,56.8125,3.25,-0.6806641,0.4672852,-0.1474609,0.2773438,-0.2905273,0.1313477
321,4.375,59.1875,-3.9375,-0.7543945,0.4946289,-0.1782227,0.2758789,-0.2880859,0.1357422
325,-14,56,-4.375,-0.7192383,0.4204102,-0.1743164,0.2700195,-0.2841797,0.1396484
329,-23.5,49,7.9375,-0.6455078,0.2729492,-0.1591797,0.2641602,-0.2841797,0.1396484
333,-14.75,45.25,13.9375,-0.5756836,0.1445313,-0.1054688,0.2626953,-0.2832031,0.1411133
337,9.5,47.875,28.8125,-0.5874023,0.171875,-0.112793,0.2568359,-0.2841797,0.1396484
341,39.0625,50.9375,29.0625,-0.6147461,0.4125977,-0.1708984,0.25,-0.2792969,0.144043
345,52.0625,54.0625,14.1875,-0.6186523,0.6108398,-0.2167969,0.2451172,-0.2783203,0.1464844
349,42.3125,52.3125,6.3125,-0.6923828,0.7509766,-0.3476563,0.2402344,-0.2719727,0.1533203
353,22.125,44.125,9.4375,-0.7036133,0.7666016,-0.4130859,0.234375,-0.2705078,0.1547852
357,6.0625,39.4375,12.875,-0.699707,0.7705078,-0.4438477,0.230957,-0.265625,0.1572266
361,-2.875,38.875,8.0625,-0.7348633,0.8168945,-0.4975586,0.2246094,-0.265625,0.1586914
365,-8.4375,38.4375,-4.875,-0.7348633,0.8286133,-0.5131836,0.222168,-0.2631836,0.1586914
369,-17.25,40,-20.125,-0.7578125,0.8208008,-0.5708008,0.21875,-0.2592773,0.1616211
373,-32.8125,35.8125,-24.5625,-0.7929688,0.7470703,-0.6479492,0.21875,-0.2568359,0.1601563
377,-40.25,29.25,-25.25,-0.8198242,0.6538086,-0.6245117,0.2163086,-0.2558594,0.1601563
381,-40.625,28.3125,-27.8125,-0.8666992,0.6303711,-0.628418,0.215332,-0.2529297,0.1572266
385,-44.75,24.875,-26.25,-0.9438477,0.5991211,-0.6787109,0.2138672,-0.2529297,0.15625
389,-46.8125,14.375,-24.8125,-0.9208984,0.5332031,-0.6977539,0.2138672,-0.2519531,0.15625
393,-40.5,4.5625,-27.125,-0.878418,0.4750977,-0.6591797,0.2128906,-0.2519531,0.1518555
397,-31.6875,-1.1875,-29.375,-0.8549805,0.4399414,-0.6206055,0.2128906,-0.2529297,0.1479492
401,-25.625,-6.25,-26.75,-0.8974609,0.3974609,-0.574707,0.2138672,-0.2504883,0.1479492
405,-20.5625,-8.3125,-18.1875,-0.9169922,0.3623047,-0.5244141,0.2138672,-0.2495117,0.1450195
409,-17,-14.8125,-7.25,-1.176758,0.3583984,-0.6401367,0.2163086,-0.2480469,0.1425781
413,-18.3125,-50.1875,17.8125,-0.8085938,0.284668,-0.4091797,0.215332,-0.2495117,0.1381836
417,6,-34.25,8.1875,-0.765625,0.4013672,-0.3666992,0.2177734,-0.2470703,0.137207
421,18.5,-33.5,-6.6875,-0.78125,0.5019531,-0.3632813,0.2163086,-0.2480469,0.1342773
425,21.9375,-32.0625,-15.75,-0.8198242,0.5136719,-0.378418,0.2177734,-0.2456055,0.1328125
429,14.75,-32,-9.75,-0.8393555,0.5097656,-0.4321289,0.2211914,-0.2416992,0.1328125
433,10.8125,-37.75,-1.8125,-0.8818359,0.5527344,-0.4360352,0.2202148,-0.2382813,0.1303711
438,9,-40.0625,-3.5,-0.8935547,0.6108398,-0.4321289,0.222168,-0.2382813,0.1274414
442,7.625,-40.5,-9.125,-0.8549805,0.6303711,-0.3706055,0.222168,-0.2382813,0.1274414
446,6.5,-36.8125,-17.0625,-0.8666992,0.6147461,-0.3745117,0.2236328,-0.2358398,0.1220703
450,8.1875,-35.0625,-21.6875,-0.8974609,0.5839844,-0.4013672,0.2270508,-0.2329102,0.1206055
454,12.3125,-37.125,-22.5,-0.9711914,0.5913086,-0.4438477,0.2270508,-0.2329102,0.1181641
458,15.4375,-39.6875,-25.125,-0.9829102,0.6459961,-0.4399414,0.2319336,-0.2319336,0.1166992
462,6.875,-36.75,-23.9375,-1.009766,0.6616211,-0.3862305,0.2329102,-0.2270508,0.1137695
466,-0.1875,-33.5,-19.625,-1.025391,0.5913086,-0.359375,0.2329102,-0.2270508,0.1113281
470,3.4375,-30.375,-17.8125,-1.048828,0.5683594,-0.3286133,0.2353516,-0.2255859,0.1083984
474,11.75,-29.25,-19.75,-1.067871,0.5800781,-0.3168945,0.237793,-0.2216797,0.1083984
478,18.3125,-21.9375,-23.5625,-1.029297,0.5839844,-0.2670898,0.2392578,-0.2207031,0.1069336
482,17.6875,-12,-24.0625,-1.044922,0.5878906,-0.2900391,0.2412109,-0.2182617,0.105957
486,14.5625,-6.5,-24.0625,-1.052734,0.5878906,-0.324707,0.2426758,-0.2158203,0.1083984
490,12,-3.5,-23.375,-1.017578,0.5761719,-0.3129883,0.2426758,-0.2128906,0.1069336
494,9.1875,2.75,-25.8125,-1.048828,0.5761719,-0.324707,0.2436523,-0.2104492,0.1069336
498,-0.125,6.5625,-24.875,-1.044922,0.5097656,-0.324707,0.2460938,-0.2104492,0.1098633
502,-5.3125,9.9375,-17.75,-1.071777,0.3896484,-0.3515625,0.2475586,-0.2070313,0.1113281
506,0,8.6875,-8,-1.095215,0.3081055,-0.378418,0.2475586,-0.2045898,0.1098633
510,10.9375,7.375,-1.375,-1.083496,0.3740234,-0.4052734,0.2475586,-0.2055664,0.1123047
514,19.4375,8.6875,-0.875,-1.044922,0.4672852,-0.4169922,0.2460938,-0.2055664,0.1098633
518,21.875,11.5625,-4.5625,-1.063965,0.5761719,-0.4360352,0.2475586,-0.203125,0.1123047
522,19.0625,14.9375,-10.1875,-1.063965,0.6303711,-0.4746094,0.2475586,-0.2045898,0.1181641
526,10.8125,18.5625,-11.8125,-1.106934,0.6342773,-0.5322266,0.2475586,-0.2045898,0.1181641
530,3.3125,17.1875,-10.9375,-1.161133,0.6225586,-0.59375,0.2475586,-0.203125,0.1191406
534,-4.75,12.0625,-8,-1.180664,0.6069336,-0.6132813,0.2475586,-0.203125,0.1220703
538,-14.375,6.625,-2.125,-1.172852,0.5605469,-0.5898438,0.2485352,-0.203125,0.1206055
542,-13.3125,4.375,-0.375,-1.149414,0.4907227,-0.5551758,0.2485352,-0.2055664,0.1206055
546,14.1875,0.8125,-8.9375,-1.257813,0.4438477,-0.5551758,0.2519531,-0.2070313,0.1206055
550,43,-4.5625,-17,-1.261719,0.5449219,-0.5131836,0.2519531,-0.203125,0.1220703
554,50.5,2.625,-24.8125,-1.265625,0.7158203,-0.4321289,0.2558594,-0.203125,0.1259766
558,35.25,12.5625,-31.9375,-1.296875,0.7739258,-0.4208984,0.2592773,-0.1982422,0.1303711
562,9.375,17.3125,-31,-1.273438,0.7041016,-0.4555664,0.2592773,-0.1958008,0.1328125
567,-11.9375,14.6875,-23.125,-1.265625,0.5449219,-0.5014648,0.2602539,-0.1943359,0.137207
571,-21.375,4.8125,-12.3125,-1.211426,0.4013672,-0.5322266,0.2651367,-0.1967773,0.137207
575,-18.1875,-4.875,-8.4375,-1.083496,0.2651367,-0.4360352,0.2675781,-0.1967773,0.1396484
579,4.375,-8.375,-17.4375,-0.9594727,0.1601563,-0.4013672,0.269043,-0.1967773,0.1396484
583,30.0625,-16.5625,-25.125,-0.9399414,0.1484375,-0.3632813,0.2749023,-0.1982422,0.1425781
587,48,-22.25,-20.125,-0.9477539,0.1679688,-0.3398438,0.2773438,-0.1967773,0.144043
591,39.6875,-37.5625,10.75,-1.029297,0.2807617,-0.3208008,0.2817383,-0.1943359,0.1464844
595,36.75,-54.875,21.375,-0.9169922,0.3505859,-0.2939453,0.2866211,-0.1943359,0.1464844
599,58.75,-59.5,-3.0625,-0.730957,0.4086914,-0.3051758,0.2915039,-0.1967773,0.1464844
603,73.5625,-65.625,-24.0625,-0.7773438,0.3857422,-0.3286133,0.2998047,-0.1958008,0.1479492
607,69.3125,-71.8125,-14.4375,-0.7270508,0.3740234,-0.2089844,0.3081055,-0.1879883,0.1479492
611,52,-72.4375,3.9375,-0.6572266,0.2456055,-0.0859375,0.3139648,-0.1870117,0.1494141
615,34.625,-87.75,35,-0.5253906,0.1523438,-0.0859375,0.3237305,-0.1879883,0.1464844
619,56.5,-74.75,20.6875,-0.3203125,0.1254883,0.01708984,0.3354492,-0.1894531,0.1450195
623,56.375,-59.3125,-0.75,-0.3588867,0.3349609,0.1787109,0.3413086,-0.1904297,0.144043
627,32.9375,-45.5625,-6.25,-0.3354492,0.3349609,0.159668,0.3496094,-0.1879883,0.144043
631,13.875,-36.625,3.4375,-0.2734375,0.02050781,0.2519531,0.3603516,-0.1879883,0.1450195
635,30.3125,-26.125,14.6875,-0.3588867,-0.06445313,0.2597656,0.3662109,-0.1918945,0.1450195
639,47.5,-3.5625,12.75,-0.7192383,0.140625,-0.112793,0.3725586,-0.1918945,0.1479492
643,43.875,-19,22.875,-0.9248047,0.284668,-0.3129883,0.3793945,-0.1943359,0.1533203
647,30.5,-28.375,23.75,-0.6108398,0.3271484,-0.1708984,0.3833008,-0.1958008,0.1572266
651,20.5,-16.1875,20.25,-0.4521484,0.2885742,-0.03222656,0.3925781,-0.2006836,0.1586914
655,12.5,-7.1875,23.6875,-0.5141602,0.2299805,0.07519531,0.3974609,-0.203125,0.1616211
659,16,3.1875,23,-0.7387695,0.2651367,-0.1821289,0.4023438,-0.2094727,0.1669922
663,16.1875,-3.1875,25.4375,-0.8276367,0.3232422,-0.2900391,0.4057617,-0.2128906,0.1708984
667,5.1875,-9.9375,29.9375,-0.8046875,0.3623047,-0.3359375,0.4091797,-0.2182617,0.1791992
671,-3.4375,-18,31.6875,-0.5795898,0.3544922,-0.1977539,0.4116211,-0.2216797,0.1806641
675,-5.125,-5.25,21.25,-0.5175781,0.4013672,-0.1552734,0.4165039,-0.2294922,0.1821289
679,-5.5625,6.6875,10.375,-0.715332,0.4125977,-0.2861328,0.4165039,-0.234375,0.1845703
683,-10.25,-0.1875,10.9375,-0.847168,0.3818359,-0.3706055,0.4165039,-0.234375,0.1875
687,-17.8125,-4.6875,13.4375,-0.7734375,0.3583984,-0.3012695,0.4174805,-0.2392578,0.1889648
691,-20,-6.625,15.125,-0.746582,0.3544922,-0.1821289,0.4199219,-0.2441406,0.1899414
696,-21.625,-2.125,11.5625,-0.6533203,0.4086914,-0.0859375,0.4213867,-0.2480469,0.1889648
700,-24.125,9.6875,3.375,-0.7036133,0.4594727,-0.08203125,0.4213867,-0.2519531,0.1899414
704,-29.9375,14.125,-1.4375,-0.7578125,0.4204102,-0.1821289,0.4199219,-0.2543945,0.1914063
708,-22.1875,8.75,-0.4375,-0.7695313,0.253418,-0.2167969,0.4189453,-0.2558594,0.1914063
712,-5.1875,8.125,1.0625,-0.6728516,0.3081055,-0.1015625,0.4165039,-0.2583008,0.1899414
716,-0.125,17.6875,1.75,-0.6533203,0.3974609,-0.04736328,0.4125977,-0.2592773,0.1889648
720,-1.75,24.1875,2.125,-0.6767578,0.4125977,-0.05126953,0.4082031,-0.2592773,0.1914063
724,-1,30.25,0.0625,-0.715332,0.4204102,-0.2055664,0.4008789,-0.2558594,0.1928711
728,-2.5625,28.625,0.625,-0.78125,0.4594727,-0.3051758,0.3925781,-0.2519531,0.1928711
732,-6,23.9375,0.1875,-0.7387695,0.4868164,-0.2861328,0.3852539,-0.2519531,0.1928711
736,-3.0625,23,-2.875,-0.6767578,0.4321289,-0.1899414,0.3808594,-0.2504883,0.1928711
740,6.6875,31.8125,-14.8125,-0.878418,0.4243164,-0.4863281,0.3745117,-0.2456055,0.1943359
744,10.125,12.5,-8,-0.9946289,0.3388672,-0.559082,0.3701172,-0.2431641,0.1914063
748,7.5625,0.75,2.375,-0.765625,0.3583984,-0.359375,0.3676758,-0.2392578,0.1899414
752,3.1875,4.0625,7.125,-0.6225586,0.4052734,-0.1552734,0.362793,-0.2407227,0.1860352
756,-0.25,14.4375,2.5625,-0.6962891,0.4399414,-0.1860352,0.3603516,-0.2382813,0.1831055
760,-1.1875,14,-0.25,-0.7695313,0.4672852,-0.2436523,0.3579102,-0.2368164,0.1821289
764,-2.375,13.0625,-5.25,-0.8588867,0.3974609,-0.3515625,0.3544922,-0.234375,0.1791992
768,-0.6875,1.25,-1.375,-0.746582,0.3232422,-0.2246094,0.3496094,-0.2319336,0.1777344
772,-1.625,9.9375,3.6875,-0.5722656,0.2924805,-0.1323242,0.347168,-0.2319336,0.1738281
776,-3.8125,20.8125,5.375,-0.6455078,0.3583984,-0.2089844,0.3427734,-0.2280273,0.1708984
780,-2.5,19.3125,3.9375,-0.8085938,0.3662109,-0.3476563,0.3388672,-0.2319336,0.1708984
784,-6.25,14,1.9375,-0.715332,0.4399414,-0.2822266,0.3354492,-0.2280273,0.168457
788,-13.8125,14.5625,-0.25,-0.6923828,0.4477539,-0.2397461,0.3305664,-0.2270508,0.1655273
792,-16.875,17,-6.75,-0.6030273,0.4399414,-0.1362305,0.3295898,-0.2280273,0.1655273
796,-18.0625,27.9375,-14.25,-0.730957,0.4790039,-0.2822266,0.324707,-0.2255859,0.1630859
800,-23.625,23.9375,-18.0625,-0.8510742,0.5175781,-0.3515625,0.3212891,-0.2231445,0.1586914
804,-36.25,19.5625,-17.375,-0.8198242,0.4672852,-0.3632813,0.3164063,-0.2207031,0.15625
808,-41.8125,15.5,-17.1875,-0.7075195,0.3120117,-0.2363281,0.3173828,-0.2192383,0.15625
812,-33.8125,20.375,-13.1875,-0.699707,0.2416992,-0.1513672,0.3139648,-0.2192383,0.1518555
816,-19.8125,22.5,-11.9375,-0.7929688,0.2729492,-0.1708984,0.3115234,-0.2158203,0.1494141
820,-12.625,28.4375,-14.4375,-0.831543,0.3857422,-0.3129883,0.3071289,-0.2158203,0.1464844
825,-18.75,23.625,-17.9375,-0.9169922,0.5175781,-0.4169922,0.3046875,-0.2128906,0.1494141
829,-33.8125,13.625,-19.875,-0.8857422,0.4790039,-0.4013672,0.3007813,-0.2128906,0.1464844
833,-41.4375,9.6875,-18.75,-0.8354492,0.3505859,-0.2592773,0.3022461,-0.2119141,0.144043
837,-37.6875,13.25,-10.1875,-0.8818359,0.2338867,-0.2397461,0.3007813,-0.2094727,0.1411133
841,-24,13.125,-5,-0.9326172,0.2226563,-0.2900391,0.2973633,-0.2128906,0.1381836
845,-12.125,9.3125,-3.875,-0.9516602,0.315918,-0.3823242,0.2973633,-0.2128906,0.1381836
849,-13.4375,2.8125,-5.6875,-0.8974609,0.4125977,-0.3129883,0.2949219,-0.2128906,0.1357422
853,-24.1875,0.625,-4.1875,-0.847168,0.4125977,-0.2553711,0.2963867,-0.2119141,0.1328125
857,-36.125,-0.6875,2.5625,-0.878418,0.3505859,-0.2246094,0.2915039,-0.2128906,0.1313477
861,-31.0625,-1.6875,7.8125,-0.9555664,0.300293,-0.3168945,0.2900391,-0.2158203,0.1289063
865,-18.25,-6.9375,6.25,-0.9868164,0.3857422,-0.4052734,0.2915039,-0.2158203,0.1259766
869,-12.8125,-13.6875,0.25,-0.9130859,0.4399414,-0.3632813,0.2900391,-0.2167969,0.1220703
873,-22.875,-16.125,-4,-0.8588867,0.4907227,-0.309082,0.2880859,-0.2182617,0.1191406
877,-42.625,-19.6875,1,-0.8745117,0.4438477,-0.2363281,0.2880859,-0.2158203,0.1166992
881,-50.75,-21.6875,12.1875,-0.9013672,0.3427734,-0.1821289,0.2880859,-0.2182617,0.1083984
885,-36.6875,-22.125,12,-0.9399414,0.284668,-0.1708984,0.2856445,-0.2207031,0.1069336
889,-20.5625,-22.875,8.875,-0.9169922,0.3427734,-0.1630859,0.2841797,-0.2216797,0.1000977
893,-13.375,-18.75,5.0625,-0.8549805,0.4125977,-0.1860352,0.2841797,-0.2231445,0.09912109
897,-16.625,-16.375,0.3125,-0.9130859,0.4750977,-0.2744141,0.2832031,-0.2216797,0.09619141
901,-30.1875,-20.625,2.8125,-0.8745117,0.4555664,-0.2592773,0.2807617,-0.2246094,0.09082031
905,-37,-20.9375,4.4375,-0.9013672,0.4086914,-0.2553711,0.2807617,-0.2255859,0.08691406
909,-33.125,-23.9375,4.1875,-0.9438477,0.3427734,-0.1821289,0.2807617,-0.2270508,0.08105469
913,-21.6875,-25.4375,6.25,-0.9711914,0.3388672,-0.1591797,0.2783203,-0.2280273,0.07861328
917,-13.625,-28.5,8.0625,-0.9365234,0.4052734,-0.1362305,0.2783203,-0.2294922,0.07421875
921,-6.8125,-31,2.6875,-0.8745117,0.4790039,-0.1591797,0.2773438,-0.2294922,0.07177734
925,-2.875,-30.4375,-7.5,-0.8896484,0.5332031,-0.128418,0.2773438,-0.2304688,0.06787109
929,-10.125,-25.625,-10.9375,-0.8857422,0.5019531,-0.08203125,0.2758789,-0.2294922,0.06640625
933,-17.9375,-25.6875,-5.3125,-0.8935547,0.4086914,-0.06689453,0.2773438,-0.2280273,0.06103516
937,-10.9375,-28.5625,-1.75,-0.8818359,0.3505859,-0.08984375,0.2773438,-0.2270508,0.05957031
941,7.625,-30.125,-2.0625,-0.9052734,0.2416992,-0.06298828,0.2773438,-0.2270508,0.05419922
945,27.875,-27.625,9.75,-0.9052734,0.09423828,-0.009277344,0.2758789,-0.2255859,0.05273438
949,50.125,-21.6875,10.75,-0.8706055,-0.002441406,0.001953125,0.2724609,-0.2231445,0.05273438
954,64.8125,-17.3125,22.625,-1.005859,0.1020508,-0.1401367,0.2724609,-0.2231445,0.05517578
958,62.875,-27.125,44.1875,-1.11084,0.2807617,-0.2514648,0.269043,-0.2246094,0.05517578
962,56.4375,-36.625,55.9375,-1.103027,0.4594727,-0.2475586,0.2666016,-0.2270508,0.05273438
966,46.5625,-37.4375,58.4375,-1.037109,0.6069336,-0.1782227,0.2617188,-0.2304688,0.05126953
970,40.5,-34.625,54.6875,-1.017578,0.6694336,-0.1552734,0.2583008,-0.2304688,0.05273438
974,39.9375,-33.0625,46.5625,-1.037109,0.7431641,-0.1630859,0.2558594,-0.2368164,0.05126953
978,41.375,-30.3125,36.4375,-0.9750977,0.8168945,-0.1591797,0.2519531,-0.2382813,0.04980469
982,34.375,-23.625,27.3125,-0.9907227,0.90625,-0.1630859,0.2509766,-0.2407227,0.04882813
986,24.3125,-23.9375,18.5,-1.07959,0.90625,-0.2016602,0.25,-0.2407227,0.04882813
990,1.25,-34.1875,27.3125,-1.044922,0.9643555,-0.09375,0.2475586,-0.2431641,0.04882813
994,-8,-13.875,8.8125,-0.8896484,0.9604492,-0.04394531,0.2460938,-0.2431641,0.04589844
998,-22.375,-3.875,-9.3125,-1.005859,1.015137,-0.112793,0.2485352,-0.2431641,0.04296875
1002,-43.375,1.75,-20.6875,-0.9985352,0.9257813,-0.1435547,0.2475586,-0.2416992,0.04296875
1006,-54.8125,6.9375,-29.6875,-1.025391,0.7626953,-0.1474609,0.2485352,-0.2407227,0.04052734
1010,-50.9375,7.625,-34.25,-1.087402,0.5722656,-0.1362305,0.2509766,-0.2382813,0.0390625
1014,-41.6875,5.8125,-28.625,-1.129883,0.4125977,-0.112793,0.2543945,-0.2368164,0.03613281
1018,-25.8125,1.3125,-19.25,-1.141602,0.3505859,-0.09375,0.2558594,-0.2358398,0.03613281
1022,-10.625,-3.125,-12.9375,-1.071777,0.3935547,-0.07080078,0.2543945,-0.2368164,0.03613281
1026,-2.875,3.5625,-12.9375,-0.9750977,0.4985352,-0.02050781,0.2583008,-0.2358398,0.03515625
1030,-5.9375,14.9375,-18.25,-1.001953,0.6147461,-0.03613281,0.2592773,-0.234375,0.03515625
1034,-17.5625,18.125,-20.6875,-1.071777,0.6420898,-0.08984375,0.2592773,-0.2368164,0.03515625
1038,-27.4375,17.75,-19,-1.106934,0.5566406,-0.1323242,0.2602539,-0.234375,0.03759766
1042,-25.3125,13.6875,-17.5625,-1.165039,0.4516602,-0.1630859,0.2641602,-0.2329102,0.0390625
1046,-15.625,6.4375,-7.75,-1.211426,0.3427734,-0.1938477,0.2626953,-0.234375,0.03613281
1050,2.0625,1.4375,0.25,-1.067871,0.3505859,-0.09765625,0.2641602,-0.2368164,0.03613281
1054,15.75,8.75,-5.25,-0.9985352,0.5292969,-0.06689453,0.2666016,-0.2368164,0.03613281
1058,9.375,19.25,-17.5,-0.9711914,0.7041016,-0.04736328,0.2675781,-0.2368164,0.03759766
1062,-10.75,31.25,-26.75,-1.071777,0.7119141,-0.09375,0.269043,-0.2358398,0.04052734
1066,-25.25,31.25,-26.5625,-1.195801,0.5136719,-0.1708984,0.2734375,-0.234375,0.04296875
1070,-19.5,22.375,-19.4375,-1.265625,0.2885742,-0.2397461,0.2749023,-0.2319336,0.04443359
1074,-5.0625,7.75,-3.125,-1.257813,0.2265625,-0.2475586,0.2773438,-0.2329102,0.04443359
1078,3.8125,1.3125,9.8125,-1.087402,0.315918,-0.1513672,0.2773438,-0.2358398,0.04589844
1083,13.5,8.5,4.5625,-0.9399414,0.4594727,-0.04394531,0.2792969,-0.234375,0.04443359
1087,14.0625,20.625,-13.625,-0.9477539,0.6459961,-0.05517578,0.2832031,-0.2358398,0.04736328
1091,2.875,25.375,-24.8125,-1.021484,0.6499023,-0.1552734,0.2856445,-0.234375,0.05126953
1095,-2.8125,23.375,-28.3125,-1.114746,0.5371094,-0.2900391,0.2866211,-0.2368164,0.05273438
1099,1.625,8.0625,-21.875,-1.242188,0.3583984,-0.3974609,0.2900391,-0.2358398,0.05419922
1103,9.5,-15.5,-2.375,-1.15332,0.300293,-0.3168945,0.2949219,-0.234375,0.05517578
1107,21.75,-26.3125,3.375,-0.9130859,0.3232422,-0.1899414,0.2973633,-0.2368164,0.05517578
1111,38.4375,-18.4375,-12.375,-0.7617188,0.4594727,-0.1054688,0.2998047,-0.2368164,0.05664063
1115,57.5,-12.75,-46.125,-0.8818359,0.5292969,-0.2246094,0.3071289,-0.234375,0.05957031
1119,73.5625,-20.625,-75.25,-0.9365234,0.4985352,-0.2939453,0.3105469,-0.2304688,0.06103516
1123,62.75,-25.75,-71.875,-0.9399414,0.4555664,-0.3129883,0.3198242,-0.2246094,0.06201172
1127,33.625,-34.4375,-42.375,-1.001953,0.3662109,-0.3129883,0.3271484,-0.2167969,0.06347656
1131,8.9375,-45.875,-23.4375,-0.847168,0.284668,-0.1782227,0.3320313,-0.2128906,0.06201172
1135,17.5,-49.8125,-24.9375,-0.6572266,0.1914063,0.001953125,0.3378906,-0.2119141,0.05664063
1139,36.6875,-34,-44.75,-0.7036133,0.2924805,-0.005371094,0.34375,-0.2119141,0.05664063
1143,28.4375,-38.8125,-47.375,-0.878418,0.3544922,-0.05126953,0.3486328,-0.2070313,0.05419922
1147,4.5625,-53.0625,-29.75,-0.6572266,0.2651367,0.1289063,0.3535156,-0.203125,0.04882813
1151,-3.25,-47.75,-10.625,-0.4750977,0.1137695,0.2675781,0.3603516,-0.2006836,0.04296875
1155,19.4375,-38.8125,-4.8125,-0.5024414,0.09423828,0.2983398,0.3642578,-0.2045898,0.0390625
1159,36.4375,-33.9375,-5.3125,-0.6416016,0.203125,0.1865234,0.3676758,-0.2055664,0.03515625
1163,33.875,-35.25,-1.75,-0.6533203,0.2885742,0.159668,0.3701172,-0.2045898,0.03222656
1167,29.875,-31.25,0.875,-0.6303711,0.253418,0.1865234,0.3745117,-0.2070313,0.03222656
1171,27,-30.375,7.375,-0.6455078,0.2612305,0.140625,0.3769531,-0.2055664,0.02685547
1175,20.75,-27.375,9.9375,-0.5175781,0.3701172,0.2368164,0.3793945,-0.2094727,0.02392578
1179,16.0625,-13.3125,-1.0625,-0.5795898,0.3896484,0.1713867,0.3808594,-0.2104492,0.02294922
1183,6.5625,-4.4375,-12,-0.6108398,0.3740234,0.08642578,0.3833008,-0.2128906,0.02148438
1187,4.375,-2.625,-11.6875,-0.7617188,0.2573242,-0.02441406,0.3833008,-0.2104492,0.02001953
1191,0.375,-7.75,-8.5,-0.8085938,0.237793,-0.1362305,0.3842773,-0.2094727,0.02001953
1195,-5.5625,-12.8125,-5.625,-0.730957,0.2807617,-0.1206055,0.3876953,-0.2119141,0.01708984
1199,-10.3125,-9.8125,-9.625,-0.796875,0.2612305,-0.2055664,0.3901367,-0.2119141,0.01611328
1203,-12.5,-14.5,-17.625,-0.8164063,0.253418,-0.34375,0.3901367,-0.2070313,0.01611328
1207,-15.4375,-23.625,-27.375,-0.8085938,0.253418,-0.5400391,0.3916016,-0.2070313,0.009277344
1212,-21.3125,-41.125,-32.6875,-0.9672852,0.2070313,-0.59375,0.3925781,-0.2045898,0.004882813
1216,-44.8125,-68.5625,-22.4375,-0.8354492,0.300293,-0.3823242,0.3935547,-0.203125,0
1220,-79.25,-79.375,-19.0625,-0.6416016,0.3544922,-0.05126953,0.3959961,-0.2006836,-0.01367188
1224,-90.125,-70.375,-30.8125,-0.7036133,0.2416992,0.03271484,0.3959961,-0.1967773,-0.02832031
1228,-83.9375,-72.5625,-29.625,-0.7617188,0.09814453,0.2094727,0.3950195,-0.1958008,-0.03662109
1232,-61.5625,-64.3125,-24.4375,-0.7348633,0.004882813,0.3828125,0.3950195,-0.1933594,-0.04882813
1236,-40.0625,-48.6875,-10.875,-0.6884766,-0.02587891,0.5634766,0.3950195,-0.1894531,-0.06103516
1240,-15.25,-26.875,-1.1875,-0.7504883,-0.02197266,0.5405273,0.3950195,-0.1894531,-0.0625
1244,2.4375,-7,5.0625,-0.730957,0.105957,0.4287109,0.3950195,-0.1894531,-0.06542969
1248,12.1875,4.375,9.5,-0.8896484,0.2070313,0.2944336,0.3925781,-0.1904297,-0.06640625
1252,16.4375,7.4375,6.75,-0.8549805,0.3505859,0.1943359,0.3901367,-0.1904297,-0.06640625
1256,13.9375,11.6875,3.3125,-0.9365234,0.3623047,0.1289063,0.3925781,-0.1918945,-0.0625
1260,10.6875,8.125,4.625,-0.9711914,0.2456055,0.09814453,0.3925781,-0.1933594,-0.06103516
1264,8.625,5.875,15.5625,-0.9399414,0.2338867,0.140625,0.3916016,-0.1918945,-0.05957031
1268,9.625,7.1875,18.6875,-0.9169922,0.2807617,0.140625,0.3891602,-0.1943359,-0.05859375
1272,9.9375,6.5625,14.5625,-0.9013672,0.4321289,0.1674805,0.3891602,-0.1958008,-0.05859375
1276,3.875,9.625,6.875,-0.9052734,0.4555664,0.1943359,0.3876953,-0.1967773,-0.05566406
1280,1.125,12.1875,0.6875,-0.9091797,0.3740234,0.2211914,0.3891602,-0.1992188,-0.05566406
1284,0.3125,14.75,0.8125,-0.8510742,0.3232422,0.3442383,0.3876953,-0.1967773,-0.05273438
1288,-1.125,26.1875,0.75,-0.7890625,0.2612305,0.3710938,0.3891602,-0.1982422,-0.05029297
1292,3.25,37.1875,6.9375,-0.7695313,0.203125,0.3828125,0.3901367,-0.1992188,-0.04638672
1296,17.125,50.4375,3.875,-0.7890625,0.1796875,0.2709961,0.3891602,-0.2006836,-0.03955078
1300,28.0625,56.625,-0.3125,-0.8085938,0.1796875,0.07519531,0.3901367,-0.2006836,-0.03515625
1304,25.25,51.0625,5.1875,-0.8974609,0.2226563,-0.04003906,0.3901367,-0.2016602,-0.02441406
1308,13.6875,43.625,13.125,-0.7929688,0.2963867,0.05566406,0.3901367,-0.2006836,-0.01904297
1312,7.0625,44.625,16.0625,-0.7387695,0.3310547,0.1904297,0.3891602,-0.2016602,-0.01367188
1316,2.125,50.8125,13.375,-0.6108398,0.2768555,0.2094727,0.3876953,-0.2045898,-0.008300781
1320,8.875,62.8125,7.1875,-0.7192383,0.15625,0.02099609,0.3852539,-0.2055664,0.0009765625
1324,16.6875,61.375,10.875,-0.8125,0.1176758,-0.1591797,0.3842773,-0.2045898,0.006347656
1328,9.75,47.3125,24,-0.831543,0.2338867,-0.1474609,0.3818359,-0.2055664,0.01464844
1332,-8.5625,39.125,31.5,-0.699707,0.3583984,0.03271484,0.378418,-0.2070313,0.02148438
1336,-18.8125,41.9375,34.8125,-0.5991211,0.3310547,0.1518555,0.3769531,-0.2094727,0.02392578
1341,-12.4375,57.4375,28,-0.5102539,0.2963867,0.1479492,0.3745117,-0.2128906,0.03076172
1345,3.9375,72.5,14.875,-0.6962891,0.2495117,-0.1591797,0.3686523,-0.2128906,0.0390625
1349,11,63.9375,15.0625,-0.9091797,0.2456055,-0.3554688,0.3652344,-0.2143555,0.04589844
1353,-3.0625,44.5625,27.0625,-0.8818359,0.3505859,-0.3398438,0.3618164,-0.2158203,0.05517578
1357,-23.125,33.3125,38.5,-0.7695313,0.3974609,-0.1591797,0.3569336,-0.2167969,0.05664063
1361,-36,36.4375,41.125,-0.7075195,0.3505859,-0.03222656,0.3535156,-0.2207031,0.06103516
1365,-18.6875,50.5,30.25,-0.7231445,0.2148438,-0.06689453,0.347168,-0.2231445,0.06201172
1369,6,54,24.6875,-0.8896484,0.21875,-0.2055664,0.34375,-0.2270508,0.06494141
1373,15.5,45.0625,31.375,-0.9091797,0.300293,-0.2553711,0.340332,-0.2280273,0.07177734
1377,14.125,37.4375,35.1875,-0.8896484,0.4204102,-0.2397461,0.3354492,-0.2304688,0.07714844
1381,4.75,29,34.875,-0.8393555,0.5019531,-0.1630859,0.3295898,-0.2304688,0.08007813
1385,-2.8125,31.3125,29.25,-0.746582,0.4946289,-0.07470703,0.324707,-0.2329102,0.08105469
1389,-3.875,35.0625,25.0625,-0.8046875,0.4165039,-0.1708984,0.3212891,-0.2368164,0.08398438
1393,2.5,31.9375,21.6875,-0.8588867,0.4399414,-0.2631836,0.3164063,-0.2358398,0.08544922
1397,6.875,24.875,17.375,-0.8896484,0.4516602,-0.2978516,0.3105469,-0.2358398,0.08789063
1401,3.9375,17.3125,19.375,-0.8354492,0.4946289,-0.2246094,0.309082,-0.2368164,0.08691406
1405,-3.9375,15.6875,16.375,-0.7387695,0.5292969,-0.1552734,0.3046875,-0.2392578,0.08789063
1409,-10.0625,16.4375,5.5625,-0.7578125,0.5527344,-0.1591797,0.3022461,-0.2382813,0.08789063
1413,-11.4375,23.0625,-8.375,-0.8085938,0.4477539,-0.1899414,0.3007813,-0.2382813,0.08935547
1417,-9.8125,19.9375,-11.9375,-0.9516602,0.3310547,-0.2783203,0.2949219,-0.2329102,0.08789063
1421,-3.625,9.5,-2.6875,-0.9208984,0.2963867,-0.2822266,0.2939453,-0.2358398,0.09082031
1425,-0.5,2.5,1.0625,-0.8432617,0.3896484,-0.2670898,0.2924805,-0.234375,0.08789063
1429,-3.625,1.8125,-5.5625,-0.8549805,0.4672852,-0.2705078,0.2915039,-0.2319336,0.08935547
1433,-17.1875,3.3125,-12.125,-0.9013672,0.4086914,-0.2705078,0.2880859,-0.234375,0.08789063
1437,-22.3125,-0.125,-8.125,-0.9399414,0.2495117,-0.324707,0.2880859,-0.2319336,0.08544922
1441,-16.75,-7.875,0,-0.9633789,0.2338867,-0.3476563,0.2856445,-0.2304688,0.08544922
1445,-6.3125,-18.5,6.5,-0.8896484,0.2885742,-0.3168945,0.2841797,-0.2319336,0.08251953
1449,1.875,-20.5,2.25,-0.9052734,0.4165039,-0.2900391,0.2832031,-0.2304688,0.07714844
1453,-1.75,-20.1875,-7.75,-0.8935547,0.4790039,-0.2436523,0.2792969,-0.2304688,0.07714844
1457,-14.9375,-21.5625,-3.8125,-0.9711914,0.3701172,-0.2592773,0.2773438,-0.2270508,0.07421875
1461,-14.625,-28.1875,4.125,-0.9091797,0.2612305,-0.2128906,0.2783203,-0.2255859,0.07177734
1465,-1.5,-31.6875,10,-0.8549805,0.284668,-0.1474609,0.2773438,-0.2270508,0.06640625
1470,15,-31.1875,8.75,-0.8706055,0.4052734,-0.07470703,0.2749023,-0.2255859,0.06347656
1474,20.9375,-27.0625,6.375,-0.9130859,0.4790039,-0.02441406,0.2749023,-0.2255859,0.06201172
1478,20.875,-24.5625,4.75,-0.9672852,0.5058594,-0.02441406,0.2709961,-0.2231445,0.05957031
1482,20.9375,-25.375,3,-0.9594727,0.4946289,-0.05126953,0.269043,-0.2246094,0.06103516
1486,18.625,-24.0625,2,-0.9438477,0.5371094,-0.1206055,0.2666016,-0.2216797,0.05810547
1490,17.4375,-28.25,-1.4375,-1.063965,0.5527344,-0.2055664,0.2666016,-0.2207031,0.05810547
1494,15.5625,-33.25,-4.375,-1.060547,0.5214844,-0.1669922,0.2666016,-0.2207031,0.05664063
1498,11.8125,-27.875,-11.75,-1.017578,0.5097656,-0.1015625,0.2641602,-0.2192383,0.05517578
1502,11.625,-26.1875,-18.8125,-1.125977,0.4555664,-0.2207031,0.2651367,-0.2158203,0.05273438
1506,13.25,-30.5,-22.625,-1.133789,0.4321289,-0.2670898,0.2641602,-0.2128906,0.05273438
1510,14.375,-31.875,-24.8125,-1.203613,0.3740234,-0.3012695,0.2666016,-0.2094727,0.05126953
1514,8.5,-31.9375,-16.125,-1.195801,0.3271484,-0.2397461,0.2675781,-0.2070313,0.04980469
1518,3.8125,-30.125,-9.1875,-1.157227,0.3193359,-0.1977539,0.2675781,-0.203125,0.04589844
1522,5.0625,-27.5625,-9.3125,-1.137695,0.3818359,-0.1938477,0.2675781,-0.2016602,0.04589844
1526,4.5625,-22.1875,-13.25,-1.335449,0.3544922,-0.2207031,0.2675781,-0.1992188,0.04443359
1530,-1.3125,-36.25,-4.125,-1.083496,0.3505859,-0.005371094,0.269043,-0.1967773,0.04052734
1534,3.9375,-13.1875,-13.1875,-1.075684,0.4321289,-0.01660156,0.2675781,-0.1958008,0.04052734
1538,-1,-13.375,-10.8125,-1.149414,0.4438477,-0.06689453,0.269043,-0.1943359,0.0390625
1542,-2.375,-9.375,-9.8125,-1.103027,0.4282227,-0.06689453,0.2666016,-0.1943359,0.03759766
1546,1.875,-7.25,-13.375,-1.103027,0.4477539,-0.06298828,0.2700195,-0.1933594,0.0390625
1550,0.125,-4.375,-12.8125,-1.07959,0.4985352,0.01367188,0.2700195,-0.1918945,0.03759766
1554,-8.5,3.5,-14.75,-1.087402,0.4907227,0.05957031,0.269043,-0.1958008,0.03759766
1558,-14.8125,9.3125,-15.5,-1.125977,0.4204102,0.05175781,0.269043,-0.1933594,0.03759766
1562,-14.5,14.4375,-13.4375,-1.141602,0.3349609,0.04052734,0.2724609,-0.1904297,0.03759766
1566,-4.375,18.3125,-8.6875,-1.161133,0.2573242,0.02490234,0.2724609,-0.1904297,0.0390625
1570,6.0625,27,-4.75,-1.133789,0.3041992,0.009765625,0.2709961,-0.1894531,0.04052734
1574,14.75,29.625,-3.875,-1.165039,0.3544922,-0.05126953,0.2709961,-0.1894531,0.04199219
1578,21,35.125,-7.625,-1.187988,0.4438477,-0.09375,0.2709961,-0.1894531,0.04443359
1582,19.5625,35.6875,-10.8125,-1.242188,0.5136719,-0.1552734,0.2724609,-0.1870117,0.04882813
1586,12,35.1875,-11.25,-1.265625,0.5332031,-0.2055664,0.2734375,-0.1879883,0.05419922
1590,-0.8125,31.875,-6.125,-1.343262,0.4594727,-0.2822266,0.2734375,-0.1845703,0.05273438
1594,-5.8125,23.75,2.25,-1.172852,0.4125977,-0.2089844,0.2758789,-0.1831055,0.05810547
1599,4.75,37.9375,-7.875,-1.013672,0.4013672,-0.1630859,0.2758789,-0.1870117,0.06103516
1603,19.5625,51.0625,-21.6875,-1.103027,0.4633789,-0.2207031,0.2758789,-0.1855469,0.06347656
1607,23.25,50.9375,-26.375,-1.319824,0.5097656,-0.359375,0.2783203,-0.1831055,0.06884766
1611,21.375,39.25,-21.5625,-1.420898,0.5878906,-0.4282227,0.2792969,-0.1821289,0.07421875
1615,5.375,27.4375,-10,-1.447754,0.6655273,-0.4208984,0.2792969,-0.1806641,0.07861328
1619,-15.5625,16.875,-0.9375,-1.347168,0.6694336,-0.3554688,0.2817383,-0.1821289,0.07861328
1623,-18.8125,19.3125,-10.6875,-0.9790039,0.5991211,-0.1054688,0.2841797,-0.1821289,0.08398438
1627,-0.25,49.3125,-46.5625,-0.7929688,0.4399414,-0.009277344,0.2856445,-0.1831055,0.08251953
1631,23.125,65.9375,-68.75,-0.9790039,0.2768555,-0.1513672,0.2890625,-0.1791992,0.09082031
1635,25.25,56.6875,-59.9375,-1.118652,0.171875,-0.2783203,0.2924805,-0.171875,0.1015625
1639,16.6875,42.625,-36.75,-1.137695,0.1333008,-0.3398438,0.2949219,-0.1655273,0.1044922
1643,2.0625,24.875,-10.4375,-1.083496,0.1484375,-0.324707,0.2973633,-0.1630859,0.1113281
1647,-0.4375,20.125,-3.875,-0.831543,0.1293945,-0.1474609,0.2998047,-0.1630859,0.1152344
1651,18.9375,31.75,-18.625,-0.7734375,0.203125,-0.08203125,0.2998047,-0.1582031,0.1166992
1655,26.75,38.125,-31.375,-0.862793,0.2226563,-0.1435547,0.3032227,-0.1542969,0.1235352
1659,26.6875,38.6875,-31.125,-0.9829102,0.1601563,-0.3476563,0.3046875,-0.1518555,0.1303711
1663,28.1875,27.6875,-27,-1.033203,0.1445313,-0.4628906,0.3056641,-0.1469727,0.1357422
1667,22.25,18,-21.875,-1.013672,0.1640625,-0.5551758,0.309082,-0.1445313,0.1396484
1671,3.25,2.0625,-18.8125,-0.9130859,0.2226563,-0.5014648,0.3105469,-0.1396484,0.144043
1675,-11.875,-5.125,-24.375,-0.7270508,0.1992188,-0.3476563,0.3139648,-0.1381836,0.1450195
1679,-13.5,-5.5625,-41.8125,-0.6806641,0.1176758,-0.3398438,0.3164063,-0.1396484,0.1479492
1683,-13.9375,-9.5625,-48.0625,-0.730957,0.07080078,-0.2744141,0.3212891,-0.1318359,0.1479492
1687,-24,-17.375,-42.6875,-0.7192383,-0.002441406,-0.2436523,0.3261719,-0.1318359,0.1508789
1691,-31.375,-22.9375,-25.125,-0.6030273,-0.1113281,-0.1860352,0.3320313,-0.1293945,0.1508789
1695,-33.5,-18.5,-6.375,-0.7851563,-0.1655273,-0.4169922,0.3354492,-0.1279297,0.1479492
1699,-25.8125,-27.625,-6.375,-0.6650391,-0.08789063,-0.128418,0.340332,-0.1308594,0.1494141
1703,-19.125,-14.9375,-12.875,-0.8588867,-0.06835938,-0.2514648,0.3452148,-0.1318359,0.1464844
1707,-6.1875,-28.3125,-6.6875,-0.9399414,-0.06445313,-0.324707,0.3496094,-0.1308594,0.1464844
1711,-4,-31.125,5.125,-0.6728516,0.01660156,-0.1206055,0.3554688,-0.1293945,0.1464844
1715,-4.9375,-19.25,6.375,-0.78125,0.05908203,-0.07080078,0.3603516,-0.1333008,0.1425781
1719,8.125,-14.625,5.3125,-1.180664,-0.02978516,-0.2900391,0.3652344,-0.1357422,0.144043
1723,22.9375,-35.6875,28.4375,-1.339355,0.01660156,-0.34375,0.3686523,-0.1357422,0.144043
1728,10,-58.125,54.0625,-0.9985352,0.2416992,-0.1821289,0.3745117,-0.1396484,0.1411133
1732,-7.6875,-56.9375,57.6875,-0.7231445,0.3271484,0.05175781,0.3842773,-0.1508789,0.137207
1736,-22.0625,-45.75,57.4375,-0.4985352,0.3818359,0.2636719,0.3901367,-0.1591797,0.1328125
1740,-16.5625,-22.5625,47.75,-0.378418,0.05908203,0.1748047,0.3984375,-0.171875,0.1289063
1744,37.6875,-6.5625,37.6875,-0.7270508,-0.05273438,-0.3129883,0.4023438,-0.1806641,0.1313477
1748,54.625,-21.875,39.5,-0.8974609,0.1992188,-0.6938477,0.4057617,-0.1845703,0.137207
1752,27.4375,-48.75,59,-0.8896484,0.3623047,-0.7441406,0.4140625,-0.1933594,0.1357422
1756,-7.5,-65.625,60.6875,-0.5102539,0.4516602,-0.3554688,0.4213867,-0.2045898,0.1303711
1760,-20,-47.25,36.9375,-0.3393555,0.4477539,0.03271484,0.4296875,-0.2143555,0.125
1764,-13,-26.875,15.75,-0.4326172,0.4125977,0.1020508,0.4355469,-0.2270508,0.1166992
1768,-16.25,-13.4375,1.625,-0.5292969,0.4086914,0.03662109,0.4404297,-0.2329102,0.1166992
1772,-15.25,-6.5625,-2.1875,-0.7890625,0.253418,-0.1513672,0.4423828,-0.2329102,0.1137695
1776,-16.5,-12.9375,4.9375,-0.746582,0.3081055,-0.1782227,0.4472656,-0.2382813,0.1123047
1780,-30.9375,-6.3125,6.0625,-0.6767578,0.3041992,-0.1401367,0.4521484,-0.2431641,0.1123047
1784,-25.75,0.0625,4.5,-0.7734375,0.1757813,-0.2055664,0.4506836,-0.2431641,0.1113281
1788,-9.8125,0,3.375,-0.7578125,0.1445313,-0.1552734,0.4506836,-0.2470703,0.1113281
1792,-0.8125,7,4.4375,-0.7504883,0.1757813,-0.2324219,0.4487305,-0.2470703,0.1152344
1796,6.0625,3.5625,9.1875,-0.878418,0.1640625,-0.2822266,0.4487305,-0.2480469,0.1113281
1800,13.75,0.25,15.4375,-0.8046875,0.2338867,-0.2363281,0.4423828,-0.2480469,0.1137695
1804,12.0625,2.375,18.375,-0.796875,0.3623047,-0.1591797,0.4389648,-0.2495117,0.1123047
1808,6.125,5.8125,16.3125,-0.7192383,0.4013672,-0.08984375,0.4389648,-0.2519531,0.1137695
1812,2.1875,13.75,10.4375,-0.7114258,0.4165039,-0.04394531,0.4316406,-0.2519531,0.1152344
1816,-1.9375,19.25,5.125,-0.730957,0.4243164,-0.05908203,0.4282227,-0.2495117,0.1152344
1820,-1.125,22.3125,1.625,-0.7426758,0.3818359,-0.04736328,0.4248047,-0.2495117,0.1166992
1824,-8.1875,30.3125,-1,-0.6147461,0.4086914,-0.005371094,0.4174805,-0.2470703,0.1191406
1828,-14,38.875,-1.75,-0.6225586,0.3505859,-0.05517578,0.4106445,-0.2416992,0.1259766
1832,-18.8125,46.1875,-3.75,-0.5834961,0.3081055,-0.1166992,0.4091797,-0.2382813,0.1289063
1836,-10.8125,46.125,-3.0625,-0.7929688,0.237793,-0.2553711,0.3984375,-0.2329102,0.1313477
1840,-9.4375,36.25,3.0625,-0.6806641,0.269043,-0.2167969,0.3901367,-0.2319336,0.1357422
1844,-15.6875,39.8125,6.375,-0.6147461,0.269043,-0.2285156,0.3842773,-0.2280273,0.1357422
1848,-25,37.375,10.9375,-0.6030273,0.3193359,-0.1899414,0.3759766,-0.2246094,0.1381836
1852,-32.875,41.8125,9,-0.6572266,0.3232422,-0.2285156,0.3701172,-0.2216797,0.1381836
1857,-38.5,41.1875,6.875,-0.7348633,0.2963867,-0.2822266,0.362793,-0.2207031,0.1381836
1861,-30.3125,33.4375,7,-0.7504883,0.1333008,-0.3168945,0.3544922,-0.2192383,0.137207
1865,-15.5625,28.0625,12.625,-0.6728516,0.1293945,-0.2822266,0.3486328,-0.2182617,0.1381836
1869,-7.875,31.875,18.75,-0.7114258,0.21875,-0.2324219,0.34375,-0.2192383,0.1381836
1873,-4.25,28.6875,19.75,-0.8432617,0.2768555,-0.2553711,0.3364258,-0.2182617,0.137207
1877,-6.1875,25.5,17.625,-0.7387695,0.315918,-0.2744141,0.3305664,-0.2182617,0.1381836
1881,-12,28.3125,15.4375,-0.7734375,0.3310547,-0.3515625,0.3261719,-0.2216797,0.1396484
1885,-19.125,19.5625,19.6875,-0.8588867,0.3388672,-0.3823242,0.3212891,-0.2207031,0.137207
1889,-22.9375,11.1875,21.0625,-0.9248047,0.3935547,-0.3286133,0.3173828,-0.2207031,0.1342773
1893,-24.0625,6.9375,17.5625,-0.8896484,0.3662109,-0.2207031,0.3129883,-0.2231445,0.1313477
1897,-18.375,8.875,14.5625,-0.8007813,0.2885742,-0.1513672,0.309082,-0.2246094,0.1289063
1901,-11.8125,13.125,13.9375,-0.796875,0.2924805,-0.1708984,0.3056641,-0.2270508,0.125
1905,-3.6875,12.1875,13.3125,-0.878418,0.3193359,-0.2324219,0.3046875,-0.2255859,0.125
1909,1.75,11.625,11.125,-0.8818359,0.3583984,-0.2822266,0.2998047,-0.2246094,0.1235352
1913,1.375,9.8125,9.9375,-0.9287109,0.4013672,-0.324707,0.2949219,-0.2270508,0.125
1917,-2.125,3.75,12.6875,-1.001953,0.4516602,-0.3862305,0.2939453,-0.2246094,0.1220703
1921,-8.0625,-6.75,14.5625,-1.005859,0.4985352,-0.3632813,0.2900391,-0.2255859,0.1181641
1925,-10.75,-11.3125,11.9375,-0.8974609,0.4711914,-0.2553711,0.2890625,-0.2255859,0.1181641
1929,-6.875,-8.625,5.6875,-0.878418,0.4633789,-0.2822266,0.2890625,-0.2280273,0.1137695
1933,-10.375,-10.0625,1.4375,-0.878418,0.4829102,-0.2553711,0.2856445,-0.2280273,0.1113281
1937,-13.8125,-8.4375,-1.0625,-0.9169922,0.4516602,-0.2744141,0.2832031,-0.2255859,0.1083984
1941,-15.1875,-12.0625,-1.8125,-1.017578,0.4399414,-0.3129883,0.2832031,-0.2294922,0.105957
1945,-15.1875,-20.625,3.625,-1.033203,0.4516602,-0.3012695,0.2817383,-0.2304688,0.1030273
1949,-11.0625,-26.0625,0.9375,-0.9594727,0.4750977,-0.2744141,0.2792969,-0.2304688,0.09765625
1953,-10.4375,-27.3125,-5.5625,-0.8745117,0.5488281,-0.2436523,0.2783203,-0.2304688,0.09619141
1957,-22.1875,-22.0625,-16.0625,-0.8393555,0.5683594,-0.2207031,0.2792969,-0.2294922,0.09228516
1961,-35.4375,-18.6875,-19.625,-0.9477539,0.4399414,-0.2167969,0.2792969,-0.2304688,0.08398438
1965,-35.4375,-22.5,-15.875,-0.9907227,0.2495117,-0.2397461,0.2807617,-0.2255859,0.08544922
1969,-18.0625,-26.5625,-8.5625,-0.9477539,0.1796875,-0.2089844,0.2807617,-0.2270508,0.08007813
1973,3.6875,-32.0625,-4.6875,-0.9516602,0.2651367,-0.2324219,0.2783203,-0.2255859,0.07421875
1977,20,-38.9375,-10.125,-0.9365234,0.4013672,-0.2167969,0.2773438,-0.2216797,0.07177734
1981,11.625,-38.5,-9.125,-0.8588867,0.5019531,-0.109375,0.2773438,-0.2207031,0.06884766
1986,-9.4375,-33.375,-6.6875,-0.8935547,0.4829102,-0.09765625,0.2783203,-0.2207031,0.06640625
1990,-20.625,-34.3125,-2.25,-0.9208984,0.3935547,-0.128418,0.2758789,-0.2207031,0.06347656
1994,-19.25,-39.4375,5.1875,-0.9399414,0.3193359,-0.1591797,0.2749023,-0.2192383,0.05664063
1998,0,-49.5625,6.4375,-0.9287109,0.2768555,-0.1860352,0.2749023,-0.2182617,0.05419922
2002,26.375,-53.625,-3.25,-0.9287109,0.2963867,-0.112793,0.2734375,-0.2207031,0.05126953
2006,43.5,-50.6875,-7.6875,-0.9516602,0.3544922,-0.05908203,0.2724609,-0.2167969,0.04736328
2010,37.8125,-42.9375,-3.75,-0.9946289,0.4790039,-0.02441406,0.2709961,-0.2167969,0.04443359
2014,17.5,-38.6875,2.3125,-0.9750977,0.5449219,-0.02050781,0.2734375,-0.2143555,0.04296875
2018,1.125,-30.125,1.1875,-1.060547,0.5644531,-0.08203125,0.2700195,-0.2158203,0.04052734
2022,-13.4375,-31.5625,-1.875,-1.191895,0.5292969,-0.08984375,0.2700195,-0.2143555,0.03613281
2026,-20.625,-29.5,-1.1875,-1.161133,0.3740234,-0.05517578,0.269043,-0.2143555,0.03613281
2030,-13.125,-25.6875,5.0625,-1.172852,0.2885742,-0.06689453,0.2675781,-0.2128906,0.03222656
2034,3,-26.6875,9.875,-1.180664,0.3583984,-0.109375,0.269043,-0.2143555,0.02978516
2038,23.6875,-29.125,5.1875,-1.215332,0.4282227,-0.112793,0.2675781,-0.2104492,0.02832031
2042,29.4375,-26.1875,-1.25,-1.172852,0.5952148,-0.05908203,0.2675781,-0.2094727,0.02685547
2046,13.125,-17.8125,-6.0625,-1.161133,0.6845703,-0.009277344,0.2675781,-0.2080078,0.02832031
2050,-12.0625,-7.875,-3.25,-1.099121,0.6342773,-0.009277344,0.269043,-0.2080078,0.02539063
2054,-22.8125,-2,-3.625,-1.133789,0.5449219,-0.07470703,0.269043,-0.2080078,0.02685547
2058,-28,-5.5,-2.75,-1.20752,0.5371094,-0.1362305,0.2675781,-0.2080078,0.02294922
2062,-19.75,-0.5625,-14.0625,-1.009766,0.4555664,0.04443359,0.269043,-0.2080078,0.02294922
2066,-11,14,-25.5625,-1.021484,0.3623047,0.04052734,0.269043,-0.2080078,0.02294922
2070,-6.6875,17.6875,-22.5625,-1.114746,0.3544922,-0.05126953,0.269043,-0.2045898,0.02294922
2074,-3.6875,15.625,-19.6875,-1.176758,0.3779297,-0.112793,0.269043,-0.2055664,0.02539063
2078,-8.125,12.9375,-14.0625,-1.161133,0.4204102,-0.09765625,0.2709961,-0.2016602,0.02539063
2082,-16.5625,14,-10.875,-1.15332,0.4165039,-0.07080078,0.2724609,-0.2045898,0.02392578
2086,-14.625,14.4375,-8.4375,-1.184082,0.3232422,-0.04394531,0.2734375,-0.203125,0.02685547
2090,-4.0625,17.125,-5.75,-1.187988,0.2651367,-0.04394531,0.2724609,-0.2045898,0.02685547
2094,14.125,17.3125,1.25,-1.227051,0.2265625,-0.05908203,0.2749023,-0.203125,0.02832031
2098,37.1875,15.0625,8.5,-1.273438,0.2885742,-0.128418,0.2758789,-0.2016602,0.02978516
2102,49,7.4375,16.25,-1.331543,0.4907227,-0.1245117,0.2749023,-0.2016602,0.03222656
2106,45.875,0.75,22.8125,-1.424316,0.6342773,-0.1206055,0.2749023,-0.2055664,0.03515625
2110,34.125,-7.875,21.6875,-1.405273,0.6884766,-0.06689453,0.2758789,-0.2045898,0.03613281
2115,15.1875,-7.5,29.5625,-1.25,0.6811523,0.009765625,0.2773438,-0.2080078,0.03759766
2119,6.375,-0.25,24.6875,-1.106934,0.4985352,0.07128906,0.2783203,-0.2128906,0.03759766
2123,16.0625,14,15,-1.021484,0.3505859,0.05566406,0.2792969,-0.2143555,0.03759766
2127,33.375,29.25,5.5625,-0.9750977,0.3310547,0.01367188,0.2792969,-0.2158203,0.04199219
2131,49.6875,38.5,-5.625,-0.9946289,0.3271484,-0.06298828,0.2817383,-0.2158203,0.04736328
2135,57.9375,41.5625,-9.1875,-1.029297,0.3662109,-0.1552734,0.2817383,-0.2167969,0.05126953
2139,51.125,38.375,-4.75,-1.033203,0.4672852,-0.2055664,0.2856445,-0.2143555,0.05810547
2143,27.25,32.4375,5.125,-0.9633789,0.5292969,-0.2475586,0.2856445,-0.2143555,0.06640625
2147,5.25,26.75,12.5625,-0.9326172,0.4790039,-0.2670898,0.2880859,-0.2143555,0.06787109
2151,-9.1875,23.5625,16.0625,-0.8588867,0.4594727,-0.2514648,0.2880859,-0.2192383,0.07177734
2155,-13.0625,27.5625,8.875,-0.8085938,0.3740234,-0.1938477,0.2915039,-0.2192383,0.07421875
2159,-7.125,36.75,-4.0625,-0.8666992,0.3349609,-0.1860352,0.2915039,-0.2216797,0.07714844
2163,-1.625,43.0625,-10.4375,-0.9750977,0.2729492,-0.1782227,0.2939453,-0.2207031,0.08251953
2167,0.6875,49.4375,-9,-0.9555664,0.2226563,-0.1782227,0.2924805,-0.2192383,0.08789063
2171,-2.0625,52.0625,-5.3125,-0.9750977,0.2495117,-0.2670898,0.2963867,-0.2167969,0.09228516
2175,-5.875,47,-4.75,-1.009766,0.2299805,-0.3515625,0.2963867,-0.2192383,0.09912109
2179,0.5,37.625,-9.1875,-0.9399414,0.1445313,-0.3974609,0.2998047,-0.2182617,0.105957
2183,13.875,30.25,-14.625,-0.9169922,0.1757813,-0.4516602,0.2998047,-0.2182617,0.1069336
2187,17.75,19.25,-12.4375,-0.9365234,0.2070313,-0.4052734,0.3022461,-0.2167969,0.1137695
2191,3.75,6.5625,5.25,-0.8974609,0.300293,-0.3554688,0.3046875,-0.2167969,0.1181641
2195,-9.875,-5.8125,18.5625,-0.7543945,0.3041992,-0.2167969,0.3071289,-0.2207031,0.1181641
2199,-12.4375,-8.9375,13.5625,-0.6147461,0.3544922,-0.1435547,0.3081055,-0.2246094,0.1191406
2203,-3.6875,-4.8125,4.8125,-0.6108398,0.3271484,-0.1821289,0.3115234,-0.2280273,0.1191406
2207,4.9375,-18.75,8.5625,-0.8432617,0.3041992,-0.309082,0.3129883,-0.2304688,0.1206055
2211,23.4375,-32.375,12.4375,-0.6108398,0.3120117,-0.2324219,0.3154297,-0.2329102,0.1206055
2215,25.6875,-29.625,13.6875,-0.4633789,0.5253906,-0.06298828,0.3198242,-0.2358398,0.1206055
2219,17.3125,-22.875,6.5,-0.6030273,0.6459961,-0.109375,0.3212891,-0.2368164,0.1206055
2223,3.125,-22.75,-5.0625,-0.6030273,0.7353516,-0.1362305,0.3261719,-0.2382813,0.1206055
2227,-4.875,-18.875,-16,-0.715332,0.5761719,-0.2592773,0.328125,-0.2416992,0.1206055
2231,-5.5,-21.625,-28.25,-0.8588867,0.4282227,-0.4902344,0.3320313,-0.2392578,0.1181641
2235,-0.3125,-41.4375,-19.8125,-0.9477539,0.2416992,-0.4975586,0.3378906,-0.2392578,0.1191406
2239,3.6875,-52.6875,1.5625,-0.6416016,0.203125,-0.1821289,0.3452148,-0.2431641,0.1152344
2244,1.6875,-48.75,13.875,-0.6147461,0.3623047,-0.04394531,0.347168,-0.2441406,0.1098633
2248,2.125,-48.5625,10.3125,-0.5834961,0.3740234,0.009765625,0.3520508,-0.2470703,0.105957
2252,1.5625,-38.5,4,-0.5449219,0.3232422,0.07128906,0.3579102,-0.2529297,0.1015625
2256,13.75,-30.625,-1.25,-0.7075195,0.2416992,-0.09375,0.359375,-0.2558594,0.1000977
2260,20.875,-39.875,11.375,-0.765625,0.203125,-0.1245117,0.3642578,-0.2558594,0.09619141
2264,20.875,-41.875,26.1875,-0.6108398,0.2338867,-0.06298828,0.3662109,-0.2607422,0.09472656
2268,18.9375,-34.6875,30.75,-0.4633789,0.4013672,0.08251953,0.3676758,-0.2641602,0.09082031
2272,9.9375,-15.5,20.1875,-0.4907227,0.4360352,-0.01318359,0.3662109,-0.2695313,0.08691406
2276,3.8125,-6.375,8.3125,-0.5722656,0.4438477,-0.05908203,0.3686523,-0.2719727,0.08789063
2280,-1.0625,-0.75,4.1875,-0.6533203,0.4165039,-0.128418,0.3676758,-0.2729492,0.08935547
2284,-2.1875,-1.3125,4.4375,-0.6264648,0.3779297,-0.1015625,0.3676758,-0.2744141,0.08789063
2288,0.9375,8.875,-4.4375,-0.6186523,0.4086914,-0.1323242,0.3662109,-0.2729492,0.08789063
2292,3.3125,13,-9.6875,-0.831543,0.3349609,-0.3012695,0.3662109,-0.2719727,0.08789063
2296,6.4375,3.625,-5.0625,-0.8745117,0.3081055,-0.3515625,0.3662109,-0.2695313,0.09228516
2300,3.5,-2.375,1.5,-0.7773438,0.3896484,-0.2089844,0.3676758,-0.2705078,0.09228516
2304,-0.4375,1.0625,1.375,-0.7543945,0.4282227,-0.112793,0.3652344,-0.2680664,0.09228516
2308,-3.125,6.875,-0.8125,-0.7504883,0.4711914,-0.04394531,0.3652344,-0.2680664,0.08935547
2312,-6.4375,12.3125,-6.0625,-0.765625,0.4750977,-0.05517578,0.362793,-0.2670898,0.08935547
2316,-4.1875,15.5625,-9.5,-0.8276367,0.3974609,-0.109375,0.3642578,-0.265625,0.09082031
2320,0.75,12,-7.8125,-0.8125,0.3544922,-0.109375,0.3642578,-0.2641602,0.09082031
2324,0,14.875,-5.875,-0.746582,0.4438477,-0.07080078,0.3603516,-0.2617188,0.09228516
2328,-8.75,19.375,-9.5,-0.7504883,0.4477539,-0.0859375,0.3603516,-0.2631836,0.09619141
2332,-10.125,22.5625,-11.9375,-0.8085938,0.3466797,-0.1245117,0.359375,-0.2592773,0.1000977
2336,-7.6875,19.75,-6.875,-0.8085938,0.3120117,-0.128418,0.3569336,-0.2558594,0.09765625
2340,-6.5625,19.25,-1.5,-0.7192383,0.3310547,-0.1054688,0.3569336,-0.2568359,0.09912109
2344,-8.6875,24.5,-1.6875,-0.6923828,0.3818359,-0.1245117,0.3544922,-0.2529297,0.1015625
2348,-6.25,24.8125,-3.5,-0.8007813,0.3193359,-0.1899414,0.3520508,-0.2504883,0.1015625
2352,-3.6875,22.9375,1.875,-0.7929688,0.2807617,-0.1899414,0.3510742,-0.2504883,0.105957
2356,-2.75,20.75,6.1875,-0.8007813,0.3349609,-0.2016602,0.347168,-0.2480469,0.1044922
2360,-6.625,16.6875,6,-0.7192383,0.3583984,-0.1591797,0.34375,-0.2495117,0.1069336
2364,-10.3125,22.625,3.25,-0.7075195,0.3818359,-0.2055664,0.3413086,-0.2456055,0.105957
2368,-14.125,23.8125,-0.1875,-0.847168,0.4399414,-0.2939453,0.3364258,-0.2456055,0.105957
2373,-22.4375,17.9375,-0.8125,-0.8085938,0.4013672,-0.3129883,0.3378906,-0.2431641,0.1069336
2377,-30.1875,16.375,1.0625,-0.7851563,0.3857422,-0.3168945,0.3330078,-0.2431641,0.1083984
2381,-33.875,10.5625,1.5625,-0.7929688,0.3310547,-0.2822266,0.3305664,-0.2416992,0.105957
2385,-33.1875,11.1875,2.4375,-0.8046875,0.3232422,-0.2744141,0.3295898,-0.2431641,0.1030273
2389,-31.375,9.0625,3.5,-0.8393555,0.3740234,-0.2285156,0.324707,-0.2441406,0.1015625
2393,-29.1875,6.5,-0.1875,-0.7734375,0.3974609,-0.1669922,0.3237305,-0.2441406,0.1000977
2397,-26.5,9.3125,-5.625,-0.7387695,0.3701172,-0.1206055,0.3222656,-0.2431641,0.09765625
2401,-17.8125,15.5,-9.1875,-0.7851563,0.3193359,-0.08203125,0.3198242,-0.2456055,0.09765625
2405,-5.4375,14.1875,-6.9375,-0.8276367,0.2963867,-0.1166992,0.3188477,-0.2416992,0.09619141
2409,3.1875,13.8125,-4.6875,-0.7617188,0.4125977,-0.1591797,0.3173828,-0.2416992,0.09765625
2413,-2.5625,13.375,-11.25,-0.8046875,0.5566406,-0.1938477,0.3164063,-0.2407227,0.09765625
2417,-10.5,12.125,-19.9375,-0.8896484,0.4711914,-0.1860352,0.3154297,-0.2382813,0.09619141
2421,-12.625,7.0625,-17.875,-0.8896484,0.3544922,-0.1323242,0.3115234,-0.2368164,0.09619141
2425,-7.125,4.75,-13.625,-0.7695313,0.2729492,-0.07470703,0.3129883,-0.234375,0.09326172
2429,-4.625,10.1875,-11.375,-0.746582,0.3583984,-0.07861328,0.309082,-0.2304688,0.09472656
2433,-11.6875,16.1875,-17.4375,-0.8935547,0.4321289,-0.1899414,0.3105469,-0.2294922,0.09472656
2437,-21.625,12.875,-17,-1.021484,0.4052734,-0.309082,0.3081055,-0.2255859,0.09326172
2441,-33,4.125,-13.9375,-0.9750977,0.4086914,-0.3012695,0.3081055,-0.2255859,0.09228516
2445,-44,0.5625,-10.125,-0.8818359,0.3740234,-0.2246094,0.3046875,-0.2255859,0.08789063
2449,-47.4375,-1,-4.25,-0.8974609,0.269043,-0.1821289,0.3032227,-0.2270508,0.08544922
2453,-34,-2.875,0.4375,-0.9091797,0.1835938,-0.1323242,0.3032227,-0.2270508,0.08251953
2457,-11.375,-1.25,3.5,-0.8896484,0.1835938,-0.09765625,0.2998047,-0.2270508,0.08007813
2461,9.25,0,4.75,-0.9091797,0.3271484,-0.1513672,0.2983398,-0.2294922,0.07714844
2465,10.5625,-3.625,1.25,-0.9208984,0.5097656,-0.1899414,0.2949219,-0.2280273,0.07714844
2469,-8.25,-7,-2.625,-0.9208984,0.5332031,-0.1743164,0.2939453,-0.2270508,0.07714844
2473,-20.375,-8.375,1.25,-0.8818359,0.3427734,-0.1552734,0.2924805,-0.2280273,0.07861328
2477,-11.375,-8.4375,4.75,-0.8549805,0.2416992,-0.1591797,0.2900391,-0.2294922,0.07177734
2481,-0.1875,-9.9375,5.125,-0.8857422,0.3466797,-0.2016602,0.2880859,-0.2294922,0.06884766
2485,0.375,-14.3125,2.4375,-0.8935547,0.4052734,-0.2016602,0.2880859,-0.2255859,0.06884766
2489,-5.875,-15,5.1875,-0.8974609,0.3701172,-0.1938477,0.2856445,-0.2255859,0.06640625
2493,-6.75,-17.9375,11.6875,-0.9013672,0.315918,-0.1630859,0.2832031,-0.2270508,0.06347656
2497,-2.1875,-18,14.6875,-0.8666992,0.3349609,-0.128418,0.2841797,-0.2255859,0.06347656
2502,3.5,-19.4375,16.0625,-0.8588867,0.4204102,-0.1206055,0.2792969,-0.2255859,0.06201172
2506,11.6875,-20.0625,8.3125,-0.8354492,0.4516602,-0.1054688,0.2783203,-0.2270508,0.05664063
2510,17.1875,-15.8125,-2.3125,-0.9130859,0.4868164,-0.112793,0.2749023,-0.2246094,0.05664063
2514,10.0625,-17.5,1,-1.041016,0.4477539,-0.1362305,0.2749023,-0.2231445,0.05664063
2518,0.4375,-25.5,12.6875,-1.025391,0.3818359,-0.1435547,0.2724609,-0.2216797,0.05419922
2522,2.5,-30.4375,19.375,-0.9477539,0.4052734,-0.1245117,0.2700195,-0.2246094,0.05273438
2526,6.375,-31.1875,14.125,-0.9091797,0.5136719,-0.08984375,0.2675781,-0.2246094,0.04980469
2530,7.75,-24.3125,2.875,-1.021484,0.4907227,-0.1245117,0.2641602,-0.2231445,0.04736328
2534,2.125,-23.5,-0.125,-1.106934,0.4594727,-0.1054688,0.2641602,-0.2246094,0.04882813
2538,0.5625,-19.625,-3.875,-1.137695,0.3896484,-0.1362305,0.2641602,-0.2246094,0.04589844
2542,-0.375,-19.0625,-0.5625,-1.211426,0.3857422,-0.2246094,0.2617188,-0.2192383,0.04443359
2546,-3.0625,-23.5625,8.875,-1.199707,0.4555664,-0.2670898,0.2641602,-0.2192383,0.04443359
2550,-0.3125,-23.0625,6.875,-1.230957,0.4829102,-0.2475586,0.2617188,-0.2182617,0.04052734
2554,5.875,-19.25,5.5,-1.199707,0.4399414,-0.1591797,0.2602539,-0.2182617,0.04052734
2558,15.1875,-8.625,4.125,-1.191895,0.4516602,-0.1323242,0.2602539,-0.2158203,0.03759766
2562,19.1875,-5,4.1875,-1.203613,0.5527344,-0.1708984,0.2617188,-0.2158203,0.03759766
2566,17.75,-3.5625,3.375,-1.184082,0.5991211,-0.2207031,0.2592773,-0.2167969,0.04052734
2570,5.4375,-13.75,1.4375,-1.075684,0.6884766,-0.1323242,0.2592773,-0.2143555,0.04052734
2574,1,2.8125,-11.875,-1.021484,0.6772461,-0.1630859,0.2592773,-0.2143555,0.03759766
2578,-12.5,2.875,-15.6875,-1.12207,0.5991211,-0.1782227,0.2602539,-0.2128906,0.03759766
2582,-21.5625,3.75,-15.5,-1.052734,0.5292969,-0.1591797,0.2592773,-0.2143555,0.04052734
2586,-24.5625,6.375,-19.125,-1.041016,0.5058594,-0.1435547,0.2617188,-0.2128906,0.0390625
2590,-22.3125,6.5,-20.125,-1.029297,0.4360352,-0.1362305,0.2626953,-0.2128906,0.03759766
2594,-15.5,7.4375,-22,-1.029297,0.3583984,-0.128418,0.2641602,-0.2128906,0.0390625
2598,-8.8125,10,-22.625,-1.037109,0.3779297,-0.07080078,0.2651367,-0.2119141,0.0390625
2602,-10.875,14.1875,-20.9375,-1.071777,0.3974609,-0.05517578,0.2651367,-0.2104492,0.04052734
2606,-12.75,16.8125,-18.3125,-1.099121,0.3740234,-0.06298828,0.2666016,-0.2094727,0.04052734
2610,-9.625,17.6875,-16.0625,-1.118652,0.3466797,-0.1015625,0.2675781,-0.2080078,0.04052734
2614,-5.25,16.4375,-13.1875,-1.172852,0.3701172,-0.1206055,0.269043,-0.2080078,0.04199219
2618,-8.0625,13.25,-9.0625,-1.230957,0.4868164,-0.128418,0.2709961,-0.2045898,0.04199219
2622,-18.125,15.75,-11.8125,-1.199707,0.5605469,-0.06298828,0.2724609,-0.2055664,0.04199219
2626,-28.4375,25.9375,-22.6875,-1.161133,0.5410156,-0.05908203,0.2724609,-0.2070313,0.04199219
2631,-31.75,34.3125,-35.125,-1.095215,0.4868164,-0.04736328,0.2749023,-0.203125,0.04296875
2635,-30.5,48.6875,-50.75,-1.033203,0.4672852,-0.05517578,0.2773438,-0.2016602,0.04882813
2639,-32.8125,58.25,-63.6875,-1.157227,0.4594727,-0.1860352,0.2792969,-0.1967773,0.05126953
2643,-40.125,50.5625,-69.375,-1.285156,0.4360352,-0.2822266,0.2832031,-0.1943359,0.05273438
2647,-43.3125,43.125,-69.8125,-1.265625,0.3623047,-0.2744141,0.2866211,-0.1894531,0.05810547
2651,-39.625,39.4375,-63.875,-1.246094,0.2416992,-0.2705078,0.2890625,-0.1845703,0.05957031
2655,-33.4375,35.6875,-51.375,-1.20752,0.15625,-0.2939453,0.2915039,-0.1831055,0.06103516
2659,-29.9375,34.8125,-31.75,-1.12207,0.121582,-0.2978516,0.2949219,-0.1806641,0.06201172
2663,-19.875,34.375,-18.5625,-1.063965,0.1293945,-0.2592773,0.2973633,-0.1791992,0.06884766
2667,-12.0625,36.8125,-16.4375,-1.07959,0.253418,-0.2285156,0.3007813,-0.1791992,0.07177734
2671,-13.125,33.9375,-15.1875,-1.048828,0.3120117,-0.2128906,0.3007813,-0.1791992,0.07568359
2675,-15.25,34.9375,-16.6875,-0.9711914,0.253418,-0.2436523,0.3046875,-0.1791992,0.07861328
2679,-5.875,33.5625,-15.0625,-1.052734,0.15625,-0.3554688,0.3081055,-0.1767578,0.08105469
2683,9.3125,20.125,-8,-1.091309,0.1176758,-0.394043,0.309082,-0.1757813,0.08544922
2687,11.5,7.375,4.5625,-1.048828,0.1796875,-0.3823242,0.3129883,-0.1757813,0.08789063
2691,9.0625,-3.6875,13.4375,-0.8857422,0.1679688,-0.3286133,0.3115234,-0.1743164,0.09228516
2695,10.5,-3.4375,13.0625,-0.8164063,0.2070313,-0.2553711,0.3164063,-0.1767578,0.09228516
2699,6.75,-8.125,10.75,-0.746582,0.2729492,-0.1245117,0.3188477,-0.1791992,0.09228516
2703,7.25,-5.4375,2.5625,-0.6416016,0.2299805,-0.0859375,0.3198242,-0.1791992,0.09228516
2707,11.0625,-1.8125,-5.25,-0.6767578,0.1835938,-0.1591797,0.3222656,-0.1791992,0.09619141
2711,16.1875,-6.5,-5,-0.796875,0.09814453,-0.2592773,0.3237305,-0.1791992,0.09912109
2715,21.375,-13.875,0,-0.8549805,0.05517578,-0.3554688,0.3271484,-0.1821289,0.09912109
2719,18.9375,-27.25,6.0625,-0.746582,0.07470703,-0.394043,0.3330078,-0.1806641,0.09912109
2723,18.4375,-27.5,1.0625,-0.5991211,0.08642578,-0.3476563,0.3354492,-0.1806641,0.09912109
2727,23.375,-26.4375,-8.4375,-0.6923828,0.05908203,-0.378418,0.3378906,-0.1831055,0.09765625
2731,29.6875,-40.4375,-11.8125,-0.6767578,0.105957,-0.3168945,0.3413086,-0.1821289,0.09619141
2735,28.625,-37.75,-19.6875,-0.6767578,0.21875,-0.2475586,0.3486328,-0.1806641,0.09228516
2739,24.875,-35.875,-26.3125,-0.7075195,0.2495117,-0.1591797,0.3496094,-0.1782227,0.08935547
2743,6.125,-36.5,-21.75,-0.6962891,0.284668,-0.0859375,0.3569336,-0.1767578,0.08691406
2747,-16.5625,-34.375,-10.5,-0.6845703,0.2768555,-0.03222656,0.3603516,-0.1767578,0.08544922
2751,-13.3125,-32.9375,-10.5,-0.831543,0.140625,-0.1015625,0.3618164,-0.1743164,0.08105469
2755,6.8125,-37.75,-12.125,-0.8706055,0.1098633,-0.1743164,0.3642578,-0.1782227,0.07421875
2760,18.4375,-43.75,-7,-0.8706055,0.1367188,-0.1323242,0.3701172,-0.1743164,0.07177734
2764,17.3125,-44.6875,3.5625,-0.746582,0.2495117,-0.03222656,0.3725586,-0.1743164,0.06884766
2768,6.75,-42.1875,7.5625,-0.6923828,0.3271484,0.05175781,0.3735352,-0.1757813,0.06103516
2772,-5.5,-37,9,-0.6533203,0.3427734,0.09423828,0.378418,-0.1757813,0.05810547
2776,-15.9375,-30.125,5,-0.6494141,0.3310547,0.09033203,0.3793945,-0.1782227,0.05273438
2780,-14.125,-25.5625,-0.6875,-0.7114258,0.1523438,0.04443359,0.3833008,-0.1806641,0.04882813
2784,6,-22.125,1.0625,-0.7075195,-0.002441406,0.009765625,0.3818359,-0.1821289,0.04589844
2788,20.4375,-17.5625,8.4375,-0.6689453,0.1254883,0.03662109,0.3808594,-0.1845703,0.04296875
2792,8.875,-12.1875,11.625,-0.6376953,0.3193359,0.04785156,0.3833008,-0.1855469,0.04589844
2796,-7.6875,-6.8125,8,-0.6225586,0.3310547,0.1020508,0.3842773,-0.1879883,0.04052734
2800,-13.5625,3,1,-0.6728516,0.2729492,0.05175781,0.3842773,-0.1870117,0.04199219
2804,-12.625,7.0625,-2.5625,-0.765625,0.2226563,-0.01318359,0.3833008,-0.1870117,0.04199219
2808,-14.125,8.5,-2.5,-0.7851563,0.2226563,-0.05908203,0.3808594,-0.1855469,0.0390625
2812,-10.375,11.8125,-6.8125,-0.8164063,0.1953125,-0.0859375,0.3808594,-0.1845703,0.04199219
2816,-9.6875,12.375,-6.125,-0.8818359,0.171875,-0.1166992,0.3793945,-0.1855469,0.04296875
2820,-7.25,9.875,-1.1875,-0.8818359,0.1367188,-0.07080078,0.3793945,-0.1821289,0.04296875
2824,-6.1875,13,1,-0.8588867,0.1796875,-0.05908203,0.378418,-0.1806641,0.04296875
2828,-6.1875,17.25,2.3125,-0.9399414,0.15625,-0.1054688,0.3769531,-0.1806641,0.04589844
2832,-2.3125,14.875,6.1875,-0.9868164,0.08642578,-0.1630859,0.3745117,-0.1806641,0.04736328
2836,6.3125,9.6875,12.1875,-0.9711914,0.09814453,-0.1630859,0.3759766,-0.1845703,0.04882813
2840,9.5625,7.4375,14.6875,-0.9169922,0.1992188,-0.112793,0.3710938,-0.1845703,0.04980469
2844,6.25,7.5625,14.375,-0.9248047,0.269043,-0.07080078,0.3701172,-0.1845703,0.05126953
2848,-0.75,9.625,15.0625,-0.9091797,0.2495117,-0.05517578,0.3686523,-0.1879883,0.05273438
2852,-0.75,13.5625,16.625,-0.9672852,0.1875,-0.09765625,0.3676758,-0.1879883,0.05273438
2856,6.5,10.125,20.0625,-0.9750977,0.1601563,-0.1474609,0.3662109,-0.1894531,0.05517578
2860,11.5625,7.4375,22.375,-0.9365234,0.2299805,-0.1860352,0.3652344,-0.1918945,0.05517578
2864,8.4375,4.875,20.1875,-0.9365234,0.300293,-0.1474609,0.3618164,-0.1958008,0.05517578
2868,6.6875,5.1875,18.8125,-0.9326172,0.2573242,-0.112793,0.3603516,-0.1967773,0.05957031
2872,7.25,4.8125,19.1875,-0.9013672,0.269043,-0.07080078,0.3579102,-0.1958008,0.05810547
2876,5.3125,5.625,19.6875,-0.8432617,0.3041992,-0.02050781,0.3554688,-0.1982422,0.05957031
2880,-0.3125,8.5625,19,-0.78125,0.300293,0.001953125,0.3554688,-0.2016602,0.05957031
2884,-1.125,14.625,18.6875,-0.7851563,0.2416992,-0.001464844,0.3535156,-0.2006836,0.05957031
2889,0.8125,16.5625,19.8125,-0.796875,0.2299805,-0.01660156,0.3510742,-0.203125,0.05957031
2893,0.5625,19.625,21.9375,-0.746582,0.2338867,0.01367188,0.347168,-0.2045898,0.06347656
2897,1.5,24.75,22.4375,-0.7348633,0.237793,0.03271484,0.3452148,-0.2055664,0.06347656
2901,4.4375,30.875,20.0625,-0.7578125,0.2109375,-0.001464844,0.3413086,-0.2070313,0.06640625
2905,11.875,34.0625,19.625,-0.8198242,0.2148438,-0.07470703,0.3378906,-0.2080078,0.0703125
2909,14.3125,33,22.1875,-0.8432617,0.2416992,-0.112793,0.3364258,-0.2104492,0.07324219
2913,7.9375,30.1875,29.125,-0.8198242,0.300293,-0.1166992,0.3330078,-0.2119141,0.07714844
2917,-0.6875,29.5,33.3125,-0.7695313,0.2807617,-0.08203125,0.328125,-0.2128906,0.07861328
2921,1.75,33.125,32.6875,-0.7543945,0.269043,-0.07080078,0.324707,-0.2167969,0.08105469
2925,13.625,37.6875,25.5,-0.7348633,0.300293,-0.128418,0.3212891,-0.2192383,0.08105469
2929,17.25,42.375,13.8125,-0.7773438,0.4052734,-0.2207031,0.3154297,-0.2192383,0.08691406
2933,6.5,37.0625,11.5,-0.8745117,0.4086914,-0.3012695,0.3139648,-0.2192383,0.08935547
2937,-8.375,27.625,17.4375,-0.8510742,0.3505859,-0.2900391,0.3081055,-0.2192383,0.09082031
2941,-9.1875,23.875,20.25,-0.796875,0.2924805,-0.2592773,0.3071289,-0.2192383,0.09326172
2945,-5.0625,23.25,22.375,-0.7695313,0.3081055,-0.2592773,0.3022461,-0.2207031,0.09472656
2949,0.5625,20.8125,19,-0.765625,0.3779297,-0.2397461,0.2963867,-0.2216797,0.09472656
2953,2.375,21.6875,9.5,-0.7578125,0.4013672,-0.2592773,0.2949219,-0.2216797,0.09472656
2957,0.6875,23.0625,7.0625,-0.831543,0.3857422,-0.3359375,0.2924805,-0.2216797,0.09912109
2961,1,14.375,7.625,-0.8974609,0.3505859,-0.394043,0.2890625,-0.2182617,0.09912109
2965,6.875,5.5,7.8125,-0.9052734,0.3857422,-0.4169922,0.2856445,-0.2207031,0.09765625
2969,9.1875,-1.8125,2.25,-0.9013672,0.4594727,-0.4091797,0.2856445,-0.2216797,0.09765625
2973,1.125,-7.5,0.5625,-0.9091797,0.4907227,-0.3745117,0.2807617,-0.2192383,0.09765625
2977,-9.375,-9.1875,-0.5625,-0.8935547,0.4516602,-0.3554688,0.2817383,-0.2192383,0.09228516
2981,-12.4375,-14,-0.1875,-0.9248047,0.3779297,-0.378418,0.2807617,-0.2192383,0.09326172
2985,-8.5,-23,0.875,-0.9091797,0.3857422,-0.3632813,0.2792969,-0.2192383,0.09228516
2989,-2.875,-28.625,-4.3125,-0.9013672,0.4052734,-0.3359375,0.2783203,-0.2192383,0.08691406
2993,0,-30.125,-8.75,-0.9516602,0.4086914,-0.2939453,0.2783203,-0.2167969,0.08544922
2997,-3.5,-33.75,-7.25,-0.9907227,0.3974609,-0.2783203,0.2749023,-0.2192383,0.08007813
3001,-5.625,-38.9375,-3.5625,-0.9750977,0.3779297,-0.2631836,0.2749023,-0.2182617,0.07714844
3005,-2.0625,-45.4375,-2,-0.9438477,0.4243164,-0.2861328,0.2758789,-0.2119141,0.07421875
3009,1.25,-48.625,-7.9375,-0.9516602,0.4282227,-0.2167969,0.2734375,-0.2128906,0.06787109
3013,-0.8125,-42.1875,-12.4375,-0.9248047,0.3974609,-0.128418,0.2734375,-0.2104492,0.06494141
3018,-6,-36.9375,-10.25,-1.001953,0.3120117,-0.1630859,0.2734375,-0.2094727,0.06347656
3022,0,-42.375,-4.1875,-1.025391,0.2495117,-0.2089844,0.2773438,-0.2080078,0.06201172
3026,15.3125,-49.3125,-1.4375,-0.9672852,0.2885742,-0.2167969,0.2758789,-0.2055664,0.05664063
3030,28.6875,-48.875,-6.875,-0.9555664,0.3544922,-0.2055664,0.2749023,-0.2045898,0.05419922
3034,22.625,-43.375,-7,-0.9399414,0.4165039,-0.1591797,0.2734375,-0.2045898,0.05126953
3038,6.1875,-40.6875,-5.6875,-0.9438477,0.3740234,-0.2089844,0.2749023,-0.2006836,0.04589844
3042,2.75,-42.1875,-6.3125,-0.9516602,0.2651367,-0.3325195,0.2749023,-0.2045898,0.04589844
3046,14.75,-48.6875,-11.6875,-0.9555664,0.2265625,-0.3706055,0.2734375,-0.2006836,0.04199219
3050,29.8125,-52.625,-20.625,-1.033203,0.1953125,-0.3476563,0.2749023,-0.1982422,0.04052734
3054,31.25,-54.625,-21.25,-1.07959,0.2226563,-0.2475586,0.2734375,-0.1958008,0.03515625
3058,16.6875,-51.3125,-13,-1.137695,0.237793,-0.1938477,0.2734375,-0.1933594,0.03369141
3062,5.5,-53.375,-3.5,-1.203613,0.2729492,-0.1513672,0.2734375,-0.1943359,0.02978516
3066,-2.9375,-57.3125,0.1875,-1.199707,0.3701172,-0.07861328,0.2734375,-0.1904297,0.02392578
3070,-13.5,-55.5625,0.125,-1.219238,0.4594727,0.03662109,0.2749023,-0.1904297,0.02001953
3074,-24.25,-50.5625,0.0625,-1.219238,0.4790039,0.144043,0.2724609,-0.1918945,0.01464844
3078,-24.1875,-41.375,-0.5625,-1.191895,0.4282227,0.2060547,0.2749023,-0.1879883,0.01074219
3082,-8.375,-31.75,-3.3125,-1.172852,0.2963867,0.2021484,0.2724609,-0.1918945,0.0078125
3086,17.875,-20.6875,-6,-1.129883,0.3041992,0.2021484,0.2724609,-0.1904297,0.006347656
3090,32.4375,-10.75,-7.3125,-1.125977,0.4204102,0.2021484,0.2724609,-0.1904297,0.004882813
3094,27.9375,-2.3125,-7.6875,-1.141602,0.5527344,0.1713867,0.2724609,-0.1879883,0.00390625
3098,10.3125,1.5,-10.125,-1.165039,0.6264648,0.144043,0.2734375,-0.1879883,0.004882813
3102,-8.5,6,-14.5625,-1.095215,0.5722656,0.140625,0.2724609,-0.1894531,0.004882813
3106,-19.25,13.75,-19.0625,-1.12207,0.4790039,0.09814453,0.2724609,-0.1894531,0.0078125
3110,-17.3125,17.6875,-18.25,-1.133789,0.3466797,0.1020508,0.2749023,-0.1870117,0.006347656
3114,-3.875,21.8125,-16.6875,-1.15332,0.2338867,0.07910156,0.2749023,-0.1879883,0.004882813
3118,14.875,24.9375,-11.9375,-1.161133,0.1875,0.1020508,0.2773438,-0.1855469,0.01074219
3122,28.3125,32.5,-7.625,-1.141602,0.2885742,0.1328125,0.2792969,-0.1845703,0.01318359
3126,30,39.5625,-3.9375,-1.199707,0.3583984,0.1020508,0.2783203,-0.1855469,0.01611328
3130,28,42.3125,-2.0625,-1.203613,0.4243164,0.07519531,0.2792969,-0.1855469,0.02001953
3134,25.125,45.75,-0.75,-1.215332,0.4204102,0.04443359,0.2783203,-0.1845703,0.02539063
3138,22.625,46.0625,1.5625,-1.219238,0.4243164,0.001953125,0.2807617,-0.1821289,0.02832031
3142,20.0625,48.8125,5,-1.103027,0.4555664,0.03662109,0.2817383,-0.1831055,0.03369141
3147,16.75,57.875,-2.125,-1.087402,0.4790039,0.01708984,0.2832031,-0.1845703,0.04052734
3151,15.5625,64.4375,-8.25,-1.075684,0.4086914,-0.02832031,0.2841797,-0.1831055,0.04199219
3155,20.875,65.9375,-11.3125,-1.118652,0.3120117,-0.128418,0.2866211,-0.1791992,0.05126953
3159,26.4375,60.0625,-8.6875,-1.168945,0.2495117,-0.2167969,0.2866211,-0.1791992,0.05810547
3163,28.25,46.6875,-1.4375,-1.199707,0.2573242,-0.2744141,0.2856445,-0.1791992,0.06347656
3167,21.4375,38.625,3.8125,-1.075684,0.3232422,-0.1938477,0.2866211,-0.1782227,0.0703125
3171,8,42.8125,5.4375,-0.9208984,0.3427734,-0.128418,0.2890625,-0.1767578,0.07421875
3175,-1.25,56.4375,-3.5625,-0.8974609,0.253418,-0.1435547,0.2880859,-0.1821289,0.07861328
3179,9.0625,67.4375,-19.375,-0.9750977,0.1757813,-0.1977539,0.2880859,-0.1791992,0.08398438
3183,14.6875,71,-31.125,-1.048828,0.1020508,-0.3012695,0.2915039,-0.1743164,0.09228516
3187,16.0625,69,-38.4375,-1.029297,0.06689453,-0.3476563,0.2900391,-0.1733398,0.1000977
3191,12.4375,70.3125,-39.0625,-1.025391,-0.01806641,-0.4130859,0.2924805,-0.1694336,0.1069336
3195,3.8125,66.6875,-28.25,-1.103027,-0.05273438,-0.4975586,0.2949219,-0.1655273,0.1152344
3199,-2.375,53,-14.375,-1.191895,-0.04541016,-0.574707,0.2915039,-0.1630859,0.1191406
3203,-13.875,37.8125,-3.5625,-1.149414,0.07470703,-0.5864258,0.2939453,-0.1621094,0.1259766
3207,-28.5625,26,3.1875,-1.060547,0.09423828,-0.5092773,0.2924805,-0.1630859,0.1303711
3211,-31.6875,14.3125,12.9375,-1.025391,0.02050781,-0.4282227,0.2949219,-0.1630859,0.1303711
3215,-20.5625,10.5625,18.8125,-0.8974609,0.07470703,-0.2705078,0.2973633,-0.1679688,0.1342773
3219,-14.8125,18,22.75,-0.9013672,0.21875,-0.2514648,0.2973633,-0.1704102,0.1357422
3223,-16.75,14.875,25.125,-0.9790039,0.315918,-0.2939453,0.2998047,-0.1743164,0.137207
3227,-20.9375,5.1875,26.875,-0.9365234,0.4204102,-0.309082,0.2983398,-0.1767578,0.1411133
3231,-30.375,-5.875,26.4375,-0.765625,0.4946289,-0.309082,0.2998047,-0.1821289,0.1411133
3235,-30.75,-6.4375,15.6875,-0.6416016,0.4829102,-0.2744141,0.3007813,-0.1870117,0.1425781
3239,-26.125,-7.25,0,-0.5644531,0.4907227,-0.2900391,0.3056641,-0.1918945,0.144043
3243,-18.5,-8.3125,-18.4375,-0.4907227,0.4672852,-0.2324219,0.3071289,-0.1933594,0.144043
3247,-8.75,-3.375,-37.75,-0.5722656,0.284668,-0.309082,0.309082,-0.1918945,0.1425781
3251,8.6875,-12.9375,-38.8125,-0.6806641,0.1992188,-0.4130859,0.3139648,-0.1894531,0.1464844
3255,4.9375,-29.25,-26.375,-0.5913086,0.3193359,-0.3208008,0.3198242,-0.1870117,0.1479492
3259,-15,-23.125,-25.9375,-0.4946289,0.3701172,-0.3666992,0.3188477,-0.1845703,0.1450195
3263,-26.5,-26.9375,-35.75,-0.6186523,0.3466797,-0.3974609,0.3261719,-0.1831055,0.1450195
3267,-32.5625,-32.125,-41.0625,-0.5756836,0.2226563,-0.3745117,0.3305664,-0.1831055,0.1411133
3271,-35,-32.9375,-40.6875,-0.6455078,0.1020508,-0.3632813,0.3354492,-0.1821289,0.1381836
3276,-21.75,-37.25,-29.8125,-0.7543945,-0.04882813,-0.3129883,0.3413086,-0.1791992,0.137207
3280,-4.5,-37.875,-12.75,-0.7426758,-0.1269531,-0.3168945,0.3452148,-0.1821289,0.1328125
3284,7.5625,-41.375,8.5625,-0.7617188,-0.01416016,-0.2978516,0.3496094,-0.1806641,0.1303711
3288,11.8125,-41.125,14.75,-0.6767578,0.1601563,-0.2246094,0.3535156,-0.1845703,0.1259766
3292,9.625,-31.75,9.4375,-0.746582,0.1757813,-0.2939453,0.3554688,-0.1855469,0.1235352
3296,27.0625,-30.0625,2.8125,-1.009766,-0.09960938,-0.5283203,0.359375,-0.1870117,0.1220703
3300,61.75,-41.375,22,-1.106934,-0.4335938,-0.6132813,0.3618164,-0.1894531,0.1181641
3304,81,-55.875,87.625,-0.8857422,-0.2978516,-0.2631836,0.362793,-0.1933594,0.1166992
3308,109.8125,-54.4375,128,-0.7543945,-0.03369141,-0.1977539,0.3642578,-0.2016602,0.1152344
3312,136.625,-55.125,118.625,-0.6533203,0.1679688,-0.06298828,0.3603516,-0.2128906,0.1113281
3316,119.5625,-33.625,56.3125,-0.5488281,1.100586,0.04443359,0.359375,-0.2192383,0.1123047
3320,77.1875,-20.9375,24.375,-0.6264648,1.209473,0.07910156,0.3579102,-0.2231445,0.1137695
3324,45,-13.625,4.75,-0.6416016,0.953125,0.2133789,0.359375,-0.2216797,0.1137695
3328,27.0625,-0.0625,-11.8125,-0.6962891,0.6811523,0.001953125,0.359375,-0.2207031,0.1152344
3332,22,-1.5625,-21.1875,-0.8588867,0.5097656,-0.2167969,0.359375,-0.2167969,0.1152344
3336,0,-5.8125,-21.875,-0.7734375,0.4438477,-0.2055664,0.3618164,-0.2158203,0.1152344
3340,-16.9375,-2,-24.0625,-0.6572266,0.300293,-0.04736328,0.3652344,-0.2143555,0.1152344
3344,-16.875,6.5,-22.375,-0.7695313,0.1254883,-0.109375,0.3662109,-0.2104492,0.1137695
3348,-8.3125,5.75,-19.0625,-0.878418,0.02441406,-0.2900391,0.3662109,-0.2094727,0.1152344
3352,-6.0625,-1.8125,-4.8125,-0.8935547,0.01269531,-0.2397461,0.3676758,-0.2055664,0.1166992
3356,-0.875,-2.1875,8.125,-0.7851563,-0.03369141,-0.09375,0.3686523,-0.2080078,0.1152344
3360,10.3125,7.1875,17.375,-0.7387695,0.0009765625,-0.009277344,0.3676758,-0.2104492,0.1137695
3364,18.0625,14.6875,24.8125,-0.730957,0.05126953,-0.009277344,0.3662109,-0.2094727,0.1166992
3368,25.3125,22.5625,29.125,-0.746582,0.1137695,-0.1708984,0.362793,-0.2119141,0.1166992
3372,31,23.125,28.6875,-0.8276367,0.2729492,-0.3129883,0.3603516,-0.2143555,0.1220703
3376,21.1875,16.875,29.3125,-0.8432617,0.4438477,-0.309082,0.3554688,-0.2143555,0.1235352
3380,-2.5625,13.6875,26.625,-0.7504883,0.5722656,-0.1552734,0.3520508,-0.2158203,0.125
3384,-19.3125,16.8125,17.375,-0.6225586,0.5332031,-0.04394531,0.3496094,-0.2207031,0.125
3388,-18.5625,27.375,5.0625,-0.6303711,0.4555664,-0.1015625,0.3461914,-0.2192383,0.1259766
3392,-15.6875,31.6875,-5.25,-0.7543945,0.4477539,-0.2978516,0.34375,-0.2182617,0.1289063
3396,-24.375,28.6875,-13.1875,-0.8393555,0.4282227,-0.5131836,0.340332,-0.2158203,0.1289063
3400,-37.0625,14,-11.3125,-0.8935547,0.4282227,-0.4902344,0.340332,-0.2158203,0.1289063
3405,-56.75,2.8125,-7.375,-0.6806641,0.4790039,-0.2363281,0.3378906,-0.2128906,0.1274414
3409,-68.5625,12.5625,-11.1875,-0.5722656,0.4165039,-0.05908203,0.3364258,-0.2143555,0.1220703
3413,-63.9375,26.125,-18.625,-0.6884766,0.3232422,-0.1708984,0.3364258,-0.2158203,0.1191406
3417,-55.625,24.875,-21.125,-0.9287109,0.3081055,-0.3901367,0.3344727,-0.2128906,0.1206055
3421,-60.3125,11.9375,-12.4375,-0.8706055,0.3349609,-0.4321289,0.3330078,-0.2143555,0.1181641
3425,-70,6.75,-7.875,-0.7617188,0.4086914,-0.2939453,0.3305664,-0.2158203,0.1152344
3429,-86.5,5.0625,-6.25,-0.7387695,0.4013672,-0.1669922,0.3305664,-0.2167969,0.1137695
3433,-89.75,10.4375,-3.625,-0.7348633,0.237793,-0.1362305,0.3295898,-0.2182617,0.1069336
3437,-75.3125,15,3.375,-0.7578125,0.1796875,-0.09765625,0.3271484,-0.2207031,0.1030273
3441,-54.5625,22.9375,4.875,-0.6728516,0.2495117,-0.1323242,0.3261719,-0.2231445,0.1030273
3445,-36.0625,30.25,-8.75,-0.7504883,0.3349609,-0.1821289,0.3222656,-0.2231445,0.09912109
3449,-29.75,30.5,-11.375,-0.8046875,0.3505859,-0.1743164,0.3198242,-0.2231445,0.1000977
3453,-33.75,25.75,-10.5625,-0.8393555,0.3466797,-0.1743164,0.3164063,-0.2216797,0.1015625
3457,-30.4375,21.375,-9.125,-0.8085938,0.2495117,-0.1821289,0.3154297,-0.2216797,0.1015625
3461,-18.0625,24.875,-6.5,-0.8354492,0.2338867,-0.2939453,0.3115234,-0.2207031,0.1015625
3465,-5.375,20.8125,-9.0625,-0.8896484,0.3193359,-0.3554688,0.3115234,-0.2167969,0.1000977
3469,-2.25,15.1875,-18.125,-0.9365234,0.3120117,-0.4438477,0.309082,-0.2158203,0.1000977
3473,-9.875,0.4375,-10.875,-1.001953,0.3041992,-0.4052734,0.3056641,-0.2158203,0.1000977
3477,-22.875,-15.3125,0.6875,-0.862793,0.3349609,-0.2822266,0.3081055,-0.2128906,0.09765625
3481,-27.4375,-5.4375,-2.9375,-0.765625,0.3193359,-0.2167969,0.3032227,-0.2143555,0.09326172
3485,-18.25,-4,-10.4375,-0.9326172,0.1992188,-0.2861328,0.3032227,-0.2128906,0.09228516
3489,-4.4375,-10.6875,-7.25,-0.9985352,0.1757813,-0.3359375,0.3032227,-0.2143555,0.08935547
3493,2.625,-18.25,0.6875,-0.9633789,0.2612305,-0.2670898,0.2998047,-0.2119141,0.08691406
3497,-1.5625,-21.5625,4.5625,-0.9052734,0.3701172,-0.1435547,0.2983398,-0.2119141,0.08398438
3501,-5.6875,-11.6875,1.8125,-0.862793,0.3896484,-0.05517578,0.2983398,-0.2143555,0.08007813
3505,-2.875,1.5,-7.25,-0.9208984,0.3349609,-0.09375,0.2949219,-0.2158203,0.08007813
3509,-2.125,4.5,-8.625,-1.009766,0.2456055,-0.2128906,0.2939453,-0.2128906,0.08007813
3513,-0.75,1.125,0.4375,-1.021484,0.1835938,-0.2592773,0.2939453,-0.2119141,0.07861328
3517,7.5625,-6.4375,12.3125,-1.009766,0.1914063,-0.2246094,0.2915039,-0.2119141,0.07714844
3521,12.875,-3.875,12.6875,-0.9868164,0.2299805,-0.1860352,0.2880859,-0.2128906,0.07568359
3525,11.125,7.1875,15.0625,-0.9555664,0.2924805,-0.128418,0.2866211,-0.2104492,0.07568359
3529,-2.3125,16.6875,22.6875,-0.9672852,0.2651367,-0.1401367,0.2807617,-0.2128906,0.07568359
3534,-13.0625,38.8125,42.875,-0.862793,0.300293,-0.1669922,0.2792969,-0.2158203,0.07861328
3538,-7.875,59.5,32.1875,-0.9130859,0.3662109,-0.2592773,0.2734375,-0.2143555,0.08007813
3542,6.625,48.5625,6.6875,-1.095215,0.3544922,-0.3515625,0.2675781,-0.2158203,0.08398438
3546,0.125,0.125,-5.3125,-1.308105,0.3041992,-0.4438477,0.2675781,-0.2158203,0.08789063
3550,-17,-39.125,6,-1.184082,0.21875,-0.4091797,0.2651367,-0.2143555,0.08544922
3554,-18.25,-48.375,21.5,-0.9790039,0.1333008,-0.2514648,0.2626953,-0.2158203,0.07861328
3558,-6.5,-39.1875,27.75,-0.9326172,0.2148438,-0.2016602,0.2641602,-0.2192383,0.07421875
3562,10.25,-34.125,20.3125,-0.9946289,0.3081055,-0.2207031,0.2617188,-0.2216797,0.07324219
3566,2.5625,-39.75,17.4375,-1.037109,0.3935547,-0.1938477,0.2617188,-0.2207031,0.06787109
3570,-15.625,-33.6875,17.375,-0.9790039,0.4086914,-0.1782227,0.2583008,-0.2216797,0.06494141
3574,-22,-29,24.0625,-0.9985352,0.300293,-0.2397461,0.2568359,-0.2231445,0.06201172
3578,-6.5,-32.625,26.1875,-1.005859,0.3662109,-0.2553711,0.2543945,-0.2270508,0.05664063
3582,6.625,-36.75,16.5625,-1.025391,0.4633789,-0.2285156,0.253418,-0.2270508,0.05517578
3586,-4.625,-38.0625,15.375,-1.041016,0.5683594,-0.2167969,0.253418,-0.2255859,0.05273438
3590,-17.6875,-40.75,10.875,-0.9985352,0.5058594,-0.1821289,0.25,-0.2270508,0.04882813
3594,-23.1875,-37.5625,8.375,-0.9365234,0.5214844,-0.1552734,0.2509766,-0.2280273,0.04589844
3598,-24.6875,-35.125,3.1875,-0.9672852,0.5097656,-0.1938477,0.25,-0.2255859,0.04199219
3602,-18.75,-38.25,-3.25,-0.9946289,0.5019531,-0.1860352,0.25,-0.2231445,0.03613281
3606,-20.125,-37,-6.3125,-0.9907227,0.5214844,-0.109375,0.25,-0.2270508,0.03222656
3610,-28.1875,-32.1875,-5.3125,-0.9985352,0.5097656,-0.07861328,0.2485352,-0.2255859,0.03076172
3614,-30.375,-29.8125,-7.4375,-1.009766,0.4985352,-0.128418,0.25,-0.2255859,0.02685547
3618,-31,-32,-7.625,-0.9946289,0.4711914,-0.1435547,0.2485352,-0.2246094,0.02148438
3622,-27.75,-32.3125,-8.0625,-0.9868164,0.4555664,-0.1362305,0.2475586,-0.2270508,0.01855469
