Packet number,Gyroscope X (deg/s),Gyroscope Y (deg/s),Gyroscope Z (deg/s),Accelerometer X (g),Accelerometer Y (g),Accelerometer Z (g),Magnetometer X (G),Magnetometer Y (G),Magnetometer Z (G)
3,-2.875,3.5,-7.0625,-0.9399414,-0.340332,-0.1669922,0.2709961,0.07519531,-0.09082031
7,-2.375,5.25,-7.5,-0.9169922,-0.3364258,-0.1513672,0.2709961,0.07519531,-0.09375
11,-2.125,5,-8.75,-0.9477539,-0.3442383,-0.128418,0.2709961,0.07519531,-0.09082031
15,0.125,-0.5,-10.9375,-0.9326172,-0.3286133,-0.128418,0.2700195,0.07519531,-0.09082031
19,0,-1.875,-11.5625,-0.8510742,-0.2978516,-0.1435547,0.2709961,0.07617188,-0.09228516
23,-0.125,0.6875,-10.625,-0.8588867,-0.3095703,-0.1630859,0.2709961,0.07763672,-0.09228516
27,0.3125,2.6875,-11.5,-0.862793,-0.2861328,-0.2089844,0.269043,0.07763672,-0.09228516
31,0.4375,2.1875,-14.3125,-0.847168,-0.2783203,-0.2324219,0.2700195,0.07861328,-0.08984375
35,0.625,6.3125,-14,-0.8237305,-0.2783203,-0.2285156,0.269043,0.08251953,-0.08984375
39,2.6875,10.6875,-12.75,-0.878418,-0.2978516,-0.2592773,0.269043,0.08105469,-0.08984375
43,6.25,10.625,-12.9375,-0.8935547,-0.2939453,-0.3129883,0.2675781,0.08251953,-0.08837891
47,8.1875,11.5,-17.0625,-0.8974609,-0.2705078,-0.3398438,0.2666016,0.08496094,-0.08837891
51,6.375,15,-15.8125,-0.8896484,-0.2431641,-0.3823242,0.269043,0.08398438,-0.08544922
55,-0.125,19.8125,-11.8125,-0.8974609,-0.2470703,-0.4091797,0.2675781,0.08740234,-0.08447266
59,-3.375,25.8125,-8.6875,-0.8818359,-0.2978516,-0.3823242,0.2675781,0.08642578,-0.08447266
63,-2.375,33.3125,-5.9375,-0.8896484,-0.3173828,-0.3862305,0.269043,0.08740234,-0.08154297
67,-4.375,40.5,-5.5,-0.9208984,-0.3286133,-0.394043,0.269043,0.08740234,-0.08007813
71,-6.5625,41.9375,-9.125,-0.9790039,-0.355957,-0.378418,0.2675781,0.08984375,-0.07617188
75,-11.875,38.875,-14.3125,-0.9750977,-0.3442383,-0.3901367,0.269043,0.08984375,-0.07324219
79,-17.625,42.8125,-14.875,-0.9248047,-0.3793945,-0.3515625,0.269043,0.08984375,-0.06933594
84,-19.0625,50.5,-11.1875,-0.8896484,-0.4101563,-0.4477539,0.2700195,0.09228516,-0.06640625
88,-20.6875,61.75,-10.875,-0.7773438,-0.4140625,-0.5786133,0.2700195,0.09521484,-0.06103516
92,-18.0625,82.6875,-6.9375,-0.7504883,-0.4726563,-0.6206055,0.2700195,0.09521484,-0.05419922
96,-8.9375,93.625,-13.25,-0.9711914,-0.534668,-0.6132813,0.269043,0.09619141,-0.04736328
100,-0.5625,88.4375,-28,-0.9287109,-0.46875,-0.6015625,0.2709961,0.1000977,-0.03955078
104,-2.5,99.1875,-28.3125,-0.8588867,-0.3598633,-0.6323242,0.2700195,0.1000977,-0.03125
108,-12.5625,107.6875,-22.25,-0.8588867,-0.3173828,-0.7167969,0.269043,0.1035156,-0.02294922
112,-25.4375,123.5,-10.9375,-0.7426758,-0.3056641,-0.8056641,0.2700195,0.1049805,-0.01757813
116,-29.75,148.3125,9.6875,-0.8549805,-0.402832,-0.7978516,0.269043,0.1064453,-0.00390625
120,-28.0625,141.5,-2.375,-1.114746,-0.484375,-0.7939453,0.2666016,0.1064453,0.01074219
124,-28.75,137.0625,-15.375,-0.9326172,-0.4257813,-0.7133789,0.2675781,0.1064453,0.02001953
128,-40.625,139.875,-10.9375,-0.9169922,-0.3325195,-0.8515625,0.2651367,0.1064453,0.03369141
132,-59.4375,153.25,7.3125,-0.831543,-0.3208008,-0.9399414,0.2617188,0.1074219,0.04980469
136,-73.9375,178.125,44.9375,-0.7426758,-0.3208008,-1.121094,0.2602539,0.1049805,0.05664063
140,-94.625,215.125,90.9375,-0.7695313,-0.2470703,-1.363281,0.2592773,0.09765625,0.07714844
144,-135.0625,212.9375,56.3125,-1.15332,-0.3520508,-1.436523,0.2558594,0.08984375,0.09912109
148,-143.3125,188.25,24.125,-1.009766,-0.6279297,-1.240234,0.25,0.08398438,0.1181641
152,-140.3125,192.4375,6.75,-0.9326172,-0.7172852,-1.13623,0.2426758,0.07617188,0.1381836
156,-121.0625,196.8125,-7.375,-0.7890625,-0.7910156,-1.051758,0.2329102,0.06982422,0.15625
160,-74.8125,227.75,6,-0.6767578,-0.7641602,-1.043945,0.2246094,0.06640625,0.1699219
164,-35.6875,266.875,32.4375,-0.6650391,-0.4375,-1.224609,0.2119141,0.0625,0.1914063
168,-34.625,277.1875,21.875,-0.9868164,-0.03369141,-1.640137,0.1938477,0.06005859,0.2089844
172,-65.5,247.0625,-25,-0.9946289,0.07861328,-1.709473,0.1821289,0.05615234,0.2226563
176,-93.0625,247.5625,-27.6875,-0.9750977,0.03222656,-1.494141,0.1606445,0.05517578,0.2402344
180,-108.625,249.6875,-7.625,-1.001953,0.05517578,-1.409668,0.1391602,0.04638672,0.2524414
184,-121.625,253.6875,16.5625,-0.8974609,-0.04150391,-1.301758,0.125,0.04150391,0.2636719
188,-114.3125,266.375,46.6875,-0.8510742,-0.2666016,-1.205566,0.1020508,0.03027344,0.2797852
192,-85.6875,278.0625,55.9375,-0.6303711,-0.340332,-1.08252,0.07617188,0.01855469,0.2895508
196,-64.25,284.6875,55.375,-0.7192383,-0.1967773,-1.055664,0.06298828,0.01513672,0.2949219
200,-70.375,260.5625,43.8125,-0.7387695,-0.1113281,-0.7402344,0.03564453,0.00390625,0.3017578
204,-72.625,229.4375,45.6875,-0.6884766,-0.1616211,-0.4052734,0.01171875,0,0.3056641
208,-69.9375,182.75,40.8125,-0.5644531,-0.3056641,-0.2978516,-0.001953125,-0.004394531,0.3056641
213,-46.5,154.4375,30,-0.246582,-0.4453125,-0.03613281,-0.02001953,-0.01171875,0.3100586
217,-12,124.1875,21.8125,-0.09521484,-0.4648438,0.001953125,-0.03515625,-0.01318359,0.3071289
221,17.125,101.5,14.875,0.02441406,-0.3095703,0.01367188,-0.04394531,-0.01318359,0.3056641
225,30.9375,74.875,6,0.06689453,-0.06835938,-0.01318359,-0.05322266,-0.009277344,0.3041992
229,26.5625,45.0625,3.3125,0.05908203,0.1254883,-0.04736328,-0.05908203,-0.008300781,0.3032227
233,11.75,12.25,0.25,0.07861328,0.09423828,-0.1513672,-0.05908203,-0.006835938,0.3032227
237,8.6875,-12.5625,-5.8125,0.3574219,0.0009765625,-0.309082,-0.06396484,-0.005859375,0.3032227
241,11.9375,-9.4375,-0.625,0.4506836,-0.08398438,-0.2592773,-0.05908203,-0.003417969,0.3041992
245,25.75,-18.0625,-2.25,0.3496094,-0.1035156,-0.3359375,-0.05908203,-0.001953125,0.3017578
249,31.6875,-32.0625,-7.5625,0.3071289,-0.05273438,-0.4902344,-0.05810547,-0.0004882813,0.3041992
253,33.6875,-40.1875,-15.875,0.3959961,0.02441406,-0.6171875,-0.05566406,0.002441406,0.3041992
257,32.0625,-40.25,-12.4375,0.3417969,0.03222656,-0.6860352,-0.05224609,0.004882813,0.3032227
261,30.5,-43.5625,-8,0.2568359,0.01660156,-0.6054688,-0.04589844,0.008789063,0.3041992
265,35.1875,-60.5625,-7.4375,0.1674805,-0.07617188,-0.7133789,-0.04394531,0.01269531,0.3041992
269,41.375,-69.75,-12,0.2915039,-0.08789063,-0.7822266,-0.03759766,0.01513672,0.3032227
273,45.5,-73.25,-17.3125,0.3110352,-0.1347656,-0.8823242,-0.03076172,0.01611328,0.3032227
277,56.125,-70.875,-17.6875,0.2529297,-0.2163086,-0.7861328,-0.02490234,0.02148438,0.3032227
281,73.5,-74.75,-12.1875,0.1171875,-0.1967773,-0.6938477,-0.02001953,0.02636719,0.3041992
285,85.0625,-93.4375,-9.5,-0.04492188,-0.2666016,-0.8671875,-0.01269531,0.03271484,0.300293
289,92.5625,-107.1875,-26.4375,0.3691406,-0.2861328,-1.19043,-0.003417969,0.04150391,0.2988281
293,98.4375,-78.5625,-29.8125,0.4077148,-0.3676758,-1.070801,0.0009765625,0.04882813,0.2988281
297,113.125,-67.375,-24.1875,0.06689453,-0.2978516,-0.8364258,0.008300781,0.05761719,0.293457
301,110.5625,-84.6875,-15.1875,-0.4013672,-0.02978516,-0.609375,0.01513672,0.06982422,0.2880859
305,81.875,-133.5,0.5,-0.7695313,-0.09960938,-0.7441406,0.01904297,0.07519531,0.2866211
309,56.25,-192.8125,-27.5,0.1713867,-0.3208008,-1.371094,0.03564453,0.08251953,0.2827148
313,52,-146.0625,-36.25,0.5239258,-0.7949219,-1.182617,0.04980469,0.08740234,0.2773438
317,84.5,-108.75,-31,0.1713867,-0.7680664,-1.009277,0.05810547,0.08984375,0.2729492
321,109.25,-104.1875,-32.25,-0.3823242,-0.6279297,-0.5629883,0.06640625,0.09863281,0.2661133
325,134,-142.9375,-14.875,-1.11084,-0.6279297,-0.6552734,0.07373047,0.1098633,0.2592773
329,135.6875,-197.6875,-44.9375,-0.2080078,-0.2124023,-1.270996,0.08447266,0.1186523,0.2514648
333,115.9375,-163.0625,-43.0625,-0.1533203,-0.4453125,-1.444336,0.09765625,0.1289063,0.2392578
337,109.375,-144.25,-44.25,0.1518555,-0.2084961,-1.520996,0.1069336,0.1401367,0.2255859
342,93.875,-100.25,-28.1875,-0.1381836,-0.2548828,-1.109375,0.1118164,0.1459961,0.2211914
346,95.25,-103.375,-17.875,-0.6494141,-0.2548828,-0.7055664,0.1186523,0.1538086,0.2119141
350,110.625,-130.375,-0.75,-1.013672,-0.2783203,-0.5551758,0.1269531,0.1601563,0.199707
354,110.4375,-153.875,16.75,-0.831543,-0.1499023,-0.5629883,0.1318359,0.1650391,0.1914063
358,96.875,-165.3125,29.125,-0.7192383,-0.1616211,-0.7709961,0.1425781,0.1713867,0.1762695
362,78.625,-170.8125,36.3125,-0.7504883,-0.2861328,-0.6787109,0.1547852,0.1738281,0.1616211
366,67.0625,-185.1875,34.3125,-0.7348633,-0.3793945,-0.59375,0.1630859,0.1748047,0.1518555
370,83.1875,-187.6875,40.1875,-0.8818359,-0.5698242,-0.3706055,0.1748047,0.1772461,0.1396484
374,109.375,-193.125,54.375,-1.118652,-0.5385742,-0.3901367,0.1865234,0.1772461,0.1206055
378,112.6875,-212.3125,59.5625,-1.009766,-0.2431641,-0.6669922,0.1948242,0.1772461,0.1069336
382,90.8125,-210.375,72.125,-1.033203,-0.2275391,-0.6591797,0.2055664,0.1762695,0.08398438
386,69.6875,-213.6875,87.3125,-1.15332,-0.324707,-0.5551758,0.21875,0.1713867,0.06347656
390,68.8125,-224.4375,97.8125,-1.35498,-0.5307617,-0.4169922,0.2246094,0.1660156,0.05126953
394,76.5625,-232.75,108.5,-1.370117,-0.6044922,-0.6206055,0.2368164,0.1577148,0.02539063
398,73.25,-234.8125,103.75,-1.091309,-0.6162109,-0.6977539,0.2451172,0.1489258,0.004882813
402,67.1875,-228.6875,107,-1.005859,-0.6748047,-0.9633789,0.25,0.1435547,-0.009277344
406,54.5,-209.8125,96.1875,-0.8896484,-0.7329102,-0.8710938,0.2519531,0.1323242,-0.03369141
410,55.5,-196.4375,89.4375,-1.165039,-0.8222656,-0.7553711,0.2568359,0.125,-0.05419922
414,57.1875,-194.0625,75.875,-1.246094,-0.7680664,-0.6245117,0.2583008,0.1201172,-0.06396484
418,58.375,-190.8125,71.25,-1.215332,-0.7133789,-0.5092773,0.2583008,0.1113281,-0.08447266
422,53.625,-181.6875,66.75,-1.133789,-0.6591797,-0.3632813,0.2543945,0.1035156,-0.1035156
426,46.75,-174.9375,63.375,-1.253906,-0.6552734,-0.2631836,0.2543945,0.1000977,-0.1142578
430,36.1875,-180.5625,56.875,-1.420898,-0.7094727,-0.2246094,0.2519531,0.09130859,-0.1289063
434,38.1875,-186.0625,46.25,-1.227051,-0.7949219,-0.2128906,0.2436523,0.08496094,-0.144043
438,41.9375,-174.4375,39.5,-1.12207,-0.8457031,-0.1977539,0.2412109,0.08105469,-0.1538086
442,51.6875,-165.1875,30.3125,-1.025391,-0.8999023,-0.1669922,0.2353516,0.07617188,-0.1699219
446,67.3125,-156.9375,25.1875,-1.052734,-0.9389648,-0.2285156,0.2270508,0.07128906,-0.1821289
450,75.8125,-146.0625,18.5625,-0.746582,-0.7133789,-0.3706055,0.222168,0.06884766,-0.1918945
454,57.5,-104.6875,18.25,-1.013672,-0.46875,-0.2744141,0.2177734,0.0625,-0.2026367
458,32.75,-125.625,-3,-1.017578,-0.4453125,-0.4746094,0.2119141,0.05859375,-0.2109375
462,-5.0625,-109.3125,-10.5,-0.7348633,-0.355957,-0.5131836,0.2070313,0.05859375,-0.2148438
466,-32.625,-80.25,-9.75,-0.6689453,-0.4648438,-0.4169922,0.199707,0.05859375,-0.2246094
471,-29.1875,-52.9375,-6.9375,-0.6533203,-0.7133789,-0.2246094,0.1948242,0.06005859,-0.2255859
475,-6.6875,-21.9375,-6.3125,-0.6264648,-0.7910156,0.03662109,0.1928711,0.06494141,-0.2285156
479,22.75,-0.625,-1.875,-0.6923828,-0.6279297,0.144043,0.1904297,0.06494141,-0.2270508
483,22.3125,6.3125,1.25,-0.8085938,-0.355957,0.1557617,0.1914063,0.06005859,-0.2285156
487,4.1875,3.3125,-0.75,-0.78125,-0.2006836,0.159668,0.1904297,0.06103516,-0.2270508
491,-14.9375,1.125,-3.0625,-0.7231445,-0.2626953,0.2094727,0.1914063,0.06103516,-0.2285156
495,-19.125,3.9375,-2.125,-0.6376953,-0.3676758,0.1982422,0.1928711,0.0625,-0.2255859
499,-16.25,12.0625,-0.9375,-0.6650391,-0.421875,0.1787109,0.1904297,0.06396484,-0.2270508
503,-2.75,16.8125,-3.5,-0.7734375,-0.4960938,0.1713867,0.1928711,0.06640625,-0.2255859
507,11.4375,14.4375,-10.75,-0.7231445,-0.453125,0.09814453,0.1962891,0.06738281,-0.2231445
511,20.25,22.6875,-14.6875,-0.7231445,-0.4453125,0.05175781,0.1948242,0.06494141,-0.2231445
515,19.5625,26.5625,-22.125,-0.7075195,-0.3911133,-0.03613281,0.1962891,0.06640625,-0.2246094
519,17.25,39.5625,-25.75,-0.6767578,-0.4335938,-0.1166992,0.1962891,0.06640625,-0.2202148
523,16.25,55.8125,-26.8125,-0.6923828,-0.4414063,-0.2514648,0.1972656,0.06494141,-0.2216797
527,15.3125,76.6875,-23.5,-0.715332,-0.4453125,-0.359375,0.199707,0.06640625,-0.2163086
531,10.625,93.625,-27.5,-0.7348633,-0.4726563,-0.4975586,0.2070313,0.06738281,-0.2119141
535,2.0625,110.0625,-42.0625,-0.765625,-0.5151367,-0.5478516,0.2094727,0.06738281,-0.2109375
539,-7.1875,123.25,-57.8125,-0.7387695,-0.5620117,-0.5708008,0.2138672,0.06982422,-0.2026367
543,-12.9375,146.5,-61.5,-0.7773438,-0.6162109,-0.5629883,0.21875,0.07373047,-0.1928711
547,-14.9375,167.375,-61.75,-0.862793,-0.6357422,-0.5439453,0.222168,0.08007813,-0.1835938
551,-17.1875,186.5,-60.3125,-0.8818359,-0.5966797,-0.559082,0.2285156,0.08398438,-0.1728516
555,-18.9375,209.3125,-52.6875,-0.9365234,-0.6201172,-0.5551758,0.234375,0.09130859,-0.1591797
559,-18.25,227,-53.5,-1.191895,-0.6630859,-0.4555664,0.2402344,0.09375,-0.1469727
563,-17.125,203.25,-84.5,-1.32373,-0.7016602,-0.4130859,0.2451172,0.1000977,-0.1289063
567,-16.625,209.75,-89.9375,-1.063965,-0.6591797,-0.324707,0.25,0.1088867,-0.112793
571,-14.1875,232.8125,-65.25,-1.195801,-0.5581055,-0.3666992,0.2509766,0.1113281,-0.1020508
575,-18.875,250.625,-31.125,-1.203613,-0.4335938,-0.4130859,0.2519531,0.1201172,-0.08154297
579,-29.1875,274.875,2.375,-1.393555,-0.371582,-0.4169922,0.2583008,0.1210938,-0.05957031
583,-44.5625,234.4375,-25.8125,-1.765625,-0.4804688,-0.4785156,0.2583008,0.1210938,-0.04199219
587,-55.875,205.125,-48.375,-1.381836,-0.6005859,-0.4013672,0.2592773,0.1235352,-0.02148438
591,-56.1875,200.8125,-47.5,-1.165039,-0.6591797,-0.59375,0.2558594,0.1298828,-0.002441406
595,-64.5,220.125,-34.875,-1.118652,-0.6821289,-0.7167969,0.253418,0.1337891,0.01074219
600,-45.625,251.375,8.1875,-0.8393555,-0.7133789,-0.8901367,0.25,0.1362305,0.03222656
604,-41.5,292.875,25.3125,-1.223145,-0.5229492,-0.9438477,0.2451172,0.1337891,0.05664063
608,-59,245.5625,-8.875,-1.591309,-0.4804688,-0.9941406,0.2402344,0.1337891,0.07421875
612,-84.5,218.9375,-31.625,-1.20752,-0.503418,-0.8554688,0.2329102,0.1337891,0.09619141
616,-102.875,213.0625,-30.375,-1.063965,-0.5581055,-0.9326172,0.2236328,0.1337891,0.1181641
620,-108.8125,215.4375,-21.5,-0.9287109,-0.7250977,-0.9594727,0.2163086,0.1313477,0.1313477
624,-86.8125,235.75,4.625,-0.7075195,-0.8574219,-0.8979492,0.2021484,0.1289063,0.1518555
628,-56.9375,257.75,22.0625,-0.78125,-0.7524414,-0.9633789,0.1889648,0.1264648,0.1708984
632,-51.0625,238.5625,-8.1875,-1.071777,-0.6005859,-0.8901367,0.1796875,0.1210938,0.1845703
636,-60.375,207.25,-27.0625,-0.9516602,-0.5151367,-0.7670898,0.1640625,0.1201172,0.2021484
640,-73.0625,190.125,-32.625,-0.7929688,-0.519043,-0.7475586,0.1484375,0.1210938,0.2158203
644,-81.1875,183.9375,-19.4375,-0.5605469,-0.5073242,-0.8168945,0.1376953,0.1162109,0.2211914
648,-81.5625,191.75,-6.6875,-0.3085938,-0.5620117,-0.9438477,0.1235352,0.1098633,0.2363281
652,-75.25,217.9375,12.1875,-0.07617188,-0.5893555,-1.063477,0.1044922,0.1064453,0.2485352
656,-71.8125,249.9375,20.5625,-0.1767578,-0.5073242,-1.036133,0.09521484,0.1010742,0.2553711
660,-82.1875,232.3125,-2.625,-0.7192383,-0.4179688,-0.8554688,0.07373047,0.09521484,0.2651367
664,-91.9375,173.25,-30.125,-0.6147461,-0.534668,-0.5668945,0.0546875,0.08886719,0.2729492
668,-74.75,145.5625,-30.75,-0.4946289,-0.7250977,-0.3554688,0.04248047,0.08251953,0.2783203
672,-38.3125,125.4375,-16.0625,-0.362793,-0.6005859,-0.2089844,0.02978516,0.07617188,0.28125
676,-11.375,99.5625,-2.1875,-0.4130859,-0.4414063,-0.2670898,0.01904297,0.07763672,0.2851563
680,-0.4375,67.125,-5.8125,-0.2270508,-0.3173828,-0.2016602,0.01171875,0.07519531,0.2880859
684,3.6875,35.125,-13.625,-0.09521484,-0.3481445,-0.2861328,0.005859375,0.07617188,0.2866211
688,9.6875,20.1875,-17.1875,0.02441406,-0.3208008,-0.2705078,0.002441406,0.07763672,0.2851563
692,17.25,3.25,-19.125,0.07861328,-0.2705078,-0.378418,0.0009765625,0.07861328,0.2880859
696,23.5625,-4.9375,-14.875,0.1518555,-0.2392578,-0.3862305,0,0.07861328,0.2851563
700,25.8125,-11.875,-8.875,0.1518555,-0.1655273,-0.4707031,0.0009765625,0.08251953,0.2866211
704,23.875,-21.6875,-10.0625,0.1054688,-0.1655273,-0.5209961,0.0009765625,0.08251953,0.2827148
708,26.625,-31.8125,-12.0625,0.1948242,-0.2084961,-0.5668945,0.003417969,0.08496094,0.2841797
712,31.5,-35.4375,-11.0625,0.2138672,-0.1694336,-0.7016602,0.005859375,0.08886719,0.2827148
716,28.5,-38.25,-10.0625,0.1674805,-0.1113281,-0.7670898,0.006835938,0.08984375,0.2797852
720,20.25,-45.625,-10.0625,0.190918,-0.05273438,-0.8325195,0.01171875,0.09130859,0.2797852
724,7.375,-45,-1.875,0.1557617,-0.08789063,-0.8901367,0.01660156,0.09228516,0.2783203
729,1.0625,-47.0625,-1.6875,0.2294922,-0.1694336,-0.9438477,0.01757813,0.09521484,0.2783203
733,2.25,-45.75,0.5625,0.1171875,-0.2783203,-0.9287109,0.02246094,0.09375,0.2773438
737,7.125,-49.1875,-0.875,0.140625,-0.2783203,-0.8671875,0.02587891,0.09375,0.2773438
741,12.375,-54.375,4,0.0009765625,-0.2861328,-0.9248047,0.02978516,0.09521484,0.2744141
745,12.25,-64.4375,0.9375,-0.01806641,-0.2314453,-0.859375,0.03564453,0.09619141,0.2744141
749,11.5,-77.375,3.8125,-0.01416016,-0.2783203,-0.878418,0.04150391,0.09619141,0.2758789
753,14.25,-81.25,7.25,-0.08007813,-0.371582,-0.878418,0.04638672,0.09765625,0.2729492
757,22.125,-91.8125,-2,0.1484375,-0.3833008,-1.01709,0.0546875,0.09863281,0.269043
761,29.5,-80.25,-0.0625,0.01269531,-0.4335938,-0.9863281,0.06298828,0.1010742,0.2661133
765,37.8125,-82.8125,0.625,-0.07617188,-0.2705078,-0.8129883,0.06884766,0.1025391,0.2636719
769,35.5,-95.4375,4.375,-0.4985352,-0.1191406,-0.5898438,0.07373047,0.1064453,0.2592773
773,28.5625,-130.9375,22.5,-0.8237305,-0.1694336,-0.5322266,0.08544922,0.1049805,0.2553711
777,20.4375,-173.9375,10.125,-0.02978516,-0.2744141,-1.070801,0.09521484,0.1088867,0.2514648
781,16,-135.1875,0.125,0.08251953,-0.5151367,-0.9516602,0.1079102,0.1088867,0.2446289
785,33.625,-130.3125,3.1875,-0.1420898,-0.4609375,-0.9746094,0.1201172,0.1088867,0.2392578
789,39.9375,-128.375,10.25,-0.4326172,-0.4296875,-0.9707031,0.1259766,0.1137695,0.2348633
793,35.3125,-142.375,-3.1875,-0.1030273,-0.2900391,-0.9746094,0.1367188,0.1137695,0.2255859
797,32.0625,-133.625,1.0625,-0.1923828,-0.421875,-1.170898,0.1459961,0.1137695,0.2172852
801,32.1875,-114.625,7.875,-0.1689453,-0.4375,-1.05957,0.1523438,0.1186523,0.2119141
805,28.9375,-107.875,7.1875,-0.07226563,-0.3989258,-1.255371,0.1591797,0.1176758,0.2036133
809,25.75,-84.375,2.5625,-0.2080078,-0.503418,-1.063477,0.1689453,0.1186523,0.1967773
813,34.25,-82.6875,8.6875,-0.5292969,-0.4375,-0.84375,0.1713867,0.1201172,0.1943359
817,36.125,-93.1875,21.5625,-0.862793,-0.3442383,-0.6860352,0.1782227,0.1210938,0.1860352
821,22.625,-116.5625,28.4375,-0.7773438,-0.2900391,-0.7514648,0.1855469,0.1210938,0.1791992
825,6.0625,-133.3125,26.8125,-0.5644531,-0.4140625,-1.08252,0.1914063,0.1201172,0.1723633
829,-6.8125,-123,8.8125,-0.3242188,-0.5737305,-0.9555664,0.199707,0.1201172,0.1630859
833,6.625,-113.0625,12.875,-0.6416016,-0.6860352,-0.7402344,0.2080078,0.1176758,0.15625
837,27.125,-117,14.25,-0.9208984,-0.6669922,-0.3862305,0.2119141,0.1162109,0.1494141
841,56.375,-136.25,27.9375,-1.125977,-0.5927734,-0.324707,0.2202148,0.1162109,0.137207
845,60.9375,-158.625,44.5625,-1.075684,-0.4140625,-0.7094727,0.2260742,0.1162109,0.1235352
849,33.9375,-161.125,23.5,-0.5332031,-0.3208008,-0.824707,0.2353516,0.1162109,0.1152344
853,28.5625,-153.6875,25.25,-0.847168,-0.5307617,-0.7475586,0.2412109,0.1152344,0.1015625
858,35,-155.75,26,-0.9711914,-0.484375,-0.4516602,0.2485352,0.1123047,0.08544922
862,52.1875,-164.125,35.375,-1.141602,-0.324707,-0.2592773,0.2519531,0.1098633,0.07714844
866,61.125,-178.9375,57.6875,-1.304199,-0.421875,-0.4208984,0.2583008,0.1074219,0.06201172
870,40.8125,-191,50.625,-0.6884766,-0.2783203,-0.8286133,0.2666016,0.1025391,0.04199219
874,23.9375,-172.25,43.375,-0.8198242,-0.534668,-0.8056641,0.2666016,0.1000977,0.02978516
878,28.0625,-170.125,38.625,-0.8276367,-0.5620117,-0.6591797,0.2709961,0.09619141,0.01171875
882,38.8125,-160.1875,39.0625,-1.041016,-0.5966797,-0.4746094,0.2749023,0.09228516,-0.001464844
886,51,-165.5625,42.4375,-1.227051,-0.5385742,-0.3129883,0.2773438,0.08984375,-0.01220703
890,56.9375,-172.9375,57.75,-1.037109,-0.5151367,-0.5976563,0.2773438,0.08642578,-0.02978516
894,47.625,-154.3125,50.6875,-0.6494141,-0.565918,-0.7094727,0.2792969,0.08105469,-0.04638672
898,47,-142.625,47.375,-0.7695313,-0.6748047,-0.8745117,0.2792969,0.07373047,-0.05859375
902,40.125,-125,27.8125,-0.6806641,-0.6669922,-0.7592773,0.2807617,0.06982422,-0.07177734
906,42.875,-111.9375,22.1875,-0.878418,-0.7407227,-0.5629883,0.2758789,0.06884766,-0.08154297
910,54.5,-103.0625,21.625,-0.9594727,-0.7211914,-0.5131836,0.2749023,0.06396484,-0.08984375
914,64.25,-94.5,16.4375,-0.9248047,-0.7133789,-0.4169922,0.2734375,0.06005859,-0.1035156
918,68,-83.1875,13.875,-0.8857422,-0.5385742,-0.4091797,0.2734375,0.05761719,-0.112793
922,53.6875,-76.9375,8.125,-1.021484,-0.4101563,-0.3666992,0.2700195,0.05615234,-0.1166992
926,24.8125,-77.25,-0.9375,-1.041016,-0.2124023,-0.1591797,0.2675781,0.05371094,-0.125
930,2.375,-89.3125,-2.9375,-1.285156,-0.2861328,0.07128906,0.2651367,0.05371094,-0.1318359
934,6.875,-101.3125,-7.8125,-1.234863,-0.3208008,0.2866211,0.2651367,0.05517578,-0.1357422
938,17.125,-103.9375,8,-1.296875,-0.2084961,0.3520508,0.2583008,0.05517578,-0.1469727
942,11.875,-111.8125,21.125,-1.300781,-0.06054688,0.3330078,0.2519531,0.05126953,-0.1538086
946,-1.625,-119.125,30.4375,-1.257813,-0.04541016,0.4057617,0.253418,0.05126953,-0.1606445
950,-5.6875,-130.5625,36.6875,-1.335449,-0.1381836,0.4750977,0.2485352,0.04736328,-0.1699219
954,-2.5625,-145.75,42.625,-1.397461,-0.2163086,0.4907227,0.2426758,0.04638672,-0.1796875
958,9,-158.6875,52.625,-1.191895,-0.2548828,0.3364258,0.237793,0.04150391,-0.1865234
962,22.1875,-155.0625,62.1875,-1.052734,-0.3793945,0.1865234,0.2294922,0.03857422,-0.1987305
966,33.875,-144.375,66.9375,-0.8974609,-0.340332,0.1289063,0.222168,0.03125,-0.2094727
970,28.3125,-119,79.75,-1.091309,-0.05664063,-0.01318359,0.2202148,0.02490234,-0.2163086
974,3.625,-154.4375,56.875,-1.009766,-0.2626953,-0.1938477,0.2128906,0.02148438,-0.2270508
978,-12.3125,-147.5,45.0625,-0.7773438,-0.4296875,-0.2514648,0.2055664,0.01513672,-0.2324219
982,-15,-131.1875,38.75,-0.699707,-0.5620117,-0.2705078,0.1972656,0.01611328,-0.2392578
987,-10.75,-116.6875,28.875,-0.6494141,-0.6474609,-0.3208008,0.1889648,0.01513672,-0.2490234
991,-1.0625,-95.75,12.375,-0.4985352,-0.6748047,-0.3168945,0.1806641,0.01611328,-0.2529297
995,15.5625,-65.5,4.25,-0.5566406,-0.6977539,-0.2631836,0.1782227,0.01513672,-0.2543945
999,30.9375,-40.25,1.5625,-0.5141602,-0.581543,-0.1821289,0.1738281,0.01367188,-0.2597656
1003,37.8125,-11.6875,0.0625,-0.5292969,-0.4375,-0.1206055,0.1723633,0.01025391,-0.2597656
1007,32.25,4.875,-4.5,-0.6494141,-0.2666016,-0.001464844,0.1713867,0.01025391,-0.2597656
1011,18.5,13.75,-6.5625,-0.6845703,-0.1499023,0.09423828,0.1713867,0.007324219,-0.2583008
1015,1.4375,18.5625,-9.6875,-0.715332,-0.1191406,0.1748047,0.1723633,0.006347656,-0.2612305
1019,-9.5625,23.5,-8.4375,-0.715332,-0.1499023,0.3291016,0.1748047,0.007324219,-0.2612305
1023,-7.875,23.5625,-5.6875,-0.8164063,-0.2163086,0.4633789,0.1757813,0.007324219,-0.2583008
1027,1.1875,16.6875,-4.875,-0.7773438,-0.2548828,0.5175781,0.1782227,0.008789063,-0.2583008
1031,6.75,20.125,-3.5625,-0.7270508,-0.2124023,0.4790039,0.1772461,0.007324219,-0.2543945
1035,7,21.5625,-4.75,-0.7504883,-0.1811523,0.4213867,0.1796875,0.007324219,-0.2568359
1039,4.6875,19.5,-9.9375,-0.8046875,-0.2045898,0.4287109,0.1796875,0.006347656,-0.2568359
1043,5.3125,18.25,-10.75,-0.8125,-0.2202148,0.4287109,0.1806641,0.007324219,-0.2558594
1047,8,18.8125,-8.9375,-0.8007813,-0.2509766,0.355957,0.184082,0.007324219,-0.2558594
1051,8,25.5,-7,-0.7578125,-0.2626953,0.2211914,0.1855469,0.006347656,-0.2568359
1055,5.6875,35.125,-8.5625,-0.7114258,-0.3017578,0.05175781,0.184082,0.007324219,-0.2543945
1059,-0.1875,46.75,-19.1875,-0.6923828,-0.324707,-0.1166992,0.1879883,0.004882813,-0.2514648
1063,-9.75,61.8125,-33.5625,-0.730957,-0.324707,-0.2055664,0.1904297,0.008789063,-0.2460938
1067,-14.9375,75.4375,-44.125,-0.7734375,-0.3989258,-0.2822266,0.1928711,0.01025391,-0.2421875
1071,-12.6875,99.6875,-47.25,-0.7617188,-0.4765625,-0.3359375,0.1962891,0.01513672,-0.2392578
1075,-4.625,126.75,-46.1875,-0.8745117,-0.4921875,-0.4594727,0.2045898,0.01757813,-0.2324219
1079,-13.1875,151.5,-51.25,-0.8706055,-0.4335938,-0.559082,0.2119141,0.01855469,-0.2285156
1083,-35.9375,162.8125,-73.9375,-1.060547,-0.4726563,-0.574707,0.21875,0.02636719,-0.2177734
1087,-56.4375,169.3125,-89.3125,-1.044922,-0.5893555,-0.4594727,0.2270508,0.03515625,-0.206543
1091,-58.9375,185.6875,-95.5625,-1.013672,-0.7524414,-0.3745117,0.2329102,0.04003906,-0.1972656
1095,-45,211.3125,-90.4375,-1.161133,-0.8105469,-0.2822266,0.2412109,0.04882813,-0.1806641
1099,-31.75,218.125,-92.8125,-1.265625,-0.7250977,-0.2670898,0.2485352,0.06005859,-0.1645508
1103,-25.625,222,-101.5,-1.335449,-0.6513672,-0.2363281,0.2509766,0.06640625,-0.1494141
1107,-18.5625,227.0625,-100.5625,-1.312012,-0.6123047,-0.1474609,0.2568359,0.07763672,-0.1318359
1111,-10,246,-75.4375,-1.25,-0.503418,-0.1977539,0.2617188,0.08496094,-0.1142578
1116,-11.0625,244.4375,-64.5,-1.459473,-0.4140625,-0.3325195,0.2641602,0.08984375,-0.09765625
1120,-25.25,239.4375,-63.9375,-1.490234,-0.3598633,-0.3666992,0.2700195,0.09765625,-0.07763672
1124,-45.1875,227.4375,-65.3125,-1.509766,-0.3598633,-0.4091797,0.269043,0.1010742,-0.05419922
1128,-61.6875,219.75,-60.4375,-1.23877,-0.4296875,-0.5131836,0.2675781,0.1088867,-0.03955078
1132,-69.3125,248.0625,-23.8125,-0.8818359,-0.5698242,-0.824707,0.2651367,0.1137695,-0.01757813
1136,-73.9375,286.8125,7.75,-0.9287109,-0.7211914,-0.9399414,0.2641602,0.1152344,0.004882813
1140,-47.5,331.8125,35.9375,-1.044922,-0.7871094,-0.9438477,0.2626953,0.1152344,0.02539063
1144,-36.75,275.8125,-36.8125,-2.094727,-0.8105469,-1.047852,0.2583008,0.1123047,0.05517578
1148,-42,231.75,-69.8125,-1.013672,-0.6513672,-0.7709961,0.25,0.1176758,0.07861328
1152,-52.0625,262.0625,-52.75,-1.203613,-0.6083984,-0.9287109,0.2412109,0.1210938,0.09472656
1156,-62.5,266.3125,-29.125,-1.184082,-0.5268555,-0.894043,0.230957,0.1225586,0.1152344
1160,-60.125,284.9375,18.75,-0.9633789,-0.581543,-1.001465,0.2138672,0.1225586,0.1381836
1164,-58.25,293.8125,10.1875,-1.521484,-0.6162109,-0.9091797,0.2055664,0.1201172,0.15625
1168,-50.375,223.375,-27.875,-1.180664,-0.7094727,-0.9326172,0.1904297,0.1186523,0.1777344
1172,-46.75,219.3125,-45.0625,-0.8007813,-0.7680664,-1.08252,0.1757813,0.1162109,0.1914063
1176,-54.9375,222.625,-59.375,-0.5566406,-0.6279297,-1.117188,0.1630859,0.1201172,0.2011719
1180,-58.5,229.75,-40.4375,-0.8588867,-0.6860352,-1.055664,0.144043,0.1176758,0.2143555
1184,-50.375,229.6875,-21.25,-0.7695313,-0.6748047,-0.7978516,0.1269531,0.1162109,0.230957
1188,-35.4375,215,-17.6875,-0.6303711,-0.6708984,-0.8168945,0.112793,0.1137695,0.237793
1192,-24.4375,205.75,-28.0625,-0.7695313,-0.6474609,-0.628418,0.09521484,0.1137695,0.2460938
1196,-12.1875,177,-32.0625,-0.6303711,-0.5229492,-0.4052734,0.07714844,0.1152344,0.2539063
1200,-9.0625,147.0625,-31.125,-0.6225586,-0.4648438,-0.3129883,0.06640625,0.1162109,0.2583008
1204,-4.3125,120.8125,-32.375,-0.378418,-0.3325195,-0.1435547,0.05224609,0.1162109,0.262207
1208,-4.3125,96.5,-18,-0.3125,-0.2666016,-0.2631836,0.04052734,0.1162109,0.2661133
1212,-13.375,77.6875,-18.25,-0.3046875,-0.1967773,-0.0859375,0.03417969,0.1162109,0.2651367
1216,-13.5,41.8125,-17.75,-0.1420898,-0.2978516,-0.1054688,0.02734375,0.1162109,0.2661133
1220,-3.75,30.25,-14.1875,-0.04492188,-0.3989258,-0.07080078,0.0234375,0.1152344,0.2675781
1224,5.875,13.8125,-12.5625,0.05517578,-0.2822266,-0.1899414,0.02246094,0.1137695,0.269043
1228,9.9375,2.3125,-6.375,0.07080078,-0.3173828,-0.3554688,0.02001953,0.1152344,0.2675781
1232,12.3125,-1.0625,-7.375,0.2294922,-0.2783203,-0.3398438,0.01904297,0.1162109,0.2675781
1236,18.6875,-10.875,-2,0.02050781,-0.2978516,-0.3632813,0.02001953,0.1162109,0.2675781
1240,23.0625,-27.875,2.25,0.008789063,-0.2275391,-0.4282227,0.02148438,0.1186523,0.2675781
1245,20.125,-40.9375,3.5,0.1210938,-0.2163086,-0.6362305,0.0234375,0.1210938,0.2661133
1249,10.9375,-38.75,2.25,0.3071289,-0.1733398,-0.7553711,0.02587891,0.1225586,0.2636719
1253,-1,-33.125,6.3125,0.1518555,-0.1694336,-0.8168945,0.03076172,0.1225586,0.262207
1257,-9.125,-40.1875,6.375,0.03173828,-0.2626953,-0.7285156,0.03320313,0.1225586,0.2636719
1261,-5.5625,-49.75,12.375,0.02441406,-0.2900391,-0.7900391,0.03808594,0.1210938,0.262207
1265,-5.125,-54.9375,17.3125,0.008789063,-0.324707,-0.8901367,0.04150391,0.1186523,0.262207
1269,-4.4375,-56.125,19.3125,0.1445313,-0.3442383,-0.9672852,0.04736328,0.1201172,0.2607422
1273,-6.875,-53.125,20.125,0.04345703,-0.371582,-0.9672852,0.05078125,0.1186523,0.2592773
1277,-6.8125,-56.1875,19.375,0.1210938,-0.355957,-0.9326172,0.05712891,0.1186523,0.2583008
1281,-5.4375,-55.8125,23.3125,-0.1264648,-0.3325195,-0.7285156,0.06152344,0.1162109,0.2592773
1285,-2,-75.125,30.0625,-0.3588867,-0.2548828,-0.5976563,0.06640625,0.1152344,0.2583008
1289,-5.4375,-107.75,31.6875,-0.215332,-0.2978516,-0.9672852,0.07714844,0.1137695,0.2568359
1293,-20.0625,-95,24.375,0.1367188,-0.3481445,-0.84375,0.08691406,0.1123047,0.2514648
1297,-16,-92.9375,29.3125,-0.1845703,-0.4609375,-0.8208008,0.09277344,0.1088867,0.25
1301,-2.25,-102.125,25.8125,-0.3320313,-0.453125,-0.4248047,0.1035156,0.1064453,0.2514648
1305,20.8125,-127.6875,40.125,-0.7270508,-0.3754883,-0.4360352,0.1118164,0.1064453,0.2402344
1309,21.3125,-161.9375,50.0625,-0.5834961,-0.3520508,-0.7783203,0.1210938,0.1064453,0.237793
1313,12,-166.125,30.5625,0.2294922,-0.4648438,-1.163086,0.1367188,0.1035156,0.230957
1317,22.3125,-121.875,30.625,-0.01416016,-0.6899414,-0.9438477,0.1508789,0.1025391,0.2226563
1321,52.5625,-119.75,37.375,-0.5722656,-0.5620117,-0.6630859,0.1557617,0.1035156,0.21875
1325,76.375,-140,52.9375,-0.9399414,-0.4414063,-0.7094727,0.1674805,0.1064453,0.206543
1329,69.5625,-160.5625,47.375,-0.7504883,-0.2314453,-0.7363281,0.1796875,0.1088867,0.1928711
1333,43.1875,-171.4375,59.125,-0.7387695,-0.1811523,-1.043945,0.1879883,0.1074219,0.1875
1337,5.4375,-171.375,41.4375,-0.5214844,-0.3056641,-0.9360352,0.2011719,0.1035156,0.1723633
1341,-1.25,-170.8125,36.8125,-0.8510742,-0.519043,-0.7207031,0.2138672,0.1035156,0.1601563
1345,17.625,-183.75,35.4375,-1.005859,-0.6748047,-0.4130859,0.2202148,0.09863281,0.1533203
1349,44,-201.625,46.0625,-1.15332,-0.6787109,-0.559082,0.2319336,0.09765625,0.1381836
1353,27.1875,-218.625,25.3125,-0.5175781,-0.46875,-0.8168945,0.2426758,0.09521484,0.1206055
1357,6.9375,-206.1875,8.625,-0.4868164,-0.6708984,-0.9052734,0.2485352,0.09228516,0.1069336
1361,5.25,-195.5625,-6.6875,-0.5214844,-0.7641602,-0.7285156,0.2568359,0.08984375,0.08935547
1365,27.0625,-180.6875,-11.0625,-0.8393555,-0.9155273,-0.4477539,0.2617188,0.09228516,0.07324219
1369,69.4375,-179.0625,4,-1.242188,-0.8496094,-0.2285156,0.2641602,0.09228516,0.06103516
1374,88.1875,-187.1875,20.125,-1.424316,-0.503418,-0.2324219,0.269043,0.09228516,0.04443359
1378,70.4375,-204.5625,30.3125,-1.606445,-0.1772461,-0.3554688,0.2734375,0.08984375,0.02148438
1382,28.625,-225.375,45.4375,-1.587402,-0.1347656,-0.4746094,0.2758789,0.08984375,0.006347656
1386,-15.5,-234.375,56.75,-1.413086,-0.1269531,-0.6479492,0.2792969,0.08398438,-0.01367188
1390,-42.5,-232.375,61.0625,-1.381836,-0.453125,-0.5478516,0.2807617,0.07763672,-0.03369141
1394,-28.6875,-232.375,63.75,-1.471191,-0.7172852,-0.4667969,0.2817383,0.07275391,-0.04492188
1398,-6.25,-224.9375,64.4375,-1.296875,-0.7329102,-0.4052734,0.2792969,0.06738281,-0.06640625
1402,8.1875,-216.625,67.4375,-1.246094,-0.5854492,-0.6787109,0.2783203,0.06005859,-0.08544922
1406,-1.6875,-204.125,54.9375,-1.095215,-0.4882813,-0.7167969,0.2783203,0.05517578,-0.09912109
1410,-9.8125,-191.9375,52.25,-1.087402,-0.4804688,-0.6860352,0.2724609,0.05126953,-0.1157227
1414,-16.875,-180.25,41.9375,-1.133789,-0.4726563,-0.559082,0.269043,0.04736328,-0.1318359
1418,-17.125,-176.9375,33.3125,-1.172852,-0.5073242,-0.4091797,0.2651367,0.04248047,-0.1401367
1422,-14.125,-174.8125,23.875,-1.141602,-0.5073242,-0.394043,0.2583008,0.04248047,-0.1577148
1426,-12.9375,-167.8125,16.75,-0.9985352,-0.5,-0.4321289,0.2509766,0.04248047,-0.168457
1430,-13.5625,-152.0625,8.3125,-0.8706055,-0.4882813,-0.4707031,0.2475586,0.04150391,-0.1767578
1434,-10.9375,-133.75,-0.625,-0.9365234,-0.519043,-0.3745117,0.2392578,0.04003906,-0.1865234
1438,-2.125,-122,-15.3125,-1.083496,-0.5463867,-0.1401367,0.230957,0.04150391,-0.1972656
1442,10.5625,-119.375,-26.3125,-1.157227,-0.4804688,0.05566406,0.2285156,0.04248047,-0.2026367
1446,23.5625,-112.9375,-20.875,-1.095215,-0.371582,0.125,0.2202148,0.04394531,-0.2119141
1450,23.75,-105,-15.75,-0.9907227,-0.2275391,0.1289063,0.2138672,0.04394531,-0.2177734
1454,19.375,-94.4375,-7.875,-0.9555664,-0.2045898,0.1748047,0.2080078,0.04394531,-0.2231445
1458,14.6875,-91.1875,-4.9375,-1.005859,-0.2353516,0.2866211,0.2021484,0.04638672,-0.2285156
1462,19.6875,-88.875,0.0625,-0.8935547,-0.3208008,0.355957,0.1948242,0.04394531,-0.2338867
1466,36,-69.1875,31.75,-0.6030273,-0.3989258,0.2749023,0.1928711,0.04150391,-0.237793
1470,31,-65.75,19.625,-1.060547,-0.3286133,0.1171875,0.1889648,0.03759766,-0.2421875
1474,28.25,-63.625,20.0625,-0.6806641,-0.1772461,0.1635742,0.1855469,0.03369141,-0.2490234
1478,10.9375,-50.875,28.1875,-0.7192383,-0.08398438,0.03271484,0.1831055,0.03271484,-0.2490234
1482,-8.125,-49.875,25.8125,-0.7231445,-0.1459961,0.05566406,0.1796875,0.03027344,-0.2543945
1486,-21.8125,-44.5625,27,-0.6455078,-0.2241211,0.1210938,0.1782227,0.03027344,-0.2543945
1490,-22.0625,-34.8125,31.1875,-0.6264648,-0.3481445,0.144043,0.1772461,0.03125,-0.2568359
1494,-13.1875,-23.9375,32.1875,-0.5292969,-0.4453125,0.1479492,0.1738281,0.03027344,-0.2543945
1498,-1.3125,-8.625,28.875,-0.5527344,-0.4921875,0.1635742,0.1738281,0.02880859,-0.2568359
1503,6.8125,-0.75,21.25,-0.5566406,-0.4375,0.140625,0.1738281,0.03027344,-0.2583008
1507,4.25,4.25,12.5,-0.5795898,-0.3833008,0.08251953,0.1738281,0.02636719,-0.2583008
1511,-2.0625,8,2.25,-0.6303711,-0.3950195,0.07910156,0.1772461,0.02636719,-0.2558594
1515,-5.4375,12.3125,-6.25,-0.5683594,-0.3989258,0.07128906,0.1723633,0.02636719,-0.2568359
1519,-7.4375,27.5,-10.625,-0.5527344,-0.4257813,0.03662109,0.1748047,0.02734375,-0.2568359
1523,-10.5625,45.125,-11.1875,-0.6186523,-0.402832,0.01367188,0.1796875,0.02880859,-0.2543945
1527,-13.1875,54.8125,-18.0625,-0.6884766,-0.4570313,0.03662109,0.1821289,0.03027344,-0.2514648
1531,-4.3125,67.1875,-25.5625,-0.7036133,-0.5620117,0.05175781,0.1831055,0.03271484,-0.25
1535,8.625,78.125,-34.125,-0.6650391,-0.5268555,0.005859375,0.1865234,0.03369141,-0.2460938
1539,13.25,94.0625,-41.75,-0.7192383,-0.4765625,-0.05126953,0.1904297,0.03271484,-0.2421875
1543,14.75,111.625,-39.5625,-0.6962891,-0.3950195,-0.1166992,0.1962891,0.03613281,-0.2353516
1547,9.25,134.8125,-27.625,-0.7734375,-0.3056641,-0.1708984,0.2045898,0.03759766,-0.230957
1551,-4.875,151.25,-19.375,-0.8896484,-0.2548828,-0.2055664,0.2104492,0.03613281,-0.2246094
1555,-19.5625,149.3125,-31.75,-1.12207,-0.3442383,-0.1474609,0.21875,0.03759766,-0.2133789
1559,-23.8125,132.3125,-54.5,-1.071777,-0.4648438,-0.09765625,0.2260742,0.04248047,-0.2026367
1563,-17.5625,139.75,-58.8125,-0.8935547,-0.5112305,-0.109375,0.2285156,0.04638672,-0.1972656
1567,-7.8125,165,-45.5,-0.7695313,-0.4882813,-0.1552734,0.2353516,0.05273438,-0.1865234
1571,1.625,201.5625,-16.6875,-0.8125,-0.4375,-0.2207031,0.2436523,0.05517578,-0.1738281
1575,5,199.5625,-31.125,-1.529297,-0.4492188,-0.2016602,0.25,0.05371094,-0.1616211
1579,4.6875,157.3125,-68.5625,-1.253906,-0.4453125,-0.112793,0.2568359,0.05859375,-0.1484375
1583,-1.8125,168.125,-71.0625,-1.083496,-0.3754883,-0.1435547,0.2602539,0.06640625,-0.1347656
1587,-2.0625,173.6875,-61.875,-1.184082,-0.4296875,-0.1821289,0.2641602,0.06982422,-0.125
1591,7.375,187.6875,-41.125,-1.060547,-0.4414063,-0.2016602,0.2666016,0.07373047,-0.1088867
1595,26.125,216.125,-9.1875,-1.075684,-0.4179688,-0.2207031,0.2700195,0.07861328,-0.09375
1599,33.5,188.0625,-40.8125,-1.501953,-0.3095703,-0.3208008,0.2734375,0.07763672,-0.08447266
1603,21.875,158,-71.625,-1.211426,-0.2509766,-0.3823242,0.2749023,0.08398438,-0.06787109
1607,8,161.1875,-75.8125,-1.129883,-0.2822266,-0.5283203,0.2749023,0.08984375,-0.05419922
1611,-2.125,170.375,-57.8125,-1.025391,-0.371582,-0.6513672,0.2749023,0.09228516,-0.04492188
1615,-1.8125,202.5625,-19.8125,-0.8974609,-0.3950195,-0.6860352,0.2724609,0.09863281,-0.02832031
1619,-0.0625,217.375,4.125,-0.9829102,-0.6123047,-0.6938477,0.2724609,0.1010742,-0.01220703
1623,-1.75,210.3125,-14.625,-1.420898,-0.6787109,-0.6171875,0.2724609,0.1000977,0
1627,-7.375,179.5625,-36.25,-1.257813,-0.6748047,-0.5014648,0.2700195,0.1025391,0.01855469
1632,-20.375,175.375,-39.0625,-1.106934,-0.6474609,-0.4936523,0.2651367,0.1064453,0.03369141
1636,-29.9375,165.5,-34.3125,-1.013672,-0.6630859,-0.5629883,0.2602539,0.1088867,0.04443359
1640,-35.8125,170.75,-18.8125,-0.8237305,-0.7016602,-0.644043,0.2558594,0.1137695,0.06103516
1644,-30.125,191.625,3.375,-0.6923828,-0.7602539,-0.6821289,0.2509766,0.1137695,0.08007813
1648,-16.8125,214.4375,28.75,-0.7734375,-0.6860352,-0.8168945,0.2475586,0.1137695,0.08935547
1652,-34,200.8125,-0.8125,-1.099121,-0.4804688,-0.8823242,0.2392578,0.1113281,0.1069336
1656,-62.8125,158.5,-33.5,-1.013672,-0.4765625,-0.8554688,0.230957,0.1113281,0.1235352
1660,-88.9375,144,-47.8125,-0.6806641,-0.5424805,-0.8325195,0.2246094,0.1123047,0.1328125
1664,-88.9375,156.4375,-28.0625,-0.6611328,-0.6977539,-0.7285156,0.2177734,0.1123047,0.1508789
1668,-61.75,177.5625,8.5625,-0.4946289,-0.7602539,-0.6206055,0.2070313,0.1098633,0.1655273
1672,-29.6875,206.875,55,-0.3901367,-0.6474609,-0.7592773,0.2011719,0.1064453,0.1738281
1676,-33.8125,224.6875,40.4375,-0.746582,-0.2900391,-0.7749023,0.1904297,0.1010742,0.1875
1680,-66.5,142.3125,-22.3125,-1.157227,-0.3676758,-0.6821289,0.1748047,0.09863281,0.2011719
1684,-77.625,101.375,-44,-0.8125,-0.503418,-0.378418,0.1713867,0.09619141,0.2080078
1688,-65.3125,82.3125,-37.5,-0.6069336,-0.6201172,-0.3706055,0.1630859,0.09375,0.2202148
1692,-39.0625,77.9375,-20.5625,-0.4052734,-0.6669922,-0.5053711,0.1547852,0.09228516,0.2270508
1696,-19.0625,86.25,-10.4375,-0.1499023,-0.565918,-0.5283203,0.1499023,0.09228516,0.2280273
1700,-5.25,86.375,-8.625,-0.3393555,-0.4804688,-0.5517578,0.144043,0.09228516,0.2324219
1704,-4.6875,64.5,-18.75,-0.5175781,-0.3793945,-0.4248047,0.1342773,0.09228516,0.2363281
1708,-4.9375,35.6875,-28.625,-0.4130859,-0.3793945,-0.3974609,0.1333008,0.09228516,0.2392578
1712,-3.375,16.875,-34.0625,-0.3393555,-0.4067383,-0.4863281,0.1269531,0.09228516,0.2402344
1716,-0.9375,11.75,-28.875,-0.2119141,-0.3637695,-0.5092773,0.125,0.09375,0.2446289
1720,3.125,6.6875,-19.6875,-0.1806641,-0.3286133,-0.6054688,0.125,0.09375,0.2431641
1724,6.875,3.5625,-14.4375,-0.2348633,-0.3637695,-0.6171875,0.1225586,0.09521484,0.2431641
1728,9.9375,-7.125,-14.5,-0.1108398,-0.3173828,-0.6821289,0.1225586,0.09619141,0.2431641
1732,11.125,-13,-16.4375,-0.1767578,-0.371582,-0.7285156,0.1235352,0.09863281,0.2431641
1736,17.0625,-16.25,-16.25,-0.07617188,-0.3286133,-0.7441406,0.1235352,0.1010742,0.2416992
1740,21.375,-16.9375,-7.9375,-0.1499023,-0.2626953,-0.8208008,0.1235352,0.1025391,0.2402344
1744,18.375,-16.8125,-4.25,-0.05664063,-0.1538086,-0.8862305,0.1259766,0.1025391,0.237793
1748,9.5625,-12.5,6.5,-0.1459961,-0.1347656,-0.8979492,0.125,0.1064453,0.2348633
1752,1.625,-16.125,11.625,-0.2119141,-0.1459961,-0.8168945,0.1259766,0.1035156,0.2363281
1756,1.4375,-26.3125,13.6875,-0.2851563,-0.2705078,-0.7324219,0.128418,0.1049805,0.2348633
1761,6.875,-35.4375,17.625,-0.230957,-0.2861328,-0.7900391,0.1333008,0.1025391,0.2324219
1765,9.25,-38.3125,20.75,-0.2387695,-0.3134766,-0.8168945,0.1357422,0.1025391,0.230957
1769,6.25,-40.875,19.4375,-0.08789063,-0.3208008,-0.8364258,0.1391602,0.1025391,0.230957
1773,9.4375,-40.375,23,-0.2851563,-0.4257813,-0.7670898,0.1425781,0.1010742,0.2270508
1777,17.0625,-46.9375,27.875,-0.3085938,-0.3793945,-0.6552734,0.1474609,0.1025391,0.2241211
1781,22.4375,-59.375,31,-0.5175781,-0.355957,-0.574707,0.1474609,0.1025391,0.2226563
1785,24.75,-77.875,39.9375,-0.5292969,-0.3833008,-0.6513672,0.1533203,0.1010742,0.2172852
1789,18.3125,-86.5,31.125,-0.1728516,-0.421875,-0.7709961,0.1616211,0.1000977,0.2104492
1793,21.125,-80.3125,27,-0.3046875,-0.5463867,-0.7363281,0.1689453,0.1010742,0.2080078
1797,34.625,-83.6875,30.875,-0.4482422,-0.4375,-0.6132813,0.1748047,0.1010742,0.2036133
1801,39.6875,-95.4375,46.8125,-0.6689453,-0.4648438,-0.8129883,0.1821289,0.1000977,0.1967773
1805,18.4375,-103.125,26.0625,0.09033203,-0.3833008,-1.055664,0.1904297,0.09765625,0.1914063
1809,4.375,-78.9375,18.875,-0.1611328,-0.5927734,-1.105469,0.1962891,0.09765625,0.1845703
1813,1.9375,-68.5,13.625,-0.1225586,-0.5581055,-0.9824219,0.2011719,0.09765625,0.1762695
1817,2,-58.5,4.3125,-0.2543945,-0.5737305,-1.005371,0.2021484,0.09375,0.1762695
1821,12,-51.125,2.5625,-0.4091797,-0.5620117,-0.9052734,0.2080078,0.09521484,0.1723633
1825,20.5,-47.125,16.5,-0.5644531,-0.46875,-0.8208008,0.2119141,0.09619141,0.1669922
1829,12.5625,-53.25,24.125,-0.699707,-0.3754883,-0.8129883,0.2128906,0.09619141,0.1640625
1833,-6.1875,-73.3125,9.375,-0.7036133,-0.4648438,-0.8056641,0.21875,0.09521484,0.1601563
1837,-3.5625,-85.9375,-4.9375,-0.5410156,-0.6552734,-0.8476563,0.222168,0.09130859,0.1518555
1841,10.375,-77.8125,-5.0625,-0.5410156,-0.6860352,-0.8325195,0.2246094,0.09375,0.1494141
1845,27.4375,-75.1875,-0.25,-0.6845703,-0.6708984,-0.8017578,0.2294922,0.09375,0.1411133
1849,38.75,-76.3125,6.4375,-0.7504883,-0.5581055,-0.7016602,0.2329102,0.09521484,0.1357422
1853,38.4375,-85.0625,8.25,-0.9750977,-0.4257813,-0.5092773,0.2353516,0.09521484,0.1313477
1857,32.5625,-111.625,9.625,-1.129883,-0.4492188,-0.394043,0.2402344,0.09765625,0.1220703
1861,37.9375,-134.3125,10.3125,-0.8046875,-0.4414063,-0.574707,0.2451172,0.09619141,0.1098633
1865,31.5,-127.0625,7.5,-0.7617188,-0.3950195,-0.5551758,0.2485352,0.09619141,0.1015625
1869,28.625,-133.0625,15.75,-0.9672852,-0.371582,-0.5322266,0.2543945,0.09619141,0.09082031
1873,23.25,-145.375,16.125,-1.052734,-0.3134766,-0.4052734,0.2592773,0.09375,0.07714844
1877,22.8125,-159.375,25.0625,-1.137695,-0.3325195,-0.3012695,0.2641602,0.09228516,0.06884766
1881,31.6875,-169.5,36.5625,-1.195801,-0.355957,-0.2822266,0.269043,0.09130859,0.05517578
1885,26.3125,-181.6875,47.3125,-0.9013672,-0.2202148,-0.6015625,0.2749023,0.08642578,0.0390625
1890,5.5625,-168,44.5,-0.847168,-0.2470703,-0.5976563,0.2758789,0.08496094,0.02392578
1894,-10.4375,-175,43.3125,-1.001953,-0.2861328,-0.6245117,0.2792969,0.07861328,0.01318359
1898,-13.8125,-174.25,44.75,-1.013672,-0.3989258,-0.4824219,0.2832031,0.07519531,-0.00390625
1902,-2.6875,-172,52.125,-1.161133,-0.4257813,-0.3632813,0.2832031,0.07128906,-0.01611328
1906,6.1875,-182.75,66.8125,-1.067871,-0.3989258,-0.6977539,0.2866211,0.06396484,-0.03125
1910,-7.0625,-162.6875,61,-0.5952148,-0.3754883,-0.7822266,0.2856445,0.05859375,-0.04882813
1914,-16.4375,-144.125,57.8125,-0.7114258,-0.4765625,-0.9360352,0.2866211,0.05371094,-0.05566406
1918,-12.375,-122.1875,44.5,-0.6611328,-0.5854492,-0.7749023,0.2856445,0.04882813,-0.07080078
1922,9.375,-105.25,43.125,-0.9985352,-0.6083984,-0.5708008,0.2856445,0.04394531,-0.07763672
1926,31.5625,-94.5625,54.3125,-1.145508,-0.503418,-0.4169922,0.2841797,0.04003906,-0.08691406
1930,31.5625,-92.125,62.1875,-1.083496,-0.324707,-0.4785156,0.2856445,0.03515625,-0.09521484
1934,10.125,-90,57.375,-1.067871,-0.2666016,-0.5551758,0.2841797,0.02734375,-0.1020508
1938,-15.125,-82.1875,48.5625,-0.9130859,-0.3017578,-0.4555664,0.2832031,0.02392578,-0.1088867
1942,-37.4375,-82.1875,38.125,-1.091309,-0.3286133,-0.3051758,0.2817383,0.01855469,-0.1166992
1946,-52.0625,-88.625,28.6875,-1.172852,-0.3442383,-0.02050781,0.2783203,0.01855469,-0.1225586
1950,-54.625,-101.25,27.0625,-1.230957,-0.4414063,0.159668,0.2758789,0.01757813,-0.1279297
1954,-41.9375,-108.5,25,-1.176758,-0.5424805,0.340332,0.2734375,0.01513672,-0.137207
1958,-18.5,-112.875,28.125,-1.172852,-0.5307617,0.4135742,0.269043,0.01611328,-0.1455078
1962,3.3125,-117,33.625,-1.199707,-0.4726563,0.4482422,0.2666016,0.01611328,-0.1508789
1966,13.9375,-123.8125,34.6875,-1.165039,-0.3442383,0.4213867,0.2626953,0.01025391,-0.1606445
1970,17.125,-131.3125,36.8125,-1.161133,-0.3481445,0.2944336,0.2583008,0.007324219,-0.1699219
1974,15.1875,-138.1875,30.625,-1.07959,-0.3134766,0.2250977,0.253418,0.004882813,-0.1767578
1978,13.1875,-145.375,24.25,-1.07959,-0.3325195,0.1367188,0.2460938,0.002441406,-0.1875
1982,12.25,-145.6875,21.25,-0.9555664,-0.3481445,0.09033203,0.237793,0,-0.199707
1986,14.6875,-141.5,19.5,-0.9438477,-0.3520508,0.001953125,0.2329102,-0.0004882813,-0.206543
1990,17,-135.75,15.0625,-0.9052734,-0.3676758,-0.04394531,0.2260742,-0.001953125,-0.2177734
1994,18.3125,-126.8125,13.25,-0.7890625,-0.3134766,-0.07470703,0.21875,-0.004394531,-0.2246094
1998,19.1875,-109.1875,26.1875,-0.5253906,-0.2978516,-0.1743164,0.2119141,-0.006835938,-0.2324219
2002,-4.875,-99.0625,8.0625,-0.9516602,-0.1420898,-0.1630859,0.2055664,-0.009277344,-0.237793
2006,-23.5,-113.375,-4.5,-0.78125,-0.1772461,-0.05517578,0.2011719,-0.006835938,-0.2446289
2010,-40.5,-100.5,-6.375,-0.6186523,-0.1733398,0.1171875,0.1928711,-0.005859375,-0.25
2014,-48.375,-90.8125,-3.375,-0.746582,-0.2314453,0.2021484,0.1865234,-0.001953125,-0.2543945
2019,-51.5625,-87.9375,-2.25,-0.7387695,-0.2666016,0.3828125,0.1821289,0,-0.2568359
2023,-46.625,-81.3125,4.9375,-0.7695313,-0.2861328,0.4672852,0.1772461,0.004882813,-0.2597656
2027,-41.375,-83,5.125,-0.831543,-0.3286133,0.4750977,0.1723633,0.007324219,-0.2651367
2031,-29.25,-89.75,-0.875,-0.7617188,-0.4067383,0.425293,0.1640625,0.008789063,-0.2666016
2035,-13.9375,-83.5625,-7.625,-0.6533203,-0.4414063,0.3945313,0.1606445,0.01513672,-0.269043
2039,4.625,-73.75,-7.5,-0.6342773,-0.4375,0.3637695,0.1533203,0.01611328,-0.2749023
2043,18.5,-59.75,-4.625,-0.6186523,-0.324707,0.340332,0.1459961,0.01513672,-0.2773438
2047,21.8125,-53.375,-4.25,-0.6884766,-0.2470703,0.2709961,0.1459961,0.01269531,-0.2802734
2051,17.5,-45.6875,-4.5625,-0.6030273,-0.1694336,0.2519531,0.1425781,0.01269531,-0.2827148
2055,8.1875,-37,-7.3125,-0.6376953,-0.1230469,0.2211914,0.1391602,0.01123047,-0.2841797
2059,-3.75,-28.6875,-10.3125,-0.6572266,-0.1230469,0.2905273,0.1376953,0.01269531,-0.2871094
2063,-9.6875,-25.3125,-11.6875,-0.7036133,-0.1889648,0.3330078,0.1342773,0.01269531,-0.2885742
2067,-10.625,-17.25,-14.5,-0.6342773,-0.2241211,0.3828125,0.1318359,0.01269531,-0.2885742
2071,-3.5625,-8.375,-14.1875,-0.6264648,-0.2939453,0.3481445,0.1308594,0.01513672,-0.2885742
2075,8.3125,8.375,-9.125,-0.5449219,-0.3134766,0.3637695,0.1308594,0.01513672,-0.2885742
2079,18.125,23.5,-5.6875,-0.6069336,-0.2861328,0.2636719,0.1318359,0.01367188,-0.2885742
2083,22.75,40,-2.625,-0.5834961,-0.2509766,0.2021484,0.1333008,0.01367188,-0.2856445
2087,22,53.5,-5.9375,-0.6416016,-0.2353516,0.1210938,0.1367188,0.01269531,-0.2871094
2091,17.25,65.1875,-11.3125,-0.6611328,-0.2470703,0.01708984,0.1425781,0.008789063,-0.2827148
2095,11.625,80.75,-17.375,-0.6342773,-0.3017578,-0.08984375,0.1450195,0.01025391,-0.2817383
2099,9.1875,102.75,-22.125,-0.6069336,-0.3911133,-0.1977539,0.1508789,0.008789063,-0.2773438
2103,13.125,131.125,-25.6875,-0.6416016,-0.46875,-0.2939453,0.1591797,0.01025391,-0.2734375
2107,23.9375,161.5625,-28.9375,-0.7192383,-0.5424805,-0.3515625,0.1665039,0.008789063,-0.2666016
2111,39,189.875,-36.0625,-0.8549805,-0.550293,-0.4208984,0.1782227,0.01025391,-0.2636719
2115,48.8125,210.3125,-50,-0.9516602,-0.4921875,-0.4399414,0.1914063,0.007324219,-0.2514648
2119,48,231.4375,-62.1875,-1.12207,-0.3989258,-0.3286133,0.203125,0.006347656,-0.2421875
2123,42.25,244.4375,-65.0625,-1.219238,-0.3017578,-0.3398438,0.2163086,0.004882813,-0.2299805
2127,23.0625,258.25,-62,-1.347168,-0.1772461,-0.3823242,0.2319336,0.007324219,-0.2119141
2131,-9.375,262.6875,-59.625,-1.335449,-0.1269531,-0.5014648,0.2412109,0.01123047,-0.199707
2135,-40.25,262.3125,-73.8125,-1.672363,-0.2626953,-0.4248047,0.253418,0.01611328,-0.1782227
2139,-52.5,245,-87.125,-1.618164,-0.402832,-0.2978516,0.2641602,0.02392578,-0.1547852
2143,-50.625,255.375,-77.875,-1.459473,-0.5151367,-0.2592773,0.269043,0.03369141,-0.1425781
2148,-46.125,281.0625,-49.625,-1.331543,-0.4101563,-0.378418,0.2758789,0.04394531,-0.1181641
2152,-58,295.625,-36.125,-1.699707,-0.2470703,-0.5439453,0.2832031,0.04736328,-0.09082031
2156,-93.0625,270.75,-48.875,-1.769531,-0.08398438,-0.6245117,0.2856445,0.05126953,-0.07177734
2160,-126.375,245.8125,-56.375,-1.79248,-0.2587891,-0.6171875,0.2900391,0.05615234,-0.04345703
2164,-133.5625,242.25,-41.875,-1.467285,-0.387207,-0.6630859,0.2866211,0.06494141,-0.01757813
2168,-130.5625,264.25,-21.0625,-1.498047,-0.6044922,-0.7402344,0.2866211,0.06738281,0
2172,-96.625,299.5,22,-1.486328,-0.6630859,-0.7016602,0.2832031,0.06738281,0.02685547
2176,-79.875,310.1875,30.5,-1.65332,-0.4726563,-0.7553711,0.2783203,0.0625,0.05664063
2180,-77.5,271,5.25,-1.928223,-0.5463867,-0.7094727,0.2734375,0.0625,0.08007813
2184,-75.25,256.5,0.5,-1.486328,-0.5307617,-0.5708008,0.2617188,0.06103516,0.1044922
2188,-74.5625,238.5,-3.1875,-1.467285,-0.453125,-0.7133789,0.253418,0.05859375,0.1274414
2192,-75.8125,236.8125,8.6875,-1.114746,-0.4609375,-0.7363281,0.2460938,0.05615234,0.1425781
2196,-67.8125,250.1875,29.8125,-0.8549805,-0.503418,-0.859375,0.234375,0.05126953,0.1640625
2200,-49.4375,268.3125,43.625,-0.8857422,-0.4921875,-0.9633789,0.2202148,0.04736328,0.1845703
2204,-48.4375,233.5,-1.4375,-1.091309,-0.3676758,-0.9438477,0.2094727,0.04492188,0.1982422
2208,-59.875,213.25,-10.75,-0.9868164,-0.3134766,-0.809082,0.1928711,0.04150391,0.2158203
2212,-69.4375,198.1875,-8.0625,-0.7695313,-0.2939453,-0.7861328,0.1772461,0.03857422,0.230957
2216,-73.625,196,6.375,-0.5722656,-0.324707,-0.8901367,0.1674805,0.03613281,0.2392578
2220,-73.4375,207,12.875,-0.1884766,-0.2861328,-0.9438477,0.1499023,0.03027344,0.2514648
2224,-82.5625,217.8125,10.0625,-0.746582,-0.324707,-0.8208008,0.1318359,0.02246094,0.262207
2228,-85.25,182.3125,3.25,-0.7773438,-0.3754883,-0.4746094,0.1186523,0.01757813,0.2705078
2232,-89.1875,147.125,-7.9375,-0.6533203,-0.355957,-0.3666992,0.1035156,0.01025391,0.2783203
2236,-84.375,120.5,-0.4375,-0.5952148,-0.4067383,-0.3208008,0.09033203,0.002441406,0.2880859
2240,-70.3125,101.375,8.4375,-0.2734375,-0.4765625,-0.3706055,0.08544922,-0.0004882813,0.2895508
2244,-42,91.875,9.5625,-0.2041016,-0.6005859,-0.4169922,0.07373047,-0.006835938,0.2919922
2248,-19.75,83.4375,-6.5,-0.06835938,-0.4067383,-0.3706055,0.06640625,-0.01074219,0.293457
2252,-5.875,57.75,-16.625,-0.230957,-0.3095703,-0.3862305,0.06152344,-0.009277344,0.2963867
2256,-5.5,34.9375,-14.5,-0.1533203,0.06689453,-0.5668945,0.05566406,-0.01074219,0.2988281
2260,-24.5,22.8125,-9.625,-0.08007813,0.09423828,-0.5629883,0.05322266,-0.01171875,0.300293
2264,-30.0625,9.125,-3.3125,-0.07226563,-0.01416016,-0.5400391,0.05224609,-0.01318359,0.300293
2268,-22.3125,-0.5625,-5.875,0.02050781,-0.08789063,-0.4628906,0.05224609,-0.01708984,0.300293
2272,-8.9375,-16.25,-13.5,0.08642578,-0.08007813,-0.6171875,0.05078125,-0.01806641,0.2988281
2277,4.375,-16.3125,-12.5625,0.175293,-0.08007813,-0.7167969,0.05322266,-0.01806641,0.2988281
2281,12.25,-12,-9.0625,0.08642578,0.09033203,-0.7246094,0.05322266,-0.01806641,0.2988281
2285,14.375,-23.6875,-4.3125,-0.05273438,0.1523438,-0.7167969,0.05566406,-0.01708984,0.2988281
2289,9.5,-34.8125,1.0625,-0.006347656,0.1601563,-0.7900391,0.05810547,-0.01318359,0.2973633
2293,3.3125,-43.875,-2.3125,0.07080078,0.05126953,-0.9516602,0.06152344,-0.015625,0.2963867
2297,6.125,-37.8125,-1.625,0.175293,0.03222656,-0.9707031,0.06396484,-0.01464844,0.2963867
2301,2.9375,-36.875,-1,0.01660156,0.07080078,-1.013184,0.06787109,-0.01318359,0.293457
2305,2.3125,-43.5625,2.8125,-0.03320313,0.02441406,-0.9941406,0.06982422,-0.01464844,0.293457
2309,0.875,-46.8125,3.1875,0.004882813,0.07080078,-1.063477,0.07617188,-0.01464844,0.2910156
2313,-7.875,-48.375,3.9375,0.004882813,0.09423828,-1.121094,0.07861328,-0.01464844,0.2910156
2317,-21,-50.375,4.9375,-0.04492188,0.07861328,-1.032227,0.08447266,-0.015625,0.2895508
2321,-27.125,-56.9375,8.9375,-0.2119141,-0.01806641,-0.8710938,0.09033203,-0.01806641,0.2880859
2325,-17.6875,-72.875,4.625,-0.05273438,-0.1347656,-0.9360352,0.09277344,-0.02050781,0.2880859
2329,-8.6875,-67.375,7.4375,-0.09521484,-0.1616211,-1.032227,0.09863281,-0.0234375,0.2841797
2333,-7.1875,-65.1875,2.1875,0.1635742,0.105957,-1.15918,0.1069336,-0.02197266,0.2827148
2337,-31.3125,-47.875,6.625,-0.07226563,0.2573242,-1.132324,0.1103516,-0.02441406,0.2797852
2341,-47.375,-48.875,30.3125,-0.328125,0.1796875,-0.8823242,0.1142578,-0.02832031,0.2797852
2345,-42.875,-56.25,60.25,-0.4365234,-0.03759766,-0.9746094,0.1186523,-0.03564453,0.2758789
2349,-36.9375,-64.0625,48,-0.09912109,-0.1538086,-1.01709,0.1225586,-0.03710938,0.2744141
2353,-16.625,-75,17.1875,-0.03320313,-0.4960938,-1.178711,0.128418,-0.04296875,0.2744141
2357,18.8125,-64.375,2.5,0.109375,-0.5463867,-0.9707031,0.1357422,-0.04589844,0.2675781
2361,55.25,-57.75,-2.3125,-0.06054688,-0.3833008,-1.094238,0.1391602,-0.04199219,0.2651367
2365,65.5,-50.75,-0.75,-0.2661133,-0.1538086,-0.9169922,0.144043,-0.03710938,0.2636719
2369,81.75,-60.75,15,-0.5644531,-0.2822266,-0.6591797,0.1474609,-0.02929688,0.2607422
2373,108.25,-76.875,28.75,-0.7929688,-0.2978516,-0.3974609,0.1523438,-0.02685547,0.2568359
2377,129.375,-117.4375,26.875,-0.9130859,-0.4067383,-0.4975586,0.1616211,-0.01953125,0.2514648
2381,150.1875,-145.5625,6.8125,-0.378418,-0.5151367,-0.7133789,0.1699219,-0.009277344,0.2431641
2385,166.875,-136.5625,-3.1875,-0.4521484,-0.4375,-0.7094727,0.1796875,-0.001953125,0.2363281
2389,180.3125,-146.875,2.75,-0.7734375,-0.2822266,-0.59375,0.1904297,0.008789063,0.2255859
2393,187.4375,-165.125,13.25,-1.067871,-0.1420898,-0.4516602,0.2011719,0.02490234,0.2133789
2397,188.5625,-194.1875,35.4375,-1.029297,-0.08007813,-0.8017578,0.2094727,0.03271484,0.2021484
2401,163.75,-195.25,35.375,-0.6845703,0.04736328,-0.9902344,0.222168,0.04003906,0.1831055
2406,115.6875,-196.6875,32.8125,-0.7192383,0.06689453,-1.20166,0.2353516,0.04638672,0.1655273
2410,70.9375,-195.0625,18.625,-0.8354492,0.02441406,-1.001465,0.2436523,0.04882813,0.1533203
2414,65.875,-193.25,30.0625,-1.211426,-0.1269531,-0.7514648,0.2519531,0.04882813,0.1357422
2418,69.5,-198.0625,53.6875,-1.571777,0.01660156,-0.609375,0.2617188,0.04736328,0.1137695
2422,59.5625,-215.4375,78.4375,-1.629883,0.121582,-0.7402344,0.2700195,0.04638672,0.1030273
2426,16.0625,-229.1875,83.0625,-1.358887,0.2299805,-0.9707031,0.2783203,0.03857422,0.08251953
2430,-49.25,-238,59.1875,-0.9946289,0.08642578,-1.047852,0.2856445,0.03125,0.06201172
2434,-74.0625,-231.6875,49.6875,-1.253906,-0.3793945,-0.7670898,0.2890625,0.02490234,0.04589844
2438,-49.375,-239.75,54.25,-1.381836,-0.7485352,-0.5283203,0.2963867,0.01855469,0.02392578
2442,-3.75,-236.25,66.4375,-1.129883,-0.7988281,-0.574707,0.2998047,0.01123047,0.0009765625
2446,25.75,-217.5,67.625,-1.017578,-0.7485352,-0.6513672,0.3022461,0.00390625,-0.01367188
2450,41.375,-207.3125,61.0625,-1.168945,-0.6201172,-0.5864258,0.3007813,-0.001953125,-0.02978516
2454,41.875,-205.5625,58.5,-1.28125,-0.4414063,-0.4785156,0.2998047,-0.009277344,-0.05273438
2458,37.875,-206.0625,57.375,-1.389648,-0.3911133,-0.3706055,0.2983398,-0.01171875,-0.06640625
2462,33.625,-210.625,65.1875,-1.393555,-0.2978516,-0.359375,0.2963867,-0.01953125,-0.08691406
2466,27.3125,-199.375,70.375,-1.327637,-0.2548828,-0.2670898,0.2915039,-0.02832031,-0.1088867
2470,16.1875,-198.5,72.625,-1.432129,-0.2900391,-0.2553711,0.2866211,-0.03173828,-0.1196289
2474,2.6875,-198.8125,74.25,-1.269531,-0.2509766,-0.3208008,0.2807617,-0.04052734,-0.137207
2478,-19.3125,-194.6875,58.75,-1.20752,-0.3056641,-0.3554688,0.2724609,-0.04833984,-0.1508789
2482,-17.6875,-193.5625,43.4375,-1.219238,-0.4492188,-0.2631836,0.2675781,-0.04833984,-0.1645508
2486,-4.6875,-186.3125,43.125,-1.211426,-0.402832,-0.2246094,0.2568359,-0.05078125,-0.1782227
2490,2.8125,-171.6875,40.25,-0.9907227,-0.3637695,-0.2978516,0.2485352,-0.05322266,-0.1928711
2494,9.5625,-127.1875,70.0625,-0.6884766,-0.2783203,-0.3208008,0.2436523,-0.0546875,-0.2026367
2498,-4.8125,-128.875,35.0625,-1.199707,-0.2431641,-0.4091797,0.2353516,-0.05957031,-0.2109375
2502,-11.8125,-129.375,13.875,-0.9248047,-0.1733398,-0.3168945,0.2285156,-0.06054688,-0.2202148
2506,-16.25,-108.1875,8.25,-0.7578125,-0.2163086,-0.2744141,0.2246094,-0.06298828,-0.2270508
2510,-14.9375,-91.3125,3.125,-0.8046875,-0.2548828,-0.2978516,0.2177734,-0.06201172,-0.2338867
2514,-12.8125,-72.6875,-2.6875,-0.6572266,-0.2392578,-0.2939453,0.2104492,-0.05957031,-0.2392578
2518,-5.5,-47.625,-4.375,-0.6264648,-0.2587891,-0.2397461,0.2094727,-0.05957031,-0.2407227
2522,0,-24.75,-4.6875,-0.6455078,-0.1733398,-0.1552734,0.2045898,-0.05810547,-0.2407227
2526,-3,-9.25,-7.8125,-0.6533203,-0.08398438,-0.08984375,0.2055664,-0.05957031,-0.2446289
2530,-10.0625,-2.1875,-14.5,-0.746582,-0.08007813,0.005859375,0.203125,-0.05566406,-0.2446289
2535,-12.125,5,-14.75,-0.6650391,-0.07617188,0.1132813,0.203125,-0.0546875,-0.2446289
2539,-10.75,13.375,-13.5625,-0.7426758,-0.09570313,0.1713867,0.2055664,-0.05322266,-0.2436523
2543,-8.5625,21.3125,-11.9375,-0.7231445,-0.08789063,0.2558594,0.2055664,-0.05078125,-0.2421875
2547,-4.625,25.5625,-9.1875,-0.8085938,-0.09570313,0.3134766,0.2070313,-0.05078125,-0.2407227
2551,-6.0625,27,-7.125,-0.8588867,-0.04150391,0.3828125,0.2080078,-0.05078125,-0.2392578
2555,-10.25,19.1875,-8.75,-0.9477539,-0.04150391,0.4057617,0.2104492,-0.04833984,-0.237793
2559,-16.4375,10.3125,-14.3125,-0.9208984,-0.08789063,0.4287109,0.2104492,-0.04833984,-0.237793
2563,-16.0625,6.5625,-17.75,-0.8935547,-0.1577148,0.3789063,0.2128906,-0.04443359,-0.2368164
2567,-13.8125,6.5625,-19.625,-0.831543,-0.2084961,0.2944336,0.2104492,-0.04443359,-0.2353516
2571,-13.25,14.25,-20.5625,-0.7734375,-0.2509766,0.1865234,0.2119141,-0.04052734,-0.2353516
2575,-11.6875,23.6875,-24.0625,-0.7890625,-0.2705078,0.09423828,0.2128906,-0.03808594,-0.2353516
2579,-12.9375,28.5625,-36.3125,-0.847168,-0.2978516,-0.005371094,0.215332,-0.03808594,-0.2353516
2583,-15.8125,35.6875,-46.8125,-0.7773438,-0.3017578,-0.07080078,0.2177734,-0.03564453,-0.230957
2587,-14.125,52.1875,-47.5,-0.765625,-0.3598633,-0.1669922,0.2202148,-0.03076172,-0.2285156
2591,-13.75,75.4375,-47.9375,-0.715332,-0.3325195,-0.2363281,0.2202148,-0.02685547,-0.2255859
2595,-18.5,97.1875,-47.75,-0.8085938,-0.324707,-0.3168945,0.2270508,-0.0234375,-0.2202148
2599,-28.5,113.3125,-56.625,-0.8666992,-0.324707,-0.34375,0.2319336,-0.01708984,-0.2109375
2603,-39.875,124.125,-65.75,-0.9052734,-0.3754883,-0.3632813,0.234375,-0.01171875,-0.2080078
2607,-44.9375,140.4375,-70,-0.8857422,-0.453125,-0.3632813,0.2436523,-0.005859375,-0.1987305
2611,-42.375,162.375,-62.875,-0.878418,-0.5268555,-0.3974609,0.253418,0,-0.1850586
2615,-30.5625,195.5,-41.9375,-0.831543,-0.565918,-0.4248047,0.2568359,0.006347656,-0.1767578
2619,-14.75,221.5625,-35,-0.9907227,-0.6552734,-0.4594727,0.2641602,0.01123047,-0.1616211
2623,6.625,226.75,-56.1875,-1.253906,-0.7753906,-0.3862305,0.2724609,0.01513672,-0.1425781
2627,32,230.5,-71.9375,-1.075684,-0.7563477,-0.34375,0.2758789,0.01855469,-0.1279297
2631,50.625,246.125,-78.6875,-1.211426,-0.6748047,-0.4208984,0.2841797,0.02490234,-0.1074219
2635,58.5625,257.4375,-64.375,-1.172852,-0.4609375,-0.4975586,0.2866211,0.03271484,-0.08691406
2639,58.3125,286.3125,-30.1875,-1.184082,-0.3325195,-0.5361328,0.2915039,0.03271484,-0.07177734
2643,48.4375,278.0625,-37.3125,-1.827637,-0.3095703,-0.5825195,0.2939453,0.03515625,-0.04492188
2647,27.0625,215.375,-78.5,-1.75,-0.2006836,-0.5400391,0.2939453,0.04248047,-0.02294922
2651,-10.3125,182.9375,-113.4375,-1.486328,-0.1381836,-0.5209961,0.2924805,0.04882813,-0.01220703
2655,-44.5625,171.25,-110.8125,-1.343262,-0.1850586,-0.5283203,0.2890625,0.05859375,0.006347656
2659,-66.625,175.6875,-78.625,-1.168945,-0.3173828,-0.59375,0.2841797,0.06982422,0.02392578
2664,-66.1875,200.3125,-32.25,-0.9248047,-0.4492188,-0.6630859,0.2783203,0.07373047,0.03613281
2668,-66.25,224.375,-13.9375,-1.141602,-0.5229492,-0.6821289,0.2734375,0.07617188,0.05664063
2672,-61,193.5625,-44.625,-1.428223,-0.565918,-0.6708984,0.2666016,0.07763672,0.07861328
2676,-58.375,163.0625,-66.5625,-1.075684,-0.5966797,-0.5825195,0.2626953,0.08007813,0.08935547
2680,-50.4375,168.1875,-62.5625,-0.9013672,-0.6083984,-0.6132813,0.2543945,0.08496094,0.1083984
2684,-45.625,172.75,-47.9375,-0.9365234,-0.5581055,-0.6899414,0.2426758,0.08642578,0.1220703
2688,-42.125,181.5625,-21.5,-0.7543945,-0.4726563,-0.7324219,0.2368164,0.08886719,0.1342773
2692,-42.375,206.625,11.6875,-0.7387695,-0.4726563,-0.7749023,0.2270508,0.08886719,0.1533203
2696,-62.75,188.25,-20.375,-1.257813,-0.3095703,-0.7709961,0.2163086,0.08740234,0.1699219
2700,-95.6875,116.875,-68.75,-0.9672852,-0.5737305,-0.7783203,0.2094727,0.08642578,0.1777344
2704,-95.9375,103.5625,-88.75,-0.5566406,-0.7832031,-0.6708984,0.2011719,0.08496094,0.1889648
2708,-72.8125,111.4375,-69.0625,-0.4248047,-0.6821289,-0.8208008,0.1889648,0.08496094,0.1982422
2712,-54.8125,132.125,-44.9375,-0.2700195,-0.5073242,-0.9477539,0.184082,0.08496094,0.2050781
2716,-44.9375,162.875,-11.3125,-0.2041016,-0.4067383,-1.028809,0.1723633,0.08496094,0.2158203
2720,-43,185.625,3.0625,-0.4248047,-0.2861328,-0.9438477,0.1582031,0.08251953,0.2280273
2724,-52.9375,158.25,-13.1875,-0.7270508,-0.2124023,-0.8862305,0.1484375,0.08105469,0.2348633
2728,-69.875,125.625,-33.4375,-0.5449219,-0.3134766,-0.7324219,0.1357422,0.07763672,0.2460938
2732,-64.3125,111.625,-33.6875,-0.3823242,-0.4726563,-0.7324219,0.125,0.07373047,0.2524414
2736,-43.1875,114.6875,-19.9375,-0.28125,-0.5,-0.6938477,0.1166992,0.07128906,0.2568359
2740,-21.8125,118.6875,-6.125,-0.2080078,-0.4296875,-0.6708984,0.1069336,0.06982422,0.2651367
2744,-4.4375,114.6875,3,-0.2851563,-0.3364258,-0.6821289,0.09521484,0.06640625,0.269043
2748,-2.25,98.0625,1.75,-0.3510742,-0.2275391,-0.6669922,0.08789063,0.06884766,0.2705078
2752,-9.9375,75.5625,-11.3125,-0.1689453,-0.1538086,-0.6708984,0.07958984,0.07128906,0.2729492
2756,-15.875,66.5625,-10.875,-0.1381836,-0.2202148,-0.6938477,0.07373047,0.06884766,0.2758789
2760,-14.375,58.6875,-7.9375,-0.1069336,-0.2509766,-0.6669922,0.07128906,0.06738281,0.2783203
2764,-8.6875,50.125,-5.125,-0.04101563,-0.2783203,-0.6708984,0.06542969,0.06640625,0.2797852
2768,1.0625,46.875,0.5625,-0.006347656,-0.2744141,-0.6630859,0.06054688,0.06640625,0.2827148
2772,5.125,37.1875,0.75,-0.03710938,-0.2431641,-0.7246094,0.05712891,0.06494141,0.2827148
2776,5.375,24.8125,-5.9375,-0.01025391,-0.2392578,-0.7016602,0.05566406,0.06640625,0.2827148
2780,6.875,14.5,-5.25,0.01269531,-0.2163086,-0.7475586,0.05322266,0.06738281,0.28125
2784,4.375,9.0625,-3.875,0.01269531,-0.1772461,-0.7749023,0.05224609,0.06884766,0.2797852
2788,4.9375,4.5625,0.3125,0.08642578,-0.1967773,-0.8208008,0.04980469,0.06738281,0.2827148
2793,2.6875,4.9375,4.1875,0.09033203,-0.1616211,-0.8554688,0.04882813,0.06982422,0.2827148
2797,-3.625,-1.8125,3.3125,0.0009765625,-0.1889648,-0.7978516,0.04882813,0.06738281,0.28125
2801,-3.875,-12.0625,3.3125,0.03173828,-0.2045898,-0.8129883,0.04980469,0.06738281,0.28125
2805,-5.4375,-18.1875,3.125,0.03955078,-0.2431641,-0.8671875,0.05224609,0.06738281,0.2827148
2809,-2.625,-20.1875,7.25,0.07080078,-0.2666016,-0.859375,0.05322266,0.06640625,0.28125
2813,0.3125,-21.625,10.1875,0.04736328,-0.2470703,-0.8710938,0.05566406,0.06738281,0.2827148
2817,0.875,-24.5625,12.1875,0.07861328,-0.2509766,-0.8979492,0.05712891,0.06640625,0.2797852
2821,-1.4375,-26.5,9.9375,0.1328125,-0.2666016,-0.9633789,0.05957031,0.06494141,0.2827148
2825,-6.9375,-24.1875,7.375,0.09375,-0.2626953,-0.9052734,0.06298828,0.06738281,0.28125
2829,-10.5,-30.6875,6.25,0.01660156,-0.2744141,-0.8745117,0.06396484,0.06640625,0.2783203
2833,-9.375,-35.375,7.1875,-0.07226563,-0.3325195,-0.8056641,0.06542969,0.06494141,0.28125
2837,1.75,-44.375,9.875,0.02050781,-0.3833008,-0.859375,0.07226563,0.06396484,0.2783203
2841,8.9375,-39.9375,13.75,-0.02587891,-0.371582,-0.8862305,0.07617188,0.06103516,0.2797852
2845,12.1875,-43.6875,10.5625,0.02832031,-0.3017578,-0.8710938,0.07861328,0.06396484,0.2758789
2849,11.125,-45.125,8.875,-0.1264648,-0.2705078,-0.7709961,0.08300781,0.06396484,0.2744141
2853,10.875,-58.1875,8,-0.1923828,-0.2124023,-0.6977539,0.08691406,0.06494141,0.2758789
2857,9,-75,11.9375,-0.3432617,-0.2939453,-0.7592773,0.09130859,0.06494141,0.2714844
2861,12.8125,-82.9375,8.625,-0.05273438,-0.324707,-0.7592773,0.09960938,0.06494141,0.2675781
2865,20.125,-79.4375,15.5625,-0.2387695,-0.3637695,-0.7514648,0.1069336,0.06640625,0.2651367
2869,25.9375,-88.0625,12.0625,-0.2348633,-0.3325195,-0.7207031,0.1118164,0.06494141,0.2607422
2873,24.875,-95.5,9.125,-0.296875,-0.4296875,-0.7783203,0.1186523,0.06640625,0.2553711
2877,26.375,-108.5,3.0625,-0.3862305,-0.3364258,-0.8168945,0.128418,0.06884766,0.2524414
2881,27.6875,-121.6875,2.8125,-0.230957,-0.3208008,-0.9130859,0.1357422,0.07128906,0.2485352
2885,30.125,-112.3125,11,-0.2504883,-0.3793945,-0.84375,0.1450195,0.07275391,0.2402344
2889,38.25,-110.625,18.8125,-0.4248047,-0.387207,-0.7861328,0.1547852,0.07373047,0.2324219
2893,45.375,-119.375,28.125,-0.6186523,-0.4179688,-0.7861328,0.1606445,0.07373047,0.2294922
2897,49.0625,-133.3125,19.3125,-0.3432617,-0.3950195,-0.9438477,0.1723633,0.07763672,0.2211914
2901,49.75,-131.1875,16.3125,-0.4052734,-0.4453125,-1.08252,0.1821289,0.07763672,0.2089844
2905,43.25,-127.1875,11.75,-0.3745117,-0.3833008,-1.005371,0.1879883,0.08105469,0.2036133
2909,42,-127.5625,18.4375,-0.6342773,-0.4296875,-0.8632813,0.1962891,0.08105469,0.1943359
2913,46.9375,-132.125,29.8125,-0.699707,-0.4609375,-0.8017578,0.2070313,0.08105469,0.1831055
2917,49.875,-140.5,33.8125,-0.5605469,-0.4453125,-0.9438477,0.2138672,0.08105469,0.1762695
2922,44.5625,-133,33.4375,-0.4521484,-0.4335938,-1.063477,0.2236328,0.08105469,0.1630859
2926,34.6875,-122.625,31.8125,-0.5913086,-0.4067383,-0.9477539,0.230957,0.08251953,0.1533203
2930,31.75,-124.8125,37.0625,-0.9091797,-0.421875,-0.7285156,0.234375,0.07861328,0.1450195
2934,32,-137.5625,49.25,-1.099121,-0.421875,-0.7016602,0.2436523,0.07763672,0.1342773
2938,14.6875,-150.625,53.125,-0.6455078,-0.3793945,-0.9746094,0.2509766,0.07519531,0.1206055
2942,-3.5,-139.25,38.125,-0.7617188,-0.5581055,-1.009277,0.2568359,0.07128906,0.1123047
2946,-4.4375,-134.6875,32.25,-0.8164063,-0.6201172,-0.8823242,0.2641602,0.06640625,0.1000977
2950,7.0625,-126.875,33.5625,-1.017578,-0.6396484,-0.6821289,0.269043,0.06396484,0.08935547
2954,25.5625,-125.375,43.5,-1.184082,-0.534668,-0.5014648,0.2724609,0.06005859,0.08105469
2958,30.875,-132.375,52.875,-1.219238,-0.371582,-0.4052734,0.2792969,0.05517578,0.06787109
2962,18.5625,-145.625,57.5625,-1.103027,-0.2314453,-0.4902344,0.2832031,0.05371094,0.05517578
2966,-1.25,-153.0625,50.125,-0.9868164,-0.3056641,-0.4863281,0.2841797,0.04736328,0.04736328
2970,-9.25,-158,44.4375,-0.8549805,-0.3950195,-0.4936523,0.2939453,0.04248047,0.03222656
2974,-1.5625,-153.125,38.875,-0.862793,-0.4335938,-0.4208984,0.2924805,0.03759766,0.01708984
2978,14.875,-152,40.75,-1.052734,-0.3833008,-0.3168945,0.2949219,0.03515625,0.0078125
2982,28,-159.9375,43,-1.184082,-0.2548828,-0.1977539,0.2973633,0.03125,-0.005371094
2986,30.9375,-170.5625,50.125,-1.339355,-0.1420898,-0.2016602,0.2973633,0.02490234,-0.02050781
2990,19.75,-181.375,56.5,-1.374023,-0.06054688,-0.1977539,0.2983398,0.02148438,-0.03271484
2994,6.625,-194.375,60.3125,-1.424316,-0.1191406,-0.2631836,0.2963867,0.01513672,-0.05175781
2998,-3.25,-203.5,54.125,-1.358887,-0.2241211,-0.2592773,0.2949219,0.01025391,-0.07324219
3002,4.25,-212.3125,47.4375,-1.35498,-0.3134766,-0.2744141,0.2963867,0.004882813,-0.08544922
3006,13.5625,-211.375,45.5625,-1.304199,-0.355957,-0.2978516,0.2890625,0.001464844,-0.1044922
3010,17.5,-200.625,54.6875,-1.234863,-0.2939453,-0.2744141,0.2856445,-0.005859375,-0.1225586
3014,11,-196.4375,57.9375,-1.253906,-0.2548828,-0.2705078,0.2792969,-0.008300781,-0.1347656
3018,-1.75,-199.0625,49.4375,-1.319824,-0.2978516,-0.2436523,0.2734375,-0.01464844,-0.1523438
3022,-4.875,-201.0625,41,-1.145508,-0.3676758,-0.2705078,0.2666016,-0.01806641,-0.168457
3026,-7.125,-187.3125,40,-1.087402,-0.3754883,-0.3012695,0.2583008,-0.01953125,-0.1796875
3030,-14.4375,-174.6875,41.1875,-0.8857422,-0.2587891,-0.34375,0.2485352,-0.02441406,-0.1928711
3034,-40.4375,-157.5625,34.6875,-1.315918,-0.3056641,-0.3901367,0.2402344,-0.02441406,-0.2055664
3038,-49.6875,-172,14.4375,-0.9672852,-0.3833008,-0.2397461,0.234375,-0.02587891,-0.2119141
3042,-45.5625,-154.0625,6.75,-0.7617188,-0.5151367,-0.3012695,0.2246094,-0.02197266,-0.2246094
3046,-36.0625,-124.1875,9.375,-0.6186523,-0.46875,-0.3901367,0.215332,-0.01806641,-0.2324219
3051,-32.375,-96.25,2.9375,-0.5952148,-0.4765625,-0.4013672,0.2119141,-0.01708984,-0.237793
3055,-26.8125,-74.5625,-10.3125,-0.5991211,-0.453125,-0.3745117,0.2055664,-0.01464844,-0.2421875
3059,-18.125,-49.625,-15.0625,-0.5449219,-0.421875,-0.309082,0.1987305,-0.01171875,-0.2490234
3063,-15.375,-22.8125,-17.6875,-0.5371094,-0.3095703,-0.2246094,0.1987305,-0.01074219,-0.25
3067,-15.25,-1,-12.9375,-0.6030273,-0.2666016,-0.1435547,0.1962891,-0.006835938,-0.25
3071,-19.875,16.625,-9.8125,-0.7075195,-0.1850586,-0.02050781,0.1962891,-0.006835938,-0.2475586
3075,-25.375,19.375,-13.4375,-0.7695313,-0.1733398,0.09814453,0.1987305,-0.004394531,-0.2475586
3079,-27.625,21.375,-18.625,-0.7890625,-0.2006836,0.2597656,0.1987305,-0.0004882813,-0.2490234
3083,-24.5,23.9375,-19.5,-0.8046875,-0.2045898,0.4326172,0.1987305,0.001464844,-0.2460938
3087,-18.8125,21.375,-20.8125,-0.9130859,-0.2124023,0.5327148,0.2011719,0.001464844,-0.2446289
3091,-8.25,12.8125,-21.5,-0.8974609,-0.2202148,0.5712891,0.2011719,0.006347656,-0.2421875
3095,2.4375,14.125,-17.25,-0.8974609,-0.2470703,0.5522461,0.203125,0.006347656,-0.2436523
3099,13.25,11.25,-11.5625,-0.9248047,-0.2124023,0.4750977,0.203125,0.004882813,-0.2421875
3103,14.0625,9.5,-9.4375,-0.8666992,-0.1694336,0.3979492,0.2021484,0.006347656,-0.2421875
3107,6.875,7.4375,-9.8125,-0.8432617,-0.1459961,0.340332,0.2045898,0.006347656,-0.2421875
3111,-3.1875,5.25,-11.25,-0.8666992,-0.2045898,0.3481445,0.203125,0.007324219,-0.2407227
3115,-1,5.8125,-10.375,-0.8393555,-0.2822266,0.3442383,0.2055664,0.008789063,-0.2392578
3119,3.375,11.25,-5.6875,-0.7851563,-0.2783203,0.2983398,0.203125,0.007324219,-0.2368164
3123,2.375,18.625,-0.875,-0.78125,-0.2431641,0.2368164,0.2055664,0.01123047,-0.2392578
3127,-7.125,22.75,1.75,-0.7504883,-0.2275391,0.2402344,0.2070313,0.007324219,-0.2368164
3131,-15.0625,25.0625,0.1875,-0.8007813,-0.2978516,0.2905273,0.2070313,0.007324219,-0.2353516
3135,-16.125,22.3125,-7.1875,-0.8393555,-0.3481445,0.3251953,0.2104492,0.01025391,-0.2353516
3139,-11.6875,23.6875,-10.8125,-0.7890625,-0.3833008,0.3364258,0.2104492,0.01123047,-0.2338867
3143,-6.5,27.625,-13.6875,-0.7504883,-0.355957,0.2905273,0.2119141,0.01269531,-0.2324219
3147,-4.6875,33.9375,-15.0625,-0.8007813,-0.3325195,0.340332,0.2128906,0.01123047,-0.2285156
3151,-3.5,35.8125,-16.375,-0.8393555,-0.3017578,0.425293,0.2163086,0.01367188,-0.2299805
3155,2,37.375,-10.875,-0.9287109,-0.3208008,0.4672852,0.2177734,0.01757813,-0.2270508
3159,8.375,33.9375,-6.4375,-0.9594727,-0.2548828,0.4365234,0.2177734,0.01513672,-0.2216797
3163,7.1875,24.6875,-7.25,-0.9750977,-0.2392578,0.3481445,0.2202148,0.01367188,-0.2202148
3167,-0.3125,18.5,-7.25,-0.9091797,-0.2006836,0.2060547,0.222168,0.01513672,-0.21875
3171,-14.875,17.5625,-12.25,-0.8198242,-0.2241211,0.09814453,0.222168,0.01757813,-0.2202148
3175,-25.0625,19.0625,-15.875,-0.8164063,-0.3325195,-0.01660156,0.2236328,0.01855469,-0.21875
3180,-28.5625,24.25,-21.6875,-0.7504883,-0.4140625,-0.112793,0.2246094,0.02001953,-0.2177734
3184,-24.1875,36.3125,-28.25,-0.6962891,-0.503418,-0.1899414,0.2246094,0.02636719,-0.2133789
3188,-11.0625,56.4375,-29.125,-0.6884766,-0.5463867,-0.2436523,0.2270508,0.02636719,-0.2119141
3192,-0.6875,75.9375,-31.125,-0.730957,-0.5,-0.3168945,0.230957,0.03027344,-0.2080078
3196,4.875,96.4375,-33.875,-0.699707,-0.4726563,-0.3359375,0.2329102,0.03125,-0.2041016
3200,11,119.8125,-29.5,-0.7426758,-0.4921875,-0.3901367,0.2392578,0.03369141,-0.1943359
3204,21.125,149.25,-13,-0.730957,-0.4492188,-0.4321289,0.2436523,0.03515625,-0.1875
3208,29.0625,184.75,9,-0.7504883,-0.4140625,-0.5014648,0.2485352,0.03515625,-0.1767578
3212,28.5,208.1875,0.5,-1.187988,-0.3481445,-0.4628906,0.2583008,0.03027344,-0.1630859
3216,22.5,165.9375,-44.8125,-1.413086,-0.3325195,-0.4936523,0.2666016,0.03369141,-0.1494141
3220,2.0625,159.8125,-65.5625,-1.125977,-0.2509766,-0.3823242,0.2700195,0.03125,-0.1386719
3224,-13.8125,172.5,-59.3125,-1.199707,-0.3017578,-0.4013672,0.2758789,0.03857422,-0.1264648
3228,-9.9375,186.125,-34.875,-1.184082,-0.3950195,-0.4360352,0.2792969,0.04736328,-0.1098633
3232,4.75,216.0625,-2.9375,-1.087402,-0.4067383,-0.4824219,0.2817383,0.04736328,-0.09765625
3236,16.5,224.5625,-8.5,-1.513672,-0.3637695,-0.5092773,0.2866211,0.04736328,-0.07763672
3240,16.3125,189.6875,-37.75,-1.432129,-0.2900391,-0.574707,0.2900391,0.04980469,-0.06103516
3244,6.5625,188.6875,-48.875,-1.23877,-0.2587891,-0.5439453,0.2890625,0.05273438,-0.04736328
3248,-1.1875,186.375,-52.5625,-1.28125,-0.2939453,-0.5439453,0.2915039,0.05859375,-0.03369141
3252,2.5,192.1875,-37.375,-1.215332,-0.3754883,-0.5209961,0.2880859,0.0625,-0.01464844
3256,9.5625,206.5,-15.75,-1.044922,-0.3598633,-0.5825195,0.2866211,0.06494141,-0.001464844
3260,2.75,225.25,6.125,-0.9365234,-0.2939453,-0.7402344,0.2832031,0.06738281,0.01708984
3264,-15,245.9375,16.5625,-0.9985352,-0.1538086,-0.8476563,0.2807617,0.06738281,0.03759766
3268,-40.125,238.8125,12.125,-0.9985352,-0.3017578,-0.894043,0.2792969,0.06738281,0.05419922
3272,-67.5625,229.8125,-14.3125,-1.149414,-0.3989258,-0.8632813,0.2724609,0.06640625,0.07714844
3276,-75.375,203.875,-28.1875,-1.021484,-0.6630859,-0.7939453,0.2651367,0.06884766,0.09912109
3280,-65,220.875,-17.8125,-0.7075195,-0.7832031,-0.7553711,0.2583008,0.06640625,0.1098633
3284,-36.0625,259.5,13,-0.4946289,-0.8417969,-0.8554688,0.2475586,0.06884766,0.1303711
3288,6.1875,318.125,62.4375,-0.4672852,-0.7949219,-0.9326172,0.2368164,0.0625,0.1547852
3292,37.5,361.625,100.125,-0.6845703,-0.5112305,-1.094238,0.2260742,0.06005859,0.1708984
3296,27.1875,350.1875,85.9375,-1.176758,-0.1074219,-1.186523,0.2055664,0.05615234,0.1953125
3300,-17.4375,284.9375,38.6875,-1.312012,-0.08007813,-1.094238,0.184082,0.05517578,0.2172852
3304,-56.75,221.625,-10.6875,-1.029297,-0.2783203,-0.9633789,0.1723633,0.05371094,0.2280273
3309,-63.5625,195.125,-27.25,-0.796875,-0.5737305,-0.8979492,0.1557617,0.04980469,0.2402344
3313,-49.1875,189.625,-19.375,-0.5566406,-0.6201172,-0.840332,0.1391602,0.04882813,0.2514648
3317,-23.6875,188.9375,0.125,-0.5175781,-0.6669922,-0.8862305,0.128418,0.04638672,0.2583008
3321,-0.5,191.125,10.625,-0.378418,-0.5151367,-0.8515625,0.1103516,0.04638672,0.2675781
3325,-4.25,165.9375,-19,-0.5795898,-0.1811523,-0.8476563,0.09375,0.04638672,0.2729492
3329,-37.25,117.5,-57.5625,-0.6416016,-0.1381836,-0.6977539,0.08447266,0.04638672,0.2797852
3333,-48.375,80.0625,-69.625,-0.4829102,-0.2939453,-0.5517578,0.07373047,0.04638672,0.2827148
3337,-34.125,62,-53.1875,-0.3549805,-0.387207,-0.4902344,0.06396484,0.04394531,0.2841797
3341,-12.25,55.875,-33.0625,-0.2119141,-0.3598633,-0.4975586,0.05810547,0.04248047,0.2895508
3345,6.25,53.75,-20.375,-0.1572266,-0.3095703,-0.5014648,0.05224609,0.04150391,0.2895508
3349,13.375,39.625,-17.1875,-0.1845703,-0.1616211,-0.5400391,0.04882813,0.04492188,0.2895508
3353,7.5,17.8125,-20.625,-0.2080078,-0.2006836,-0.5517578,0.04638672,0.04492188,0.2949219
3357,7.9375,4.3125,-18.75,-0.07226563,-0.2587891,-0.5244141,0.04492188,0.04638672,0.2895508
3361,14.75,-4.125,-10.3125,-0.02197266,-0.3056641,-0.6015625,0.04394531,0.04736328,0.2895508
3365,18.5,-7.4375,-8,0.1015625,-0.2705078,-0.6630859,0.04394531,0.04882813,0.2910156
3369,18.75,-8.4375,-10.0625,-0.03320313,-0.2163086,-0.6821289,0.04394531,0.04980469,0.2880859
3373,20.75,-23.4375,-13.1875,0.0009765625,-0.2241211,-0.7324219,0.04736328,0.05126953,0.2910156
3377,22.8125,-24.125,-13.625,0.1132813,-0.1655273,-0.84375,0.04736328,0.05517578,0.2880859
3381,12,-23.125,-9.9375,0.08642578,-0.07226563,-0.9208984,0.04736328,0.05859375,0.2866211
3385,-2.1875,-23.4375,-0.4375,0.05908203,-0.08398438,-0.8979492,0.05078125,0.05761719,0.2851563
3389,-10.5,-25,5.5625,0.09375,-0.1772461,-0.8710938,0.04980469,0.05761719,0.2851563
3393,-14.5625,-29.875,1.75,0.008789063,-0.2509766,-0.8710938,0.05712891,0.05615234,0.2841797
3397,-14.875,-36.0625,-1.6875,0.06689453,-0.3095703,-0.8056641,0.05712891,0.05273438,0.2841797
3401,-14.5,-38.375,-4.125,-0.02197266,-0.3286133,-0.7631836,0.05957031,0.05371094,0.2841797
3405,-12,-50.9375,-7.625,-0.1420898,-0.3598633,-0.644043,0.06152344,0.05273438,0.2851563
3409,1.75,-69.75,-9.125,-0.09521484,-0.4609375,-0.6401367,0.06884766,0.05126953,0.28125
3413,18.8125,-75.125,-2.0625,-0.2080078,-0.46875,-0.6206055,0.07373047,0.05126953,0.28125
3417,37.5,-89.5625,0.875,-0.05273438,-0.4804688,-0.7285156,0.08056641,0.05273438,0.2783203
3421,50.3125,-83.8125,3.125,-0.1030273,-0.4492188,-0.7285156,0.09130859,0.05761719,0.2729492
3425,62.3125,-91,5.625,-0.06835938,-0.387207,-0.7514648,0.09375,0.05859375,0.2744141
3429,67.125,-90.9375,13,-0.230957,-0.3173828,-0.809082,0.1020508,0.06494141,0.2661133
3433,65.875,-90.9375,25.125,-0.1342773,-0.1733398,-0.809082,0.1103516,0.06982422,0.2607422
3438,50.5,-90.875,45.1875,-0.1186523,-0.2666016,-1.128418,0.1186523,0.07275391,0.2568359
3442,34.375,-67.0625,40.0625,0.1948242,-0.355957,-1.040039,0.125,0.07519531,0.2514648
3446,32.3125,-51.25,46.5,0.02441406,-0.5,-1.125,0.1318359,0.07373047,0.2485352
3450,42,-31.4375,53.1875,-0.02587891,-0.4921875,-0.9672852,0.1357422,0.07519531,0.2446289
3454,53.5625,-30.4375,61,-0.4555664,-0.3286133,-0.878418,0.1391602,0.07617188,0.2446289
3458,49,-57.875,63.8125,-0.7504883,-0.1459961,-0.8325195,0.1459961,0.07763672,0.237793
3462,25.3125,-88.375,65,-0.5410156,-0.1889648,-0.9477539,0.1499023,0.07763672,0.2324219
3466,0.4375,-95.9375,42.75,-0.3354492,-0.3056641,-0.9555664,0.1591797,0.07519531,0.2294922
3470,-15.875,-106.3125,28.25,-0.3706055,-0.5307617,-0.894043,0.1699219,0.07275391,0.2241211
3474,-9.75,-110.9375,13.9375,-0.4750977,-0.5620117,-0.6860352,0.1748047,0.07128906,0.2202148
3478,15.875,-129.9375,8.125,-0.8432617,-0.5541992,-0.5209961,0.184082,0.06884766,0.2143555
3482,38.5,-158.9375,25.1875,-1.125977,-0.4067383,-0.59375,0.1948242,0.06640625,0.2050781
3486,42.1875,-176.75,42,-0.5722656,-0.3754883,-0.7475586,0.2021484,0.06640625,0.1943359
3490,29.8125,-164.625,34.3125,-0.7773438,-0.2900391,-0.7592773,0.215332,0.06738281,0.1806641
3494,16,-189.5,25.75,-1.048828,-0.2783203,-0.7133789,0.2246094,0.06494141,0.168457
3498,17.8125,-205.125,22.875,-1.083496,-0.3833008,-0.5898438,0.2329102,0.06396484,0.15625
3502,20,-214.1875,41.875,-0.746582,-0.3793945,-0.8286133,0.2451172,0.06103516,0.1396484
3506,11.5,-200.875,32.375,-0.796875,-0.3364258,-0.8325195,0.2568359,0.05761719,0.125
3510,2.9375,-202.875,36,-0.9516602,-0.2861328,-0.7861328,0.2602539,0.05761719,0.1123047
3514,-6.4375,-207.75,34.5,-1.118652,-0.2392578,-0.6630859,0.2709961,0.05273438,0.09472656
3518,-9.75,-205.875,54.6875,-1.211426,-0.2241211,-0.5864258,0.2807617,0.04638672,0.07421875
3522,-24.5625,-204.8125,75.875,-1.145508,-0.1772461,-0.7055664,0.2856445,0.04150391,0.06201172
3526,-49.75,-202.3125,67.875,-1.149414,-0.2124023,-0.6938477,0.2890625,0.03369141,0.04296875
3530,-63.625,-212,59.125,-1.315918,-0.3520508,-0.6323242,0.2939453,0.02490234,0.02539063
3534,-66.4375,-219.625,49.875,-1.315918,-0.387207,-0.5517578,0.2973633,0.02148438,0.01318359
3538,-54.25,-219.125,54.25,-1.374023,-0.534668,-0.4824219,0.3022461,0.01513672,-0.006835938
3542,-28.5,-219.5625,56.75,-1.273438,-0.5581055,-0.5053711,0.3022461,0.007324219,-0.02734375
3546,-14.375,-210.625,59.4375,-1.087402,-0.4921875,-0.6323242,0.3022461,0.001464844,-0.04052734
3550,-18.5625,-197.1875,50.9375,-1.001953,-0.3989258,-0.6669922,0.3007813,-0.001953125,-0.05712891
3554,-25.25,-197.9375,29.5,-1.15332,-0.4140625,-0.5439453,0.2983398,-0.008300781,-0.07861328
3558,-18.8125,-195.75,25.0625,-1.20752,-0.421875,-0.3901367,0.2949219,-0.008300781,-0.09082031
3562,-7.25,-193.125,29.375,-1.223145,-0.4648438,-0.378418,0.2900391,-0.01074219,-0.1098633
3567,-8.6875,-187.375,31.0625,-0.8974609,-0.3481445,-0.5478516,0.2856445,-0.01318359,-0.1264648
3571,-20.75,-169.4375,15.25,-0.9208984,-0.4882813,-0.4360352,0.2807617,-0.015625,-0.1347656
3575,-11.1875,-162.3125,7.875,-0.9985352,-0.5737305,-0.2089844,0.2758789,-0.015625,-0.1538086
3579,0.8125,-164.8125,-6.625,-1.25,-0.453125,-0.1669922,0.2666016,-0.01708984,-0.1660156
3583,4.9375,-164.6875,-9.625,-0.8935547,-0.3598633,-0.2475586,0.2626953,-0.015625,-0.1738281
3587,11.125,-141.6875,-8.625,-0.9326172,-0.3950195,-0.2207031,0.2543945,-0.01464844,-0.1865234
3591,15.1875,-125.375,0.375,-1.029297,-0.2978516,-0.06298828,0.2460938,-0.015625,-0.1987305
3595,9.5625,-116.5,5.125,-1.037109,-0.1928711,0.03271484,0.2426758,-0.015625,-0.2026367
3599,7.4375,-114.1875,11.3125,-1.041016,-0.2509766,-0.01660156,0.2368164,-0.01464844,-0.2119141
3603,-2.75,-109.5,3.1875,-0.7387695,-0.2509766,-0.07470703,0.2294922,-0.015625,-0.2216797
3607,-0.875,-97.5,-8.6875,-0.7504883,-0.402832,0.01708984,0.2246094,-0.01708984,-0.2255859
3611,10.0625,-83.5625,-13.5,-0.8510742,-0.4067383,0.1865234,0.2177734,-0.015625,-0.230957
3615,25.5,-77.9375,-11.9375,-0.9365234,-0.3208008,0.2441406,0.2138672,-0.01806641,-0.237793
3619,32.375,-60.25,12.5,-0.715332,-0.2705078,0.2060547,0.2104492,-0.01708984,-0.2368164
3623,19.375,-69,1.875,-0.9868164,-0.06835938,0.04052734,0.2070313,-0.01953125,-0.2436523
3627,4.5625,-54.6875,5.4375,-0.7036133,-0.07226563,0.07519531,0.2011719,-0.01953125,-0.2460938
3631,-9,-47.4375,4.0625,-0.78125,-0.1381836,0.1210938,0.199707,-0.01953125,-0.25
3635,-21.5,-45.9375,-1.5625,-0.78125,-0.1811523,0.1713867,0.1962891,-0.01806641,-0.2529297
3639,-24.5,-40.875,-2.625,-0.7192383,-0.3134766,0.2094727,0.1928711,-0.015625,-0.2568359
3643,-11.6875,-27.3125,0.1875,-0.6342773,-0.3989258,0.1787109,0.1904297,-0.01318359,-0.2558594
3647,1.5,-11.3125,1,-0.6303711,-0.3754883,0.1210938,0.1904297,-0.01464844,-0.2583008
3651,3.8125,3.1875,1.8125,-0.5722656,-0.2783203,0.005859375,0.1889648,-0.01464844,-0.2597656
3655,-3.75,20.0625,1.4375,-0.6494141,-0.2548828,-0.04394531,0.1914063,-0.01464844,-0.2597656
3659,-12,31.0625,-3,-0.7114258,-0.2509766,-0.05908203,0.1914063,-0.015625,-0.2583008
3663,-19.4375,41.6875,-9.9375,-0.7426758,-0.2978516,-0.05908203,0.1962891,-0.01318359,-0.2543945
3667,-17.9375,54.75,-12.8125,-0.7348633,-0.3481445,-0.08203125,0.1962891,-0.01318359,-0.2514648
3671,-18.5625,71.375,-16.0625,-0.7734375,-0.3286133,-0.0859375,0.2011719,-0.01171875,-0.2475586
3675,-27.0625,78.6875,-20.625,-0.8974609,-0.3286133,-0.08984375,0.2055664,-0.006835938,-0.2446289
3679,-36.75,88.1875,-26.125,-0.78125,-0.402832,-0.1015625,0.2104492,-0.006835938,-0.2407227
3683,-42.875,101.0625,-35.25,-0.8588867,-0.4804688,-0.109375,0.2138672,-0.0004882813,-0.2353516
3687,-34.9375,102.375,-48.75,-0.9672852,-0.6044922,-0.06689453,0.2211914,0.002441406,-0.2285156
3691,-27.5,107.5,-60.8125,-1.001953,-0.5307617,0.04785156,0.2236328,0.01025391,-0.2216797
3696,-25,108.8125,-65.625,-1.067871,-0.4921875,0.2250977,0.230957,0.01367188,-0.2163086
3700,-24.5625,110.5,-57.3125,-1.033203,-0.4067383,0.2094727,0.2353516,0.02001953,-0.2041016
3704,-43.0625,109.25,-67.125,-1.087402,-0.3208008,0.1518555,0.2402344,0.02490234,-0.199707
3708,-48.625,99.9375,-79.9375,-0.9555664,-0.5151367,0.2060547,0.2426758,0.03125,-0.1904297
3712,-38.875,107.125,-78.5,-0.8857422,-0.5854492,0.1865234,0.2451172,0.04150391,-0.1821289
3716,-30.3125,119.5625,-72.3125,-0.8354492,-0.5463867,0.02490234,0.2485352,0.04882813,-0.1767578
3720,-23.1875,133.125,-61.1875,-0.9287109,-0.5073242,-0.04394531,0.2519531,0.05371094,-0.1660156
3724,-21.9375,140.6875,-51.5625,-1.125977,-0.4067383,-0.1054688,0.2558594,0.06103516,-0.1547852
3728,-27.1875,140.1875,-45.4375,-0.9750977,-0.3134766,-0.2016602,0.2602539,0.06494141,-0.144043
3732,-47.5625,156.8125,-33.3125,-1.106934,-0.2353516,-0.2978516,0.2641602,0.06982422,-0.1318359
3736,-60,141.875,-35.125,-1.145508,-0.3598633,-0.3012695,0.2666016,0.07373047,-0.1181641
3740,-68.875,164.0625,-16.3125,-1.060547,-0.4101563,-0.3706055,0.2675781,0.07617188,-0.1088867
3744,-63.9375,168.625,-5,-0.9946289,-0.5112305,-0.4477539,0.2734375,0.08007813,-0.09082031
3748,-67.6875,193.8125,4,-1.176758,-0.4570313,-0.5209961,0.2773438,0.08251953,-0.07177734
3752,-63.75,191.4375,2.875,-1.12207,-0.534668,-0.4936523,0.2792969,0.08496094,-0.06103516
3756,-70.3125,151.875,-39.8125,-1.455566,-0.5854492,-0.4516602,0.2773438,0.08496094,-0.04052734
3760,-71.9375,160.875,-32.6875,-0.862793,-0.6357422,-0.4594727,0.2792969,0.08984375,-0.02587891
3764,-60.4375,184.4375,-14.375,-0.9052734,-0.7133789,-0.6054688,0.2783203,0.08984375,-0.01074219
3768,-53.375,182.4375,-24.0625,-1.242188,-0.6435547,-0.6669922,0.2773438,0.09521484,0.006347656
3772,-53.3125,170.5,-35.3125,-1.056641,-0.6044922,-0.6206055,0.2749023,0.09765625,0.02392578
3776,-50.625,178.75,-36.4375,-1.07959,-0.6787109,-0.59375,0.2724609,0.09619141,0.03613281
3780,-39.8125,177.375,-33.8125,-1.044922,-0.6435547,-0.7246094,0.2651367,0.1025391,0.05273438
3784,-40.4375,198.4375,-21.1875,-0.847168,-0.5698242,-0.7670898,0.2592773,0.1049805,0.07177734
3788,-38.875,200.625,-13.25,-1.106934,-0.5,-0.824707,0.2543945,0.1064453,0.08251953
3792,-50.8125,192.25,-13.875,-0.9477539,-0.4179688,-0.8901367,0.2475586,0.1064453,0.1000977
3796,-62.875,195.1875,-13.9375,-0.8857422,-0.5268555,-0.9169922,0.2402344,0.1035156,0.1220703
3800,-59.75,191.3125,-12.0625,-0.9248047,-0.6357422,-0.9477539,0.2329102,0.1049805,0.1328125
3804,-61.25,203.0625,-9.8125,-0.6572266,-0.6005859,-0.9516602,0.2236328,0.1025391,0.1494141
3808,-56.0625,215.1875,1.5,-0.6962891,-0.6748047,-0.9980469,0.2128906,0.1000977,0.1655273
3812,-45.0625,210.125,-7.5,-0.9555664,-0.6552734,-0.8554688,0.2011719,0.1010742,0.1791992
3816,-52.0625,187.125,-18.375,-0.6728516,-0.46875,-0.9707031,0.1914063,0.1000977,0.1943359
3820,-58.875,191.875,-23.125,-0.5449219,-0.6240234,-1.043945,0.1748047,0.09619141,0.206543
3825,-69.9375,200.625,-29,-0.3354492,-0.3481445,-1.063477,0.1640625,0.09619141,0.2158203
3829,-80.25,206.0625,-13.0625,-0.6494141,-0.4067383,-0.8710938,0.1484375,0.09228516,0.2294922
3833,-93.5,182.5,-15,-0.8198242,-0.2006836,-0.6899414,0.1308594,0.08740234,0.2416992
3837,-111.0625,143.5,-27.1875,-0.5332031,-0.3286133,-0.5400391,0.1225586,0.08105469,0.25
3841,-97.6875,128.6875,-21.625,-0.4365234,-0.7832031,-0.4555664,0.1069336,0.07519531,0.2592773
3845,-52.625,125.875,-21.6875,-0.1342773,-0.8842773,-0.2861328,0.09765625,0.06884766,0.2661133
3849,-10.5,123,-14.8125,-0.2773438,-0.6708984,-0.2324219,0.08886719,0.06738281,0.2705078
3853,10.6875,96.1875,-10.875,-0.4985352,-0.3481445,-0.309082,0.07861328,0.06640625,0.2758789
3857,6.8125,58.4375,-19.75,-0.3393555,-0.1850586,-0.3325195,0.07128906,0.06884766,0.2758789
3861,-2.3125,35.4375,-14.5,-0.1845703,-0.2045898,-0.4360352,0.06787109,0.06884766,0.2783203
3865,-9.6875,23.5625,-14.25,-0.02978516,-0.1850586,-0.609375,0.06396484,0.06884766,0.2797852
3869,-16.5,20.8125,-11.25,0.1015625,-0.2587891,-0.6552734,0.06152344,0.06884766,0.2783203
3873,-10.3125,20.875,-5.0625,0.05517578,-0.324707,-0.5898438,0.06054688,0.06884766,0.2827148
3877,-0.3125,11,-5.4375,-0.06445313,-0.3286133,-0.5131836,0.05712891,0.06738281,0.2841797
3881,14.4375,-8.9375,-10.25,0.01660156,-0.3676758,-0.6821289,0.05810547,0.06640625,0.2797852
3885,16.5625,-4.875,-11.625,0.1328125,-0.1811523,-0.8129883,0.05712891,0.06738281,0.2827148
3889,8.0625,-8.125,-11.125,0.07470703,-0.1035156,-0.8325195,0.05810547,0.07128906,0.28125
3893,3.6875,-13.5,-4.375,-0.002441406,-0.1113281,-0.8325195,0.05810547,0.07128906,0.2797852
3897,0.5625,-18.625,0.875,0.01269531,-0.1459961,-0.9208984,0.05712891,0.07128906,0.2797852
3901,-2.0625,-18.125,1.75,0.125,-0.1733398,-0.9785156,0.05957031,0.07275391,0.2783203
3905,-1.875,-17.5,-0.8125,0.09375,-0.2705078,-1.009277,0.06054688,0.06982422,0.2773438
3909,2.8125,-11.375,-1.25,0.1132813,-0.2275391,-0.8823242,0.06396484,0.07128906,0.2797852
3913,7.4375,-20.375,2.25,-0.09912109,-0.1772461,-0.8168945,0.06298828,0.07128906,0.2783203
3917,7.75,-30.3125,8.4375,-0.04882813,-0.1035156,-0.8129883,0.06542969,0.07275391,0.2758789
3921,-1.8125,-38.25,15.5625,-0.1342773,-0.08789063,-0.859375,0.06982422,0.07128906,0.2783203
3925,-11,-50.3125,15.625,-0.01806641,-0.1928711,-0.894043,0.07226563,0.06982422,0.2773438
3929,-11.3125,-47.6875,11.75,0.1328125,-0.2978516,-0.8632813,0.08203125,0.06884766,0.2744141
3933,0.4375,-47.0625,13.9375,-0.006347656,-0.3911133,-0.824707,0.08203125,0.06884766,0.2729492
3937,10.6875,-47.0625,13.875,-0.04492188,-0.3173828,-0.6630859,0.08789063,0.06738281,0.2714844
3941,19.6875,-59.8125,22.3125,-0.2700195,-0.3286133,-0.6630859,0.09277344,0.06982422,0.2714844
3945,24.4375,-73.125,16.9375,-0.05664063,-0.3095703,-0.7978516,0.09619141,0.07128906,0.2675781
3949,26.625,-72.25,17.625,-0.1303711,-0.3754883,-0.824707,0.1020508,0.07128906,0.2661133
3954,31.6875,-76.125,14.4375,-0.01806641,-0.3442383,-0.8745117,0.1103516,0.07275391,0.262207
3958,29.875,-74.625,11.375,-0.2270508,-0.3208008,-0.7783203,0.1152344,0.07519531,0.2583008
3962,33.125,-89.8125,13.1875,-0.262207,-0.2939453,-0.8364258,0.1210938,0.07617188,0.2524414
3966,24.9375,-92.9375,15.125,-0.4482422,-0.2392578,-0.809082,0.1293945,0.07763672,0.2470703
3970,17.25,-110.5,7.5625,-0.1342773,-0.2548828,-0.9516602,0.1357422,0.07763672,0.2431641
3974,12.0625,-103.25,5.6875,-0.3007813,-0.3989258,-0.9360352,0.1450195,0.07861328,0.2363281
3978,15.875,-108.25,-2.0625,-0.3125,-0.484375,-0.7861328,0.1523438,0.08007813,0.2324219
3982,37.875,-121.9375,-2.5,-0.5527344,-0.5737305,-0.8129883,0.1606445,0.07861328,0.2270508
3986,49.0625,-125.75,-7.125,-0.3164063,-0.3833008,-0.9130859,0.1699219,0.08007813,0.21875
3990,49.9375,-125.1875,-0.8125,-0.3974609,-0.4101563,-0.9707031,0.1757813,0.08642578,0.2119141
3994,48.125,-119.1875,5.0625,-0.4130859,-0.3442383,-0.8364258,0.1831055,0.08642578,0.2050781
3998,46.8125,-124.875,9.9375,-0.6884766,-0.3520508,-0.6977539,0.1914063,0.08984375,0.1943359
4002,39.625,-139.8125,11.875,-0.699707,-0.2939453,-0.7285156,0.2011719,0.09228516,0.1845703
4006,33.0625,-149.1875,18.5,-0.8164063,-0.4101563,-0.6513672,0.2070313,0.09375,0.1738281
4010,38.75,-158.9375,18.3125,-0.7270508,-0.4492188,-0.6015625,0.2163086,0.09228516,0.1655273
4014,42.75,-165.5625,21.25,-0.7929688,-0.4101563,-0.8056641,0.2270508,0.09228516,0.1518555
4018,35.4375,-162.75,20.75,-0.7695313,-0.355957,-0.7900391,0.2329102,0.09130859,0.1411133
4022,27.625,-163.9375,19.4375,-0.8706055,-0.4375,-0.6479492,0.2402344,0.08984375,0.1259766
4026,41.6875,-170.625,27.375,-1.246094,-0.6474609,-0.3051758,0.25,0.08984375,0.1098633
4030,58.4375,-189.5625,39.9375,-1.389648,-0.4609375,-0.2670898,0.2543945,0.08984375,0.1015625
4034,54.25,-208.0625,45.5625,-1.095215,-0.3442383,-0.6206055,0.2617188,0.08740234,0.08105469
4038,36.5625,-200.25,43.125,-0.7773438,-0.3173828,-0.8208008,0.2709961,0.08398438,0.05957031
4042,25.25,-191.4375,41,-0.9711914,-0.4492188,-0.7553711,0.2749023,0.08251953,0.04882813
4046,27.8125,-192.875,36.5,-1.187988,-0.5229492,-0.4477539,0.2792969,0.07763672,0.02978516
4050,39.5625,-200.625,35,-1.35498,-0.3911133,-0.2324219,0.2841797,0.07275391,0.01074219
4054,47.0625,-215.9375,45.375,-1.591309,-0.484375,-0.2128906,0.2866211,0.06884766,-0.001464844
4058,39.375,-227.5625,49.5625,-1.021484,-0.3325195,-0.6708984,0.2880859,0.06396484,-0.02441406
4062,24.625,-206.5625,47.5625,-1.075684,-0.5073242,-0.7363281,0.2880859,0.06005859,-0.04492188
4066,22.3125,-199.0625,42.1875,-0.9985352,-0.5229492,-0.7055664,0.2890625,0.05761719,-0.05859375
4070,23.5625,-184.625,37,-1.149414,-0.5927734,-0.5668945,0.2866211,0.04980469,-0.07861328
4074,29.5625,-180.6875,32.25,-1.292969,-0.5620117,-0.4130859,0.2832031,0.04492188,-0.09521484
4078,31.125,-179.875,32.625,-1.292969,-0.503418,-0.324707,0.2807617,0.04492188,-0.1074219
4083,27.0625,-176.1875,37.125,-1.203613,-0.4179688,-0.4052734,0.2758789,0.03759766,-0.1235352
4087,17.3125,-166.75,34.5625,-1.075684,-0.4101563,-0.4282227,0.2709961,0.03271484,-0.137207
4091,9.9375,-153.75,35.75,-1.009766,-0.4492188,-0.5053711,0.2651367,0.03369141,-0.1469727
4095,2.5625,-138.8125,27.3125,-0.9091797,-0.4921875,-0.5551758,0.2626953,0.02734375,-0.1591797
4099,3.5625,-123.0625,18,-0.8745117,-0.5776367,-0.5092773,0.2558594,0.02734375,-0.1699219
4103,10.25,-106.25,11.3125,-0.8198242,-0.550293,-0.4707031,0.2543945,0.02490234,-0.175293
4107,12.5625,-86.375,6.6875,-0.8164063,-0.46875,-0.3901367,0.2485352,0.02392578,-0.1865234
4111,11.875,-71.0625,7.5,-0.8276367,-0.3989258,-0.324707,0.2436523,0.02246094,-0.1918945
4115,5.5625,-59,6.5625,-0.8354492,-0.340332,-0.2822266,0.2402344,0.02392578,-0.1943359
4119,-3.25,-47.8125,3.5625,-0.8706055,-0.3095703,-0.1743164,0.2368164,0.02148438,-0.199707
4123,-9.375,-45.1875,-0.125,-0.8935547,-0.3325195,-0.1166992,0.2368164,0.01855469,-0.199707
4127,-13.125,-34.8125,-0.625,-0.796875,-0.3173828,-0.04394531,0.234375,0.02246094,-0.2041016
