Packet number,Gyroscope X (deg/s),Gyroscope Y (deg/s),Gyroscope Z (deg/s),Accelerometer X (g),Accelerometer Y (g),Accelerometer Z (g),Magnetometer X (G),Magnetometer Y (G),Magnetometer Z (G)
2,3.75,6.6875,-1.375,-0.9399414,0.3310547,0.05175781,0.2832031,-0.04833984,-0.08154297
6,-1.8125,4.75,-2.75,-0.9208984,0.269043,0.07910156,0.2841797,-0.04589844,-0.08300781
10,-0.75,3.3125,-4.125,-0.9365234,0.2495117,0.08251953,0.2817383,-0.04589844,-0.08154297
14,1.1875,0.3125,-4,-0.9399414,0.2416992,0.08251953,0.2817383,-0.04443359,-0.08154297
18,4.625,-4.3125,-3.9375,-0.9365234,0.2495117,0.07128906,0.2832031,-0.04443359,-0.08007813
22,5.8125,-7.5625,-3.1875,-0.9208984,0.2768555,0.06738281,0.2832031,-0.04443359,-0.08154297
26,4.9375,-11.4375,-1.9375,-0.9594727,0.3081055,0.07519531,0.2807617,-0.04443359,-0.08300781
30,1.0625,-18.125,-6.0625,-0.9208984,0.3120117,0.06738281,0.2832031,-0.04589844,-0.08447266
34,-0.9375,-18.1875,-7.1875,-0.8706055,0.2924805,0.05175781,0.2807617,-0.04443359,-0.08154297
38,-2.6875,-18.5625,-5.0625,-0.9169922,0.3120117,0.05175781,0.2792969,-0.04199219,-0.08691406
42,-4.125,-21.375,-3.125,-0.8818359,0.3081055,0.04052734,0.2807617,-0.04199219,-0.08984375
46,-5.5,-19.5,1.6875,-0.8896484,0.315918,0.05175781,0.2792969,-0.04296875,-0.09082031
50,-10.25,-20.9375,4.8125,-0.9130859,0.3271484,0.05566406,0.2783203,-0.04052734,-0.09228516
54,-15.6875,-20.75,5.25,-0.9287109,0.3120117,0.03662109,0.2783203,-0.04443359,-0.09375
58,-19.25,-19,2.5,-0.8935547,0.2768555,0.02880859,0.2749023,-0.04199219,-0.09521484
62,-15.625,-13.8125,5.25,-0.8706055,0.237793,-0.005371094,0.2773438,-0.04296875,-0.09765625
66,-10.3125,-9.5,9.0625,-0.9130859,0.269043,-0.02050781,0.2783203,-0.04296875,-0.09765625
70,-9.125,-13.5625,8.625,-0.9868164,0.3041992,0.001953125,0.2758789,-0.04443359,-0.09667969
74,-9.5,-16.6875,10.0625,-0.9326172,0.3232422,0.01367188,0.2773438,-0.04296875,-0.09912109
78,-13.625,-13.5,10.25,-0.8935547,0.3740234,-0.001464844,0.2749023,-0.04443359,-0.1005859
82,-21.6875,-7.8125,6.4375,-0.9248047,0.3623047,0.009765625,0.2749023,-0.04443359,-0.1020508
86,-23.625,-6.25,6.3125,-0.9555664,0.3120117,0.02099609,0.2734375,-0.04443359,-0.1005859
90,-18.1875,-4.8125,5.875,-0.9208984,0.2651367,0.01367188,0.2724609,-0.04296875,-0.1020508
94,-5,-3.5,7.75,-0.9399414,0.2416992,0.03662109,0.2734375,-0.04589844,-0.1020508
98,7.125,-5.8125,11.875,-0.9555664,0.284668,0.03271484,0.2734375,-0.04443359,-0.1035156
102,9.25,-6.3125,7.9375,-0.8935547,0.3935547,0.005859375,0.2709961,-0.04589844,-0.1044922
107,3.625,1,10.125,-0.8588867,0.4360352,-0.001464844,0.2724609,-0.04589844,-0.1020508
111,-5,6,13.625,-0.9130859,0.4868164,0.005859375,0.2700195,-0.04931641,-0.1005859
115,-14.5,8.4375,16.8125,-0.9013672,0.4516602,-0.01660156,0.2724609,-0.05078125,-0.1020508
119,-17.625,14.25,21,-0.9130859,0.3896484,-0.05908203,0.2709961,-0.05078125,-0.1035156
123,-14.375,18.25,22.3125,-0.9287109,0.3701172,-0.109375,0.2724609,-0.05322266,-0.1020508
127,-12,22.875,18.75,-0.9477539,0.3505859,-0.1743164,0.2724609,-0.05322266,-0.09765625
131,-8.375,27.0625,15.4375,-0.9594727,0.3232422,-0.2861328,0.2734375,-0.05566406,-0.09521484
135,-2.9375,37.9375,12.4375,-0.8706055,0.284668,-0.4169922,0.2724609,-0.05566406,-0.09667969
139,10.3125,55.6875,11.4375,-1.041016,0.3081055,-0.4594727,0.2749023,-0.05566406,-0.09228516
143,18.6875,61.1875,10.375,-1.118652,0.3896484,-0.5092773,0.2758789,-0.05810547,-0.08837891
147,23.75,69.8125,2.75,-1.176758,0.4438477,-0.5361328,0.2773438,-0.05810547,-0.08154297
151,22.25,80.5,-5.75,-1.087402,0.4477539,-0.6591797,0.2792969,-0.05957031,-0.07763672
155,23.375,103,-9.3125,-1.017578,0.4013672,-0.809082,0.2792969,-0.05810547,-0.07080078
159,29.5625,129.8125,-10.3125,-0.9985352,0.3271484,-0.8364258,0.2832031,-0.05810547,-0.05957031
163,48.875,150.9375,-7.3125,-1.195801,0.3271484,-0.7900391,0.2856445,-0.05712891,-0.05029297
167,60,156.8125,-14.0625,-1.253906,0.4013672,-0.7441406,0.2866211,-0.05712891,-0.03662109
171,60.1875,162.625,-22.375,-1.227051,0.4907227,-0.7094727,0.2890625,-0.0546875,-0.02441406
175,57.0625,172.75,-21,-1.141602,0.4438477,-0.6630859,0.2880859,-0.05322266,-0.01074219
179,58.0625,190.0625,-9.8125,-1.013672,0.4125977,-0.7475586,0.2880859,-0.05175781,0.00390625
183,63.5,211.625,3.8125,-1.056641,0.3310547,-0.824707,0.2890625,-0.05175781,0.02392578
187,73.625,223.5625,15.1875,-1.199707,0.3193359,-0.8862305,0.2841797,-0.04931641,0.03613281
191,76.9375,220.375,4.6875,-1.296875,0.3857422,-0.8823242,0.2817383,-0.04931641,0.05810547
195,73.8125,224.9375,-3.75,-1.157227,0.4243164,-0.8476563,0.2773438,-0.046875,0.07861328
199,70.875,231.5,-1.625,-1.095215,0.4438477,-0.878418,0.2734375,-0.04589844,0.09472656
203,73.625,245.9375,16.5625,-0.9790039,0.4321289,-0.9130859,0.2641602,-0.04296875,0.1137695
207,83.5,256.9375,39.5,-1.017578,0.4360352,-0.9785156,0.253418,-0.04296875,0.1381836
211,92.1875,266.4375,55.375,-1.056641,0.5449219,-1.013184,0.2451172,-0.04199219,0.1533203
215,71.3125,257.25,27.5,-1.187988,0.6499023,-1.105469,0.2329102,-0.03955078,0.1738281
219,59.25,260.125,12.875,-0.9555664,0.3818359,-1.20166,0.2177734,-0.03564453,0.1953125
223,76.9375,271.375,15.4375,-0.9399414,0.2651367,-1.270996,0.2055664,-0.03320313,0.2050781
227,103.625,283.3125,33.125,-0.8974609,0.284668,-1.240234,0.184082,-0.02832031,0.2255859
231,129.625,295.375,62.0625,-0.746582,0.300293,-1.209473,0.1616211,-0.01953125,0.2431641
236,150,310,86.5,-1.037109,0.5839844,-1.047852,0.1459961,-0.015625,0.2539063
240,118.375,289.75,66.8125,-1.176758,0.7470703,-0.7631836,0.1225586,-0.005859375,0.2705078
244,85.625,255.0625,42.625,-1.037109,0.5214844,-0.5014648,0.09765625,0.001464844,0.2773438
248,71.5625,222.9375,35.3125,-0.9790039,0.3388672,-0.2514648,0.07958984,0.007324219,0.2827148
252,47.5,172.0625,25.625,-0.7114258,0.1796875,-0.09375,0.06054688,0.01269531,0.2866211
256,47.375,134.8125,29.75,-0.4750977,0.04003906,-0.0859375,0.04492188,0.01757813,0.2880859
260,50.375,106.4375,40.0625,-0.3393555,0.004882813,0.03271484,0.03808594,0.02148438,0.2919922
264,33.875,72.9375,35.5,-0.2890625,0.1523438,0.04052734,0.02832031,0.02636719,0.293457
268,6.125,39.6875,20.1875,-0.3046875,0.1020508,-0.06689453,0.0234375,0.02636719,0.293457
272,-10.8125,13.4375,2.75,-0.04492188,-0.04150391,-0.2397461,0.02246094,0.02880859,0.2949219
276,-15.5625,9.375,-3,0.1518555,-0.1152344,-0.3632813,0.02001953,0.02734375,0.2963867
280,-10.5,2.9375,4.125,0.0009765625,-0.1191406,-0.359375,0.02001953,0.02490234,0.2949219
284,-5.3125,-19.125,3.4375,-0.03710938,-0.1191406,-0.4248047,0.01904297,0.02392578,0.2949219
288,-3.9375,-37.8125,-9.6875,0.08642578,-0.08007813,-0.6479492,0.02246094,0.02392578,0.293457
292,-2.625,-36.1875,-14.6875,0.1831055,-0.02978516,-0.7553711,0.02587891,0.02246094,0.2963867
296,-4.4375,-34.3125,-13.5,0.2138672,0.04394531,-0.7939453,0.02832031,0.02148438,0.2963867
300,-9.6875,-33.4375,-8.4375,0.1132813,0.1367188,-0.7978516,0.03173828,0.02246094,0.293457
304,-18.8125,-39.8125,-4.9375,0.07470703,0.1835938,-0.809082,0.03662109,0.02246094,0.293457
308,-27.625,-47.125,-1.25,0.06689453,0.1757813,-0.9091797,0.03662109,0.01855469,0.2919922
312,-34.9375,-47.25,0.4375,0.05517578,0.1367188,-0.9633789,0.04150391,0.01757813,0.2919922
316,-40.875,-49.625,-4.1875,0.02832031,0.06298828,-1.051758,0.04638672,0.01123047,0.2910156
320,-32.6875,-48.25,-7.6875,0.02050781,-0.05273438,-1.001465,0.04882813,0.01025391,0.2910156
324,-19.9375,-58.875,-7.375,-0.1499023,0.05126953,-0.9707031,0.05322266,0.006347656,0.2895508
328,-14.5,-68.875,-6.4375,-0.1572266,0.121582,-0.8017578,0.06054688,0.004882813,0.2895508
332,-21.5,-90.3125,-8.3125,-0.1611328,0.2070313,-0.9746094,0.06542969,0.00390625,0.2866211
336,-24.5625,-86.375,-5.25,-0.1499023,0.1254883,-0.9633789,0.07470703,0.004882813,0.2866211
340,-28.3125,-94.0625,-11,-0.09130859,0.07080078,-1.05957,0.08203125,0,0.2827148
344,-15.5,-89.3125,-6,-0.2504883,0.0009765625,-0.878418,0.08886719,-0.0004882813,0.2827148
348,-7.5625,-107.8125,-3,-0.362793,0.140625,-0.7631836,0.09765625,-0.003417969,0.2797852
352,-15,-127.3125,-3.125,-0.4946289,0.3701172,-0.9438477,0.1079102,-0.004394531,0.2744141
356,-36.1875,-127.5625,-12.0625,-0.1884766,0.2070313,-0.9633789,0.1166992,-0.006835938,0.2675781
360,-36.5625,-125.5,-8.9375,-0.2426758,0.1679688,-1.140137,0.128418,-0.008300781,0.2636719
365,-24.5,-111.3125,-1.1875,-0.2583008,0.06298828,-0.9326172,0.1367188,-0.01074219,0.2583008
369,-16.75,-118.5625,8.3125,-0.5141602,0.2885742,-0.8056641,0.144043,-0.01318359,0.2524414
373,-22.25,-134.1875,12.4375,-0.6689453,0.3857422,-0.6860352,0.1533203,-0.01464844,0.2485352
377,-48.125,-149.625,3.625,-0.5332031,0.4555664,-0.859375,0.1650391,-0.01806641,0.2392578
381,-67.1875,-145.125,-7.1875,-0.3320313,0.1875,-1.090332,0.1748047,-0.02441406,0.2333984
385,-49.8125,-128.625,-3.125,-0.4404297,0.02832031,-1.005371,0.1855469,-0.02587891,0.2270508
389,-29.125,-130.1875,1.375,-0.5834961,0.1176758,-0.8208008,0.1948242,-0.03076172,0.2158203
393,-17.5,-142.4375,7.9375,-0.8588867,0.3505859,-0.6401367,0.199707,-0.03076172,0.2104492
397,-35.1875,-160.75,3.6875,-0.7270508,0.5214844,-0.7133789,0.2104492,-0.03466797,0.1982422
401,-60.5625,-161,2.25,-0.7036133,0.5136719,-0.9824219,0.2202148,-0.03808594,0.1889648
405,-78.0625,-145.75,-7.5,-0.3862305,0.1601563,-1.024902,0.2270508,-0.04199219,0.1821289
409,-52.8125,-132.25,2.125,-0.699707,0.09814453,-0.8901367,0.2368164,-0.04589844,0.1699219
413,-32.9375,-139.375,6.125,-0.8745117,0.237793,-0.6245117,0.2436523,-0.04833984,0.1572266
417,-27.125,-153.9375,14.4375,-0.9907227,0.4711914,-0.5708008,0.2451172,-0.04931641,0.1508789
421,-49.75,-157.375,13.5,-0.8198242,0.5644531,-0.628418,0.2543945,-0.0546875,0.1357422
425,-70.875,-152.875,12.75,-0.8237305,0.4165039,-0.7709961,0.2602539,-0.05810547,0.1206055
429,-71.3125,-144.1875,11.9375,-0.8237305,0.2148438,-0.7246094,0.2666016,-0.06054688,0.1137695
433,-52.9375,-145.25,12.625,-1.021484,0.1992188,-0.5864258,0.2700195,-0.06445313,0.09912109
437,-39.1875,-153.5,13.4375,-1.095215,0.3271484,-0.4052734,0.2749023,-0.06591797,0.08251953
441,-39.6875,-162.0625,20.5,-1.114746,0.4907227,-0.4013672,0.2783203,-0.06933594,0.07421875
445,-57.9375,-163.375,22,-1.001953,0.5527344,-0.5517578,0.2807617,-0.07177734,0.05810547
449,-72.75,-152.875,21.3125,-0.9169922,0.4204102,-0.6669922,0.2841797,-0.07568359,0.04199219
453,-69.4375,-140.1875,23.8125,-1.017578,0.3466797,-0.6206055,0.2856445,-0.07714844,0.03369141
457,-60.3125,-141.125,22.75,-1.172852,0.3388672,-0.5053711,0.2880859,-0.08203125,0.01855469
461,-49.0625,-144.8125,25.0625,-1.195801,0.4399414,-0.3745117,0.2856445,-0.08203125,0.006347656
465,-54.75,-145.1875,24.25,-1.15332,0.5644531,-0.394043,0.2866211,-0.08447266,-0.002441406
469,-64.75,-139.1875,25.625,-1.087402,0.5332031,-0.4013672,0.2866211,-0.08837891,-0.01611328
473,-73.125,-133.6875,24.25,-1.056641,0.5097656,-0.4555664,0.2841797,-0.09179688,-0.02832031
477,-79.1875,-122.75,21.6875,-1.025391,0.4477539,-0.4208984,0.2832031,-0.09179688,-0.03808594
481,-75.8125,-117.8125,19.375,-1.091309,0.4282227,-0.359375,0.2817383,-0.09179688,-0.05175781
485,-67.8125,-117.125,15.125,-1.099121,0.4477539,-0.2670898,0.2792969,-0.09082031,-0.06103516
489,-63.875,-116.375,14,-1.067871,0.5371094,-0.2128906,0.2773438,-0.09423828,-0.06787109
494,-65.6875,-113.3125,15.0625,-1.009766,0.5761719,-0.2363281,0.2734375,-0.09326172,-0.08007813
498,-67.6875,-106.5625,15.0625,-0.9399414,0.5136719,-0.2436523,0.2700195,-0.09423828,-0.08984375
502,-64.6875,-98.625,15.9375,-0.9326172,0.4672852,-0.2861328,0.2666016,-0.09326172,-0.09667969
506,-61.125,-93.25,12,-0.9477539,0.4633789,-0.324707,0.2641602,-0.09179688,-0.1044922
510,-57.0625,-84.625,9.125,-0.8818359,0.4477539,-0.3286133,0.2641602,-0.09423828,-0.112793
514,-50.125,-74,9.1875,-0.8745117,0.4555664,-0.309082,0.2583008,-0.09423828,-0.1166992
518,-45.125,-62.125,11.125,-0.8276367,0.4829102,-0.3012695,0.2583008,-0.09326172,-0.125
522,-47.0625,-48.125,11.375,-0.7851563,0.4985352,-0.3398438,0.253418,-0.09179688,-0.1289063
526,-47.6875,-29.25,12.375,-0.7426758,0.4282227,-0.34375,0.253418,-0.09082031,-0.1303711
530,-43.1875,-13,12.625,-0.8007813,0.4052734,-0.2900391,0.2509766,-0.09179688,-0.1318359
534,-35.875,-3.5625,11.875,-0.796875,0.3623047,-0.2285156,0.2509766,-0.09082031,-0.1333008
538,-25.3125,6.0625,12.5,-0.796875,0.3779297,-0.1591797,0.2519531,-0.09179688,-0.1333008
542,-16.5,13.5,14.5,-0.8276367,0.4243164,-0.06298828,0.2519531,-0.09179688,-0.1333008
546,-13.0625,14.8125,9.5,-0.8549805,0.4477539,-0.01318359,0.2519531,-0.09082031,-0.1333008
550,-9.125,17.75,5.75,-0.8164063,0.3935547,0.009765625,0.2509766,-0.09179688,-0.1333008
554,-4.8125,22.3125,3.3125,-0.862793,0.4282227,0.009765625,0.2519531,-0.09082031,-0.1318359
558,-1.75,21.5625,0.75,-0.8510742,0.3896484,-0.02441406,0.2543945,-0.09326172,-0.1289063
562,5.125,29.25,0.625,-0.8276367,0.3271484,-0.07080078,0.253418,-0.09082031,-0.1303711
566,15.3125,31.75,-4.0625,-0.9326172,0.3232422,-0.09375,0.2558594,-0.09179688,-0.1264648
570,23.3125,33.625,-13.125,-0.8745117,0.315918,-0.2055664,0.2558594,-0.09179688,-0.125
574,33.5,43.875,-17.625,-0.8745117,0.3232422,-0.309082,0.2558594,-0.09179688,-0.1225586
578,40.625,54.375,-22.3125,-0.8818359,0.3623047,-0.3974609,0.2583008,-0.09082031,-0.1181641
582,45.375,69.6875,-26.1875,-0.8432617,0.3974609,-0.4555664,0.2617188,-0.09082031,-0.1113281
586,47.5625,88.1875,-25.875,-0.8666992,0.4360352,-0.4746094,0.2666016,-0.08837891,-0.1074219
590,45.6875,103.5625,-30.25,-0.9326172,0.4477539,-0.4746094,0.2675781,-0.08691406,-0.09765625
594,50.1875,116.5625,-31,-0.9594727,0.4477539,-0.4707031,0.2709961,-0.08544922,-0.08984375
598,52.5,130.75,-31.6875,-0.9555664,0.4985352,-0.4746094,0.2734375,-0.08544922,-0.08154297
602,49.8125,139.4375,-32.5,-1.060547,0.5253906,-0.4594727,0.2783203,-0.08300781,-0.07177734
606,53.6875,146.5,-32.5625,-1.033203,0.4438477,-0.4321289,0.2807617,-0.07958984,-0.05859375
610,56.375,156.6875,-30.3125,-1.005859,0.4907227,-0.4975586,0.2832031,-0.07714844,-0.04736328
614,57.5625,172.25,-18.875,-0.9477539,0.4750977,-0.5708008,0.2856445,-0.07568359,-0.03369141
618,57.1875,185.625,-16.0625,-1.052734,0.5410156,-0.6748047,0.2866211,-0.07421875,-0.01464844
623,62.3125,193.875,-17.625,-1.137695,0.4829102,-0.644043,0.2856445,-0.07324219,-0.00390625
627,68.6875,191.8125,-22.1875,-1.285156,0.5566406,-0.5898438,0.2856445,-0.07177734,0.01171875
631,66.5,190,-25,-1.195801,0.6303711,-0.5551758,0.2856445,-0.06689453,0.03076172
635,62.375,197.6875,-14.9375,-1.067871,0.5644531,-0.559082,0.2832031,-0.06689453,0.04199219
639,67.5,208.5,12.0625,-1.106934,0.6030273,-0.5629883,0.2817383,-0.06298828,0.06494141
643,60.1875,215.25,27.25,-1.145508,0.6962891,-0.5517578,0.2773438,-0.06445313,0.08105469
647,46.1875,201.875,20.5625,-1.40918,0.6538086,-0.4863281,0.2734375,-0.06445313,0.09619141
651,37.5,193.75,14.6875,-1.114746,0.4360352,-0.4785156,0.2651367,-0.06591797,0.1137695
655,35.4375,184.875,10.75,-1.227051,0.4907227,-0.574707,0.2568359,-0.06298828,0.1313477
659,28.5625,183.25,7.6875,-0.9516602,0.2924805,-0.628418,0.253418,-0.06201172,0.1425781
663,42.8125,181.9375,19.0625,-0.8393555,0.237793,-0.8364258,0.2426758,-0.06201172,0.1572266
667,68.375,196.8125,41.875,-0.699707,0.1679688,-0.8823242,0.234375,-0.06054688,0.1738281
671,78.125,193.625,41.25,-0.8237305,0.4052734,-1.001465,0.2246094,-0.05957031,0.1845703
675,79,200.8125,38,-0.7734375,0.4907227,-0.9360352,0.2119141,-0.05712891,0.199707
679,56.125,198.4375,31.375,-0.8164063,0.6577148,-0.9091797,0.199707,-0.0546875,0.2158203
683,32.8125,204.1875,27.625,-0.6303711,0.4790039,-0.9091797,0.1889648,-0.05322266,0.2211914
687,36.625,204.3125,38,-0.5722656,0.3041992,-0.9980469,0.1738281,-0.05322266,0.2348633
691,54,215.75,61.9375,-0.3510742,0.2416992,-1.125,0.1567383,-0.05078125,0.2485352
695,84.375,237.9375,100,-0.2348633,0.203125,-1.155762,0.1425781,-0.04833984,0.2568359
699,78.875,240.25,93,-0.9091797,0.809082,-1.01709,0.1201172,-0.04443359,0.2675781
703,19.8125,193.75,41.125,-0.9438477,0.6030273,-0.7592773,0.1010742,-0.04296875,0.2773438
707,12.3125,162.25,16.5625,-0.5063477,0.04736328,-0.7016602,0.09033203,-0.04199219,0.2797852
711,35.6875,148.75,20.0625,-0.4365234,0.09033203,-0.8017578,0.07470703,-0.03955078,0.2866211
715,44.8125,140.5625,21.6875,-0.2348633,0.09814453,-0.7553711,0.06152344,-0.03564453,0.2910156
719,60.8125,131.9375,37.875,-0.1728516,0.1254883,-0.6323242,0.05322266,-0.03173828,0.2949219
723,59.125,114.375,43.5625,-0.3432617,0.3779297,-0.4975586,0.04150391,-0.02685547,0.2973633
727,30.1875,80.375,23.5625,-0.3862305,0.3466797,-0.3901367,0.03076172,-0.0234375,0.2988281
731,7.9375,50.1875,2.9375,-0.2119141,0.1293945,-0.3208008,0.02734375,-0.02050781,0.2988281
735,4,24.8125,-2.1875,-0.1962891,0.1020508,-0.3398438,0.02148438,-0.01953125,0.300293
739,0,0.3125,-6.9375,-0.06445313,0.1176758,-0.4746094,0.01757813,-0.02050781,0.300293
743,-1.375,-9.25,-8.0625,0.1870117,0.04394531,-0.6708984,0.01904297,-0.01953125,0.300293
747,1.3125,-1.125,-1,0.1831055,0.04736328,-0.7133789,0.02001953,-0.02050781,0.3017578
752,3,-3,1.8125,0.1171875,0.07080078,-0.628418,0.01904297,-0.02050781,0.300293
756,-0.5,-16.5,-2.1875,-0.006347656,0.1098633,-0.6132813,0.02001953,-0.02050781,0.2973633
760,-2.625,-30.5,-10.3125,0.02050781,0.1367188,-0.644043,0.02246094,-0.02050781,0.2988281
764,-10.0625,-39.5625,-17.375,0.109375,0.1796875,-0.7939453,0.02490234,-0.02050781,0.2988281
768,-14.25,-35.6875,-14.375,0.2294922,0.1484375,-0.9287109,0.02734375,-0.0234375,0.2988281
772,-13.5,-25.1875,-7.875,0.2104492,0.1254883,-0.9555664,0.03173828,-0.02197266,0.3017578
776,-10.6875,-25.5,-3.125,0.03173828,0.1914063,-0.9287109,0.03173828,-0.02441406,0.2988281
780,-12.6875,-32.375,-5.4375,0.05126953,0.1679688,-0.8862305,0.03662109,-0.02587891,0.2973633
784,-18.8125,-38.3125,-8.25,-0.02978516,0.2416992,-0.9052734,0.0390625,-0.02685547,0.2963867
788,-27.8125,-45.375,-12.5625,-0.01025391,0.2226563,-0.9052734,0.04394531,-0.02832031,0.2973633
792,-31.6875,-55,-17.8125,-0.04492188,0.1796875,-1.051758,0.04638672,-0.03076172,0.2949219
796,-22.5625,-52.4375,-15.3125,0.09033203,0.05126953,-1.063477,0.05078125,-0.03320313,0.293457
800,-10.9375,-53.3125,-10.1875,0.004882813,0.1176758,-1.055664,0.05566406,-0.03564453,0.2949219
804,-2.5,-53.5625,-5.0625,-0.06835938,0.1914063,-0.8862305,0.06054688,-0.03564453,0.2919922
808,-13.125,-67.125,-8.25,-0.2192383,0.3935547,-0.8476563,0.06640625,-0.03564453,0.2895508
812,-28.75,-78.75,-14,-0.2231445,0.3740234,-0.9287109,0.07373047,-0.03564453,0.2880859
816,-36.0625,-83.375,-23.9375,0.03173828,0.2226563,-1.090332,0.07617188,-0.03808594,0.2880859
820,-18.125,-70.5625,-12.5625,0.008789063,0.121582,-0.9824219,0.08447266,-0.04296875,0.2851563
824,4.75,-73.4375,5.75,-0.1728516,0.2612305,-0.7094727,0.09130859,-0.04296875,0.2827148
828,9.875,-86.625,25.5625,-0.3666992,0.5214844,-0.4628906,0.09521484,-0.04296875,0.2797852
832,-29.0625,-118.625,14.375,-0.3974609,0.7587891,-0.7553711,0.105957,-0.04296875,0.2758789
836,-55.5,-119.1875,5.125,-0.1884766,0.4052734,-1.013184,0.1166992,-0.04833984,0.269043
840,-50.1875,-107.6875,2.625,0.05908203,0.1020508,-1.197754,0.1235352,-0.05175781,0.2675781
844,-25.25,-82.6875,16,-0.05664063,0.1367188,-1.032227,0.1333008,-0.05566406,0.2636719
848,-17.75,-84.625,26.8125,-0.3510742,0.4165039,-0.7670898,0.1401367,-0.05810547,0.2583008
852,-34.375,-98.0625,28.5625,-0.5683594,0.6499023,-0.628418,0.1459961,-0.06054688,0.2524414
856,-65.0625,-117,23,-0.5644531,0.6108398,-0.6669922,0.1547852,-0.06591797,0.25
860,-78.875,-126.8125,15.6875,-0.5410156,0.3935547,-0.8632813,0.1650391,-0.07177734,0.2416992
864,-71.4375,-128.5,4.0625,-0.4443359,0.1254883,-0.9594727,0.1689453,-0.07714844,0.2348633
868,-45.0625,-125.0625,7.125,-0.6030273,0.1367188,-0.8632813,0.1796875,-0.08300781,0.2270508
872,-37.8125,-134.25,3.5,-0.5913086,0.2963867,-0.7900391,0.1914063,-0.08837891,0.2158203
876,-38.5,-138.5,5.0625,-0.8276367,0.4672852,-0.7749023,0.1938477,-0.08935547,0.2080078
881,-55.5,-149.125,-7.625,-0.5527344,0.3935547,-0.8862305,0.2055664,-0.09326172,0.1982422
885,-50.125,-139.3125,-3.875,-0.7231445,0.3623047,-0.894043,0.2138672,-0.09716797,0.1860352
889,-48.4375,-141.125,-7.25,-0.6342773,0.3193359,-0.8710938,0.2211914,-0.09960938,0.1806641
893,-33.6875,-137.9375,-0.3125,-0.862793,0.3857422,-0.7016602,0.2294922,-0.1005859,0.168457
897,-32.9375,-150.25,1,-0.9711914,0.5292969,-0.5976563,0.2368164,-0.1044922,0.1547852
901,-38.75,-159.9375,0.25,-0.9907227,0.5800781,-0.6245117,0.2436523,-0.1044922,0.1464844
905,-60.5625,-165.4375,-14,-0.6342773,0.4985352,-0.9902344,0.25,-0.1054688,0.1313477
909,-55.625,-139.5625,-15.1875,-0.5991211,0.3193359,-1.020996,0.2583008,-0.1083984,0.1181641
913,-42.4375,-128.25,-4.75,-0.746582,0.3935547,-0.9018555,0.2617188,-0.1083984,0.1083984
917,-36.375,-124.25,0.0625,-0.9013672,0.5410156,-0.6977539,0.2666016,-0.1108398,0.09765625
921,-38.75,-127.5625,1.9375,-0.9907227,0.6538086,-0.5209961,0.2700195,-0.1108398,0.08544922
925,-50.4375,-131.875,4.75,-1.021484,0.7470703,-0.4594727,0.2709961,-0.1118164,0.07568359
929,-66.25,-132.875,6.25,-0.8857422,0.6884766,-0.6401367,0.2758789,-0.1142578,0.06347656
933,-76.3125,-122.5625,-1.0625,-0.7929688,0.4985352,-0.7670898,0.2783203,-0.1157227,0.04882813
937,-66.1875,-111.9375,1,-0.8237305,0.3623047,-0.7514648,0.2773438,-0.1166992,0.04052734
941,-53.5625,-104.25,2.1875,-0.9052734,0.4165039,-0.6401367,0.2783203,-0.1181641,0.02978516
945,-47.8125,-104.6875,-0.8125,-0.9946289,0.4907227,-0.5170898,0.2792969,-0.1181641,0.01855469
949,-42.5,-106.6875,-1.8125,-1.001953,0.5410156,-0.3666992,0.2807617,-0.1196289,0.01171875
953,-40.875,-110.375,0.5625,-1.009766,0.6147461,-0.2822266,0.2807617,-0.1196289,0.002441406
957,-46.75,-111,2.4375,-0.9438477,0.6655273,-0.2514648,0.2792969,-0.1181641,-0.009277344
961,-59.9375,-105.875,3.6875,-0.8666992,0.6733398,-0.2822266,0.2792969,-0.1196289,-0.01611328
965,-68.75,-99.6875,2.375,-0.9248047,0.5878906,-0.2514648,0.2792969,-0.1181641,-0.02587891
969,-67.5625,-101.125,1.4375,-0.9711914,0.5253906,-0.2089844,0.2783203,-0.1196289,-0.03662109
973,-61.5,-106.1875,0.875,-1.029297,0.5175781,-0.1401367,0.2758789,-0.1196289,-0.04199219
977,-55.4375,-111.1875,1.3125,-0.9868164,0.5566406,-0.07861328,0.2758789,-0.1166992,-0.05273438
981,-53.6875,-113.4375,1.6875,-0.9555664,0.5839844,-0.05517578,0.2724609,-0.1166992,-0.06640625
985,-58.25,-112.6875,0.8125,-0.9365234,0.6733398,-0.05908203,0.2709961,-0.1181641,-0.07324219
989,-70.625,-110.625,0.25,-0.8896484,0.6923828,-0.04736328,0.2675781,-0.1181641,-0.08300781
993,-78.3125,-105.1875,1.0625,-0.9169922,0.6616211,-0.04003906,0.2651367,-0.1142578,-0.09375
997,-79,-104.5625,-0.4375,-0.9248047,0.5566406,-0.04003906,0.2626953,-0.1118164,-0.09912109
1001,-71.3125,-105.3125,0.9375,-0.9633789,0.5410156,-0.04394531,0.2602539,-0.1118164,-0.1088867
1005,-65.25,-104.625,1.125,-0.8745117,0.5449219,-0.0859375,0.2568359,-0.1108398,-0.1210938
1010,-62.5625,-98.1875,0.5,-0.8666992,0.5527344,-0.1977539,0.253418,-0.109375,-0.125
1014,-59.4375,-89,-0.4375,-0.78125,0.5019531,-0.2783203,0.2485352,-0.1083984,-0.1303711
1018,-56,-74.4375,-1.5,-0.7543945,0.4829102,-0.3554688,0.2460938,-0.1054688,-0.1386719
1022,-51.375,-57.125,0.3125,-0.7543945,0.4985352,-0.3398438,0.2451172,-0.1030273,-0.1455078
1026,-48.3125,-43.6875,-0.125,-0.7426758,0.4907227,-0.3286133,0.2412109,-0.1020508,-0.1494141
1030,-40.5,-25.875,4,-0.7231445,0.4672852,-0.2744141,0.2392578,-0.1020508,-0.1523438
1034,-33.0625,-13.5625,7.4375,-0.7114258,0.4477539,-0.2475586,0.237793,-0.1005859,-0.1538086
1038,-25.125,20.625,11.125,-0.8666992,0.6342773,-0.1054688,0.2392578,-0.1005859,-0.1538086
1042,-33.0625,9.5,7.375,-0.8198242,0.4321289,0.05175781,0.2392578,-0.09960938,-0.1523438
1046,-20.75,13.6875,5.75,-0.7851563,0.4086914,0.08251953,0.237793,-0.09960938,-0.1538086
1050,-10.875,14.3125,6.0625,-0.831543,0.4399414,0.1479492,0.237793,-0.1005859,-0.1523438
1054,-7.4375,14.5625,5.75,-0.746582,0.4555664,0.1674805,0.2392578,-0.1005859,-0.1538086
1058,-4.1875,20.3125,9.625,-0.7734375,0.4672852,0.1748047,0.2412109,-0.09960938,-0.1508789
1062,-4.875,20,6.125,-0.8007813,0.4633789,0.1557617,0.2412109,-0.1005859,-0.1484375
1066,-3.3125,20.4375,-0.5625,-0.8198242,0.4399414,0.144043,0.2412109,-0.1005859,-0.1469727
1070,-0.5625,16.8125,-8.5625,-0.8588867,0.4204102,0.1020508,0.2412109,-0.1005859,-0.1469727
1074,9.625,16.6875,-12.1875,-0.8046875,0.3193359,0.02490234,0.2436523,-0.09814453,-0.1455078
1078,25.875,19.625,-11.0625,-0.8164063,0.3041992,-0.08203125,0.2451172,-0.09814453,-0.144043
1082,44.125,27.125,-10.625,-0.7504883,0.2885742,-0.1743164,0.2451172,-0.09814453,-0.144043
1086,51.375,38.5625,-16.125,-0.8276367,0.4711914,-0.2553711,0.2475586,-0.09960938,-0.1416016
1090,46.1875,48.6875,-22.875,-0.8237305,0.5371094,-0.2631836,0.2485352,-0.09960938,-0.1357422
1094,40.875,57.625,-29.875,-0.8549805,0.5019531,-0.2783203,0.2509766,-0.09960938,-0.1318359
1098,47.25,70.1875,-30.3125,-0.8198242,0.3583984,-0.309082,0.2543945,-0.09716797,-0.1279297
1102,69.0625,81.5,-27,-0.8666992,0.2338867,-0.3398438,0.2583008,-0.09716797,-0.1225586
1106,93.3125,93.1875,-29.6875,-0.9091797,0.3310547,-0.359375,0.2592773,-0.09570313,-0.1157227
1110,89.1875,99.6875,-45.6875,-0.9711914,0.6069336,-0.3325195,0.2651367,-0.09423828,-0.1044922
1114,71.875,113.3125,-46.1875,-0.8666992,0.6577148,-0.3476563,0.269043,-0.09326172,-0.09667969
1118,55.4375,132,-40.8125,-0.9208984,0.6147461,-0.3554688,0.2724609,-0.09179688,-0.08984375
1122,60.625,142.125,-26.6875,-0.9438477,0.4165039,-0.3476563,0.2749023,-0.08935547,-0.07861328
1126,70.4375,152.625,-22.1875,-1.029297,0.5761719,-0.3476563,0.2783203,-0.08837891,-0.06542969
1130,62.1875,155.0625,-27.6875,-1.048828,0.5800781,-0.3286133,0.2832031,-0.08691406,-0.05566406
1134,65.3125,154.375,-29.25,-1.161133,0.4594727,-0.2900391,0.2832031,-0.08447266,-0.04052734
1139,77.8125,150.25,-30.5625,-1.161133,0.3779297,-0.3129883,0.2856445,-0.08300781,-0.02587891
1143,97.5625,151.8125,-25.125,-1.041016,0.3779297,-0.3666992,0.2856445,-0.08056641,-0.01611328
1147,97.1875,165.3125,-9.3125,-0.9750977,0.6342773,-0.4707031,0.2866211,-0.078125,-0.002441406
1151,78.1875,177.125,-4.125,-1.149414,0.8168945,-0.4667969,0.2866211,-0.07714844,0.01464844
1155,48.875,169.0625,-15.4375,-1.23877,0.7973633,-0.4321289,0.2856445,-0.07568359,0.02539063
1159,42.25,180.75,3.0625,-0.878418,0.6147461,-0.4477539,0.2832031,-0.07421875,0.04199219
1163,32.25,172.1875,-2.5625,-1.106934,0.4907227,-0.5400391,0.2807617,-0.07324219,0.05957031
1167,54.3125,177.125,10.1875,-1.063965,0.3779297,-0.6015625,0.2792969,-0.07324219,0.0703125
1171,75.3125,173.875,22.625,-0.9633789,0.3041992,-0.6245117,0.2758789,-0.07324219,0.08935547
1175,96,180.5625,39.875,-0.8857422,0.3701172,-0.6708984,0.2675781,-0.07177734,0.1044922
1179,106.1875,188.9375,54.9375,-0.8354492,0.4516602,-0.6899414,0.2651367,-0.07177734,0.1152344
1183,104.125,189,64.5625,-1.013672,0.5878906,-0.6362305,0.2558594,-0.07177734,0.1313477
1187,90.625,178.6875,65.75,-0.9672852,0.6459961,-0.5478516,0.2451172,-0.07080078,0.1494141
1191,73.5,170.8125,71.6875,-0.8935547,0.6069336,-0.644043,0.2402344,-0.07177734,0.1586914
1195,50.3125,165.6875,58.6875,-0.8276367,0.5800781,-0.6669922,0.230957,-0.07324219,0.1738281
1199,37.875,157,51.4375,-0.730957,0.3427734,-0.824707,0.2202148,-0.07324219,0.1860352
1203,56.5625,159.9375,54.6875,-0.5834961,0.04003906,-0.8515625,0.2119141,-0.07421875,0.1967773
1207,89.6875,159.3125,69.5,-0.4985352,0.06298828,-0.9477539,0.2021484,-0.07324219,0.2050781
1211,121.6875,164.9375,87.6875,-0.4946289,0.1679688,-1.024902,0.1904297,-0.07080078,0.21875
1215,138.3125,162.3125,91.5625,-0.5410156,0.3271484,-0.9746094,0.1806641,-0.06835938,0.2255859
1219,107.25,136.5625,50.0625,-0.8510742,0.809082,-0.9633789,0.1689453,-0.06201172,0.2363281
1223,53.3125,113.625,0.5625,-0.5756836,0.5292969,-0.859375,0.1606445,-0.05712891,0.2446289
1227,31.9375,105.1875,-22.25,-0.4790039,0.2924805,-0.9555664,0.1523438,-0.05175781,0.2514648
1231,40.5625,104.3125,-20.1875,-0.3745117,0.09033203,-0.9902344,0.1425781,-0.04833984,0.2539063
1235,59.125,101.6875,-12.75,-0.2543945,0.03222656,-1.028809,0.1333008,-0.04296875,0.2636719
1239,78.9375,100,-0.125,-0.2504883,0.09814453,-1.15918,0.128418,-0.03955078,0.2651367
1243,91,107.0625,2.9375,-0.2504883,0.2338867,-1.043945,0.1186523,-0.03173828,0.269043
1247,81.25,97.9375,2.125,-0.296875,0.3662109,-0.9555664,0.1103516,-0.02197266,0.2744141
1251,57.75,92.25,-4.5625,-0.2773438,0.4086914,-0.9516602,0.1035156,-0.01708984,0.2783203
1255,37.375,91.875,-9.4375,-0.2192383,0.2495117,-0.8286133,0.09521484,-0.01318359,0.2797852
1259,33.875,78.5625,-2.5625,-0.3242188,0.1484375,-0.8862305,0.08691406,-0.009277344,0.2827148
1263,42.625,72.75,3.3125,-0.1767578,-0.02197266,-0.7783203,0.08056641,-0.006835938,0.2841797
1268,50.1875,55.25,0.4375,-0.1499023,0.02441406,-0.8515625,0.07470703,-0.0004882813,0.2851563
1272,44.375,46.3125,-9.0625,-0.2192383,0.121582,-0.9672852,0.06884766,0.002441406,0.2851563
1276,35.6875,46.75,-16.0625,0.02050781,-0.01416016,-0.840332,0.06640625,0.006347656,0.2880859
1280,34.4375,45.1875,-14.8125,-0.06445313,0.0009765625,-0.840332,0.06054688,0.01025391,0.2866211
1284,38.75,39.375,-8.1875,-0.06445313,0.02441406,-0.7592773,0.05712891,0.01269531,0.2880859
1288,33.5,32,-1.5625,-0.03710938,0.140625,-0.6899414,0.05322266,0.01513672,0.2919922
1292,20.5,16.9375,-3.25,-0.08398438,0.1367188,-0.7094727,0.05224609,0.02001953,0.2910156
1296,7.6875,12.875,-8.4375,-0.02587891,0.09033203,-0.644043,0.04980469,0.02148438,0.2895508
1300,-7.125,1.6875,-17.625,-0.02978516,0.08251953,-0.6245117,0.04980469,0.02246094,0.2895508
1304,-14.6875,-11.375,-22.375,-0.06054688,0.05908203,-0.7285156,0.04736328,0.02148438,0.2880859
1308,-13.8125,-17.3125,-19.875,0.1132813,-0.03759766,-0.7514648,0.05078125,0.02148438,0.2895508
1312,-8.125,-19.375,-9.375,0.07470703,0.04003906,-0.7363281,0.05078125,0.02001953,0.2895508
1316,-8.375,-24.0625,-2.5,0.03564453,0.1254883,-0.6821289,0.05224609,0.01855469,0.2895508
1320,-18.25,-36.8125,-5.1875,0.02832031,0.1835938,-0.7670898,0.05566406,0.01855469,0.2895508
1324,-26.3125,-39.0625,-7.375,0.08642578,0.1484375,-0.8208008,0.05712891,0.01611328,0.2895508
1328,-34.625,-37.8125,-8.375,0.1171875,0.1679688,-0.8364258,0.05957031,0.01513672,0.2895508
1332,-40.75,-37.1875,-5.25,0.03955078,0.1835938,-0.840332,0.06542969,0.01025391,0.2880859
1336,-45.9375,-39.875,-1,0.01269531,0.1835938,-0.7939453,0.06787109,0.006347656,0.2866211
1340,-51.9375,-51.8125,-5.1875,-0.03710938,0.1484375,-0.9555664,0.07226563,0.002441406,0.2866211
1344,-46.75,-47.1875,-3.5625,0.02832031,0.05126953,-0.9287109,0.07617188,-0.001953125,0.2851563
1348,-44.75,-50,0.625,-0.1264648,0.1679688,-0.7900391,0.07861328,-0.005859375,0.2851563
1352,-50.5,-64.625,2.5625,-0.2583008,0.2612305,-0.6630859,0.08300781,-0.01074219,0.2841797
1356,-63.875,-89.125,-2.3125,-0.4248047,0.3271484,-0.7822266,0.09277344,-0.015625,0.2827148
1360,-73.5,-101.4375,-15.1875,-0.1303711,0.05908203,-0.9360352,0.09619141,-0.02050781,0.2783203
1364,-58.9375,-95.9375,-13.9375,-0.2504883,0.004882813,-0.9555664,0.1069336,-0.02441406,0.2773438
1368,-43.75,-103.1875,-11.1875,-0.2504883,0.01660156,-0.8325195,0.1152344,-0.03076172,0.2714844
1372,-25.3125,-113.4375,2.25,-0.5795898,0.2070313,-0.6054688,0.1235352,-0.03320313,0.2675781
1376,-31.25,-147.4375,0.75,-0.6303711,0.3623047,-0.7207031,0.1342773,-0.03564453,0.2592773
1380,-44,-162.9375,-15.125,-0.4443359,0.2416992,-1.170898,0.1459961,-0.03955078,0.2539063
1384,-42.0625,-140.75,-29.0625,-0.03320313,-0.03369141,-1.317383,0.1567383,-0.04199219,0.2470703
1388,-16.6875,-114.5625,-10.8125,-0.3046875,0.1254883,-1.213379,0.1665039,-0.04443359,0.2402344
1392,-8.25,-109.9375,7.9375,-0.5913086,0.4125977,-0.9091797,0.1748047,-0.04589844,0.2324219
1397,-25.4375,-128.5,11.4375,-0.7348633,0.5488281,-0.9169922,0.1796875,-0.046875,0.2280273
1401,-38.375,-139.4375,6.3125,-0.7578125,0.4013672,-1.005371,0.1914063,-0.04931641,0.21875
1405,-46.6875,-149.375,-11.6875,-0.3510742,0.02832031,-1.286133,0.2021484,-0.05322266,0.2080078
1409,-12.625,-123.25,-8.375,-0.3666992,-0.1733398,-1.193848,0.2080078,-0.05322266,0.2011719
1413,16.4375,-118.375,1.8125,-0.5756836,0.01269531,-0.9516602,0.2163086,-0.0546875,0.1928711
1417,27.3125,-125.875,1,-0.847168,0.4013672,-0.644043,0.2236328,-0.05322266,0.1831055
1421,1.9375,-141.25,0.25,-0.9633789,0.809082,-0.4091797,0.2285156,-0.0546875,0.1777344
1425,-50.25,-158.9375,0.625,-0.9248047,0.9916992,-0.5361328,0.2368164,-0.05322266,0.1655273
1429,-101.25,-149.1875,-5.875,-0.4985352,0.6069336,-0.7441406,0.2460938,-0.05810547,0.1533203
1433,-103.4375,-131.125,0.5,-0.7543945,0.3427734,-0.7783203,0.2519531,-0.06054688,0.1450195
1437,-90.6875,-137.25,3.3125,-0.8354492,0.2109375,-0.6899414,0.2583008,-0.06689453,0.1313477
1441,-60.75,-146.4375,6.875,-1.052734,0.21875,-0.4902344,0.2626953,-0.07080078,0.1181641
1445,-44.5625,-177.3125,9.75,-1.261719,0.4672852,-0.5898438,0.2651367,-0.07177734,0.1069336
1449,-54,-179,-1.3125,-0.6767578,0.3896484,-0.6977539,0.2709961,-0.07568359,0.08935547
1453,-65,-161,3,-0.8085938,0.5371094,-0.8129883,0.2783203,-0.07714844,0.07324219
1457,-81.5,-144.9375,5.6875,-0.7192383,0.4360352,-0.7592773,0.2792969,-0.078125,0.06494141
1461,-80.375,-136.625,6.9375,-0.9829102,0.4013672,-0.6899414,0.2817383,-0.08056641,0.04980469
1465,-71.375,-140.3125,4.4375,-1.017578,0.3349609,-0.6323242,0.2832031,-0.08300781,0.03613281
1469,-58.3125,-145.6875,0.1875,-1.013672,0.3041992,-0.6787109,0.2841797,-0.08300781,0.02685547
1473,-41.375,-143.5,-0.375,-1.017578,0.2729492,-0.7016602,0.2841797,-0.08544922,0.01171875
1477,-22.875,-140.4375,4.4375,-0.9594727,0.2416992,-0.6591797,0.2856445,-0.08447266,0
1481,-9.375,-130.625,10.5,-1.021484,0.3857422,-0.5551758,0.2856445,-0.08691406,-0.009277344
1485,-19.4375,-123.5,7.5,-1.067871,0.5913086,-0.4248047,0.2866211,-0.08691406,-0.02050781
1489,-38.75,-116.625,8.125,-1.067871,0.6303711,-0.359375,0.2841797,-0.08691406,-0.03125
1493,-60.125,-106.0625,10.1875,-0.9477539,0.5019531,-0.3515625,0.2817383,-0.08691406,-0.03808594
1497,-66,-96.5,13.5625,-1.021484,0.3779297,-0.3974609,0.2832031,-0.08837891,-0.04882813
1501,-65.375,-90.875,7.8125,-0.9946289,0.2651367,-0.3632813,0.2783203,-0.08935547,-0.06103516
1505,-52.75,-90.9375,0.875,-1.033203,0.1835938,-0.2783203,0.2792969,-0.08837891,-0.06396484
1509,-39.25,-91.4375,-3.5,-1.063965,0.2807617,-0.1782227,0.2783203,-0.08691406,-0.07177734
1513,-33.6875,-93,-7.6875,-1.048828,0.3974609,-0.09765625,0.2758789,-0.08691406,-0.08154297
1517,-37.875,-92.3125,-8.9375,-1.009766,0.5605469,-0.03613281,0.2724609,-0.08544922,-0.08447266
1521,-51.4375,-89.3125,-4.4375,-0.9130859,0.6577148,0.09814453,0.2700195,-0.08203125,-0.09228516
1526,-70.5,-83.875,4.8125,-0.9985352,0.7470703,0.159668,0.269043,-0.08300781,-0.1020508
1530,-86.3125,-85.5625,11.6875,-0.9516602,0.6381836,0.144043,0.2651367,-0.08056641,-0.105957
1534,-91.625,-83.3125,15.1875,-0.9438477,0.5292969,0.09814453,0.2617188,-0.07958984,-0.1181641
1538,-92.875,-84.5625,11.5625,-0.9633789,0.4868164,0.105957,0.2602539,-0.07958984,-0.1225586
1542,-95.6875,-84.9375,7.0625,-0.8974609,0.6225586,0.1289063,0.2568359,-0.078125,-0.125
1546,-107.5,-81.75,13.125,-0.9052734,0.6733398,0.1635742,0.253418,-0.07568359,-0.1333008
1550,-113.75,-83,25.9375,-0.8745117,0.5839844,0.1635742,0.2509766,-0.07324219,-0.1416016
1554,-112.125,-81.1875,32.8125,-0.9013672,0.4633789,0.06738281,0.2460938,-0.07324219,-0.144043
1558,-103.375,-81.8125,32.75,-0.8706055,0.3505859,-0.02832031,0.2426758,-0.07080078,-0.1523438
1562,-92.4375,-76.8125,26.5625,-0.847168,0.2456055,-0.128418,0.2392578,-0.06933594,-0.1591797
1566,-74.625,-69.25,20.25,-0.847168,0.1953125,-0.1708984,0.2353516,-0.06835938,-0.1630859
1570,-58.8125,-61.125,15.125,-0.8237305,0.1835938,-0.1743164,0.2329102,-0.06689453,-0.1660156
1574,-41.75,-53.1875,18.875,-0.5488281,0.1445313,-0.2900391,0.2285156,-0.06835938,-0.1699219
1578,-36,-16.1875,25.25,-0.9985352,0.4829102,-0.2207031,0.2270508,-0.06835938,-0.1728516
1582,-51.5625,-15.5625,13.1875,-0.8276367,0.4282227,-0.07080078,0.2270508,-0.06689453,-0.1738281
1586,-56.125,0.375,2.6875,-0.7851563,0.3740234,-0.0859375,0.2260742,-0.06445313,-0.1767578
1590,-49.125,15.5,1.5,-0.847168,0.300293,-0.03613281,0.2260742,-0.06445313,-0.175293
1594,-37.4375,25.3125,-3.375,-0.8125,0.2109375,0.01367188,0.2285156,-0.06054688,-0.1738281
1598,-17.8125,33.625,-3.0625,-0.8745117,0.1835938,0.07128906,0.2285156,-0.05957031,-0.1713867
1602,3.125,33.125,-3,-0.8666992,0.171875,0.09423828,0.230957,-0.06054688,-0.1728516
1606,27.75,35.25,-1.1875,-0.8432617,0.171875,0.105957,0.2329102,-0.05957031,-0.1674805
1610,46.25,35.9375,-3.5625,-0.878418,0.2495117,0.08251953,0.2319336,-0.05957031,-0.1660156
1614,52.8125,34.9375,-14.0625,-0.8588867,0.3349609,0.05566406,0.234375,-0.06298828,-0.1630859
1618,51.8125,41.5,-15.625,-0.7734375,0.4052734,0.01367188,0.2353516,-0.06298828,-0.1616211
1622,40.5,54.9375,-15.75,-0.7426758,0.4672852,-0.06298828,0.2392578,-0.06298828,-0.15625
1626,28,73.3125,-15.9375,-0.7734375,0.4321289,-0.1323242,0.2412109,-0.06298828,-0.1547852
1630,28.875,87.25,-16.4375,-0.847168,0.2885742,-0.1743164,0.2436523,-0.06445313,-0.1484375
1634,45.25,93.9375,-17,-0.9594727,0.2495117,-0.2363281,0.2475586,-0.06298828,-0.1425781
1638,64.5,98.1875,-21.4375,-0.9477539,0.203125,-0.2553711,0.2509766,-0.06298828,-0.137207
1642,83.8125,100.6875,-27.9375,-0.9868164,0.2338867,-0.3398438,0.2543945,-0.06201172,-0.1318359
1646,87.6875,116.5,-37,-0.9672852,0.4321289,-0.3745117,0.2602539,-0.06201172,-0.1225586
1650,75.125,128.9375,-43.125,-0.9477539,0.5488281,-0.359375,0.2626953,-0.06054688,-0.1142578
1655,59,149.9375,-37.4375,-0.9248047,0.6420898,-0.324707,0.2700195,-0.06054688,-0.1020508
1659,41.3125,160.1875,-28.375,-0.9633789,0.5722656,-0.3325195,0.2709961,-0.05810547,-0.08984375
1663,46.4375,173.9375,-12.3125,-0.9829102,0.3544922,-0.34375,0.2758789,-0.05566406,-0.07861328
1667,62.4375,177.75,-7.125,-1.095215,0.315918,-0.394043,0.2807617,-0.0546875,-0.06640625
1671,79.6875,170.375,-20.9375,-1.32373,0.2651367,-0.3398438,0.2817383,-0.05566406,-0.04736328
1675,95.625,164.6875,-29.625,-1.145508,0.3310547,-0.3745117,0.2841797,-0.0546875,-0.03955078
1679,93.5625,184,-17.375,-1.056641,0.5800781,-0.3823242,0.2866211,-0.05078125,-0.02441406
1683,73.4375,202.8125,2.6875,-1.041016,0.7431641,-0.4707031,0.2856445,-0.04931641,-0.005371094
1687,39.3125,198.5625,-13.5625,-1.517578,0.7548828,-0.4707031,0.2880859,-0.04931641,0.006347656
1691,50.125,193.875,-3.5,-1.025391,0.1484375,-0.5668945,0.2866211,-0.046875,0.02392578
1695,67.8125,195.4375,-10.875,-1.533203,0.315918,-0.5976563,0.2841797,-0.046875,0.04199219
1699,92.625,185.875,-12.6875,-1.242188,0.3779297,-0.5517578,0.2807617,-0.04443359,0.05419922
1703,89.125,187.0625,-11.875,-1.114746,0.4829102,-0.6015625,0.2792969,-0.03955078,0.07177734
1707,85.9375,190.6875,-0.0625,-1.137695,0.5527344,-0.6860352,0.2734375,-0.03564453,0.08935547
1711,71.5625,190.125,-2.0625,-1.103027,0.5058594,-0.6860352,0.2675781,-0.03320313,0.1000977
1715,64.8125,188,4.125,-0.9326172,0.4360352,-0.9208984,0.2617188,-0.03173828,0.1181641
1719,60.8125,203.4375,2.6875,-0.8896484,0.2885742,-1.070801,0.2558594,-0.02832031,0.1357422
1723,67.4375,203.4375,-6.5,-0.8974609,0.1796875,-1.355469,0.2485352,-0.02685547,0.1464844
1727,89.75,225.0625,-14.0625,-0.7929688,0.1020508,-1.394043,0.2392578,-0.02050781,0.1640625
1731,116.0625,240.6875,4.25,-1.001953,0.2885742,-1.278809,0.2236328,-0.01318359,0.1821289
1735,121.625,243.4375,21.375,-1.125977,0.5913086,-1.036133,0.215332,-0.008300781,0.1928711
1739,91.25,231.875,24.0625,-1.319824,0.8012695,-0.8515625,0.1972656,-0.0004882813,0.2089844
1743,42.625,215.9375,13.5625,-0.9248047,0.5371094,-0.9326172,0.1821289,0.002441406,0.2241211
1747,39.6875,223.0625,20.75,-0.7734375,0.1914063,-1.051758,0.1713867,0.00390625,0.2348633
1751,49.875,228.75,40,-0.796875,0.121582,-0.7900391,0.1523438,0.006347656,0.2460938
1755,51.375,209.375,52.625,-0.9208984,0.2729492,-0.4594727,0.1357422,0.008789063,0.2583008
1759,26.875,166.4375,35.375,-1.091309,0.3120117,-0.2324219,0.1235352,0.01025391,0.262207
1763,7.25,117.125,10.625,-0.6923828,-0.02197266,-0.1821289,0.109375,0.01123047,0.2705078
1767,14.9375,88.5,7.375,-0.6069336,-0.09570313,-0.2592773,0.09960938,0.01269531,0.2729492
1771,16.6875,66.5,0.75,-0.2700195,-0.1230469,-0.3398438,0.09521484,0.01269531,0.2758789
1775,21.3125,58.375,3.375,-0.2080078,-0.07617188,-0.4169922,0.08886719,0.01611328,0.2797852
1779,20.75,46.625,5.375,-0.215332,0.06298828,-0.34375,0.08447266,0.01757813,0.2797852
1784,3.6875,27.25,3.625,-0.2080078,0.171875,-0.3168945,0.08300781,0.02001953,0.28125
1788,-16.125,15.125,3.5,-0.07226563,0.07861328,-0.3359375,0.07958984,0.01855469,0.28125
1792,-26.0625,4.8125,5.1875,-0.1381836,0.0009765625,-0.4013672,0.07714844,0.01757813,0.2841797
1796,-26,-8.75,2.4375,-0.1225586,-0.09960938,-0.4902344,0.07958984,0.01513672,0.2827148
1800,-22.1875,-18,-7.5625,-0.04492188,-0.1499023,-0.6787109,0.08056641,0.01269531,0.28125
1804,-8.6875,-20.5625,-7.5,-0.03710938,-0.1928711,-0.7207031,0.07958984,0.01269531,0.28125
1808,2.4375,-26.3125,-6.625,-0.06054688,-0.06445313,-0.7553711,0.08056641,0.01123047,0.2797852
1812,1.875,-29,-5.125,-0.1069336,0.06689453,-0.7246094,0.08447266,0.01123047,0.2797852
1816,-9.75,-34.9375,-5.3125,-0.08398438,0.1254883,-0.7631836,0.08789063,0.01025391,0.2783203
1820,-18.9375,-39.5,-5.4375,-0.1923828,0.1293945,-0.7822266,0.09033203,0.01269531,0.2773438
1824,-25.1875,-47,-7,-0.1728516,0.105957,-0.8208008,0.09375,0.007324219,0.2783203
1828,-26.125,-53.6875,-5.9375,-0.2426758,0.09423828,-0.8554688,0.09960938,0.004882813,0.2758789
1832,-25,-60.4375,-4.0625,-0.2661133,0.02441406,-0.8168945,0.1020508,0.004882813,0.2714844
1836,-19,-73.25,-3.6875,-0.3549805,0.02441406,-0.8208008,0.109375,0.001464844,0.2714844
1840,-10.375,-88.1875,-8.875,-0.3666992,-0.03369141,-0.8632813,0.1142578,-0.0004882813,0.2675781
1844,0.6875,-97.5625,-9.75,-0.4130859,-0.01025391,-0.8554688,0.1210938,-0.0004882813,0.2661133
1848,0.875,-108.3125,-17,-0.2929688,0.06298828,-0.9594727,0.1308594,0.001464844,0.262207
1852,0.75,-107.625,-15.1875,-0.3549805,0.1875,-1.074707,0.1376953,0.001464844,0.2553711
1856,-8.8125,-100.125,-14.5,-0.3007813,0.2265625,-0.9326172,0.144043,0.001464844,0.2514648
1860,-11.6875,-106.1875,-3.625,-0.5488281,0.300293,-0.7055664,0.1508789,0.001464844,0.2460938
1864,-19.625,-122.25,3.8125,-0.6767578,0.4204102,-0.4555664,0.1616211,-0.0004882813,0.2402344
1868,-56.4375,-147.25,0.5625,-0.5756836,0.6030273,-0.8554688,0.1689453,-0.001953125,0.2363281
1872,-75.0625,-131.125,-3.875,-0.4868164,0.2265625,-0.7978516,0.1821289,-0.008300781,0.2280273
1876,-75.3125,-137.375,1.5,-0.6342773,0.1796875,-0.7900391,0.1889648,-0.01318359,0.21875
1880,-59.875,-142.625,3.0625,-0.8125,0.1098633,-0.5244141,0.1972656,-0.01708984,0.2119141
1884,-44.875,-168.6875,7,-0.9868164,0.3388672,-0.3706055,0.2070313,-0.02050781,0.2021484
1888,-62.6875,-191.3125,7.375,-1.005859,0.6616211,-0.6362305,0.2177734,-0.02685547,0.1889648
1892,-104.25,-180.0625,-9,-0.4326172,0.4204102,-0.8554688,0.2270508,-0.02929688,0.1806641
1896,-99.0625,-163.5,4.5625,-0.8354492,0.3120117,-0.9091797,0.2368164,-0.03564453,0.1640625
1900,-88.5625,-163.9375,4.3125,-0.831543,0.2338867,-0.7055664,0.2475586,-0.04052734,0.1508789
1904,-66.375,-174.5625,8.6875,-1.141602,0.3120117,-0.4707031,0.2519531,-0.04589844,0.1411133
1908,-59.9375,-194.5625,13,-1.195801,0.5952148,-0.378418,0.2592773,-0.04833984,0.125
1913,-90.5,-205.6875,11.625,-1.033203,0.7817383,-0.6630859,0.2675781,-0.05175781,0.1083984
1917,-119.8125,-183.625,7.3125,-0.9052734,0.4907227,-0.6787109,0.2724609,-0.05712891,0.09619141
1921,-119.5,-181.375,7.4375,-1.168945,0.3896484,-0.6015625,0.2758789,-0.06054688,0.07568359
1925,-101.3125,-187.25,6.6875,-1.219238,0.3193359,-0.4477539,0.2807617,-0.06689453,0.05810547
1929,-77.125,-198.375,13,-1.343262,0.4711914,-0.3632813,0.2832031,-0.06835938,0.04589844
1933,-86.5625,-203.75,9.875,-1.191895,0.6030273,-0.4555664,0.2841797,-0.06933594,0.02539063
1937,-101.25,-193.9375,3.1875,-1.168945,0.5175781,-0.5209961,0.2880859,-0.07177734,0.006347656
1941,-106.9375,-186.8125,-7.625,-1.15332,0.3974609,-0.5400391,0.2880859,-0.07080078,-0.005371094
1945,-94.125,-184.1875,-14.1875,-1.211426,0.3271484,-0.5551758,0.2856445,-0.06933594,-0.02294922
1949,-71.875,-181.4375,-12.9375,-1.215332,0.3544922,-0.5014648,0.2841797,-0.06933594,-0.04052734
1953,-58.75,-176.5625,-7.8125,-1.269531,0.5253906,-0.4321289,0.2832031,-0.06835938,-0.05273438
1957,-61.4375,-168.875,-5.9375,-1.195801,0.5952148,-0.3632813,0.2792969,-0.06591797,-0.06787109
1961,-70.25,-157.6875,-3.9375,-1.161133,0.6381836,-0.3398438,0.2749023,-0.06591797,-0.08154297
1965,-82.875,-143.0625,-4.625,-1.075684,0.5913086,-0.4013672,0.2734375,-0.06298828,-0.09082031
1969,-88.25,-124.875,-5.0625,-1.063965,0.5175781,-0.3706055,0.2700195,-0.06054688,-0.1035156
1973,-84.75,-112.1875,-4.1875,-1.087402,0.4321289,-0.2861328,0.2641602,-0.05712891,-0.1113281
1977,-72.625,-104.25,-1.0625,-1.114746,0.4013672,-0.1782227,0.2592773,-0.05712891,-0.1181641
1981,-64.625,-98.75,-0.8125,-1.087402,0.4204102,-0.109375,0.2568359,-0.0546875,-0.1279297
1985,-57.6875,-92.1875,-0.3125,-1.052734,0.4243164,-0.08984375,0.253418,-0.05322266,-0.1347656
1989,-53.375,-85.25,0.5,-0.9477539,0.4165039,-0.1401367,0.25,-0.0546875,-0.1386719
1993,-51.4375,-71,-0.9375,-0.8393555,0.4204102,-0.2016602,0.2460938,-0.05078125,-0.1455078
1997,-54.375,-53.8125,-0.625,-0.7734375,0.4125977,-0.2553711,0.2451172,-0.04931641,-0.1508789
2001,-54.6875,-33.875,1.125,-0.7617188,0.3388672,-0.2475586,0.2426758,-0.04833984,-0.1523438
2005,-46.125,-21,1.9375,-0.8393555,0.3041992,-0.2475586,0.2402344,-0.04589844,-0.15625
2009,-38.875,-13.125,-9,-0.8085938,0.2885742,-0.1669922,0.2402344,-0.04589844,-0.1538086
2013,-28.625,-7.5,-12.375,-0.8164063,0.2807617,-0.05126953,0.2402344,-0.04199219,-0.15625
2017,-20,-0.6875,-11.125,-0.796875,0.315918,0.09423828,0.2402344,-0.04052734,-0.15625
2021,-12.75,4.625,-3.4375,-0.7773438,0.315918,0.159668,0.2402344,-0.04052734,-0.1577148
2025,-6.9375,13.1875,6.625,-0.7543945,0.3662109,0.1904297,0.2402344,-0.04052734,-0.15625
2029,-14.5,14.625,5.75,-0.8666992,0.4477539,0.2329102,0.2402344,-0.04052734,-0.15625
2033,-22.625,12.5625,0.625,-0.831543,0.3662109,0.2866211,0.2402344,-0.03955078,-0.1547852
2037,-25.25,13.0625,1.4375,-0.8046875,0.284668,0.3134766,0.2412109,-0.03710938,-0.1538086
2042,-19.375,13.625,4.4375,-0.8085938,0.2109375,0.3017578,0.2412109,-0.03808594,-0.1538086
2046,-8.3125,13.875,9.5,-0.7851563,0.1875,0.2597656,0.2436523,-0.03710938,-0.1494141
2050,4.6875,15.3125,13.6875,-0.8510742,0.2226563,0.2441406,0.2436523,-0.03808594,-0.1508789
2054,7.1875,7.375,6,-0.9130859,0.2963867,0.1982422,0.2426758,-0.04052734,-0.1508789
2058,9.125,7.875,0.4375,-0.8198242,0.2265625,0.1674805,0.2451172,-0.03955078,-0.1494141
2062,12.875,14,-0.0625,-0.847168,0.2885742,0.09814453,0.2436523,-0.03808594,-0.1494141
2066,13.75,18.0625,-2.75,-0.8432617,0.2768555,-0.02441406,0.2436523,-0.04199219,-0.1484375
2070,27.625,27.25,0.375,-0.8276367,0.1992188,-0.128418,0.2460938,-0.03955078,-0.1455078
2074,48.125,34.625,3.6875,-0.878418,0.2109375,-0.2475586,0.2485352,-0.03955078,-0.1455078
2078,60.25,49.8125,3.25,-0.8588867,0.3623047,-0.3398438,0.25,-0.04443359,-0.1425781
2082,54.25,68.625,0.875,-0.8706055,0.4790039,-0.359375,0.25,-0.04589844,-0.1357422
2086,41.125,90.875,-2.25,-0.9013672,0.5019531,-0.3325195,0.2509766,-0.04589844,-0.1347656
2090,37.4375,106.8125,0.1875,-0.9594727,0.4052734,-0.3208008,0.2568359,-0.04833984,-0.1235352
2094,43.375,117.0625,0.375,-0.9750977,0.3427734,-0.34375,0.2602539,-0.046875,-0.1196289
2098,62.0625,128.3125,6.0625,-0.9750977,0.21875,-0.3823242,0.2626953,-0.04931641,-0.1098633
2102,84.875,140.9375,13.25,-0.9399414,0.253418,-0.4399414,0.2675781,-0.05078125,-0.09912109
2106,91.4375,161.1875,14.1875,-1.044922,0.4907227,-0.4248047,0.2724609,-0.05322266,-0.08691406
2110,73.5,162.5,-1.8125,-1.219238,0.5878906,-0.3325195,0.2758789,-0.0546875,-0.07861328
2114,61.75,170.875,-5.875,-1.15332,0.6147461,-0.2670898,0.2783203,-0.05712891,-0.06103516
2118,46.75,174.125,-3.3125,-1.184082,0.6303711,-0.309082,0.2817383,-0.0546875,-0.04882813
2122,43.6875,186.25,8.5625,-1.017578,0.4829102,-0.4282227,0.2856445,-0.05712891,-0.03808594
2126,51,198.375,18.625,-1.095215,0.3857422,-0.5898438,0.2856445,-0.05712891,-0.01904297
2130,68.625,195.9375,8.8125,-1.308105,0.3388672,-0.5551758,0.2856445,-0.05810547,-0.001464844
2134,84.9375,191.0625,-0.5,-1.191895,0.2924805,-0.5244141,0.2866211,-0.05810547,0.01074219
2138,99.375,194.75,-2.5,-1.296875,0.4790039,-0.4746094,0.2841797,-0.05712891,0.02832031
2142,79.75,196.75,-5.625,-1.075684,0.7353516,-0.5209961,0.2841797,-0.05566406,0.04736328
2146,63.5,206.6875,9.75,-1.227051,0.6962891,-0.5322266,0.2792969,-0.05322266,0.06103516
2150,60.5625,208.9375,25.25,-0.9169922,0.4985352,-0.6171875,0.2773438,-0.0546875,0.08007813
2154,72.6875,218.625,38.5625,-1.180664,0.5136719,-0.6860352,0.2700195,-0.05322266,0.09912109
2158,79.5,214.5,39.25,-1.07959,0.4360352,-0.6591797,0.2641602,-0.0546875,0.1152344
2162,85,209.6875,34.4375,-1.176758,0.4711914,-0.7246094,0.2543945,-0.0546875,0.1313477
2166,84.625,203.25,24.5625,-1.005859,0.4633789,-0.7133789,0.2460938,-0.05322266,0.1508789
2171,79.4375,203.5,26,-0.8007813,0.4204102,-0.8017578,0.2392578,-0.05175781,0.1616211
2175,85.6875,214.75,50.25,-0.7851563,0.4052734,-0.9477539,0.2270508,-0.04931641,0.1777344
2179,95.875,230.125,75.4375,-0.6416016,0.3544922,-1.009277,0.2119141,-0.04589844,0.1943359
2183,102.75,231.6875,79.9375,-0.8432617,0.5019531,-1.424805,0.203125,-0.04443359,0.2080078
2187,94.9375,237.0625,49.4375,-0.8432617,0.4165039,-1.270996,0.1865234,-0.04199219,0.2226563
2191,98.875,235.5625,35.875,-0.847168,0.2768555,-1.132324,0.1689453,-0.03564453,0.2392578
2195,103,230.75,31.375,-1.009766,0.3974609,-0.9091797,0.1567383,-0.03320313,0.2460938
2199,93.625,205,21.3125,-1.091309,0.3818359,-0.7749023,0.1357422,-0.02441406,0.2592773
2203,92.8125,177.5625,19.0625,-0.78125,0.269043,-0.6552734,0.1186523,-0.015625,0.2675781
2207,92.625,165.8125,28.0625,-0.5991211,0.2299805,-0.5864258,0.1103516,-0.01074219,0.2705078
2211,90.1875,145.75,30.4375,-0.5834961,0.2456055,-0.4863281,0.09521484,-0.004394531,0.2783203
2215,74.875,116.5,16.375,-0.6376953,0.300293,-0.4169922,0.08300781,0.00390625,0.2827148
2219,59.6875,81.625,2.125,-0.5214844,0.1757813,-0.2631836,0.07470703,0.01025391,0.2827148
2223,55.0625,47.8125,-2.4375,-0.3901367,0.171875,-0.1743164,0.06787109,0.01513672,0.2841797
2227,38.25,23.9375,2.25,-0.2348633,0.2924805,-0.1669922,0.06542969,0.01855469,0.2841797
2231,10.4375,2.5,2.875,-0.1767578,0.2963867,-0.309082,0.06542969,0.02246094,0.2851563
2235,-7.3125,-11,-0.5625,-0.05273438,0.105957,-0.5439453,0.06396484,0.02392578,0.2841797
2239,-5.0625,-8.5,-5.8125,0.08642578,-0.1152344,-0.6479492,0.06298828,0.02148438,0.2841797
2243,10.5,-4.3125,-5,0.02050781,-0.06445313,-0.628418,0.06542969,0.02148438,0.2866211
2247,10.4375,-13.125,-2.5625,-0.08007813,0.15625,-0.574707,0.06396484,0.02392578,0.2851563
2251,-7.3125,-25.4375,-1.9375,-0.04882813,0.2338867,-0.6206055,0.06542969,0.02246094,0.2827148
2255,-24.375,-29.5,-1.3125,-0.02587891,0.1601563,-0.7592773,0.06884766,0.02246094,0.2851563
2259,-30.1875,-29.8125,0.4375,-0.04882813,0.01660156,-0.8208008,0.07128906,0.01855469,0.2851563
2263,-29.25,-31.0625,-2.75,-0.03320313,-0.006347656,-0.859375,0.07470703,0.01611328,0.2841797
2267,-29.375,-32.1875,-7.4375,-0.04101563,0.0009765625,-0.9360352,0.07617188,0.01513672,0.2827148
2271,-26.5625,-32.4375,-4.4375,-0.03320313,0.01269531,-0.9169922,0.08056641,0.01123047,0.28125
2275,-26.25,-33.1875,-1.25,-0.1186523,0.07080078,-0.8979492,0.08300781,0.008789063,0.28125
2279,-28.1875,-41.375,-1.1875,-0.2348633,0.09814453,-0.84375,0.08691406,0.007324219,0.2797852
2283,-30.75,-56.8125,-5.8125,-0.2734375,0.121582,-0.9399414,0.09033203,0.004882813,0.2783203
2287,-33,-61.3125,-13.6875,-0.08789063,0.07470703,-1.036133,0.09765625,0.001464844,0.2783203
2291,-26.6875,-52.5,-10.6875,-0.06835938,0.04003906,-1.009277,0.09863281,0.001464844,0.2744141
2295,-15.9375,-52.25,-4.3125,-0.2080078,0.105957,-0.84375,0.1035156,-0.001953125,0.2758789
2300,-9.625,-69,-1.875,-0.4790039,0.1953125,-0.7939453,0.109375,-0.001953125,0.2705078
2304,-6.75,-98.625,-17.5625,-0.3706055,0.08251953,-1.009277,0.1118164,-0.003417969,0.269043
2308,8.6875,-99,-33.875,-0.06835938,-0.08789063,-1.248047,0.1225586,-0.004394531,0.2636719
2312,26.375,-81.4375,-34.875,-0.1108398,-0.01416016,-1.197754,0.1293945,-0.0004882813,0.2592773
2316,41.5625,-81.8125,-23.375,-0.296875,0.105957,-0.9941406,0.1318359,0.001464844,0.2568359
2320,43.9375,-87.25,-7.4375,-0.378418,0.2495117,-0.7133789,0.1416016,0.006347656,0.2524414
2324,26.5,-107.9375,3,-0.7543945,0.4907227,-0.6630859,0.1484375,0.008789063,0.2460938
2328,-19.625,-134.875,-16.25,-0.4130859,0.4438477,-0.9902344,0.1567383,0.008789063,0.2446289
2332,-43.5,-115.0625,-23,-0.2192383,0.1445313,-1.128418,0.1665039,0.008789063,0.2348633
2336,-35.1875,-97.875,-14.5,-0.3242188,-0.1152344,-1.040039,0.1723633,0.004882813,0.2280273
2340,-6.25,-95.0625,1.4375,-0.5913086,-0.1538086,-0.7441406,0.1782227,0.006347656,0.2255859
2344,10.5625,-122.125,3.9375,-0.8706055,0.04736328,-0.824707,0.1855469,0.004882813,0.21875
2348,15.6875,-136.125,-4.875,-0.746582,-0.06445313,-0.6821289,0.1962891,0.006347656,0.2104492
2352,14.0625,-152.875,-11.6875,-0.7578125,0.15625,-0.8364258,0.2021484,0.006347656,0.2021484
2356,-1,-143.75,-13.9375,-0.6147461,0.1757813,-0.6977539,0.2128906,0.007324219,0.1943359
2360,-10.0625,-143.4375,0.375,-0.8432617,0.2573242,-0.5283203,0.2202148,0.008789063,0.1831055
2364,-18.875,-156.1875,12.9375,-1.005859,0.3388672,-0.3515625,0.2270508,0.006347656,0.1738281
2368,-38.4375,-176.8125,17.875,-1.063965,0.4438477,-0.4321289,0.2353516,0.00390625,0.1616211
2372,-67.625,-185.1875,14.3125,-0.8818359,0.3935547,-0.6669922,0.2460938,-0.0004882813,0.1464844
2376,-89.625,-170.5625,5.6875,-0.699707,0.2109375,-0.7246094,0.2519531,-0.005859375,0.1357422
2380,-82.125,-161.75,9,-0.9790039,0.07080078,-0.5825195,0.2592773,-0.009277344,0.1259766
2384,-61.0625,-174.75,18.125,-1.137695,0.105957,-0.3666992,0.2651367,-0.015625,0.1083984
2388,-48.0625,-193,24.1875,-1.28125,0.2807617,-0.2783203,0.2700195,-0.01708984,0.09912109
2392,-61.4375,-209.25,24.75,-1.063965,0.4477539,-0.4594727,0.2773438,-0.02050781,0.08007813
2396,-84.8125,-197.5,20.1875,-0.9365234,0.4399414,-0.6132813,0.2792969,-0.02587891,0.06103516
2400,-102.5625,-186.3125,14.375,-0.8857422,0.3232422,-0.6630859,0.2832031,-0.02832031,0.04736328
2404,-93.75,-173.0625,18.1875,-1.037109,0.21875,-0.5478516,0.2856445,-0.03173828,0.03369141
2408,-74.3125,-174.9375,20.1875,-1.230957,0.2651367,-0.3974609,0.2880859,-0.03320313,0.01708984
2412,-61.6875,-184.75,23.1875,-1.335449,0.4165039,-0.3666992,0.2890625,-0.03564453,0.00390625
2416,-67.875,-185.8125,28.5,-1.191895,0.5410156,-0.3974609,0.2890625,-0.03808594,-0.01220703
2420,-84.75,-176.375,31.5625,-1.195801,0.6069336,-0.4282227,0.2856445,-0.03955078,-0.02832031
2424,-102.3125,-167.0625,31.4375,-1.227051,0.5605469,-0.3901367,0.2832031,-0.04443359,-0.04052734
2429,-108.0625,-158.375,34.6875,-1.273438,0.4672852,-0.324707,0.2807617,-0.04589844,-0.05566406
2433,-104.8125,-151.375,36.5625,-1.335449,0.4633789,-0.2670898,0.2783203,-0.04589844,-0.06542969
2437,-102.875,-150.75,32.5625,-1.374023,0.4829102,-0.2207031,0.2773438,-0.04833984,-0.07763672
2441,-106.1875,-148.3125,27,-1.261719,0.5058594,-0.1782227,0.2724609,-0.04833984,-0.09082031
2445,-109.75,-142.25,26.75,-1.269531,0.4985352,-0.07861328,0.2675781,-0.04931641,-0.1044922
2449,-109.625,-141.1875,28.5625,-1.277344,0.4438477,0.01367188,0.2641602,-0.04833984,-0.1098633
2453,-104.3125,-138.75,29.0625,-1.289063,0.4360352,0.09423828,0.2592773,-0.04833984,-0.1235352
2457,-101.8125,-136.875,23.875,-1.273438,0.4672852,0.2290039,0.2519531,-0.04589844,-0.1347656
2461,-105.125,-138.875,19.5625,-1.23877,0.5019531,0.2905273,0.25,-0.046875,-0.1386719
2465,-99.4375,-138.3125,20.9375,-1.230957,0.4321289,0.3789063,0.2426758,-0.04589844,-0.1494141
2469,-97.8125,-144.875,17.3125,-1.149414,0.5136719,0.3364258,0.2368164,-0.04296875,-0.1606445
2473,-102.625,-144.9375,14.8125,-1.067871,0.5175781,0.2441406,0.2319336,-0.04199219,-0.1660156
2477,-107.9375,-139,16,-0.9477539,0.5175781,0.125,0.2246094,-0.03955078,-0.175293
2481,-111.75,-130,17.3125,-0.9399414,0.4360352,0.01708984,0.2177734,-0.03564453,-0.1875
2485,-106.6875,-122.8125,14.8125,-0.8432617,0.2885742,-0.09765625,0.2119141,-0.03320313,-0.1904297
2489,-75,-95.6875,41.1875,-0.3974609,-0.04541016,-0.1669922,0.2055664,-0.03076172,-0.1987305
2493,-70.625,-81.75,21.0625,-0.9516602,0.3857422,-0.4707031,0.199707,-0.02929688,-0.2026367
2497,-68.625,-66.75,2.5625,-0.6455078,0.2651367,-0.4667969,0.1962891,-0.02929688,-0.2041016
2501,-61.3125,-42.5,-11.375,-0.5449219,0.1601563,-0.4052734,0.1914063,-0.02685547,-0.2080078
2505,-41.9375,-20.25,-12.125,-0.6108398,0.105957,-0.3012695,0.1914063,-0.0234375,-0.2094727
2509,-22.25,-1.0625,-8.5,-0.5683594,0.1254883,-0.1206055,0.1889648,-0.02197266,-0.2094727
2513,-6.0625,13.25,-3.5,-0.5795898,0.1367188,0.01708984,0.1879883,-0.01953125,-0.2094727
2517,8.5,24.1875,4.9375,-0.6416016,0.2070313,0.1826172,0.1904297,-0.01806641,-0.2080078
2521,13.6875,25.6875,6.3125,-0.6923828,0.2573242,0.3017578,0.1914063,-0.01953125,-0.206543
2525,14.0625,33.3125,6.875,-0.6108398,0.2495117,0.4018555,0.1948242,-0.02050781,-0.2055664
2529,11.3125,42.25,8.75,-0.6494141,0.2495117,0.4790039,0.1938477,-0.02197266,-0.2055664
2533,9.4375,43.375,7.6875,-0.7578125,0.2573242,0.5058594,0.1972656,-0.02197266,-0.2026367
2537,10.3125,37.4375,5,-0.7890625,0.2109375,0.5058594,0.199707,-0.0234375,-0.1987305
2541,16.6875,29.9375,2.625,-0.7734375,0.2148438,0.4365234,0.203125,-0.02441406,-0.1972656
2545,21.3125,26.6875,-2.3125,-0.7851563,0.2416992,0.3291016,0.2021484,-0.02441406,-0.1972656
2549,28,26.5,-8.0625,-0.7231445,0.1757813,0.2172852,0.203125,-0.0234375,-0.1928711
2553,44.4375,34.9375,-7.5,-0.746582,0.1445313,0.1020508,0.2070313,-0.02587891,-0.1943359
2558,59.625,42.25,-8.75,-0.7578125,0.1757813,-0.01660156,0.2070313,-0.02685547,-0.1918945
2562,76.8125,53.625,-10.625,-0.8432617,0.2070313,-0.1015625,0.2119141,-0.02832031,-0.1918945
2566,90.8125,59.8125,-19.75,-0.9365234,0.2495117,-0.1938477,0.2119141,-0.03173828,-0.1865234
2570,102.125,74,-27.4375,-0.8666992,0.3081055,-0.2670898,0.2163086,-0.03466797,-0.1835938
2574,106.125,101.625,-27.5625,-0.8432617,0.3740234,-0.309082,0.2202148,-0.03564453,-0.1782227
2578,98.5,136.875,-24.125,-0.878418,0.5292969,-0.3129883,0.2260742,-0.03808594,-0.1699219
2582,73.9375,167.1875,-23.625,-1.009766,0.6923828,-0.2475586,0.2319336,-0.04052734,-0.1630859
2586,39.75,185.9375,-24.0625,-1.219238,0.7353516,-0.1591797,0.2426758,-0.03808594,-0.1508789
2590,18.125,191.125,-20,-1.25,0.5136719,-0.08984375,0.2460938,-0.03808594,-0.137207
2594,26.375,200.8125,-4.125,-1.199707,0.2612305,-0.08984375,0.2543945,-0.03710938,-0.1279297
2598,47.875,208.1875,6.625,-1.211426,0.2148438,-0.1552734,0.2602539,-0.03710938,-0.1113281
2602,73.375,215.375,15.0625,-1.327637,0.2612305,-0.1552734,0.2675781,-0.03710938,-0.09521484
2606,85.5,205.875,8.375,-1.459473,0.4013672,-0.1166992,0.2709961,-0.03955078,-0.08154297
2610,88.125,193.4375,-7.0625,-1.552246,0.5136719,-0.05517578,0.2783203,-0.04052734,-0.06396484
2614,83.6875,181.8125,-18.125,-1.385742,0.5410156,-0.03222656,0.2832031,-0.04052734,-0.04882813
2618,73.6875,182.5625,-16.9375,-1.289063,0.6499023,-0.1323242,0.2841797,-0.03955078,-0.03955078
2622,61.6875,195.25,-5.75,-1.071777,0.5644531,-0.2436523,0.2832031,-0.03955078,-0.02148438
2626,68.875,214.375,20.3125,-1.184082,0.5292969,-0.3862305,0.2856445,-0.03955078,-0.00390625
2630,74.5,211.9375,25.5,-1.296875,0.5527344,-0.4824219,0.2841797,-0.03808594,0.009277344
2634,71.875,208.5625,14.75,-1.684082,0.8012695,-0.5131836,0.2832031,-0.04052734,0.02978516
2638,64.625,183.1875,3.6875,-1.362793,0.5952148,-0.4091797,0.2807617,-0.04199219,0.04736328
2642,64.5,192.375,9.1875,-1.12207,0.5566406,-0.5400391,0.2783203,-0.04199219,0.05957031
2646,61.3125,202.1875,25.6875,-1.025391,0.5371094,-0.6362305,0.2749023,-0.04052734,0.07861328
2650,67.3125,218.3125,53.0625,-0.9790039,0.4985352,-0.7246094,0.2700195,-0.04199219,0.09912109
2654,66.6875,228.1875,66,-1.095215,0.5839844,-0.7475586,0.2641602,-0.04296875,0.1098633
2658,56.5,212.5,47.1875,-1.277344,0.5332031,-0.7324219,0.2558594,-0.04589844,0.1313477
2662,58.6875,204.3125,37.1875,-1.145508,0.3505859,-0.6821289,0.2436523,-0.046875,0.1479492
2666,61,194.1875,30.5625,-1.118652,0.3623047,-0.6669922,0.2392578,-0.046875,0.1616211
2670,56.125,186.625,22.5,-0.9130859,0.300293,-0.7822266,0.2270508,-0.04443359,0.1762695
2674,62.0625,195.125,28.625,-0.730957,0.2265625,-0.8710938,0.2177734,-0.04199219,0.1914063
2678,67.5,201.25,38.375,-0.699707,0.300293,-1.032227,0.2094727,-0.04199219,0.2021484
2682,77.125,208.1875,36,-0.730957,0.3310547,-1.117188,0.1928711,-0.03955078,0.2158203
2687,84.625,210.125,28.8125,-0.6416016,0.315918,-1.193848,0.1782227,-0.03466797,0.2280273
2691,96.3125,227.25,34.75,-0.6494141,0.3857422,-1.147949,0.1674805,-0.02929688,0.2402344
2695,93.5,235.5,49.375,-0.7075195,0.5566406,-0.894043,0.1508789,-0.02441406,0.2514648
2699,75.1875,224.125,64.875,-0.8745117,0.6303711,-0.6860352,0.1293945,-0.01708984,0.2636719
2703,51.9375,206.4375,74.8125,-0.730957,0.5332031,-0.5786133,0.1176758,-0.015625,0.269043
2707,35.4375,191.6875,78.9375,-0.6845703,0.284668,-0.5244141,0.09960938,-0.01464844,0.2773438
2711,36.0625,161.75,69.625,-0.7387695,0.008789063,-0.3554688,0.08056641,-0.01318359,0.2841797
2715,47.3125,117.75,49.6875,-0.5722656,-0.1420898,-0.2861328,0.07128906,-0.009277344,0.2851563
2719,54.5625,90.6875,37.375,-0.4672852,-0.1230469,-0.2246094,0.06298828,-0.006835938,0.2910156
2723,58.625,56.625,29.75,-0.4130859,-0.08789063,-0.109375,0.0546875,-0.0004882813,0.2910156
2727,48.9375,20.8125,21.625,-0.4052734,0.1137695,-0.2363281,0.05078125,0.001464844,0.2910156
2731,29.8125,-3.1875,4.9375,-0.08007813,0.08642578,-0.4628906,0.05078125,0.00390625,0.2910156
2735,19.4375,5,4.375,0.09033203,0.05908203,-0.5825195,0.05078125,0.007324219,0.2895508
2739,8.0625,3.0625,2,-0.02587891,0.07470703,-0.5708008,0.05224609,0.008789063,0.2895508
2743,2.125,-7.1875,-1.8125,0.0009765625,0.05126953,-0.6206055,0.05078125,0.008789063,0.2910156
2747,-3,-10.625,0.4375,0.0009765625,0.07470703,-0.6708984,0.05224609,0.01123047,0.2919922
2751,-6.625,-18.25,1.5,-0.05273438,0.02050781,-0.7094727,0.05224609,0.007324219,0.2910156
2755,-7.1875,-31.5,-7.625,-0.03320313,0.03222656,-0.9594727,0.0546875,0.008789063,0.2895508
2759,-3.5625,-20.125,-7.6875,0.1870117,0.004882813,-0.9785156,0.05712891,0.007324219,0.2895508
2763,-5.4375,-13,-4.75,0.03955078,0.08642578,-0.9052734,0.05810547,0.008789063,0.2895508
2767,-8.25,-20.5625,-3.1875,-0.09521484,0.1254883,-0.8286133,0.05957031,0.007324219,0.2866211
2771,-15.125,-31.3125,-6.8125,-0.09130859,0.1640625,-0.8554688,0.06152344,0.007324219,0.2895508
2775,-20.25,-35.875,-7.4375,-0.03710938,0.1445313,-0.8979492,0.06298828,0.006347656,0.2880859
2779,-27.375,-37.25,-8.1875,-0.01806641,0.171875,-0.9287109,0.06787109,0.001464844,0.2866211
2783,-33.4375,-36.1875,-7,-0.03320313,0.1445313,-0.9326172,0.07226563,0,0.2851563
2787,-34.6875,-38.75,-9.25,-0.07226563,0.09814453,-0.9360352,0.07226563,-0.0004882813,0.2841797
2791,-31.1875,-44.3125,-9.4375,-0.1381836,0.09423828,-0.9248047,0.07617188,-0.003417969,0.2827148
2795,-31.0625,-51.75,-12.0625,-0.09912109,0.140625,-0.9360352,0.08056641,-0.006835938,0.28125
2799,-31.875,-54.8125,-13.0625,-0.1420898,0.1484375,-0.9902344,0.08447266,-0.009277344,0.28125
2803,-36.625,-52.4375,-12.5,-0.06445313,0.1875,-0.9248047,0.08886719,-0.01318359,0.28125
2807,-44.75,-54.375,-10.625,-0.262207,0.2456055,-0.8515625,0.09521484,-0.01708984,0.2783203
2811,-55.8125,-65.75,-13.4375,-0.28125,0.2612305,-0.8364258,0.09863281,-0.01806641,0.2773438
2816,-62.375,-76.625,-21.875,-0.2504883,0.1757813,-1.036133,0.105957,-0.0234375,0.2729492
2820,-60.125,-70.3125,-23.8125,-0.1069336,0.07861328,-1.078613,0.1118164,-0.02832031,0.2714844
2824,-48.5625,-62.125,-18.6875,-0.2270508,0.06298828,-0.9399414,0.1152344,-0.03076172,0.269043
2828,-41.3125,-70.625,-14.0625,-0.4633789,0.2265625,-0.7749023,0.1235352,-0.03564453,0.2661133
2832,-53.9375,-91.125,-22.5625,-0.5488281,0.4321289,-0.8168945,0.128418,-0.03808594,0.2636719
2836,-72.5,-99.75,-29.375,-0.4404297,0.4052734,-0.859375,0.1333008,-0.04296875,0.2592773
2840,-82.0625,-103.0625,-39.25,-0.3164063,0.269043,-0.9863281,0.144043,-0.046875,0.2553711
2844,-68.75,-95.5,-32.25,-0.3510742,0.1484375,-0.840332,0.1499023,-0.05322266,0.2485352
2848,-56.5625,-102.125,-29.625,-0.5371094,0.3081055,-0.7631836,0.1567383,-0.0546875,0.2446289
2852,-57.9375,-110.8125,-29.5,-0.6455078,0.4125977,-0.5400391,0.1650391,-0.05957031,0.237793
2856,-70.9375,-134,-39.5625,-0.7734375,0.5683594,-0.6899414,0.1757813,-0.06298828,0.2294922
2860,-78.9375,-138.875,-45.375,-0.6225586,0.3974609,-0.6206055,0.1821289,-0.06298828,0.2241211
2864,-81.9375,-150.9375,-52.3125,-0.6611328,0.3662109,-0.8129883,0.1938477,-0.06689453,0.2119141
2868,-66.5625,-146.1875,-44.625,-0.6147461,0.269043,-0.6591797,0.2045898,-0.06933594,0.2036133
2872,-59.25,-147.375,-31.75,-0.862793,0.4516602,-0.4936523,0.2119141,-0.07080078,0.1943359
2876,-64.875,-164,-31.8125,-1.037109,0.5800781,-0.4321289,0.2211914,-0.07324219,0.1821289
2880,-80.375,-185.0625,-46.6875,-0.9555664,0.6030273,-0.6552734,0.2294922,-0.07324219,0.1708984
2884,-86.375,-184.4375,-58.0625,-0.6611328,0.4399414,-0.8056641,0.237793,-0.07421875,0.1586914
2888,-75.5625,-169.8125,-48.0625,-0.7192383,0.4052734,-0.8208008,0.2485352,-0.07421875,0.1411133
2892,-61.0625,-156.75,-31.0625,-0.8237305,0.4516602,-0.6362305,0.253418,-0.07421875,0.1289063
2896,-57.3125,-157.9375,-23.4375,-1.125977,0.6499023,-0.4321289,0.2602539,-0.07421875,0.1191406
2900,-69,-172.4375,-22.8125,-1.273438,0.793457,-0.34375,0.2675781,-0.07568359,0.1015625
2904,-92.3125,-188.4375,-30.1875,-1.063965,0.7509766,-0.5517578,0.2700195,-0.07568359,0.08544922
2908,-99.125,-176.8125,-29.5,-0.8588867,0.5913086,-0.7553711,0.2734375,-0.07324219,0.07177734
2912,-92.9375,-157.9375,-25.625,-0.8745117,0.4672852,-0.7402344,0.2783203,-0.07714844,0.05664063
2916,-77.5625,-150.0625,-23,-1.048828,0.4829102,-0.6171875,0.2807617,-0.07568359,0.04199219
2920,-63.5,-151.8125,-21,-1.161133,0.6030273,-0.4477539,0.2841797,-0.07324219,0.03222656
2924,-63.9375,-155,-15.875,-1.184082,0.8168945,-0.3325195,0.2841797,-0.07177734,0.01611328
2928,-83.6875,-154.1875,-9.0625,-1.176758,0.9453125,-0.2475586,0.2832031,-0.07080078,0.002441406
2932,-111.625,-150.5,-6,-1.07959,0.8828125,-0.3554688,0.2832031,-0.07080078,-0.008300781
2936,-123.25,-135.5625,-3.1875,-0.9946289,0.5761719,-0.3862305,0.2841797,-0.06933594,-0.02294922
2940,-109.1875,-132.25,-2.625,-1.180664,0.3544922,-0.3666992,0.2832031,-0.06933594,-0.03515625
2945,-81.5625,-135.875,-6.8125,-1.184082,0.2807617,-0.2822266,0.2832031,-0.07177734,-0.04199219
2949,-58.1875,-138.5625,-11.6875,-1.211426,0.3740234,-0.2089844,0.2783203,-0.06835938,-0.05566406
2953,-48.625,-141.5,-14,-1.165039,0.4633789,-0.1513672,0.2758789,-0.06591797,-0.06787109
2957,-41.75,-140.6875,-9.3125,-1.165039,0.4555664,-0.05517578,0.2749023,-0.06591797,-0.07763672
2961,-41.5,-141.0625,-6.8125,-1.137695,0.5175781,-0.02441406,0.2709961,-0.06591797,-0.08837891
2965,-47.3125,-139,-8.75,-1.125977,0.4672852,0.04052734,0.2666016,-0.06201172,-0.1020508
2969,-49.5625,-140.3125,-13.625,-1.099121,0.4052734,0.04785156,0.2641602,-0.06298828,-0.1088867
2973,-49.6875,-134.8125,-17.5,-1.060547,0.3740234,0.06347656,0.2602539,-0.05957031,-0.1225586
2977,-47.375,-133.6875,-26.0625,-0.9985352,0.2963867,-0.02441406,0.2558594,-0.05712891,-0.1333008
2981,-36.375,-122.75,-29.5625,-0.8745117,0.300293,-0.08203125,0.2509766,-0.05566406,-0.1386719
2985,-28.25,-110,-31.5625,-0.7890625,0.3623047,-0.1591797,0.2475586,-0.05322266,-0.1469727
2989,-24.875,-98.625,-27.125,-0.8085938,0.4438477,-0.1552734,0.2402344,-0.04931641,-0.1547852
2993,-22.1875,-86.1875,-24,-0.7617188,0.4438477,-0.1708984,0.2392578,-0.04589844,-0.1616211
2997,-22.8125,-67.4375,-18.25,-0.6533203,0.4360352,-0.1708984,0.234375,-0.04443359,-0.1660156
3001,-24.75,-47.5625,-14.3125,-0.6962891,0.4633789,-0.1474609,0.230957,-0.04296875,-0.1699219
3005,-24.5,-31.3125,-9.5,-0.6533203,0.4052734,-0.08984375,0.230957,-0.04199219,-0.1713867
3009,-5.3125,3.8125,22.3125,-0.4169922,0.4086914,0.07519531,0.230957,-0.04052734,-0.1738281
3013,-19.875,4.9375,8.5,-0.8666992,0.4946289,-0.02050781,0.2270508,-0.04199219,-0.175293
3017,-18.8125,9.1875,-1.3125,-0.8085938,0.2963867,0.02880859,0.2285156,-0.04052734,-0.1728516
3021,-5.1875,15.375,-0.3125,-0.7851563,0.1953125,0.1098633,0.2294922,-0.04199219,-0.1713867
3025,7.75,16.625,-0.75,-0.7695313,0.2109375,0.1289063,0.230957,-0.04199219,-0.1713867
3029,19.25,22.8125,-0.125,-0.7890625,0.2612305,0.140625,0.230957,-0.04199219,-0.1699219
3033,22.75,32.6875,0.0625,-0.7270508,0.3544922,0.1518555,0.2319336,-0.04199219,-0.168457
3037,20.125,42.875,0.875,-0.796875,0.3818359,0.1518555,0.2329102,-0.04296875,-0.1660156
3041,16.1875,47.375,-3.9375,-0.8857422,0.3935547,0.1289063,0.2368164,-0.04296875,-0.1630859
3045,16,52.5,-11.8125,-0.9169922,0.3041992,0.1020508,0.2392578,-0.04296875,-0.1616211
3049,27.375,56.0625,-14.5625,-0.9438477,0.2299805,0.04443359,0.2392578,-0.04443359,-0.1538086
3053,47.625,61.75,-12.5625,-0.9287109,0.2299805,-0.01318359,0.2426758,-0.04296875,-0.1538086
3057,58.4375,73.8125,-12.1875,-0.8935547,0.4013672,-0.112793,0.2451172,-0.04199219,-0.1494141
3061,56.625,89.625,-8.5,-0.9516602,0.5253906,-0.1323242,0.25,-0.04296875,-0.1425781
3065,45.1875,102.9375,-10.875,-1.017578,0.5913086,-0.128418,0.2519531,-0.04443359,-0.1357422
3069,38.5625,113.3125,-14.5,-1.041016,0.4750977,-0.109375,0.2558594,-0.04443359,-0.1279297
3074,48.9375,122.0625,-9.3125,-1.044922,0.3935547,-0.112793,0.2592773,-0.04589844,-0.1196289
3078,58.5625,128.5625,-6.5,-1.048828,0.4243164,-0.128418,0.2626953,-0.04443359,-0.1142578
3082,64.8125,136.875,-7.4375,-1.07959,0.4516602,-0.1166992,0.2666016,-0.04589844,-0.1005859
3086,67.4375,139.3125,-6.1875,-1.106934,0.4829102,-0.0859375,0.2734375,-0.046875,-0.09082031
3090,64.75,146,-4.3125,-1.063965,0.5410156,-0.09375,0.2749023,-0.04833984,-0.07861328
3094,58.5625,152.4375,-0.8125,-1.067871,0.5175781,-0.05908203,0.2783203,-0.04931641,-0.06640625
3098,51.875,155.3125,7.4375,-1.067871,0.5410156,-0.109375,0.2807617,-0.04931641,-0.05273438
3102,44.5,154.4375,8.75,-1.145508,0.4829102,-0.109375,0.2832031,-0.04931641,-0.04345703
3106,43.375,151.5625,6.375,-1.067871,0.3623047,-0.1591797,0.2856445,-0.05078125,-0.03125
3110,51.375,155.6875,7.375,-1.017578,0.2963867,-0.2285156,0.2856445,-0.05078125,-0.01611328
3114,59.75,159.5625,13.0625,-0.8818359,0.315918,-0.3823242,0.2856445,-0.05175781,-0.00390625
3118,69.75,180.4375,32.5625,-0.7695313,0.3583984,-0.5551758,0.2856445,-0.05322266,0.009277344
3122,80.4375,203.5,59.6875,-0.8432617,0.4125977,-0.6787109,0.2841797,-0.05566406,0.02832031
3126,77.3125,199.0625,46.5,-1.351074,0.6923828,-0.6899414,0.2832031,-0.05810547,0.0390625
3130,67.5625,178.375,23.625,-0.9555664,0.3818359,-0.7822266,0.2792969,-0.06054688,0.05664063
3134,61.625,196.0625,23.25,-1.12207,0.6303711,-0.8745117,0.2749023,-0.06201172,0.07568359
3138,68.5625,214.5625,48.1875,-0.7890625,0.5136719,-0.8901367,0.2724609,-0.05957031,0.08691406
3142,91.3125,243.5625,93.4375,-0.8510742,0.4829102,-1.013184,0.2651367,-0.06298828,0.1098633
3146,107.3125,246.4375,96.375,-1.552246,0.8481445,-0.84375,0.2558594,-0.06933594,0.1313477
3150,91,198.75,54.5625,-1.424316,0.7705078,-0.7363281,0.2475586,-0.06933594,0.1450195
3154,88.1875,200.1875,53.625,-1.168945,0.8012695,-0.6708984,0.2368164,-0.06933594,0.1601563
3158,57.875,192,54.75,-1.041016,0.8442383,-0.7592773,0.2260742,-0.06689453,0.1791992
3162,43.25,195.375,67.9375,-1.044922,0.6420898,-0.7441406,0.2163086,-0.06835938,0.1889648
3166,48.125,186.3125,86.6875,-1.052734,0.3974609,-0.7441406,0.203125,-0.07177734,0.2036133
3170,67.5,173.25,95,-0.9248047,0.269043,-0.7709961,0.1914063,-0.07177734,0.2158203
3174,86.0625,167.25,93.8125,-0.847168,0.2729492,-0.7441406,0.1806641,-0.07177734,0.2255859
3178,88.3125,158.4375,81,-0.7387695,0.3583984,-0.7094727,0.1674805,-0.07080078,0.237793
3182,82.1875,156.25,69.875,-0.5449219,0.3120117,-0.6748047,0.1557617,-0.06933594,0.2470703
3186,81.625,157.375,72.5,-0.6147461,0.315918,-0.6132813,0.1459961,-0.06445313,0.2539063
3190,76.375,148.75,60.9375,-0.4052734,0.2299805,-0.6708984,0.1333008,-0.06054688,0.262207
3194,87.875,153.0625,67.875,-0.2700195,0.1640625,-0.7670898,0.1186523,-0.0546875,0.2705078
3198,97.4375,162.4375,79.375,-0.03320313,0.1679688,-0.8901367,0.1079102,-0.05175781,0.2744141
3203,106.1875,184.375,103.6875,-0.002441406,0.3081055,-0.9516602,0.09375,-0.04296875,0.2797852
3207,94.1875,195.3125,110.25,-0.1884766,0.4013672,-0.9633789,0.07617188,-0.03710938,0.2866211
3211,92.0625,189.6875,102.875,-0.1342773,0.1875,-1.020996,0.06396484,-0.03320313,0.2919922
3215,108.4375,198.25,109.375,-0.002441406,0.05126953,-0.9287109,0.04492188,-0.02587891,0.2949219
3219,115.9375,204.25,110.8125,-0.002441406,0.1445313,-0.9287109,0.02734375,-0.015625,0.2973633
3223,114.5625,205.0625,98.4375,0.06689453,0.140625,-0.859375,0.01171875,-0.008300781,0.300293
3227,106.5625,211.625,78.1875,0.1445313,0.1333008,-0.8056641,-0.0078125,0.00390625,0.2988281
3231,103.8125,198.1875,92.1875,-0.2929688,0.1523438,-0.6552734,-0.02490234,0.01367188,0.2963867
3235,98.4375,144.875,99.75,-0.347168,0.3232422,-0.4785156,-0.03662109,0.02392578,0.2949219
3239,63.6875,97.125,80.8125,-0.2700195,0.3974609,-0.3632813,-0.04833984,0.03369141,0.2919922
3243,22.1875,56.1875,50,-0.1225586,0.2416992,-0.309082,-0.05419922,0.03857422,0.293457
3247,-8.1875,24.1875,19.0625,-0.1572266,0.07861328,-0.3666992,-0.05419922,0.04003906,0.2910156
3251,-16.8125,-18.4375,-11.6875,-0.002441406,-0.2202148,-0.5131836,-0.05810547,0.04003906,0.2910156
3255,-1.3125,-44.625,-26.125,0.1289063,-0.2587891,-0.6362305,-0.05566406,0.03613281,0.2910156
3259,10.0625,-57.5625,-22.375,0.3071289,-0.09179688,-0.6591797,-0.05224609,0.03759766,0.2919922
3263,7.5,-59.0625,-16.625,0.4428711,0.08642578,-0.6748047,-0.04736328,0.03759766,0.293457
3267,-10.125,-51.4375,-11.1875,0.4077148,0.237793,-0.7441406,-0.04150391,0.03759766,0.293457
3271,-32.25,-46,-10.8125,0.4428711,0.1640625,-0.7939453,-0.0390625,0.03515625,0.293457
3275,-47.9375,-46.1875,-17,0.2373047,0.121582,-0.8745117,-0.03515625,0.03271484,0.293457
3279,-48.125,-49.8125,-20.8125,0.2758789,-0.06835938,-0.7939453,-0.02832031,0.02734375,0.2949219
3283,-40.75,-57.625,-21.9375,0.2255859,-0.02978516,-0.8364258,-0.02685547,0.02246094,0.2949219
3287,-39.4375,-62.6875,-19.4375,0.2255859,0.07080078,-0.8476563,-0.02246094,0.02001953,0.2963867
3291,-45.375,-63.9375,-16.6875,0.206543,0.15625,-0.8286133,-0.01513672,0.01611328,0.2963867
3295,-57.5625,-76.875,-28.125,0.1557617,0.09423828,-0.9707031,-0.01269531,0.01269531,0.2988281
3299,-53.875,-74.625,-29.5,0.2451172,-0.05273438,-0.9018555,-0.001953125,0.006347656,0.300293
3303,-44.6875,-73.8125,-21.6875,0.159668,0.08251953,-0.8168945,0.0009765625,-0.0004882813,0.2988281
3307,-51.8125,-77.8125,-20.4375,0.05908203,0.253418,-0.7207031,0.009277344,-0.003417969,0.2973633
3311,-67.875,-100.25,-29.375,-0.1689453,0.300293,-0.878418,0.01513672,-0.008300781,0.2949219
3315,-72.6875,-114.3125,-39.9375,0.004882813,0.06689453,-0.8745117,0.02587891,-0.01464844,0.2973633
3319,-66.8125,-118.6875,-42.625,-0.05664063,0.06298828,-0.9091797,0.03564453,-0.02050781,0.2973633
3323,-55.875,-122.0625,-39.125,-0.06835938,0.08642578,-0.7592773,0.04492188,-0.02587891,0.293457
3327,-59.0625,-136.5625,-35.875,-0.3432617,0.3310547,-0.8901367,0.05810547,-0.03076172,0.2919922
3332,-72.9375,-144.25,-49.875,-0.09521484,0.2651367,-0.8515625,0.06787109,-0.03564453,0.2895508
3336,-83.75,-148.1875,-56.8125,-0.262207,0.2768555,-1.101563,0.08056641,-0.04052734,0.2851563
3340,-76.4375,-142.25,-57.25,-0.1186523,0.09033203,-0.9941406,0.09521484,-0.04833984,0.2773438
3344,-67.9375,-136.0625,-39.9375,-0.4013672,0.3120117,-0.84375,0.1044922,-0.05322266,0.2744141
3348,-72.25,-143.5625,-25.3125,-0.6069336,0.3583984,-0.6054688,0.1176758,-0.05810547,0.269043
3352,-81.625,-174.9375,-29.5,-1.005859,0.3662109,-0.8286133,0.1308594,-0.06298828,0.2607422
3356,-81.75,-201.4375,-64.875,-0.6030273,0.07861328,-1.005371,0.1401367,-0.06689453,0.2568359
3360,-70.125,-189.1875,-78.5,-0.5214844,0.1914063,-1.097656,0.1567383,-0.07080078,0.2416992
3364,-60.5,-181.25,-68.5625,-0.6376953,0.3349609,-0.8710938,0.1738281,-0.07324219,0.2280273
3368,-61.1875,-180.125,-51.8125,-0.765625,0.6147461,-0.6479492,0.1831055,-0.07421875,0.2226563
3372,-80.75,-191.625,-41.25,-1.013672,0.8984375,-0.574707,0.1962891,-0.07324219,0.2089844
3376,-120.4375,-199.1875,-47.3125,-0.7890625,0.8598633,-0.7094727,0.2080078,-0.07958984,0.1928711
3380,-140.125,-195.25,-52.75,-0.7578125,0.6499023,-0.9399414,0.21875,-0.08203125,0.1831055
3384,-128.25,-186,-51.5625,-0.6342773,0.3232422,-0.9248047,0.2319336,-0.08691406,0.1669922
3388,-95.125,-182.4375,-40.625,-0.8706055,0.3310547,-0.809082,0.2402344,-0.09082031,0.1494141
3392,-69.3125,-192.75,-36.875,-0.9946289,0.5136719,-0.6206055,0.2460938,-0.09179688,0.1381836
3396,-65.4375,-204.6875,-36.625,-1.137695,0.8051758,-0.4667969,0.2543945,-0.09179688,0.1191406
3400,-81.75,-213.875,-27.625,-1.041016,1.01123,-0.5131836,0.2651367,-0.09179688,0.1000977
3404,-113.5625,-208.125,-29.9375,-0.8818359,0.972168,-0.7285156,0.2675781,-0.09082031,0.08544922
3408,-121.9375,-192.5,-30.5625,-0.8896484,0.6733398,-0.7749023,0.2734375,-0.09326172,0.06640625
3412,-101.5,-186.8125,-19.3125,-1.017578,0.5410156,-0.7324219,0.2758789,-0.09179688,0.04589844
3416,-76.625,-185.6875,-12.75,-1.118652,0.5878906,-0.6479492,0.2792969,-0.09179688,0.03515625
3420,-61.0625,-187.3125,-9.5,-1.172852,0.6694336,-0.5361328,0.2817383,-0.09326172,0.01708984
3424,-56.5,-192.6875,-7.1875,-1.234863,0.7314453,-0.4594727,0.2792969,-0.08935547,-0.002441406
3428,-58.0625,-191.75,-0.5625,-1.071777,0.7197266,-0.4746094,0.2807617,-0.09179688,-0.01220703
3432,-73.5,-171,4.25,-0.9633789,0.7817383,-0.4936523,0.2792969,-0.09082031,-0.02978516
3436,-89.9375,-156.375,7.8125,-1.029297,0.6884766,-0.4746094,0.2792969,-0.09082031,-0.04638672
3440,-95.375,-147.6875,7.875,-1.013672,0.5292969,-0.4477539,0.2758789,-0.09179688,-0.05712891
3444,-91.25,-137.0625,8.5625,-1.11084,0.4633789,-0.34375,0.2734375,-0.08837891,-0.07080078
3448,-86,-138.3125,5,-1.219238,0.4516602,-0.2553711,0.269043,-0.09082031,-0.08300781
3452,-76.1875,-137.375,2.8125,-1.168945,0.4204102,-0.1782227,0.2666016,-0.08837891,-0.09082031
3456,-67.6875,-132.3125,1.5625,-1.133789,0.4790039,-0.1591797,0.2617188,-0.08837891,-0.1035156
3461,-68.1875,-123.8125,0.125,-1.048828,0.5175781,-0.128418,0.2568359,-0.08544922,-0.1142578
3465,-73.25,-111.1875,-0.0625,-1.037109,0.5913086,-0.04736328,0.253418,-0.08544922,-0.1210938
3469,-86.375,-103.6875,-1.625,-1.041016,0.6030273,-0.02832031,0.25,-0.08300781,-0.1318359
3473,-93.875,-90.3125,-2.1875,-0.9169922,0.4907227,-0.01660156,0.2426758,-0.07958984,-0.1401367
3477,-92,-81.625,-4.5,-0.9399414,0.3974609,-0.05126953,0.2436523,-0.078125,-0.1425781
3481,-82.3125,-76.75,-13.125,-0.8857422,0.2885742,-0.112793,0.237793,-0.07568359,-0.1469727
3485,-60.3125,-70.5625,-18.6875,-0.8432617,0.2109375,-0.1552734,0.2353516,-0.07177734,-0.1547852
3489,-32.25,-61.3125,-19.4375,-0.7348633,0.1835938,-0.1782227,0.2329102,-0.06933594,-0.1606445
3493,-3.0625,-49.375,-7.375,-0.4555664,-0.006347656,-0.2705078,0.2294922,-0.06933594,-0.1630859
3497,5.8125,-27.6875,-10.625,-0.9790039,0.5644531,-0.2592773,0.2270508,-0.06835938,-0.1645508
3501,-5.375,-24.75,-20.5625,-0.7231445,0.5214844,-0.05908203,0.2270508,-0.06689453,-0.1645508
3505,-10.375,-13.8125,-22,-0.6689453,0.4985352,-0.05517578,0.2246094,-0.06835938,-0.1660156
3509,-8.1875,0.6875,-18.125,-0.6650391,0.4555664,-0.009277344,0.2260742,-0.06298828,-0.168457
3513,-3.9375,12,-9.4375,-0.6767578,0.4438477,0.04785156,0.2246094,-0.06298828,-0.1674805
3517,0.875,26.125,-0.5,-0.6572266,0.4243164,0.140625,0.2260742,-0.06298828,-0.1674805
3521,-0.875,29.4375,-2.5,-0.8237305,0.4711914,0.2021484,0.2285156,-0.06201172,-0.1645508
3525,0.1875,28.375,-5.1875,-0.7734375,0.3857422,0.2709961,0.2294922,-0.06298828,-0.1645508
3529,6,30.75,-0.625,-0.7617188,0.3701172,0.3134766,0.2294922,-0.06201172,-0.1630859
3533,8.375,29.0625,0.1875,-0.8276367,0.4052734,0.3212891,0.2319336,-0.05957031,-0.15625
3537,6.0625,25.5,-4.5625,-0.8125,0.4125977,0.3364258,0.2319336,-0.06298828,-0.1577148
3541,5.125,26.3125,-8.375,-0.831543,0.3779297,0.3520508,0.2329102,-0.06201172,-0.15625
3545,6.875,22.9375,-9.875,-0.8432617,0.3544922,0.3134766,0.234375,-0.05957031,-0.1547852
3549,13.0625,24.125,-7.8125,-0.8125,0.3041992,0.2675781,0.234375,-0.06054688,-0.1523438
3553,19.25,25.625,-4.9375,-0.8549805,0.3310547,0.1865234,0.2368164,-0.06054688,-0.1494141
3557,23.375,27.5,-7.4375,-0.8588867,0.3427734,0.1171875,0.2392578,-0.06054688,-0.1494141
3561,25.5,34.3125,-10.625,-0.831543,0.3505859,0.02099609,0.2402344,-0.05957031,-0.1484375
3565,26.4375,46.75,-11.3125,-0.7851563,0.3427734,-0.05908203,0.2412109,-0.06054688,-0.144043
3569,29.4375,59.25,-12.5,-0.8393555,0.3388672,-0.1552734,0.2436523,-0.05957031,-0.1416016
3573,36.5,71.875,-13.9375,-0.8354492,0.3041992,-0.2167969,0.2451172,-0.05957031,-0.137207
3577,47.125,79.6875,-16.1875,-0.9287109,0.3081055,-0.2783203,0.25,-0.05810547,-0.1318359
3581,55.4375,90.3125,-22.25,-0.8666992,0.3466797,-0.3325195,0.2519531,-0.05810547,-0.1235352
3585,55.125,107.0625,-27.1875,-0.8896484,0.4594727,-0.3823242,0.2543945,-0.05957031,-0.1196289
3590,49.25,124.1875,-26.9375,-0.8706055,0.4633789,-0.4013672,0.2583008,-0.05712891,-0.1098633
3594,49.375,148,-15.375,-0.8237305,0.4013672,-0.4321289,0.2651367,-0.05566406,-0.09912109
3598,53.25,168.875,-0.25,-0.9326172,0.4477539,-0.4516602,0.2641602,-0.05566406,-0.09228516
3602,54.25,174.25,-2.1875,-1.033203,0.3662109,-0.4555664,0.2724609,-0.05566406,-0.07861328
3606,67.75,177.5,-3.375,-1.133789,0.3466797,-0.4667969,0.2749023,-0.0546875,-0.0625
3610,82.125,178.3125,-5.1875,-1.095215,0.3310547,-0.4824219,0.2773438,-0.05712891,-0.05273438
3614,90.9375,192.3125,-0.0625,-1.044922,0.4907227,-0.5361328,0.2817383,-0.05810547,-0.03662109
3618,77.8125,194.8125,-11.5,-1.28125,0.6577148,-0.5551758,0.2817383,-0.05566406,-0.01757813
3622,65.625,191,-17.1875,-1.253906,0.5913086,-0.5400391,0.2841797,-0.05566406,-0.005371094
3626,63.1875,198.4375,-11.5625,-1.071777,0.5097656,-0.59375,0.2832031,-0.05175781,0.01074219
3630,69,210.625,1.75,-1.168945,0.5292969,-0.7055664,0.2841797,-0.05175781,0.02978516
3634,74.375,221.4375,7.25,-0.9907227,0.5566406,-0.809082,0.2792969,-0.04931641,0.04199219
3638,61.9375,208.9375,-17.25,-1.381836,0.6694336,-1.125,0.2773438,-0.04833984,0.06201172
3642,37.625,212.6875,-52.0625,-1.118652,0.7236328,-1.209473,0.2724609,-0.04589844,0.08251953
3646,35,237.5,-42.0625,-1.227051,0.5410156,-1.020996,0.2675781,-0.03955078,0.09619141
3650,50.9375,239.875,-12.125,-1.308105,0.6381836,-0.9746094,0.2602539,-0.03710938,0.1166992
3654,57.4375,258.4375,4.1875,-1.161133,0.6577148,-1.032227,0.2509766,-0.03320313,0.1425781
3658,68.875,284.4375,34,-1.331543,0.6499023,-0.9438477,0.2426758,-0.03076172,0.1547852
3662,67.625,289.25,60.25,-1.397461,0.6811523,-0.8710938,0.2270508,-0.02929688,0.175293
3666,63.6875,286.375,81.5625,-1.583496,0.5991211,-0.6977539,0.2080078,-0.03173828,0.1967773
3670,49.3125,270.375,85.625,-1.645508,0.4750977,-0.4321289,0.1962891,-0.03320313,0.2143555
3674,30.5,226.1875,63.5,-1.556152,0.2495117,-0.4360352,0.1772461,-0.03320313,0.2294922
3678,43.625,196.1875,43.75,-1.230957,-0.1035156,-0.5053711,0.1630859,-0.03320313,0.2402344
3682,72.625,175.25,30.5625,-0.7890625,-0.1499023,-0.6708984,0.1499023,-0.03076172,0.25
3686,95.5625,169.375,36.8125,-0.6611328,0.02050781,-0.7167969,0.1367188,-0.02587891,0.2583008
3690,93.125,154.6875,37.3125,-0.7504883,0.2416992,-0.559082,0.1210938,-0.01806641,0.2661133
3694,71.1875,123.8125,25.9375,-0.7075195,0.2924805,-0.4282227,0.112793,-0.01318359,0.2705078
3698,49,100.4375,12,-0.6342773,0.2416992,-0.3515625,0.1020508,-0.008300781,0.2758789
3702,29.0625,75.25,-1.5625,-0.3588867,0.1333008,-0.3476563,0.09277344,-0.004394531,0.2783203
3706,24.625,64.4375,3.8125,-0.347168,0.140625,-0.3666992,0.09033203,-0.001953125,0.2797852
3710,16.9375,50.5625,5.625,-0.1420898,0.1137695,-0.394043,0.08203125,-0.001953125,0.2827148
3714,13.375,46.1875,17.4375,-0.1303711,0.08642578,-0.4208984,0.07861328,0.001464844,0.2841797
3719,9.375,39.25,19,-0.2080078,0.140625,-0.3901367,0.07714844,0.001464844,0.2841797
3723,-8.0625,15.0625,-4.3125,-0.2700195,0.1367188,-0.4628906,0.07128906,0.001464844,0.2827148
3727,-7.25,0,-13.5,-0.1845703,0.0009765625,-0.5976563,0.07128906,-0.0004882813,0.2827148
3731,-0.875,-5.9375,-9.9375,-0.06054688,0.05517578,-0.7016602,0.07226563,0,0.2841797
3735,-1.75,-9.0625,-4.1875,0.008789063,0.1367188,-0.8364258,0.07128906,-0.0004882813,0.2827148
3739,-2.4375,-6,-0.0625,-0.01416016,0.1098633,-0.9091797,0.07226563,-0.0004882813,0.2841797
3743,-0.125,-4.75,-1.6875,0.004882813,0.03222656,-0.9052734,0.07470703,0,0.2851563
3747,7.625,-6.0625,-3.125,-0.05664063,0.07080078,-0.878418,0.07226563,-0.0004882813,0.2827148
3751,1.8125,-8.9375,-6.3125,-0.05664063,0.2299805,-0.8325195,0.07373047,0.001464844,0.2827148
3755,-12.4375,-17.625,-9.4375,-0.1689453,0.2963867,-0.7978516,0.07373047,0.001464844,0.2851563
3759,-20.25,-28.375,-9.6875,-0.1342773,0.2070313,-0.8056641,0.07714844,-0.0004882813,0.2827148
3763,-17.5625,-34.25,-6.25,-0.1108398,0.1679688,-0.859375,0.07958984,-0.003417969,0.28125
3767,-13.75,-40.875,-1.125,-0.1264648,0.1640625,-0.9018555,0.07958984,-0.003417969,0.28125
3771,-12.125,-42.375,0.0625,-0.08007813,0.1367188,-0.8364258,0.08544922,-0.004394531,0.2783203
3775,-13.625,-49.375,-3.375,-0.2270508,0.1875,-0.8364258,0.09033203,-0.004394531,0.2783203
3779,-18.875,-58.9375,-9.4375,-0.2080078,0.171875,-0.8168945,0.09277344,-0.006835938,0.2758789
3783,-20.3125,-69.4375,-11.125,-0.28125,0.2109375,-0.9018555,0.09863281,-0.006835938,0.2758789
3787,-21.625,-69.625,-11,-0.1499023,0.15625,-0.84375,0.105957,-0.009277344,0.2729492
3791,-23.125,-74.3125,-3.25,-0.3901367,0.2456055,-0.824707,0.1069336,-0.01074219,0.2729492
3795,-28.9375,-85,-9.3125,-0.2734375,0.1640625,-0.7978516,0.1166992,-0.01171875,0.2675781
3799,-27.0625,-93.8125,-12,-0.4594727,0.1875,-0.9438477,0.125,-0.015625,0.2661133
3803,-23.4375,-95.75,-19.25,-0.2270508,0.07080078,-0.9169922,0.1293945,-0.01708984,0.262207
3807,-15.4375,-95.0625,-15.9375,-0.3901367,0.1640625,-0.9746094,0.1367188,-0.01953125,0.2568359
3811,-6.375,-95.8125,-10.8125,-0.3666992,0.09814453,-0.84375,0.1459961,-0.01953125,0.2514648
3815,-0.0625,-105.875,-0.5625,-0.5722656,0.2456055,-0.7631836,0.1523438,-0.01806641,0.2485352
3819,-0.5625,-121.125,5.1875,-0.6455078,0.203125,-0.7167969,0.1591797,-0.01953125,0.2402344
3823,4.1875,-135.6875,2.8125,-0.6108398,0.09814453,-0.7861328,0.1689453,-0.01806641,0.2333984
3827,26.125,-146.875,5.1875,-0.6845703,-0.1538086,-0.8168945,0.1772461,-0.01806641,0.2280273
3831,71.5625,-167.5625,22.375,-0.7075195,-0.2314453,-0.878418,0.1889648,-0.01708984,0.2172852
3835,120.8125,-184.4375,54.75,-0.715332,-0.2509766,-0.7900391,0.2021484,-0.01464844,0.2050781
3839,136.3125,-183.75,62.1875,-0.5952148,0.3544922,-0.7363281,0.2104492,-0.009277344,0.1953125
3843,69.875,-177.8125,43.8125,-0.796875,0.9023438,-0.7094727,0.2236328,-0.008300781,0.1791992
3848,-1.375,-168.875,31.625,-0.6884766,0.7119141,-0.7055664,0.2319336,-0.006835938,0.1655273
3852,-38,-151.875,24.875,-0.6147461,0.4633789,-0.8325195,0.2392578,-0.009277344,0.1572266
3856,-49.6875,-130.4375,10.6875,-0.6962891,0.3818359,-0.7783203,0.2460938,-0.01318359,0.1450195
3860,-47.75,-134.5,18.875,-1.087402,0.3310547,-0.5629883,0.2519531,-0.01708984,0.1342773
3864,-38.1875,-151.875,31.25,-1.149414,0.3974609,-0.359375,0.2583008,-0.01953125,0.1259766
3868,-49.6875,-165.125,34.625,-1.161133,0.5644531,-0.4282227,0.2626953,-0.02587891,0.1137695
3872,-74,-166.0625,28.5625,-0.9633789,0.4555664,-0.559082,0.269043,-0.02929688,0.09765625
3876,-81.1875,-164.375,31.5,-1.091309,0.3818359,-0.6206055,0.2749023,-0.03564453,0.08789063
3880,-89.9375,-159.3125,24.3125,-0.9169922,0.300293,-0.6630859,0.2773438,-0.04052734,0.07324219
3884,-81,-159.75,22.75,-1.145508,0.253418,-0.5361328,0.2792969,-0.04589844,0.05664063
3888,-61.1875,-167.375,27.875,-1.187988,0.3310547,-0.3666992,0.2841797,-0.04833984,0.04589844
3892,-52.3125,-175.6875,31.4375,-1.219238,0.4829102,-0.2436523,0.2841797,-0.04931641,0.03076172
3896,-63,-181,37,-1.12207,0.6923828,-0.34375,0.2841797,-0.0546875,0.01464844
3900,-90.75,-165.4375,39.9375,-1.063965,0.6733398,-0.3632813,0.2856445,-0.05810547,0.00390625
3904,-111.0625,-161.8125,41.125,-1.184082,0.6030273,-0.378418,0.2866211,-0.06298828,-0.01464844
3908,-114,-159.8125,39.625,-1.230957,0.4360352,-0.2978516,0.2841797,-0.06591797,-0.02734375
3912,-99.8125,-167.125,42.375,-1.312012,0.4052734,-0.2089844,0.2817383,-0.06689453,-0.03515625
3916,-85.1875,-176.6875,44.8125,-1.319824,0.4672852,-0.1630859,0.2783203,-0.07080078,-0.05419922
3920,-83.875,-177.3125,45,-1.253906,0.5952148,-0.1166992,0.2758789,-0.07324219,-0.06933594
3924,-98.5,-174,40.875,-1.25,0.6772461,-0.1206055,0.2700195,-0.07421875,-0.08154297
3928,-114.375,-166.125,38.9375,-1.195801,0.6225586,-0.128418,0.2651367,-0.07568359,-0.09912109
3932,-122.8125,-160.25,36.3125,-1.223145,0.5605469,-0.112793,0.2602539,-0.078125,-0.1088867
3936,-119.5625,-158,33.625,-1.23877,0.4477539,-0.109375,0.2558594,-0.078125,-0.1181641
3940,-106.875,-156.3125,31.5625,-1.23877,0.4125977,-0.07470703,0.25,-0.07714844,-0.1303711
3944,-95.6875,-159.1875,23.6875,-1.20752,0.4243164,-0.1362305,0.2426758,-0.07714844,-0.144043
3948,-84,-150.0625,19.5,-1.075684,0.3779297,-0.1401367,0.237793,-0.07568359,-0.1523438
3952,-76.25,-142.0625,16.875,-1.052734,0.3740234,-0.2285156,0.2319336,-0.078125,-0.1630859
3956,-67.0625,-125.3125,14,-0.9555664,0.3232422,-0.1977539,0.2236328,-0.07421875,-0.1713867
3960,-57.75,-114.375,13.3125,-0.8706055,0.269043,-0.2397461,0.21875,-0.07421875,-0.1782227
3964,-38.3125,-72.875,22.875,-0.8935547,0.5332031,-0.1552734,0.2128906,-0.07421875,-0.1835938
3968,-48.3125,-78.625,10.3125,-0.7890625,0.3701172,-0.1362305,0.2080078,-0.07421875,-0.1904297
3972,-43.0625,-56.1875,6.6875,-0.6650391,0.3544922,-0.2324219,0.2045898,-0.07421875,-0.1943359
3977,-38.3125,-33.1875,6.625,-0.6225586,0.3271484,-0.1552734,0.199707,-0.07080078,-0.1958008
3981,-32.625,-15.75,7.9375,-0.6376953,0.3193359,-0.1015625,0.2011719,-0.07177734,-0.1972656
3985,-27,-0.1875,9.4375,-0.6494141,0.3388672,0.03662109,0.199707,-0.07080078,-0.1987305
3989,-23.5625,6,9.375,-0.6806641,0.3388672,0.1210938,0.1987305,-0.07177734,-0.1972656
3993,-18.5625,12.8125,4.5625,-0.6611328,0.2963867,0.159668,0.199707,-0.07080078,-0.1972656
3997,-5.0625,16.9375,7.75,-0.6689453,0.2651367,0.1635742,0.2011719,-0.06933594,-0.1972656
4001,5.125,22.1875,4.4375,-0.6923828,0.2963867,0.125,0.2021484,-0.07177734,-0.1958008
4005,11.8125,24.4375,-4.3125,-0.730957,0.2807617,0.06738281,0.203125,-0.07177734,-0.1943359
4009,19.5,30.0625,-13.9375,-0.7617188,0.2416992,0.001953125,0.2045898,-0.06835938,-0.1928711
4013,32.125,37.0625,-19,-0.7504883,0.1953125,-0.07080078,0.2055664,-0.07177734,-0.1904297
4017,51.3125,50.375,-19.875,-0.7270508,0.1757813,-0.1513672,0.2094727,-0.06933594,-0.1904297
4021,66.25,65.25,-23,-0.8164063,0.2651367,-0.1938477,0.2104492,-0.07080078,-0.1875
4025,72.8125,77.1875,-31.25,-0.8510742,0.3466797,-0.2089844,0.215332,-0.07080078,-0.1806641
4029,72.875,94.75,-41.375,-0.8393555,0.3857422,-0.2246094,0.2202148,-0.07080078,-0.175293
4033,70.5625,115.9375,-47.625,-0.862793,0.4125977,-0.2055664,0.2236328,-0.07080078,-0.1713867
4037,69.8125,133.125,-44.9375,-0.9365234,0.3974609,-0.1708984,0.230957,-0.06835938,-0.1645508
4041,78.1875,145.125,-36.75,-1.009766,0.3779297,-0.1513672,0.2368164,-0.06835938,-0.1523438
4045,88.4375,155.8125,-27.6875,-0.9829102,0.3818359,-0.1743164,0.2412109,-0.06835938,-0.1425781
4049,84.5625,166.75,-32.5,-1.230957,0.6108398,-0.1630859,0.2485352,-0.06835938,-0.1318359
4053,56.125,166.75,-50.5625,-1.172852,0.5488281,-0.1630859,0.2558594,-0.06591797,-0.1210938
4057,43.9375,181.6875,-55.375,-1.199707,0.4243164,-0.1401367,0.2592773,-0.06298828,-0.1098633
4061,51.0625,181.1875,-51.8125,-1.273438,0.269043,-0.1323242,0.2675781,-0.05957031,-0.09375
4065,70,180.6875,-48.0625,-1.327637,0.300293,-0.1860352,0.2709961,-0.05566406,-0.07861328
4069,87.6875,176.5,-43.75,-1.25,0.300293,-0.2514648,0.2758789,-0.0546875,-0.06933594
4073,88.6875,177.6875,-56.125,-1.374023,0.5292969,-0.2900391,0.2807617,-0.04931641,-0.05273438
4077,67.4375,176.0625,-73.875,-1.273438,0.6108398,-0.3359375,0.2841797,-0.04443359,-0.03955078
4081,52.75,186,-74.8125,-1.265625,0.5371094,-0.3129883,0.2832031,-0.04052734,-0.02832031
4085,48,190.5625,-58.875,-1.168945,0.5058594,-0.4091797,0.2841797,-0.03320313,-0.01220703
4089,50.875,203.5625,-39.625,-1.091309,0.269043,-0.5092773,0.2841797,-0.02929688,0.009277344
4093,30.375,197.5625,-65.5,-1.595215,0.5527344,-0.4438477,0.2841797,-0.02441406,0.02148438
4097,19.0625,186.125,-91.5,-1.304199,0.3388672,-0.3554688,0.2841797,-0.01708984,0.03759766
4101,13.4375,200.4375,-106.5625,-1.161133,0.1992188,-0.309082,0.2783203,-0.006835938,0.05419922
4106,4.75,199.8125,-118.375,-1.339355,0.08251953,-0.3632813,0.2734375,0,0.06787109
4110,23.3125,179.625,-102,-1.389648,-0.1113281,-0.3974609,0.269043,0.01123047,0.08251953
4114,51.6875,168,-84,-1.176758,-0.05664063,-0.4248047,0.2592773,0.02148438,0.1000977
4118,61.5625,163.25,-76.625,-1.141602,0.1293945,-0.4746094,0.2543945,0.02636719,0.1069336
4122,56.5,155.9375,-73.8125,-1.095215,0.2148438,-0.4785156,0.2475586,0.03369141,0.1220703
4126,42.9375,152.125,-63.25,-0.9829102,0.2885742,-0.5244141,0.2402344,0.04492188,0.1342773
4130,30.5,151.5,-37.4375,-0.9169922,0.2729492,-0.5864258,0.2329102,0.04882813,0.1425781
4134,21.3125,150.625,-8.25,-0.7348633,0.2495117,-0.7016602,0.2260742,0.05126953,0.1533203
4138,13.375,162.875,14.375,-0.6923828,0.237793,-0.84375,0.2177734,0.05126953,0.1655273
4142,4.9375,167.375,29.875,-0.715332,0.21875,-0.9360352,0.2119141,0.05371094,0.175293
4146,6.125,169.3125,37.625,-0.9208984,0.08642578,-0.8208008,0.203125,0.05126953,0.1845703
4150,4.8125,157.0625,29.625,-0.8198242,0.04003906,-0.8554688,0.1928711,0.04882813,0.1967773
4154,15.8125,155.5,29.5,-0.7426758,-0.04882813,-0.9248047,0.1879883,0.04980469,0.2036133
4158,26.625,155.375,34.625,-0.5449219,-0.02978516,-1.086426,0.1757813,0.04882813,0.2143555
4162,42.0625,175.25,52.125,-0.3706055,-0.05664063,-1.086426,0.1650391,0.04980469,0.2241211
4166,60.75,189.1875,79.375,-0.4594727,-0.01416016,-1.043945,0.1567383,0.04980469,0.2294922
4170,62.625,197.9375,78.3125,-0.7075195,0.1992188,-0.8554688,0.1450195,0.05273438,0.2392578
4174,30.5625,165.25,43,-0.9477539,0.1875,-0.7016602,0.1318359,0.05517578,0.2446289
4178,12.625,137.375,9.5,-0.6650391,-0.1191406,-0.5786133,0.1225586,0.05517578,0.2514648
4182,20.8125,118.375,-2.125,-0.5175781,-0.2509766,-0.6401367,0.1142578,0.05517578,0.2568359
4186,35.4375,107.5,2.1875,-0.328125,-0.2783203,-0.6132813,0.1010742,0.05761719,0.2592773
4190,54.5625,95.5,25.125,-0.2661133,-0.2548828,-0.5864258,0.09619141,0.06103516,0.2607422
4194,69.5625,86.9375,40.125,-0.4208984,0.02441406,-0.5014648,0.08886719,0.06494141,0.2636719
4198,34.6875,50.1875,15.1875,-0.5952148,0.2612305,-0.4477539,0.08447266,0.06640625,0.2636719
4202,-1.6875,20.25,-11.1875,-0.3085938,0.03613281,-0.4321289,0.08056641,0.06982422,0.2636719
4206,-8.625,10.125,-13,-0.1459961,-0.09570313,-0.5708008,0.07861328,0.06982422,0.2651367
4210,-7.5,5.25,-7.125,-0.1499023,-0.09960938,-0.6708984,0.07958984,0.06884766,0.2661133
4214,-4.25,-0.5,-0.125,-0.02587891,-0.1074219,-0.7631836,0.07714844,0.06884766,0.2661133
4218,5.625,2.5,9.875,-0.07226563,-0.1577148,-0.6669922,0.07714844,0.06982422,0.2661133
4222,8.8125,-8.4375,9.8125,-0.2080078,-0.002441406,-0.6171875,0.07861328,0.06982422,0.2661133
4226,-4.4375,-26.125,-3.3125,-0.215332,0.06298828,-0.7016602,0.07958984,0.06982422,0.2661133
4230,-12.9375,-33.125,-7,-0.1264648,0.02050781,-0.809082,0.08056641,0.07128906,0.2661133
4235,-14.75,-33.1875,-0.25,-0.04882813,0.004882813,-0.8901367,0.08203125,0.06982422,0.2651367
4239,-13.0625,-30.3125,8.625,-0.07226563,-0.006347656,-0.9169922,0.08691406,0.06640625,0.2636719
4243,-13.3125,-31.75,13.25,-0.1030273,0.03222656,-0.8671875,0.08886719,0.06640625,0.2651367
4247,-18.6875,-35.8125,14.4375,-0.215332,0.07080078,-0.824707,0.09277344,0.06396484,0.262207
4251,-30.1875,-42.8125,8.75,-0.1650391,0.07861328,-0.8515625,0.09375,0.0625,0.2607422
4255,-37.875,-46.25,7.8125,-0.2773438,0.06298828,-0.8710938,0.09863281,0.05761719,0.2592773
4259,-43.375,-53.5625,7.25,-0.2387695,-0.01806641,-0.8325195,0.1044922,0.05371094,0.2592773
4263,-36.8125,-63,14.4375,-0.347168,-0.04882813,-0.84375,0.1079102,0.05273438,0.2583008
4267,-30.25,-72.8125,17.875,-0.3588867,-0.02587891,-0.84375,0.1152344,0.04980469,0.2553711
4271,-30.375,-80.1875,10.75,-0.246582,-0.01416016,-0.9516602,0.1201172,0.04492188,0.2568359
4275,-21.5,-77.375,10.3125,-0.3354492,-0.05664063,-0.8671875,0.1269531,0.04248047,0.25
4279,-15.3125,-86.5625,11.5,-0.4130859,0.03222656,-0.8168945,0.1318359,0.04150391,0.2470703
4283,-12.875,-92.0625,17.6875,-0.5214844,0.08642578,-0.6206055,0.1401367,0.03857422,0.2446289
4287,-25.5,-117,15.3125,-0.5991211,0.2456055,-0.7592773,0.1474609,0.03759766,0.2402344
4291,-35.1875,-123.75,18.3125,-0.5683594,0.1484375,-0.7363281,0.1582031,0.03271484,0.2363281
4295,-41.8125,-132.75,17,-0.4946289,0.09033203,-0.809082,0.1665039,0.02880859,0.2280273
4299,-39.1875,-132.1875,14.8125,-0.5874023,0.05517578,-0.8979492,0.1738281,0.02636719,0.2211914
4303,-29.5,-132.5,10.0625,-0.5795898,-0.1074219,-0.7553711,0.1855469,0.02246094,0.2158203
4307,-8.4375,-147.8125,12.0625,-0.8549805,0.01269531,-0.7363281,0.1928711,0.02001953,0.2050781
4311,3.375,-161.0625,11.75,-0.7890625,0.03613281,-0.5708008,0.2011719,0.01757813,0.199707
4315,9.875,-174.625,19.375,-0.9477539,0.21875,-0.5864258,0.2119141,0.01855469,0.1875
4319,-8.5,-184.3125,17.4375,-0.9052734,0.3740234,-0.6708984,0.2236328,0.01513672,0.1738281
4323,-39.8125,-182.875,6.25,-0.6962891,0.3701172,-0.809082,0.230957,0.01513672,0.1640625
4327,-59.25,-167.0625,2.75,-0.7578125,0.2573242,-0.8515625,0.2402344,0.01025391,0.1479492
4331,-54.4375,-163.25,10.625,-0.8818359,0.04394531,-0.7055664,0.25,0.006347656,0.1381836
4335,-26.625,-167.625,25.125,-1.052734,0.05126953,-0.5014648,0.253418,0.004882813,0.1289063
4339,-8.5625,-187.125,30.125,-1.327637,0.2338867,-0.3974609,0.2617188,0,0.1123047
4343,-19.75,-205.1875,25.1875,-1.095215,0.3740234,-0.5322266,0.2666016,-0.001953125,0.09326172
4347,-43.4375,-200.25,11.8125,-1.075684,0.4125977,-0.6552734,0.2709961,-0.004394531,0.08251953
4351,-72.75,-189.1875,-3.5,-0.9750977,0.3427734,-0.6899414,0.2773438,-0.006835938,0.06494141
4355,-76.6875,-186.625,-12.5,-1.227051,0.140625,-0.5478516,0.2792969,-0.009277344,0.04882813
4359,-57.9375,-202.1875,-18.4375,-1.273438,0.02441406,-0.3901367,0.2817383,-0.009277344,0.03613281
4364,-27,-205.9375,-14.3125,-1.277344,-0.01806641,-0.2167969,0.2856445,-0.006835938,0.01708984
4368,-6.6875,-214.9375,-12.4375,-1.327637,0.1679688,-0.1669922,0.2832031,-0.005859375,0
4372,-6.375,-215.9375,-3.375,-1.223145,0.2924805,-0.2016602,0.2841797,-0.006835938,-0.01367188
4376,-21.4375,-208.1875,10.625,-1.168945,0.3974609,-0.2822266,0.2817383,-0.005859375,-0.03271484
4380,-44.4375,-196.875,18.125,-1.25,0.3701172,-0.2705078,0.2817383,-0.008300781,-0.05273438
4384,-53.8125,-195.3125,28.375,-1.331543,0.2070313,-0.2397461,0.2758789,-0.008300781,-0.06103516
4388,-52.3125,-191.4375,34.75,-1.366211,0.1953125,-0.2089844,0.2734375,-0.01074219,-0.07861328
4392,-48.6875,-191.8125,34.125,-1.432129,0.1679688,-0.1552734,0.2666016,-0.01464844,-0.09667969
4396,-43.375,-188.8125,35.6875,-1.312012,0.2148438,-0.128418,0.2651367,-0.01464844,-0.105957
4400,-47.0625,-179.3125,39.3125,-1.265625,0.2807617,-0.1206055,0.2583008,-0.01708984,-0.1181641
4404,-57,-169.6875,44.8125,-1.230957,0.3779297,-0.1474609,0.2519531,-0.01953125,-0.1333008
4408,-72.75,-153.8125,47.625,-1.180664,0.3623047,-0.1054688,0.2485352,-0.02050781,-0.1386719
4412,-81.9375,-144.125,49.3125,-1.176758,0.3120117,-0.04003906,0.2426758,-0.02197266,-0.1508789
4416,-87.375,-133.375,46.75,-1.187988,0.3120117,0.06738281,0.2353516,-0.02441406,-0.1591797
4420,-87.0625,-133,42.9375,-1.227051,0.2768555,0.1132813,0.230957,-0.02587891,-0.1674805
4424,-81.0625,-128.6875,39.5625,-1.118652,0.203125,0.159668,0.2236328,-0.02587891,-0.175293
4428,-72.375,-121,38.125,-0.9829102,0.21875,0.1748047,0.2163086,-0.02441406,-0.1821289
4432,-63.0625,-111.25,42.125,-1.025391,0.2456055,0.1713867,0.2138672,-0.02587891,-0.1865234
4436,-59.75,-104.6875,42,-0.9208984,0.2768555,0.2060547,0.2080078,-0.02685547,-0.1918945
4440,-59.1875,-95.75,40.5,-0.9130859,0.2963867,0.1479492,0.2021484,-0.02587891,-0.1972656
4444,-50.25,-73.5625,68.5,-0.4521484,0.09033203,0.04052734,0.199707,-0.02685547,-0.199707
4448,-63.6875,-56,55.5625,-0.878418,0.3505859,-0.1206055,0.1962891,-0.02929688,-0.2041016
4452,-70.9375,-45.6875,36.375,-0.796875,0.2456055,-0.07080078,0.1938477,-0.02832031,-0.2080078
4456,-66.5,-34.4375,23,-0.6767578,0.121582,-0.05908203,0.1889648,-0.02832031,-0.2080078
4460,-56.25,-18.4375,15.6875,-0.6650391,0.1020508,-0.04394531,0.1879883,-0.02587891,-0.2109375
4464,-44.5625,-4,11.375,-0.6767578,0.1098633,0.02490234,0.1879883,-0.0234375,-0.2094727
4468,-32.75,4.8125,8.625,-0.715332,0.105957,0.140625,0.1879883,-0.02197266,-0.2094727
4472,-18.1875,8.875,10.375,-0.699707,0.121582,0.2133789,0.1879883,-0.0234375,-0.2109375
4476,-7.5625,18.75,12.875,-0.6494141,0.1796875,0.2827148,0.1879883,-0.02050781,-0.2094727
4480,-4,22.3125,11.125,-0.7426758,0.2299805,0.3251953,0.1904297,-0.02197266,-0.2080078
4484,-2.375,25.1875,5.1875,-0.730957,0.2226563,0.3442383,0.1914063,-0.02197266,-0.2080078
4488,1.25,26.9375,0.125,-0.7426758,0.1640625,0.3134766,0.1928711,-0.02197266,-0.2055664
4493,12.625,31.5,-0.0625,-0.730957,0.1020508,0.2636719,0.1938477,-0.02197266,-0.2055664
4497,27.25,36.6875,-0.25,-0.78125,0.07861328,0.1557617,0.1948242,-0.0234375,-0.2026367
4501,45.5625,44.75,-3,-0.7929688,0.04394531,0.04443359,0.1987305,-0.02197266,-0.1987305
4505,62,54.9375,-11.9375,-0.831543,0.1445313,-0.08203125,0.1987305,-0.02587891,-0.1987305
4509,65.625,70.4375,-23.25,-0.8237305,0.2226563,-0.1552734,0.2021484,-0.02685547,-0.1958008
4513,64.25,96.0625,-27.125,-0.8745117,0.3271484,-0.2363281,0.2080078,-0.02832031,-0.1904297
4517,56.5625,118.125,-29.4375,-1.025391,0.3583984,-0.2631836,0.2128906,-0.02832031,-0.1850586
4521,56.375,135.9375,-32.6875,-1.037109,0.284668,-0.2744141,0.21875,-0.02685547,-0.1782227
4525,69.125,156.25,-26.8125,-1.075684,0.203125,-0.2900391,0.2260742,-0.02685547,-0.168457
4529,84.75,172.25,-24.5,-1.165039,0.237793,-0.2939453,0.230957,-0.02685547,-0.1630859
4533,85.6875,187.4375,-30,-1.242188,0.4321289,-0.2553711,0.2402344,-0.02832031,-0.1494141
4537,75.0625,201.1875,-29.1875,-1.161133,0.4555664,-0.2246094,0.2475586,-0.02685547,-0.137207
4541,63.125,218.4375,-23.125,-1.261719,0.5488281,-0.2016602,0.253418,-0.02685547,-0.1264648
4545,47.1875,220.125,-23.9375,-1.32373,0.4946289,-0.1708984,0.2617188,-0.02587891,-0.1088867
4549,43,226.0625,-22.75,-1.176758,0.3349609,-0.1821289,0.2675781,-0.02441406,-0.09375
4553,59.375,238.1875,-5.5625,-1.215332,0.237793,-0.2055664,0.2709961,-0.02197266,-0.07861328
4557,80.0625,241.9375,6.6875,-1.405273,0.3427734,-0.2055664,0.2758789,-0.02197266,-0.05957031
4561,85.5,227.75,-7.625,-1.544922,0.5097656,-0.2246094,0.2832031,-0.02197266,-0.04052734
4565,82.125,225.375,-7.4375,-1.331543,0.5683594,-0.2900391,0.2832031,-0.0234375,-0.02587891
4569,64.5625,228.8125,-3.3125,-1.168945,0.7236328,-0.5092773,0.2856445,-0.02197266,-0.006835938
4573,36.5625,243.0625,2.75,-1.432129,0.8129883,-0.5708008,0.2841797,-0.0234375,0.01464844
4577,39.8125,249.5,35.1875,-1.15332,0.5449219,-0.4824219,0.2832031,-0.02197266,0.03369141
4581,51.875,253.1875,58.0625,-1.312012,0.5683594,-0.4863281,0.2807617,-0.02441406,0.05273438
4585,61.5,247.25,74.0625,-1.20752,0.5800781,-0.5014648,0.2734375,-0.03076172,0.07714844
4589,56.9375,238.375,65.1875,-1.498047,0.6694336,-0.4667969,0.2709961,-0.03173828,0.08935547
4593,53.1875,222.0625,58.9375,-1.176758,0.5371094,-0.3823242,0.2641602,-0.03564453,0.1123047
4597,41.5,220.125,67.6875,-1.106934,0.6186523,-0.4594727,0.2568359,-0.03808594,0.1313477
4601,40.3125,224.5625,98.8125,-0.9365234,0.4750977,-0.4321289,0.25,-0.04052734,0.144043
4605,42.75,221.5,130.8125,-0.8549805,0.4985352,-0.5400391,0.237793,-0.046875,0.1630859
4609,36.0625,219.8125,136.5,-1.211426,0.7314453,-0.5668945,0.2246094,-0.05566406,0.1831055
4613,-10.4375,185.1875,88,-1.106934,0.5214844,-0.574707,0.2163086,-0.05957031,0.1914063
4617,-28.375,162,47.375,-0.9399414,0.08251953,-0.7285156,0.203125,-0.06591797,0.2050781
4622,0.3125,153.3125,41.375,-0.7773438,-0.2275391,-0.8017578,0.1938477,-0.07080078,0.2143555
4626,37.75,148.125,43.1875,-0.6342773,-0.1420898,-0.8325195,0.184082,-0.06933594,0.2211914
4630,60.8125,140.125,45.1875,-0.6264648,0.07080078,-1.009277,0.1723633,-0.06933594,0.2294922
4634,77.625,151.3125,43.625,-0.4790039,0.1601563,-0.9633789,0.1616211,-0.06591797,0.2416992
4638,66.4375,140.0625,27.75,-0.6611328,0.4321289,-0.9863281,0.1523438,-0.06445313,0.2470703
4642,48.125,141,16.4375,-0.4594727,0.4013672,-0.9018555,0.1401367,-0.05810547,0.2553711
4646,31.6875,140.1875,14.1875,-0.4169922,0.3388672,-0.9941406,0.1293945,-0.05566406,0.2636719
4650,36,146.625,30.125,-0.3393555,0.1757813,-0.9438477,0.1186523,-0.05322266,0.2661133
4654,45.1875,143.0625,39.375,-0.4326172,0.2070313,-0.8745117,0.1044922,-0.05175781,0.2714844
4658,47.125,129.8125,33,-0.4829102,0.237793,-0.7207031,0.09277344,-0.05078125,0.2797852
4662,43.5,107.4375,24.25,-0.4091797,0.2265625,-0.5708008,0.08691406,-0.04589844,0.2827148
4666,36,86.3125,18.4375,-0.3706055,0.237793,-0.4477539,0.07617188,-0.04296875,0.2851563
4670,26.5,58.3125,10.5625,-0.296875,0.2109375,-0.5322266,0.06982422,-0.03955078,0.2895508
4674,26.1875,50.8125,12.5,-0.1069336,0.1484375,-0.5170898,0.06396484,-0.03564453,0.2910156
4678,21,40.25,15.5625,-0.1420898,0.21875,-0.4863281,0.06054688,-0.03466797,0.2919922
4682,11.25,22,12.3125,-0.2387695,0.2109375,-0.5131836,0.05712891,-0.03466797,0.2895508
4686,4.5,9.0625,-1.1875,-0.002441406,0.1020508,-0.6245117,0.05566406,-0.03466797,0.2910156
4690,3.625,5.5625,-10.3125,-0.04101563,0.08642578,-0.6552734,0.0546875,-0.03076172,0.2919922
4694,5,-6.125,-11.1875,-0.09130859,0.1484375,-0.6323242,0.05566406,-0.03173828,0.2919922
4698,0.4375,-19.5625,-12.8125,-0.07617188,0.2109375,-0.6630859,0.0546875,-0.03320313,0.2919922
4702,-2.75,-27.4375,-16.6875,0.0009765625,0.1640625,-0.7900391,0.05810547,-0.03173828,0.2895508
4706,0.5,-27,-13.625,0.05908203,0.1875,-0.8632813,0.05957031,-0.03173828,0.2895508
4710,-3.8125,-24.4375,-12.9375,0.07861328,0.2456055,-0.878418,0.06152344,-0.03076172,0.2895508
4714,-13.5,-21.25,-15.75,0.004882813,0.269043,-0.8554688,0.06396484,-0.03173828,0.2895508
4718,-20.1875,-25.4375,-16.5,-0.1420898,0.2495117,-0.8129883,0.06542969,-0.03466797,0.2895508
4722,-24.0625,-39.1875,-20,-0.1342773,0.2299805,-0.8823242,0.06884766,-0.03466797,0.2880859
4726,-19.5625,-42.0625,-18.125,-0.06835938,0.1953125,-0.9863281,0.07226563,-0.03710938,0.2880859
4730,-14.4375,-42.5,-14.875,-0.08789063,0.21875,-1.032227,0.07470703,-0.03710938,0.2851563
4734,-10.625,-46.125,-17.3125,-0.1303711,0.2226563,-1.063477,0.08056641,-0.03955078,0.2841797
4738,-7.125,-45.4375,-19.75,-0.04492188,0.1914063,-1.121094,0.08300781,-0.03808594,0.28125
4742,-1.375,-42.875,-16.625,-0.1689453,0.2885742,-1.155762,0.08886719,-0.03710938,0.2827148
4746,-6.8125,-42.25,-16.25,-0.1147461,0.3583984,-1.094238,0.09033203,-0.03808594,0.28125
4751,-16.5625,-43.25,-18.125,-0.1845703,0.4013672,-1.070801,0.09521484,-0.03955078,0.2797852
4755,-21.5625,-44.25,-13.5,-0.2041016,0.3041992,-0.9746094,0.09765625,-0.04052734,0.2783203
4759,-28.5,-52.0625,-18.125,-0.1264648,0.2612305,-1.121094,0.1010742,-0.04296875,0.2758789
4763,-24.875,-43.1875,-16.3125,-0.2192383,0.1445313,-1.109375,0.105957,-0.04296875,0.2729492
4767,-20.1875,-49.25,-25.5,-0.1611328,0.02050781,-1.155762,0.1103516,-0.04443359,0.2714844
4771,-0.25,-44.125,-27.25,-0.2700195,0.004882813,-1.032227,0.1118164,-0.04443359,0.269043
4775,11.25,-59.6875,-32.875,-0.4287109,0.1293945,-0.7978516,0.1166992,-0.04443359,0.269043
4779,15.375,-82.375,-36.125,-0.5644531,0.3041992,-0.5322266,0.1235352,-0.04199219,0.2661133
4783,2.75,-110.4375,-34.0625,-0.5874023,0.4829102,-0.559082,0.128418,-0.04199219,0.2636719
4787,-21.5625,-120.5,-36.375,-0.3666992,0.4594727,-0.7207031,0.1376953,-0.04052734,0.2568359
4791,-39.5625,-117.25,-39,-0.362793,0.3740234,-0.7592773,0.1474609,-0.04199219,0.25
4795,-43.375,-118.75,-34.625,-0.4829102,0.2651367,-0.6015625,0.1557617,-0.04296875,0.2446289
4799,-38.875,-135.4375,-30.875,-0.7929688,0.3935547,-0.378418,0.1630859,-0.04296875,0.2392578
4803,-55,-167.8125,-35.9375,-0.8046875,0.5371094,-0.4594727,0.1757813,-0.04589844,0.2280273
4807,-70.0625,-177.0625,-33.6875,-0.699707,0.5097656,-0.6401367,0.1831055,-0.046875,0.2226563
4811,-86.8125,-170.875,-37.5625,-0.4248047,0.3623047,-0.7978516,0.1972656,-0.05078125,0.2104492
4815,-79.375,-155.5625,-21.375,-0.6611328,0.3818359,-0.6938477,0.2070313,-0.05566406,0.1967773
4819,-83.25,-163.625,-18.5,-0.9248047,0.5058594,-0.4824219,0.2138672,-0.05712891,0.1914063
4823,-82.6875,-182.25,-13.4375,-1.083496,0.5952148,-0.324707,0.2236328,-0.06201172,0.1738281
4827,-100.9375,-195.8125,-11.0625,-0.9091797,0.7314453,-0.5976563,0.2353516,-0.06591797,0.1601563
4831,-122.625,-184.3125,-10.5625,-0.8276367,0.6264648,-0.7631836,0.2412109,-0.06933594,0.1494141
4835,-144.0625,-169.5,-22.875,-0.5991211,0.4052734,-1.05957,0.25,-0.07568359,0.1328125
4839,-124.5625,-147.25,-28.3125,-0.8393555,0.1367188,-0.9633789,0.2568359,-0.08056641,0.1191406
4843,-80.875,-150.6875,-27.8125,-1.063965,0.1640625,-0.7207031,0.2602539,-0.08056641,0.1098633
4847,-56.3125,-169.0625,-29.4375,-1.15332,0.5136719,-0.5439453,0.2666016,-0.08056641,0.09326172
4851,-69.1875,-168.875,-31.25,-0.9594727,0.7817383,-0.4902344,0.2709961,-0.07958984,0.08007813
4855,-91.125,-157.3125,-29.5,-0.9555664,0.8208008,-0.4477539,0.2749023,-0.07958984,0.06787109
4859,-114.375,-152.5,-33.625,-0.9399414,0.8051758,-0.559082,0.2773438,-0.078125,0.05126953
4863,-120.125,-139.875,-39.3125,-0.7851563,0.5253906,-0.6362305,0.2783203,-0.078125,0.03515625
4867,-94.3125,-127.9375,-34.25,-1.052734,0.4321289,-0.5092773,0.2792969,-0.078125,0.02685547
4871,-70.4375,-146.5,-29.75,-1.23877,0.5527344,-0.3745117,0.2807617,-0.07568359,0.01171875
4875,-59.75,-151,-30.75,-1.037109,0.6381836,-0.2861328,0.2807617,-0.07324219,0.002441406
4880,-60,-143.9375,-24.9375,-1.048828,0.7705078,-0.2705078,0.2807617,-0.07080078,-0.006835938
4884,-71.1875,-136.3125,-16.0625,-1.041016,0.8671875,-0.2744141,0.2792969,-0.07080078,-0.02148438
4888,-92.0625,-129,-20.5625,-0.9868164,0.777832,-0.3823242,0.2792969,-0.06933594,-0.03369141
4892,-95.5,-115.4375,-15.0625,-0.9555664,0.5019531,-0.4013672,0.2783203,-0.06689453,-0.04199219
4896,-78.0625,-108.9375,-2.5,-1.056641,0.3701172,-0.3706055,0.2749023,-0.06445313,-0.05419922
4900,-61.1875,-110.3125,-2.375,-1.125977,0.4360352,-0.3515625,0.2734375,-0.06445313,-0.0625
4904,-57.625,-113,-12.125,-1.071777,0.4790039,-0.3632813,0.2724609,-0.06445313,-0.07080078
4908,-60,-100,-17.125,-0.8706055,0.4594727,-0.3974609,0.2709961,-0.06298828,-0.07861328
4912,-57.6875,-76.75,-18,-0.8393555,0.3349609,-0.4130859,0.269043,-0.06201172,-0.08691406
4916,-49.375,-59.75,-11.25,-0.9130859,0.300293,-0.3168945,0.2666016,-0.05957031,-0.08984375
4920,-38.375,-51.9375,-11.0625,-0.878418,0.269043,-0.2475586,0.2651367,-0.05566406,-0.09667969
4924,-22.8125,-42.125,-6.625,-0.8974609,0.269043,-0.1669922,0.2641602,-0.05566406,-0.1020508
4928,-10.5625,-32.9375,-2.6875,-0.8125,0.300293,-0.1206055,0.2626953,-0.05712891,-0.1020508
4932,-7.6875,-24.5625,0,-1.009766,0.4790039,-0.001464844,0.2617188,-0.05566406,-0.1044922
4936,-25.0625,-28.375,-7,-0.9438477,0.5722656,0.2060547,0.2602539,-0.05566406,-0.1074219
4940,-37.1875,-28,-7.0625,-0.9438477,0.4907227,0.2636719,0.2592773,-0.05175781,-0.1098633
4944,-43.25,-27.9375,-3.125,-0.8432617,0.3974609,0.1748047,0.2583008,-0.05322266,-0.1098633
4948,-35.125,-21.375,6.8125,-0.7578125,0.2265625,0.05175781,0.2602539,-0.05175781,-0.112793
4952,-15.0625,-11.6875,21.875,-0.7114258,0.171875,-0.005371094,0.2583008,-0.05175781,-0.1142578
4956,-1.6875,-9.75,17.1875,-0.9013672,0.284668,0.005859375,0.2583008,-0.05322266,-0.1166992
4960,3.75,-19.4375,4.9375,-0.878418,0.269043,0.01367188,0.2558594,-0.05566406,-0.1181641
4964,9.5625,-16.1875,-2.5,-0.7890625,0.3310547,-0.04736328,0.2558594,-0.05566406,-0.1157227
4968,13.3125,7.8125,6.3125,-0.8432617,0.5800781,-0.06689453,0.2558594,-0.05712891,-0.1181641
4972,-0.875,-3.375,-0.25,-0.9208984,0.4946289,-0.1669922,0.253418,-0.05810547,-0.1157227
4976,3.375,6.625,0.3125,-0.7270508,0.3662109,-0.2822266,0.2543945,-0.05712891,-0.1181641
4980,18.6875,26.6875,9.375,-0.8085938,0.3427734,-0.3823242,0.2558594,-0.05810547,-0.1157227
4984,32.9375,37.8125,10.3125,-0.8706055,0.3466797,-0.4707031,0.2568359,-0.05810547,-0.112793
4988,47.25,53.1875,7,-0.8354492,0.3271484,-0.5322266,0.2602539,-0.06054688,-0.1098633
4992,56.375,73.3125,1.75,-0.8510742,0.4907227,-0.5551758,0.2617188,-0.06298828,-0.1074219
4996,45.25,90.9375,-0.625,-0.8935547,0.6069336,-0.5825195,0.2626953,-0.06298828,-0.09912109
5000,34.5625,111.25,3.1875,-0.8818359,0.5644531,-0.5898438,0.2666016,-0.06445313,-0.09228516
5004,37.625,133,12,-0.8666992,0.4125977,-0.574707,0.269043,-0.06445313,-0.08007813
5009,59.0625,153.5625,22.1875,-1.037109,0.3349609,-0.5322266,0.2724609,-0.06689453,-0.07177734
5013,77.9375,155.1875,15.3125,-1.195801,0.4282227,-0.5014648,0.2749023,-0.06835938,-0.06103516
5017,85.6875,161.4375,3.25,-1.172852,0.5175781,-0.4321289,0.2773438,-0.06933594,-0.04882813
5021,82.1875,171.5625,0.6875,-1.187988,0.7197266,-0.4130859,0.2792969,-0.06689453,-0.03125
5025,73.75,183.1875,15.25,-1.23877,0.7431641,-0.3632813,0.2807617,-0.06933594,-0.01904297
5029,67.6875,189.125,26.4375,-1.308105,0.7739258,-0.3823242,0.2807617,-0.07080078,-0.005371094
5033,56.5625,188.8125,21.4375,-1.343262,0.7856445,-0.4707031,0.2807617,-0.07080078,0.01318359
5037,54.5625,200.25,22.875,-1.017578,0.6108398,-0.5786133,0.2792969,-0.07324219,0.02539063
5041,65.3125,223.25,35.1875,-0.9790039,0.5253906,-0.6860352,0.2792969,-0.07421875,0.04589844
5045,82.125,234.125,55,-1.133789,0.5488281,-0.6401367,0.2724609,-0.07568359,0.06494141
5049,94.375,230.25,66.0625,-1.157227,0.5991211,-0.59375,0.2700195,-0.07958984,0.08398438
5053,87.25,218.25,53.4375,-1.041016,0.7001953,-0.6938477,0.2617188,-0.08203125,0.1044922
5057,72.625,223.1875,45.5,-1.12207,0.6694336,-0.6323242,0.2558594,-0.08447266,0.1235352
5061,75.25,232.75,61.5625,-0.7426758,0.6884766,-0.644043,0.2475586,-0.08203125,0.137207
5065,85.9375,255.25,100.9375,-0.6225586,0.6225586,-0.7324219,0.234375,-0.08447266,0.1572266
5069,106.8125,271.6875,145.4375,-0.6728516,0.7314453,-0.8979492,0.2202148,-0.08691406,0.1806641
5073,112,270.875,152.625,-0.9399414,0.8520508,-1.097656,0.2080078,-0.08837891,0.1943359
5077,105.4375,256.75,130.0625,-1.056641,0.921875,-1.140137,0.1889648,-0.09082031,0.2158203
5081,82.6875,243.1875,87.6875,-0.715332,0.824707,-1.251953,0.1689453,-0.08935547,0.230957
5085,83.4375,272.8125,96.25,-0.5566406,0.6923828,-1.26709,0.1533203,-0.08935547,0.2402344
5089,82.8125,292.0625,123.5,-0.6303711,0.6962891,-1.455566,0.1293945,-0.08544922,0.2592773
5093,100.625,313.3125,144.0625,-0.4946289,0.4165039,-1.494141,0.1020508,-0.08300781,0.2705078
5097,139.8125,334.75,169,-0.5527344,0.3662109,-1.397949,0.08056641,-0.08056641,0.28125
5101,172.875,345.625,169.3125,-0.9750977,0.6811523,-1.109375,0.04882813,-0.06933594,0.2895508
5105,142.875,270.125,116.3125,-1.381836,0.9179688,-0.840332,0.01660156,-0.0546875,0.2973633
5109,108.75,214.6875,65.1875,-0.9711914,0.5878906,-0.559082,-0.001953125,-0.04589844,0.300293
5113,91.875,176.5625,53.3125,-0.6728516,0.3779297,-0.324707,-0.0234375,-0.03320313,0.300293
5117,75.5625,136.1875,58.875,-0.5449219,0.3857422,-0.2783203,-0.0390625,-0.02587891,0.3032227
5121,65.5,104.3125,60,-0.3007813,0.1640625,-0.1708984,-0.04736328,-0.01806641,0.300293
5125,71.1875,68.9375,58.625,-0.05664063,0.02832031,-0.2861328,-0.05810547,-0.01171875,0.2963867
5129,66.4375,58.125,54.8125,0.02441406,0.2226563,-0.3666992,-0.06152344,-0.001953125,0.2949219
5133,26.6875,47.5,35.375,-0.02587891,0.3466797,-0.2744141,-0.06494141,0.002441406,0.2949219
5138,-5.8125,23.125,12.5625,-0.07617188,0.06298828,-0.2514648,-0.06982422,0.00390625,0.2949219
5142,-5.0625,-6,-0.625,-0.08007813,-0.1269531,-0.309082,-0.07128906,0.00390625,0.293457
5146,5.125,-33,-6.4375,-0.002441406,-0.1459961,-0.4399414,-0.06884766,0.004882813,0.2963867
5150,14.5625,-42.0625,-10.6875,0.2954102,-0.1191406,-0.5322266,-0.06640625,0.00390625,0.2963867
5154,14.5,-34.5,-11.75,0.4038086,-0.02587891,-0.5786133,-0.06298828,0.004882813,0.293457
5158,6.75,-29.5625,-14.4375,0.3378906,0.08642578,-0.5976563,-0.06152344,0.004882813,0.2949219
5162,-0.0625,-32.0625,-15.5625,0.3535156,0.05908203,-0.6401367,-0.05810547,0.006347656,0.2963867
5166,-3.5,-28.875,-9.0625,0.3188477,0.1137695,-0.644043,-0.05566406,0.006347656,0.2963867
5170,-19.0625,-30.875,-8.5,0.206543,0.2265625,-0.6054688,-0.05419922,0.00390625,0.2963867
5174,-39.25,-45.75,-17.5,0.05126953,0.1835938,-0.6015625,-0.04980469,0,0.2963867
5178,-44.125,-61.9375,-21.625,0.06689453,0.02050781,-0.574707,-0.04492188,-0.003417969,0.2973633
5182,-41.5625,-76.1875,-27.9375,-0.01416016,0.05908203,-0.6362305,-0.04003906,-0.005859375,0.2988281
5186,-45.8125,-94.125,-42.875,-0.01806641,0.1020508,-0.6708984,-0.03417969,-0.009277344,0.2988281
5190,-46.0625,-110.9375,-53.9375,-0.02197266,0.08642578,-0.7783203,-0.0234375,-0.015625,0.2988281
5194,-42.5625,-118.75,-56.75,0.02441406,0.140625,-0.7861328,-0.01513672,-0.01953125,0.300293
5198,-43.3125,-127.0625,-55,-0.05664063,0.2456055,-0.809082,-0.001953125,-0.0234375,0.2988281
5202,-46.0625,-141.1875,-53.3125,-0.1728516,0.3623047,-0.8710938,0.01074219,-0.02929688,0.2988281
5206,-55.5,-155.6875,-61.875,-0.02978516,0.3232422,-0.9746094,0.01757813,-0.03173828,0.2973633
5210,-52.1875,-149.8125,-58.5625,-0.01416016,0.3081055,-0.894043,0.03564453,-0.03808594,0.2949219
5214,-46.0625,-145.4375,-39.6875,-0.09130859,0.3974609,-0.7285156,0.04882813,-0.04199219,0.2910156
5218,-48.25,-148.9375,-18.5,-0.4750977,0.6381836,-0.6787109,0.05712891,-0.04443359,0.2910156
5222,-64.25,-176.375,-18.3125,-0.3974609,0.5214844,-0.8168945,0.07373047,-0.04833984,0.2851563
