Packet number,Gyroscope X (deg/s),Gyroscope Y (deg/s),Gyroscope Z (deg/s),Accelerometer X (g),Accelerometer Y (g),Accelerometer Z (g),Magnetometer X (G),Magnetometer Y (G),Magnetometer Z (G)
1,-5.6875,2.375,-5.25,0.9853516,-0.1230469,-0.02832031,-0.2890625,-0.07958984,-0.06787109
5,-5.4375,2.8125,-6.25,0.9892578,-0.1381836,-0.03613281,-0.2900391,-0.07958984,-0.06787109
9,-4.3125,2.5625,-5,0.9775391,-0.1499023,-0.02050781,-0.2890625,-0.07958984,-0.06640625
13,-4.75,1.3125,-3.6875,0.9814453,-0.1616211,-0.03613281,-0.2890625,-0.07958984,-0.07080078
17,-3.5,1.1875,-3.3125,0.9697266,-0.1655273,-0.02050781,-0.2890625,-0.08056641,-0.06640625
21,-2.625,1.0625,-1.6875,0.9658203,-0.1538086,-0.02050781,-0.2890625,-0.08056641,-0.07080078
25,-1.9375,0.0625,0,0.9580078,-0.1459961,-0.01660156,-0.2890625,-0.08056641,-0.06787109
29,-1.625,0.75,-0.5,0.9931641,-0.1191406,0.005859375,-0.2915039,-0.08203125,-0.06787109
33,-4.1875,2.125,-1.625,0.9892578,-0.1035156,0.009765625,-0.2890625,-0.08056641,-0.06787109
37,-7.375,2.4375,-1.1875,0.9814453,-0.1420898,-0.01318359,-0.2875977,-0.08203125,-0.06933594
41,-5.1875,1,-0.4375,0.9892578,-0.1811523,-0.01318359,-0.2890625,-0.08203125,-0.06787109
45,-2.125,1.125,-0.3125,0.9853516,-0.1694336,-0.01318359,-0.2900391,-0.08056641,-0.06933594
49,-2.3125,1.625,-2.5625,0.9814453,-0.1191406,-0.02832031,-0.2875977,-0.07958984,-0.06933594
53,-5.3125,1.1875,-3.125,0.9541016,-0.1230469,-0.03613281,-0.2875977,-0.08203125,-0.07080078
57,-7,0.4375,-2,0.9541016,-0.1538086,-0.02441406,-0.2900391,-0.08300781,-0.07177734
61,-5.4375,-1.0625,0,0.9580078,-0.1733398,-0.02832031,-0.2890625,-0.08056641,-0.06933594
65,-3.625,-1.1875,1,0.9970703,-0.1616211,-0.001464844,-0.2890625,-0.08203125,-0.07080078
69,-3.75,-0.1875,0.5625,0.9931641,-0.1420898,0.009765625,-0.2875977,-0.08056641,-0.07080078
73,-5.5,1.25,0.0625,0.9853516,-0.1538086,-0.01318359,-0.2900391,-0.08056641,-0.06933594
77,-6.1875,1.625,1.8125,0.9580078,-0.1733398,-0.02832031,-0.2875977,-0.08203125,-0.06933594
81,-2.0625,-1.375,3.375,0.9389648,-0.2006836,-0.02050781,-0.2890625,-0.07958984,-0.06933594
85,4.4375,-3.1875,5.0625,0.9580078,-0.1850586,-0.005371094,-0.2900391,-0.08056641,-0.07080078
89,10.1875,-5.6875,6.5625,0.9580078,-0.1152344,0.001953125,-0.2890625,-0.07958984,-0.07177734
93,10.375,-5.4375,2.9375,1.027832,-0.02978516,0.03662109,-0.2900391,-0.08056641,-0.07080078
97,4.3125,-0.5625,-2.25,1.000488,-0.002441406,0.02099609,-0.2915039,-0.07958984,-0.06933594
101,-3.5,-0.6875,-3.375,0.9736328,-0.04882813,0.001953125,-0.2890625,-0.07958984,-0.06787109
106,-4.3125,-0.6875,-2.5625,0.9814453,-0.1308594,-0.001464844,-0.2900391,-0.08203125,-0.06933594
110,1.9375,-2.4375,-2.9375,0.9619141,-0.1655273,-0.009277344,-0.2890625,-0.07958984,-0.06933594
114,9.25,-3.625,-2.75,0.9892578,-0.1772461,-0.001464844,-0.2890625,-0.08203125,-0.07080078
118,10.875,-4.375,0.6875,1.004395,-0.1616211,-0.01660156,-0.2875977,-0.08056641,-0.06933594
122,11.125,-4.3125,2.6875,1.000488,-0.1733398,-0.07080078,-0.2890625,-0.08056641,-0.07080078
126,12.8125,-7.1875,6.8125,0.9853516,-0.1928711,-0.1166992,-0.2875977,-0.08056641,-0.06542969
130,19.125,-9.625,7.625,0.9970703,-0.2241211,-0.128418,-0.2875977,-0.08056641,-0.06933594
134,29.0625,-14.4375,9.625,0.9814453,-0.2202148,-0.1323242,-0.2890625,-0.08056641,-0.06640625
138,36.0625,-20,11.0625,1.008301,-0.1694336,-0.128418,-0.2890625,-0.07958984,-0.06396484
142,39.6875,-23.75,11.3125,1.05127,-0.1035156,-0.109375,-0.2915039,-0.08056641,-0.06103516
146,38.4375,-24,5.125,1.089844,-0.02587891,-0.08203125,-0.2900391,-0.07958984,-0.05957031
150,32.1875,-21.8125,-2.75,1.059082,0.008789063,-0.05908203,-0.2900391,-0.07958984,-0.05859375
154,23,-22.25,-9.75,1.027832,-0.02587891,-0.05126953,-0.2915039,-0.07958984,-0.05419922
158,15.25,-22.8125,-10.6875,1.016113,-0.1113281,-0.04394531,-0.2915039,-0.08056641,-0.05419922
162,12.3125,-21.875,-9.625,0.9658203,-0.1616211,-0.05517578,-0.2900391,-0.08447266,-0.05273438
166,14.5625,-23.75,-10.125,0.9541016,-0.2163086,-0.02832031,-0.2900391,-0.08300781,-0.05029297
170,19.75,-21.375,-7.4375,0.9775391,-0.2470703,0.02099609,-0.2915039,-0.08300781,-0.04882813
174,22.0625,-18.625,-5,0.9736328,-0.2275391,0.001953125,-0.2924805,-0.08447266,-0.04638672
178,23,-17.5,-2.625,0.9501953,-0.2275391,-0.04003906,-0.2915039,-0.08544922,-0.04638672
182,22.5625,-17,2.375,0.9658203,-0.2275391,-0.05517578,-0.2924805,-0.08691406,-0.04199219
186,22.5,-17.125,7,0.9580078,-0.2392578,-0.09375,-0.293457,-0.08544922,-0.04052734
190,22.8125,-20.0625,13.9375,0.9775391,-0.2392578,-0.128418,-0.2915039,-0.08300781,-0.03955078
194,25.875,-23.5625,17.0625,0.9970703,-0.2045898,-0.1938477,-0.293457,-0.08300781,-0.03808594
198,24.375,-27.125,17.375,1.004395,-0.1538086,-0.2631836,-0.293457,-0.08056641,-0.03662109
202,19.0625,-31.875,19.1875,1.027832,-0.1381836,-0.34375,-0.293457,-0.08056641,-0.03369141
206,14.125,-37.5625,17.1875,1.012207,-0.1381836,-0.3974609,-0.2949219,-0.07958984,-0.02978516
210,4.0625,-43.75,17.5,1.074219,-0.1381836,-0.4052734,-0.2949219,-0.07714844,-0.02587891
214,-3.75,-45.5,15.6875,1.074219,-0.1811523,-0.3901367,-0.2949219,-0.07568359,-0.02148438
218,-6.875,-53.0625,12.5625,0.9892578,-0.2124023,-0.4555664,-0.2958984,-0.07421875,-0.02050781
222,-9.0625,-61,12.1875,1.070313,-0.2314453,-0.4824219,-0.2973633,-0.07421875,-0.01367188
226,-9.25,-64.75,8.5625,1.089844,-0.2744141,-0.5361328,-0.2973633,-0.07324219,-0.008300781
230,-7.8125,-73.5,7.875,1.09375,-0.324707,-0.6552734,-0.2983398,-0.07324219,-0.005371094
235,-4.5625,-86.6875,7.25,1.035645,-0.3095703,-0.8515625,-0.2958984,-0.07177734,0.002441406
239,-6.3125,-103.375,8.6875,1.132324,-0.2978516,-0.9594727,-0.2983398,-0.07080078,0.009277344
243,-10.875,-118.0625,8.8125,1.097656,-0.3520508,-1.121094,-0.2983398,-0.07080078,0.01708984
247,-14.0625,-138.125,12,1.101563,-0.402832,-1.151855,-0.2983398,-0.06835938,0.02978516
251,-13.75,-159,19.4375,1.085938,-0.4414063,-1.128418,-0.2983398,-0.06835938,0.04052734
255,-9.5,-177.8125,27,1.159668,-0.4492188,-1.043945,-0.2958984,-0.06591797,0.05126953
259,-5.25,-191.625,33.625,1.179199,-0.3793945,-0.9941406,-0.2915039,-0.06298828,0.06884766
263,-7.375,-202.4375,34.9375,1.279785,-0.2587891,-0.859375,-0.2900391,-0.06054688,0.08789063
267,-13.5625,-202.875,27.875,1.159668,-0.1308594,-0.9208984,-0.2851563,-0.05712891,0.1000977
271,-32.375,-212.4375,27.75,1.229492,-0.1811523,-0.859375,-0.2792969,-0.0546875,0.1191406
275,-38.1875,-216.625,32.4375,1.163574,-0.3056641,-0.8364258,-0.2724609,-0.0546875,0.137207
279,-34.375,-220.1875,33.8125,1.225586,-0.3481445,-0.8515625,-0.2651367,-0.05322266,0.1508789
283,-30.75,-220.6875,29.75,1.241211,-0.2626953,-0.859375,-0.2543945,-0.05078125,0.1699219
287,-31.8125,-217.3125,22.875,1.089844,-0.2275391,-0.9477539,-0.2426758,-0.05175781,0.1875
291,-41.0625,-218.6875,22.625,1.113281,-0.2163086,-1.028809,-0.2329102,-0.05078125,0.1967773
295,-46.5625,-227.5,16,0.9116211,-0.2202148,-1.182617,-0.2197266,-0.05078125,0.2143555
299,-55.625,-242.8125,29.1875,0.8574219,-0.402832,-1.217285,-0.203125,-0.05322266,0.2294922
303,-50.625,-257.3125,44.6875,0.9501953,-0.5268555,-1.151855,-0.1899414,-0.05566406,0.2392578
307,-39.9375,-264.8125,50.6875,0.9155273,-0.4414063,-1.066895,-0.168457,-0.05712891,0.2524414
311,-36.9375,-254.0625,51.9375,1.124512,-0.2822266,-0.8476563,-0.1484375,-0.05810547,0.2661133
315,-37.875,-249.9375,44.5625,0.8920898,-0.1811523,-0.9130859,-0.1318359,-0.05712891,0.2744141
319,-50.25,-249.25,49.9375,0.8496094,-0.1577148,-0.878418,-0.1079102,-0.05810547,0.2841797
323,-63.8125,-245.75,52.5,0.7568359,-0.1850586,-0.7441406,-0.08642578,-0.06591797,0.2910156
327,-69.5,-236.125,57.4375,0.7993164,-0.2783203,-0.3745117,-0.06982422,-0.06689453,0.2963867
331,-52.3125,-194.4375,53.5625,0.8881836,-0.3134766,0.02099609,-0.04833984,-0.07324219,0.2988281
335,-26.6875,-152.1875,40.875,0.7099609,-0.2124023,0.03271484,-0.02929688,-0.07714844,0.3032227
339,-14,-117.3125,28.3125,0.3188477,0.04003906,-0.1054688,-0.0234375,-0.07714844,0.3032227
343,-19,-90.25,17.875,0.2724609,0.1914063,-0.112793,-0.01025391,-0.08056641,0.3032227
347,-33.75,-65.25,11.0625,0.1054688,0.1523438,-0.1015625,-0.003417969,-0.08300781,0.3017578
351,-37.75,-40.6875,11.75,0.1015625,-0.02587891,-0.01660156,0.002441406,-0.08691406,0.300293
355,-21.625,-12.4375,3.5625,-0.01806641,-0.1269531,-0.1630859,0.003417969,-0.09082031,0.3017578
359,1.4375,0.8125,4.375,-0.06445313,-0.1269531,-0.3012695,0.005859375,-0.09082031,0.300293
364,10.875,7.6875,-0.125,-0.2426758,0.08642578,-0.5629883,0.004394531,-0.09179688,0.3017578
368,2.25,8.5,-2.9375,-0.2041016,0.1679688,-0.5244141,0.002441406,-0.08691406,0.3017578
372,-6.0625,17.5625,-7.0625,-0.1186523,0.06298828,-0.5014648,0.002441406,-0.09082031,0.3032227
376,-3.6875,28.4375,-7.6875,-0.1303711,-0.1230469,-0.5209961,0,-0.09082031,0.3017578
380,5.875,35.125,-5.4375,-0.1499023,-0.1655273,-0.5864258,-0.001953125,-0.08837891,0.3017578
384,14.625,44.5625,-3.375,-0.07226563,-0.1347656,-0.6479492,-0.004394531,-0.08837891,0.3017578
388,23.9375,46.75,-4.9375,-0.1728516,-0.1269531,-0.7553711,-0.009277344,-0.08837891,0.300293
392,27,51.9375,-6.75,-0.03710938,-0.04882813,-0.7861328,-0.01269531,-0.08447266,0.3017578
396,22,56.5,-8.375,-0.03710938,0.0009765625,-0.7631836,-0.01855469,-0.08300781,0.3017578
400,11.9375,67.1875,-5.625,0.09375,-0.01025391,-0.609375,-0.02246094,-0.07958984,0.3017578
404,7.125,86.375,-7.1875,0.3266602,-0.04541016,-0.4667969,-0.02929688,-0.078125,0.300293
408,12.0625,114.375,-19.4375,0.2875977,-0.07226563,-0.7285156,-0.0390625,-0.078125,0.3017578
412,14.8125,113.125,-26.3125,-0.04101563,-0.07226563,-1.047852,-0.04589844,-0.07714844,0.300293
416,5.6875,105.0625,-14.75,0.1171875,-0.08007813,-0.8979492,-0.05664063,-0.07421875,0.2973633
420,-1.5625,111.625,-5.0625,0.3339844,-0.1967773,-0.5864258,-0.06884766,-0.07714844,0.293457
424,12.9375,140.1875,-6.125,0.5239258,-0.2587891,-0.7402344,-0.07568359,-0.07714844,0.293457
428,31.1875,139.4375,-14.375,0.175293,-0.2470703,-1.094238,-0.08886719,-0.07421875,0.2880859
432,29.9375,132.0625,-2,0.08251953,-0.1499023,-1.478516,-0.1030273,-0.07080078,0.2851563
436,10.375,100.6875,21.25,0.02441406,-0.1420898,-1.367188,-0.1103516,-0.07080078,0.28125
440,-3.875,90.375,45.125,0.4155273,-0.2509766,-0.9130859,-0.1201172,-0.06689453,0.2797852
444,12.4375,117.375,33.75,0.7641602,-0.1577148,-0.9287109,-0.1293945,-0.06591797,0.2729492
448,23.4375,121.3125,11.8125,0.5161133,-0.09960938,-0.9707031,-0.1352539,-0.06298828,0.2705078
452,18.125,129.625,6.125,0.3305664,-0.06054688,-1.293945,-0.1484375,-0.06201172,0.2636719
456,11.5,104.375,6.9375,0.3496094,-0.2275391,-1.078613,-0.1567383,-0.05957031,0.2583008
460,12.125,111.25,15.75,0.6557617,-0.3676758,-0.6171875,-0.1640625,-0.06054688,0.2568359
464,22.8125,127.3125,17.375,0.9389648,-0.4726563,-0.2246094,-0.1733398,-0.05810547,0.25
468,37.9375,161.75,11.875,1.059082,-0.5073242,-0.1782227,-0.1855469,-0.0546875,0.2416992
472,63.1875,186.8125,-0.875,0.8417969,-0.3095703,-0.7402344,-0.1938477,-0.05175781,0.2333984
476,62.875,173.5,-19.875,0.5126953,-0.08007813,-1.040039,-0.2080078,-0.04589844,0.2241211
480,36.3125,170.375,-12.9375,0.8110352,-0.1347656,-0.8056641,-0.2197266,-0.04443359,0.2104492
484,16.1875,177.625,-8.3125,0.9580078,-0.3208008,-0.5209961,-0.2280273,-0.04443359,0.2021484
488,10.6875,194.6875,4.75,1.186523,-0.5966797,-0.4399414,-0.2387695,-0.04199219,0.1889648
493,46.0625,206.375,-0.3125,0.9350586,-0.6513672,-0.7822266,-0.2495117,-0.04199219,0.1738281
497,73.0625,191.5625,-2.0625,0.8222656,-0.4921875,-0.9248047,-0.2592773,-0.03955078,0.1616211
501,69.75,184.625,2.625,0.9389648,-0.3017578,-0.9091797,-0.2651367,-0.03710938,0.1464844
505,48.375,179.5625,9.125,1.132324,-0.2861328,-0.7167969,-0.2734375,-0.03466797,0.1303711
509,28,187.875,19.0625,1.241211,-0.3911133,-0.6132813,-0.2783203,-0.03173828,0.1181641
513,37.1875,188.875,22.1875,1.229492,-0.5581055,-0.6708984,-0.2851563,-0.03076172,0.1015625
517,56.75,179,25,1.237305,-0.5541992,-0.6938477,-0.2900391,-0.02832031,0.08691406
521,77,173.5625,17.75,1.109375,-0.371582,-0.8862305,-0.293457,-0.02685547,0.07421875
525,67.875,157.6875,15.9375,1.186523,-0.2006836,-0.8208008,-0.2973633,-0.02197266,0.05664063
529,51.1875,154.625,13.125,1.260254,-0.2783203,-0.6591797,-0.2973633,-0.01953125,0.04443359
533,44.0625,155.875,8.1875,1.349609,-0.3793945,-0.4902344,-0.2983398,-0.01953125,0.03369141
537,42.125,154.9375,7.875,1.260254,-0.46875,-0.4477539,-0.2998047,-0.01708984,0.01708984
541,51.6875,152.4375,5.9375,1.229492,-0.534668,-0.4360352,-0.2973633,-0.01806641,0.00390625
545,58.75,143.1875,7.0625,1.117188,-0.4648438,-0.4555664,-0.2983398,-0.01806641,-0.005371094
549,60.9375,135.4375,5,1.159668,-0.4296875,-0.359375,-0.2973633,-0.015625,-0.01757813
553,58.1875,133,0.375,1.19043,-0.3989258,-0.2705078,-0.2958984,-0.01708984,-0.02832031
557,48.5,132.4375,-1.625,1.186523,-0.3911133,-0.2016602,-0.2949219,-0.01806641,-0.03808594
561,38.625,131.9375,-5.875,1.171387,-0.4453125,-0.1206055,-0.2915039,-0.02050781,-0.05175781
565,33.1875,133.25,-1.1875,1.175293,-0.550293,-0.07080078,-0.2890625,-0.01806641,-0.0625
569,39.9375,128.1875,5.625,1.101563,-0.6279297,-0.009277344,-0.2851563,-0.01806641,-0.06787109
573,58.3125,130.4375,6.3125,1.13623,-0.6005859,-0.1054688,-0.2817383,-0.01708984,-0.08007813
577,69.5625,125.875,2.125,1.023926,-0.4335938,-0.2783203,-0.2792969,-0.01953125,-0.08837891
581,65.9375,114.4375,1.5,0.9350586,-0.3017578,-0.4863281,-0.2758789,-0.02050781,-0.09765625
585,54.8125,99.4375,-3,0.8999023,-0.2045898,-0.6362305,-0.2724609,-0.02197266,-0.1074219
589,32.6875,64.6875,23.25,0.4077148,-0.324707,-0.9438477,-0.2685547,-0.0234375,-0.1142578
593,35.625,48.875,4.25,1.155762,-0.3095703,-0.4169922,-0.2685547,-0.02197266,-0.1166992
597,37.375,44.375,-11.125,0.7836914,-0.2822266,-0.3974609,-0.2651367,-0.02197266,-0.1210938
601,27.75,28.375,-8.875,0.7680664,-0.2978516,-0.3745117,-0.2626953,-0.02587891,-0.1235352
605,16.0625,16.9375,-6.75,0.8300781,-0.3017578,-0.2475586,-0.2661133,-0.02441406,-0.125
609,10.4375,8.375,-8.625,0.7875977,-0.3134766,-0.1552734,-0.2617188,-0.02685547,-0.1264648
613,0.25,-0.75,-2,0.7490234,-0.3095703,-0.112793,-0.2626953,-0.02832031,-0.1264648
617,-6.5625,-9.5625,4.75,0.8110352,-0.3208008,-0.009277344,-0.2626953,-0.02832031,-0.1264648
622,-9.0625,-13.8125,8.5625,0.8110352,-0.3208008,0.04785156,-0.2626953,-0.02832031,-0.1264648
626,-7.3125,-17.9375,7.9375,0.8378906,-0.3173828,0.1171875,-0.2626953,-0.02832031,-0.1235352
630,-0.5625,-16.3125,-0.375,0.9853516,-0.3208008,0.2558594,-0.2636719,-0.02587891,-0.1235352
634,2.5,-10.4375,-4.8125,0.9233398,-0.2900391,0.2368164,-0.2651367,-0.02587891,-0.1235352
638,-1.5,-11.5625,-3,0.8769531,-0.2587891,0.2060547,-0.2661133,-0.02685547,-0.1210938
642,-8.4375,-13.5,-1.0625,0.8803711,-0.2353516,0.1289063,-0.2651367,-0.02685547,-0.1210938
646,-16.5625,-15.25,0.6875,0.9501953,-0.1967773,0.07519531,-0.2661133,-0.02587891,-0.1210938
650,-22.125,-14.75,-8.4375,0.9775391,-0.1850586,0.009765625,-0.2661133,-0.02587891,-0.1196289
654,-32.6875,-14.8125,-14.75,0.9658203,-0.1733398,-0.09375,-0.2675781,-0.02587891,-0.1196289
658,-44.5,-23.5,-17.1875,0.9194336,-0.2084961,-0.1821289,-0.2685547,-0.02587891,-0.1166992
662,-53.125,-30.9375,-23.4375,0.9541016,-0.2509766,-0.2285156,-0.2685547,-0.02587891,-0.112793
666,-58.25,-40.375,-25.6875,0.9194336,-0.3095703,-0.3012695,-0.2709961,-0.02685547,-0.1113281
670,-63.1875,-55.375,-22.75,0.8881836,-0.3208008,-0.3554688,-0.2709961,-0.02832031,-0.1088867
674,-66.9375,-68.8125,-24.1875,0.9501953,-0.2900391,-0.3706055,-0.2744141,-0.02832031,-0.1035156
678,-71.0625,-79.6875,-29.4375,0.9658203,-0.2861328,-0.3823242,-0.2783203,-0.02929688,-0.1005859
682,-66.125,-89.25,-36.9375,1.02002,-0.3989258,-0.3554688,-0.2792969,-0.02929688,-0.09228516
686,-56.9375,-102.375,-37.5625,0.9580078,-0.4335938,-0.3823242,-0.2817383,-0.03320313,-0.08447266
690,-43,-115.6875,-37.9375,0.9970703,-0.4453125,-0.4091797,-0.2851563,-0.03320313,-0.07861328
694,-36.75,-128.125,-33.6875,1.004395,-0.3325195,-0.4667969,-0.2875977,-0.03710938,-0.06933594
698,-47.0625,-141.9375,-26.4375,0.9580078,-0.2314453,-0.5629883,-0.2915039,-0.03955078,-0.05712891
702,-67.5,-152.25,-24.125,1.206055,-0.1733398,-0.4824219,-0.293457,-0.04052734,-0.04882813
706,-74.6875,-145.9375,-40.3125,1.268066,-0.3017578,-0.4130859,-0.2949219,-0.04199219,-0.03662109
710,-65.8125,-149.8125,-49.625,1.155762,-0.4296875,-0.4321289,-0.2983398,-0.04443359,-0.02441406
714,-53.9375,-161.375,-41.4375,1.13623,-0.5307617,-0.4516602,-0.2998047,-0.04931641,-0.01464844
718,-40.625,-171.125,-28.4375,1.147949,-0.5268555,-0.4863281,-0.2998047,-0.05078125,0.0009765625
722,-39.125,-184.8125,-9.75,1.117188,-0.402832,-0.6054688,-0.2983398,-0.05322266,0.01708984
726,-39.5625,-184.6875,-15.625,1.341797,-0.2666016,-0.5361328,-0.2998047,-0.0546875,0.02539063
730,-52.6875,-180.4375,-19,1.364746,-0.2626953,-0.4555664,-0.2998047,-0.05566406,0.04199219
734,-54.875,-176.6875,-20.4375,1.388184,-0.3754883,-0.3823242,-0.2949219,-0.05712891,0.06103516
738,-39.75,-174.0625,-17.25,1.244629,-0.4765625,-0.4746094,-0.2949219,-0.05957031,0.07177734
742,-29.8125,-189.875,12.875,1.02002,-0.5268555,-0.7670898,-0.2890625,-0.06054688,0.08691406
746,-3.875,-189.375,9.4375,1.182617,-0.3173828,-0.8017578,-0.2841797,-0.06054688,0.1030273
751,-4.1875,-197.5,4.0625,1.271973,-0.1035156,-0.7900391,-0.2807617,-0.05957031,0.1152344
755,-14.375,-180.125,-15.375,1.364746,-0.01025391,-0.7016602,-0.2734375,-0.05957031,0.1328125
759,-32.625,-173.375,-19.5,1.241211,-0.1269531,-0.7592773,-0.2661133,-0.06201172,0.1479492
763,-29.5625,-174.75,-13.125,1.066406,-0.3095703,-0.8862305,-0.2592773,-0.06445313,0.1572266
767,-17.6875,-186.1875,-0.4375,0.8417969,-0.324707,-1.013184,-0.2509766,-0.06445313,0.1738281
771,-21.9375,-198.625,7.75,0.9038086,-0.1459961,-0.9477539,-0.2387695,-0.06689453,0.1875
775,-40.1875,-189.0625,1,0.9462891,-0.07226563,-0.9091797,-0.2319336,-0.06689453,0.1967773
779,-55.25,-183.9375,-3.5,0.9194336,-0.2392578,-0.8671875,-0.2197266,-0.07080078,0.2104492
783,-50.875,-184,-1.125,0.7529297,-0.3989258,-0.9399414,-0.2055664,-0.07568359,0.2226563
787,-31.25,-190.75,4.25,0.59375,-0.4804688,-1.144043,-0.199707,-0.07714844,0.2324219
791,-22,-210.625,26.125,0.4931641,-0.4335938,-1.313477,-0.184082,-0.078125,0.2431641
795,-28.25,-230.5,45.8125,0.6015625,-0.2822266,-1.447754,-0.1674805,-0.078125,0.2539063
799,-30.5625,-233.9375,37.25,0.8261719,-0.1420898,-1.244141,-0.1533203,-0.078125,0.2607422
803,-43.5,-228.25,31.1875,0.9038086,-0.06835938,-0.9863281,-0.1328125,-0.08203125,0.2705078
807,-52.25,-216.375,27,0.7451172,-0.1459961,-0.8823242,-0.112793,-0.08447266,0.28125
811,-47.0625,-211.6875,38.5,0.6362305,-0.3911133,-0.7631836,-0.1020508,-0.08544922,0.2866211
815,-38.3125,-202.8125,59.3125,0.4814453,-0.3520508,-0.7475586,-0.08056641,-0.08935547,0.2910156
819,-44.0625,-195,80.4375,0.5898438,-0.2548828,-0.5898438,-0.06298828,-0.09179688,0.2919922
823,-22.5625,-151.375,52.9375,0.8574219,-0.09960938,-0.2207031,-0.04980469,-0.09570313,0.2963867
827,-1.8125,-106,16.3125,0.6210938,0.171875,-0.1591797,-0.03759766,-0.09716797,0.2988281
831,-3.0625,-70.4375,-4.75,0.3730469,0.2070313,-0.1552734,-0.03173828,-0.09716797,0.2973633
835,-13.875,-39.375,-12.1875,0.1791992,0.1757813,-0.324707,-0.02490234,-0.09716797,0.2988281
839,-19.5,-24.875,-7.125,0.03564453,0.03222656,-0.4130859,-0.02099609,-0.09960938,0.2988281
843,-20.8125,-16.5625,-3.8125,-0.1342773,0.02050781,-0.5898438,-0.02001953,-0.1005859,0.2973633
847,-17.625,-17.125,0.625,-0.07617188,0.02832031,-0.6479492,-0.01757813,-0.09960938,0.2973633
851,-12.3125,-13.5,-5.5625,-0.06445313,0.05908203,-0.5668945,-0.01513672,-0.1069336,0.2988281
855,-5.5,1.875,-16.25,-0.006347656,0.05126953,-0.5551758,-0.01513672,-0.1069336,0.2988281
859,-2.3125,8.0625,-17.5,-0.09521484,-0.02587891,-0.609375,-0.01513672,-0.1044922,0.2973633
863,2.375,14.8125,-16.3125,-0.1186523,-0.02197266,-0.6821289,-0.01416016,-0.1069336,0.300293
867,-0.5625,16.5,-10.625,-0.1108398,-0.03369141,-0.7055664,-0.01611328,-0.1069336,0.300293
871,1.0625,21.625,-9.375,-0.1499023,-0.1152344,-0.7475586,-0.01757813,-0.1083984,0.2988281
875,6.875,23.1875,-6.0625,-0.1303711,-0.1459961,-0.809082,-0.01855469,-0.1054688,0.2973633
880,17.875,23.5625,-7.125,-0.1108398,-0.1308594,-0.8168945,-0.02246094,-0.1044922,0.2973633
884,22.0625,28.5625,-9.3125,-0.1147461,-0.08007813,-0.878418,-0.02246094,-0.1005859,0.2973633
888,21.125,28.875,-7.75,-0.08007813,-0.06445313,-0.9052734,-0.02685547,-0.09960938,0.2988281
892,19.8125,34.75,-8.125,-0.09521484,-0.08398438,-0.9633789,-0.03076172,-0.09814453,0.2973633
896,15.8125,33.875,-3.875,-0.09521484,-0.06835938,-0.9438477,-0.03076172,-0.09716797,0.2973633
900,12.125,39.3125,0.875,0.008789063,-0.1074219,-0.8364258,-0.03515625,-0.09570313,0.2988281
904,13.125,49.25,4.25,0.09033203,-0.1655273,-0.7670898,-0.0390625,-0.09423828,0.2973633
908,25.3125,61.9375,-5,0.02832031,-0.1308594,-0.9555664,-0.04248047,-0.09179688,0.2963867
912,30.875,56.875,-5.5625,-0.01806641,-0.08398438,-0.9516602,-0.04980469,-0.08935547,0.2973633
916,26.625,62.75,0.375,0.1289063,-0.08398438,-0.7822266,-0.05566406,-0.08544922,0.2963867
920,26.6875,76.875,4.4375,0.3417969,-0.1420898,-0.628418,-0.06054688,-0.08691406,0.2963867
924,32.5625,97.5,-15.1875,0.09765625,-0.05273438,-0.9169922,-0.06738281,-0.08203125,0.2949219
928,32.6875,93.875,-11.75,0.1831055,-0.1035156,-1.036133,-0.07714844,-0.08056641,0.2919922
932,29.25,89.6875,-14.3125,-0.01416016,-0.06835938,-1.090332,-0.08398438,-0.07714844,0.2949219
936,22.9375,87.875,-6.1875,0.2758789,-0.1655273,-0.9169922,-0.09130859,-0.07324219,0.2895508
940,24.6875,93.8125,-3.5625,0.2758789,-0.2705078,-0.8671875,-0.09960938,-0.07324219,0.2866211
944,34.5625,105.25,-17.0625,0.1015625,-0.09960938,-1.317383,-0.1054688,-0.07177734,0.2851563
948,25.875,76.4375,-10.5,0.02050781,-0.1459961,-1.413086,-0.1137695,-0.06835938,0.2797852
952,13.75,65,1.4375,-0.01416016,-0.2006836,-1.409668,-0.1235352,-0.06591797,0.2797852
956,5.5625,46.625,21.4375,0.1674805,-0.3364258,-1.128418,-0.1259766,-0.06591797,0.2773438
960,13.6875,51.4375,33.4375,0.4658203,-0.4570313,-0.7324219,-0.1293945,-0.06591797,0.2758789
964,40.0625,76.9375,32.125,0.7568359,-0.453125,-0.6669922,-0.1352539,-0.06201172,0.2714844
968,63.875,90.0625,7.4375,0.3613281,-0.1655273,-0.9824219,-0.1425781,-0.05712891,0.2705078
972,57.75,87.125,0.75,0.4311523,-0.006347656,-1.001465,-0.1494141,-0.05078125,0.2651367
976,33.5625,91.1875,4.375,0.5473633,-0.002441406,-0.809082,-0.1567383,-0.04443359,0.2607422
980,14.875,106.0625,7.4375,0.7294922,-0.1967773,-0.4438477,-0.1625977,-0.04296875,0.2583008
984,15.625,132.9375,9.875,0.9389648,-0.3676758,-0.2363281,-0.1708984,-0.04199219,0.2524414
988,38.5625,161.375,-1.25,0.8496094,-0.3637695,-0.4785156,-0.184082,-0.03955078,0.2431641
992,52.5,165.5625,-13.4375,0.6557617,-0.1928711,-0.7709961,-0.1923828,-0.03955078,0.237793
996,44.3125,161.75,-15.3125,0.6171875,-0.1420898,-0.7978516,-0.206543,-0.03564453,0.2280273
1000,26.6875,163.9375,-5.5625,0.8574219,-0.1850586,-0.5439453,-0.21875,-0.03466797,0.2143555
1004,14,183.9375,0.625,1.109375,-0.3095703,-0.3632813,-0.222168,-0.03320313,0.2104492
1009,16.875,204.5,-13,0.7138672,-0.1308594,-0.7939453,-0.2363281,-0.03173828,0.1953125
1013,8.75,190.4375,-7,0.8339844,-0.2822266,-0.8554688,-0.2470703,-0.03320313,0.1791992
1017,13.5,189.875,-12.4375,0.7099609,-0.3056641,-0.9746094,-0.253418,-0.03320313,0.1669922
1021,12.1875,176.4375,-4.9375,0.8803711,-0.4067383,-0.8168945,-0.2651367,-0.03320313,0.1518555
1025,4.5,179.5625,10.375,1.055176,-0.46875,-0.5786133,-0.2709961,-0.03320313,0.1357422
1029,9.125,190.9375,21.625,1.128418,-0.5073242,-0.7514648,-0.2758789,-0.03076172,0.1259766
1033,21.125,179.3125,14,0.8378906,-0.3208008,-0.9477539,-0.2841797,-0.03076172,0.1083984
1037,23.8125,168.3125,14.9375,1.004395,-0.3286133,-0.9399414,-0.2900391,-0.02929688,0.09326172
1041,26.4375,156.3125,13.125,1.000488,-0.3286133,-0.8554688,-0.2915039,-0.02832031,0.08251953
1045,20.8125,152.0625,17.8125,1.171387,-0.3520508,-0.6401367,-0.2949219,-0.02685547,0.06884766
1049,17.5625,155.9375,17.125,1.217773,-0.355957,-0.6054688,-0.2983398,-0.02685547,0.05273438
1053,16.1875,151.9375,16.375,1.117188,-0.3637695,-0.6860352,-0.2998047,-0.0234375,0.04296875
1057,24.5,144,13.0625,1.074219,-0.4804688,-0.7324219,-0.2983398,-0.02197266,0.02685547
1061,51,128.25,6.75,1.016113,-0.565918,-0.6708984,-0.2998047,-0.02197266,0.01464844
1065,63.1875,118.4375,8.1875,1.121094,-0.4882813,-0.4975586,-0.3007813,-0.02050781,0.0078125
1069,53.3125,119,10.4375,1.241211,-0.3950195,-0.3862305,-0.3007813,-0.02197266,-0.002441406
1073,37.625,123.375,12.5625,1.225586,-0.4179688,-0.4282227,-0.3007813,-0.02050781,-0.01611328
1077,43.9375,118.125,5.625,1.089844,-0.4921875,-0.5361328,-0.2973633,-0.01953125,-0.02148438
1081,66.875,105.375,-2.5625,1.066406,-0.550293,-0.5209961,-0.2973633,-0.01953125,-0.03125
1085,83.25,94,-4.0625,1.074219,-0.4570313,-0.3901367,-0.2949219,-0.02197266,-0.04345703
1089,90.9375,90.25,-8.8125,1.124512,-0.3208008,-0.2592773,-0.2958984,-0.02197266,-0.04736328
1093,83.6875,89.6875,-11.4375,1.144043,-0.2084961,-0.1435547,-0.2915039,-0.0234375,-0.05419922
1097,72.875,94.0625,-15.1875,1.16748,-0.2241211,-0.05517578,-0.2915039,-0.02685547,-0.06542969
1101,65.75,96.3125,-17.625,1.121094,-0.2124023,-0.04003906,-0.2900391,-0.02832031,-0.06787109
1105,62.6875,96.875,-23.875,1.09375,-0.1733398,-0.05126953,-0.2851563,-0.03076172,-0.07763672
1109,61.375,93.625,-30.4375,1.023926,-0.1967773,-0.1362305,-0.2841797,-0.03466797,-0.08691406
1113,57.375,87.75,-31.75,1.008301,-0.2045898,-0.1591797,-0.2817383,-0.03710938,-0.09228516
1117,54.25,82.75,-32.625,0.9853516,-0.2392578,-0.2016602,-0.2783203,-0.04199219,-0.09912109
1121,52.375,73.9375,-31.5,0.9038086,-0.2392578,-0.2553711,-0.2758789,-0.04589844,-0.1035156
1125,46.875,62.1875,-26.6875,0.9194336,-0.2626953,-0.2822266,-0.2734375,-0.04833984,-0.1088867
1129,40.5,52.5625,-24.5625,0.8999023,-0.2314453,-0.2900391,-0.2700195,-0.05078125,-0.112793
1133,32.8125,41.75,-22.0625,0.8730469,-0.2392578,-0.2822266,-0.2700195,-0.0546875,-0.1166992
1138,29.9375,31.1875,-20.1875,0.8613281,-0.2509766,-0.2592773,-0.2685547,-0.05810547,-0.1166992
1142,28.4375,17.0625,-17.8125,0.8183594,-0.2666016,-0.2592773,-0.2675781,-0.05957031,-0.1210938
1146,26.75,5.1875,-11.25,0.8149414,-0.2744141,-0.2324219,-0.2651367,-0.06201172,-0.1210938
1150,21.8125,-7.5,-3.9375,0.8071289,-0.2587891,-0.1860352,-0.2661133,-0.06201172,-0.1196289
1154,15.4375,-14.625,-0.0625,0.8300781,-0.2275391,-0.128418,-0.2675781,-0.06298828,-0.1196289
1158,5.6875,-14.875,1,0.8999023,-0.1616211,-0.02832031,-0.2685547,-0.06445313,-0.1166992
1162,-7.9375,-13.5,0.6875,0.8803711,-0.1420898,-0.001464844,-0.2685547,-0.06201172,-0.1166992
1166,-16.8125,-12.5625,-0.375,0.8999023,-0.1889648,0.001953125,-0.2685547,-0.06445313,-0.1166992
1170,-19.5,-16.875,-0.25,0.8730469,-0.2470703,-0.01660156,-0.2700195,-0.06201172,-0.1157227
1174,-18.1875,-24.125,3.6875,0.8769531,-0.3056641,-0.02832031,-0.2709961,-0.06201172,-0.1157227
1178,-12,-29.4375,3.625,0.9311523,-0.3173828,0.009765625,-0.2709961,-0.06298828,-0.112793
1182,-8.5625,-32.6875,3.375,0.9931641,-0.2587891,0.04052734,-0.2709961,-0.06054688,-0.1113281
1186,-10.25,-34,0.5625,1.02002,-0.1616211,0.03271484,-0.2734375,-0.06054688,-0.1088867
1190,-17.125,-35.125,-2.75,1.039551,-0.1381836,-0.04003906,-0.2734375,-0.06054688,-0.105957
1194,-28,-41.1875,-3,0.9892578,-0.1269531,-0.1362305,-0.2758789,-0.06054688,-0.1044922
1198,-36.875,-50.375,-1.25,1.035645,-0.2392578,-0.1552734,-0.2758789,-0.05957031,-0.1005859
1202,-35.3125,-57.625,4.0625,1.097656,-0.3095703,-0.1669922,-0.2783203,-0.05810547,-0.09667969
1206,-24.0625,-64.625,-1.9375,1.155762,-0.2978516,-0.2016602,-0.2783203,-0.05957031,-0.09375
1210,-15.4375,-73,-8.3125,1.194336,-0.2548828,-0.309082,-0.2807617,-0.05957031,-0.08984375
1214,-18.125,-87.1875,-13.3125,1.175293,-0.1459961,-0.4824219,-0.2841797,-0.05957031,-0.08300781
1218,-37.3125,-104.1875,-7.5,1.302734,-0.1616211,-0.5708008,-0.2875977,-0.05957031,-0.07470703
1222,-60.4375,-117.1875,-0.625,1.407715,-0.1308594,-0.5898438,-0.2875977,-0.05712891,-0.06542969
1226,-73.25,-128.6875,-5.5,1.399902,-0.1967773,-0.6171875,-0.2900391,-0.05712891,-0.05712891
1230,-61.1875,-144.875,-16.9375,1.349609,-0.3950195,-0.6054688,-0.293457,-0.05712891,-0.04638672
1234,-28.5,-158.6875,-28.4375,1.209961,-0.4570313,-0.6552734,-0.2958984,-0.05712891,-0.03662109
1238,-6.375,-178.125,-29.4375,1.132324,-0.3950195,-0.6630859,-0.2973633,-0.06054688,-0.02294922
1242,-3.625,-192.5625,-20.1875,1.016113,-0.2822266,-0.7783203,-0.2998047,-0.06201172,-0.005371094
1246,-17.5,-215.5,-7.125,1.0625,-0.1694336,-0.7592773,-0.2998047,-0.06445313,0.0078125
1250,-38.375,-216.1875,-3.0625,1.206055,-0.1308594,-0.7167969,-0.2983398,-0.06201172,0.02832031
1254,-52.0625,-220.375,-8.75,1.209961,-0.2163086,-0.6591797,-0.2983398,-0.06298828,0.04882813
1258,-35.5,-220.4375,-19.4375,1.202148,-0.3833008,-0.5898438,-0.293457,-0.06591797,0.06201172
1262,-14.9375,-229.125,-15.125,1.13623,-0.4453125,-0.628418,-0.2915039,-0.06835938,0.07861328
1267,2.9375,-238.9375,1.875,1.035645,-0.503418,-0.7246094,-0.2841797,-0.06933594,0.1030273
1271,0.6875,-256.0625,37.875,0.9580078,-0.4492188,-0.894043,-0.2792969,-0.06689453,0.1181641
1275,-8.3125,-261.5,54.4375,1.395996,-0.2978516,-0.7749023,-0.2685547,-0.06054688,0.1396484
1279,-0.75,-241.875,16.8125,1.430664,-0.1191406,-0.6591797,-0.2602539,-0.05810547,0.1630859
1283,-10.125,-234.75,13.125,1.198242,-0.1889648,-0.7363281,-0.2485352,-0.05810547,0.175293
1287,-14.5,-238.25,27,1.078125,-0.4335938,-0.8632813,-0.2363281,-0.05712891,0.1914063
1291,-6.375,-248.4375,49.25,0.9350586,-0.5737305,-1.097656,-0.2211914,-0.05712891,0.2089844
1295,-17.125,-264.5,82.1875,0.8535156,-0.5268555,-1.213379,-0.2104492,-0.05175781,0.2226563
1299,-22.3125,-262.625,81.5625,1.388184,-0.4296875,-1.001465,-0.1899414,-0.04833984,0.237793
1303,-5.625,-245.0625,44.8125,1.113281,-0.340332,-0.9902344,-0.1699219,-0.046875,0.2514648
1307,-6.875,-239,42.375,1.039551,-0.3173828,-0.8901367,-0.1582031,-0.04443359,0.2651367
1311,-10.25,-226.375,44.8125,1.070313,-0.2744141,-0.8129883,-0.1376953,-0.04296875,0.2729492
1315,-9.875,-217.375,40.125,0.6132813,-0.2626953,-1.001465,-0.1152344,-0.04199219,0.2841797
1319,-22.5625,-220.625,56.625,0.6328125,-0.2548828,-0.9941406,-0.1020508,-0.04199219,0.2910156
1323,-43.6875,-228,70.875,0.4931641,-0.1928711,-0.9169922,-0.08056641,-0.04443359,0.2973633
1327,-41.125,-199.875,52.25,0.7758789,-0.1616211,-0.6977539,-0.05908203,-0.04833984,0.300293
1331,-37.375,-188.25,34.125,0.4775391,-0.02197266,-0.6171875,-0.04736328,-0.05078125,0.3017578
1335,-40.75,-167.5625,28.75,0.4931641,-0.1347656,-0.3632813,-0.02832031,-0.0546875,0.3032227
1339,-29.75,-139.4375,25.1875,0.4428711,-0.1850586,-0.2475586,-0.01269531,-0.05810547,0.3041992
1343,-15.4375,-111.75,22.0625,0.2026367,-0.07617188,-0.2900391,-0.003417969,-0.06054688,0.3056641
1347,-19.5625,-97.875,26.25,0.1289063,0.1254883,-0.2553711,0.006835938,-0.06054688,0.3017578
1351,-28.6875,-73.6875,18.5625,0.1484375,0.08642578,-0.2055664,0.01757813,-0.06298828,0.3032227
1355,-21.5625,-49.9375,4.5625,0.06298828,0.03222656,-0.1669922,0.02001953,-0.06591797,0.3017578
1359,-12.5625,-27.75,-1.1875,0.02050781,-0.006347656,-0.1513672,0.02587891,-0.06689453,0.3017578
1363,-4.25,-8.1875,-3.6875,-0.03710938,-0.02197266,-0.2055664,0.02978516,-0.06933594,0.3032227
1367,6.625,8.5625,-13.25,-0.1264648,0.03222656,-0.4399414,0.02832031,-0.06835938,0.3032227
1371,5.4375,14.75,-14.5,-0.215332,0.1176758,-0.6206055,0.02734375,-0.06835938,0.300293
1375,-1.6875,17.0625,-20.75,-0.2543945,0.1098633,-0.7207031,0.02490234,-0.06835938,0.3032227
1379,-6.3125,15.75,-22.875,-0.2270508,-0.06054688,-0.7363281,0.02490234,-0.06835938,0.3017578
1383,-4.625,19.5,-17.3125,-0.1923828,-0.1577148,-0.6245117,0.0234375,-0.06835938,0.3017578
1387,1.6875,29.5,-17.8125,-0.06054688,-0.1967773,-0.644043,0.02001953,-0.06933594,0.3017578
1391,13.875,37.125,-26.3125,-0.1923828,-0.2241211,-0.8979492,0.01757813,-0.06689453,0.3017578
1396,22.875,32,-25.625,-0.3085938,-0.2666016,-1.051758,0.01513672,-0.06591797,0.3041992
1400,20.6875,24.75,-14.3125,-0.2543945,-0.2353516,-1.024902,0.01171875,-0.06201172,0.3032227
1404,10.9375,24.8125,-12.4375,-0.1962891,-0.1191406,-0.9707031,0.01171875,-0.06054688,0.3032227
1408,1.8125,30.5,-11.6875,-0.04101563,-0.2353516,-0.8823242,0.006835938,-0.06054688,0.3017578
1412,9.75,39.0625,-15.8125,-0.1264648,-0.3442383,-0.9326172,0.003417969,-0.06054688,0.3041992
1416,22,39.875,-17.125,-0.2080078,-0.3676758,-1.051758,0.002441406,-0.05957031,0.3041992
1420,25.3125,36.25,-9.3125,-0.1923828,-0.2900391,-1.040039,-0.001953125,-0.05810547,0.3032227
1424,21.75,34.875,-6.9375,-0.1533203,-0.1811523,-0.9902344,-0.005859375,-0.0546875,0.3032227
1428,9.5625,38.5,-2.5,-0.05273438,-0.1928711,-0.8056641,-0.009277344,-0.05322266,0.3041992
1432,9.4375,52,-6.875,-0.02978516,-0.2314453,-0.8364258,-0.01171875,-0.05175781,0.3032227
1436,13.375,55.125,-8.25,0.0009765625,-0.2626953,-0.7514648,-0.01757813,-0.05322266,0.3032227
1440,19.5625,68.3125,-8.6875,0.1015625,-0.2587891,-0.5864258,-0.02246094,-0.04833984,0.3071289
1444,21.875,91.3125,-10.9375,0.3730469,-0.2006836,-0.5786133,-0.02929688,-0.04833984,0.3017578
1448,20.0625,102.5,-26.9375,-0.08398438,-0.1694336,-0.9980469,-0.0390625,-0.04589844,0.3032227
1452,14.3125,98,-25.5625,-0.06445313,-0.1459961,-1.328613,-0.04492188,-0.04443359,0.2988281
1456,-5.3125,76.125,-16.5625,-0.2270508,-0.06835938,-1.293945,-0.05664063,-0.04296875,0.2988281
1460,-24.6875,68.9375,-4.5625,0.09375,-0.1694336,-0.8476563,-0.06298828,-0.04589844,0.2988281
1464,-18.0625,84.9375,-0.875,0.3959961,-0.4570313,-0.3012695,-0.06738281,-0.046875,0.2949219
1468,5.5,121.5625,9.3125,0.8071289,-0.6162109,-0.001464844,-0.07714844,-0.04833984,0.293457
1472,49.8125,162.4375,-8.25,0.6210938,-0.4067383,-0.5400391,-0.09130859,-0.046875,0.2910156
1476,63.125,157.6875,-28.875,0.1948242,-0.05664063,-0.9941406,-0.1010742,-0.04296875,0.2851563
1480,28.125,150.25,-15.8125,0.4658203,0.06298828,-0.7861328,-0.1152344,-0.03955078,0.2797852
1484,-3.6875,164.625,-9.125,0.6870117,-0.1308594,-0.4628906,-0.128418,-0.03564453,0.2758789
1488,12.1875,193.875,-23.375,0.7451172,-0.3754883,-0.7749023,-0.1401367,-0.03808594,0.2705078
1492,39.5625,181.375,-42.3125,0.3886719,-0.4140625,-1.051758,-0.1567383,-0.03710938,0.262207
1496,49,180.375,-37.1875,0.4194336,-0.3481445,-1.351563,-0.1723633,-0.03564453,0.2524414
1500,41.5625,149,-31.5625,0.3188477,-0.3017578,-1.30957,-0.1816406,-0.03466797,0.2431641
1504,28.5,146.5,-19.0625,0.7021484,-0.4648438,-0.9477539,-0.1938477,-0.03076172,0.2363281
1508,38.6875,149.6875,-6.9375,1.059082,-0.8261719,-0.5131836,-0.2045898,-0.03320313,0.2255859
1512,86.875,177.5,-9.875,1.059082,-0.7524414,-0.8476563,-0.2104492,-0.02832031,0.21875
1516,103.6875,160.125,-18.6875,0.7797852,-0.2666016,-1.121094,-0.2255859,-0.0234375,0.2080078
1520,76.875,161,-30.25,0.7138672,0.1953125,-1.413086,-0.234375,-0.01953125,0.1943359
1525,27,137.75,-37,0.7641602,0.171875,-1.20166,-0.2387695,-0.02050781,0.1860352
1529,-2.9375,139.625,-37.4375,1.012207,-0.2314453,-0.7441406,-0.2470703,-0.0234375,0.1762695
1533,-4.25,147.375,-34.9375,1.19043,-0.484375,-0.3359375,-0.2553711,-0.02587891,0.1640625
1537,9.375,164.25,-21.125,1.318359,-0.6977539,-0.06298828,-0.2617188,-0.02587891,0.1547852
1541,36.1875,180.25,-11.5625,1.345703,-0.7329102,-0.08203125,-0.2685547,-0.02685547,0.1425781
1545,62.75,190.0625,-13.3125,1.155762,-0.519043,-0.3974609,-0.2758789,-0.02685547,0.1235352
1549,64.9375,189.6875,-25.3125,0.9814453,-0.1616211,-0.7822266,-0.2827148,-0.02587891,0.1152344
1553,29.5,180.75,-21.8125,1.023926,-0.09960938,-0.7207031,-0.2875977,-0.02685547,0.09619141
1557,5.75,182.875,-18.3125,1.159668,-0.3325195,-0.4902344,-0.2915039,-0.02832031,0.07861328
1561,3.9375,185.875,-12.3125,1.206055,-0.5541992,-0.3823242,-0.2949219,-0.02929688,0.06884766
1565,22.8125,185.375,-7.875,1.198242,-0.6591797,-0.324707,-0.2958984,-0.03173828,0.04980469
1569,46.3125,185.75,-4.0625,1.209961,-0.6513672,-0.3476563,-0.2983398,-0.03173828,0.03222656
1573,56.125,179.5,0.25,1.097656,-0.5,-0.4438477,-0.2998047,-0.03466797,0.02294922
1577,51.3125,171.375,7,1.097656,-0.387207,-0.4516602,-0.2998047,-0.03320313,0.004882813
1581,42.8125,165.75,3.875,1.140137,-0.2900391,-0.4169922,-0.2998047,-0.03173828,-0.009277344
1585,30,163.5,-6,1.147949,-0.2861328,-0.3632813,-0.2983398,-0.03173828,-0.01757813
1589,15.375,164,-7.375,1.202148,-0.371582,-0.2861328,-0.2973633,-0.03466797,-0.03369141
1593,7,163,-6.625,1.171387,-0.503418,-0.2861328,-0.293457,-0.03320313,-0.04882813
1597,12,156.0625,3.3125,1.113281,-0.6938477,-0.394043,-0.2900391,-0.03466797,-0.05957031
1601,26.375,140.4375,17.125,1.0625,-0.7133789,-0.5439453,-0.2866211,-0.03320313,-0.07324219
1605,40.4375,119.6875,23.1875,1.039551,-0.5581055,-0.6899414,-0.2827148,-0.03466797,-0.08447266
1609,42.8125,99.125,19,0.9814453,-0.3325195,-0.7861328,-0.2807617,-0.03320313,-0.08984375
1613,30.375,76.25,16.5,0.9619141,-0.2084961,-0.8017578,-0.2768555,-0.03173828,-0.09667969
1617,11.875,53.8125,12.8125,0.9658203,-0.1772461,-0.7441406,-0.2768555,-0.03173828,-0.1035156
1621,-0.625,31.5625,12.0625,0.9155273,-0.2744141,-0.6630859,-0.2744141,-0.03076172,-0.105957
1625,-6.125,9.875,18,0.9116211,-0.3442383,-0.5283203,-0.2734375,-0.02929688,-0.1074219
1629,0.25,-10.625,21.5,0.9423828,-0.3754883,-0.3515625,-0.2734375,-0.02685547,-0.1074219
1633,12.4375,-20.875,15.75,0.9697266,-0.3095703,-0.1513672,-0.2724609,-0.02587891,-0.1088867
1637,19.25,-27.8125,9.875,0.9736328,-0.2241211,0.001953125,-0.2744141,-0.02587891,-0.105957
1641,15.5625,-29.75,3.625,1.02002,-0.1347656,0.1098633,-0.2744141,-0.02587891,-0.1035156
1645,6.3125,-24.875,-5.3125,1.008301,-0.1420898,0.1713867,-0.2758789,-0.02587891,-0.1020508
1649,-9.5,-20.1875,-2.0625,0.9775391,-0.1967773,0.1713867,-0.2783203,-0.02685547,-0.09912109
1654,-19.5,-18.3125,-1,0.9350586,-0.2626953,0.140625,-0.2768555,-0.02587891,-0.09912109
1658,-19,-17.125,-6.5,0.9853516,-0.2939453,0.09814453,-0.2768555,-0.02685547,-0.09912109
1662,-11.1875,-16.3125,-14.125,0.9194336,-0.3325195,0.009765625,-0.2768555,-0.02587891,-0.09667969
1666,-6.75,-24.1875,-13.8125,0.9462891,-0.3598633,-0.09765625,-0.2783203,-0.02685547,-0.09228516
1670,-0.3125,-28.8125,-18.8125,0.9892578,-0.3598633,-0.2016602,-0.2783203,-0.02832031,-0.09082031
1674,-0.0625,-38.8125,-21.0625,0.9194336,-0.2900391,-0.3515625,-0.2792969,-0.02929688,-0.08984375
1678,-10,-51.1875,-19.125,0.9272461,-0.2275391,-0.4863281,-0.2792969,-0.03173828,-0.08544922
1682,-25,-68.125,-19.4375,0.9194336,-0.2045898,-0.59375,-0.2827148,-0.03076172,-0.08300781
1686,-38.25,-85.6875,-18,0.9814453,-0.2822266,-0.6401367,-0.2866211,-0.03173828,-0.07763672
1690,-38.5625,-103.375,-22,1.035645,-0.3833008,-0.6323242,-0.2866211,-0.03320313,-0.06933594
1694,-29.4375,-115.6875,-25.75,1.074219,-0.4492188,-0.6015625,-0.2890625,-0.03466797,-0.05957031
1698,-18,-132.3125,-26.4375,1.085938,-0.4067383,-0.5668945,-0.2900391,-0.03564453,-0.04736328
1702,-12.5625,-141.75,-26.9375,1.186523,-0.3676758,-0.5092773,-0.2924805,-0.03955078,-0.03955078
1706,-15.375,-150.6875,-26.5,1.059082,-0.2744141,-0.5478516,-0.293457,-0.03955078,-0.03125
1710,-19.8125,-164.75,-23.375,1.155762,-0.3481445,-0.5322266,-0.2958984,-0.04199219,-0.01611328
1714,-13.375,-168.9375,-26.0625,1.241211,-0.402832,-0.4863281,-0.2998047,-0.04443359,-0.001464844
1718,-4.9375,-171.375,-27.125,1.128418,-0.3989258,-0.5629883,-0.2983398,-0.046875,0.01074219
1722,-8.9375,-185.625,-16.4375,1.105469,-0.4067383,-0.6362305,-0.2983398,-0.04833984,0.02392578
1726,-15.0625,-194,-5.25,1.144043,-0.3989258,-0.628418,-0.2983398,-0.046875,0.04199219
1730,-14.3125,-198.5,-0.9375,1.206055,-0.4570313,-0.6206055,-0.2958984,-0.04931641,0.05517578
1734,-9.125,-200.8125,-3.9375,1.159668,-0.402832,-0.7167969,-0.2915039,-0.04833984,0.07177734
1738,-9.8125,-205.375,-5.9375,1.155762,-0.4067383,-0.7246094,-0.2875977,-0.04931641,0.09082031
1742,-7,-218.375,10.375,1.027832,-0.5893555,-0.7783203,-0.2827148,-0.04931641,0.1044922
1746,-6.6875,-223,29.25,1.202148,-0.5541992,-0.7133789,-0.2758789,-0.04833984,0.1235352
1750,-10.875,-221.4375,35,1.256348,-0.4726563,-0.6860352,-0.2675781,-0.04589844,0.1425781
1754,-19.3125,-220.625,42.8125,1.027832,-0.46875,-0.878418,-0.2602539,-0.04052734,0.1547852
1758,-26.75,-226.75,48.3125,1.268066,-0.4726563,-0.7749023,-0.2495117,-0.03955078,0.175293
1762,-18.25,-209.3125,28.1875,1.233398,-0.4335938,-0.7514648,-0.2363281,-0.03710938,0.1914063
1766,-25.1875,-215,36.6875,1.004395,-0.5073242,-0.8515625,-0.2294922,-0.03808594,0.2036133
1770,-36.0625,-219,64.6875,0.9619141,-0.5776367,-0.9091797,-0.2128906,-0.03466797,0.2158203
1774,-31.6875,-219.875,70.4375,1.209961,-0.534668,-0.84375,-0.1972656,-0.03466797,0.2324219
1778,-21,-203.375,57.6875,1.101563,-0.3833008,-0.8901367,-0.1875,-0.03076172,0.2402344
1783,-21.875,-202.875,45.5,0.8613281,-0.2744141,-1.009277,-0.1699219,-0.03076172,0.2514648
1787,-32.75,-198.75,46.6875,0.8959961,-0.2744141,-1.032227,-0.1533203,-0.02832031,0.2636719
1791,-40.25,-201.375,47.625,0.7680664,-0.3208008,-1.094238,-0.1411133,-0.03076172,0.2705078
1795,-49.5,-202.875,57.5625,0.5629883,-0.453125,-1.217285,-0.1235352,-0.02929688,0.2773438
1799,-32.6875,-212.8125,61.4375,0.6518555,-0.6474609,-1.155762,-0.1044922,-0.03320313,0.2866211
1803,2.3125,-219,60.875,0.5356445,-0.7211914,-1.020996,-0.09033203,-0.03466797,0.2910156
1807,22.75,-216.8125,72.5625,0.4931641,-0.5112305,-0.9477539,-0.06884766,-0.02929688,0.2973633
1811,13.25,-211.3125,86.375,0.4892578,-0.2084961,-0.7475586,-0.04833984,-0.02832031,0.2973633
1815,-7.8125,-193.5625,94.875,0.5009766,-0.002441406,-0.559082,-0.03173828,-0.02685547,0.3017578
1819,-33.0625,-170.5625,94.125,0.4619141,0.09814453,-0.4477539,-0.01416016,-0.02832031,0.3032227
1823,-38,-139.4375,72.8125,0.5512695,0.1020508,-0.2055664,0.002441406,-0.03076172,0.3032227
1827,-37.9375,-99.75,42.8125,0.2451172,0.1333008,-0.2592773,0.01171875,-0.03564453,0.3032227
1831,-33,-89.625,33.3125,0.07861328,0.09423828,-0.1782227,0.02246094,-0.03955078,0.3017578
1835,-37.5,-58.875,28.0625,0.1557617,0.09033203,-0.128418,0.03076172,-0.04443359,0.3032227
1839,-34.375,-38.1875,23.1875,0.02441406,0.04003906,-0.2822266,0.03320313,-0.04589844,0.3017578
1843,-34.5,-24.5625,17.1875,-0.01806641,0.07470703,-0.3862305,0.03662109,-0.04931641,0.3017578
1847,-34.8125,-11.75,-1.4375,-0.1689453,0.09814453,-0.5053711,0.03808594,-0.05175781,0.300293
1851,-31.25,-7.75,-13.125,-0.2192383,-0.04150391,-0.4667969,0.0390625,-0.05712891,0.300293
1855,-17.8125,2.5,-16.75,-0.1147461,-0.1694336,-0.4555664,0.04052734,-0.05810547,0.300293
1859,-11.875,14.3125,-15.25,-0.2426758,-0.2084961,-0.6552734,0.0390625,-0.05957031,0.3017578
1863,-7.25,11.75,-8.75,-0.3085938,-0.2006836,-0.7978516,0.04052734,-0.05957031,0.3017578
1867,-6.25,17.8125,-10.375,-0.1572266,-0.1269531,-0.8056641,0.03808594,-0.06054688,0.300293
1871,-12.6875,21.5625,-13.875,-0.2001953,-0.09179688,-0.84375,0.03808594,-0.06054688,0.3032227
1875,-14.5,24.8125,-15.6875,-0.1962891,-0.2275391,-0.8745117,0.03662109,-0.06445313,0.300293
1879,-11.25,34.0625,-14.375,-0.1611328,-0.324707,-0.9477539,0.03320313,-0.06591797,0.3017578
1883,-4.1875,31.0625,-13,-0.2890625,-0.3134766,-1.086426,0.02978516,-0.06298828,0.3017578
1887,-1.5,27.875,-7.1875,-0.3354492,-0.2163086,-1.151855,0.02587891,-0.06298828,0.300293
1891,-4.25,22.375,0.625,-0.2929688,-0.06445313,-1.036133,0.02490234,-0.06445313,0.3041992
1895,-11.875,24.375,-3.25,-0.1264648,0.09814453,-0.8862305,0.02148438,-0.06591797,0.3017578
1899,-22.6875,36.1875,-15.5625,-0.006347656,0.07080078,-0.7475586,0.02001953,-0.06591797,0.300293
1903,-31.0625,50.375,-30.8125,-0.1264648,-0.05664063,-0.8364258,0.01513672,-0.06835938,0.3017578
1907,-33.0625,51.125,-25,-0.2080078,-0.3017578,-0.7441406,0.009277344,-0.07324219,0.3032227
1912,-25.3125,53.625,-12.8125,-0.1303711,-0.3833008,-0.5629883,0.008300781,-0.07421875,0.3032227
1916,-11,67,-1.25,0.07861328,-0.3598633,-0.3632813,0.0009765625,-0.07568359,0.3017578
1920,-1.3125,89.5625,-15.75,-0.07226563,-0.1308594,-0.6821289,-0.006835938,-0.07714844,0.3041992
1924,0.125,87.3125,-19,-0.09521484,-0.06445313,-0.894043,-0.01025391,-0.07421875,0.3017578
1928,-5.0625,79.25,-26.6875,-0.2426758,0.03613281,-1.009277,-0.01855469,-0.07714844,0.300293
1932,-29.75,71.375,-25,-0.03710938,0.1601563,-0.8364258,-0.02685547,-0.07714844,0.300293
1936,-77.1875,91.5,-12.875,0.2797852,0.2651367,-0.5322266,-0.03173828,-0.08056641,0.300293
1940,-112.625,129.125,-10.375,0.4233398,0.1953125,-0.824707,-0.04248047,-0.08837891,0.2988281
1944,-109.1875,132.5,-14.6875,0.008789063,-0.1269531,-1.066895,-0.05566406,-0.1005859,0.2949219
1948,-119.3125,128.5,12.875,0.02832031,-0.03759766,-1.040039,-0.06298828,-0.1069336,0.2919922
1952,-144.5625,122.625,39.0625,0.140625,0.1254883,-0.8364258,-0.07470703,-0.1196289,0.2841797
1956,-171.6875,137.9375,62.4375,0.543457,0.02441406,-0.4555664,-0.08886719,-0.1333008,0.2773438
1960,-152.25,174.5,61.125,0.8691406,-0.2241211,-0.6748047,-0.09960938,-0.1430664,0.2714844
1964,-67.5,181.6875,1.3125,0.1831055,-0.3950195,-1.213379,-0.1152344,-0.1494141,0.2607422
1968,-15.8125,153.0625,14.6875,0.2255859,-0.3833008,-1.182617,-0.1293945,-0.1533203,0.2539063
1972,-5.125,138.375,44.4375,0.3613281,-0.2392578,-0.894043,-0.1391602,-0.1533203,0.2470703
1976,-9.4375,146.75,74.625,0.8261719,-0.2045898,-0.4824219,-0.1518555,-0.1508789,0.2392578
1980,5.5625,177.5625,82.875,1.031738,-0.2509766,-0.4936523,-0.1665039,-0.1494141,0.2324219
1984,48.4375,191.125,60.1875,0.7602539,-0.06835938,-1.070801,-0.1772461,-0.1430664,0.2255859
1988,81.5625,168,23.125,0.578125,0.1875,-1.251953,-0.1923828,-0.1342773,0.2143555
1992,53,163.875,31.375,0.8149414,0.2148438,-0.9516602,-0.206543,-0.1308594,0.2089844
1996,23.75,169.6875,45.9375,1.031738,-0.08007813,-0.574707,-0.2138672,-0.1254883,0.2011719
2000,27.4375,196.6875,57.4375,1.268066,-0.3598633,-0.5976563,-0.2270508,-0.1196289,0.1889648
2004,71.5625,199.0625,41.5625,0.9853516,-0.3364258,-0.9326172,-0.2387695,-0.1142578,0.1738281
2008,101.6875,189.875,24.625,0.9462891,-0.1269531,-1.01709,-0.2470703,-0.1054688,0.168457
2012,85.0625,187,27.5,1.175293,-0.02978516,-0.7709961,-0.2553711,-0.09960938,0.1518555
2016,58.0625,199.6875,31.25,1.368652,-0.1074219,-0.4936523,-0.2651367,-0.09570313,0.137207
2020,37.5625,216.4375,44.8125,1.492676,-0.324707,-0.3012695,-0.2724609,-0.09326172,0.1274414
2024,52.25,229.9375,53.4375,1.357422,-0.4726563,-0.5322266,-0.2817383,-0.08691406,0.1069336
2028,86.4375,215.5625,41.875,0.9853516,-0.2084961,-0.9130859,-0.2875977,-0.08056641,0.08691406
2032,82,198.75,43.6875,1.225586,-0.04150391,-0.7402344,-0.293457,-0.07421875,0.07421875
2036,47.0625,200.5,52.9375,1.299316,0.08251953,-0.5092773,-0.2949219,-0.06933594,0.05664063
2041,-1.625,209.4375,64,1.484863,0.09033203,-0.1899414,-0.2998047,-0.06445313,0.0390625
2045,-50.0625,228.8125,81.4375,1.546875,-0.03369141,-0.01318359,-0.2998047,-0.05957031,0.02392578
2049,-56.5625,239.4375,92.1875,1.535645,-0.4140625,-0.08203125,-0.2983398,-0.0546875,0.00390625
2053,9.125,235.3125,77.4375,1.302734,-0.6860352,-0.3208008,-0.2998047,-0.04589844,-0.01757813
2057,73.8125,209.4375,76.875,1.248535,-0.6396484,-0.4902344,-0.2998047,-0.04296875,-0.03125
2061,100.5625,192.125,77.375,1.364746,-0.3208008,-0.5283203,-0.293457,-0.03564453,-0.04736328
2065,90.1875,185.875,72.5625,1.473633,-0.08398438,-0.5131836,-0.2900391,-0.03076172,-0.06640625
2069,60.5,188.8125,68.1875,1.52002,-0.1113281,-0.5283203,-0.2851563,-0.02685547,-0.07763672
2073,39.25,179.125,72.8125,1.372559,-0.3017578,-0.6479492,-0.2807617,-0.02197266,-0.09375
2077,53.125,155.625,69.3125,1.151855,-0.371582,-0.8823242,-0.2744141,-0.01806641,-0.105957
2081,74.5625,121.5625,57.875,1.09375,-0.2626953,-0.9208984,-0.2685547,-0.01464844,-0.112793
2085,78.1875,95,46.5625,1.059082,-0.04882813,-0.8862305,-0.2651367,-0.01464844,-0.1225586
2089,61.8125,73.75,31.875,1.039551,0.1176758,-0.7514648,-0.2617188,-0.01171875,-0.1289063
2093,32.0625,58.6875,22.25,1.05127,0.08642578,-0.574707,-0.2578125,-0.01074219,-0.1333008
2097,8.875,45.75,17.875,0.9970703,-0.1035156,-0.4130859,-0.2553711,-0.01074219,-0.1357422
2101,3.25,34.0625,10.6875,1.012207,-0.2353516,-0.2592773,-0.2543945,-0.008300781,-0.1386719
2105,7,25.6875,-1,0.8691406,-0.324707,-0.1782227,-0.2519531,-0.008300781,-0.1401367
2109,7.625,-4.5625,10.0625,0.9814453,-0.421875,0.001953125,-0.2495117,-0.006835938,-0.1425781
2113,21.4375,1.4375,-4.5625,0.8730469,-0.371582,0.009765625,-0.2519531,-0.008300781,-0.1401367
2117,22.5,-4.9375,-6.625,0.8769531,-0.3793945,-0.01660156,-0.2509766,-0.009277344,-0.1425781
2121,20.6875,-14.5,-3,0.8535156,-0.3754883,-0.02050781,-0.2519531,-0.009277344,-0.1401367
2125,24.5,-20.0625,-4.75,0.8920898,-0.3637695,-0.001464844,-0.2509766,-0.01074219,-0.1416016
2129,22.375,-22.9375,-8.9375,0.9311523,-0.2900391,0.05957031,-0.2543945,-0.01171875,-0.1386719
2133,15,-23.1875,-10.875,0.9116211,-0.2705078,0.06347656,-0.253418,-0.01464844,-0.1347656
2137,7.4375,-27.125,-12,0.8730469,-0.2705078,0.03662109,-0.2553711,-0.015625,-0.1347656
2141,9.0625,-33.0625,-15,0.8417969,-0.355957,-0.02832031,-0.2553711,-0.01464844,-0.1347656
2145,17.5,-45.125,-14.9375,0.8071289,-0.3793945,-0.1054688,-0.2568359,-0.01806641,-0.1318359
2149,26.625,-52.8125,-16.5,0.8730469,-0.3364258,-0.1474609,-0.2568359,-0.01953125,-0.1279297
2153,30.5625,-60.375,-21.4375,0.9038086,-0.2314453,-0.1977539,-0.2602539,-0.0234375,-0.1264648
2157,25.5625,-65.375,-25.75,0.9233398,-0.1499023,-0.2475586,-0.2651367,-0.02587891,-0.1225586
2161,10.5625,-73.5625,-27.9375,0.9116211,-0.1152344,-0.3168945,-0.2661133,-0.02832031,-0.1157227
2165,-11.6875,-82.75,-21.5,0.8959961,-0.1152344,-0.3706055,-0.2685547,-0.03076172,-0.112793
2170,-32.3125,-96.75,-12.75,0.9077148,-0.1381836,-0.4130859,-0.2709961,-0.03173828,-0.105957
2174,-41.75,-108.8125,-14.25,0.9853516,-0.1616211,-0.3901367,-0.2758789,-0.03076172,-0.09912109
2178,-42.6875,-116.4375,-24.125,1.085938,-0.1577148,-0.3129883,-0.2792969,-0.03076172,-0.09375
2182,-43.125,-122.625,-31.9375,1.039551,-0.1655273,-0.2978516,-0.2827148,-0.03320313,-0.08300781
2186,-48.75,-133.875,-27.5,1.055176,-0.1655273,-0.2475586,-0.2851563,-0.03564453,-0.07177734
2190,-62.4375,-144.1875,-10.875,0.9658203,-0.2006836,-0.3012695,-0.2866211,-0.03710938,-0.06396484
2194,-85.0625,-163.25,19.3125,0.9272461,-0.1967773,-0.3632813,-0.2900391,-0.03564453,-0.05175781
2198,-97.25,-173.875,29.375,1.349609,-0.2241211,-0.2363281,-0.2915039,-0.03320313,-0.03515625
2202,-61.75,-127.5625,-37.0625,1.748535,-0.1772461,-0.05126953,-0.2973633,-0.03076172,-0.02587891
2206,-28.875,-111.3125,-89,1.163574,-0.07226563,-0.378418,-0.2973633,-0.03564453,-0.01757813
2210,-25.6875,-124.8125,-100.25,1.047363,-0.09960938,-0.5864258,-0.2958984,-0.04296875,-0.006835938
2214,-31.0625,-139.875,-92.1875,0.9541016,-0.1347656,-0.8325195,-0.2998047,-0.05078125,0.0009765625
2218,-47.9375,-164,-71,0.8920898,-0.1772461,-1.013184,-0.2973633,-0.05810547,0.01318359
2222,-72.1875,-191.4375,-40,0.9116211,-0.2939453,-1.174805,-0.2958984,-0.06445313,0.02978516
2226,-64.5625,-203.4375,-50.625,1.473633,-0.387207,-0.8979492,-0.2973633,-0.06689453,0.04296875
2230,-36.5625,-184.375,-86.0625,1.330078,-0.4140625,-0.8862305,-0.2949219,-0.07324219,0.05810547
2234,-30.5625,-208.1875,-76.8125,1.128418,-0.5307617,-0.9902344,-0.2890625,-0.08203125,0.07568359
2238,-11.0625,-212.125,-72.25,1.229492,-0.6396484,-0.9477539,-0.2841797,-0.08447266,0.08789063
2242,-9.0625,-226.8125,-37.1875,1.155762,-0.6279297,-0.9399414,-0.2768555,-0.09179688,0.1083984
2246,-21.5,-237.3125,5.0625,1.241211,-0.550293,-0.84375,-0.2700195,-0.09570313,0.1274414
2250,-15.6875,-217.9375,-1.25,1.655762,-0.4257813,-0.4438477,-0.2626953,-0.09423828,0.1411133
2254,-10.5,-188.8125,-5.875,1.407715,-0.2900391,-0.4975586,-0.253418,-0.09423828,0.15625
2258,-24.5625,-168.625,4.9375,1.395996,-0.1850586,-0.359375,-0.2412109,-0.09570313,0.1723633
2262,-43.6875,-128,24.0625,1.299316,-0.1577148,-0.3706055,-0.237793,-0.09716797,0.1806641
2266,-64.3125,-119.9375,39.25,0.9462891,-0.03369141,-0.4824219,-0.2319336,-0.09814453,0.1889648
2270,-83.9375,-111.4375,38.375,0.7138672,0.1679688,-0.7133789,-0.2255859,-0.09814453,0.1982422
2274,-104.375,-117.9375,29.9375,0.8457031,0.05126953,-0.7094727,-0.2211914,-0.1005859,0.2021484
2278,-80.75,-110.3125,7.625,0.6557617,-0.1499023,-0.8129883,-0.215332,-0.1083984,0.2089844
2282,-49.4375,-120.4375,-10.4375,0.4311523,-0.07617188,-1.074707,-0.206543,-0.1118164,0.2158203
2286,-39.375,-141.5625,-14.75,0.4467773,-0.002441406,-1.132324,-0.2006836,-0.1142578,0.21875
2290,-36.5625,-155.875,-17.3125,0.3305664,0.1176758,-1.355469,-0.1899414,-0.1181641,0.2280273
2294,-43.125,-187.0625,-11.375,0.3535156,0.1098633,-1.405762,-0.1757813,-0.1230469,0.2348633
2299,-51,-211.1875,-1.875,0.3886719,0.08642578,-1.363281,-0.1650391,-0.1269531,0.2416992
2303,-64.5,-227.5,12.625,0.5239258,0.01269531,-1.197754,-0.1459961,-0.1318359,0.2524414
2307,-75.125,-232.125,22.5625,0.6289063,-0.06835938,-1.051758,-0.1293945,-0.1367188,0.2607422
2311,-63.8125,-228.5625,14.875,0.7490234,-0.1616211,-0.9326172,-0.1152344,-0.140625,0.2651367
2315,-30.5625,-197.8125,-13.125,0.8378906,-0.1655273,-0.6401367,-0.09619141,-0.1455078,0.2705078
2319,-6.0625,-162.4375,-16.4375,0.8261719,-0.1616211,-0.3862305,-0.07714844,-0.1469727,0.2744141
2323,-0.0625,-121.125,-11.0625,0.5200195,0.008789063,-0.3823242,-0.06884766,-0.1494141,0.2783203
2327,-2.625,-98.125,-4.3125,0.2993164,0.07470703,-0.4707031,-0.05908203,-0.1494141,0.2827148
2331,-13.625,-79.25,7.875,0.1987305,0.1020508,-0.4824219,-0.04980469,-0.1508789,0.28125
2335,-24.8125,-66.0625,22.625,0.1484375,0.03613281,-0.4130859,-0.04492188,-0.1518555,0.2827148
2339,-4.9375,-40.6875,11,0.2797852,-0.04541016,-0.3208008,-0.04150391,-0.1542969,0.2827148
2343,15.25,-20.75,-0.5625,0.2255859,0.08251953,-0.3554688,-0.03759766,-0.1542969,0.2827148
2347,18.6875,7,-10.1875,0.125,0.2109375,-0.5361328,-0.03759766,-0.1518555,0.2827148
2351,10.3125,11.125,-8.375,-0.07617188,0.21875,-0.6860352,-0.03759766,-0.1508789,0.2841797
2355,0.1875,10.9375,-1.6875,-0.09521484,0.171875,-0.7514648,-0.03759766,-0.1518555,0.2827148
2359,-8.9375,11.625,4.9375,-0.05273438,0.1293945,-0.7475586,-0.03759766,-0.1518555,0.2851563
2363,-2.375,16.375,3.125,-0.04101563,0.04394531,-0.7246094,-0.04003906,-0.1494141,0.2841797
2367,8.0625,23.8125,0.9375,0.06298828,0.07080078,-0.7402344,-0.04003906,-0.1508789,0.28125
2371,19.8125,29.875,-9.8125,-0.06054688,0.08642578,-0.8745117,-0.04248047,-0.1494141,0.2827148
2375,28.375,26.4375,-14.25,-0.03710938,0.1254883,-0.9248047,-0.04589844,-0.1494141,0.2841797
2379,21.0625,28.6875,-9.625,-0.02197266,0.1484375,-0.9360352,-0.04736328,-0.1445313,0.2827148
2383,10.5,29.625,0.625,-0.02587891,0.09423828,-0.9555664,-0.05078125,-0.1455078,0.2841797
2387,10.875,29.0625,3.1875,-0.01416016,0.06298828,-0.9516602,-0.05078125,-0.1420898,0.2841797
2391,13.3125,33.8125,2.5,0.03173828,0.1020508,-0.9746094,-0.05566406,-0.140625,0.2841797
2395,14.4375,33.375,1.25,0.03564453,0.07861328,-0.9287109,-0.05810547,-0.1445313,0.2841797
2399,21.6875,39.8125,-2,0.109375,-0.03369141,-0.7749023,-0.06054688,-0.1396484,0.2827148
2403,32.9375,52.5,-1.3125,0.2138672,-0.08789063,-0.6401367,-0.06494141,-0.1367188,0.2827148
2407,40.3125,68,0.375,0.2797852,-0.07226563,-0.6591797,-0.06738281,-0.1357422,0.28125
2411,48.625,85.9375,-9.9375,0.175293,0.09814453,-0.9438477,-0.07714844,-0.1308594,0.2841797
2415,40.5,76.625,-16.6875,-0.01806641,0.1914063,-1.055664,-0.08300781,-0.1254883,0.28125
2419,18.375,73.9375,-7.375,0.07470703,0.1176758,-0.9052734,-0.08789063,-0.1245117,0.28125
2423,2.5625,78.75,5.25,0.2724609,-0.09179688,-0.59375,-0.09375,-0.1220703,0.28125
2428,10.4375,102.375,12.375,0.5317383,-0.402832,-0.2397461,-0.1030273,-0.1230469,0.2773438
2432,40.125,143.1875,10.875,0.5859375,-0.3442383,-0.5551758,-0.1079102,-0.1196289,0.2729492
2436,53.875,142.4375,-1.875,0.3417969,-0.09179688,-0.84375,-0.1220703,-0.1157227,0.2675781
2440,53.3125,146.5,-8.1875,0.2915039,0.1020508,-1.051758,-0.1367188,-0.1108398,0.262207
2444,33.5,134.5,-3.125,0.3496094,0.04003906,-0.9130859,-0.1425781,-0.1069336,0.2607422
2448,14.875,144.75,13.625,0.7333984,-0.2275391,-0.5014648,-0.1557617,-0.1054688,0.2539063
2452,20.75,180,24.6875,0.9814453,-0.4570313,-0.4863281,-0.168457,-0.1020508,0.2470703
2456,51.0625,186.3125,11.9375,0.5512695,-0.3056641,-0.8745117,-0.1791992,-0.1020508,0.2402344
2460,66,181.3125,16.1875,0.7373047,-0.2666016,-0.9633789,-0.1938477,-0.09423828,0.2294922
2464,61.5625,173.8125,20.9375,0.7177734,-0.1191406,-0.9248047,-0.2080078,-0.08837891,0.21875
2468,47.0625,188.75,32.4375,1.206055,-0.2353516,-0.6630859,-0.215332,-0.08447266,0.2133789
2472,39.875,217.375,33.375,1.233398,-0.1152344,-0.6860352,-0.2319336,-0.07958984,0.1967773
2476,41.9375,241.4375,23,1.213867,0.07470703,-0.9824219,-0.2436523,-0.07324219,0.1806641
2480,29.8125,238.6875,5.625,0.8691406,0.315918,-1.193848,-0.253418,-0.07080078,0.1669922
2484,-11.1875,220.75,17.5625,0.8803711,0.2612305,-1.066895,-0.2636719,-0.07177734,0.1494141
2488,-45.6875,208.5625,28,1.097656,0.004882813,-0.7207031,-0.2734375,-0.07080078,0.1303711
2492,-54.5625,210.875,41.5,1.241211,-0.3173828,-0.5708008,-0.2792969,-0.06933594,0.1181641
2496,-15.75,194.5625,33.25,0.9155273,-0.4921875,-0.8168945,-0.2866211,-0.06835938,0.09765625
2500,40.0625,167,22.875,1.055176,-0.6357422,-0.840332,-0.2924805,-0.06591797,0.08398438
2504,82.25,151.0625,23.3125,1.089844,-0.4101563,-0.8208008,-0.293457,-0.06298828,0.07324219
2508,81.8125,148.8125,26,1.256348,-0.2431641,-0.5825195,-0.2958984,-0.05957031,0.05664063
2512,56.1875,160.1875,36.3125,1.407715,-0.2900391,-0.3823242,-0.2983398,-0.0546875,0.04589844
2516,38.5625,168.1875,53.6875,1.225586,-0.453125,-0.4975586,-0.2998047,-0.05322266,0.03515625
2520,58.0625,151,53.4375,1.02002,-0.4257813,-0.7363281,-0.3007813,-0.04833984,0.02001953
2524,78.1875,139.125,44.75,1.113281,-0.324707,-0.7133789,-0.2998047,-0.04199219,0.00390625
2528,83.375,130.0625,37.1875,1.09375,-0.2124023,-0.6552734,-0.2998047,-0.04052734,-0.002441406
2532,71.75,128.5625,33.25,1.244629,-0.1850586,-0.4555664,-0.2998047,-0.03710938,-0.01464844
2536,50.875,135.0625,31,1.256348,-0.2241211,-0.3286133,-0.2973633,-0.03564453,-0.02734375
2540,33.8125,136.6875,37.125,1.225586,-0.387207,-0.2744141,-0.2949219,-0.03320313,-0.03515625
2544,38.0625,135.625,39.9375,1.121094,-0.4609375,-0.34375,-0.293457,-0.02929688,-0.04492188
2548,50.8125,125.375,37.875,1.0625,-0.4492188,-0.4169922,-0.2915039,-0.02587891,-0.05712891
2552,68.3125,115.625,31.375,1.124512,-0.4609375,-0.3325195,-0.2866211,-0.02587891,-0.06542969
2557,76,109.0625,31.125,1.097656,-0.4179688,-0.2705078,-0.2851563,-0.02441406,-0.07617188
2561,71.25,106.6875,32.25,1.194336,-0.355957,-0.1245117,-0.2817383,-0.0234375,-0.08447266
2565,56.9375,111.4375,33.75,1.171387,-0.324707,-0.1015625,-0.2792969,-0.0234375,-0.08984375
2569,44.3125,107.0625,39.1875,1.078125,-0.3364258,-0.1899414,-0.2744141,-0.02050781,-0.09765625
2573,52.6875,97.875,33.875,0.9619141,-0.2705078,-0.3901367,-0.2700195,-0.01953125,-0.1044922
2577,66.1875,77.875,24.125,0.9970703,-0.2006836,-0.378418,-0.2685547,-0.01806641,-0.1113281
2581,77.75,63.375,14.625,1.066406,-0.1420898,-0.2514648,-0.2661133,-0.01708984,-0.1166992
2585,76.8125,58.4375,7.5,1.128418,-0.04150391,-0.1977539,-0.2617188,-0.01806641,-0.1225586
2589,68.25,49.3125,-1.9375,0.9814453,0.105957,-0.378418,-0.2602539,-0.01806641,-0.1235352
2593,47.9375,37.6875,-12.375,0.9619141,0.1679688,-0.378418,-0.2592773,-0.0234375,-0.1264648
2597,19.375,27.4375,-12.9375,0.9116211,0.1523438,-0.2939453,-0.2568359,-0.0234375,-0.1318359
2601,-1.625,20.25,-19.5625,0.8999023,-0.05664063,-0.1630859,-0.2578125,-0.02587891,-0.1289063
2605,-9.6875,-4.8125,-11.1875,1.082031,-0.3286133,0.05957031,-0.2553711,-0.02587891,-0.1303711
2609,0.1875,1.5,-20.125,0.8496094,-0.387207,0.03662109,-0.2568359,-0.02587891,-0.1303711
2613,11.75,-3.3125,-26.375,0.8378906,-0.503418,0.005859375,-0.2578125,-0.02832031,-0.1279297
2617,19.9375,-13.125,-23.3125,0.7954102,-0.5,0.01367188,-0.2568359,-0.02832031,-0.1303711
2621,22.875,-18.125,-19,0.8222656,-0.4335938,0.01708984,-0.2568359,-0.03320313,-0.1279297
2625,18.6875,-21.5625,-16.625,0.8417969,-0.3637695,-0.005371094,-0.2568359,-0.03466797,-0.1264648
2629,7.4375,-27.8125,-8.9375,0.7836914,-0.3173828,-0.09375,-0.2568359,-0.03710938,-0.125
2633,-4.0625,-32.9375,-6.125,0.8457031,-0.3286133,-0.1401367,-0.2592773,-0.03710938,-0.1225586
2637,-9.25,-38.6875,-6.4375,0.8574219,-0.355957,-0.1938477,-0.2592773,-0.03710938,-0.1210938
2641,-9.5625,-49.8125,-5.9375,0.7993164,-0.3364258,-0.3129883,-0.2617188,-0.03808594,-0.1166992
2645,-8.375,-60.9375,-9.5,0.8959961,-0.3056641,-0.3398438,-0.2651367,-0.03808594,-0.1142578
2649,-8.0625,-72.5625,-14.8125,0.8261719,-0.2353516,-0.4169922,-0.2651367,-0.03808594,-0.1098633
2653,-20.0625,-87.25,-10.5,0.8842773,-0.2045898,-0.4516602,-0.2685547,-0.03955078,-0.105957
2657,-38.375,-100.9375,-4.8125,0.9272461,-0.2163086,-0.4936523,-0.2709961,-0.03955078,-0.09765625
2661,-43.6875,-105.5,-16.25,1.171387,-0.2548828,-0.3554688,-0.2724609,-0.04052734,-0.09228516
2665,-38.75,-108.9375,-30.5625,1.089844,-0.2939453,-0.3208008,-0.2783203,-0.04052734,-0.08544922
2669,-26.75,-117.5625,-38.125,1.159668,-0.3208008,-0.2553711,-0.2817383,-0.04296875,-0.07861328
2673,-10,-125.5625,-46.75,1.089844,-0.2978516,-0.2939453,-0.2827148,-0.046875,-0.06787109
2677,-4.0625,-135.125,-44.4375,1.147949,-0.2353516,-0.2939453,-0.2875977,-0.05078125,-0.05957031
2681,-4.9375,-136.9375,-49.75,1.225586,-0.1577148,-0.2514648,-0.2890625,-0.0546875,-0.04882813
2686,-13.375,-137.125,-50.0625,1.206055,-0.1420898,-0.2553711,-0.2915039,-0.05712891,-0.04052734
2690,-18.25,-140.3125,-48.8125,1.252441,-0.1850586,-0.2324219,-0.2924805,-0.06054688,-0.02832031
2694,-6.5,-144.6875,-52.3125,1.186523,-0.3095703,-0.2631836,-0.2949219,-0.06689453,-0.01757813
2698,10.25,-147.125,-51.125,1.202148,-0.3481445,-0.309082,-0.293457,-0.06835938,-0.006835938
2702,16,-157.3125,-40.3125,1.082031,-0.3286133,-0.4863281,-0.2958984,-0.07177734,0.004882813
2706,17.5,-160.5,-32.9375,1.299316,-0.3017578,-0.4477539,-0.293457,-0.07714844,0.02001953
2710,27.375,-165.375,-32.125,1.101563,-0.2822266,-0.6323242,-0.2949219,-0.07714844,0.02978516
2714,28.9375,-173.75,-24.75,1.279785,-0.3325195,-0.5551758,-0.293457,-0.07958984,0.04589844
2718,39.0625,-177.4375,-7.25,0.8730469,-0.550293,-0.9018555,-0.2900391,-0.08056641,0.06347656
2722,49.3125,-181.375,-7.125,1.337891,-0.2163086,-0.5976563,-0.2890625,-0.08056641,0.07421875
2726,44.75,-182.125,-2.6875,1.198242,-0.1928711,-0.6669922,-0.2827148,-0.08056641,0.09082031
2730,42.9375,-181.875,-0.625,1.159668,-0.1499023,-0.6899414,-0.2807617,-0.07568359,0.1083984
2734,30.5625,-186.75,11.625,1.089844,-0.1347656,-0.7631836,-0.2744141,-0.07568359,0.1181641
2738,14.5,-190.9375,28.25,0.9931641,-0.1347656,-0.9052734,-0.2685547,-0.07080078,0.137207
2742,-9.125,-208.5625,49.0625,1.055176,-0.2084961,-0.9902344,-0.2602539,-0.06933594,0.1518555
2746,1.25,-189.6875,21.25,1.198242,-0.2353516,-0.9208984,-0.2553711,-0.06835938,0.1630859
2750,-3.3125,-193.9375,15.0625,0.9697266,-0.2006836,-1.001465,-0.2426758,-0.06591797,0.1791992
2754,-8.5625,-196.875,17.375,1.016113,-0.2822266,-0.9516602,-0.234375,-0.06445313,0.1943359
2758,-18.875,-197,27.75,0.9423828,-0.3095703,-0.9824219,-0.2236328,-0.06298828,0.2021484
2762,-28.5,-199.6875,40.625,0.7875977,-0.3095703,-1.26709,-0.2114258,-0.06298828,0.21875
2766,-39.25,-220.4375,39.25,0.4775391,-0.2744141,-1.713379,-0.1972656,-0.06201172,0.2324219
2770,-56.875,-252,49.25,0.9541016,-0.3481445,-1.355469,-0.1855469,-0.06054688,0.2402344
2774,-66.75,-249.0625,50.3125,1.035645,-0.3134766,-0.9824219,-0.1650391,-0.06445313,0.2539063
2778,-68.5625,-227.875,42.4375,1.314453,-0.2626953,-0.6669922,-0.1435547,-0.06689453,0.2661133
2782,-75.0625,-211.625,33.6875,0.9970703,-0.2045898,-0.6054688,-0.1318359,-0.06933594,0.2714844
2786,-76.125,-185.375,26,0.8535156,-0.1459961,-0.6938477,-0.1137695,-0.07714844,0.2797852
2790,-72.125,-182.375,25.375,0.6518555,-0.2314453,-0.6552734,-0.09472656,-0.08300781,0.2841797
2794,-62.8125,-167.5625,30.3125,0.5898438,-0.2314453,-0.4746094,-0.08544922,-0.08691406,0.2895508
2798,-54.375,-144.6875,32.625,0.7451172,-0.1035156,-0.1860352,-0.07128906,-0.09326172,0.2919922
2802,-44.625,-106.0625,17.375,0.5161133,0.08642578,-0.2128906,-0.05566406,-0.09716797,0.293457
2806,-43.6875,-83.5,5.6875,0.3886719,0.1445313,-0.2436523,-0.05224609,-0.09960938,0.2963867
2810,-42.25,-57,-2.6875,0.2875977,0.05517578,-0.2128906,-0.04248047,-0.1030273,0.2949219
2815,-27.125,-41.0625,0.5625,0.1987305,-0.1230469,-0.1323242,-0.03759766,-0.1069336,0.2949219
2819,-12.9375,-16.25,0,0.1171875,-0.01416016,-0.4248047,-0.03759766,-0.1108398,0.2963867
2823,-8.625,-18.75,5,-0.04101563,0.01660156,-0.6132813,-0.03417969,-0.109375,0.2949219
2827,-5.1875,-15.875,4.8125,-0.07226563,0.04736328,-0.6479492,-0.03417969,-0.1108398,0.2949219
2831,-2.375,-7.9375,3.5,0.08642578,0.105957,-0.5439453,-0.03173828,-0.1108398,0.293457
2835,-1.125,3.625,-2.125,0.05126953,0.140625,-0.5551758,-0.03320313,-0.1108398,0.2949219
2839,-2.25,20.25,-8.8125,0.1557617,0.05908203,-0.6552734,-0.03173828,-0.1118164,0.2949219
2843,2.25,21.9375,-12.5,-0.1030273,0.02441406,-0.9208984,-0.03320313,-0.1108398,0.2949219
2847,3.9375,14.625,-8.75,-0.1342773,-0.02197266,-0.9902344,-0.03417969,-0.1132813,0.2949219
2851,7.6875,8.6875,-4.0625,-0.08789063,-0.07226563,-0.8476563,-0.03662109,-0.1118164,0.2949219
2855,10.625,16.8125,1.125,0.1054688,-0.04541016,-0.6630859,-0.03662109,-0.1108398,0.293457
2859,15.75,37,-7.1875,0.2138672,-0.02978516,-0.6245117,-0.0390625,-0.1108398,0.293457
2863,16.75,48.5625,-13.625,-0.01416016,-0.06054688,-0.8745117,-0.04394531,-0.1069336,0.293457
2867,22.875,46,-11.6875,-0.06054688,-0.1616211,-1.047852,-0.04589844,-0.1069336,0.293457
2871,24.8125,34.75,-3.625,-0.09130859,-0.1230469,-1.009277,-0.04980469,-0.1054688,0.293457
2875,17.8125,37.9375,0.625,0.109375,-0.03759766,-0.7553711,-0.05322266,-0.1020508,0.293457
2879,9.875,55.6875,0.1875,0.3535156,-0.07617188,-0.6171875,-0.05810547,-0.1020508,0.2919922
2883,15.8125,68,-10.25,-0.002441406,-0.1538086,-0.9438477,-0.06396484,-0.09960938,0.2919922
2887,18,64.4375,-3.8125,0.109375,-0.1538086,-1.101563,-0.06982422,-0.09814453,0.2895508
2891,18.25,51.5625,-4.5,-0.1225586,-0.09179688,-1.236328,-0.07128906,-0.09716797,0.2919922
2895,10.125,40.625,1.8125,0.03173828,-0.1308594,-1.105469,-0.078125,-0.09570313,0.2880859
2899,3.75,37,4.1875,0.09765625,-0.1459961,-0.9438477,-0.08056641,-0.09423828,0.2866211
2903,-5.25,45,9.0625,0.05126953,-0.1655273,-0.9941406,-0.08300781,-0.09179688,0.2866211
2907,-23.625,35.1875,29.0625,-0.08007813,-0.03759766,-1.078613,-0.08789063,-0.09570313,0.2851563
2911,-42.4375,27.1875,43.125,0.1674805,-0.1459961,-0.9477539,-0.09228516,-0.09716797,0.2841797
2915,-24.625,47.5,23.9375,0.3535156,-0.1928711,-0.840332,-0.09619141,-0.09814453,0.2841797
2919,2.625,54.1875,7.375,0.2294922,-0.2900391,-0.8745117,-0.1010742,-0.09960938,0.2827148
2923,23.5625,59.4375,4.25,0.3339844,-0.2509766,-0.8554688,-0.1054688,-0.09814453,0.2797852
2927,32.5625,69.5,8.5625,0.4853516,-0.07226563,-0.7631836,-0.1103516,-0.09716797,0.2783203
2931,21.3125,94,3.4375,0.5126953,0.08642578,-0.8862305,-0.1176758,-0.09570313,0.2783203
2935,14,100.4375,-2.1875,0.4775391,0.05126953,-1.024902,-0.1259766,-0.09179688,0.2714844
2939,12.5625,100.375,-3.75,0.3417969,-0.05664063,-1.121094,-0.1318359,-0.09082031,0.269043
2944,11,97.8125,3.8125,0.543457,-0.1191406,-0.8554688,-0.1425781,-0.09179688,0.2651367
2948,18.9375,110.75,6.875,0.7294922,-0.2124023,-0.5092773,-0.1484375,-0.08935547,0.2607422
2952,38.6875,136.5625,4.8125,0.9970703,-0.3208008,-0.3168945,-0.1567383,-0.08837891,0.2568359
2956,65.3125,156.3125,-10.125,0.8300781,-0.2084961,-0.5014648,-0.168457,-0.08300781,0.2485352
2960,81.6875,171.75,-34.9375,0.7216797,0.004882813,-0.9594727,-0.1816406,-0.078125,0.2416992
2964,61.625,152.6875,-35.125,0.5126953,0.121582,-1.024902,-0.1899414,-0.07421875,0.2348633
2968,20.4375,151.5625,-9.125,0.8613281,0.02832031,-0.6206055,-0.2006836,-0.07324219,0.2241211
2972,-2.75,171.875,-2.625,1.089844,-0.07617188,-0.2670898,-0.2114258,-0.07177734,0.2143555
2976,-12.4375,201.1875,4.5,1.372559,-0.2666016,-0.005371094,-0.2197266,-0.07421875,0.2089844
2980,19.25,230.25,-2.75,1.345703,-0.550293,-0.2285156,-0.2329102,-0.07421875,0.1899414
2984,68,228.125,-18.0625,0.8881836,-0.3911133,-0.7939453,-0.2460938,-0.07324219,0.1762695
2988,73,210.0625,-15.9375,0.7568359,-0.1459961,-1.070801,-0.2543945,-0.06933594,0.1630859
2992,45.875,188.4375,-4.8125,0.8535156,-0.01025391,-0.9672852,-0.2636719,-0.07080078,0.1450195
2996,5.75,185.1875,7.5625,1.070313,0.0009765625,-0.6479492,-0.2724609,-0.06835938,0.1303711
3000,-34.8125,191.8125,24.125,1.237305,-0.06445313,-0.4130859,-0.2768555,-0.06689453,0.1181641
3004,-64.375,204.625,38.9375,1.333984,-0.1928711,-0.2744141,-0.2817383,-0.06689453,0.1015625
3008,-72.9375,212.0625,44.875,1.368652,-0.371582,-0.2285156,-0.2890625,-0.06689453,0.08105469
3012,-40.625,213.875,38.125,1.446289,-0.7250977,-0.2744141,-0.2924805,-0.06445313,0.06787109
3016,17.375,215.5625,29.9375,1.357422,-0.6860352,-0.4667969,-0.2949219,-0.06298828,0.04736328
3020,53.8125,199.375,35.8125,1.368652,-0.6201172,-0.5244141,-0.2998047,-0.06201172,0.02539063
3024,59.625,205.9375,52.5,1.589844,-0.4570313,-0.4438477,-0.2983398,-0.05810547,0.01611328
3028,55.375,209.6875,54,1.558594,-0.3793945,-0.4667969,-0.2973633,-0.05175781,-0.001464844
3032,52.0625,212.75,51,1.655762,-0.4179688,-0.4628906,-0.2958984,-0.04931641,-0.02148438
3036,53.3125,215.9375,48.125,1.632324,-0.4882813,-0.4902344,-0.2924805,-0.046875,-0.03271484
3040,69.25,207.5625,41.0625,1.46582,-0.5307617,-0.6206055,-0.2900391,-0.04199219,-0.05273438
3044,93.25,188.375,32.5,1.349609,-0.4921875,-0.6899414,-0.2851563,-0.03955078,-0.06787109
3048,110.125,170.5625,25.75,1.268066,-0.3754883,-0.7285156,-0.2817383,-0.03955078,-0.08007813
3052,112.375,150.5625,17.5,1.109375,-0.1459961,-0.8129883,-0.2744141,-0.03955078,-0.09375
3056,98.9375,130.5625,5.5625,1.066406,-0.01416016,-0.7939453,-0.2709961,-0.03955078,-0.1035156
3060,70.8125,114.75,-1.75,1.059082,0.04736328,-0.7246094,-0.2675781,-0.04296875,-0.1098633
3064,38.9375,98.0625,-4.25,0.9697266,0.0009765625,-0.6513672,-0.2636719,-0.04296875,-0.1181641
3068,15.375,82.5,-4.0625,0.9931641,-0.1230469,-0.4707031,-0.2602539,-0.04443359,-0.125
3073,5.875,69,-5,0.8959961,-0.2084961,-0.3476563,-0.2553711,-0.04443359,-0.1289063
3077,5.9375,52.0625,-3.3125,0.8417969,-0.2548828,-0.1401367,-0.2553711,-0.04443359,-0.1333008
3081,13.3125,40.25,-6.875,0.8261719,-0.2900391,-0.01660156,-0.2519531,-0.04443359,-0.1357422
3085,20.6875,25.25,-5.8125,0.7875977,-0.3017578,0.04785156,-0.2495117,-0.04296875,-0.137207
3089,26.1875,12.5,-1.25,0.7373047,-0.2822266,0.06738281,-0.2509766,-0.04589844,-0.1401367
3093,26.1875,3.1875,2.375,0.8457031,-0.2587891,0.140625,-0.2485352,-0.046875,-0.137207
3097,21.4375,6.125,5.25,0.8920898,-0.2084961,0.140625,-0.2485352,-0.04833984,-0.1386719
3101,14.5625,7.875,1.5625,0.8959961,-0.1889648,0.1479492,-0.2485352,-0.046875,-0.1401367
3105,8.625,12.9375,-4.375,0.9541016,-0.1850586,0.159668,-0.2470703,-0.046875,-0.1401367
3109,-6.5625,3.75,17.4375,0.6791992,-0.2275391,-0.04003906,-0.2485352,-0.046875,-0.1416016
3113,-0.3125,7.0625,2.75,1.016113,-0.2392578,0.07128906,-0.2470703,-0.04443359,-0.1416016
3117,4.4375,4,-8,0.8339844,-0.2084961,-0.07470703,-0.2460938,-0.04589844,-0.1401367
3121,1.625,-5.0625,-8.9375,0.8378906,-0.1733398,-0.1591797,-0.2460938,-0.046875,-0.1416016
3125,-7.25,-13.25,-11.9375,0.8496094,-0.1616211,-0.2207031,-0.2470703,-0.046875,-0.1416016
3129,-14.5625,-22.9375,-15.25,0.8574219,-0.1499023,-0.2978516,-0.2470703,-0.04833984,-0.1416016
3133,-26.4375,-37.4375,-13.625,0.7993164,-0.1694336,-0.3974609,-0.2470703,-0.04931641,-0.1386719
3137,-38.125,-55.8125,-7.875,0.8574219,-0.1811523,-0.4321289,-0.2495117,-0.04931641,-0.1347656
3141,-41.875,-69,-13.9375,0.9233398,-0.1772461,-0.4208984,-0.253418,-0.04833984,-0.1318359
3145,-40.6875,-87.125,-22.875,0.9038086,-0.2045898,-0.4321289,-0.253418,-0.04833984,-0.1289063
3149,-35.875,-100.4375,-33.9375,1.000488,-0.1967773,-0.34375,-0.2578125,-0.04931641,-0.1210938
3153,-36,-110.9375,-41.0625,0.9853516,-0.1733398,-0.34375,-0.2636719,-0.0546875,-0.1157227
3157,-44.5,-122.5,-37,0.9892578,-0.1889648,-0.3012695,-0.2661133,-0.05566406,-0.1088867
3161,-52.9375,-135.375,-29.875,0.9389648,-0.2431641,-0.3515625,-0.2685547,-0.05712891,-0.09912109
3165,-57.6875,-156.4375,-17.25,0.9619141,-0.3286133,-0.378418,-0.2744141,-0.05810547,-0.08837891
3169,-52.5625,-162.1875,-20.9375,1.314453,-0.3208008,-0.1977539,-0.2783203,-0.05957031,-0.08154297
3173,-45.125,-149.5625,-38.5,1.279785,-0.2470703,-0.1591797,-0.2827148,-0.06298828,-0.06787109
3177,-55.8125,-150.0625,-36.625,1.175293,-0.2241211,-0.2089844,-0.2866211,-0.06445313,-0.05712891
3181,-66.75,-155.5625,-29.125,1.117188,-0.2900391,-0.2939453,-0.2875977,-0.06591797,-0.04638672
3185,-71.625,-166.3125,-13.875,1.09375,-0.3989258,-0.3706055,-0.2900391,-0.06835938,-0.03515625
3189,-75.125,-178.6875,7.5625,1.078125,-0.4140625,-0.4555664,-0.2949219,-0.06689453,-0.02050781
3193,-66.4375,-182.25,1.8125,1.500488,-0.371582,-0.2900391,-0.293457,-0.06835938,-0.01074219
3197,-39.3125,-154.5625,-36,1.442383,-0.2470703,-0.324707,-0.2958984,-0.07080078,0.002441406
3202,-38.9375,-162,-43.4375,1.213867,-0.1655273,-0.4863281,-0.293457,-0.07080078,0.01611328
3206,-51.4375,-167,-32.875,1.202148,-0.1889648,-0.5244141,-0.2958984,-0.07568359,0.02832031
3210,-67.875,-180.5625,-9.625,1.237305,-0.2666016,-0.559082,-0.2949219,-0.07714844,0.04199219
3214,-79.4375,-182.25,6.8125,1.016113,-0.2202148,-0.7402344,-0.2915039,-0.078125,0.05664063
3218,-102.125,-194.4375,24.5,1.09375,-0.2470703,-0.8710938,-0.2900391,-0.078125,0.06787109
3222,-113.0625,-203.875,23.125,1.163574,-0.2744141,-0.9169922,-0.2851563,-0.08056641,0.08544922
3226,-98.1875,-200.4375,-11.3125,1.458008,-0.402832,-0.6860352,-0.2817383,-0.08203125,0.1015625
3230,-56.0625,-181.875,-46.375,1.399902,-0.4335938,-0.7246094,-0.2758789,-0.08544922,0.1123047
3234,-44.625,-185.375,-54.4375,1.202148,-0.3754883,-0.7475586,-0.2700195,-0.09179688,0.1274414
3238,-49.6875,-180,-30.5625,1.19043,-0.4648438,-0.7553711,-0.2617188,-0.09814453,0.1450195
3242,-54.3125,-173.4375,3.625,1.027832,-0.4726563,-0.9052734,-0.2553711,-0.1005859,0.1533203
3246,-51.8125,-184.4375,27.875,0.7490234,-0.371582,-1.140137,-0.2460938,-0.1005859,0.1655273
3250,-52.875,-205.875,43.6875,0.7529297,-0.3134766,-1.20166,-0.237793,-0.1030273,0.1791992
3254,-39.375,-212.8125,40,0.9892578,-0.2705078,-1.105469,-0.2294922,-0.1030273,0.1914063
3258,-17.6875,-200.1875,20,0.9931641,-0.1035156,-1.066895,-0.215332,-0.1020508,0.2050781
3262,-13.0625,-198.25,11.4375,0.8300781,-0.02587891,-1.132324,-0.203125,-0.1030273,0.2202148
3266,-11.1875,-204.3125,12.1875,0.7451172,-0.01416016,-1.186523,-0.1948242,-0.1044922,0.2270508
3270,-19.125,-216.6875,19.0625,0.675293,0.01660156,-1.132324,-0.1791992,-0.1030273,0.237793
3274,-35.5625,-220.3125,35.8125,0.7836914,-0.01416016,-1.028809,-0.1616211,-0.1030273,0.2514648
3278,-52.6875,-215.875,46.3125,0.7060547,0.02050781,-0.9824219,-0.1494141,-0.1054688,0.2568359
3282,-58.5625,-204.8125,41.1875,0.8261719,-0.03369141,-0.84375,-0.1318359,-0.109375,0.2661133
3286,-48.625,-180.375,31.9375,0.8183594,-0.05273438,-0.7670898,-0.1162109,-0.1118164,0.2744141
3290,-43,-160.8125,23.25,0.5976563,0.06298828,-0.8208008,-0.1044922,-0.1132813,0.2773438
3294,-33.875,-156,13.5625,0.4467773,0.004882813,-0.8710938,-0.09130859,-0.1166992,0.28125
3298,-23.8125,-150.6875,6.6875,0.3652344,0.02832031,-0.9169922,-0.07470703,-0.1220703,0.2841797
3302,-29.875,-147.875,7.75,0.2294922,0.09033203,-0.9399414,-0.06640625,-0.1220703,0.2866211
3306,-43.125,-149.5,15.9375,0.1674805,0.06689453,-0.84375,-0.05224609,-0.1269531,0.2880859
3310,-36,-138.6875,9.3125,0.3959961,-0.04882813,-0.559082,-0.03759766,-0.1318359,0.2880859
3314,-16.875,-110.4375,1.375,0.4116211,0.0009765625,-0.3325195,-0.03173828,-0.1333008,0.2910156
3318,-4.375,-77.875,-6.3125,0.4233398,0.01660156,-0.1552734,-0.02001953,-0.1342773,0.2895508
3322,3.0625,-35.375,-9.6875,0.3886719,0.0009765625,-0.1669922,-0.01513672,-0.1357422,0.2895508
3326,6.125,-2.5,-7.25,0.1831055,0.05908203,-0.394043,-0.01416016,-0.1357422,0.2910156
3331,2.625,9,-2.0625,-0.1264648,0.1484375,-0.6899414,-0.01416016,-0.1333008,0.2895508
3335,-3.625,-4.8125,0.125,-0.2773438,0.1757813,-0.7207031,-0.01416016,-0.1342773,0.2910156
3339,-9.0625,-6.6875,-2.25,-0.1108398,0.1679688,-0.7016602,-0.01269531,-0.1342773,0.2895508
3343,-10.0625,-5.4375,-4.1875,-0.1186523,0.07470703,-0.6669922,-0.01025391,-0.1367188,0.2880859
3347,0.875,3.25,-10.5,-0.002441406,0.02832031,-0.5864258,-0.01025391,-0.1367188,0.2895508
3351,7.375,19.9375,-14.875,0.05517578,0.06689453,-0.6015625,-0.01171875,-0.1367188,0.2910156
3355,2.9375,38.1875,-13.375,-0.02197266,0.07861328,-0.7402344,-0.01269531,-0.1357422,0.2895508
3359,-1.6875,44.375,-10.5625,-0.1962891,0.07470703,-0.9208984,-0.01757813,-0.1333008,0.2895508
3363,-5.5625,30.3125,-8.25,-0.3354492,0.04003906,-0.9555664,-0.02001953,-0.1333008,0.2910156
3367,-4.0625,24,-3,-0.1459961,-0.07226563,-0.9130859,-0.02001953,-0.1342773,0.2910156
3371,8.5625,25.625,-1.3125,-0.1225586,-0.1230469,-0.8901367,-0.0234375,-0.1367188,0.2895508
3375,25.375,30.0625,-4.625,-0.04882813,-0.1035156,-0.824707,-0.02587891,-0.1342773,0.2895508
3379,33.8125,35.9375,-6.875,-0.04101563,-0.03369141,-0.7978516,-0.02929688,-0.1318359,0.2895508
3383,34.5625,48.125,-6.4375,0.03173828,0.01660156,-0.7978516,-0.03320313,-0.1279297,0.2919922
3387,29.5,58.375,-2.1875,0.08642578,0.04003906,-0.7978516,-0.03662109,-0.1269531,0.2910156
3391,24.25,70.25,-0.75,-0.04101563,0.06689453,-0.894043,-0.04248047,-0.1230469,0.2895508
3395,19.75,66.125,-0.0625,-0.01806641,0.04736328,-0.894043,-0.05078125,-0.1206055,0.2895508
3399,20,72.1875,1,0.02832031,-0.01025391,-0.8476563,-0.05224609,-0.1196289,0.2895508
3403,26.4375,80.6875,11.75,0.3149414,-0.1499023,-0.7094727,-0.06054688,-0.1166992,0.2851563
3407,33.0625,105.125,24,0.1674805,-0.1420898,-0.7978516,-0.06884766,-0.1132813,0.2895508
3411,42.5,115.0625,49.8125,0.3847656,-0.2392578,-0.9248047,-0.07714844,-0.1118164,0.2851563
3415,50,117.3125,66.375,-0.1303711,-0.08007813,-1.274902,-0.08886719,-0.1054688,0.2851563
3419,44.5,71.875,82.4375,-0.3046875,-0.06835938,-1.340332,-0.1010742,-0.09716797,0.28125
3423,42.625,35.9375,94.4375,-0.1342773,-0.2084961,-1.078613,-0.1044922,-0.09326172,0.2841797
3427,52.25,29.625,112.0625,0.4116211,-0.4882813,-0.5517578,-0.1079102,-0.08544922,0.2797852
3431,85.4375,57.9375,109.625,0.8730469,-0.6591797,-0.2363281,-0.1162109,-0.07714844,0.28125
3435,131.5,105.75,57.5625,0.8149414,-0.1928711,-0.4360352,-0.1210938,-0.06591797,0.2797852
3439,136.1875,121.625,-2.6875,0.4853516,0.3857422,-0.8745117,-0.1303711,-0.05322266,0.2758789
3443,102.5625,127.1875,-24.375,0.5859375,0.1914063,-0.7783203,-0.1435547,-0.04296875,0.269043
3447,69.125,147.875,-15.5,0.7836914,-0.1074219,-0.5170898,-0.1494141,-0.03710938,0.2636719
3451,48.5625,186.125,-10.5625,0.9658203,-0.1616211,-0.4667969,-0.1640625,-0.03173828,0.2592773
3455,29.9375,218.9375,-13.625,0.9658203,-0.03369141,-0.7553711,-0.1806641,-0.02929688,0.2460938
3460,-0.0625,241.625,-32.9375,0.5473633,0.3232422,-1.278809,-0.1923828,-0.02832031,0.2363281
3464,-30.0625,219.25,-41.5,0.4580078,-0.05664063,-1.348145,-0.2089844,-0.03173828,0.2211914
3468,-23.3125,202.5625,-38.4375,0.6362305,-0.5073242,-1.08252,-0.2236328,-0.03564453,0.206543
3472,-4.6875,194.625,-25.3125,0.8613281,-0.8647461,-0.7709961,-0.234375,-0.03955078,0.1982422
3476,33.75,200,-12.375,0.9697266,-1.059082,-0.7016602,-0.2436523,-0.04052734,0.1821289
3480,81.4375,193.75,-5.6875,0.9580078,-1.032227,-0.8168945,-0.2568359,-0.03955078,0.1640625
3484,120.5,182.6875,-5.875,0.6791992,-0.6279297,-1.13623,-0.2626953,-0.03320313,0.1533203
3488,119.625,154.6875,-3.3125,0.8339844,-0.387207,-1.020996,-0.2709961,-0.02929688,0.1396484
3492,106.125,155.6875,-4.8125,1.047363,-0.3520508,-0.7631836,-0.2768555,-0.02441406,0.125
3496,94.25,162.125,-10.125,1.124512,-0.4648438,-0.5629883,-0.2817383,-0.02197266,0.1166992
3500,105.9375,169.1875,-16.75,1.171387,-0.7016602,-0.4013672,-0.2866211,-0.02197266,0.1000977
3504,128.3125,179.5625,-15.6875,1.155762,-0.7871094,-0.4169922,-0.2900391,-0.01806641,0.08105469
3508,149,180.5625,-12.1875,1.035645,-0.7172852,-0.5898438,-0.2924805,-0.01806641,0.0703125
3512,157.625,176.1875,-11.8125,1.117188,-0.550293,-0.6938477,-0.2949219,-0.01708984,0.05419922
3516,157.5,169.8125,-23,1.09375,-0.4492188,-0.7363281,-0.2983398,-0.015625,0.03515625
3520,153.9375,170.25,-35.5,1.275879,-0.4335938,-0.6245117,-0.3007813,-0.01464844,0.02539063
3524,139.875,175.9375,-35.3125,1.237305,-0.3989258,-0.6977539,-0.3007813,-0.01806641,0.006347656
3528,116.5625,171,-22.0625,1.202148,-0.3364258,-0.6748047,-0.2998047,-0.02197266,-0.01074219
3532,95.5,161.3125,-8.75,1.159668,-0.3481445,-0.7363281,-0.2983398,-0.0234375,-0.02050781
3536,80.25,146.1875,-2.5625,1.171387,-0.3095703,-0.6787109,-0.2949219,-0.02587891,-0.03515625
3540,71.875,139.1875,-5.625,1.233398,-0.2900391,-0.5551758,-0.2924805,-0.02685547,-0.04882813
3544,69.4375,134.25,-11.1875,1.171387,-0.3173828,-0.4863281,-0.2924805,-0.02832031,-0.05419922
3548,74.0625,123.6875,-16.9375,1.19043,-0.3364258,-0.394043,-0.2890625,-0.03076172,-0.06542969
3552,77.125,116.75,-20.875,1.163574,-0.3173828,-0.3129883,-0.2851563,-0.03320313,-0.07861328
3556,77.0625,104.6875,-21.0625,1.140137,-0.2939453,-0.2553711,-0.2841797,-0.03564453,-0.08447266
3560,72.0625,98.5,-21.125,1.09375,-0.2509766,-0.2363281,-0.2792969,-0.03955078,-0.09375
3564,60.1875,89.25,-19,1.05127,-0.1694336,-0.2128906,-0.2768555,-0.04199219,-0.1035156
3568,50.4375,81.1875,-25,1.074219,-0.1420898,-0.1362305,-0.2744141,-0.04589844,-0.105957
3572,44.8125,77.8125,-36.1875,1.070313,-0.1928711,-0.07470703,-0.2724609,-0.04833984,-0.1142578
3576,36.875,71.6875,-34.8125,0.9970703,-0.2509766,-0.06298828,-0.2685547,-0.05322266,-0.1196289
3580,33.4375,64.8125,-30.5,0.9389648,-0.3017578,-0.05908203,-0.2651367,-0.05712891,-0.1225586
3584,33.875,53.625,-26.5,0.8652344,-0.2822266,-0.09765625,-0.2636719,-0.05810547,-0.1264648
3589,31.3125,41.625,-23.1875,0.8730469,-0.2314453,-0.0859375,-0.2626953,-0.06201172,-0.1303711
3593,25.25,34,-23,0.8730469,-0.1928711,-0.08203125,-0.2602539,-0.06298828,-0.1318359
3597,14.9375,26.8125,-20.75,0.8691406,-0.1538086,-0.07470703,-0.2592773,-0.06591797,-0.1347656
3601,2.4375,19.125,-17.125,0.8071289,-0.1616211,-0.1166992,-0.2578125,-0.06591797,-0.1357422
3605,-6.25,6.5,-12.4375,0.7641602,-0.2353516,-0.128418,-0.2568359,-0.06591797,-0.1357422
3609,-9.625,-7.375,-3.6875,0.7915039,-0.324707,-0.1435547,-0.2568359,-0.06835938,-0.1347656
3613,-7.5625,-15.9375,0,0.8496094,-0.340332,-0.112793,-0.2553711,-0.06933594,-0.1347656
3617,-2.1875,-26.8125,-0.375,0.8613281,-0.340332,-0.1362305,-0.2568359,-0.06689453,-0.1347656
3621,-0.6875,-32.9375,-0.375,0.9541016,-0.3017578,-0.1054688,-0.2568359,-0.06835938,-0.1289063
3625,-2.8125,-37.5,-5.375,0.9272461,-0.2431641,-0.1435547,-0.2592773,-0.06835938,-0.1303711
3629,-11.375,-46.8125,-6.0625,0.8417969,-0.2163086,-0.2631836,-0.2617188,-0.06835938,-0.1264648
3633,-24.5625,-62.6875,0,0.8535156,-0.2163086,-0.309082,-0.2626953,-0.06689453,-0.1225586
3637,-35.125,-76.3125,4.9375,0.8881836,-0.2314453,-0.3745117,-0.2651367,-0.06689453,-0.1196289
3641,-42.9375,-89.5625,4.1875,1.016113,-0.2006836,-0.34375,-0.2675781,-0.06689453,-0.1142578
3645,-46.9375,-92,-9.8125,0.9970703,-0.1577148,-0.378418,-0.2709961,-0.06591797,-0.1088867
3649,-44.4375,-104.3125,-22.5,1.0625,-0.2939453,-0.3554688,-0.2734375,-0.06689453,-0.1005859
3653,-32.9375,-114.1875,-27.9375,1.047363,-0.3676758,-0.3632813,-0.2768555,-0.06835938,-0.09521484
3657,-28.125,-130.125,-20.5625,1.031738,-0.3793945,-0.3745117,-0.2792969,-0.06835938,-0.08447266
3661,-33.375,-141.875,-5.8125,1.089844,-0.340332,-0.359375,-0.2817383,-0.06835938,-0.07470703
3665,-39.5,-147.75,-4.1875,1.291504,-0.2353516,-0.2553711,-0.2866211,-0.07080078,-0.06396484
3669,-50.0625,-145,-11.6875,1.217773,-0.1694336,-0.2939453,-0.2890625,-0.06933594,-0.05175781
3673,-55.375,-148.1875,-19.875,1.29541,-0.2470703,-0.2363281,-0.2924805,-0.06933594,-0.04052734
3677,-47.1875,-146.5,-27.0625,1.213867,-0.324707,-0.2363281,-0.293457,-0.06933594,-0.03125
3681,-41.75,-156.125,-16.25,1.097656,-0.3950195,-0.2822266,-0.2973633,-0.07177734,-0.02050781
3685,-44.375,-164.125,6.1875,1.09375,-0.3989258,-0.324707,-0.2973633,-0.07177734,-0.00390625
3689,-41.1875,-169.9375,14.375,1.202148,-0.355957,-0.3286133,-0.2973633,-0.07080078,0.004882813
3693,-41.1875,-166.5625,10.9375,1.268066,-0.2392578,-0.3168945,-0.2983398,-0.06933594,0.02001953
3697,-41.4375,-153.5,-9,1.314453,-0.1499023,-0.2783203,-0.2973633,-0.06933594,0.03515625
3701,-45.0625,-149.6875,-20.125,1.163574,-0.2084961,-0.3398438,-0.2949219,-0.07177734,0.04296875
3705,-47.3125,-153.875,-14.5,1.070313,-0.2939453,-0.4169922,-0.2949219,-0.07421875,0.05517578
3709,-51.75,-159.25,5.625,1.012207,-0.355957,-0.5170898,-0.2924805,-0.07421875,0.0703125
3713,-60.4375,-171.6875,34.9375,0.7680664,-0.4335938,-0.7822266,-0.2890625,-0.07421875,0.08105469
3718,-63.4375,-196.875,63.5,0.8183594,-0.4882813,-0.9326172,-0.2851563,-0.07177734,0.09619141
3722,-49.9375,-199.4375,51.3125,1.380371,-0.3481445,-0.6748047,-0.2792969,-0.06933594,0.1137695
3726,-30.375,-173.75,10.125,1.171387,-0.2045898,-0.6977539,-0.2744141,-0.06689453,0.1235352
3730,-38.3125,-180.875,12.8125,0.9931641,-0.2626953,-0.7324219,-0.2685547,-0.06689453,0.1396484
3734,-52,-186.1875,35.0625,0.9116211,-0.340332,-0.7900391,-0.2592773,-0.06835938,0.1547852
3738,-63.25,-200.5625,65.625,0.7138672,-0.3989258,-0.9438477,-0.2543945,-0.06689453,0.1655273
3742,-85.8125,-217.5,102.4375,0.7529297,-0.387207,-0.9863281,-0.2446289,-0.06591797,0.1831055
3746,-101.625,-231.25,128.4375,0.8110352,-0.4414063,-1.005371,-0.2319336,-0.06298828,0.1967773
3750,-92.625,-213.8125,113.3125,1.426758,-0.4257813,-0.5668945,-0.2211914,-0.06201172,0.2080078
3754,-54.3125,-166.25,68.625,1.372559,-0.4296875,-0.3325195,-0.2089844,-0.06054688,0.2211914
3758,-10.375,-122.4375,34.625,1.0625,-0.3286133,-0.4360352,-0.1982422,-0.05957031,0.2324219
3762,4.875,-111.6875,21.875,0.7177734,-0.1616211,-0.6708984,-0.1938477,-0.05810547,0.2348633
3766,-4.4375,-105.5625,30.625,0.5161133,-0.07617188,-0.8671875,-0.184082,-0.05810547,0.2431641
3770,-26,-106.75,40.625,0.3999023,-0.02197266,-1.047852,-0.1772461,-0.05712891,0.2485352
3774,-49,-118,47.1875,0.159668,-0.006347656,-1.26709,-0.1699219,-0.05566406,0.2539063
3778,-73.3125,-138.875,60.125,0.08642578,-0.06835938,-1.38623,-0.1601563,-0.05957031,0.2553711
3782,-92.1875,-163.0625,74.3125,0.2294922,-0.2314453,-1.255371,-0.1474609,-0.06201172,0.2661133
3786,-81.875,-164.8125,77.3125,0.4311523,-0.3833008,-1.074707,-0.1376953,-0.06445313,0.2705078
3790,-58.6875,-161.4375,72.875,0.4155273,-0.3364258,-0.9941406,-0.1245117,-0.06835938,0.2758789
3794,-33.75,-153.4375,58.4375,0.5512695,-0.2509766,-0.8364258,-0.1103516,-0.07421875,0.2851563
3798,-22.4375,-135.0625,48.375,0.4506836,-0.06054688,-0.8017578,-0.1010742,-0.07324219,0.2866211
3802,-32.5625,-120.125,49.0625,0.3925781,0.03613281,-0.7861328,-0.09033203,-0.07421875,0.2895508
3806,-50.9375,-105.625,51.25,0.2216797,0.06298828,-0.859375,-0.078125,-0.07714844,0.2910156
3810,-58.4375,-95.6875,48,0.2412109,-0.02978516,-0.809082,-0.07128906,-0.08056641,0.293457
3814,-47.5,-90.0625,38.9375,0.2104492,-0.1269531,-0.7246094,-0.06152344,-0.08447266,0.2949219
3818,-26.8125,-71.375,23.9375,0.2836914,-0.1230469,-0.5786133,-0.05566406,-0.08837891,0.2973633
3822,-8.4375,-47.4375,7.75,0.2875977,-0.03759766,-0.5551758,-0.05322266,-0.08935547,0.2973633
3826,-7.25,-29.6875,-0.25,0.1015625,0.05908203,-0.6552734,-0.04736328,-0.09082031,0.2973633
3830,-15.5,-19.75,3.75,0.02832031,0.008789063,-0.7363281,-0.04492188,-0.09326172,0.2963867
3834,-18.1875,-17.375,11.6875,-0.02978516,-0.05273438,-0.7553711,-0.04394531,-0.09326172,0.2963867
3838,-14.25,-11.375,14.25,-0.01806641,-0.06445313,-0.7670898,-0.04248047,-0.09326172,0.2973633
3842,-4.375,-9,10.8125,0.0009765625,-0.05273438,-0.7324219,-0.04150391,-0.09570313,0.2963867
3847,6.625,-1.375,-0.3125,-0.02978516,0.05126953,-0.7670898,-0.04150391,-0.09423828,0.2963867
3851,8.0625,3.9375,-8.25,0.05908203,0.05908203,-0.7592773,-0.04150391,-0.09423828,0.2963867
3855,2.375,15.625,-8.8125,-0.03320313,0.08251953,-0.8286133,-0.04003906,-0.09326172,0.2973633
3859,-3.3125,20.875,-6.0625,-0.06054688,0.03613281,-0.8901367,-0.04394531,-0.09570313,0.2973633
3863,-4.8125,21.9375,-4.8125,-0.1499023,0.02050781,-0.9746094,-0.04492188,-0.09423828,0.2988281
3867,-2.4375,14.625,-2.875,-0.1499023,-0.03759766,-0.9707031,-0.04589844,-0.09570313,0.2973633
3871,3.875,13.75,-3.5,-0.06835938,-0.07226563,-0.9091797,-0.04589844,-0.09423828,0.2963867
3875,10.0625,18.125,-6.4375,-0.05273438,-0.07226563,-0.9477539,-0.04833984,-0.09570313,0.2963867
3879,16.4375,19.3125,-10.125,-0.02978516,-0.06835938,-0.9360352,-0.05078125,-0.09179688,0.2949219
3883,18,24.25,-9.9375,-0.03710938,-0.02978516,-0.9169922,-0.05322266,-0.09326172,0.2963867
3887,15.625,27.1875,-7.5,-0.006347656,-0.02197266,-0.8710938,-0.05322266,-0.09082031,0.2949219
3891,15.375,31.75,-6.9375,0.004882813,-0.01025391,-0.8129883,-0.05566406,-0.08837891,0.2963867
3895,13.8125,44.0625,-6,0.1484375,0.0009765625,-0.7285156,-0.05908203,-0.08935547,0.2963867
3899,10.375,59.125,-7.5625,0.2026367,0.04003906,-0.6552734,-0.06396484,-0.08691406,0.293457
3903,2.6875,78.5,-9,0.2294922,0.09423828,-0.6513672,-0.06884766,-0.08544922,0.293457
3907,-12.875,92.3125,-4,0.2490234,0.05908203,-0.5864258,-0.07470703,-0.08691406,0.2919922
3911,-19.9375,112.9375,2.625,0.3808594,-0.006347656,-0.5708008,-0.08300781,-0.08837891,0.2895508
3915,-27.375,124.125,8.5625,0.2993164,-0.03369141,-0.609375,-0.09472656,-0.08837891,0.2851563
3919,-35.0625,147.9375,20.4375,0.4467773,0.06689453,-0.7749023,-0.1044922,-0.08935547,0.2841797
3923,-61.625,151.875,40.75,0.1831055,0.1835938,-0.9980469,-0.1176758,-0.09179688,0.2744141
3927,-89.4375,155.875,68.625,0.3227539,0.1176758,-1.001465,-0.1328125,-0.09814453,0.2675781
3931,-103.125,154.1875,85.3125,0.2836914,-0.03369141,-0.9516602,-0.1425781,-0.1005859,0.262207
3935,-91.3125,153.125,92.625,0.4736328,-0.2392578,-0.8056641,-0.1582031,-0.1044922,0.2539063
3939,-57.25,163.3125,87.375,0.690918,-0.4067383,-0.6669922,-0.1723633,-0.1054688,0.2431641
3943,-11.8125,172.6875,81.4375,0.6791992,-0.3173828,-0.840332,-0.1831055,-0.1054688,0.237793
3947,21.625,162.375,55.875,0.4619141,-0.02197266,-1.074707,-0.1962891,-0.1020508,0.2280273
3951,42.9375,150.875,41.125,0.6210938,-0.08398438,-1.094238,-0.2080078,-0.09326172,0.2172852
3955,49.5,142.5625,29,0.5976563,-0.01416016,-1.043945,-0.2172852,-0.09082031,0.2104492
3959,48.5,147,28.8125,0.8149414,-0.2006836,-0.8632813,-0.2255859,-0.08447266,0.2011719
3963,44.75,154.875,33.9375,0.8300781,-0.3134766,-0.7553711,-0.237793,-0.07958984,0.1899414
3967,49.25,168.5625,46.75,0.9501953,-0.4726563,-0.7441406,-0.2426758,-0.07568359,0.1831055
3971,66.25,166.875,43.5625,0.7836914,-0.2783203,-0.9438477,-0.2519531,-0.06933594,0.1699219
3976,83.875,157.625,29,0.8183594,-0.2548828,-0.9707031,-0.2626953,-0.06054688,0.1572266
3980,99.6875,154.1875,14.6875,0.8769531,-0.2705078,-0.9287109,-0.2661133,-0.05712891,0.1479492
3984,98.4375,155.875,10.0625,0.9892578,-0.3676758,-0.7783203,-0.2734375,-0.04931641,0.1342773
3988,84.125,164.9375,30.875,1.039551,-0.5541992,-0.6787109,-0.2817383,-0.04443359,0.1206055
3992,83,170.3125,54.0625,1.039551,-0.5737305,-0.7592773,-0.2827148,-0.03955078,0.1123047
3996,105.0625,167.3125,40.125,1.074219,-0.5073242,-0.7783203,-0.2890625,-0.03466797,0.09472656
4000,136.1875,164.5625,20.75,1.02002,-0.4257813,-0.8823242,-0.2949219,-0.02832031,0.08007813
4004,149.3125,154.625,6.25,1.066406,-0.3676758,-0.878418,-0.2973633,-0.0234375,0.06787109
4008,138.0625,152.9375,11.8125,1.159668,-0.387207,-0.7631836,-0.2983398,-0.01806641,0.05273438
4012,113.625,160,31.375,1.260254,-0.4179688,-0.644043,-0.2998047,-0.015625,0.03759766
4016,97.75,165.5,42.0625,1.256348,-0.4453125,-0.5864258,-0.2998047,-0.01171875,0.02685547
4020,100.625,160.6875,46.4375,1.151855,-0.4453125,-0.6630859,-0.3017578,-0.008300781,0.01074219
4024,113.8125,148.4375,37.75,1.163574,-0.355957,-0.6708984,-0.2983398,-0.003417969,-0.00390625
4028,120.5,139,27.8125,1.09375,-0.2470703,-0.6899414,-0.2983398,-0.001953125,-0.01464844
4032,110.25,132.375,23.6875,1.13623,-0.2275391,-0.5898438,-0.2958984,-0.0004882813,-0.02734375
4036,100.25,133.5625,19.5625,1.206055,-0.2939453,-0.4438477,-0.2958984,0,-0.03955078
4040,90.5625,133.8125,18.5625,1.140137,-0.3754883,-0.378418,-0.2924805,0,-0.04638672
4044,84.0625,129.5625,21.8125,1.105469,-0.421875,-0.34375,-0.2890625,-0.0004882813,-0.06103516
4048,78.8125,123.875,25.8125,1.082031,-0.4179688,-0.3168945,-0.2851563,0,-0.07470703
4052,75.125,118.625,23.875,1.13623,-0.4140625,-0.2436523,-0.2827148,0.001464844,-0.08007813
4056,71.8125,119.625,17.375,1.124512,-0.371582,-0.1821289,-0.2792969,0.001464844,-0.09228516
4060,61.875,119.375,16.4375,1.070313,-0.3911133,-0.1474609,-0.2758789,0.001464844,-0.1020508
4064,56.4375,115.75,19.125,1.078125,-0.4570313,-0.1245117,-0.2734375,0,-0.1088867
4068,58.75,109.5,21.375,0.9462891,-0.4570313,-0.2016602,-0.2685547,0.001464844,-0.1181641
4072,61.8125,98.25,25.8125,0.9462891,-0.4257813,-0.1938477,-0.2626953,0.001464844,-0.1264648
4076,66.75,85.625,27.3125,0.9233398,-0.3481445,-0.2324219,-0.2617188,0.001464844,-0.1303711
4080,71.75,77.0625,17.875,0.8999023,-0.2202148,-0.2670898,-0.2568359,0,-0.1357422
4084,66.8125,63.3125,10.75,0.8300781,-0.1191406,-0.3398438,-0.2519531,-0.001953125,-0.1416016
4088,53.3125,52.1875,6.5,0.8574219,-0.06835938,-0.3476563,-0.2519531,-0.001953125,-0.1455078
4092,35.9375,40.375,4.3125,0.7529297,-0.03369141,-0.4438477,-0.2470703,-0.0004882813,-0.1484375
4096,15.5,21,8.125,0.6479492,-0.03759766,-0.5361328,-0.2460938,-0.001953125,-0.1523438
4100,-5.8125,-3.375,14.375,0.7177734,-0.06835938,-0.5283203,-0.2460938,-0.004394531,-0.1538086
4105,-23.375,-17.8125,13.6875,0.8691406,-0.1230469,-0.4052734,-0.2460938,-0.0004882813,-0.1523438
4109,-27,-17,-9.4375,1.0625,-0.1694336,-0.1669922,-0.2470703,-0.0004882813,-0.1523438
4113,-35.375,-21,-18.25,0.8959961,-0.2744141,-0.1015625,-0.2485352,0,-0.1508789
4117,-41.3125,-30.3125,-14.1875,0.8339844,-0.3833008,-0.04394531,-0.2485352,-0.0004882813,-0.1455078
4121,-35.9375,-42.3125,-11.75,0.8496094,-0.4335938,0.02099609,-0.2519531,0,-0.1455078
4125,-26.625,-49.4375,-14.1875,0.9389648,-0.3950195,0.06738281,-0.253418,0,-0.1425781
4129,-19.1875,-50.5625,-26.0625,0.9775391,-0.3017578,0.01367188,-0.2543945,0,-0.1401367
4133,-21.3125,-50.5625,-36.8125,0.9658203,-0.2626953,-0.06689453,-0.2568359,-0.0004882813,-0.1357422
4137,-29.625,-55,-41.875,0.9892578,-0.2626953,-0.1435547,-0.2592773,-0.001953125,-0.1318359
4141,-33.4375,-59.25,-47.3125,0.9736328,-0.2783203,-0.2207031,-0.2617188,-0.004394531,-0.1279297
4145,-32.875,-72.25,-50,0.9233398,-0.2900391,-0.3476563,-0.2661133,-0.009277344,-0.1210938
4149,-28.6875,-86.5,-54.25,0.9389648,-0.2822266,-0.4555664,-0.2675781,-0.01171875,-0.1210938
4153,-26.8125,-106.75,-55.0625,0.8999023,-0.2431641,-0.5551758,-0.2734375,-0.015625,-0.1113281
4157,-28.375,-124.25,-54.5,0.9970703,-0.2124023,-0.6206055,-0.2768555,-0.01806641,-0.1020508
4161,-27.125,-142.625,-62.875,1.031738,-0.1772461,-0.6669922,-0.2783203,-0.0234375,-0.09765625
4165,-27.5,-156.75,-69.3125,1.117188,-0.1538086,-0.6630859,-0.2841797,-0.02685547,-0.08300781
4169,-31.4375,-170.0625,-76.625,1.113281,-0.1538086,-0.6708984,-0.2866211,-0.03320313,-0.07080078
4173,-39.6875,-184.875,-75,1.175293,-0.1889648,-0.6401367,-0.2915039,-0.03466797,-0.05957031
4177,-48.8125,-195.25,-66.8125,1.13623,-0.2392578,-0.6748047,-0.2958984,-0.04199219,-0.04345703
4181,-63.4375,-217,-46.3125,1.070313,-0.3017578,-0.7363281,-0.2983398,-0.04833984,-0.02294922
4185,-80.8125,-230.9375,-21.625,1.403809,-0.3598633,-0.6513672,-0.2998047,-0.04833984,-0.01074219
4189,-61.8125,-201.1875,-59.5625,1.768066,-0.3442383,-0.3823242,-0.3007813,-0.05078125,0.009277344
4193,-46.375,-194.0625,-78.25,1.353516,-0.2978516,-0.5400391,-0.2998047,-0.05712891,0.02685547
4197,-43.1875,-203.6875,-74.625,1.29541,-0.3364258,-0.6015625,-0.2983398,-0.06201172,0.03613281
4201,-42.1875,-211.1875,-63.3125,1.241211,-0.3676758,-0.6591797,-0.2949219,-0.07080078,0.05517578
4205,-55.125,-224.6875,-35.6875,1.113281,-0.371582,-0.7285156,-0.2915039,-0.07421875,0.07861328
4209,-74.1875,-237.125,-5.25,1.22168,-0.371582,-0.7592773,-0.2875977,-0.078125,0.08935547
4213,-70.1875,-230.4375,-16.25,1.477539,-0.3017578,-0.6206055,-0.2792969,-0.08056641,0.1113281
4217,-53,-207.375,-37.8125,1.469727,-0.2900391,-0.5708008,-0.2700195,-0.08544922,0.1303711
4221,-40.125,-191.5625,-46.75,1.175293,-0.2241211,-0.6787109,-0.2661133,-0.08837891,0.1396484
4225,-38.625,-191.625,-39.8125,1.000488,-0.2006836,-0.7631836,-0.2543945,-0.09326172,0.1572266
4229,-47.25,-197.375,-21.875,0.8881836,-0.1928711,-0.8476563,-0.2446289,-0.1005859,0.1723633
4234,-65,-203.0625,5.375,0.7602539,-0.1616211,-0.9360352,-0.2387695,-0.1044922,0.1806641
4238,-93.875,-213.125,32.1875,0.7451172,-0.1694336,-0.9516602,-0.2246094,-0.1069336,0.1943359
4242,-114.375,-208.4375,49.0625,0.8535156,-0.1772461,-0.8823242,-0.2128906,-0.1108398,0.2080078
4246,-118.9375,-189.625,47.625,1.109375,-0.2548828,-0.6132813,-0.2045898,-0.1142578,0.2158203
4250,-97,-144.9375,41.375,1.059082,-0.340332,-0.4785156,-0.1923828,-0.1206055,0.2241211
4254,-70.125,-116.0625,46.625,0.8378906,-0.2744141,-0.5864258,-0.1831055,-0.1254883,0.2294922
4258,-48.8125,-102.125,48.0625,0.5976563,-0.1347656,-0.7363281,-0.1772461,-0.1269531,0.2324219
4262,-42.375,-99.1875,56.125,0.4892578,0.02050781,-0.9052734,-0.1723633,-0.1293945,0.2402344
4266,-56.8125,-108.125,60,0.3110352,0.1835938,-1.013184,-0.1665039,-0.1279297,0.2416992
4270,-62.3125,-109.9375,41.6875,0.5668945,0.2070313,-0.8745117,-0.1625977,-0.1308594,0.2446289
4274,-48.375,-99.5625,7.875,0.4814453,0.2148438,-0.8208008,-0.1542969,-0.1357422,0.25
4278,-34.625,-90.6875,-12.5,0.4467773,0.1601563,-0.8671875,-0.1435547,-0.1396484,0.2539063
4282,-21.875,-92.8125,-20.375,0.4311523,0.04003906,-0.8515625,-0.1411133,-0.140625,0.2539063
4286,-11,-90.125,-18.3125,0.3305664,0.04003906,-0.824707,-0.1318359,-0.1430664,0.2568359
4290,-11.375,-83.25,-9.0625,0.3266602,0.1098633,-0.8286133,-0.1235352,-0.1469727,0.2607422
4294,-19.25,-77.3125,-7.8125,0.2954102,0.203125,-0.7900391,-0.1186523,-0.1469727,0.262207
4298,-23.5,-66.8125,-13.125,0.3188477,0.2109375,-0.7207031,-0.1103516,-0.1494141,0.2661133
4302,-27.125,-52.8125,-17.9375,0.3305664,0.2109375,-0.6591797,-0.1044922,-0.1508789,0.2661133
4306,-33.0625,-39.25,-20.875,0.2412109,0.1601563,-0.6748047,-0.1020508,-0.1533203,0.2661133
4310,-37.4375,-28.875,-14.375,0.1831055,0.07470703,-0.6938477,-0.09716797,-0.1582031,0.269043
4314,-34.375,-25.375,-6.8125,0.1015625,-0.006347656,-0.6669922,-0.09472656,-0.1621094,0.2661133
4318,-21.5625,-21.625,-2.5625,0.1289063,-0.07617188,-0.6323242,-0.09228516,-0.1645508,0.2661133
4322,2.0625,-10.1875,-4.6875,0.1948242,-0.02587891,-0.6513672,-0.09130859,-0.1655273,0.2675781
4326,12.8125,-6.0625,-11.6875,0.02050781,0.1445313,-0.7631836,-0.09130859,-0.1655273,0.2661133
4330,14.8125,-2.9375,-12.25,0.04736328,0.1757813,-0.7749023,-0.09033203,-0.1645508,0.2675781
4334,10.875,1.3125,-9.125,0.1054688,0.1445313,-0.7553711,-0.08789063,-0.1630859,0.2705078
4338,4.125,9.75,-1.875,0.06298828,0.140625,-0.7709961,-0.08886719,-0.1630859,0.2661133
4342,-0.5625,15.125,4.5,0.07861328,0.09033203,-0.7939453,-0.09033203,-0.1621094,0.2661133
4346,2.1875,19.25,7.9375,0.01660156,0.09423828,-0.859375,-0.09130859,-0.1645508,0.2675781
4350,11.6875,19.3125,3.8125,0.07861328,0.06298828,-0.8325195,-0.09375,-0.1621094,0.2651367
4354,22.625,24.25,0.5625,0.1557617,0.1098633,-0.8056641,-0.09619141,-0.1621094,0.2651367
4358,23.6875,32.6875,-1.625,0.1713867,0.15625,-0.7670898,-0.09863281,-0.1591797,0.2675781
4363,22.5625,45.125,-0.4375,0.2412109,0.1098633,-0.7094727,-0.1010742,-0.1567383,0.2661133
4367,23.375,58.3125,0.4375,0.3417969,0.04394531,-0.6245117,-0.1030273,-0.1542969,0.2675781
4371,28.5,83.5,1,0.3691406,0.1098633,-0.7055664,-0.1079102,-0.1518555,0.262207
4375,27.375,92.4375,-1.375,0.3266602,0.1914063,-0.7709961,-0.1176758,-0.1479492,0.262207
4379,24.25,103.5,-8.625,0.3110352,0.253418,-0.8017578,-0.1235352,-0.1455078,0.2607422
4383,18.375,114.3125,-16.125,0.4311523,0.2109375,-0.7978516,-0.1318359,-0.1455078,0.2583008
4387,9.125,129.625,-21.125,0.3613281,0.253418,-0.8286133,-0.1411133,-0.1455078,0.2524414
4391,2.8125,136.8125,-22.1875,0.3496094,0.1679688,-0.9633789,-0.1474609,-0.1445313,0.25
4395,-1.3125,127.0625,-23.875,0.2216797,0.1333008,-1.028809,-0.1591797,-0.1455078,0.2416992
4399,2.1875,116.875,-19.375,0.3305664,-0.06835938,-0.9052734,-0.168457,-0.1469727,0.2363281
4403,10.75,116.6875,-8.25,0.5395508,-0.1889648,-0.6552734,-0.1733398,-0.1455078,0.230957
4407,25.25,130.8125,11.5625,0.7177734,-0.2626953,-0.5976563,-0.1831055,-0.1469727,0.2241211
4411,40.8125,135.5,16.1875,0.578125,-0.1269531,-0.7246094,-0.1923828,-0.1420898,0.21875
4415,55.8125,136.8125,15.75,0.5820313,-0.05273438,-0.8168945,-0.1982422,-0.1367188,0.2104492
4419,59,130.375,16.8125,0.6479492,-0.06445313,-0.6899414,-0.2080078,-0.1333008,0.206543
4423,50.125,138.25,32.8125,0.8691406,-0.1655273,-0.4321289,-0.2172852,-0.1279297,0.1982422
4427,58.375,159.0625,50.6875,0.7836914,-0.1459961,-0.6630859,-0.2246094,-0.1230469,0.1914063
4431,70,142.25,51.6875,0.5629883,-0.07226563,-0.8979492,-0.2363281,-0.1157227,0.1831055
4435,89.6875,133.0625,53.25,0.543457,-0.01806641,-1.08252,-0.2446289,-0.1054688,0.1723633
4439,100.875,111.8125,44.75,0.6518555,-0.02587891,-0.9130859,-0.2509766,-0.1005859,0.1669922
4443,106.875,109.4375,43,0.9194336,-0.09570313,-0.6669922,-0.2553711,-0.09082031,0.1586914
4447,107.875,119.25,43.8125,1.039551,-0.01416016,-0.7402344,-0.2626953,-0.08203125,0.1508789
4451,92.5625,127.0625,40.25,0.9155273,0.1757813,-1.028809,-0.2685547,-0.07714844,0.1464844
4455,69.25,118.4375,32.0625,0.9038086,0.1601563,-1.151855,-0.2734375,-0.06835938,0.137207
4459,49.9375,113.0625,30.6875,1.043457,-0.01025391,-1.024902,-0.2768555,-0.06201172,0.125
4463,45.75,116.5625,21.75,1.241211,-0.2084961,-0.7709961,-0.2792969,-0.05957031,0.1181641
4467,53.1875,124.125,15.3125,1.353516,-0.4335938,-0.5283203,-0.2851563,-0.05566406,0.1069336
4471,71.9375,138.3125,20.6875,1.395996,-0.5229492,-0.5976563,-0.2900391,-0.05175781,0.09619141
4475,85.1875,135.5625,15.9375,0.8803711,-0.1694336,-1.101563,-0.2915039,-0.05078125,0.08789063
4479,87.8125,106.0625,-1.8125,0.9931641,-0.1772461,-1.020996,-0.2949219,-0.04833984,0.07568359
4483,92.6875,106.8125,-11.3125,1.186523,-0.3134766,-0.7441406,-0.2958984,-0.04589844,0.06494141
4487,87.5,109.4375,-11.1875,1.206055,-0.3754883,-0.5170898,-0.2973633,-0.04589844,0.05810547
4492,84.3125,118.8125,-8.25,1.302734,-0.534668,-0.2861328,-0.2998047,-0.04443359,0.04736328
4496,81.25,127.4375,7.875,1.128418,-0.5581055,-0.3515625,-0.3007813,-0.04443359,0.03515625
4500,79.375,122,21.3125,1.05127,-0.4453125,-0.4746094,-0.2998047,-0.04052734,0.02978516
4504,84.8125,117.5625,11.875,0.9423828,-0.2548828,-0.5708008,-0.3007813,-0.04052734,0.01708984
4508,78.4375,114.3125,5.625,1.101563,-0.2392578,-0.4399414,-0.2998047,-0.03955078,0.004882813
4512,71.625,121.25,-0.3125,1.09375,-0.2705078,-0.3398438,-0.3007813,-0.03710938,0
4516,61.3125,123.5625,4.1875,1.097656,-0.3520508,-0.2592773,-0.3007813,-0.03808594,-0.01074219
4520,56.3125,126.3125,8.4375,1.121094,-0.4453125,-0.2016602,-0.2983398,-0.03564453,-0.02294922
4524,57.125,124.3125,17,1.055176,-0.4765625,-0.2089844,-0.2973633,-0.03808594,-0.02832031
4528,66.3125,121.5625,18,1.02002,-0.4296875,-0.2939453,-0.2949219,-0.03710938,-0.03955078
4532,73,112.1875,15.4375,0.9892578,-0.340332,-0.3476563,-0.2924805,-0.03710938,-0.05175781
4536,81,108.6875,6.5,1.085938,-0.3173828,-0.2670898,-0.2915039,-0.03564453,-0.05566406
4540,83,104.6875,1.125,1.043457,-0.3056641,-0.2363281,-0.2900391,-0.03564453,-0.06640625
4544,78.1875,105.5,-0.625,1.124512,-0.3095703,-0.1401367,-0.2827148,-0.03808594,-0.07470703
4548,69.75,105.3125,1.75,1.016113,-0.3056641,-0.1669922,-0.2817383,-0.03808594,-0.08007813
4552,58.6875,100.5,8.75,1.031738,-0.3286133,-0.1474609,-0.2807617,-0.04052734,-0.08984375
4556,57.125,98.125,7.625,1.012207,-0.3286133,-0.1591797,-0.2758789,-0.04052734,-0.09765625
4560,62.5,92.75,0.8125,1.031738,-0.3481445,-0.09375,-0.2744141,-0.04052734,-0.1005859
4564,69.125,85.625,-3.8125,1.016113,-0.324707,-0.08984375,-0.2709961,-0.04443359,-0.1098633
4568,74.0625,80.0625,-8.0625,1.027832,-0.2744141,-0.07080078,-0.2685547,-0.04589844,-0.1157227
4572,71.9375,77.75,-9.4375,0.9658203,-0.2006836,-0.08984375,-0.2675781,-0.04589844,-0.1181641
4576,60,69.75,-6.4375,0.9350586,-0.1616211,-0.1015625,-0.2626953,-0.04931641,-0.125
4580,46.375,63.25,-3.25,0.9116211,-0.1308594,-0.1362305,-0.2592773,-0.05322266,-0.1289063
4584,37.9375,57.375,-10.5,0.9580078,-0.1035156,-0.07861328,-0.2592773,-0.05175781,-0.1303711
4588,30.75,54.5,-18.5,0.9350586,-0.1191406,-0.05908203,-0.2553711,-0.05322266,-0.1347656
4592,22.5,51.8125,-21.8125,0.9038086,-0.1694336,0.001953125,-0.253418,-0.05712891,-0.1386719
4596,14.875,46.375,-19.5,0.8574219,-0.2084961,0.02490234,-0.2519531,-0.05810547,-0.1401367
4600,8.5625,38.5625,-9.3125,0.8071289,-0.2861328,0.02880859,-0.2495117,-0.05712891,-0.1455078
4604,3.8125,24.5,3.4375,0.5087891,-0.2900391,-0.1015625,-0.2495117,-0.06054688,-0.144043
4608,10.9375,4.1875,3.25,1.132324,-0.4140625,0.2290039,-0.2470703,-0.05810547,-0.1469727
4612,33.4375,15.375,-15.4375,0.8339844,-0.2822266,0.1635742,-0.2460938,-0.05810547,-0.1455078
4616,32.375,7.0625,-14.4375,0.8183594,-0.2548828,0.140625,-0.2460938,-0.06201172,-0.1484375
4621,27.375,1.75,-10.625,0.8417969,-0.2084961,0.1557617,-0.2460938,-0.06298828,-0.1484375
4625,17.625,-4.5625,-1.1875,0.7797852,-0.1811523,0.08642578,-0.2460938,-0.06445313,-0.1484375
4629,2.1875,-15.1875,12.9375,0.7641602,-0.1577148,0.02490234,-0.2446289,-0.06591797,-0.1469727
4633,-8.0625,-20.75,16.75,0.8999023,-0.1499023,0.04785156,-0.2460938,-0.06298828,-0.1455078
4637,-11.0625,-20.125,5.875,0.9194336,-0.1152344,0.005859375,-0.2485352,-0.06054688,-0.144043
4641,-13.25,-18.8125,-7.5625,0.9077148,-0.09960938,-0.05126953,-0.2485352,-0.06054688,-0.1425781
4645,-20.125,-29.25,-12.125,0.7993164,-0.09179688,-0.1743164,-0.2485352,-0.06201172,-0.1401367
4649,-28.8125,-43.8125,-12.375,0.7797852,-0.1113281,-0.2592773,-0.2509766,-0.06298828,-0.137207
4653,-41.6875,-61.5625,-3.9375,0.7529297,-0.1655273,-0.34375,-0.253418,-0.06298828,-0.1357422
4657,-53.4375,-81.25,4.25,0.8300781,-0.2163086,-0.3706055,-0.2553711,-0.06201172,-0.1318359
4661,-53.0625,-91.75,-0.5,1.008301,-0.2822266,-0.2900391,-0.2592773,-0.06054688,-0.1279297
4665,-41.1875,-96,-15.8125,1.02002,-0.2744141,-0.2783203,-0.2626953,-0.06054688,-0.1196289
4669,-37.8125,-109.5,-21.9375,0.9580078,-0.2314453,-0.3325195,-0.2636719,-0.06054688,-0.1181641
4673,-43,-124.875,-20.6875,0.9775391,-0.2163086,-0.3666992,-0.2709961,-0.06298828,-0.1098633
4677,-56.1875,-141.375,-8.375,0.9116211,-0.2275391,-0.4516602,-0.2734375,-0.06201172,-0.09765625
4681,-75.1875,-165.6875,11.3125,0.9892578,-0.2587891,-0.5131836,-0.2768555,-0.06298828,-0.08984375
4685,-72.5625,-153.625,-7.4375,1.461914,-0.2470703,-0.2861328,-0.2827148,-0.06054688,-0.07763672
4689,-66.375,-142.6875,-38.5,1.22168,-0.1420898,-0.4091797,-0.2851563,-0.06054688,-0.06396484
4693,-69.375,-150,-54.3125,1.268066,-0.2163086,-0.4130859,-0.2890625,-0.06201172,-0.05957031
4697,-72.625,-155.0625,-53.75,1.225586,-0.3173828,-0.4321289,-0.2915039,-0.06591797,-0.04345703
4701,-76.125,-170.4375,-42.9375,1.113281,-0.3793945,-0.4863281,-0.2915039,-0.07177734,-0.03125
4705,-80.0625,-187.625,-24.9375,1.233398,-0.4296875,-0.4594727,-0.2958984,-0.07177734,-0.02294922
4709,-63,-174.5,-41.9375,1.725586,-0.355957,-0.1513672,-0.2973633,-0.07177734,-0.006835938
4713,-38.75,-149.9375,-79.3125,1.516113,-0.2006836,-0.2246094,-0.2958984,-0.07958984,0.006347656
4717,-30,-145.4375,-101.9375,1.504395,-0.1850586,-0.2207031,-0.2983398,-0.08544922,0.01708984
4721,-11.5625,-150.625,-106.625,1.585938,-0.3134766,-0.1821289,-0.2949219,-0.09326172,0.02685547
4725,31.3125,-127.75,-130.375,1.438477,-0.2392578,-0.2900391,-0.2915039,-0.1044922,0.04052734
4729,75.125,-137.3125,-147.9375,1.217773,-0.2006836,-0.5209961,-0.2890625,-0.1142578,0.04980469
4733,106.25,-149.9375,-154.0625,1.186523,-0.05664063,-0.644043,-0.2827148,-0.1245117,0.06347656
4737,84.3125,-151.875,-130.3125,1.279785,0.1875,-0.5898438,-0.2758789,-0.1342773,0.08105469
4741,35.875,-155.6875,-97.4375,1.179199,0.2456055,-0.6513672,-0.2709961,-0.1396484,0.09082031
4745,-4.6875,-163,-71.375,1.256348,0.1679688,-0.5322266,-0.2626953,-0.1445313,0.105957
4750,-18.3125,-158.8125,-47.25,1.248535,-0.06835938,-0.4248047,-0.2553711,-0.1518555,0.1206055
4754,-11,-160.8125,-18.1875,1.109375,-0.2202148,-0.4013672,-0.2519531,-0.1533203,0.1289063
4758,-0.75,-152.75,12.25,0.9775391,-0.2626953,-0.5439453,-0.2446289,-0.1533203,0.1396484
4762,8.125,-167,41.875,0.8378906,-0.2163086,-0.6708984,-0.237793,-0.1533203,0.1518555
4766,5.375,-169.3125,68.125,0.8457031,-0.1347656,-0.7285156,-0.2329102,-0.1508789,0.1616211
4770,-4.0625,-174.75,83.8125,0.7797852,-0.04541016,-0.809082,-0.2270508,-0.1430664,0.1762695
4774,-14.6875,-178.5,86.0625,0.9541016,0.07080078,-0.7324219,-0.2197266,-0.1381836,0.1860352
4778,-18.5625,-165.5,73.375,0.8378906,0.08642578,-0.7592773,-0.2163086,-0.1342773,0.1967773
4782,-26.125,-172.875,76.25,0.5512695,0.05908203,-0.9672852,-0.2055664,-0.1318359,0.2080078
4786,-59.3125,-192.5625,104.875,0.5200195,0.07470703,-0.9980469,-0.1948242,-0.1279297,0.21875
4790,-97,-198.75,127.125,0.8730469,0.01269531,-0.8862305,-0.1899414,-0.1279297,0.2241211
4794,-78.5625,-173.9375,87.625,0.9736328,-0.07226563,-0.824707,-0.1782227,-0.1279297,0.2333984
4798,-57.8125,-166.375,63.125,0.7797852,-0.03759766,-0.7285156,-0.1674805,-0.1293945,0.2402344
4802,-45.25,-150.0625,55.8125,0.9350586,-0.02587891,-0.4169922,-0.1591797,-0.1293945,0.2446289
4806,-28.625,-114.4375,44.3125,0.8535156,0.04736328,-0.4013672,-0.1494141,-0.1333008,0.2514648
4810,-17,-96.8125,36.1875,0.4658203,0.09814453,-0.7055664,-0.1411133,-0.1333008,0.2553711
4814,-22.6875,-98.9375,42.5625,0.3149414,0.1796875,-0.859375,-0.1376953,-0.1333008,0.2592773
4818,-36.125,-97.625,46.625,0.5395508,0.2573242,-0.7094727,-0.1293945,-0.1318359,0.2607422
4822,-33.5625,-82.875,27.125,0.4350586,0.284668,-0.5825195,-0.1220703,-0.1357422,0.2661133
4826,-32.1875,-62.375,10.1875,0.4658203,0.2573242,-0.5244141,-0.1176758,-0.1342773,0.2651367
4830,-21.9375,-43.9375,-5.9375,0.4233398,0.140625,-0.5478516,-0.112793,-0.1396484,0.2651367
4834,-10.0625,-29,-12.1875,0.2724609,0.008789063,-0.628418,-0.109375,-0.1396484,0.2705078
4838,-0.3125,-27.1875,-4,0.159668,0.0009765625,-0.7094727,-0.1079102,-0.140625,0.2705078
4842,0.25,-24.5,3.75,0.1015625,0.06689453,-0.7514648,-0.1044922,-0.140625,0.2714844
4846,-4.125,-24.5,12.375,0.1870117,0.08642578,-0.6552734,-0.1020508,-0.140625,0.2705078
4850,0.5625,-12.4375,6.75,0.2373047,0.06298828,-0.6171875,-0.1020508,-0.140625,0.2705078
4854,9.9375,-2.25,-4,0.1713867,0.05517578,-0.7133789,-0.1020508,-0.1420898,0.2705078
4858,14.9375,0.25,-2.4375,0.1791992,-0.002441406,-0.6977539,-0.1020508,-0.140625,0.2714844
4862,18.4375,13.0625,-1,0.2451172,-0.03369141,-0.6015625,-0.1020508,-0.1396484,0.2714844
4866,23.0625,26.5625,0,0.2836914,-0.03369141,-0.6206055,-0.1044922,-0.1396484,0.2714844
4870,22.9375,37.875,2.5,0.2333984,0.0009765625,-0.7402344,-0.1054688,-0.1342773,0.2705078
4874,23.1875,39.9375,-0.6875,0.1132813,0.02441406,-0.8823242,-0.1079102,-0.1333008,0.2705078
4879,22,36.9375,-0.8125,0.1948242,0.03613281,-0.7978516,-0.112793,-0.1308594,0.2714844
4883,21.5,43.375,-4.75,0.2294922,0.04003906,-0.7246094,-0.1162109,-0.1279297,0.2705078
4887,17.625,58.1875,-8.5,0.3574219,0.07080078,-0.7631836,-0.1186523,-0.1293945,0.2705078
4891,10.125,62.6875,-5,0.2915039,0.008789063,-0.8515625,-0.1235352,-0.1254883,0.2675781
4895,10.625,68.75,-6.75,0.2177734,-0.01806641,-0.9980469,-0.1293945,-0.1254883,0.2651367
4899,9.6875,60.1875,0.25,0.2875977,-0.02197266,-0.9169922,-0.1328125,-0.1245117,0.2636719
4903,9.375,67.1875,3.25,0.3691406,-0.006347656,-0.8476563,-0.1391602,-0.1254883,0.262207
4907,12.3125,77.125,0.75,0.5976563,0.01660156,-0.8208008,-0.1425781,-0.1230469,0.2568359
4911,20,83.9375,-12.5,0.2685547,0.07080078,-1.144043,-0.1484375,-0.1220703,0.2568359
4915,17.125,70,-11.75,0.3691406,0.08251953,-1.105469,-0.1542969,-0.1220703,0.2514648
4919,10.25,70.4375,-5.9375,0.4541016,0.04003906,-0.9785156,-0.1601563,-0.1206055,0.25
4923,9.1875,74.625,1.1875,0.6557617,-0.02587891,-0.7749023,-0.1650391,-0.1196289,0.2470703
4927,16.875,95.0625,-2.0625,0.7529297,-0.02978516,-0.7900391,-0.1723633,-0.1181641,0.2416992
4931,27.375,103.75,-14,0.4697266,0.04736328,-1.051758,-0.1791992,-0.1181641,0.2348633
4935,25.125,90.3125,-8.875,0.4658203,0.02441406,-0.9633789,-0.1855469,-0.1181641,0.230957
4939,19.625,92.375,1.625,0.6210938,-0.002441406,-0.7475586,-0.1914063,-0.1157227,0.2280273
4943,20.1875,99.0625,6.5,0.8535156,-0.02978516,-0.4477539,-0.1972656,-0.1132813,0.2211914
4947,29.75,129.5,-9.25,0.9775391,0.02050781,-0.4746094,-0.2021484,-0.1118164,0.2158203
4951,33.1875,138.625,-16.625,0.9077148,-0.04541016,-0.5361328,-0.2104492,-0.1108398,0.2089844
4955,34.8125,151.1875,-22.75,0.7641602,-0.02587891,-0.6821289,-0.2211914,-0.1083984,0.199707
4959,25.1875,146.0625,-14.375,0.8613281,-0.1191406,-0.5361328,-0.2255859,-0.1083984,0.1928711
4963,24.25,159.9375,-8.5,0.9853516,-0.1967773,-0.4360352,-0.2363281,-0.1083984,0.1831055
4967,27.875,168.5,-1.1875,1.085938,-0.2353516,-0.378418,-0.2436523,-0.1069336,0.1723633
4971,43.1875,186.5625,-10.3125,0.9580078,-0.1616211,-0.6977539,-0.2509766,-0.1054688,0.1616211
4975,46.3125,174.4375,-20.5625,0.7490234,-0.1074219,-0.8901367,-0.2592773,-0.1069336,0.1479492
4979,40,161.25,-10.0625,0.9697266,-0.2241211,-0.7592773,-0.2636719,-0.1044922,0.1342773
4983,33.5,160.375,1.8125,1.22168,-0.2978516,-0.5244141,-0.2709961,-0.1044922,0.1259766
4987,27.6875,169.875,17.25,1.415527,-0.4492188,-0.3974609,-0.2734375,-0.1030273,0.1152344
4991,53.125,190.625,19.5,1.291504,-0.5,-0.8671875,-0.2817383,-0.1005859,0.09912109
4995,87.75,161.625,10.625,0.6870117,-0.3095703,-1.355469,-0.2841797,-0.09570313,0.08544922
4999,99.1875,121.8125,14.4375,0.8496094,-0.1113281,-1.286133,-0.2875977,-0.09423828,0.07324219
5003,93,104.875,8.3125,0.9775391,0.09814453,-1.066895,-0.2915039,-0.09082031,0.06347656
5008,64.75,99.0625,6.4375,1.140137,0.105957,-0.7861328,-0.2915039,-0.08935547,0.05810547
5012,38.6875,106.25,5.375,1.256348,0.0009765625,-0.5478516,-0.2949219,-0.08691406,0.05126953
5016,30.1875,109.0625,2,1.194336,-0.1616211,-0.4360352,-0.2924805,-0.08544922,0.04199219
5020,35,109.375,1.3125,1.19043,-0.2783203,-0.3208008,-0.2924805,-0.08691406,0.03759766
5024,44.5625,109,1.625,1.179199,-0.3056641,-0.2514648,-0.2958984,-0.08544922,0.02685547
5028,50,108.8125,2.0625,1.171387,-0.2705078,-0.1860352,-0.2958984,-0.08300781,0.01708984
5032,49.9375,112.875,4.8125,1.202148,-0.2241211,-0.09765625,-0.2958984,-0.08203125,0.01074219
5036,43.375,121.25,8.5,1.19043,-0.1694336,-0.07861328,-0.2949219,-0.08203125,0.0009765625
5040,35,125.1875,10.0625,1.179199,-0.1459961,-0.05126953,-0.293457,-0.08203125,-0.008300781
5044,28.1875,132.75,10.75,1.198242,-0.1269531,-0.001464844,-0.293457,-0.08056641,-0.01611328
5048,21.125,139.6875,12.8125,1.13623,-0.08007813,-0.01660156,-0.2949219,-0.08056641,-0.02832031
5052,12.25,142.5625,15.125,1.171387,-0.08398438,0.02099609,-0.2900391,-0.07958984,-0.03808594
5056,13.75,148.9375,11.1875,1.209961,-0.1694336,0.03271484,-0.2890625,-0.078125,-0.04736328
5060,23,151.9375,7.1875,1.117188,-0.2353516,-0.06298828,-0.2875977,-0.078125,-0.05859375
5064,35.8125,144.8125,6,1.070313,-0.2705078,-0.1591797,-0.2827148,-0.078125,-0.07080078
5068,46.25,137,4.375,1.066406,-0.2241211,-0.2324219,-0.2807617,-0.07568359,-0.08154297
5072,49.4375,129.6875,0.625,1.023926,-0.1381836,-0.3168945,-0.2768555,-0.07714844,-0.08984375
5076,42.1875,118.3125,-1.375,1.000488,-0.06445313,-0.3632813,-0.2734375,-0.078125,-0.1005859
5080,25.6875,110.0625,-1.5625,1.008301,-0.02978516,-0.4013672,-0.2685547,-0.07714844,-0.1044922
5084,6.3125,101.75,-4,0.9814453,-0.03369141,-0.4282227,-0.2661133,-0.078125,-0.1142578
5088,-9,90.75,-4,0.9272461,-0.1152344,-0.4594727,-0.2602539,-0.07568359,-0.1210938
5092,-13.0625,70.9375,0.4375,0.8417969,-0.2705078,-0.4516602,-0.2592773,-0.07714844,-0.125
5096,-2.625,54.375,-1.5625,0.8803711,-0.3208008,-0.359375,-0.2553711,-0.07568359,-0.1289063
5100,9,36.4375,-2.6875,0.8339844,-0.3017578,-0.3051758,-0.253418,-0.07568359,-0.1333008
5104,14.3125,19.3125,-0.0625,0.7836914,-0.2275391,-0.2705078,-0.2519531,-0.07421875,-0.1357422
5108,11.875,1.375,2.3125,0.8110352,-0.1577148,-0.1899414,-0.2519531,-0.078125,-0.1357422
5112,-1.25,-11.0625,15.6875,0.5239258,-0.2124023,-0.3325195,-0.253418,-0.07568359,-0.1347656
5116,-7.6875,-28.5,18.3125,1.074219,-0.2006836,0.005859375,-0.253418,-0.07421875,-0.1333008
5120,-5.25,-18.3125,3.75,0.9658203,-0.1538086,0.04443359,-0.2543945,-0.07421875,-0.1318359
5124,-9.6875,-20.9375,-1.8125,0.8613281,-0.1655273,-0.02832031,-0.2553711,-0.07177734,-0.1333008
5128,-16.875,-31,4.625,0.8417969,-0.2045898,-0.07470703,-0.2543945,-0.07177734,-0.1303711
5132,-18.375,-40.5625,8.4375,0.8535156,-0.2241211,-0.09375,-0.2553711,-0.07177734,-0.1289063
5137,-16.8125,-50.6875,11.1875,0.9155273,-0.2124023,-0.112793,-0.2578125,-0.07177734,-0.1225586
5141,-14.8125,-57.25,7.4375,0.9038086,-0.1538086,-0.1591797,-0.2617188,-0.07080078,-0.1210938
5145,-15.6875,-65.1875,-0.25,0.9658203,-0.1308594,-0.1669922,-0.2626953,-0.07080078,-0.1181641
5149,-21.8125,-72.1875,-4.25,0.9697266,-0.1074219,-0.1899414,-0.2651367,-0.07080078,-0.1142578
5153,-31.9375,-79.375,-3.375,0.9775391,-0.1269531,-0.1821289,-0.2685547,-0.06933594,-0.1088867
5157,-43,-87.6875,1.0625,0.9541016,-0.1577148,-0.1938477,-0.2700195,-0.07080078,-0.1020508
5161,-49.6875,-97.6875,6.125,1.012207,-0.2163086,-0.1474609,-0.2734375,-0.07080078,-0.09521484
5165,-44.5625,-103.9375,1.4375,1.066406,-0.2666016,-0.1166992,-0.2758789,-0.06835938,-0.09082031
5169,-25.4375,-105.6875,-13.125,1.132324,-0.3286133,0.005859375,-0.2792969,-0.06933594,-0.08300781
5173,-11.5625,-108.75,-16.6875,1.132324,-0.3481445,0.105957,-0.2817383,-0.06835938,-0.07470703
5177,-10.6875,-105.25,-5.4375,1.121094,-0.2587891,0.1020508,-0.2841797,-0.07080078,-0.06933594
5181,-24,-106.6875,7.9375,1.016113,-0.1538086,-0.08203125,-0.2851563,-0.07080078,-0.05957031
