Packet number,Gyroscope X (deg/s),Gyroscope Y (deg/s),Gyroscope Z (deg/s),Accelerometer X (g),Accelerometer Y (g),Accelerometer Z (g),Magnetometer X (G),Magnetometer Y (G),Magnetometer Z (G)
3,-4.25,3.1875,-3.1875,0.7993164,0.5292969,0.2094727,-0.1665039,-0.2519531,-0.1469727
7,-4.5625,3.375,-2.25,0.8339844,0.5332031,0.2060547,-0.168457,-0.2519531,-0.144043
11,-3,4,0.25,0.8652344,0.4985352,0.1713867,-0.168457,-0.2519531,-0.1455078
15,1.6875,7.4375,4.3125,0.8769531,0.5136719,0.144043,-0.1674805,-0.2519531,-0.1455078
19,6.8125,10.0625,6.125,0.8652344,0.5410156,0.1132813,-0.168457,-0.2519531,-0.1455078
23,10.75,13.875,4.5,0.8613281,0.5800781,0.1132813,-0.1650391,-0.2529297,-0.1469727
27,14.3125,16.875,3.375,0.8691406,0.5800781,0.06738281,-0.1674805,-0.2504883,-0.144043
31,22.6875,21.625,2.8125,0.8110352,0.5214844,-0.04003906,-0.1650391,-0.2529297,-0.1469727
35,35.3125,15.75,2.875,0.7021484,0.5371094,-0.109375,-0.1665039,-0.2529297,-0.1455078
39,38.6875,3.0625,5.8125,0.6674805,0.5839844,-0.109375,-0.1650391,-0.2558594,-0.144043
43,38.6875,-9.125,5,0.6479492,0.6459961,-0.07470703,-0.1665039,-0.2558594,-0.1416016
47,32.4375,-20.0625,-2.25,0.6674805,0.7392578,0.01708984,-0.1674805,-0.2568359,-0.1401367
51,16.4375,-30.5625,-11.8125,0.675293,0.8051758,0.125,-0.168457,-0.2592773,-0.1357422
55,-3,-42.25,-18.0625,0.7333984,0.7587891,0.2172852,-0.168457,-0.2607422,-0.1347656
59,-12.625,-49.125,-19.75,0.8417969,0.5913086,0.2441406,-0.1674805,-0.2592773,-0.1333008
63,-4.8125,-41.375,-17.6875,0.9931641,0.4282227,0.2597656,-0.168457,-0.2592773,-0.1303711
67,14.3125,-18.875,-13.875,1.031738,0.3583984,0.2636719,-0.1708984,-0.2617188,-0.1318359
71,28.125,-2.5,-8.1875,0.8920898,0.4321289,0.2133789,-0.1699219,-0.2631836,-0.1289063
75,31.75,-2.375,-3.3125,0.7954102,0.5214844,0.1865234,-0.168457,-0.2641602,-0.1264648
79,25.625,-5.0625,-2.4375,0.7915039,0.6264648,0.1943359,-0.168457,-0.2670898,-0.1235352
83,18.375,-7.1875,-2.875,0.7641602,0.5952148,0.1904297,-0.168457,-0.2670898,-0.1235352
87,14.625,-11.625,-0.375,0.7641602,0.5566406,0.1748047,-0.1699219,-0.2680664,-0.1225586
91,14.375,-10.9375,1.3125,0.8149414,0.5527344,0.1635742,-0.1699219,-0.2670898,-0.1210938
95,19,-5.5,1.5625,0.8339844,0.5332031,0.125,-0.1699219,-0.2670898,-0.1181641
99,22.6875,-1.5,1.875,0.8149414,0.5566406,0.05566406,-0.1699219,-0.2695313,-0.1142578
103,27.125,-2.875,4.3125,0.7915039,0.5800781,-0.009277344,-0.1708984,-0.2680664,-0.1157227
107,25.125,-6.125,4.9375,0.8110352,0.6342773,-0.07861328,-0.1708984,-0.2705078,-0.1098633
111,26.9375,-11.4375,6.25,0.7490234,0.5683594,-0.1860352,-0.1733398,-0.2719727,-0.112793
115,33.875,-19.4375,6.1875,0.7602539,0.5761719,-0.2705078,-0.1723633,-0.2705078,-0.1074219
119,44.875,-26.8125,6.4375,0.7373047,0.5605469,-0.3554688,-0.1748047,-0.2719727,-0.1044922
124,55.4375,-40,8.5625,0.7602539,0.5952148,-0.394043,-0.1748047,-0.2719727,-0.1020508
128,60.625,-50,7.25,0.8803711,0.7158203,-0.309082,-0.1772461,-0.2744141,-0.09521484
132,58.6875,-52.125,6.625,0.9077148,0.7080078,-0.3168945,-0.1782227,-0.2753906,-0.09082031
136,65.875,-58.0625,5.8125,0.8613281,0.6342773,-0.3325195,-0.1806641,-0.2768555,-0.08447266
140,73.8125,-62.4375,5.75,0.8691406,0.6420898,-0.3476563,-0.1831055,-0.2768555,-0.07617188
144,81.875,-67.4375,3.75,0.8691406,0.6962891,-0.324707,-0.1831055,-0.2792969,-0.06787109
148,82,-71.8125,3.5625,0.8149414,0.7197266,-0.3515625,-0.1855469,-0.2792969,-0.05957031
152,78.5625,-87.125,5.9375,0.7797852,0.7856445,-0.3286133,-0.1875,-0.2807617,-0.04736328
156,64.6875,-97.6875,6.375,0.8300781,0.8520508,-0.2861328,-0.1899414,-0.2817383,-0.04345703
160,48.1875,-105.0625,5.5,0.8300781,0.875,-0.3129883,-0.1889648,-0.2807617,-0.03125
164,35.9375,-112.625,4.3125,0.7836914,0.7895508,-0.3974609,-0.1914063,-0.2817383,-0.02294922
168,32.9375,-118.875,-0.75,0.8149414,0.6845703,-0.4477539,-0.1923828,-0.2832031,-0.01757813
172,44.5,-121.75,-6.5,0.8691406,0.6264648,-0.394043,-0.1938477,-0.2832031,-0.005371094
176,54.0625,-117.75,-8.6875,0.9892578,0.6225586,-0.3325195,-0.1938477,-0.2841797,0.004882813
180,58.3125,-106.125,-10.0625,1.012207,0.6499023,-0.324707,-0.1914063,-0.2832031,0.01171875
184,64.1875,-100.25,-11.3125,0.8769531,0.5913086,-0.4091797,-0.1923828,-0.2832031,0.02294922
188,64.5,-104.3125,-12.25,0.8417969,0.6303711,-0.5209961,-0.1914063,-0.2817383,0.03515625
192,67.4375,-109.5625,-14.6875,0.7490234,0.5449219,-0.6015625,-0.1914063,-0.2832031,0.04052734
196,70.1875,-122.1875,-10.1875,0.7373047,0.5449219,-0.6977539,-0.1865234,-0.2832031,0.05419922
200,73.5,-131.625,-9.0625,0.8183594,0.5913086,-0.644043,-0.1831055,-0.2832031,0.06787109
204,74.625,-125.8125,-15.5625,0.9038086,0.6030273,-0.6132813,-0.1816406,-0.2832031,0.07421875
208,85.875,-113.5625,-20.75,0.8574219,0.4633789,-0.7592773,-0.1757813,-0.2807617,0.08691406
212,107.875,-111.8125,-16.9375,0.6982422,0.3583984,-0.9672852,-0.1733398,-0.2792969,0.1000977
216,124.3125,-132.5,-3.4375,0.5859375,0.3935547,-1.174805,-0.168457,-0.2792969,0.1113281
220,126.5625,-168.5,23.25,0.5395508,0.4282227,-1.278809,-0.1650391,-0.2705078,0.1274414
224,118.8125,-208.5,46.4375,0.7373047,0.6147461,-1.193848,-0.1616211,-0.2631836,0.1464844
228,110.5625,-209.75,32.9375,1.05127,0.793457,-1.009277,-0.1542969,-0.2583008,0.1601563
232,111.75,-179.625,0.5625,0.9931641,0.7470703,-0.9980469,-0.1450195,-0.2504883,0.1738281
236,122.4375,-171.875,-18.4375,0.7680664,0.5527344,-1.151855,-0.1352539,-0.2441406,0.1914063
240,136.5625,-179.4375,-16,0.7138672,0.4438477,-1.290039,-0.1269531,-0.2392578,0.2011719
244,140.6875,-191.125,3.875,0.5976563,0.4086914,-1.405762,-0.1152344,-0.2304688,0.2158203
248,128.3125,-227.875,39,0.5395508,0.4516602,-1.428711,-0.1020508,-0.2207031,0.230957
253,108.6875,-268.3125,68.625,0.6015625,0.4125977,-1.217285,-0.09033203,-0.2128906,0.2416992
257,102.6875,-264.5625,63,1.206055,0.5488281,-0.6899414,-0.07128906,-0.2006836,0.2539063
261,115.125,-172.9375,36.25,1.527832,0.6694336,-0.1630859,-0.05566406,-0.1918945,0.262207
265,109.5625,-75.5,1.1875,0.8652344,0.6733398,-0.1782227,-0.04833984,-0.1845703,0.269043
269,85.9375,-52.375,-14.6875,0.3769531,0.7470703,-0.3325195,-0.04248047,-0.1757813,0.2729492
273,37.8125,-58.0625,-14.375,0.1635742,0.5839844,-0.4013672,-0.03515625,-0.1679688,0.2773438
277,6.875,-65.625,-10.6875,0.1831055,0.2963867,-0.4130859,-0.03076172,-0.1679688,0.2797852
281,-0.6875,-64.625,-0.9375,0.2758789,0.1020508,-0.2475586,-0.0234375,-0.1669922,0.28125
285,-5.4375,-39.4375,3.8125,0.4506836,0.1484375,-0.1166992,-0.01855469,-0.1669922,0.2797852
289,-5.8125,1.1875,-6.3125,0.4233398,0.1992188,-0.2592773,-0.01855469,-0.1679688,0.2797852
293,3,24.25,-17.4375,0.09765625,0.06689453,-0.4707031,-0.01855469,-0.1679688,0.2783203
297,7.8125,22.6875,-23.3125,0.0009765625,0.1176758,-0.5786133,-0.02001953,-0.1679688,0.28125
301,-0.375,14.1875,-20.125,-0.002441406,0.1333008,-0.5361328,-0.02001953,-0.1669922,0.2797852
305,-18.1875,13,-11.875,0.109375,0.1254883,-0.5668945,-0.01855469,-0.1669922,0.2827148
309,-25.25,13.5625,-6,0.1210938,0.08251953,-0.5864258,-0.02246094,-0.1679688,0.2773438
313,-30.5625,21.9375,-7.875,0.1713867,0.105957,-0.6513672,-0.02246094,-0.1704102,0.2773438
317,-25.1875,34.0625,-18.1875,0.2294922,0.03222656,-0.7167969,-0.0234375,-0.1743164,0.2773438
321,-17.625,44.625,-21.375,0.2333984,0.01660156,-0.7207031,-0.02587891,-0.1767578,0.2758789
325,-26.1875,51.25,-13.3125,0.3378906,0.09423828,-0.6748047,-0.02832031,-0.1782227,0.2744141
329,-36.8125,63.4375,-5.3125,0.4272461,0.09814453,-0.6323242,-0.03417969,-0.1821289,0.2729492
333,-44.25,81,0.6875,0.3959961,0.05517578,-0.7055664,-0.04003906,-0.1831055,0.2705078
337,-44.375,93.3125,0.8125,0.4077148,0.1992188,-0.824707,-0.04589844,-0.1855469,0.2675781
341,-44.6875,100.4375,-4.9375,0.2255859,0.1992188,-0.8823242,-0.05419922,-0.1904297,0.2651367
345,-57.6875,99.125,-11,0.2954102,0.3857422,-1.043945,-0.06152344,-0.1958008,0.262207
349,-60.75,90.25,-15.4375,0.2333984,0.2299805,-1.024902,-0.06494141,-0.2006836,0.2553711
353,-63.8125,88.625,-13.9375,0.3339844,0.203125,-1.105469,-0.07226563,-0.2045898,0.25
357,-60.75,77.375,-5.3125,0.3925781,0.15625,-0.8671875,-0.078125,-0.2094727,0.2460938
361,-68.4375,76.8125,15.5,0.7836914,0.253418,-0.394043,-0.08398438,-0.2143555,0.2431641
365,-88.625,123,27.5625,1.078125,0.4516602,-0.4975586,-0.09130859,-0.2182617,0.2363281
369,-74.6875,159,18.4375,0.675293,0.3427734,-0.878418,-0.1020508,-0.2246094,0.2280273
373,-52.3125,162.6875,-1.8125,0.2685547,0.3427734,-1.293945,-0.112793,-0.2280273,0.2211914
377,-48.4375,124.6875,-7.8125,0.2373047,0.4907227,-1.055664,-0.1210938,-0.2304688,0.2104492
382,-76.0625,98.9375,10.1875,0.6713867,0.5761719,-0.5551758,-0.128418,-0.2358398,0.2021484
386,-110.3125,109.4375,29.9375,1.256348,0.6845703,-0.1977539,-0.1342773,-0.2382813,0.1967773
390,-110.8125,163.9375,27.5625,1.124512,0.3466797,-0.5551758,-0.1425781,-0.2431641,0.1831055
394,-77.375,195.625,19.125,0.8881836,0.3779297,-1.20166,-0.1542969,-0.2495117,0.1699219
398,-28.75,195.0625,-4.3125,0.206543,0.2495117,-1.555664,-0.1625977,-0.2504883,0.1601563
402,-25.4375,139.25,-4.5625,0.2490234,0.6538086,-1.286133,-0.1699219,-0.2519531,0.1479492
406,-62.75,103.4375,3.125,0.6015625,0.824707,-0.7900391,-0.1772461,-0.2568359,0.1396484
410,-101.125,89.125,5.8125,0.9931641,0.7666016,-0.3129883,-0.1772461,-0.2583008,0.1313477
414,-122.6875,104.25,14.875,1.384277,0.6303711,-0.1323242,-0.1816406,-0.2592773,0.1191406
418,-109.125,147.3125,19.8125,1.364746,0.3120117,-0.4013672,-0.1889648,-0.2631836,0.1044922
422,-61.1875,175.25,14.4375,0.9697266,0.237793,-0.7709961,-0.1923828,-0.265625,0.09326172
426,-39.9375,167.8125,13.0625,0.8149414,0.5605469,-0.7783203,-0.1982422,-0.2670898,0.07861328
430,-60.125,146.375,21.5,0.9038086,0.793457,-0.5322266,-0.2006836,-0.2670898,0.06494141
434,-85.6875,134.0625,27.0625,1.113281,0.793457,-0.2631836,-0.2055664,-0.265625,0.05419922
438,-97.5625,138.0625,32,1.287598,0.6733398,-0.1708984,-0.206543,-0.2631836,0.04199219
442,-82.5625,165.125,28.5,1.163574,0.4985352,-0.5361328,-0.2114258,-0.2631836,0.02392578
446,-53.5625,160.875,20.625,1.012207,0.5839844,-0.6323242,-0.2128906,-0.2631836,0.01611328
450,-52,157.9375,17.4375,1.008301,0.7080078,-0.5976563,-0.2138672,-0.2631836,0.0009765625
454,-57.5,140.75,15.0625,1.031738,0.809082,-0.4321289,-0.215332,-0.2592773,-0.01367188
458,-77.375,124.125,22.4375,1.186523,0.809082,-0.3286133,-0.2163086,-0.2592773,-0.02148438
462,-80.875,123.8125,28.75,1.252441,0.6030273,-0.3706055,-0.215332,-0.2583008,-0.03271484
466,-53.8125,129.5,26.9375,1.109375,0.4165039,-0.5786133,-0.215332,-0.2543945,-0.04638672
470,-27,123.4375,22.5625,1.008301,0.5527344,-0.5898438,-0.2138672,-0.2543945,-0.05419922
474,-26.75,110.625,19.4375,0.9350586,0.6655273,-0.5283203,-0.2138672,-0.2504883,-0.06542969
478,-36.9375,85.75,19.1875,0.9619141,0.7392578,-0.378418,-0.2128906,-0.2480469,-0.07080078
482,-53.5,73.8125,19.0625,1.027832,0.6225586,-0.2939453,-0.215332,-0.2456055,-0.07470703
486,-54.375,67.5,18.8125,1.023926,0.4594727,-0.3286133,-0.2128906,-0.2431641,-0.08154297
490,-40.25,70.375,17.125,0.7758789,0.3041992,-0.5244141,-0.2128906,-0.2416992,-0.08984375
494,-20.1875,56,10.125,0.6401367,0.3193359,-0.6206055,-0.2114258,-0.2392578,-0.09375
498,-7.9375,41.6875,7.375,0.5976563,0.3232422,-0.6054688,-0.2104492,-0.2392578,-0.09667969
502,-0.75,23.3125,9.375,0.6210938,0.3041992,-0.559082,-0.2089844,-0.2382813,-0.1020508
506,4.6875,10.6875,14.3125,0.6870117,0.284668,-0.4282227,-0.2104492,-0.2368164,-0.1005859
511,12.875,7.6875,16.5,0.7138672,0.3041992,-0.3012695,-0.2114258,-0.2358398,-0.09912109
515,22.5625,9,12.8125,0.7412109,0.3583984,-0.1821289,-0.2114258,-0.2368164,-0.09912109
519,28.8125,9.1875,7.5,0.7451172,0.4438477,-0.1206055,-0.2114258,-0.2358398,-0.09765625
523,30.3125,5.625,2.25,0.7216797,0.4868164,-0.1166992,-0.2138672,-0.2368164,-0.09912109
527,20.5625,-6.8125,2,0.7451172,0.5175781,-0.109375,-0.2114258,-0.2358398,-0.09521484
531,8.625,-14.6875,0,0.7451172,0.5136719,-0.1474609,-0.2138672,-0.2382813,-0.09521484
535,0,-26.6875,-1.625,0.7451172,0.4790039,-0.1513672,-0.2163086,-0.2368164,-0.09228516
539,-6.0625,-39.125,-4.8125,0.8417969,0.4829102,-0.1630859,-0.2128906,-0.2368164,-0.09082031
543,-2.375,-43.625,-7.875,1.016113,0.3544922,-0.1782227,-0.2128906,-0.2382813,-0.09082031
547,17,-33.25,-6.625,1.097656,0.2456055,-0.3476563,-0.215332,-0.2407227,-0.08984375
551,43.375,-30.5625,-8.8125,0.9077148,0.284668,-0.644043,-0.2163086,-0.2392578,-0.08447266
555,62.5,-48.9375,-12.5,0.7641602,0.4360352,-0.8286133,-0.2163086,-0.2416992,-0.08154297
559,57.75,-81.4375,-10.25,0.7993164,0.6577148,-0.7978516,-0.2163086,-0.2431641,-0.07324219
563,46.875,-109.25,-10.1875,0.8920898,0.6733398,-0.7055664,-0.2172852,-0.2470703,-0.06542969
567,45.4375,-126.375,-15.8125,1.074219,0.6381836,-0.6171875,-0.2197266,-0.2470703,-0.05859375
571,52.8125,-130.375,-20.4375,1.117188,0.5253906,-0.5976563,-0.2197266,-0.2504883,-0.04638672
575,76.75,-125.0625,-30.375,1.225586,0.4013672,-0.6245117,-0.2211914,-0.2519531,-0.03369141
579,101,-125.1875,-32.4375,1.113281,0.3857422,-0.6206055,-0.2197266,-0.2558594,-0.02294922
583,107.9375,-137.4375,-17.125,1.117188,0.4750977,-0.5244141,-0.2197266,-0.2568359,-0.006835938
587,106,-149.5,-0.75,1.147949,0.5644531,-0.359375,-0.2211914,-0.2568359,0.006347656
591,100.5,-145.5625,-0.25,1.291504,0.6381836,-0.2167969,-0.2197266,-0.2568359,0.01855469
595,100.75,-138.375,3.5625,1.101563,0.4985352,-0.2705078,-0.21875,-0.2558594,0.03369141
599,105.125,-135,7,1.155762,0.5136719,-0.2822266,-0.2172852,-0.2543945,0.04980469
603,112.3125,-122.4375,6.875,1.105469,0.5488281,-0.2285156,-0.2163086,-0.2519531,0.05957031
607,111.4375,-119.4375,15.625,0.9423828,0.5566406,-0.2861328,-0.2172852,-0.2495117,0.07714844
611,107.4375,-129.875,23.1875,0.9697266,0.7548828,-0.2089844,-0.2138672,-0.2441406,0.09228516
615,84,-116.5,13,0.9619141,0.7895508,-0.3286133,-0.2114258,-0.2407227,0.1000977
619,71.5625,-117.0625,0.8125,0.8457031,0.7197266,-0.5053711,-0.2104492,-0.2368164,0.1137695
623,65.875,-121,-6.125,0.7021484,0.4750977,-0.7363281,-0.206543,-0.2358398,0.1274414
627,70.625,-130,-2.9375,0.9116211,0.4711914,-0.7441406,-0.2006836,-0.2329102,0.1342773
631,78.625,-125.3125,2.3125,0.9038086,0.4013672,-0.6977539,-0.1948242,-0.2304688,0.1479492
635,72.375,-120.9375,3.1875,0.8842773,0.4672852,-0.8208008,-0.1914063,-0.2270508,0.1586914
640,68.1875,-132.125,2.25,0.9116211,0.4985352,-0.8056641,-0.1855469,-0.2231445,0.168457
644,68.375,-120.25,-4.1875,0.8339844,0.2456055,-0.9555664,-0.1791992,-0.2192383,0.1777344
648,88.5,-128.8125,0.875,0.7758789,0.2070313,-1.05957,-0.1723633,-0.2128906,0.1899414
652,103.5625,-140.375,10.5625,0.6289063,0.1445313,-1.166992,-0.168457,-0.2094727,0.199707
656,100.5625,-161.9375,39.875,0.6015625,0.1098633,-1.328613,-0.1582031,-0.2016602,0.2104492
660,100.625,-188.0625,52.6875,0.7680664,0.3544922,-1.166992,-0.1494141,-0.1918945,0.2241211
664,92.25,-173.5,33.5625,0.6713867,0.3349609,-1.274902,-0.1411133,-0.1870117,0.2324219
668,97.875,-180.375,13.75,0.5395508,0.2338867,-1.463379,-0.1293945,-0.1791992,0.2460938
672,109.625,-204.8125,20,0.4970703,0.1176758,-1.45166,-0.1137695,-0.1679688,0.2583008
676,109.0625,-223.875,30.8125,0.4775391,0.004882813,-1.555664,-0.1044922,-0.1606445,0.2651367
680,114.75,-263.0625,60.3125,0.5820313,0.008789063,-1.467285,-0.08300781,-0.1494141,0.2758789
684,120.5625,-287.3125,85.4375,0.8769531,0.05517578,-1.125,-0.06152344,-0.1367188,0.2866211
688,115.375,-235.8125,65.5,1.330078,0.5332031,-0.6938477,-0.04736328,-0.1279297,0.2910156
692,118.25,-177.4375,27.5625,0.9501953,0.5800781,-0.2285156,-0.02685547,-0.1166992,0.2973633
696,86.9375,-120,4.1875,0.6713867,0.6616211,-0.1401367,-0.01025391,-0.1069336,0.300293
700,54.125,-96,-3.3125,0.3496094,0.4946289,-0.08984375,-0.005859375,-0.1005859,0.3017578
704,11.25,-80.375,-1.75,0.2412109,0.3427734,-0.2207031,0.003417969,-0.09570313,0.3032227
708,-21.3125,-73.0625,7.8125,0.09033203,0.1176758,-0.3554688,0.01269531,-0.09814453,0.300293
712,-21.875,-65.3125,9.125,0.1328125,-0.06445313,-0.2285156,0.01660156,-0.09814453,0.300293
716,-13.25,-28.6875,1.9375,0.3769531,-0.02978516,-0.1054688,0.0234375,-0.09960938,0.300293
720,-5.75,18.8125,-8.9375,0.3847656,0.01660156,-0.1401367,0.02490234,-0.1005859,0.3017578
724,-5.125,50.1875,-12.4375,0.05126953,-0.04882813,-0.4208984,0.02246094,-0.1044922,0.3017578
728,-12.9375,45.1875,-9.125,-0.1689453,0.02050781,-0.628418,0.01904297,-0.1005859,0.3017578
732,-32.5625,28.5625,-3.875,-0.2080078,0.1098633,-0.6401367,0.01416016,-0.1044922,0.300293
736,-45.8125,25.6875,-9.3125,-0.05664063,0.02832031,-0.7324219,0.01074219,-0.1069336,0.300293
740,-38.1875,28.8125,-17.9375,0.004882813,-0.09960938,-0.8056641,0.009277344,-0.1108398,0.2988281
744,-21,45.0625,-24.3125,0.1445313,-0.2666016,-0.8710938,0.008300781,-0.1142578,0.300293
748,-6.375,54.25,-20.25,0.1518555,-0.1850586,-0.8056641,0.004394531,-0.1157227,0.2988281
752,-14.625,59.875,-6.9375,0.1484375,-0.03369141,-0.7441406,-0.0009765625,-0.1157227,0.2973633
756,-27.5625,60.125,-0.25,0.2104492,0.06298828,-0.6171875,-0.006835938,-0.1181641,0.2988281
760,-39.9375,79.1875,-6.3125,0.2490234,0.05517578,-0.7553711,-0.01025391,-0.1206055,0.2973633
764,-42.5,87.6875,-17.125,0.1987305,0.1445313,-0.9287109,-0.01855469,-0.1230469,0.293457
769,-42.4375,88.4375,-24.4375,0.07861328,0.02050781,-0.9516602,-0.02587891,-0.1293945,0.293457
773,-51.1875,80.8125,-19.25,0.2954102,0.1020508,-0.6323242,-0.03173828,-0.1308594,0.2919922
777,-74.875,98.1875,-7.25,0.7099609,0.3623047,-0.5825195,-0.03759766,-0.1367188,0.293457
781,-74.1875,132.9375,-23.25,0.175293,-0.05273438,-1.286133,-0.04980469,-0.1455078,0.2866211
785,-50.9375,101.0625,-31.625,-0.08789063,0.07861328,-1.555664,-0.05664063,-0.1494141,0.2827148
789,-53.5625,63.75,-29.6875,-0.1689453,0.171875,-1.38623,-0.06494141,-0.1542969,0.28125
793,-71.8125,31.375,-27,0.1171875,0.2416992,-1.08252,-0.06738281,-0.1606445,0.2773438
797,-85.8125,26.875,-18.3125,0.3730469,0.1757813,-0.7783203,-0.06884766,-0.1679688,0.2729492
801,-92.1875,45.625,-14.25,0.5048828,0.1601563,-0.9018555,-0.07226563,-0.1757813,0.269043
805,-78.875,55.5625,-24.8125,0.3266602,0.1367188,-1.105469,-0.07324219,-0.1831055,0.2651367
809,-72.6875,50.3125,-26.125,0.2836914,0.07861328,-1.174805,-0.07568359,-0.1870117,0.2607422
813,-70.1875,39.8125,-17.75,0.4311523,0.1137695,-1.001465,-0.078125,-0.1958008,0.2524414
817,-69.8125,47.875,-8.1875,0.6479492,0.1367188,-0.6591797,-0.08300781,-0.2016602,0.2514648
821,-75,74.3125,4,0.9311523,0.2885742,-0.4399414,-0.08642578,-0.2070313,0.2470703
825,-72.625,113.6875,6.875,0.7758789,0.300293,-0.6860352,-0.09228516,-0.2119141,0.2402344
829,-56.375,125.5625,-6.3125,0.4155273,0.3041992,-1.028809,-0.1020508,-0.2167969,0.2333984
833,-60.5625,107.0625,-4.6875,0.3730469,0.5019531,-0.8979492,-0.1069336,-0.2192383,0.2280273
837,-86,91.0625,2.375,0.6171875,0.5913086,-0.4863281,-0.1152344,-0.2246094,0.2202148
841,-116.4375,100.75,14.125,1.097656,0.6845703,-0.1015625,-0.1201172,-0.2304688,0.2119141
845,-122.5,153.5625,4.3125,0.9775391,0.3427734,-0.5361328,-0.1259766,-0.2368164,0.2050781
849,-95.125,159.75,-0.625,0.7954102,0.3857422,-0.7978516,-0.1376953,-0.2441406,0.1889648
853,-91,156.5,9.0625,0.6210938,0.4052734,-0.8208008,-0.1474609,-0.2495117,0.175293
857,-99.375,135.5625,20.1875,0.7875977,0.6499023,-0.5092773,-0.1518555,-0.2529297,0.168457
861,-121.9375,135.5,28.375,1.02002,0.7431641,-0.2285156,-0.1601563,-0.2568359,0.1518555
865,-138.6875,149.3125,34.8125,1.225586,0.7587891,-0.1362305,-0.1699219,-0.2617188,0.137207
869,-135.5,185.9375,27.75,1.012207,0.5761719,-0.6748047,-0.1748047,-0.265625,0.1259766
873,-107.5,179.9375,15.6875,0.6328125,0.5449219,-0.9902344,-0.1806641,-0.2670898,0.1044922
877,-106,155.5,17.75,0.578125,0.7001953,-1.078613,-0.1875,-0.2719727,0.08398438
881,-119.875,117.75,25.25,0.7021484,0.8208008,-0.859375,-0.1923828,-0.2719727,0.07421875
885,-144.125,95.1875,33.6875,0.9736328,0.8671875,-0.5708008,-0.1962891,-0.2719727,0.05810547
889,-159.8125,91.4375,42.3125,1.186523,0.8442383,-0.3398438,-0.1982422,-0.2729492,0.04199219
893,-162.875,102.875,48.625,1.376465,0.7739258,-0.2436523,-0.2021484,-0.2705078,0.03222656
898,-143.9375,131.75,47.9375,1.29541,0.6186523,-0.4975586,-0.206543,-0.2705078,0.01074219
902,-109.5,142.5625,40,1.059082,0.6459961,-0.6938477,-0.2080078,-0.2705078,-0.00390625
906,-88.125,139.5625,32.1875,0.9350586,0.7041016,-0.7363281,-0.2089844,-0.2670898,-0.01367188
910,-81.6875,126.25,29.25,0.9350586,0.7856445,-0.6171875,-0.2104492,-0.265625,-0.02832031
914,-87,112.375,29.375,0.9697266,0.8051758,-0.4975586,-0.2104492,-0.2617188,-0.04345703
918,-92.0625,102.875,31.9375,1.082031,0.7705078,-0.378418,-0.2114258,-0.2583008,-0.04882813
922,-86.625,106.3125,30.4375,1.124512,0.6186523,-0.3476563,-0.2089844,-0.2558594,-0.06396484
926,-64.3125,113.75,25.5625,1.085938,0.5253906,-0.3823242,-0.2104492,-0.2504883,-0.07324219
930,-41.5625,116.4375,22.75,0.9892578,0.5214844,-0.4091797,-0.2089844,-0.2495117,-0.08300781
934,-28.875,110.8125,21.375,0.9736328,0.6342773,-0.34375,-0.206543,-0.2470703,-0.09375
938,-31.6875,102.9375,22.1875,0.9619141,0.6962891,-0.2705078,-0.206543,-0.2431641,-0.09912109
942,-37.3125,92.6875,20.75,0.9155273,0.6499023,-0.2939453,-0.2045898,-0.2416992,-0.105957
946,-37.1875,85.0625,20.5,0.9233398,0.5952148,-0.3012695,-0.2021484,-0.2407227,-0.112793
950,-30.875,83.5,18.5625,0.8881836,0.5097656,-0.3129883,-0.199707,-0.2382813,-0.1181641
954,-15.625,81.9375,11.5,0.8378906,0.4750977,-0.3286133,-0.199707,-0.2358398,-0.1225586
958,-4.125,78.125,5.875,0.7797852,0.4672852,-0.3325195,-0.1972656,-0.234375,-0.1279297
962,0.375,62.875,5.75,0.6674805,0.4672852,-0.359375,-0.1948242,-0.2319336,-0.1318359
966,-3.0625,42.125,5.375,0.659668,0.5058594,-0.3476563,-0.1938477,-0.234375,-0.1318359
970,-8.4375,22.3125,3.5625,0.6635742,0.4985352,-0.309082,-0.1923828,-0.2329102,-0.137207
974,-10.1875,3.5625,3.4375,0.7177734,0.4321289,-0.2553711,-0.1923828,-0.2294922,-0.1357422
978,-4.375,-4.3125,-1.5,0.8730469,0.4594727,-0.1166992,-0.1923828,-0.2329102,-0.137207
982,3.6875,-3.9375,-5.1875,0.9077148,0.3974609,-0.01660156,-0.1923828,-0.2304688,-0.1357422
986,13.5,-6.4375,-3.625,0.9116211,0.3740234,0.04785156,-0.1923828,-0.234375,-0.137207
990,18.5625,-10.125,2.0625,0.9155273,0.3818359,0.07128906,-0.1914063,-0.2329102,-0.137207
994,24.625,-13.75,6,0.9155273,0.4013672,0.1171875,-0.1923828,-0.2329102,-0.1333008
998,26.9375,-16.0625,10,0.8769531,0.4360352,0.1210938,-0.1923828,-0.2358398,-0.1333008
1002,26.5,-16.375,8.6875,0.8920898,0.5488281,0.1289063,-0.1948242,-0.2358398,-0.1318359
1006,26,-12.6875,0.375,0.8803711,0.5644531,0.1020508,-0.1948242,-0.2368164,-0.1289063
1010,23.9375,-12.5625,-5,0.8339844,0.6030273,0.03271484,-0.1962891,-0.2382813,-0.1264648
1014,22.625,-14.6875,-12.5,0.8032227,0.5722656,-0.07470703,-0.1972656,-0.2368164,-0.125
1018,26.875,-20.9375,-15.375,0.8149414,0.5449219,-0.1860352,-0.1972656,-0.2382813,-0.1225586
1022,34.5,-28.9375,-17.5625,0.7216797,0.5136719,-0.3476563,-0.1948242,-0.2407227,-0.1196289
1027,43.8125,-43,-23.3125,0.7719727,0.5878906,-0.4130859,-0.1948242,-0.2456055,-0.1166992
1031,48.375,-50.1875,-31.9375,0.7216797,0.5952148,-0.4936523,-0.1962891,-0.2470703,-0.1113281
1035,59.125,-67.5,-36.1875,0.7529297,0.5839844,-0.4707031,-0.1972656,-0.2519531,-0.1044922
1039,67.3125,-73.625,-39.625,0.9580078,0.5722656,-0.2900391,-0.1948242,-0.2529297,-0.09912109
1043,78,-65.25,-41,1.186523,0.5913086,-0.04736328,-0.1948242,-0.2583008,-0.09228516
1047,87.5,-52.625,-37.1875,1.023926,0.5410156,-0.1206055,-0.1938477,-0.2631836,-0.08300781
1051,87.75,-62.9375,-29.375,0.7719727,0.5488281,-0.2861328,-0.1938477,-0.265625,-0.07763672
1055,77.6875,-89.8125,-22.3125,0.7680664,0.7431641,-0.2246094,-0.1948242,-0.2719727,-0.06787109
1059,58.5,-94.3125,-34.375,0.9194336,0.7626953,-0.1821289,-0.1948242,-0.2729492,-0.05859375
1063,59.3125,-96.6875,-41.125,0.9077148,0.5136719,-0.2436523,-0.1923828,-0.2744141,-0.05175781
1067,70.25,-89.375,-42.5625,1.055176,0.5449219,-0.2089844,-0.1923828,-0.2783203,-0.04199219
1071,73.25,-84.9375,-41,0.9350586,0.5605469,-0.2207031,-0.1899414,-0.2832031,-0.03125
1075,65.4375,-100,-28.0625,0.7255859,0.5644531,-0.3666992,-0.1889648,-0.2832031,-0.02441406
1079,54.625,-127.125,-13.875,0.7021484,0.5644531,-0.5439453,-0.1875,-0.2856445,-0.01220703
1083,50.6875,-156,-0.6875,0.7529297,0.5722656,-0.628418,-0.1875,-0.2866211,-0.001464844
1087,50.125,-161.375,1.3125,1.078125,0.6108398,-0.4785156,-0.1875,-0.2895508,0.0078125
1091,63.625,-137.875,-10.375,1.318359,0.6459961,-0.2822266,-0.1875,-0.2856445,0.01855469
1095,81.5,-110.5625,-13.9375,1.031738,0.4790039,-0.5283203,-0.184082,-0.2866211,0.03076172
1099,99.875,-119.75,-2.625,0.8378906,0.5683594,-0.7900391,-0.1865234,-0.2866211,0.04199219
1103,99.0625,-137.3125,3.8125,0.9233398,0.9375,-0.7670898,-0.184082,-0.2856445,0.05517578
1107,67.75,-125.6875,-25.5,1.144043,1.325684,-0.4936523,-0.1791992,-0.2832031,0.07177734
1111,55.8125,-114.125,-53.75,1.02002,1.030762,-0.4477539,-0.1772461,-0.2856445,0.07568359
1115,67.25,-99.5,-63.125,0.9931641,0.7509766,-0.559082,-0.168457,-0.2856445,0.08789063
1119,82.25,-104.1875,-45.5,0.7954102,0.6884766,-0.6748047,-0.1625977,-0.2856445,0.09912109
1123,83.375,-115.6875,-31.5,0.7568359,0.7626953,-0.7055664,-0.1591797,-0.2856445,0.1083984
1127,76.0625,-124.25,-30.875,0.8110352,0.8442383,-0.7207031,-0.1518555,-0.2856445,0.1206055
1131,77.5,-128.1875,-39.1875,0.8183594,0.8789063,-0.5629883,-0.1435547,-0.2841797,0.1313477
1135,72.125,-118.4375,-45.75,0.7915039,0.777832,-0.5170898,-0.1391602,-0.2817383,0.1396484
1139,71.3125,-110.0625,-45.625,0.7719727,0.6845703,-0.5898438,-0.1303711,-0.2807617,0.1494141
1143,84.25,-107.125,-41.6875,0.5473633,0.5058594,-0.7670898,-0.1220703,-0.2792969,0.1586914
1147,90.625,-117.6875,-23.9375,0.4077148,0.4013672,-0.9633789,-0.1176758,-0.2783203,0.168457
1151,97.5,-143.3125,-7.0625,0.4194336,0.4868164,-1.032227,-0.109375,-0.2729492,0.1791992
1156,99.6875,-149.875,-9.75,0.4775391,0.5761719,-0.9902344,-0.09863281,-0.2670898,0.1889648
1160,102,-152.375,-15.375,0.559082,0.5527344,-0.9902344,-0.09375,-0.2631836,0.1982422
1164,123,-145.1875,-21.9375,0.4736328,0.3740234,-1.121094,-0.08203125,-0.2543945,0.2104492
1168,148.25,-154.125,-22.3125,0.3227539,0.3623047,-1.236328,-0.06982422,-0.2495117,0.2226563
1172,154.6875,-177.6875,-12.3125,0.2685547,0.4282227,-1.313477,-0.06152344,-0.2407227,0.230957
1176,143.5625,-214.3125,18.0625,0.3652344,0.6069336,-1.117188,-0.04736328,-0.2280273,0.2446289
1180,106.0625,-204.75,16.4375,0.8920898,0.9335938,-0.7246094,-0.03173828,-0.2158203,0.2524414
1184,101.375,-166.6875,-1.25,0.659668,0.5913086,-0.5668945,-0.01855469,-0.2119141,0.2583008
1188,84.25,-126.625,-15.25,0.6982422,0.6225586,-0.3974609,-0.006835938,-0.2016602,0.2651367
1192,69.75,-93.875,-15.0625,0.4541016,0.3701172,-0.4052734,0.004394531,-0.1967773,0.269043
1196,48.6875,-75.4375,-6.0625,0.3886719,0.3583984,-0.4628906,0.009277344,-0.1943359,0.269043
1200,35.8125,-62.1875,0.4375,0.1171875,0.1757813,-0.6015625,0.01513672,-0.1879883,0.2714844
1204,21.4375,-67.0625,9.5625,0.09765625,0.253418,-0.5361328,0.02001953,-0.1855469,0.2714844
1208,6.0625,-55.125,7.875,0.206543,0.2456055,-0.3706055,0.02587891,-0.1845703,0.2744141
1212,0.1875,-25.375,-1.625,0.2797852,0.171875,-0.2861328,0.02978516,-0.1831055,0.2729492
1216,1.4375,-0.9375,-4.9375,0.140625,-0.002441406,-0.4282227,0.02978516,-0.1821289,0.2714844
1220,2.75,10.25,0.3125,0.08642578,0.05126953,-0.6245117,0.03173828,-0.1831055,0.2729492
1224,3.875,10.125,5.625,-0.08789063,0.01660156,-0.7285156,0.03076172,-0.1831055,0.2744141
1228,0.375,1.375,10.5,-0.08007813,0.09814453,-0.6977539,0.02978516,-0.1821289,0.2729492
1232,-6.6875,6.5625,8.5,-0.006347656,0.121582,-0.7285156,0.02832031,-0.1845703,0.2729492
1236,-2.5,13.0625,1.875,0.05517578,0.1098633,-0.6552734,0.02734375,-0.1845703,0.2714844
1240,-6.0625,29.375,-1.6875,0.1518555,0.121582,-0.6748047,0.02587891,-0.1821289,0.2714844
1244,-10.25,35.375,3.375,0.05517578,0.09423828,-0.7133789,0.0234375,-0.1855469,0.2744141
1248,-20.25,36.8125,11.75,0.04736328,0.1333008,-0.8325195,0.01904297,-0.1870117,0.2729492
1252,-16.4375,37.125,13.625,0.008789063,0.04736328,-0.9438477,0.01660156,-0.1855469,0.2729492
1256,-9.75,37.75,14.9375,0.07861328,0.1333008,-0.9208984,0.01269531,-0.1894531,0.2714844
1260,-8.0625,42.5,13.5,0.02832031,0.1293945,-0.9633789,0.009277344,-0.1894531,0.2714844
1264,-8.25,40.8125,11.9375,0.1015625,0.2299805,-0.8862305,0.003417969,-0.1918945,0.2729492
1268,-16,46.5625,12.25,0.09375,0.2338867,-0.8286133,0.002441406,-0.1918945,0.2705078
1272,-26,48.9375,12.5625,0.1791992,0.2924805,-0.8286133,-0.001953125,-0.1918945,0.2714844
1276,-29.125,54.125,12.25,0.07080078,0.1914063,-0.9052734,-0.0078125,-0.1958008,0.269043
1280,-33.125,50.375,11.75,0.109375,0.2265625,-1.01709,-0.01025391,-0.1967773,0.2675781
1285,-32.3125,41.4375,12.0625,0.03955078,0.1523438,-0.9672852,-0.01513672,-0.2006836,0.2661133
1289,-36.8125,43.375,13.6875,0.2646484,0.2109375,-0.8979492,-0.02099609,-0.203125,0.2636719
1293,-34,51.5,14,0.2646484,0.21875,-0.7514648,-0.0234375,-0.2055664,0.262207
1297,-40.1875,67.625,18.8125,0.3769531,0.21875,-0.6669922,-0.02832031,-0.2094727,0.2592773
1301,-41.4375,79.0625,20.625,0.4350586,0.3193359,-0.6362305,-0.03515625,-0.2104492,0.2568359
1305,-42,95.375,17.4375,0.2333984,0.1875,-0.9360352,-0.04248047,-0.2143555,0.2539063
1309,-37.8125,82.375,14.625,0.175293,0.300293,-1.047852,-0.04980469,-0.2167969,0.25
1313,-46.125,67.5625,16.125,0.1367188,0.3662109,-0.9091797,-0.05810547,-0.2182617,0.2470703
1317,-66.75,60.0625,17.9375,0.4311523,0.4282227,-0.7285156,-0.06054688,-0.2231445,0.2431641
1321,-72.875,69.5625,19.25,0.4775391,0.2573242,-0.6938477,-0.06738281,-0.2280273,0.237793
1325,-68.3125,90.375,20.0625,0.559082,0.2265625,-1.013184,-0.07470703,-0.234375,0.230957
1329,-45.6875,88.9375,20.6875,0.3266602,0.1914063,-1.074707,-0.08056641,-0.234375,0.2270508
1333,-42,87,26.0625,0.4155273,0.3466797,-1.020996,-0.08642578,-0.2382813,0.2270508
1337,-43.1875,83.75,28.375,0.4736328,0.4711914,-0.7475586,-0.09472656,-0.2392578,0.21875
1341,-58.4375,89.4375,30.5625,0.7021484,0.6655273,-0.4667969,-0.1010742,-0.2416992,0.2143555
1345,-74.875,114.0625,28.0625,0.7875977,0.7001953,-0.5629883,-0.1079102,-0.2456055,0.206543
1349,-72.375,126.0625,16.625,0.4541016,0.5722656,-0.8364258,-0.1186523,-0.2495117,0.1967773
1353,-81.0625,109.4375,16.125,0.4619141,0.7431641,-0.7207031,-0.1245117,-0.2529297,0.1914063
1357,-107.25,99.375,18.25,0.7177734,0.8364258,-0.3325195,-0.1328125,-0.2583008,0.1831055
1361,-134,117.3125,19.75,1.016113,0.7856445,-0.4169922,-0.1376953,-0.2641602,0.1669922
1365,-120.1875,135.375,21.0625,0.8959961,0.4868164,-0.6479492,-0.1425781,-0.2695313,0.1586914
1369,-98.375,152.75,18.875,0.7255859,0.4672852,-0.9941406,-0.1518555,-0.2729492,0.144043
1373,-83.625,133.3125,24.4375,0.6518555,0.6538086,-0.8554688,-0.1591797,-0.2753906,0.1289063
1377,-97.625,127.875,27.75,0.9501953,0.875,-0.4667969,-0.1625977,-0.2768555,0.1220703
1381,-112.3125,138.8125,27.4375,1.229492,0.9375,-0.4091797,-0.1699219,-0.2817383,0.105957
1385,-95.25,170.8125,16.8125,0.7451172,0.4985352,-0.9672852,-0.1782227,-0.2817383,0.08789063
1389,-71.3125,142.4375,17.3125,0.7099609,0.777832,-1.020996,-0.1791992,-0.2832031,0.07714844
1393,-78.3125,134.9375,12.3125,0.6791992,0.8598633,-0.9130859,-0.1831055,-0.2817383,0.06347656
1397,-84.75,116.8125,2.25,0.8183594,0.9995117,-0.6054688,-0.1875,-0.2841797,0.04980469
1401,-105.3125,123.375,-13,1.02002,1.120117,-0.2285156,-0.1889648,-0.2856445,0.04052734
1405,-122,140,-35.625,0.9580078,1.04248,-0.01318359,-0.1875,-0.2880859,0.02392578
1409,-136.125,139.9375,-44.4375,0.8535156,0.972168,0.009765625,-0.1855469,-0.2905273,0.0078125
1414,-148.125,135.625,-39.1875,0.9736328,0.8129883,-0.07861328,-0.1816406,-0.2929688,-0.005371094
1418,-142.5,136.3125,-28.625,0.9970703,0.6733398,-0.1245117,-0.1791992,-0.2954102,-0.02294922
1422,-133.8125,141.5625,-18.4375,1.140137,0.7041016,-0.04003906,-0.1748047,-0.2954102,-0.04052734
1426,-126.25,154.4375,-6.875,1.202148,0.7158203,0.02880859,-0.1733398,-0.2944336,-0.05273438
1430,-117,163.9375,3.1875,1.322266,0.7392578,0.06738281,-0.1699219,-0.2905273,-0.06933594
1434,-98.4375,182.75,17.1875,1.357422,0.5175781,-0.1323242,-0.1650391,-0.2895508,-0.08837891
1438,-64,196.125,27.4375,1.229492,0.5761719,-0.3706055,-0.1640625,-0.2866211,-0.09912109
1442,-45.25,198.625,27.6875,1.109375,0.7705078,-0.5898438,-0.1567383,-0.2841797,-0.1113281
1446,-32.25,184.875,21.1875,0.8110352,0.8325195,-0.6899414,-0.1542969,-0.2783203,-0.1225586
1450,-40.5,147.3125,22.625,0.7529297,1.022949,-0.5786133,-0.1508789,-0.2768555,-0.1303711
1454,-53.75,120.125,17.125,0.8496094,0.987793,-0.324707,-0.1459961,-0.2744141,-0.1386719
1458,-50.75,112.0625,12.8125,1.004395,0.7041016,-0.3862305,-0.1425781,-0.2705078,-0.1469727
1462,-16.75,114.0625,10.5,0.8769531,0.5136719,-0.4555664,-0.1401367,-0.2680664,-0.1508789
1466,4.125,108.3125,12.875,0.7836914,0.6303711,-0.4667969,-0.1367188,-0.2670898,-0.1547852
1470,9.375,81.625,12.625,0.5200195,0.7856445,-0.3129883,-0.1328125,-0.2680664,-0.1577148
1474,-10.375,47.375,12,0.4931641,0.9296875,-0.1401367,-0.1318359,-0.2670898,-0.1591797
1478,-26.6875,20.9375,6.375,0.4697266,0.7392578,-0.109375,-0.1293945,-0.2670898,-0.1616211
1482,-25.875,3.9375,1.6875,0.5629883,0.5488281,-0.1362305,-0.1293945,-0.265625,-0.1660156
1486,-9.1875,1.1875,-1.6875,0.7177734,0.4594727,0.03271484,-0.1293945,-0.2631836,-0.1660156
1490,5.9375,9,-7.5,0.8378906,0.4829102,0.2441406,-0.1303711,-0.2641602,-0.1660156
1494,11.5,19.25,-7.375,0.7993164,0.5527344,0.3291016,-0.128418,-0.2631836,-0.1660156
1498,8.5,17.875,-5.8125,0.5820313,0.5332031,0.1982422,-0.128418,-0.2641602,-0.1660156
1502,-0.9375,-3.125,-2.4375,0.4970703,0.6147461,0.1674805,-0.1269531,-0.265625,-0.1660156
1506,-9.9375,-14.1875,-4.75,0.6210938,0.5991211,0.2368164,-0.1259766,-0.2641602,-0.1645508
1510,-13.6875,-16.25,-6.875,0.7177734,0.5761719,0.3095703,-0.128418,-0.2641602,-0.1645508
1514,-10,-9.4375,-7.6875,0.8457031,0.4594727,0.340332,-0.128418,-0.2641602,-0.1660156
1518,0.6875,0,0.0625,0.8496094,0.4086914,0.3134766,-0.1259766,-0.2631836,-0.1674805
1522,11.1875,5.875,7,0.8417969,0.4438477,0.2788086,-0.128418,-0.2641602,-0.1660156
1526,20,8.3125,13.75,0.7641602,0.5019531,0.1826172,-0.128418,-0.2641602,-0.1645508
1530,24.125,4.25,17.0625,0.7060547,0.6186523,0.1020508,-0.1293945,-0.265625,-0.1645508
1534,23.8125,-5.375,17.5,0.6210938,0.6845703,0.04785156,-0.1303711,-0.2631836,-0.1616211
1538,21.75,-18.25,15.0625,0.6171875,0.7587891,0.02490234,-0.1318359,-0.265625,-0.1606445
1543,22.375,-25.4375,9.4375,0.675293,0.7431641,0.01708984,-0.1328125,-0.265625,-0.1591797
1547,29.25,-31,5.9375,0.6289063,0.6538086,-0.03613281,-0.1352539,-0.2680664,-0.1591797
1551,40.5,-38.125,4.1875,0.6674805,0.6264648,-0.07080078,-0.1352539,-0.2680664,-0.1508789
1555,53.5625,-41.625,3.5625,0.7138672,0.6381836,-0.08203125,-0.1401367,-0.2705078,-0.1484375
1559,62.875,-43.5,-1.375,0.659668,0.6962891,-0.1630859,-0.1401367,-0.2729492,-0.1469727
1563,61.5,-56.1875,-9.5,0.6289063,0.9023438,-0.09375,-0.1391602,-0.2753906,-0.1401367
1567,50.75,-70.75,-20.875,0.6132813,0.890625,-0.07861328,-0.1425781,-0.2783203,-0.1347656
1571,48.4375,-82.0625,-29.1875,0.7333984,0.7080078,-0.07470703,-0.1435547,-0.2792969,-0.1289063
1575,74.625,-75.0625,-26.9375,0.9423828,0.3935547,-0.06298828,-0.1435547,-0.2832031,-0.1210938
1579,105.0625,-60.5,-12.875,0.9853516,0.3701172,-0.09765625,-0.1435547,-0.2895508,-0.1157227
1583,121.375,-49.5625,-6.5,0.9970703,0.6962891,-0.1015625,-0.1450195,-0.2895508,-0.1074219
1587,114.25,-46.5,-15.3125,0.7954102,0.8789063,-0.1782227,-0.1459961,-0.296875,-0.09521484
1591,102,-67.75,-16,0.6831055,0.8442383,-0.309082,-0.1474609,-0.2993164,-0.08447266
1595,98.875,-87.25,-17.8125,0.7412109,0.7973633,-0.3398438,-0.1459961,-0.3017578,-0.07617188
1599,105.8125,-100.1875,-14.125,0.8652344,0.7197266,-0.324707,-0.1474609,-0.3056641,-0.06542969
1603,110.625,-106.8125,-2.9375,0.9736328,0.7041016,-0.2670898,-0.1494141,-0.3081055,-0.05029297
1607,118.6875,-104.125,7.5,1.124512,0.6923828,-0.2324219,-0.1494141,-0.3095703,-0.04199219
1611,125.1875,-90.25,0.8125,1.09375,0.8325195,-0.2363281,-0.1518555,-0.3105469,-0.02978516
1615,121.375,-96.4375,-3.8125,0.8999023,0.7856445,-0.3974609,-0.1533203,-0.3120117,-0.01367188
1619,120.125,-115.875,-0.1875,0.9736328,0.6962891,-0.3901367,-0.1518555,-0.3129883,-0.00390625
1623,123.6875,-123.9375,18.1875,1.082031,0.5253906,-0.3325195,-0.1542969,-0.3120117,0.01074219
1627,119.75,-121.1875,36,1.299316,0.7739258,-0.1206055,-0.1557617,-0.3105469,0.02539063
1631,114.8125,-100.6875,41.0625,1.159668,0.7431641,-0.08984375,-0.1557617,-0.3056641,0.03515625
1635,108,-90.4375,41.375,1.078125,0.7856445,-0.2939453,-0.1591797,-0.3041992,0.04980469
1639,105.625,-93.8125,43.9375,0.8222656,0.7314453,-0.4746094,-0.1616211,-0.2983398,0.06201172
1643,93.3125,-105.5,47.4375,0.7758789,0.7548828,-0.5825195,-0.1616211,-0.2944336,0.07177734
1647,86.75,-122.125,46.125,0.7719727,0.8168945,-0.6206055,-0.1650391,-0.2919922,0.08398438
1651,79.5,-129.125,39.9375,0.8032227,0.7973633,-0.5668945,-0.1640625,-0.2856445,0.09912109
1655,79.8125,-123,34.125,0.8803711,0.6420898,-0.6479492,-0.1616211,-0.2832031,0.105957
1659,89.9375,-122.5625,33.875,0.8378906,0.6538086,-0.6401367,-0.1616211,-0.2783203,0.1191406
1663,90.6875,-119.625,35.8125,0.7680664,0.6264648,-0.6938477,-0.1591797,-0.2729492,0.1328125
1667,91.375,-127.375,41.875,0.6713867,0.6342773,-0.7475586,-0.1591797,-0.2695313,0.1396484
1672,85,-140.8125,52.9375,0.6635742,0.6108398,-0.7363281,-0.1567383,-0.2592773,0.1547852
1676,84.75,-141.375,52.5625,0.7333984,0.5991211,-0.7475586,-0.1518555,-0.2543945,0.1669922
1680,86.0625,-139.1875,43.5,0.7529297,0.7197266,-0.7133789,-0.1484375,-0.2504883,0.175293
1684,84.25,-130.1875,29.0625,0.690918,0.6459961,-0.6787109,-0.1425781,-0.2416992,0.1875
1688,76.9375,-123.375,20,0.7177734,0.6108398,-0.7285156,-0.1367188,-0.2358398,0.199707
1692,76.5,-125.5625,28,0.609375,0.4282227,-0.7783203,-0.1328125,-0.2319336,0.2021484
1696,77.875,-124.5625,38.8125,0.5976563,0.300293,-0.8979492,-0.1259766,-0.2255859,0.2143555
1700,81.8125,-133.4375,52.75,0.4541016,0.253418,-1.147949,-0.1201172,-0.2192383,0.2241211
1704,89.1875,-148.875,48.125,0.6210938,0.5371094,-1.036133,-0.1162109,-0.2128906,0.2294922
1708,86.4375,-129.9375,26.5,0.5859375,0.4907227,-1.047852,-0.1054688,-0.2055664,0.2402344
1712,89.5625,-140.375,18.4375,0.3999023,0.5214844,-0.9633789,-0.09716797,-0.1982422,0.2514648
1716,72.875,-139.5,13.875,0.5395508,0.5332031,-0.8168945,-0.08886719,-0.1918945,0.2539063
1720,60.125,-131.6875,14.625,0.5087891,0.3857422,-0.7363281,-0.078125,-0.1845703,0.2636719
1724,56,-122.8125,20.625,0.4853516,0.3193359,-0.6206055,-0.06884766,-0.1806641,0.2651367
1728,49.1875,-107.5,21.8125,0.4697266,0.3505859,-0.5825195,-0.06298828,-0.1757813,0.2729492
1732,44.75,-86.75,13.375,0.4116211,0.3193359,-0.4863281,-0.05419922,-0.171875,0.2758789
1736,34.25,-66.9375,6.1875,0.2954102,0.2924805,-0.5170898,-0.04736328,-0.1669922,0.2783203
1740,28.0625,-56.5,2.625,0.3071289,0.2924805,-0.4516602,-0.04394531,-0.1630859,0.2797852
1744,15.5625,-36.5,-3.75,0.3071289,0.2651367,-0.4628906,-0.0390625,-0.1621094,0.2797852
1748,7.5625,-23.625,-5.0625,0.2138672,0.1523438,-0.5014648,-0.03662109,-0.1591797,0.2827148
1752,0,-14.8125,-5.3125,0.2451172,0.1367188,-0.5864258,-0.03417969,-0.1630859,0.2851563
1756,2.375,-4.0625,-6.8125,0.1674805,0.04003906,-0.6479492,-0.03417969,-0.1645508,0.2827148
1760,1,1.25,-5.6875,0.1054688,0.05126953,-0.6899414,-0.03320313,-0.1591797,0.2827148
1764,-3.75,0.625,-4.0625,0.1171875,0.1176758,-0.6132813,-0.03173828,-0.1606445,0.2827148
1768,-12.6875,11.8125,-8.6875,0.1948242,0.1640625,-0.6821289,-0.03173828,-0.1606445,0.2827148
1772,-15.6875,15.5625,-11.375,0.1328125,0.08251953,-0.7822266,-0.03320313,-0.1645508,0.28125
1776,-15.6875,17.6875,-12.1875,0.1870117,0.07861328,-0.7861328,-0.03515625,-0.1645508,0.28125
1780,-14.75,19.625,-11.875,0.2255859,0.02832031,-0.7978516,-0.03320313,-0.1645508,0.2783203
1784,-13.6875,27.9375,-9.375,0.2529297,0.01660156,-0.8823242,-0.03515625,-0.1669922,0.2783203
1788,-10.25,27.25,-1.375,0.2255859,0.04736328,-0.8710938,-0.04003906,-0.1679688,0.2797852
1792,-14.3125,31.6875,1.5,0.2373047,0.06298828,-0.9052734,-0.04150391,-0.1694336,0.2783203
1796,-15.1875,33.375,0.5625,0.2758789,0.140625,-0.8745117,-0.04394531,-0.1704102,0.2773438
1801,-18.25,41.375,-2.875,0.2646484,0.121582,-0.8710938,-0.04736328,-0.171875,0.2758789
1805,-21.5,41.25,-1.1875,0.2797852,0.140625,-0.7783203,-0.04980469,-0.1733398,0.2744141
1809,-28.75,50.625,-0.875,0.3457031,0.1640625,-0.6860352,-0.05322266,-0.1743164,0.2729492
1813,-35.25,63.625,-4.1875,0.4038086,0.2109375,-0.7670898,-0.05810547,-0.1782227,0.2714844
1817,-33.875,70.625,-9.25,0.2490234,0.1367188,-0.9941406,-0.06152344,-0.1821289,0.2661133
1821,-34.8125,53.6875,-3.5625,0.1054688,0.1254883,-0.9941406,-0.06982422,-0.1845703,0.2661133
1825,-43.25,39,0.6875,0.2685547,0.1835938,-0.8515625,-0.07128906,-0.1879883,0.2636719
1829,-50.75,38.1875,4.75,0.4428711,0.2109375,-0.609375,-0.07568359,-0.1904297,0.2592773
1833,-53.875,62.5,5.1875,0.6328125,0.2070313,-0.5551758,-0.078125,-0.1958008,0.2553711
1837,-51.375,91.125,-5,0.5048828,0.1640625,-0.9052734,-0.08300781,-0.1982422,0.2524414
1841,-35.8125,89.875,-3.9375,0.3032227,0.1254883,-1.109375,-0.08886719,-0.2006836,0.2485352
1845,-34.9375,76.6875,-2.375,0.2255859,0.2299805,-1.174805,-0.09716797,-0.2055664,0.2446289
1849,-41.5625,50.625,6.25,0.2797852,0.3349609,-0.9555664,-0.09863281,-0.2070313,0.2431641
1853,-60.875,44.625,15,0.5048828,0.4516602,-0.6206055,-0.1030273,-0.2119141,0.2363281
1857,-82.5,52.4375,17.125,0.7021484,0.6616211,-0.3901367,-0.1079102,-0.2158203,0.2294922
1861,-103.6875,85.0625,-3.0625,0.6870117,0.6225586,-0.8208008,-0.1113281,-0.2207031,0.2255859
1865,-88.25,80.25,-16.5,0.2255859,0.171875,-1.19043,-0.1176758,-0.2280273,0.2172852
1869,-74.0625,57.1875,-6.375,0.3613281,0.2768555,-1.101563,-0.1201172,-0.234375,0.2119141
1873,-81.5,40.75,7.9375,0.4541016,0.4672852,-0.7514648,-0.1245117,-0.2382813,0.2036133
1877,-106.75,34.1875,20,0.690918,0.6616211,-0.359375,-0.128418,-0.2441406,0.1967773
1881,-137.8125,58.3125,22.0625,1.031738,0.8945313,-0.4902344,-0.1303711,-0.2495117,0.1899414
1885,-129.6875,88.75,1.3125,0.4350586,0.4204102,-1.05957,-0.1342773,-0.2558594,0.1791992
1889,-113.625,56.75,3.125,0.3574219,0.6538086,-1.125,-0.1391602,-0.2631836,0.1699219
1893,-137.3125,33.5,13.8125,0.3925781,0.8208008,-0.8745117,-0.1401367,-0.2705078,0.1547852
1897,-165.4375,10.4375,21.6875,0.5512695,0.9604492,-0.5170898,-0.1435547,-0.2744141,0.1479492
1901,-194.0625,20.0625,28,1.121094,0.90625,-0.1938477,-0.1450195,-0.2807617,0.1357422
1905,-175.5625,86.9375,11.5625,1.140137,0.5097656,-0.59375,-0.1474609,-0.2905273,0.1191406
1909,-116.125,108.9375,1.75,0.6132813,0.3466797,-0.9018555,-0.1494141,-0.2929688,0.1069336
1913,-107.1875,90.6875,16,0.5820313,0.7739258,-0.7631836,-0.1542969,-0.296875,0.09228516
1917,-128.625,69.125,22.8125,0.6791992,0.9296875,-0.4477539,-0.1567383,-0.2993164,0.07861328
1921,-158.625,58.5625,29.8125,0.9462891,1.04248,-0.109375,-0.1601563,-0.3007813,0.07177734
1925,-177,74.8125,32.9375,1.206055,0.8632813,0.06738281,-0.1640625,-0.3032227,0.05419922
1930,-162.125,120.5625,36.6875,1.314453,0.5566406,-0.2978516,-0.1674805,-0.3041992,0.03613281
1934,-95.5625,150.4375,29.75,0.7993164,0.3662109,-0.6132813,-0.1699219,-0.3041992,0.02294922
1938,-76.5625,147.3125,36.625,0.8032227,0.840332,-0.609375,-0.1723633,-0.3032227,0.0078125
1942,-87.5625,135.5,32.125,0.7294922,0.9799805,-0.4902344,-0.1748047,-0.3007813,-0.005371094
1946,-109.125,115.4375,31.875,0.8920898,0.9916992,-0.2705078,-0.1757813,-0.2983398,-0.01464844
1950,-121.375,115.125,35.3125,1.124512,0.8325195,-0.128418,-0.1757813,-0.2954102,-0.02734375
1954,-110.5,129.25,40.125,1.209961,0.6225586,-0.09375,-0.1791992,-0.2919922,-0.04492188
1958,-79,153.375,46.8125,1.287598,0.4516602,-0.1552734,-0.1791992,-0.2895508,-0.05566406
1962,-42.75,175.875,50.0625,1.159668,0.5644531,-0.2324219,-0.1772461,-0.2866211,-0.07080078
1966,-29.5,180.25,51.6875,1.059082,0.7392578,-0.2553711,-0.1782227,-0.2817383,-0.08300781
1970,-30.0625,175.6875,52.8125,0.9814453,0.855957,-0.2363281,-0.1782227,-0.2768555,-0.08984375
1974,-41.5625,165.1875,50.0625,0.9116211,0.9257813,-0.2055664,-0.1782227,-0.2744141,-0.09912109
1978,-49.75,152.9375,43.1875,0.9155273,0.8984375,-0.1054688,-0.1748047,-0.2705078,-0.1098633
1982,-55.9375,150.5,35.8125,0.9697266,0.8325195,-0.01660156,-0.1723633,-0.2670898,-0.1166992
1986,-50.875,148.75,32.625,0.9931641,0.6342773,-0.04003906,-0.1699219,-0.2617188,-0.1303711
1990,-35,152.375,32,1.039551,0.5991211,-0.05126953,-0.1674805,-0.2583008,-0.137207
1994,-24.3125,153.6875,30.8125,0.9970703,0.6381836,-0.01318359,-0.1640625,-0.2568359,-0.144043
1998,-22.3125,150.9375,28.125,0.9775391,0.7080078,0.06347656,-0.1591797,-0.2529297,-0.1523438
2002,-26.0625,146.25,25.1875,0.9814453,0.7666016,0.1635742,-0.1533203,-0.2504883,-0.1606445
2006,-36.75,139.5,23.9375,0.9038086,0.7001953,0.07910156,-0.1484375,-0.2480469,-0.1645508
2010,-39,125.8125,26.8125,0.8032227,0.6030273,-0.1166992,-0.1435547,-0.2456055,-0.1728516
2014,-32.375,113.5625,22.6875,0.7568359,0.5722656,-0.2631836,-0.1391602,-0.2407227,-0.1782227
2018,-22.125,98.25,18.6875,0.6635742,0.5566406,-0.3554688,-0.1376953,-0.2407227,-0.1806641
2022,-12.125,80.3125,13.75,0.6713867,0.5722656,-0.34375,-0.1342773,-0.2382813,-0.1865234
2026,-2.375,67.3125,7.3125,0.6362305,0.5371094,-0.3168945,-0.1328125,-0.234375,-0.1904297
2030,7.4375,50.375,4.9375,0.574707,0.5019531,-0.2514648,-0.1293945,-0.2368164,-0.1918945
2034,15.875,35.375,3.125,0.5708008,0.4985352,-0.1166992,-0.1293945,-0.2329102,-0.1928711
2038,20.1875,21.6875,3.4375,0.578125,0.5019531,0.03662109,-0.1259766,-0.2382813,-0.1918945
2042,22.5625,11.25,3.75,0.5708008,0.5097656,0.1943359,-0.1269531,-0.2368164,-0.1904297
2046,21.1875,5.0625,1.625,0.6210938,0.5488281,0.3364258,-0.1259766,-0.2368164,-0.1904297
2050,15,4.875,-5,0.6132813,0.5644531,0.4174805,-0.1259766,-0.2407227,-0.1875
2054,10.6875,0.875,-6,0.6015625,0.4868164,0.4443359,-0.1259766,-0.2407227,-0.1904297
2059,8.75,1.5625,-5.8125,0.6713867,0.4946289,0.5058594,-0.1259766,-0.2407227,-0.1889648
2063,6.3125,0.8125,-0.375,0.6635742,0.4868164,0.4941406,-0.1245117,-0.2431641,-0.1889648
2067,4.625,-3.75,8.75,0.6948242,0.4790039,0.4482422,-0.1235352,-0.2416992,-0.1875
2071,7.3125,-0.5625,8.9375,0.7797852,0.5449219,0.409668,-0.1259766,-0.2431641,-0.1889648
2075,10.75,2.875,4.3125,0.6791992,0.5800781,0.3095703,-0.1245117,-0.2431641,-0.1865234
2079,13.0625,-4,0.3125,0.6362305,0.5991211,0.1904297,-0.1245117,-0.2416992,-0.1865234
2083,15.0625,-12,-2.125,0.6518555,0.5839844,0.09814453,-0.1245117,-0.2431641,-0.1850586
2087,17.9375,-23.4375,-0.9375,0.659668,0.5449219,-0.01660156,-0.1269531,-0.2441406,-0.1850586
2091,23.1875,-37.375,4.375,0.6831055,0.5175781,-0.08203125,-0.1259766,-0.2456055,-0.1821289
2095,32.875,-46.5,4,0.7373047,0.5527344,-0.08203125,-0.1303711,-0.2456055,-0.1782227
2099,44.5625,-52.1875,-0.1875,0.7333984,0.5878906,-0.08203125,-0.1318359,-0.2480469,-0.1767578
2103,55,-57.0625,-6.5625,0.7060547,0.6342773,-0.09375,-0.1342773,-0.2504883,-0.1728516
2107,60.5,-68.5625,-8.9375,0.6831055,0.6303711,-0.1245117,-0.1352539,-0.2529297,-0.1674805
2111,67.5,-81.375,-10.5,0.7294922,0.6811523,-0.1474609,-0.1367188,-0.2583008,-0.1630859
2115,69.8125,-92,-11.9375,0.7177734,0.7392578,-0.1630859,-0.1401367,-0.2607422,-0.1538086
2119,65.6875,-105.5,-20.4375,0.7568359,0.8598633,-0.1552734,-0.1425781,-0.2641602,-0.1469727
2123,69.8125,-112.5625,-32.5625,0.8999023,0.7236328,-0.06298828,-0.1459961,-0.2705078,-0.137207
2127,84.9375,-107.8125,-35,0.9423828,0.6186523,-0.04003906,-0.1474609,-0.2719727,-0.1333008
2131,97.25,-110.9375,-28.25,0.8959961,0.6147461,-0.009277344,-0.1484375,-0.2783203,-0.1225586
2135,99.75,-121.1875,-12.5,0.8339844,0.6459961,-0.05517578,-0.1518555,-0.2832031,-0.112793
2139,91.6875,-134.375,-2.75,0.9311523,0.8481445,0.02880859,-0.1533203,-0.2866211,-0.1020508
2143,77,-135.5625,-10.25,0.9350586,0.9799805,0.07519531,-0.1567383,-0.2880859,-0.08984375
2147,61.5,-138,-22.25,0.9541016,0.9682617,0.09814453,-0.1591797,-0.2905273,-0.07861328
2151,59.1875,-136.25,-25.3125,0.9311523,0.7119141,0.05566406,-0.1616211,-0.2944336,-0.07080078
2155,68.6875,-137,-12.5625,1.004395,0.6069336,0.02490234,-0.1616211,-0.2954102,-0.06103516
2159,78.8125,-132.5,2.9375,1.02002,0.5991211,-0.01318359,-0.1625977,-0.296875,-0.05029297
2163,80.75,-121,3.25,1.13623,0.840332,0.02880859,-0.1640625,-0.296875,-0.04199219
2167,78.3125,-107.3125,-5.5,0.9580078,0.840332,-0.07861328,-0.1665039,-0.2983398,-0.02978516
2171,73.1875,-106.625,-13.8125,0.8457031,0.875,-0.1743164,-0.1665039,-0.2993164,-0.01757813
2175,62.5625,-117.5625,-11.5625,0.7373047,0.793457,-0.3168945,-0.1665039,-0.3017578,-0.009277344
2179,54.75,-138.4375,-1.375,0.7021484,0.7509766,-0.4013672,-0.1674805,-0.3017578,0
2183,39.25,-163.375,20.625,0.6132813,0.6499023,-0.5439453,-0.1674805,-0.3017578,0.01171875
2188,25.875,-203.5,45.9375,0.6674805,0.6811523,-0.6513672,-0.1699219,-0.3017578,0.01855469
2192,11,-217.25,42.0625,0.8339844,0.824707,-0.644043,-0.168457,-0.296875,0.03369141
2196,2.125,-215,16.9375,0.9194336,0.9101563,-0.5400391,-0.168457,-0.2954102,0.04443359
2200,5.8125,-186.25,-26.1875,1.039551,0.7548828,-0.4824219,-0.1674805,-0.2983398,0.04980469
2204,33.125,-158.625,-52.0625,0.8999023,0.5371094,-0.5439453,-0.1601563,-0.2983398,0.06201172
2208,59.875,-145.8125,-53.8125,0.7719727,0.4243164,-0.644043,-0.1533203,-0.2983398,0.07177734
2212,72.0625,-147.75,-36.9375,0.690918,0.4282227,-0.7402344,-0.1484375,-0.3017578,0.08105469
2216,69.125,-165.125,-6.8125,0.609375,0.3896484,-0.8286133,-0.1435547,-0.3007813,0.09326172
2220,61.875,-188.8125,19.9375,0.7216797,0.4594727,-0.8286133,-0.1376953,-0.2983398,0.1069336
2224,62.4375,-181.5625,15.4375,1.117188,0.7509766,-0.559082,-0.1328125,-0.2954102,0.1152344
2228,68,-121.4375,-17.625,1.151855,0.7236328,-0.4936523,-0.128418,-0.296875,0.1259766
2232,91.9375,-84.5,-35.9375,0.8110352,0.5683594,-0.6171875,-0.1220703,-0.2929688,0.137207
2236,102.1875,-68.25,-35.1875,0.6635742,0.6147461,-0.7822266,-0.1176758,-0.2895508,0.144043
2240,102.5,-68.8125,-26.125,0.4853516,0.5878906,-0.9018555,-0.112793,-0.2856445,0.1572266
2244,100.3125,-82.9375,-17.875,0.5009766,0.6884766,-0.9287109,-0.1069336,-0.2832031,0.1640625
2248,87,-79.9375,-15.75,0.5317383,0.7856445,-0.9594727,-0.1030273,-0.2792969,0.1708984
2252,76.875,-85.3125,-18.875,0.3808594,0.7587891,-1.05957,-0.09716797,-0.2744141,0.1821289
2256,67.625,-98.8125,-22.0625,0.2451172,0.6884766,-1.20166,-0.09033203,-0.2695313,0.1889648
2260,68.75,-120.4375,-19.625,0.2451172,0.6069336,-1.286133,-0.08544922,-0.2670898,0.1928711
2264,76,-140,-20.375,0.2954102,0.6342773,-1.155762,-0.07470703,-0.2641602,0.2050781
2268,69.125,-143.75,-22.625,0.5126953,0.7856445,-0.8862305,-0.06494141,-0.2592773,0.2104492
2272,54.9375,-134.9375,-28.375,0.5239258,0.7431641,-0.6552734,-0.05810547,-0.2558594,0.2172852
2276,41.1875,-115.6875,-30.875,0.5512695,0.6845703,-0.59375,-0.04589844,-0.2529297,0.2211914
2280,36.8125,-103.0625,-35.9375,0.3417969,0.4868164,-0.574707,-0.03515625,-0.2529297,0.2255859
2284,29.8125,-90.9375,-30.4375,0.4116211,0.4750977,-0.6015625,-0.02929688,-0.2495117,0.2280273
2288,24.6875,-86.875,-24.6875,0.2490234,0.4013672,-0.6206055,-0.02099609,-0.2470703,0.230957
2292,20.875,-83.8125,-18.3125,0.1791992,0.3081055,-0.6245117,-0.01269531,-0.2470703,0.2324219
2296,16.3125,-78.6875,-11.9375,0.3110352,0.3544922,-0.5053711,-0.006835938,-0.2456055,0.2348633
2300,9.75,-53.75,-12.1875,0.4155273,0.3662109,-0.3012695,-0.001953125,-0.2441406,0.2363281
2304,8.3125,-22.75,-12.5,0.2993164,0.269043,-0.3398438,0.002441406,-0.2416992,0.237793
2308,11,-5.1875,-8.9375,0.2177734,0.2807617,-0.4360352,0.006835938,-0.2416992,0.2363281
2312,10.5625,9.625,-3.875,0.1054688,0.2299805,-0.6015625,0.005859375,-0.2431641,0.2363281
2317,16,8.5625,-0.9375,-0.02197266,0.2768555,-0.7094727,0.003417969,-0.2407227,0.2363281
2321,8.9375,3.5625,1.25,-0.006347656,0.4052734,-0.6787109,0.004394531,-0.2392578,0.2402344
2325,-7.5,7.625,0.4375,0.07861328,0.5058594,-0.6860352,0.003417969,-0.2407227,0.2392578
2329,-18.5,14.0625,-8.5,0.0009765625,0.4594727,-0.7709961,0.004394531,-0.2407227,0.237793
2333,-24.125,11.75,-10.6875,0.004882813,0.3583984,-0.8208008,0.002441406,-0.2416992,0.2363281
2337,-25.4375,12.875,-7.4375,0.109375,0.2729492,-0.8476563,0.0009765625,-0.2456055,0.2363281
2341,-17.3125,22.125,-1.625,0.1484375,0.1835938,-0.8823242,0.0009765625,-0.2441406,0.2333984
2345,-3.875,26.0625,3.3125,0.1210938,0.2338867,-0.840332,0,-0.2456055,0.2333984
2349,-4.3125,34.5,6.6875,0.1791992,0.3896484,-0.6860352,-0.001953125,-0.2456055,0.2348633
2353,-14.875,46.4375,4.125,0.175293,0.4829102,-0.7016602,-0.004394531,-0.2470703,0.2324219
2357,-17.75,54.5625,-3.125,0.1328125,0.4399414,-0.6977539,-0.006835938,-0.2495117,0.2324219
2361,-21.9375,62.5,-7.6875,0.1210938,0.4052734,-0.7670898,-0.01171875,-0.2480469,0.230957
2365,-22.8125,58.1875,-7.6875,0.109375,0.3779297,-0.6708984,-0.01513672,-0.2504883,0.2280273
2369,-38.125,58.5,0.75,0.3305664,0.4790039,-0.4169922,-0.01855469,-0.2519531,0.2270508
2373,-65.0625,76.625,14.25,0.59375,0.6225586,-0.4282227,-0.02490234,-0.2558594,0.2255859
2377,-66.75,103.1875,6.9375,0.159668,0.3120117,-0.8325195,-0.02929688,-0.2617188,0.21875
2381,-41.5625,87.8125,-7.125,0.1054688,0.3583984,-0.8515625,-0.03759766,-0.2631836,0.2143555
2385,-52.1875,83.625,-0.75,0.2758789,0.4985352,-0.6860352,-0.04248047,-0.2670898,0.2089844
2389,-71.3125,77.6875,6.9375,0.4272461,0.5488281,-0.4594727,-0.04736328,-0.2705078,0.2036133
2393,-93.5625,92.4375,14.1875,0.5126953,0.5058594,-0.5439453,-0.05224609,-0.2753906,0.199707
2397,-91.875,98.625,17.3125,0.5087891,0.4477539,-0.7592773,-0.06054688,-0.2817383,0.1928711
2401,-77.375,105.75,9.8125,0.2568359,0.2807617,-1.055664,-0.06640625,-0.2856445,0.1821289
2405,-58.25,81.8125,12.875,0.3071289,0.3857422,-0.9169922,-0.07128906,-0.2866211,0.1777344
2409,-64.25,73.9375,26.8125,0.4853516,0.5019531,-0.609375,-0.07714844,-0.2919922,0.1723633
2413,-77.3125,77.6875,39.1875,0.7490234,0.6845703,-0.4169922,-0.08300781,-0.2929688,0.1630859
2417,-86,108.6875,34.6875,0.7797852,0.6845703,-0.5014648,-0.08789063,-0.2944336,0.1572266
2421,-77.125,127.25,26.1875,0.7099609,0.6499023,-0.7167969,-0.09716797,-0.2993164,0.1464844
2425,-61.3125,131.5,18.75,0.6362305,0.6381836,-0.7783203,-0.1030273,-0.3017578,0.1381836
2429,-58,126.4375,17.5,0.6713867,0.7705078,-0.6513672,-0.109375,-0.3032227,0.1313477
2433,-71.5,118.25,24,0.8535156,0.921875,-0.4282227,-0.1152344,-0.3041992,0.1191406
2437,-97.375,128.5625,31.125,1.035645,1.057617,-0.2324219,-0.1220703,-0.3066406,0.1083984
2441,-118.5,152.1875,41.4375,1.155762,1.038574,-0.3745117,-0.1269531,-0.3066406,0.09912109
2446,-112.25,176.375,35,0.8339844,0.7705078,-0.6401367,-0.1342773,-0.3095703,0.08105469
2450,-88.9375,175.9375,24.75,0.8613281,0.8632813,-0.7285156,-0.1411133,-0.3105469,0.06494141
2454,-82.3125,176.0625,13.5625,0.8691406,0.9375,-0.6401367,-0.1450195,-0.3120117,0.05664063
2458,-91.1875,165.625,16,0.9389648,1.045898,-0.4555664,-0.1494141,-0.3129883,0.04199219
2462,-114.9375,152.9375,26.25,1.05127,1.092773,-0.2822266,-0.1508789,-0.3129883,0.02392578
2466,-136.8125,154.3125,48.5625,1.22168,0.9956055,-0.3325195,-0.1533203,-0.3105469,0.01318359
2470,-125.5625,176,53.6875,1.078125,0.777832,-0.5322266,-0.1582031,-0.3105469,-0.00390625
2474,-90.3125,181.5625,43.375,0.9462891,0.7431641,-0.59375,-0.1616211,-0.3056641,-0.02050781
2478,-69.0625,180.4375,35.375,0.9389648,0.8867188,-0.4863281,-0.1616211,-0.3017578,-0.03125
2482,-72.625,176.875,30.1875,0.9462891,1.01123,-0.378418,-0.1625977,-0.2993164,-0.04492188
2486,-86.75,161.875,33.3125,0.9311523,0.9760742,-0.2900391,-0.1601563,-0.2944336,-0.05957031
2490,-99.875,151.5,37.5625,0.9775391,0.9414063,-0.2055664,-0.1625977,-0.2919922,-0.06933594
2494,-101.375,148,41.0625,0.9311523,0.777832,-0.2089844,-0.1601563,-0.2880859,-0.08300781
2498,-90.5625,147.5625,41.125,0.9155273,0.7431641,-0.2016602,-0.1591797,-0.2832031,-0.09765625
2502,-75.875,152.4375,35.75,0.9501953,0.7509766,-0.1474609,-0.1567383,-0.2807617,-0.1044922
2506,-62.875,157.125,30.25,1.000488,0.7509766,-0.09765625,-0.1542969,-0.2768555,-0.1181641
2510,-48.3125,164.375,23.8125,1.089844,0.7587891,-0.01318359,-0.1508789,-0.2719727,-0.1279297
2514,-36,174,21.8125,1.0625,0.6459961,-0.02832031,-0.1474609,-0.2705078,-0.1357422
2518,-25.6875,168.4375,30.875,0.9931641,0.7001953,-0.05908203,-0.1411133,-0.265625,-0.144043
2522,-24.125,163.875,38.5,0.9541016,0.7666016,-0.1323242,-0.1391602,-0.2631836,-0.1494141
2526,-21,155.3125,39.375,0.8339844,0.7856445,-0.2475586,-0.1352539,-0.2607422,-0.15625
2530,-14.625,138.875,29.0625,0.6518555,0.7739258,-0.3515625,-0.1318359,-0.2583008,-0.1616211
2534,-12.6875,113.5,14.875,0.5708008,0.8286133,-0.3745117,-0.128418,-0.2568359,-0.168457
2538,-19.5,89.1875,0.0625,0.5395508,0.8168945,-0.34375,-0.1259766,-0.2543945,-0.1713867
2542,-22.8125,62.25,-3.1875,0.4541016,0.6499023,-0.394043,-0.1210938,-0.2543945,-0.175293
2546,-16.625,34.625,-2.5,0.4038086,0.5644531,-0.3515625,-0.1176758,-0.2529297,-0.1767578
2550,-12.5625,6.25,3.9375,0.3925781,0.5292969,-0.2089844,-0.1186523,-0.2519531,-0.1796875
2554,-12.6875,-21.9375,10.4375,0.4272461,0.6225586,-0.02832031,-0.1186523,-0.2519531,-0.1767578
2558,-14.4375,-27.4375,-2.625,0.6870117,0.6264648,0.2250977,-0.1210938,-0.2495117,-0.1782227
2562,-0.125,-7.6875,-23.375,0.7954102,0.4946289,0.3710938,-0.1201172,-0.2504883,-0.1782227
2566,16.75,9.6875,-27.375,0.7412109,0.3935547,0.409668,-0.1186523,-0.2529297,-0.175293
2570,26.875,13.625,-20.75,0.6948242,0.4399414,0.409668,-0.1162109,-0.2529297,-0.1782227
2575,23.6875,7.1875,-11.0625,0.6362305,0.5019531,0.3789063,-0.1162109,-0.2529297,-0.1738281
2579,16.25,-5.875,-0.4375,0.6171875,0.5175781,0.3251953,-0.1152344,-0.2558594,-0.1738281
2583,8.125,-14.875,4.4375,0.659668,0.6069336,0.2944336,-0.1152344,-0.2558594,-0.1738281
2587,-0.125,-20.5,0.9375,0.6362305,0.6811523,0.2290039,-0.1137695,-0.2583008,-0.1728516
2591,-4.375,-30.375,-4.125,0.5898438,0.6616211,0.1210938,-0.1152344,-0.2568359,-0.1728516
2595,-5.0625,-41.8125,-7.8125,0.6328125,0.5991211,0.02490234,-0.1162109,-0.2568359,-0.1728516
2599,2.4375,-50.9375,-7.1875,0.7255859,0.4907227,-0.04003906,-0.1201172,-0.2558594,-0.1713867
2603,20.9375,-51.6875,-3.75,0.7758789,0.3857422,-0.09765625,-0.1201172,-0.2583008,-0.168457
2607,44.875,-53.9375,2.4375,0.7875977,0.4125977,-0.1435547,-0.1220703,-0.2607422,-0.1660156
2611,62.9375,-54.875,3.6875,0.7294922,0.5410156,-0.1708984,-0.1245117,-0.2592773,-0.1645508
2615,71.5,-67.0625,0.3125,0.675293,0.6655273,-0.1938477,-0.128418,-0.2631836,-0.1547852
2619,69.25,-79.4375,-8.25,0.7294922,0.7587891,-0.1669922,-0.1293945,-0.2680664,-0.1494141
2623,71.6875,-92.875,-11.9375,0.7529297,0.6030273,-0.1860352,-0.1328125,-0.2719727,-0.144043
2627,85.5,-103.25,-8.5625,0.8769531,0.4477539,-0.1938477,-0.1342773,-0.2729492,-0.1357422
2631,105.9375,-111.125,8.125,0.9541016,0.3583984,-0.2207031,-0.1391602,-0.2792969,-0.1264648
2635,119.9375,-123.75,33,0.9970703,0.3081055,-0.2553711,-0.1411133,-0.2807617,-0.1166992
2639,132.75,-134.5625,46.375,1.345703,0.6616211,-0.01318359,-0.1484375,-0.2841797,-0.1044922
2643,120.5625,-97.5625,30.75,1.430664,0.9101563,0.1210938,-0.1533203,-0.2880859,-0.09228516
2647,102,-93.4375,32.4375,1.000488,0.8286133,-0.02050781,-0.1582031,-0.2880859,-0.08300781
2651,86.625,-116.5,43.6875,0.8071289,0.8208008,-0.1474609,-0.1640625,-0.2895508,-0.07080078
2655,69.9375,-140.9375,50.3125,0.7177734,0.9023438,-0.2514648,-0.168457,-0.2866211,-0.05859375
2659,55.625,-167.0625,50.9375,0.7490234,0.8325195,-0.3051758,-0.1733398,-0.2866211,-0.04882813
2663,56.5625,-172.625,40.5,1.0625,0.9023438,-0.1513672,-0.1806641,-0.2866211,-0.03662109
2667,56.6875,-138.9375,14.5625,1.097656,0.9257813,-0.1513672,-0.184082,-0.2856445,-0.02441406
2671,62.1875,-127.9375,-4.0625,0.9350586,0.921875,-0.2246094,-0.1855469,-0.2841797,-0.01611328
2675,54.5625,-125.625,-17.5625,0.8300781,0.9414063,-0.3325195,-0.184082,-0.2856445,-0.00390625
2679,47.0625,-133.125,-24.6875,0.7602539,0.875,-0.5014648,-0.1831055,-0.2866211,0.004882813
2683,46,-154.9375,-23.4375,0.6557617,0.7353516,-0.6206055,-0.184082,-0.2895508,0.01464844
2687,45.625,-180.25,-15.625,0.8574219,0.7817383,-0.5898438,-0.1806641,-0.2905273,0.02685547
2691,51.4375,-173.375,-19.25,1.082031,0.7470703,-0.4594727,-0.1782227,-0.2905273,0.0390625
2695,65.75,-157.0625,-21.9375,1.089844,0.6772461,-0.4321289,-0.1757813,-0.2919922,0.04980469
2699,78.6875,-138.4375,-25.625,1.097656,0.7275391,-0.4628906,-0.1699219,-0.2895508,0.06347656
2704,91.875,-124.75,-26,0.8535156,0.6108398,-0.6362305,-0.1665039,-0.2895508,0.07714844
2708,104.375,-132.25,-17.375,0.7875977,0.6342773,-0.7978516,-0.1601563,-0.2919922,0.08691406
2712,108.9375,-148.5,-4.375,0.6948242,0.6772461,-0.84375,-0.1591797,-0.2880859,0.1000977
2716,100.8125,-170.375,8.5625,0.7294922,0.8129883,-0.8056641,-0.1518555,-0.2832031,0.1181641
2720,77.5625,-163.6875,-3.9375,0.9931641,1.026855,-0.6323242,-0.1484375,-0.2817383,0.1289063
2724,78.9375,-153,-16.875,0.8417969,0.7001953,-0.6669922,-0.1425781,-0.2768555,0.1411133
2728,91.0625,-142,-18.75,0.7875977,0.6108398,-0.7553711,-0.1318359,-0.2753906,0.1533203
2732,99.1875,-143.125,-11.4375,0.7216797,0.5800781,-0.8325195,-0.1293945,-0.2729492,0.1616211
2736,95.25,-150.125,6.0625,0.574707,0.4516602,-0.9902344,-0.1201172,-0.265625,0.1762695
2740,96.375,-176.25,29.3125,0.4580078,0.3740234,-1.125,-0.1113281,-0.2607422,0.1875
2744,96.5625,-198.0625,36.375,0.6870117,0.5371094,-0.9863281,-0.1069336,-0.2568359,0.1967773
2748,103.4375,-175.5625,17.4375,0.8881836,0.4204102,-0.8476563,-0.09619141,-0.2470703,0.2089844
2752,145.0625,-129.25,3,1.0625,0.09423828,-0.7822266,-0.08544922,-0.2407227,0.2211914
2756,201.0625,-74.375,12.25,0.9580078,0.0009765625,-0.8515625,-0.07958984,-0.2319336,0.230957
2760,213.125,-53.5625,45.3125,0.5395508,0.2226563,-1.105469,-0.07470703,-0.2143555,0.2446289
2764,198.4375,-86.4375,81.9375,0.2216797,0.3701172,-1.163086,-0.07470703,-0.1943359,0.2568359
2768,159.6875,-141.0625,107.375,0.1948242,0.7119141,-1.028809,-0.07226563,-0.1831055,0.2651367
2772,100.5625,-154.5,85.125,0.6401367,1.135742,-0.5170898,-0.06152344,-0.1679688,0.2744141
2776,47.625,-119.75,40.75,0.6289063,0.9682617,-0.2055664,-0.05419922,-0.1591797,0.2797852
2780,21.375,-74,-1.3125,0.5317383,0.5371094,-0.1860352,-0.04736328,-0.1567383,0.2827148
2784,21.1875,-38.8125,-17.75,0.4038086,0.21875,-0.3325195,-0.04150391,-0.1557617,0.2841797
2788,14.3125,-26.375,-10.5625,0.3071289,0.05517578,-0.4248047,-0.03515625,-0.1518555,0.2866211
2792,1.8125,-16.6875,8.75,0.2373047,0.02441406,-0.6362305,-0.03662109,-0.1518555,0.2841797
2796,5.375,-23.0625,15.625,0.1015625,0.01660156,-0.6860352,-0.03320313,-0.1533203,0.2866211
2800,4.75,-16.875,6.375,0.159668,0.1953125,-0.6245117,-0.02929688,-0.1508789,0.2880859
2804,0.3125,-9.9375,-6.875,0.1518555,0.1523438,-0.5825195,-0.03076172,-0.1508789,0.2866211
2808,-3.25,4.1875,-13.875,0.2490234,0.1254883,-0.5283203,-0.02929688,-0.1518555,0.2866211
2812,-9.5625,18.875,-11.3125,0.2177734,0.07470703,-0.6401367,-0.02929688,-0.1508789,0.2851563
2816,-17.25,23.125,-5.5625,0.125,0.06298828,-0.859375,-0.03173828,-0.1518555,0.2866211
2820,-11,16.1875,-1.375,-0.006347656,-0.06835938,-0.9399414,-0.03417969,-0.1542969,0.2866211
2824,-2.75,10.6875,-1.5625,0.125,0.03222656,-0.8710938,-0.03417969,-0.1542969,0.2841797
2828,-5.125,20.6875,-6.75,0.2607422,0.1254883,-0.7055664,-0.03515625,-0.1542969,0.2841797
2833,-12.3125,31.3125,-8.75,0.2646484,0.1098633,-0.6708984,-0.03759766,-0.1557617,0.2841797
2837,-19.0625,42.6875,-11.0625,0.2333984,0.08251953,-0.7783203,-0.04150391,-0.1582031,0.2827148
2841,-20.75,44.625,-10.4375,0.2104492,0.105957,-0.8325195,-0.04150391,-0.1582031,0.2797852
2845,-26.0625,46.75,-10.5,0.190918,0.1176758,-0.8017578,-0.04736328,-0.1606445,0.2797852
2849,-33.3125,47,-10.6875,0.3110352,0.2299805,-0.6479492,-0.04980469,-0.1630859,0.2797852
2853,-54.3125,58.625,-10.8125,0.3305664,0.3041992,-0.609375,-0.05419922,-0.1669922,0.2773438
2857,-74.0625,67.6875,-13.375,0.3691406,0.3935547,-0.7133789,-0.05908203,-0.171875,0.2714844
2861,-82.5,68.9375,-19.375,0.1713867,0.2265625,-0.84375,-0.06396484,-0.1791992,0.2661133
2865,-80.0625,63.6875,-22.4375,0.3808594,0.2924805,-0.7553711,-0.06640625,-0.1831055,0.2651367
2869,-90,73.5,-21.4375,0.3847656,0.2573242,-0.7514648,-0.07226563,-0.1918945,0.2592773
2873,-92.4375,77.25,-13.9375,0.5356445,0.3271484,-0.7900391,-0.07714844,-0.2006836,0.2514648
2877,-87,89.125,-14.9375,0.4038086,0.1796875,-0.8901367,-0.08056641,-0.2080078,0.2470703
2881,-72.6875,104.75,-18.875,0.4580078,0.2924805,-1.301758,-0.08789063,-0.2128906,0.2392578
2885,-29.875,98.375,-41.9375,0.02832031,-0.1191406,-1.520996,-0.09472656,-0.2182617,0.2333984
2889,10.375,74.3125,-43.0625,0.2607422,0.03613281,-1.336426,-0.09619141,-0.2216797,0.2324219
2893,10.6875,62.5,-18.25,0.3496094,0.2226563,-1.094238,-0.1010742,-0.2207031,0.2294922
2897,-10.0625,43.0625,5.5625,0.4389648,0.4013672,-0.840332,-0.1044922,-0.2207031,0.2280273
2901,-31.0625,46.5625,19.5625,0.7529297,0.4829102,-0.7631836,-0.1069336,-0.2207031,0.2270508
2905,-34.0625,74.3125,12.75,0.7060547,0.4750977,-0.7822266,-0.1137695,-0.2231445,0.2211914
2909,-28.6875,95.375,-10.875,0.5898438,0.5722656,-0.894043,-0.1176758,-0.2255859,0.2172852
2913,-34.75,96.9375,-26.875,0.4506836,0.6264648,-0.8208008,-0.1235352,-0.2280273,0.2119141
2917,-55.3125,86.875,-33.1875,0.5668945,0.7353516,-0.5478516,-0.1269531,-0.2294922,0.2080078
2921,-86.8125,85.75,-31.6875,0.7797852,0.7973633,-0.2514648,-0.1303711,-0.2382813,0.2011719
2925,-123.75,106.5,-34.875,1.113281,0.8129883,-0.2167969,-0.1328125,-0.2416992,0.1928711
2929,-137,135.5,-33.3125,1.140137,0.5683594,-0.3286133,-0.1367188,-0.2504883,0.1791992
2933,-127.1875,166.8125,-30.75,1.128418,0.4868164,-0.5551758,-0.1425781,-0.2592773,0.1630859
2937,-106.125,178.8125,-36.5625,0.8300781,0.3896484,-0.6899414,-0.1474609,-0.2670898,0.1508789
2941,-96.625,168.9375,-37.375,0.9155273,0.6420898,-0.4785156,-0.1508789,-0.2729492,0.1342773
2945,-121,161.125,-26.375,1.113281,0.8286133,-0.2436523,-0.1567383,-0.2768555,0.1220703
2949,-151.625,171.875,-9,1.322266,0.8325195,-0.2475586,-0.1591797,-0.2817383,0.1083984
2953,-153.3125,197,-5.5,1.105469,0.5175781,-0.5864258,-0.1650391,-0.2880859,0.08544922
2957,-123.375,201.875,-8.6875,1.043457,0.5449219,-0.8017578,-0.1674805,-0.2905273,0.06494141
2962,-104.5,203.5625,-16.625,0.7294922,0.5371094,-0.9785156,-0.1708984,-0.2944336,0.05419922
2966,-95.6875,167.5,-21.25,0.675293,0.7587891,-0.8286133,-0.1708984,-0.296875,0.03515625
2970,-121.1875,137.8125,-14.875,0.8959961,0.9995117,-0.5092773,-0.1708984,-0.2993164,0.01708984
2974,-150.4375,129.375,-14.1875,1.078125,0.9838867,-0.2861328,-0.1674805,-0.2993164,0.0078125
2978,-155.75,133.125,-7.4375,1.171387,0.7470703,-0.2978516,-0.1674805,-0.2993164,-0.01074219
2982,-129.9375,153,-1.875,1.101563,0.5097656,-0.4975586,-0.1665039,-0.3007813,-0.03271484
2986,-86,161.1875,-8.0625,0.9814453,0.5566406,-0.6479492,-0.1640625,-0.2983398,-0.04199219
2990,-62.0625,157.125,-6.875,0.8300781,0.6420898,-0.7055664,-0.1601563,-0.2983398,-0.05712891
2994,-56.3125,132.5625,-2.875,0.8071289,0.875,-0.5400391,-0.1582031,-0.2954102,-0.06640625
2998,-67.8125,110.75,0.5625,0.8999023,1.030762,-0.2705078,-0.1567383,-0.2954102,-0.07470703
3002,-81.4375,102,-1.3125,1.035645,1.061523,-0.06689453,-0.1533203,-0.2929688,-0.08544922
3006,-82.625,103.125,-0.375,1.035645,0.8867188,-0.01318359,-0.1508789,-0.2895508,-0.09521484
3010,-73.875,109.8125,0.375,1.027832,0.8012695,-0.09765625,-0.1484375,-0.2880859,-0.1020508
3014,-56.5625,110.375,-0.5,0.8691406,0.7197266,-0.2016602,-0.1450195,-0.2866211,-0.1098633
3018,-39.9375,104.625,-2,0.8222656,0.7626953,-0.05517578,-0.1425781,-0.2856445,-0.1181641
3022,-43.6875,100.9375,-5.0625,0.8803711,0.9296875,0.159668,-0.1391602,-0.2817383,-0.1235352
3026,-58.4375,92.875,-4.4375,0.8110352,0.9414063,0.2788086,-0.1352539,-0.2807617,-0.1303711
3030,-77.6875,82.75,-0.75,0.8222656,0.8828125,0.3095703,-0.1318359,-0.2792969,-0.1386719
3034,-83.6875,85.25,-1,0.8730469,0.7587891,0.1748047,-0.1293945,-0.2753906,-0.1425781
3038,-72.375,84.0625,1,0.6210938,0.5253906,-0.07861328,-0.1269531,-0.2729492,-0.1523438
3042,-61.3125,68.1875,2.0625,0.5317383,0.5878906,-0.1938477,-0.1245117,-0.2680664,-0.1591797
3046,-58.75,39.0625,9.5,0.4389648,0.5722656,-0.109375,-0.1235352,-0.2670898,-0.1616211
3050,-68.9375,10,22.4375,0.5356445,0.5991211,-0.06298828,-0.1210938,-0.2617188,-0.1660156
3054,-77.375,-4.75,25,0.6791992,0.5566406,-0.01318359,-0.1245117,-0.2583008,-0.1699219
3058,-74.1875,1.1875,20.1875,0.7216797,0.4204102,-0.1323242,-0.1259766,-0.2529297,-0.1738281
3062,-53.625,-1.1875,14.5,0.6171875,0.3271484,-0.2167969,-0.1259766,-0.2504883,-0.175293
3066,-29,-2.9375,9.1875,0.6328125,0.3388672,-0.1435547,-0.128418,-0.2470703,-0.1796875
3070,-15.8125,-10.4375,11.1875,0.6210938,0.4204102,-0.05126953,-0.1269531,-0.2456055,-0.1767578
3074,-12.8125,-23.4375,20.1875,0.644043,0.4360352,0.04052734,-0.1293945,-0.2441406,-0.1796875
3078,-7,-30.9375,27.5,0.7177734,0.4555664,0.1367188,-0.1318359,-0.2441406,-0.1782227
3082,0.375,-23.5625,21.125,0.8110352,0.5332031,0.2402344,-0.1352539,-0.2407227,-0.1796875
3086,7.9375,-11.9375,9.5625,0.7529297,0.5488281,0.2827148,-0.1367188,-0.2407227,-0.1796875
3091,12.1875,-10.625,2.0625,0.6713867,0.5913086,0.2675781,-0.1376953,-0.2407227,-0.1767578
3095,10.375,-14.875,-2.4375,0.659668,0.6108398,0.2636719,-0.1367188,-0.2392578,-0.1767578
3099,5.3125,-23.375,-2.625,0.644043,0.5800781,0.2329102,-0.1376953,-0.2416992,-0.1782227
3103,4.125,-33,0.875,0.690918,0.5292969,0.2060547,-0.1401367,-0.2441406,-0.1767578
3107,7.375,-33.3125,0.8125,0.7758789,0.5449219,0.1982422,-0.1401367,-0.2441406,-0.1738281
3111,15.4375,-29.75,-4.4375,0.7568359,0.5644531,0.144043,-0.1425781,-0.2431641,-0.1713867
3115,21.0625,-31.125,-8.6875,0.7099609,0.5913086,0.06347656,-0.1435547,-0.2456055,-0.1713867
3119,25.75,-40.6875,-9.5625,0.6557617,0.5991211,-0.03222656,-0.1450195,-0.2470703,-0.168457
3123,27.25,-51.5625,-10.625,0.659668,0.6264648,-0.1166992,-0.1435547,-0.2470703,-0.1660156
3127,29.9375,-64.625,-12.5625,0.6132813,0.6147461,-0.1860352,-0.1474609,-0.2504883,-0.1606445
3131,33.4375,-79.875,-12.625,0.6171875,0.6577148,-0.2207031,-0.1484375,-0.2519531,-0.1591797
3135,36.0625,-90.75,-22,0.644043,0.7548828,-0.2207031,-0.1508789,-0.2558594,-0.1523438
3139,32.75,-105.5625,-32.625,0.6289063,0.7973633,-0.2285156,-0.1533203,-0.2568359,-0.1484375
3143,25.5,-127.125,-37.125,0.6054688,0.7587891,-0.2861328,-0.1557617,-0.2607422,-0.1416016
3147,17.0625,-155,-34.375,0.659668,0.7275391,-0.2900391,-0.1567383,-0.2631836,-0.1357422
3151,9.4375,-179.875,-28.375,0.7529297,0.7470703,-0.2631836,-0.1616211,-0.2670898,-0.125
3155,0.125,-190.9375,-34.75,0.9077148,0.8168945,-0.2363281,-0.1650391,-0.2680664,-0.1210938
3159,3.8125,-198.9375,-40,0.8730469,0.6420898,-0.309082,-0.1699219,-0.2705078,-0.1113281
3163,16.125,-202.9375,-41.75,1.078125,0.6845703,-0.2861328,-0.1723633,-0.2729492,-0.1005859
3167,36.6875,-189.875,-48.125,1.124512,0.6264648,-0.2939453,-0.1748047,-0.2753906,-0.09667969
3171,60.5,-169.0625,-57.625,1.22168,0.6694336,-0.309082,-0.1757813,-0.2783203,-0.08007813
3175,84.9375,-149.3125,-59.25,1.151855,0.6303711,-0.359375,-0.1757813,-0.2841797,-0.07080078
3179,109.9375,-138,-59.125,1.078125,0.6694336,-0.3974609,-0.1748047,-0.2880859,-0.05957031
3183,120.875,-140.0625,-49.0625,1.047363,0.7666016,-0.4130859,-0.1723633,-0.2919922,-0.04492188
3187,117.5625,-146.875,-36.9375,1.082031,0.8945313,-0.3862305,-0.1708984,-0.296875,-0.02832031
3191,114,-148.0625,-31.3125,1.101563,0.9375,-0.378418,-0.1708984,-0.2983398,-0.01464844
3195,112.4375,-137.75,-43.875,1.13623,0.9956055,-0.359375,-0.1674805,-0.3017578,0
3199,113.9375,-131.1875,-49.1875,1.043457,0.9335938,-0.3862305,-0.1640625,-0.3056641,0.01708984
3203,117.125,-129.1875,-43.625,0.9775391,0.8442383,-0.4208984,-0.1625977,-0.3056641,0.02539063
3207,120.5,-128.125,-30.375,0.9272461,0.8129883,-0.4824219,-0.1582031,-0.3041992,0.04199219
3211,124.875,-134.0625,-13.8125,0.7294922,0.7314453,-0.6362305,-0.1533203,-0.3056641,0.05664063
3215,122.4375,-150.9375,6.5625,0.659668,0.7431641,-0.7900391,-0.1518555,-0.3032227,0.0703125
3220,112.375,-167.3125,6.5625,0.8378906,1.04248,-0.6552734,-0.1484375,-0.3007813,0.08789063
3224,98.8125,-149.125,-21.375,0.8842773,1.038574,-0.5629883,-0.1450195,-0.296875,0.1030273
3228,98.5,-134.6875,-49.25,0.8222656,0.921875,-0.574707,-0.1391602,-0.2954102,0.1137695
3232,104.1875,-129,-62.625,0.644043,0.7470703,-0.6552734,-0.1318359,-0.2944336,0.1259766
3236,105.8125,-133.75,-59.0625,0.6982422,0.7041016,-0.6669922,-0.1210938,-0.2919922,0.1411133
3240,103.1875,-134.1875,-45,0.5859375,0.5449219,-0.7861328,-0.112793,-0.2905273,0.1494141
3244,117.5625,-142.1875,-33.0625,0.4580078,0.4086914,-0.9902344,-0.1044922,-0.2866211,0.1601563
3248,132.4375,-157.9375,-23.375,0.3730469,0.4633789,-1.086426,-0.09375,-0.2807617,0.1762695
3252,131.875,-178.125,-14.5,0.5009766,0.6499023,-0.9633789,-0.08642578,-0.2744141,0.1845703
3256,117.75,-177.75,-8,0.6015625,0.7314453,-0.840332,-0.07324219,-0.2670898,0.1982422
3260,103.125,-164.1875,-11.1875,0.6635742,0.8168945,-0.7475586,-0.06298828,-0.2592773,0.2104492
3264,90.375,-137.3125,-20.125,0.5668945,0.7548828,-0.824707,-0.05419922,-0.2568359,0.2172852
3268,92.8125,-126.0625,-32.3125,0.3149414,0.6264648,-0.9326172,-0.04394531,-0.2495117,0.2255859
3272,91.9375,-125.3125,-45.8125,0.2177734,0.6616211,-1.005371,-0.03320313,-0.2416992,0.2333984
3276,82.375,-135.5625,-51.1875,0.05908203,0.6381836,-0.9941406,-0.0234375,-0.2382813,0.237793
3280,56.25,-158.4375,-47.0625,0.08642578,0.6845703,-0.8745117,-0.009277344,-0.2329102,0.2416992
3284,19.125,-166.9375,-37.375,0.2797852,0.7587891,-0.6479492,0.006835938,-0.2280273,0.2446289
3288,-12.4375,-149.875,-41.8125,0.3305664,0.6147461,-0.5244141,0.01513672,-0.2280273,0.2460938
3292,-19.75,-123.9375,-50.1875,0.3886719,0.4633789,-0.4438477,0.03173828,-0.2304688,0.2431641
3296,-20.0625,-91.5,-54.9375,0.3769531,0.2963867,-0.394043,0.04248047,-0.2319336,0.2402344
3300,-15.6875,-60.3125,-47.6875,0.3847656,0.1333008,-0.378418,0.04882813,-0.2319336,0.237793
3304,-6.125,-34.375,-33.9375,0.3110352,0.03613281,-0.3823242,0.05810547,-0.2319336,0.237793
3308,1.875,-10.4375,-19.125,0.2490234,0.09033203,-0.4707031,0.05810547,-0.2319336,0.237793
3312,6.6875,5.375,-13.4375,0.03564453,0.2070313,-0.5864258,0.06152344,-0.2304688,0.2363281
3316,0.3125,6.625,-13.0625,-0.08789063,0.3271484,-0.6171875,0.06152344,-0.2294922,0.237793
3320,-12.25,3.875,-14.5,-0.06835938,0.3232422,-0.6171875,0.06152344,-0.2319336,0.2363281
3324,-22.375,8.3125,-13.9375,0.01660156,0.284668,-0.574707,0.06152344,-0.2319336,0.2363281
3328,-32.0625,18.875,-11.0625,0.08251953,0.237793,-0.6206055,0.06152344,-0.2319336,0.2363281
3332,-31.3125,30.3125,-6.5,0.02832031,0.1484375,-0.7670898,0.06152344,-0.2358398,0.2324219
3336,-23.1875,34.9375,-1.25,-0.02587891,0.1137695,-0.9018555,0.06054688,-0.2382813,0.2333984
3340,-15.6875,30.25,4.6875,-0.08789063,0.1523438,-0.9326172,0.05810547,-0.2392578,0.2333984
3344,-15.25,25.3125,10.375,-0.01806641,0.2573242,-0.8671875,0.05322266,-0.2392578,0.2324219
3349,-23.125,30.125,12.6875,0.08251953,0.3232422,-0.7749023,0.0546875,-0.2407227,0.2324219
3353,-31.1875,39.4375,16.5,0.1635742,0.3701172,-0.7475586,0.04980469,-0.2431641,0.230957
3357,-35.9375,59.4375,15.5,0.1289063,0.315918,-0.84375,0.04394531,-0.2441406,0.2294922
3361,-26.0625,66.5625,13.4375,0.02832031,0.269043,-0.9018555,0.0390625,-0.2480469,0.2280273
3365,-22.1875,72.875,15.6875,0.04345703,0.3193359,-0.9399414,0.03320313,-0.2504883,0.2280273
3369,-23.5625,68.3125,20.1875,0.04345703,0.4125977,-0.894043,0.02734375,-0.2519531,0.2280273
3373,-37.375,69.3125,21,0.05126953,0.4946289,-0.7900391,0.02246094,-0.2529297,0.2241211
3377,-55.5,70.5,24.25,0.2138672,0.6186523,-0.7553711,0.01660156,-0.2568359,0.2211914
3381,-65.25,82.75,13.625,0.1054688,0.5488281,-0.7670898,0.009277344,-0.2617188,0.2172852
3385,-70.8125,84.125,4,0.2568359,0.6420898,-0.6552734,0.004394531,-0.2617188,0.2158203
3389,-85.25,91.9375,0.625,0.2333984,0.6186523,-0.6362305,-0.001953125,-0.2695313,0.2104492
3393,-98.625,103.3125,1.4375,0.3847656,0.5991211,-0.8017578,-0.0078125,-0.2768555,0.2050781
3397,-85.8125,110.4375,-3,0.206543,0.4165039,-0.8710938,-0.01269531,-0.2783203,0.199707
3401,-86.75,101.8125,6.3125,0.3266602,0.5722656,-0.7167969,-0.01855469,-0.2856445,0.1928711
3405,-107.25,91.625,23.3125,0.3959961,0.7197266,-0.4975586,-0.02587891,-0.2919922,0.1831055
3409,-127.1875,92.6875,31.9375,0.6557617,0.8012695,-0.378418,-0.03173828,-0.296875,0.1777344
3413,-131.5625,127.1875,29.5,0.7719727,0.8168945,-0.5629883,-0.0390625,-0.3041992,0.1669922
3417,-112.375,155.25,14.875,0.5087891,0.6459961,-0.7631836,-0.04833984,-0.3095703,0.1547852
3421,-99.25,146.4375,15.1875,0.4194336,0.7392578,-0.7285156,-0.05566406,-0.3120117,0.1479492
3425,-115.1875,121.9375,30.3125,0.4931641,0.956543,-0.5244141,-0.06396484,-0.3154297,0.1328125
3429,-149.4375,94.875,48.5625,0.6171875,1.116211,-0.3208008,-0.06884766,-0.3232422,0.1191406
3433,-173.1875,90.75,56.5625,0.7954102,1.112305,-0.2670898,-0.07568359,-0.3266602,0.1083984
3437,-168.6875,112.9375,46.625,0.8149414,1.022949,-0.3325195,-0.08300781,-0.3305664,0.09228516
3441,-148.25,142.5625,26.4375,0.6674805,0.9838867,-0.5092773,-0.08886719,-0.3320313,0.07177734
3445,-135.25,150.375,10.5625,0.5087891,1.034668,-0.628418,-0.09228516,-0.3344727,0.06201172
3449,-141.1875,132.375,16.4375,0.4350586,1.073242,-0.5786133,-0.09619141,-0.3354492,0.04443359
3453,-167.125,98.125,41.8125,0.5668945,1.209473,-0.4321289,-0.09960938,-0.3369141,0.02685547
3457,-194.4375,82.25,65.4375,0.8183594,1.244141,-0.2822266,-0.1020508,-0.3369141,0.01318359
3461,-201.125,90.8125,82.625,1.023926,1.124023,-0.2016602,-0.1103516,-0.3344727,-0.005371094
3465,-185.75,121.375,95.0625,1.217773,1.06543,-0.1977539,-0.1162109,-0.3291016,-0.02587891
3469,-148.75,171.125,87.625,1.213867,0.956543,-0.3476563,-0.1201172,-0.3256836,-0.03955078
3473,-97.75,211.875,81.5625,1.070313,0.9296875,-0.4936523,-0.1245117,-0.3178711,-0.05712891
3478,-66.0625,233.25,77.625,0.9462891,1.104492,-0.6132813,-0.1269531,-0.3154297,-0.07177734
3482,-53.125,239.125,70.25,0.8920898,1.271484,-0.5668945,-0.1269531,-0.3105469,-0.08154297
3486,-62.9375,232.6875,67.875,0.8183594,1.317871,-0.5170898,-0.1259766,-0.3041992,-0.09375
3490,-77.0625,214.3125,74.25,0.7719727,1.267578,-0.4555664,-0.1259766,-0.3007813,-0.1088867
3494,-77.5,191.625,65.75,0.6870117,1.205566,-0.4169922,-0.1235352,-0.2954102,-0.1166992
3498,-68.8125,172.4375,44.0625,0.6982422,1.166504,-0.2553711,-0.1220703,-0.2905273,-0.1289063
3502,-73.125,155.0625,38.0625,0.6674805,1.061523,-0.03222656,-0.1176758,-0.2856445,-0.1386719
3506,-83.8125,127.0625,40.4375,0.6171875,1.108398,0.2788086,-0.1152344,-0.2807617,-0.1455078
3510,-118.125,98.375,47.375,0.7099609,1.283203,0.4521484,-0.1137695,-0.2753906,-0.1523438
3514,-140.25,88,38.25,0.7641602,1.12793,0.3173828,-0.1137695,-0.2680664,-0.1616211
3518,-133.625,88.4375,23.3125,0.7954102,0.8208008,0.105957,-0.112793,-0.2607422,-0.1713867
3522,-107.125,95.125,14.25,0.7641602,0.5991211,-0.009277344,-0.1113281,-0.2529297,-0.1796875
3526,-78.5625,98.75,12.6875,0.7641602,0.5839844,-0.05908203,-0.1079102,-0.2480469,-0.1889648
3530,-54.8125,101.8125,13.375,0.7333984,0.5449219,-0.1782227,-0.1030273,-0.2416992,-0.1918945
3534,-30.8125,95.1875,13.1875,0.7099609,0.5991211,-0.2324219,-0.1010742,-0.2392578,-0.1943359
3538,-26.625,93.9375,14.0625,0.7602539,0.7817383,-0.2705078,-0.09863281,-0.2382813,-0.1972656
3542,-27.8125,92.9375,7.875,0.6054688,0.7001953,-0.3632813,-0.09375,-0.2368164,-0.199707
3546,-13.625,76.625,0.0625,0.4272461,0.5761719,-0.3745117,-0.09130859,-0.234375,-0.2041016
3550,4,41.8125,17.25,0.175293,0.1137695,-0.5551758,-0.08789063,-0.2329102,-0.2041016
3554,19.5625,21.9375,14.9375,0.4853516,0.6811523,-0.1899414,-0.08544922,-0.2329102,-0.2080078
3558,22.75,11.5625,8.6875,0.4389648,0.5913086,-0.009277344,-0.08642578,-0.2358398,-0.2055664
3562,26.1875,2.1875,6.625,0.4697266,0.6147461,0.1367188,-0.08642578,-0.2358398,-0.2011719
3566,22.0625,-4,3.6875,0.4970703,0.6616211,0.2060547,-0.08544922,-0.2368164,-0.2011719
3570,21.6875,-5.875,-3.4375,0.5048828,0.6420898,0.2983398,-0.08642578,-0.2358398,-0.2026367
3574,25.625,-4.25,-11.9375,0.5239258,0.6186523,0.3520508,-0.08789063,-0.2368164,-0.1987305
3578,31,-2.8125,-15.375,0.5239258,0.5332031,0.3442383,-0.08789063,-0.2392578,-0.1987305
3582,40.1875,-5.1875,-13.4375,0.5473633,0.5292969,0.3134766,-0.08642578,-0.2431641,-0.1928711
3586,46.6875,-6.375,-12,0.5976563,0.5605469,0.2480469,-0.08642578,-0.2456055,-0.1943359
3590,50.25,-5.9375,-12.9375,0.6328125,0.6069336,0.1557617,-0.08398438,-0.2480469,-0.1918945
3594,52.4375,-5.0625,-14.3125,0.625,0.6069336,0.04443359,-0.08544922,-0.2495117,-0.1889648
3598,61.4375,-9,-13.375,0.527832,0.5722656,-0.05126953,-0.08398438,-0.2543945,-0.1835938
3602,70.8125,-24.5625,-9.3125,0.4619141,0.6069336,-0.1362305,-0.08203125,-0.2583008,-0.1850586
3607,75.6875,-43,-4.375,0.4506836,0.6538086,-0.1821289,-0.08203125,-0.2617188,-0.175293
3611,79.6875,-62.5,-1.25,0.4580078,0.7080078,-0.2324219,-0.08544922,-0.265625,-0.1728516
3615,84.0625,-73.6875,-5.9375,0.5317383,0.8364258,-0.1860352,-0.08544922,-0.2695313,-0.1674805
3619,78.375,-88.25,-9.3125,0.4194336,0.9179688,-0.1821289,-0.08642578,-0.2744141,-0.1616211
3623,64.0625,-116.8125,-8,0.2568359,1.04248,-0.1166992,-0.09033203,-0.2807617,-0.1577148
3627,30.9375,-166.3125,-3.6875,0.2026367,1.251953,-0.009277344,-0.09375,-0.2807617,-0.1508789
3631,-0.3125,-202.0625,-11.75,0.5087891,1.232422,0.2094727,-0.09960938,-0.2817383,-0.1455078
3635,-4.125,-197.0625,-32.5,0.7915039,0.9604492,0.3212891,-0.1054688,-0.2832031,-0.1416016
3639,22.875,-169.0625,-46.8125,0.9194336,0.7431641,0.3291016,-0.109375,-0.2841797,-0.137207
3643,63.375,-127.9375,-53.6875,1.035645,0.6733398,0.3134766,-0.1113281,-0.2866211,-0.1333008
3647,101.6875,-82.0625,-60.9375,0.9736328,0.7314453,0.1635742,-0.1113281,-0.2944336,-0.1225586
3651,128.5625,-52.8125,-67.1875,0.8378906,0.8051758,-0.1166992,-0.1103516,-0.2983398,-0.1142578
3655,147.375,-39.875,-73.25,0.7255859,0.9414063,-0.3515625,-0.1054688,-0.3041992,-0.1035156
3659,141.6875,-38.25,-81.1875,0.6401367,1.049805,-0.5283203,-0.1010742,-0.3129883,-0.09228516
3663,138,-54.6875,-78.5625,0.4892578,0.9101563,-0.7207031,-0.09716797,-0.3144531,-0.08447266
3667,137.25,-92.5,-61.8125,0.4658203,0.8598633,-0.7900391,-0.09228516,-0.3232422,-0.07324219
3671,133.625,-131,-37.75,0.6401367,0.8828125,-0.7592773,-0.09130859,-0.3291016,-0.05859375
3675,131.4375,-150.75,-30.1875,0.8959961,1.09668,-0.6323242,-0.09033203,-0.3305664,-0.04882813
3679,130.8125,-148.5625,-30.125,1.004395,0.9296875,-0.6245117,-0.09130859,-0.3344727,-0.03369141
3683,159,-148.125,-20.75,1.109375,0.8520508,-0.5786133,-0.08886719,-0.3354492,-0.01757813
3687,167.9375,-133.625,-16.8125,1.144043,1.022949,-0.574707,-0.08642578,-0.3378906,-0.00390625
3691,169.1875,-132,-3.4375,1.082031,1.077148,-0.5400391,-0.08642578,-0.3378906,0.01318359
3695,159.4375,-129.5625,5.125,1.0625,1.186035,-0.4746094,-0.08642578,-0.3354492,0.03222656
3699,147.3125,-122.5625,6.375,0.9736328,1.205566,-0.4746094,-0.08544922,-0.3354492,0.04443359
3703,145.0625,-125.5625,8.9375,0.8417969,1.112305,-0.5439453,-0.08398438,-0.3320313,0.05957031
3707,137.1875,-129.5625,17.5625,0.7797852,1.06543,-0.609375,-0.08300781,-0.3305664,0.07568359
3711,138.1875,-140.1875,26.3125,0.6362305,0.9296875,-0.7207031,-0.08300781,-0.328125,0.08935547
3715,138.3125,-154.5,35.3125,0.6401367,1.003418,-0.7133789,-0.08203125,-0.3232422,0.1030273
3719,127.6875,-162.5,41.9375,0.6635742,1.057617,-0.6938477,-0.078125,-0.3154297,0.1191406
3723,114.875,-159.625,32.9375,0.6870117,1.162598,-0.6748047,-0.07714844,-0.3144531,0.1289063
3727,105.0625,-155.4375,21.125,0.578125,1.061523,-0.6708984,-0.07128906,-0.3095703,0.1425781
3731,101,-151.25,12.375,0.578125,0.9375,-0.7133789,-0.06494141,-0.3032227,0.1572266
3736,109.25,-146.0625,6.125,0.4658203,0.7275391,-0.7670898,-0.06152344,-0.2983398,0.1640625
3740,119.9375,-152.875,10.6875,0.4116211,0.6264648,-0.7978516,-0.05322266,-0.2905273,0.1762695
3744,118.6875,-155.25,25.3125,0.4541016,0.6108398,-0.9052734,-0.04589844,-0.2856445,0.1875
3748,123.4375,-162.5625,34.625,0.3227539,0.5800781,-1.005371,-0.04150391,-0.2807617,0.1928711
3752,120.4375,-167,23.6875,0.4814453,0.824707,-0.9555664,-0.03076172,-0.2719727,0.2080078
3756,108.1875,-153.5,9.125,0.4272461,0.8208008,-0.824707,-0.02099609,-0.2631836,0.2133789
3760,104.1875,-144.125,-1.25,0.4077148,0.7080078,-0.6630859,-0.01513672,-0.2583008,0.2202148
3764,104,-127.5,-6.1875,0.4658203,0.7001953,-0.5092773,-0.004394531,-0.2519531,0.2280273
3768,90.125,-99.4375,-5.125,0.4658203,0.6923828,-0.4746094,0.005859375,-0.2431641,0.2333984
3772,77.875,-82.875,1.4375,0.2993164,0.5527344,-0.4785156,0.01074219,-0.2368164,0.237793
3776,63.4375,-66.8125,3.1875,0.3227539,0.6069336,-0.4360352,0.01513672,-0.2304688,0.2416992
3780,48.0625,-47.125,0.25,0.2373047,0.5800781,-0.359375,0.02001953,-0.2270508,0.2460938
3784,35.875,-28.25,-2.1875,0.1948242,0.4985352,-0.2900391,0.0234375,-0.2270508,0.2470703
3788,21.4375,-8.5,-3.25,0.2255859,0.5410156,-0.2939453,0.02587891,-0.2231445,0.2485352
3792,1.375,13.125,-4.9375,0.1015625,0.4516602,-0.4667969,0.02587891,-0.2207031,0.2514648
3796,-6.3125,15.0625,-12.125,-0.02587891,0.3623047,-0.628418,0.02490234,-0.2207031,0.25
3800,-6.9375,8.6875,-18.1875,-0.06835938,0.2963867,-0.6513672,0.02587891,-0.2216797,0.2514648
3804,-13,1.875,-14.75,0.07080078,0.284668,-0.6552734,0.02587891,-0.2231445,0.25
3808,-20,8.625,-7.1875,0.07861328,0.1992188,-0.6899414,0.02587891,-0.2231445,0.2485352
3812,-13.8125,15.375,-5.75,0.09375,0.1796875,-0.6787109,0.02587891,-0.2246094,0.2470703
3816,-8.0625,23.1875,-5.6875,0.04345703,0.1875,-0.6787109,0.0234375,-0.2270508,0.2470703
3820,-7.75,24.5625,-2.4375,0.07861328,0.2573242,-0.6513672,0.0234375,-0.2255859,0.2470703
3824,-14.0625,32.875,0.625,0.159668,0.3120117,-0.628418,0.02001953,-0.2280273,0.2470703
3828,-20.5625,46.125,0.375,0.206543,0.3896484,-0.6708984,0.01660156,-0.2270508,0.2460938
3832,-29.3125,61.6875,-3,0.140625,0.3740234,-0.7553711,0.01513672,-0.2319336,0.2446289
3836,-29.4375,61.4375,-5.6875,0.03564453,0.3310547,-0.7822266,0.01074219,-0.2304688,0.2416992
3840,-31.4375,57.625,-6.0625,0.07080078,0.3466797,-0.7094727,0.004394531,-0.234375,0.2431641
3844,-47.125,64.8125,-4.75,0.2915039,0.5527344,-0.7670898,0.002441406,-0.2358398,0.2431641
3848,-60.875,73.1875,-5.4375,0.04736328,0.3623047,-0.9091797,-0.003417969,-0.2382813,0.2363281
3852,-60,60.5625,-7.75,0.07861328,0.3740234,-0.9360352,-0.005859375,-0.2441406,0.2348633
3856,-61.6875,52.75,-6.6875,0.1054688,0.3779297,-0.8208008,-0.009277344,-0.2470703,0.2294922
3860,-77.1875,49.5625,-1.5625,0.3339844,0.5683594,-0.7363281,-0.01416016,-0.2519531,0.2255859
3865,-91.4375,62,2.625,0.3769531,0.4868164,-0.7363281,-0.01855469,-0.2583008,0.21875
3869,-94.8125,81.625,1,0.4506836,0.5097656,-0.8325195,-0.02001953,-0.2631836,0.2133789
3873,-87.3125,94.1875,-0.875,0.3188477,0.4399414,-0.84375,-0.02587891,-0.2695313,0.2089844
3877,-81.75,96.375,1.3125,0.3457031,0.5292969,-0.7900391,-0.03320313,-0.2783203,0.199707
3881,-83.0625,94.25,5.125,0.3999023,0.6499023,-0.644043,-0.03662109,-0.2792969,0.1943359
3885,-104.0625,111.4375,13.5625,0.6132813,0.8481445,-0.7094727,-0.04394531,-0.2856445,0.1889648
3889,-112.5,124.625,16.6875,0.4619141,0.7275391,-0.7285156,-0.05322266,-0.2905273,0.1762695
3893,-107.0625,127.5625,17.5,0.4580078,0.7275391,-0.7749023,-0.05664063,-0.2954102,0.1699219
3897,-95.5,124.75,14.6875,0.4697266,0.7739258,-0.6630859,-0.06640625,-0.3007813,0.1601563
3901,-100.625,134.9375,12.5625,0.5976563,0.9492188,-0.6669922,-0.07226563,-0.3041992,0.1508789
3905,-105.4375,138.4375,3.3125,0.527832,0.9453125,-0.5439453,-0.078125,-0.3081055,0.1396484
3909,-112.875,133.75,-2.3125,0.6401367,1.034668,-0.4208984,-0.08398438,-0.3129883,0.1259766
3913,-130.625,133.6875,3.375,0.7412109,1.09668,-0.2900391,-0.08886719,-0.3168945,0.1137695
3917,-155.5625,144.3125,17.6875,0.9311523,1.20166,-0.3129883,-0.09130859,-0.3217773,0.1030273
3921,-174.625,169.125,32.6875,0.8574219,0.9956055,-0.4975586,-0.09619141,-0.3242188,0.08398438
3925,-171.5625,188.9375,39.3125,0.7177734,0.8168945,-0.8286133,-0.1079102,-0.328125,0.06494141
3929,-134.25,179.8125,29.6875,0.3769531,0.5214844,-0.9287109,-0.1113281,-0.3305664,0.04882813
3933,-94.875,151.1875,7.5625,0.4311523,0.7666016,-0.7016602,-0.1152344,-0.3291016,0.03222656
3937,-108.5,127.1875,6.875,0.690918,1.162598,-0.3745117,-0.1176758,-0.3320313,0.02001953
3941,-155.8125,118.4375,22.5,0.8803711,1.236328,-0.2475586,-0.1162109,-0.3320313,0.006347656
3945,-179,118.625,39.1875,0.8071289,0.9492188,-0.3476563,-0.1176758,-0.3291016,-0.01220703
3949,-163.75,118.5625,38.625,0.8110352,0.7739258,-0.3823242,-0.1201172,-0.3256836,-0.02978516
3953,-135.5,122.625,35.9375,0.8378906,0.7236328,-0.3359375,-0.1220703,-0.3242188,-0.03955078
3957,-117.9375,130.6875,36.6875,0.9350586,0.890625,-0.1821289,-0.1235352,-0.3193359,-0.05712891
3961,-116.625,144.0625,36.875,1.000488,1.034668,-0.02441406,-0.1235352,-0.3154297,-0.07080078
3965,-125.3125,166.6875,28.6875,1.121094,1.228516,0.1826172,-0.1235352,-0.3129883,-0.08007813
3969,-131.9375,194.625,15.0625,1.105469,1.166504,0.2636719,-0.1201172,-0.3081055,-0.09912109
3973,-113.5625,209.5,4.625,1.035645,0.8710938,0.1635742,-0.1137695,-0.3041992,-0.112793
3977,-72.0625,232.0625,-3.125,1.13623,0.7236328,0.06347656,-0.1113281,-0.2993164,-0.1235352
3981,-44.1875,248.9375,-2.875,1.004395,0.7895508,-0.05126953,-0.1020508,-0.2983398,-0.1318359
3985,-34,238.625,2.4375,0.8110352,0.9257813,-0.09765625,-0.09130859,-0.296875,-0.1425781
3989,-44.625,210.875,7.8125,0.7255859,1.088867,-0.04736328,-0.08300781,-0.2929688,-0.1469727
3994,-65.5625,181.875,11,0.7797852,1.150879,0.05566406,-0.078125,-0.2905273,-0.1547852
3998,-79.8125,166.25,13.625,0.8222656,1.019043,0.07128906,-0.06982422,-0.2856445,-0.1645508
4002,-76.0625,156.8125,17.625,0.8110352,0.840332,0.02490234,-0.06738281,-0.2817383,-0.168457
4006,-62.75,151.4375,23.625,0.7680664,0.7587891,0.03271484,-0.06152344,-0.2783203,-0.1738281
4010,-45.3125,149.0625,26.8125,0.7294922,0.7739258,0.06347656,-0.05810547,-0.2719727,-0.1821289
4014,-32.8125,145.8125,23.25,0.6289063,0.7973633,0.06347656,-0.05419922,-0.2719727,-0.1821289
4018,-28.3125,133.6875,16.6875,0.574707,0.9140625,0.08642578,-0.04980469,-0.2680664,-0.1850586
4022,-33.1875,116.9375,12.5625,0.4892578,0.8789063,0.07128906,-0.04492188,-0.265625,-0.1904297
4026,-38.3125,99.0625,10.875,0.4697266,0.7973633,0.01367188,-0.04248047,-0.2641602,-0.1918945
4030,-33.875,81.5625,8.8125,0.4038086,0.6845703,-0.05126953,-0.03759766,-0.2631836,-0.1958008
4034,-27.4375,66.4375,4.0625,0.3613281,0.6845703,-0.04736328,-0.03662109,-0.2592773,-0.1987305
4038,-23.8125,46.3125,2.25,0.3032227,0.6616211,-0.03613281,-0.03417969,-0.2568359,-0.199707
4042,-18.5,26.25,4.5625,0.3227539,0.6069336,0.01367188,-0.03515625,-0.2583008,-0.1987305
4046,-9.9375,9.875,8.875,0.3149414,0.5253906,0.06347656,-0.03320313,-0.2558594,-0.2026367
4050,14.25,-19.9375,35.8125,0.2451172,0.315918,0.1020508,-0.03320313,-0.2583008,-0.2011719
4054,15,-13.9375,28.25,0.7060547,0.809082,0.355957,-0.03662109,-0.2543945,-0.2011719
4058,13.375,5.625,2.4375,0.559082,0.7739258,0.390625,-0.03759766,-0.2568359,-0.199707
4062,15.6875,6.9375,-14.9375,0.3496094,0.6186523,0.2827148,-0.03515625,-0.2583008,-0.1987305
4066,15.625,-12.8125,-11.375,0.3535156,0.6108398,0.2749023,-0.03662109,-0.2583008,-0.1987305
4070,11.8125,-24.4375,-2.75,0.3652344,0.5292969,0.2944336,-0.03417969,-0.2583008,-0.1972656
4074,17.875,-36.4375,5,0.3999023,0.4868164,0.2944336,-0.0390625,-0.2592773,-0.1972656
4078,23.5,-43.25,12,0.4389648,0.4946289,0.3134766,-0.0390625,-0.2592773,-0.1943359
4082,26.9375,-45.25,15.5625,0.5551758,0.6147461,0.4135742,-0.04394531,-0.2617188,-0.1904297
4086,27.6875,-37.1875,11.375,0.5629883,0.6499023,0.4482422,-0.04492188,-0.2631836,-0.1918945
4090,30.75,-34.625,5.125,0.4892578,0.6147461,0.375,-0.04736328,-0.265625,-0.1889648
4094,33.4375,-41.8125,10.0625,0.4350586,0.5722656,0.3251953,-0.04736328,-0.265625,-0.1850586
4098,33.1875,-54.0625,18.8125,0.4467773,0.6108398,0.2983398,-0.04980469,-0.2680664,-0.1835938
4102,34.125,-64.6875,23.8125,0.527832,0.7119141,0.3979492,-0.05322266,-0.2695313,-0.1835938
4106,29.5625,-67.5,26.4375,0.5708008,0.7431641,0.3979492,-0.05908203,-0.2705078,-0.1782227
4110,32.0625,-69.3125,27.5625,0.5820313,0.7158203,0.3481445,-0.06152344,-0.2719727,-0.1767578
4114,37.1875,-67.6875,24.375,0.6015625,0.7431641,0.2788086,-0.06640625,-0.2744141,-0.1738281
4118,45.5,-68.3125,20.5,0.5668945,0.7353516,0.1826172,-0.06982422,-0.2753906,-0.168457
4123,52,-80.25,23.25,0.5551758,0.7856445,0.09423828,-0.07226563,-0.2768555,-0.1660156
4127,46.875,-96.5,31.3125,0.6518555,0.9296875,0.1557617,-0.07714844,-0.2792969,-0.1606445
4131,30.0625,-110.0625,36.0625,0.7294922,1.06543,0.1904297,-0.08544922,-0.2807617,-0.1591797
4135,12.75,-110.0625,18.25,0.8574219,1.174316,0.3291016,-0.08789063,-0.2807617,-0.1547852
4139,5.375,-102.875,-8.3125,0.7602539,1.06543,0.2675781,-0.09375,-0.2832031,-0.1508789
4143,11.8125,-105.5625,-30.0625,0.6870117,0.8632813,0.1904297,-0.09619141,-0.2832031,-0.1494141
4147,27.375,-110.9375,-32.5625,0.7099609,0.6962891,0.1210938,-0.09716797,-0.2856445,-0.1455078
4151,39,-114,-23.4375,0.7490234,0.6962891,0.1098633,-0.09960938,-0.2895508,-0.1425781
4155,52.5625,-114.5,-15.625,0.7680664,0.6381836,-0.01318359,-0.1044922,-0.2919922,-0.1333008
4159,65.75,-108.75,-18.125,0.8457031,0.7739258,-0.001464844,-0.1044922,-0.2929688,-0.1289063
4163,75.375,-105.25,-23.875,0.7060547,0.7041016,-0.1206055,-0.1079102,-0.2993164,-0.1225586
4167,84.5,-113.625,-24.25,0.6870117,0.7470703,-0.1552734,-0.1079102,-0.3041992,-0.112793
4171,84.1875,-124.875,-17.3125,0.6362305,0.7587891,-0.1669922,-0.1103516,-0.3032227,-0.105957
4175,88.1875,-138.6875,-8.875,0.6132813,0.6225586,-0.309082,-0.1137695,-0.3081055,-0.09375
4179,100.5,-148.875,-3.1875,0.7915039,0.8168945,-0.2363281,-0.1162109,-0.3129883,-0.08544922
4183,95.5,-141.0625,-8.3125,0.7333984,0.6962891,-0.3129883,-0.1186523,-0.3154297,-0.07617188
4187,108.5,-152.8125,-7.125,0.8535156,0.8828125,-0.1860352,-0.1210938,-0.3168945,-0.06103516
4191,101.5,-145.6875,-7.875,0.8920898,0.8168945,-0.1821289,-0.1210938,-0.3193359,-0.04882813
4195,119.5,-153,-0.3125,0.6948242,0.5019531,-0.4438477,-0.1245117,-0.3217773,-0.03955078
4199,140.3125,-160.375,13.8125,1.008301,0.8051758,-0.3666992,-0.1259766,-0.3232422,-0.02294922
4203,117.125,-133,5.3125,1.322266,1.516113,-0.02441406,-0.1303711,-0.3232422,-0.006835938
4207,84.3125,-102.5625,-26.0625,0.9580078,1.306641,-0.05517578,-0.128418,-0.3242188,0.002441406
4211,85.125,-112.75,-39.5625,0.7602539,1.061523,-0.2246094,-0.1245117,-0.3242188,0.01464844
4215,62.5,-126.625,-17.5625,0.8110352,1.084961,-0.3359375,-0.1220703,-0.3256836,0.02539063
4219,44.75,-134.25,0,0.8300781,1.034668,-0.3359375,-0.1210938,-0.3242188,0.03222656
4223,51.375,-128,-12.625,0.8183594,0.840332,-0.3632813,-0.1201172,-0.3242188,0.04052734
4227,72.5625,-124.625,-18.875,0.7641602,0.7856445,-0.378418,-0.1176758,-0.3266602,0.05126953
4231,82.5,-117.5,-17.5,0.7954102,0.8286133,-0.3901367,-0.1137695,-0.3266602,0.05957031
4235,90.5625,-108.125,-22.8125,0.7680664,0.9643555,-0.378418,-0.112793,-0.3242188,0.0703125
4239,92.375,-97.4375,-29.4375,0.6171875,0.777832,-0.5244141,-0.1044922,-0.3232422,0.08105469
4243,100.5,-109.1875,-21,0.5551758,0.777832,-0.5825195,-0.1030273,-0.3242188,0.08935547
4247,107.625,-115.5625,-9.875,0.5009766,0.6225586,-0.6899414,-0.09716797,-0.3208008,0.1015625
4252,118,-120.3125,1.3125,0.578125,0.6459961,-0.7553711,-0.09228516,-0.3154297,0.1152344
4256,128,-125.1875,10.5625,0.5317383,0.6420898,-0.8129883,-0.09033203,-0.3129883,0.1235352
4260,138.1875,-122.375,7.5,0.5668945,0.7001953,-0.8325195,-0.08544922,-0.3081055,0.137207
4264,152.875,-123.6875,2.3125,0.4467773,0.6420898,-0.9438477,-0.08203125,-0.2993164,0.1533203
4268,172.25,-134.125,0.0625,0.3032227,0.5449219,-1.063477,-0.07714844,-0.2954102,0.1669922
4272,184.5625,-156.75,8.25,0.2685547,0.5566406,-1.166992,-0.06884766,-0.2856445,0.1821289
4276,184,-184.4375,32.1875,0.2646484,0.5292969,-1.197754,-0.05908203,-0.2729492,0.1982422
4280,172.75,-209.9375,51.625,0.3730469,0.6577148,-1.121094,-0.05322266,-0.2617188,0.2089844
4284,160.5625,-222.5,58.75,0.4272461,0.6694336,-1.032227,-0.04248047,-0.2519531,0.2241211
4288,146.5625,-224.9375,59,0.5512695,0.7275391,-0.894043,-0.02929688,-0.2392578,0.2363281
4292,122.125,-199.625,53.8125,0.7915039,0.921875,-0.6132813,-0.02001953,-0.2304688,0.2446289
4296,94.75,-157,41.3125,0.6362305,0.7666016,-0.4936523,-0.005859375,-0.2207031,0.25
4300,75.75,-122,24.375,0.4697266,0.6616211,-0.4863281,0.003417969,-0.2143555,0.2553711
4304,62.0625,-97.3125,10.75,0.3769531,0.5449219,-0.4863281,0.008300781,-0.2094727,0.2568359
4308,42.875,-76.5,9.875,0.2724609,0.4594727,-0.5439453,0.01660156,-0.2045898,0.2607422
4312,22.9375,-67.9375,16.0625,0.1445313,0.3232422,-0.5976563,0.02246094,-0.2006836,0.262207
4316,8.75,-62.375,22.75,0.09033203,0.2148438,-0.6552734,0.02246094,-0.2006836,0.2636719
4320,8.875,-57,23.25,0.1484375,0.203125,-0.6245117,0.02978516,-0.2006836,0.2607422
4324,10.625,-36.125,14.125,0.1870117,0.2495117,-0.59375,0.03173828,-0.2006836,0.2636719
4328,9.9375,-16.3125,0.8125,0.09765625,0.3081055,-0.6401367,0.03417969,-0.1982422,0.262207
4332,2.5,-3,-9.875,0.01660156,0.2768555,-0.7133789,0.03662109,-0.1982422,0.262207
4336,-4.8125,-3.4375,-7.6875,-0.02978516,0.1992188,-0.7324219,0.03808594,-0.1992188,0.2636719
4340,-11.0625,-3.625,-0.0625,0.01269531,0.140625,-0.7514648,0.03564453,-0.1982422,0.262207
4344,-14.3125,0.5625,6.4375,0.04345703,0.1523438,-0.7939453,0.03662109,-0.1982422,0.262207
4348,-15.625,9.25,11.1875,0.05517578,0.1953125,-0.840332,0.03417969,-0.1992188,0.262207
4352,-16.6875,15.625,10.8125,-0.006347656,0.21875,-0.8901367,0.03417969,-0.2006836,0.2607422
4356,-17.375,18.8125,7.75,-0.01806641,0.237793,-0.859375,0.03417969,-0.2016602,0.2607422
4360,-27.5,21.625,12.0625,0.05517578,0.2963867,-0.7861328,0.02978516,-0.2055664,0.2583008
4364,-41.8125,29.1875,21.6875,0.1171875,0.2807617,-0.7631836,0.02832031,-0.2070313,0.2568359
4368,-43.5625,40.1875,26.3125,0.1132813,0.2148438,-0.8208008,0.02490234,-0.2104492,0.2583008
4372,-32.4375,55.6875,22.875,0.06298828,0.1835938,-0.8862305,0.02148438,-0.2158203,0.2553711
4376,-25.3125,62.5625,19.875,0.01269531,0.2924805,-0.8862305,0.01513672,-0.2192383,0.2524414
4381,-29.1875,61.125,18.8125,-0.03710938,0.3193359,-0.8364258,0.009277344,-0.2192383,0.2539063
4385,-37.6875,56.5625,21.25,0.06298828,0.3544922,-0.7402344,0.003417969,-0.2216797,0.2514648
4389,-49.6875,66.125,23.25,0.2026367,0.4052734,-0.6938477,0,-0.2231445,0.2514648
4393,-54.4375,80.25,21.4375,0.1484375,0.3505859,-0.7939453,-0.006835938,-0.2294922,0.2470703
4397,-52.6875,81,18.125,0.07861328,0.3623047,-0.7783203,-0.01611328,-0.2319336,0.2431641
4401,-57.6875,81.375,12.9375,0.1557617,0.4165039,-0.7749023,-0.02001953,-0.2358398,0.2402344
4405,-58.9375,82.4375,10.5,0.2026367,0.4399414,-0.7939453,-0.02832031,-0.2407227,0.2363281
4409,-62.25,91.125,4.9375,0.109375,0.3466797,-1.001465,-0.03417969,-0.2456055,0.2333984
4413,-53.875,74,6.3125,0.008789063,0.3271484,-1.013184,-0.0390625,-0.2456055,0.230957
4417,-62,57.75,14.875,0.1791992,0.4516602,-0.7978516,-0.04492188,-0.2519531,0.2241211
4421,-75.5,53.5,21.6875,0.3535156,0.5019531,-0.5244141,-0.04980469,-0.2558594,0.21875
4425,-89.6875,74.0625,24.8125,0.6015625,0.5761719,-0.5131836,-0.05419922,-0.2607422,0.2143555
4429,-88.3125,102.3125,14.0625,0.4428711,0.5136719,-0.7670898,-0.05908203,-0.2670898,0.206543
4433,-72.75,102.875,4.1875,0.1948242,0.4555664,-0.8745117,-0.06884766,-0.2705078,0.199707
4437,-76.3125,87.9375,4.75,0.2797852,0.5800781,-0.6748047,-0.07226563,-0.2744141,0.1928711
4441,-98.6875,87.1875,10.5625,0.5859375,0.6962891,-0.559082,-0.078125,-0.2792969,0.1860352
4445,-104.375,91.6875,13.5,0.5048828,0.5761719,-0.5283203,-0.08544922,-0.2856445,0.175293
4449,-112.25,108.125,16.625,0.7177734,0.6811523,-0.6630859,-0.09033203,-0.2895508,0.1669922
4453,-98.8125,116.125,10.9375,0.4350586,0.5136719,-0.8208008,-0.09619141,-0.296875,0.15625
4457,-90.8125,118.125,9.375,0.559082,0.6655273,-0.8515625,-0.1020508,-0.3007813,0.144043
4461,-84.3125,109.3125,11.25,0.4311523,0.6264648,-0.7783203,-0.1054688,-0.3032227,0.1357422
4465,-95,101.0625,20.1875,0.7099609,0.8168945,-0.5629883,-0.112793,-0.3041992,0.1235352
4469,-111.625,104,31.3125,0.8183594,0.840332,-0.4091797,-0.1186523,-0.3095703,0.1137695
4473,-117.875,125.8125,35.4375,0.9350586,0.8286133,-0.5322266,-0.1220703,-0.3095703,0.105957
4477,-95,143.25,26.5,0.7568359,0.6845703,-0.7475586,-0.128418,-0.3120117,0.08935547
4481,-66.9375,152.625,17.5,0.625,0.7080078,-0.8823242,-0.1352539,-0.3144531,0.07714844
4485,-55.125,139.25,13.25,0.574707,0.890625,-0.7670898,-0.1376953,-0.3144531,0.06884766
4489,-80.3125,119.9375,19.1875,0.7021484,1.092773,-0.4667969,-0.1411133,-0.3144531,0.05664063
4493,-115.625,104.25,28.125,0.8920898,1.146973,-0.2089844,-0.1474609,-0.3144531,0.04589844
4497,-143.1875,103,35.4375,1.039551,1.06543,-0.109375,-0.1494141,-0.3144531,0.03222656
4501,-143.0625,123.5625,40.125,1.05127,0.7739258,-0.34375,-0.1533203,-0.3129883,0.01611328
4505,-104.6875,145.75,32.8125,0.9194336,0.6108398,-0.5439453,-0.1533203,-0.3120117,0
4510,-66.875,155.6875,27.8125,0.8652344,0.7158203,-0.5361328,-0.1567383,-0.3105469,-0.01074219
4514,-59,154.625,30.5,0.8261719,0.8945313,-0.4282227,-0.1591797,-0.3081055,-0.02148438
4518,-68.4375,142.3125,31.9375,0.8730469,1.034668,-0.2670898,-0.1582031,-0.3066406,-0.03515625
4522,-92.875,135.625,32.5,0.9853516,1.116211,-0.1054688,-0.1591797,-0.3056641,-0.04199219
4526,-106.5625,133,32.6875,0.9501953,0.921875,-0.1669922,-0.1616211,-0.3007813,-0.05859375
4530,-96,133.125,34.4375,0.9233398,0.7817383,-0.2475586,-0.1567383,-0.296875,-0.07324219
4534,-81.6875,138.75,32,0.9853516,0.8168945,-0.2246094,-0.1582031,-0.2944336,-0.07763672
4538,-63.625,145.5,27.5625,0.9736328,0.7431641,-0.1630859,-0.1567383,-0.2905273,-0.09375
4542,-46.9375,155.25,24.4375,1.082031,0.7856445,-0.01318359,-0.1542969,-0.2856445,-0.1044922
4546,-40.3125,168.375,23.125,1.113281,0.8208008,0.07519531,-0.1508789,-0.2841797,-0.1098633
4550,-40.6875,171.625,25,1.02002,0.824707,0.09423828,-0.1459961,-0.2807617,-0.1166992
4554,-44.3125,167.9375,26.9375,0.9462891,0.8286133,0.07128906,-0.1435547,-0.2792969,-0.1303711
4558,-46.5625,163.4375,24.75,0.8652344,0.8012695,0.03662109,-0.1411133,-0.2753906,-0.1333008
4562,-45.75,156.3125,20.4375,0.8769531,0.8286133,0.1367188,-0.1342773,-0.2719727,-0.144043
4566,-48.25,155.9375,16.375,0.9389648,0.8442383,0.2250977,-0.1293945,-0.2705078,-0.1508789
4570,-50.0625,156.75,12,0.9541016,0.8325195,0.3442383,-0.1245117,-0.2670898,-0.1577148
4574,-58.6875,159.8125,8.5625,0.9350586,0.8325195,0.3212891,-0.1201172,-0.2641602,-0.1674805
4578,-64.0625,153.6875,7.6875,0.8261719,0.7626953,0.2133789,-0.112793,-0.2592773,-0.1738281
4582,-64.25,145,8.75,0.7680664,0.6733398,0.1865234,-0.1079102,-0.2558594,-0.1821289
4586,-60.8125,139.4375,8.1875,0.8183594,0.7041016,0.2519531,-0.1044922,-0.2519531,-0.1875
4590,-55.6875,140.6875,2.125,0.8222656,0.6577148,0.2827148,-0.09619141,-0.2504883,-0.1928711
4594,-50.0625,140.1875,-1.5625,0.8071289,0.6459961,0.2558594,-0.09033203,-0.2480469,-0.1972656
4598,-46.4375,136.625,-0.75,0.7060547,0.6030273,0.144043,-0.08398438,-0.2416992,-0.2026367
4602,-42.625,125.5,3.375,0.59375,0.5449219,0.01708984,-0.078125,-0.2407227,-0.2080078
4606,-33.875,108.3125,6.5625,0.5048828,0.5214844,-0.06298828,-0.07568359,-0.2358398,-0.2119141
4610,-24.9375,92.6875,6.25,0.5048828,0.5253906,-0.07080078,-0.07226563,-0.2358398,-0.2148438
4614,-8.625,65.375,10.625,0.578125,0.5800781,0.06347656,-0.06884766,-0.2329102,-0.2163086
4618,-7.3125,76.8125,-3.5,0.5087891,0.6459961,0.009765625,-0.06494141,-0.2329102,-0.2177734
4622,0.8125,57.1875,-8.5625,0.2954102,0.4907227,-0.09375,-0.06152344,-0.2329102,-0.2177734
4626,4.625,28.625,-1.4375,0.2875977,0.4868164,-0.05908203,-0.05810547,-0.2329102,-0.2202148
4630,7.4375,2.75,7.375,0.3457031,0.4946289,0.1328125,-0.05664063,-0.234375,-0.2216797
4634,10.375,-14.5625,18.375,0.4233398,0.4594727,0.2905273,-0.05664063,-0.234375,-0.21875
4639,16.25,-21.1875,25.375,0.559082,0.4829102,0.409668,-0.05908203,-0.234375,-0.2177734
4643,24.4375,-10.5,17.0625,0.644043,0.5952148,0.5249023,-0.06054688,-0.234375,-0.2177734
4647,28.8125,0.75,4.5,0.4970703,0.5722656,0.4750977,-0.06298828,-0.2358398,-0.2148438
4651,31.25,-8,6.75,0.3613281,0.5332031,0.4287109,-0.06152344,-0.2368164,-0.2148438
4655,30.25,-18.625,8.25,0.3959961,0.6147461,0.3789063,-0.06054688,-0.2382813,-0.2119141
4659,25.5,-27.0625,4.625,0.3999023,0.6923828,0.3291016,-0.06396484,-0.2416992,-0.2080078
4663,18.75,-37.8125,-1.875,0.4233398,0.7119141,0.2519531,-0.06640625,-0.2407227,-0.206543
4667,12.9375,-49.375,-8.1875,0.4272461,0.7080078,0.1098633,-0.06738281,-0.2431641,-0.2080078
4671,12.875,-64.1875,-16.3125,0.4077148,0.6342773,-0.05908203,-0.07128906,-0.2431641,-0.206543
4675,22.6875,-85.25,-17.3125,0.4155273,0.5644531,-0.2089844,-0.07128906,-0.2470703,-0.2041016
4679,35.75,-106.25,-14.5,0.5009766,0.5761719,-0.2631836,-0.07324219,-0.2470703,-0.199707
4683,46.9375,-126.5,-10.25,0.578125,0.6264648,-0.2900391,-0.078125,-0.2495117,-0.1972656
4687,58.125,-143.375,-9.5,0.659668,0.6845703,-0.2475586,-0.08398438,-0.2543945,-0.1904297
4691,71.4375,-154.6875,-13.125,0.7412109,0.6923828,-0.2128906,-0.08886719,-0.2583008,-0.1865234
4695,90.4375,-154.5,-24.375,0.8959961,0.7705078,-0.1323242,-0.09375,-0.2617188,-0.1806641
4699,109.25,-154.25,-27.9375,0.8222656,0.7001953,-0.1513672,-0.09863281,-0.2680664,-0.1728516
4703,122.6875,-165.8125,-20.8125,0.8691406,0.8129883,-0.1362305,-0.1020508,-0.2729492,-0.1616211
4707,126.375,-178.5625,-12.8125,0.8457031,0.8481445,-0.1552734,-0.1069336,-0.2807617,-0.1508789
4711,124.9375,-194.3125,-5.875,1.035645,0.9760742,-0.0859375,-0.1137695,-0.2880859,-0.1347656
4715,117.375,-186.4375,-20,1.182617,1.100586,0.05957031,-0.1186523,-0.2895508,-0.1264648
4719,119,-183.875,-31.0625,1.121094,0.987793,0.02490234,-0.1201172,-0.2954102,-0.1113281
4723,126,-181,-38.25,1.209961,1.026855,0.1020508,-0.1235352,-0.3032227,-0.09765625
4727,125.25,-169.4375,-34.25,1.186523,0.9101563,0.01708984,-0.1259766,-0.3041992,-0.08544922
4731,132.4375,-182.8125,-10.875,0.9658203,0.7041016,-0.1245117,-0.1259766,-0.3095703,-0.07080078
4735,137.625,-211,26.0625,1.22168,0.855957,-0.02050781,-0.1303711,-0.3144531,-0.05029297
4739,123.0625,-194.9375,27.75,1.357422,1.088867,0.06347656,-0.1352539,-0.3154297,-0.03955078
4743,114.625,-170.5,8.375,1.477539,1.205566,0.1557617,-0.1411133,-0.3154297,-0.02294922
4747,114,-136.75,-14.375,1.217773,0.9916992,0.03271484,-0.1435547,-0.3168945,-0.006835938
4751,120.0625,-125.5,-16.5625,0.9931641,0.824707,-0.2167969,-0.1411133,-0.3178711,0.002441406
4755,130.5625,-130.8125,-6.9375,0.8842773,0.7119141,-0.4282227,-0.1401367,-0.3178711,0.02001953
4759,137.8125,-135.9375,14.4375,0.7993164,0.5839844,-0.6748047,-0.1376953,-0.3178711,0.03515625
4763,147.4375,-161.875,43.4375,0.7021484,0.5332031,-0.9091797,-0.1401367,-0.3129883,0.04736328
4768,155.8125,-184.375,52.25,0.9038086,0.8325195,-0.7861328,-0.1401367,-0.3095703,0.06787109
4772,148.6875,-168.375,29.9375,1.055176,1.019043,-0.6591797,-0.1391602,-0.3017578,0.08789063
4776,144,-155.25,14.5625,0.9619141,0.9760742,-0.6132813,-0.1367188,-0.2993164,0.1000977
4780,145.6875,-146,7.9375,0.8300781,0.8442383,-0.6630859,-0.1342773,-0.2944336,0.1206055
4784,148.625,-142.3125,10.3125,0.7875977,0.7895508,-0.7861328,-0.1269531,-0.2866211,0.1381836
4788,153.875,-150.3125,20.8125,0.644043,0.6655273,-0.9287109,-0.1259766,-0.2807617,0.1508789
4792,153.8125,-168.875,36.9375,0.5473633,0.6147461,-1.051758,-0.1201172,-0.2719727,0.1669922
4796,150.6875,-197.5,53.6875,0.5356445,0.5839844,-1.090332,-0.112793,-0.2631836,0.1845703
4800,142.9375,-214.5,64.3125,0.6635742,0.6538086,-1.097656,-0.1054688,-0.2543945,0.1953125
4804,136.375,-218.8125,62.9375,0.644043,0.6147461,-1.117188,-0.09619141,-0.2431641,0.2119141
4808,145.75,-220.125,55.125,0.6362305,0.4868164,-1.132324,-0.08398438,-0.2319336,0.2255859
4812,162.4375,-212.625,46.9375,0.6713867,0.4516602,-1.074707,-0.07470703,-0.2231445,0.2363281
4816,163.25,-197.9375,49,0.7099609,0.5644531,-1.020996,-0.06152344,-0.2070313,0.2514648
4820,143,-183.75,52.8125,0.6132813,0.6108398,-0.9863281,-0.04980469,-0.1958008,0.262207
4824,119.875,-177.0625,54.0625,0.5317383,0.5605469,-0.9633789,-0.04003906,-0.1870117,0.269043
4828,98.625,-166.125,52.6875,0.4892578,0.5214844,-0.9438477,-0.02587891,-0.1757813,0.2744141
4832,82.875,-153.8125,49.625,0.4580078,0.4868164,-0.9091797,-0.01269531,-0.1669922,0.2797852
4836,64.8125,-131.75,46.1875,0.3730469,0.4516602,-0.9052734,-0.005859375,-0.1606445,0.28125
4840,45.625,-114,37.6875,0.2646484,0.4907227,-0.9169922,0.002441406,-0.1557617,0.2851563
4844,19.3125,-98.5625,33.0625,0.140625,0.3662109,-0.8901367,0.01269531,-0.1533203,0.2851563
4848,1,-90.3125,39.1875,0.1445313,0.2148438,-0.8208008,0.01904297,-0.1508789,0.2841797
4852,8.375,-80.625,35.5,0.1289063,0.004882813,-0.7670898,0.02832031,-0.1518555,0.2841797
4856,37.8125,-66,21.6875,0.1367188,-0.02978516,-0.7441406,0.03417969,-0.1508789,0.2851563
4860,55.375,-48.9375,5.125,0.1054688,0.140625,-0.6821289,0.03564453,-0.1469727,0.2851563
4864,49.875,-34.6875,-3.9375,0.05517578,0.2729492,-0.6323242,0.04150391,-0.140625,0.2866211
4868,35.5625,-28.25,-9.25,-0.02978516,0.2729492,-0.5439453,0.04248047,-0.1367188,0.2880859
4872,19.1875,-25.6875,-8.3125,-0.02587891,0.2729492,-0.4746094,0.04638672,-0.1342773,0.2866211
4876,7.1875,-21.5,-7.1875,0.004882813,0.1835938,-0.4013672,0.04882813,-0.1318359,0.2880859
4880,-4.0625,-9.9375,-4.9375,0.08251953,0.203125,-0.3974609,0.05224609,-0.1333008,0.2866211
4884,-12.8125,4.375,-3.1875,-0.01806641,0.15625,-0.4477539,0.05078125,-0.1342773,0.2895508
4888,-16.5,10.875,-7.125,-0.08398438,0.1445313,-0.5209961,0.05224609,-0.1342773,0.2866211
4892,-13.125,17,-16.375,-0.04882813,0.171875,-0.4824219,0.04980469,-0.1357422,0.2880859
4897,-18.375,24.75,-22.375,-0.05664063,0.1835938,-0.5053711,0.05078125,-0.1367188,0.2880859
4901,-29.3125,31,-25.6875,-0.01025391,0.1679688,-0.5864258,0.04736328,-0.1396484,0.2866211
4905,-36.1875,36.25,-25.75,-0.02587891,0.05908203,-0.6787109,0.04492188,-0.140625,0.2910156
4909,-36.5,39.125,-22.0625,-0.01025391,0.02050781,-0.7592773,0.04394531,-0.1430664,0.2866211
4913,-37.5,41.6875,-16,-0.03710938,-0.01416016,-0.7978516,0.04052734,-0.1469727,0.2841797
4917,-36.625,43.25,-11.375,0.03173828,-0.006347656,-0.809082,0.03808594,-0.1508789,0.2851563
4921,-39.4375,57.3125,-11.125,0.1015625,0.02441406,-0.8823242,0.03564453,-0.1542969,0.2841797
4925,-31.5,69.1875,-16.125,0.07470703,0.04003906,-0.8901367,0.02832031,-0.1542969,0.2841797
4929,-32.5625,83.125,-23.8125,0.04736328,0.1523438,-0.9360352,0.02246094,-0.1582031,0.2827148
4933,-38.375,77.625,-27.75,-0.03710938,0.1601563,-0.9248047,0.01757813,-0.1591797,0.2827148
4937,-50.8125,75.75,-25.875,0.1518555,0.1953125,-0.824707,0.01074219,-0.1655273,0.28125
4941,-63.6875,85.6875,-20.4375,0.2915039,0.2416992,-0.6748047,0.004394531,-0.1679688,0.2797852
4945,-93.5625,111,-17.375,0.3457031,0.3779297,-0.7631836,-0.0009765625,-0.1743164,0.2797852
4949,-113.25,114.5,-9.5625,0.140625,0.2456055,-0.8632813,-0.01025391,-0.1845703,0.2729492
4953,-126.125,104.1875,-0.375,0.2216797,0.2768555,-0.809082,-0.01855469,-0.1933594,0.2651367
4957,-130.25,97.75,4.0625,0.2993164,0.2885742,-0.6552734,-0.0234375,-0.203125,0.2607422
4961,-141.125,120.125,0.625,0.6635742,0.5332031,-0.6669922,-0.03417969,-0.2143555,0.2539063
4965,-147.1875,150.375,1.875,0.4736328,0.3232422,-0.8632813,-0.04492188,-0.2270508,0.2446289
4969,-141.1875,161.875,3.875,0.3808594,0.3701172,-1.121094,-0.05078125,-0.2329102,0.2363281
4973,-125.25,149.75,0.875,-0.01806641,0.2226563,-1.263184,-0.06640625,-0.2416992,0.2241211
4977,-98.8125,107.8125,-16.1875,-0.1459961,0.2338867,-1.178711,-0.07470703,-0.2519531,0.2119141
4981,-82.75,68.6875,-32.6875,0.1713867,0.4946289,-0.9672852,-0.07958984,-0.2583008,0.2089844
4985,-105,65.75,-31.4375,0.4736328,0.7197266,-0.894043,-0.08300781,-0.2641602,0.2011719
4989,-125.75,65.6875,-34.0625,0.3959961,0.6030273,-0.9555664,-0.08203125,-0.2729492,0.1899414
4993,-122.8125,61.5,-30.8125,0.5009766,0.4594727,-0.9091797,-0.08300781,-0.2768555,0.1860352
4997,-106.4375,69.625,-15.5,0.644043,0.3505859,-0.7978516,-0.08300781,-0.2856445,0.1708984
5001,-88.375,79.1875,6.875,0.8222656,0.4907227,-0.5898438,-0.08789063,-0.2905273,0.1616211
5005,-83.3125,118.0625,24.5625,1.047363,0.6962891,-0.6132813,-0.09228516,-0.2944336,0.1547852
5009,-70.5625,151.625,23.25,0.6982422,0.6733398,-0.8286133,-0.1010742,-0.2983398,0.1464844
5013,-56.125,159.0625,12.4375,0.5976563,0.824707,-0.9863281,-0.109375,-0.2993164,0.1342773
5017,-54.75,150.875,4.3125,0.4775391,0.9453125,-0.8901367,-0.1152344,-0.3017578,0.1274414
5021,-76.6875,127.375,2.25,0.6054688,1.162598,-0.5898438,-0.1210938,-0.3032227,0.1181641
5026,-119.875,112.6875,11.8125,0.9350586,1.325684,-0.2514648,-0.1259766,-0.3066406,0.105957
5030,-164.9375,133.5,21.8125,1.140137,1.217285,-0.324707,-0.128418,-0.3105469,0.09326172
5034,-151.9375,155.5625,18.375,1.039551,0.7548828,-0.4785156,-0.1318359,-0.3120117,0.07421875
5038,-110.5625,182.875,9.4375,1.016113,0.6381836,-0.5898438,-0.1391602,-0.3144531,0.05664063
5042,-77.1875,194.1875,3.75,0.9541016,0.7587891,-0.5014648,-0.1401367,-0.3154297,0.04443359
5046,-81.0625,193.9375,5.875,1.02002,1.057617,-0.2397461,-0.1425781,-0.3154297,0.02978516
5050,-112.1875,185.3125,14.375,1.012207,1.162598,-0.109375,-0.1435547,-0.3168945,0.01318359
5054,-140.4375,169.625,31.625,1.035645,1.069336,-0.07470703,-0.1459961,-0.3144531,0
5058,-148.6875,172.625,39.875,1.113281,0.9023438,-0.2128906,-0.1459961,-0.3129883,-0.02050781
5062,-127.375,180.125,36.4375,1.035645,0.7895508,-0.2900391,-0.1508789,-0.3120117,-0.03808594
5066,-103.8125,190.125,29.5625,1.074219,0.8325195,-0.2592773,-0.1494141,-0.3066406,-0.04882813
5070,-90.3125,200.6875,20.75,1.027832,0.8789063,-0.2089844,-0.1484375,-0.3041992,-0.06640625
5074,-89.875,196,20.8125,0.9931641,0.953125,-0.1899414,-0.1459961,-0.3007813,-0.08007813
5078,-99.625,186.4375,27.875,0.9736328,0.9140625,-0.2016602,-0.1411133,-0.2993164,-0.08984375
5082,-97,179.3125,32.3125,1.000488,0.824707,-0.34375,-0.1401367,-0.2929688,-0.105957
5086,-82.3125,178.9375,29.5,0.8261719,0.7001953,-0.5708008,-0.1352539,-0.2880859,-0.1210938
5090,-58.875,160.9375,23.4375,0.7216797,0.7158203,-0.6591797,-0.1318359,-0.2866211,-0.1279297
5094,-48.9375,137.9375,22.75,0.6479492,0.7587891,-0.6245117,-0.128418,-0.2817383,-0.1357422
5098,-44.8125,109.375,22.625,0.659668,0.7739258,-0.5629883,-0.1235352,-0.2783203,-0.1455078
5102,-41.8125,82.8125,27.5625,0.6557617,0.7080078,-0.4667969,-0.1235352,-0.2744141,-0.1484375
5106,-40.8125,60.9375,38.4375,0.7294922,0.6845703,-0.3823242,-0.1220703,-0.2719727,-0.1547852
5110,-33.375,54.25,36.6875,0.8110352,0.7001953,-0.2475586,-0.1220703,-0.2695313,-0.1577148
5114,-19.5,54.375,24.5625,0.7641602,0.6733398,-0.1513672,-0.1210938,-0.265625,-0.1591797
5118,-7.4375,49.875,17.625,0.7412109,0.6577148,-0.09375,-0.1210938,-0.2641602,-0.1630859
5122,0.0625,47.3125,12.625,0.7138672,0.6381836,-0.005371094,-0.1201172,-0.2641602,-0.1660156
