Packet number,Gyroscope X (deg/s),Gyroscope Y (deg/s),Gyroscope Z (deg/s),Accelerometer X (g),Accelerometer Y (g),Accelerometer Z (g),Magnetometer X (G),Magnetometer Y (G),Magnetometer Z (G)
3,-67.625,-42.25,11.0625,-0.7695313,0.809082,-0.4208984,0.1713867,-0.296875,0.0703125
7,-75.25,-61.625,13.4375,-0.7851563,0.8632813,-0.5209961,0.1699219,-0.2993164,0.06201172
11,-85.25,-70.9375,4.1875,-0.6342773,0.7353516,-0.5898438,0.1713867,-0.3017578,0.05517578
15,-82.8125,-64.625,-8.3125,-0.5795898,0.7041016,-0.6552734,0.1738281,-0.3032227,0.04296875
19,-80,-61.3125,-11.25,-0.6069336,0.809082,-0.6171875,0.1757813,-0.3032227,0.03515625
23,-80.1875,-63.6875,-1.3125,-0.5991211,0.8945313,-0.5439453,0.1772461,-0.3032227,0.02978516
27,-82.0625,-66.25,14,-0.6264648,1.112305,-0.4902344,0.1757813,-0.3081055,0.01708984
31,-97.875,-65.0625,19.125,-0.5292969,1.088867,-0.4746094,0.1748047,-0.3066406,0.0078125
35,-112.0625,-46.8125,29.9375,-0.4443359,0.9995117,-0.7207031,0.1772461,-0.3095703,0
39,-114.5,-15.0625,21.625,-0.4750977,0.855957,-0.7861328,0.1738281,-0.3105469,-0.01074219
43,-107.125,-5.25,18.875,-0.6650391,0.9335938,-0.8017578,0.1713867,-0.3129883,-0.01904297
47,-94.4375,-16.8125,26.625,-0.6264648,0.9140625,-0.6821289,0.1699219,-0.3120117,-0.02587891
51,-79.5,-20.75,48.125,-0.4482422,0.8710938,-0.7207031,0.1674805,-0.3144531,-0.03369141
55,-67.4375,-1.5,62.25,-0.3354492,0.824707,-0.6899414,0.1650391,-0.3154297,-0.03955078
59,-69.75,22.4375,63.3125,-0.4052734,0.8671875,-0.7709961,0.1582031,-0.3193359,-0.04199219
63,-69.125,44.1875,47.125,-0.4907227,0.7001953,-0.6821289,0.1533203,-0.3217773,-0.04882813
67,-60.875,45,32.0625,-0.5952148,0.6733398,-0.6171875,0.1523438,-0.3232422,-0.05175781
72,-48.625,33.125,24,-0.6689453,0.6772461,-0.5014648,0.1499023,-0.3217773,-0.05029297
76,-35.25,16.3125,22.6875,-0.5527344,0.5683594,-0.4707031,0.1484375,-0.3232422,-0.05566406
80,-20.5,11.4375,20.125,-0.5063477,0.5878906,-0.4707031,0.1484375,-0.3256836,-0.05712891
84,-20.25,9.625,7.1875,-0.4750977,0.5878906,-0.4360352,0.1474609,-0.3232422,-0.05859375
88,-13.25,4.5,-1.75,-0.5332031,0.5566406,-0.4208984,0.1459961,-0.3242188,-0.05957031
92,-4.25,-6.875,-8.3125,-0.5371094,0.5410156,-0.394043,0.1459961,-0.3232422,-0.05957031
96,2.0625,-17.5,-15.125,-0.5063477,0.6962891,-0.3901367,0.1459961,-0.3242188,-0.05957031
100,5.1875,-18.75,-16.9375,-0.3862305,0.7197266,-0.324707,0.1474609,-0.3217773,-0.06103516
104,9,-12.625,-6.4375,-0.3320313,0.793457,-0.3286133,0.1484375,-0.3217773,-0.05957031
108,10.5625,0.8125,5.1875,-0.347168,0.840332,-0.3476563,0.1499023,-0.3217773,-0.05957031
112,9,12.1875,8.875,-0.4672852,0.8632813,-0.3862305,0.1499023,-0.3217773,-0.05957031
116,15.5625,12.3125,11.875,-0.5756836,0.8325195,-0.4936523,0.1474609,-0.3217773,-0.05859375
120,28.375,9.3125,12,-0.6376953,0.8481445,-0.5478516,0.1474609,-0.3232422,-0.05712891
124,34.9375,7.25,8.4375,-0.6494141,0.9375,-0.6748047,0.1459961,-0.3242188,-0.05566406
128,38.125,15.75,-1.375,-0.5834961,0.840332,-0.7749023,0.1459961,-0.3256836,-0.05175781
132,48.125,29.625,-2.4375,-0.5874023,0.7666016,-0.9248047,0.1459961,-0.3242188,-0.04638672
136,63.9375,44.0625,-6.5,-0.5991211,0.6694336,-1.01709,0.1474609,-0.3256836,-0.04052734
140,84.5,50.875,-7.75,-0.7270508,0.8168945,-1.020996,0.1459961,-0.3266602,-0.03271484
144,89.875,54.5625,-17.25,-0.7036133,0.8632813,-1.051758,0.1499023,-0.3256836,-0.02734375
148,92.75,74.4375,-37.25,-0.6376953,0.855957,-1.066895,0.1523438,-0.3232422,-0.01757813
152,97.4375,94.125,-48.3125,-0.6806641,0.7705078,-1.078613,0.1557617,-0.3232422,-0.00390625
156,117.375,97.25,-46.1875,-0.78125,0.7856445,-0.859375,0.1582031,-0.3193359,0.00390625
160,131.125,86,-38.9375,-0.7929688,0.921875,-0.6552734,0.1630859,-0.3144531,0.02001953
164,130.75,84.6875,-40.875,-0.7348633,0.9453125,-0.6323242,0.1640625,-0.3129883,0.03759766
168,130.875,89.375,-46.25,-0.715332,0.8286133,-0.6787109,0.1650391,-0.3095703,0.04443359
172,142.5625,90.6875,-42.0625,-0.699707,0.7119141,-0.7514648,0.1674805,-0.3032227,0.06103516
176,155.6875,94.375,-29.8125,-0.6030273,0.6962891,-0.8710938,0.1674805,-0.2954102,0.07714844
180,167.125,102.5,-23.75,-0.6845703,0.7973633,-0.9052734,0.1665039,-0.2919922,0.08935547
184,175.5625,105.125,-21.5,-0.5952148,0.5214844,-1.063477,0.1665039,-0.2841797,0.1069336
188,206,106.5,-8.9375,-0.5952148,0.4985352,-1.416992,0.1640625,-0.2753906,0.1289063
192,239.5625,123.8125,-5.875,-0.4130859,0.3232422,-1.678711,0.1616211,-0.2680664,0.1396484
196,283.0625,144.9375,9.9375,-0.4946289,0.4516602,-1.878906,0.1547852,-0.2529297,0.1640625
201,295.0625,173.3125,-5.3125,-0.5722656,1.088867,-1.705566,0.1450195,-0.2358398,0.1914063
205,268.5,209.9375,-23.6875,-0.5834961,1.069336,-1.628906,0.1376953,-0.2207031,0.2080078
209,259.1875,248.75,-29.3125,-0.4672852,0.6147461,-1.863281,0.1235352,-0.1992188,0.2294922
213,311.4375,275,-7.875,-0.699707,0.3544922,-1.793945,0.1010742,-0.1743164,0.2553711
217,368.1875,253.875,28.25,-1.001953,0.9643555,-1.274902,0.08789063,-0.1533203,0.2705078
221,308.1875,223.625,-3.1875,-1.265625,2.07959,-0.5361328,0.06396484,-0.1166992,0.2880859
225,175.75,179.625,-75.3125,-1.253906,1.535645,0.2133789,0.04736328,-0.09179688,0.2963867
229,134.5625,88,-68.9375,-0.9985352,0.4282227,0.2944336,0.03808594,-0.08056641,0.300293
233,150.5,3.1875,-28,-0.215332,0.1796875,0.2094727,0.03173828,-0.06445313,0.3017578
237,132.625,-17.8125,12.9375,0.2915039,0.5371094,0.1674805,0.03173828,-0.04931641,0.3017578
241,77.0625,2.625,24.625,0.5126953,0.6845703,0.2788086,0.03320313,-0.04443359,0.3032227
245,4.3125,30.375,15.5,0.2954102,0.3427734,0.08642578,0.03076172,-0.03808594,0.3017578
249,-18.75,34.75,4.4375,0.1132813,-0.2314453,-0.09765625,0.02978516,-0.03710938,0.3041992
253,-14.0625,6.625,2.375,-0.1728516,-0.2470703,-0.1899414,0.02587891,-0.03808594,0.3056641
257,-9.5,-23.375,4.375,-0.1303711,-0.1928711,-0.1435547,0.02587891,-0.03955078,0.3041992
261,-23.4375,-46.6875,4.4375,-0.02197266,-0.08007813,-0.3012695,0.02832031,-0.04199219,0.3056641
265,-32.5625,-50.125,7.875,0.1328125,-0.1538086,-0.4091797,0.03320313,-0.04443359,0.3056641
269,-45.4375,-46.0625,8.625,0.1367188,-0.1230469,-0.5629883,0.04052734,-0.04931641,0.3032227
273,-52.8125,-38.125,5.125,0.1171875,-0.1308594,-0.7133789,0.04248047,-0.05322266,0.300293
277,-57.0625,-36.25,9,0.04736328,-0.06054688,-0.7016602,0.04394531,-0.05810547,0.3017578
281,-66.75,-41.5,13.8125,0.008789063,-0.01416016,-0.809082,0.04736328,-0.06445313,0.2988281
285,-68.8125,-39.3125,15.3125,-0.01416016,-0.06054688,-0.840332,0.05078125,-0.06933594,0.2988281
289,-77.375,-40.875,15.5625,-0.04882813,-0.02978516,-0.9863281,0.05322266,-0.07714844,0.2973633
293,-78.6875,-38.9375,12.875,-0.06054688,-0.01416016,-0.9555664,0.05810547,-0.08544922,0.2949219
297,-84.75,-48.125,17.5625,-0.1030273,0.1601563,-0.7978516,0.06152344,-0.09179688,0.2919922
301,-100.4375,-60.625,27.5625,-0.1806641,0.3974609,-0.7861328,0.06396484,-0.1005859,0.2910156
305,-118,-61.625,19.5,-0.1108398,-0.006347656,-1.01709,0.06884766,-0.1108398,0.2880859
309,-108.1875,-61.8125,18.5,-0.262207,0.0009765625,-1.08252,0.07617188,-0.1220703,0.2827148
313,-99.3125,-76,17.1875,-0.3354492,0.1992188,-0.7514648,0.08056641,-0.1308594,0.2797852
317,-110.25,-104.875,25,-0.4091797,0.5722656,-0.5439453,0.08544922,-0.140625,0.2729492
321,-131.0625,-124.875,34.25,-0.2929688,0.6616211,-0.5361328,0.09375,-0.1533203,0.2675781
325,-162,-119.4375,32.4375,-0.1264648,0.4946289,-1.036133,0.1010742,-0.1621094,0.2592773
330,-156,-92.4375,29.75,-0.1767578,0.5605469,-0.9399414,0.1079102,-0.1806641,0.2485352
334,-182.6875,-75.9375,33.5625,-0.1728516,0.5952148,-0.9516602,0.1142578,-0.1943359,0.237793
338,-177.1875,-83.375,44.625,-0.5795898,0.7080078,-0.6899414,0.1166992,-0.2045898,0.230957
342,-185.0625,-124.1875,62.5,-0.6767578,0.8129883,-0.6171875,0.1210938,-0.2231445,0.2202148
346,-195.8125,-141.625,74.625,-0.5410156,0.8710938,-0.9477539,0.1259766,-0.2368164,0.199707
350,-195.9375,-115.75,56.9375,-0.4091797,0.3466797,-1.078613,0.128418,-0.2480469,0.1875
354,-175.0625,-113.4375,57.875,-0.6884766,0.6538086,-0.9746094,0.1333008,-0.265625,0.1723633
358,-169.9375,-126,52.1875,-0.6650391,0.9414063,-0.6362305,0.1357422,-0.2753906,0.1547852
362,-181.125,-133.5625,53,-0.5292969,1.189941,-0.6748047,0.1367188,-0.2832031,0.144043
366,-192.625,-111.25,57.375,-0.3823242,1.026855,-0.824707,0.1401367,-0.2944336,0.1235352
370,-199.9375,-89.625,50.375,-0.4672852,0.7353516,-1.155762,0.1376953,-0.3066406,0.1000977
374,-170.6875,-89.75,48.3125,-0.7114258,0.7392578,-1.024902,0.1367188,-0.3144531,0.08789063
378,-154.6875,-115.25,60.1875,-0.6767578,1.12793,-0.7441406,0.1357422,-0.3217773,0.06787109
382,-162,-112.9375,69.3125,-0.4248047,1.236328,-0.6860352,0.1333008,-0.3266602,0.04980469
386,-170.4375,-87.9375,77.875,-0.347168,1.213379,-0.7709961,0.128418,-0.3320313,0.0390625
390,-176.875,-57.4375,71.875,-0.4287109,0.9023438,-0.9399414,0.1225586,-0.3378906,0.01855469
394,-165.1875,-43.75,62.9375,-0.5952148,0.9023438,-0.9360352,0.1176758,-0.3408203,0.002441406
398,-150.4375,-43.4375,51.5,-0.7036133,0.9296875,-0.7749023,0.112793,-0.3417969,-0.005371094
402,-138.5625,-57.3125,48.4375,-0.7036133,1.100586,-0.6323242,0.1079102,-0.3432617,-0.02148438
406,-135.25,-60.5625,46,-0.5683594,1.073242,-0.6977539,0.105957,-0.3457031,-0.03662109
410,-125.5625,-48.4375,47.375,-0.4868164,0.972168,-0.6748047,0.1010742,-0.3442383,-0.04638672
414,-121.8125,-34.3125,37.5,-0.5102539,0.9995117,-0.574707,0.09619141,-0.3442383,-0.05859375
418,-117.6875,-31.6875,30.3125,-0.6108398,1.077148,-0.378418,0.09130859,-0.3457031,-0.07177734
422,-119.375,-38.4375,22.3125,-0.5527344,1.182129,-0.2783203,0.09277344,-0.3417969,-0.07861328
426,-117.5625,-38.875,27.875,-0.5102539,1.116211,-0.2475586,0.08691406,-0.3408203,-0.09082031
430,-112.375,-42.75,33.875,-0.4868164,1.09668,-0.2285156,0.08447266,-0.3393555,-0.1020508
434,-107.3125,-39.5625,33.0625,-0.4711914,1.077148,-0.109375,0.08056641,-0.3369141,-0.1074219
438,-110.375,-42.8125,30.1875,-0.4868164,1.166504,-0.01660156,0.07714844,-0.3330078,-0.1196289
442,-113.3125,-45.5625,27.125,-0.5253906,1.197754,0.03271484,0.07373047,-0.3320313,-0.1264648
446,-120.9375,-52.6875,24.125,-0.4829102,1.100586,-0.03222656,0.06982422,-0.3291016,-0.137207
450,-108.125,-61.9375,31.0625,-0.5410156,0.90625,-0.2167969,0.06542969,-0.3242188,-0.1469727
454,-84.375,-64.5,33,-0.4985352,0.8520508,-0.2861328,0.06054688,-0.3208008,-0.15625
459,-73.6875,-58.75,31.5625,-0.3974609,0.9643555,-0.394043,0.05712891,-0.3168945,-0.1606445
463,-57.625,-31.5,52.875,-0.1845703,0.4477539,-0.5864258,0.05224609,-0.3144531,-0.1699219
467,-81.75,11.625,3.75,-0.4482422,1.088867,-0.6513672,0.04736328,-0.3129883,-0.175293
471,-60.0625,14.0625,-6.75,-0.4946289,0.5253906,-0.5283203,0.05078125,-0.3095703,-0.1767578
475,-30.1875,5.75,-9.3125,-0.4555664,0.6420898,-0.4091797,0.05322266,-0.3056641,-0.1821289
479,-14.5,-3.375,-9.9375,-0.3706055,0.7587891,-0.2744141,0.05224609,-0.3041992,-0.1821289
483,1.0625,-7.375,-3.0625,-0.2583008,0.7705078,-0.1782227,0.05322266,-0.3041992,-0.1850586
487,9.25,-3.25,-1.6875,-0.2001953,0.875,-0.1938477,0.0546875,-0.3041992,-0.1821289
491,12.1875,11.5625,-4.375,-0.2080078,0.8867188,-0.2128906,0.0546875,-0.3056641,-0.1835938
495,14.5,21.1875,-9.8125,-0.3203125,0.855957,-0.2861328,0.05322266,-0.3056641,-0.1821289
499,27.6875,25.5625,-17.375,-0.4169922,0.7626953,-0.3359375,0.05566406,-0.3066406,-0.1806641
503,46.3125,17.5,-22.125,-0.5253906,0.793457,-0.4130859,0.05957031,-0.3081055,-0.175293
507,64.875,12.75,-28.375,-0.4633789,0.8364258,-0.4936523,0.06054688,-0.3105469,-0.1728516
511,85.25,18.0625,-31.125,-0.4248047,0.8286133,-0.5629883,0.06298828,-0.3129883,-0.1699219
515,98.8125,38.125,-39.25,-0.3432617,1.019043,-0.5976563,0.06542969,-0.3168945,-0.1606445
519,87.6875,60.625,-63.875,-0.4750977,1.150879,-0.6171875,0.07128906,-0.3193359,-0.1547852
523,94.1875,73.875,-79.0625,-0.5756836,0.9956055,-0.644043,0.07861328,-0.3242188,-0.1455078
527,113.3125,63.25,-91.75,-0.8125,0.8828125,-0.5361328,0.08691406,-0.3242188,-0.1357422
531,147.75,36.6875,-89.8125,-0.8237305,0.8710938,-0.4208984,0.09521484,-0.3242188,-0.1279297
535,178.9375,26.125,-76.125,-0.5292969,0.987793,-0.2553711,0.1035156,-0.3266602,-0.1113281
539,177.625,50,-67.25,-0.3393555,1.458008,-0.1552734,0.109375,-0.3320313,-0.09765625
543,139.875,83.0625,-74.4375,-0.3935547,1.508301,-0.1630859,0.1152344,-0.3305664,-0.08691406
547,124.8125,99.5625,-80.4375,-0.6030273,1.124023,-0.2285156,0.125,-0.3320313,-0.07177734
551,131.6875,99.125,-72.75,-0.6030273,0.840332,-0.4208984,0.1333008,-0.3305664,-0.05957031
555,154.3125,102.5625,-59.625,-0.6225586,0.7705078,-0.6132813,0.1391602,-0.3291016,-0.04638672
559,180.4375,102.5,-40.3125,-0.6494141,0.8051758,-0.6977539,0.144043,-0.3291016,-0.02587891
563,180.8125,94.125,-46.625,-0.6728516,1.158691,-0.6479492,0.1474609,-0.3256836,-0.006835938
567,176.875,112.375,-49.4375,-0.4790039,1.088867,-0.6669922,0.1508789,-0.3256836,0.006347656
571,168.4375,126.5,-41.875,-0.4208984,0.9375,-0.878418,0.1523438,-0.3178711,0.02392578
575,170.6875,152.4375,-30.9375,-0.6416016,0.9453125,-1.001465,0.1547852,-0.3144531,0.04882813
579,191.8125,157.375,-8.8125,-0.6376953,0.7236328,-1.197754,0.1533203,-0.3105469,0.06103516
583,207.75,165.0625,-15.5625,-0.878418,0.9956055,-1.290039,0.1499023,-0.3056641,0.08691406
588,215.5625,157.625,-29.8125,-0.9516602,1.015137,-1.15918,0.1450195,-0.296875,0.1123047
592,199.3125,160.125,-48.375,-0.8818359,1.291016,-1.097656,0.1450195,-0.2880859,0.1274414
596,198.125,188.75,-46.375,-0.6923828,0.7119141,-1.228516,0.1391602,-0.2753906,0.1494141
600,218.875,182.125,-33,-0.9868164,0.8325195,-1.259277,0.1333008,-0.2617188,0.1708984
604,241.6875,166.125,-18.6875,-0.8974609,1.015137,-1.094238,0.1269531,-0.2504883,0.1889648
608,227.1875,164,-35.0625,-0.8935547,1.189941,-0.9399414,0.1176758,-0.2329102,0.2080078
612,205.5625,151.0625,-48.4375,-0.9052734,1.209473,-0.6821289,0.1118164,-0.2128906,0.2270508
616,182.375,142.3125,-50.8125,-0.7734375,1.04248,-0.6015625,0.1020508,-0.2045898,0.2392578
620,167.0625,133.5625,-54.25,-0.5102539,0.5097656,-0.8515625,0.09277344,-0.1855469,0.2514648
624,176.0625,123.5625,-44,-0.5722656,0.5292969,-0.9555664,0.08691406,-0.1679688,0.262207
628,180.6875,119.125,-39.125,-0.4443359,0.3583984,-0.7978516,0.07861328,-0.1557617,0.2705078
632,172.5,109.25,-42.875,-0.3935547,0.3779297,-0.6708984,0.06982422,-0.1381836,0.2783203
636,156.5,102.125,-48.0625,-0.3320313,0.4868164,-0.6132813,0.06396484,-0.1206055,0.2880859
640,135.75,86,-48.875,-0.2773438,0.4790039,-0.4902344,0.05712891,-0.109375,0.293457
644,118.4375,72.3125,-44.8125,-0.1225586,0.2338867,-0.4208984,0.04882813,-0.09570313,0.2963867
648,104.375,52.875,-35.0625,-0.05273438,0.2265625,-0.3359375,0.04248047,-0.08300781,0.300293
652,89.5,34.1875,-26.6875,0.01269531,0.203125,-0.1860352,0.04150391,-0.07421875,0.300293
656,64.0625,12,-23.125,0.1171875,0.203125,-0.1323242,0.03808594,-0.06835938,0.3017578
660,37,4.5625,-22.0625,0.2216797,0.1796875,-0.1977539,0.03808594,-0.06054688,0.3032227
664,15.125,9.625,-18.5625,0.2993164,0.140625,-0.2670898,0.03662109,-0.05810547,0.3041992
668,-3.5625,11,-13.875,0.2954102,-0.002441406,-0.3554688,0.03662109,-0.05712891,0.3041992
672,-10.5625,1.1875,-9.125,0.1831055,-0.1230469,-0.4360352,0.03662109,-0.05810547,0.3056641
676,-9.125,-17.5625,-1.6875,0.09765625,-0.07617188,-0.5131836,0.03564453,-0.05810547,0.3017578
680,-11.8125,-32.625,-4.8125,0.1367188,-0.1191406,-0.6513672,0.0390625,-0.05810547,0.3032227
684,-12.1875,-38.5625,-8.5625,0.2333984,-0.1538086,-0.7939453,0.04150391,-0.06201172,0.3017578
688,-15.4375,-32,-4.8125,0.3457031,0.02832031,-0.7900391,0.04492188,-0.06054688,0.3017578
692,-30.9375,-24.0625,3.75,0.3574219,0.07861328,-0.8208008,0.04638672,-0.06445313,0.2988281
696,-39.4375,-23.5,17.9375,0.2177734,0.07080078,-0.8823242,0.04980469,-0.06835938,0.300293
700,-40.4375,-23.4375,25.6875,0.175293,-0.04150391,-0.8979492,0.04980469,-0.07080078,0.3017578
704,-49.3125,-19.3125,26.75,0.159668,-0.02197266,-1.063477,0.05224609,-0.07568359,0.2973633
708,-46,-14.375,27.1875,0.02832031,-0.06054688,-0.9863281,0.05322266,-0.08203125,0.2988281
712,-47.8125,-22.75,31.6875,-0.02197266,0.01269531,-0.7709961,0.0546875,-0.08447266,0.2963867
717,-61.75,-46.3125,40.25,-0.1728516,0.2885742,-0.6132813,0.05712891,-0.09082031,0.2949219
721,-79.5625,-53.375,38.3125,-0.04492188,0.02050781,-0.7822266,0.06054688,-0.09960938,0.2919922
725,-81.375,-61.3125,40,-0.2001953,0.02832031,-1.001465,0.06396484,-0.1054688,0.2895508
729,-70.4375,-62.3125,35.0625,-0.1767578,-0.1577148,-0.9672852,0.06884766,-0.1142578,0.2866211
733,-64.1875,-80.9375,37.6875,-0.3085938,0.15625,-0.7900391,0.07470703,-0.1206055,0.2841797
737,-70.5625,-100.3125,43.1875,-0.2773438,0.3271484,-0.5668945,0.08056641,-0.1254883,0.28125
741,-101.6875,-99.75,36.1875,-0.01416016,0.1484375,-0.9516602,0.08886719,-0.1357422,0.2744141
745,-94.875,-82.1875,39.3125,-0.2348633,0.1875,-1.163086,0.09375,-0.1455078,0.269043
749,-88.0625,-73.5625,37.0625,-0.1962891,-0.03369141,-1.090332,0.09619141,-0.1533203,0.2661133
753,-76.8125,-86.6875,42.5625,-0.4404297,0.3271484,-0.8129883,0.1035156,-0.1606445,0.2583008
757,-83.6875,-113.125,49.375,-0.4326172,0.5952148,-0.5898438,0.109375,-0.171875,0.2524414
761,-113.125,-119.3125,51.3125,-0.28125,0.6499023,-0.8056641,0.1152344,-0.1782227,0.2460938
765,-121.8125,-97.0625,45.6875,-0.2661133,0.2807617,-1.05957,0.1210938,-0.1904297,0.2348633
769,-123.125,-72.4375,38.0625,-0.2851563,0.09814453,-1.375,0.1259766,-0.2006836,0.2270508
773,-101.3125,-62.5,26.875,-0.5683594,0.05126953,-1.282715,0.1269531,-0.2094727,0.2211914
777,-82.3125,-81.6875,27.375,-0.6728516,0.203125,-0.9555664,0.1308594,-0.2182617,0.2133789
781,-75.5625,-105.4375,24.125,-0.8164063,0.4750977,-0.6132813,0.1357422,-0.2255859,0.2021484
785,-90.75,-135.625,21.75,-0.8085938,0.6962891,-0.6171875,0.1401367,-0.2304688,0.1943359
789,-104.3125,-125.625,3.0625,-0.4907227,0.2651367,-0.9248047,0.1484375,-0.2368164,0.1860352
793,-92.9375,-118.25,0.0625,-0.699707,0.3427734,-1.036133,0.1523438,-0.2441406,0.1723633
797,-83.625,-130.5,1.5,-0.7773438,0.5175781,-0.8671875,0.1591797,-0.2470703,0.1655273
801,-83.8125,-145.5,8.625,-0.7504883,0.7626953,-0.7016602,0.1674805,-0.2543945,0.1508789
805,-94.1875,-144.9375,10.6875,-0.6342773,0.7895508,-0.5825195,0.1713867,-0.2592773,0.1396484
809,-109.8125,-142,24.6875,-0.5527344,0.921875,-0.7324219,0.1772461,-0.2641602,0.1289063
813,-119.6875,-111.4375,25.5625,-0.4594727,0.7895508,-0.6938477,0.1796875,-0.2695313,0.1123047
817,-125.75,-103.3125,34.75,-0.6572266,0.9023438,-0.5478516,0.1831055,-0.2768555,0.09765625
821,-127.9375,-116.1875,42.9375,-0.7890625,1.073242,-0.3051758,0.1821289,-0.2817383,0.08935547
825,-132.125,-145.0625,59.625,-0.7543945,1.228516,-0.2631836,0.1796875,-0.2895508,0.06884766
829,-159.625,-125.25,76.125,-0.2192383,0.9956055,-0.7285156,0.1821289,-0.2983398,0.05126953
833,-165.9375,-65.5625,70.0625,-0.4404297,0.8945313,-0.7900391,0.1772461,-0.3032227,0.04052734
837,-169.75,-51.5625,73.1875,-0.6650391,0.875,-0.6171875,0.1738281,-0.3105469,0.02294922
841,-158.8125,-68.375,75.25,-0.9438477,1.061523,-0.378418,0.1665039,-0.3144531,0.006347656
846,-150.125,-109,86.6875,-0.847168,1.015137,-0.378418,0.1630859,-0.3178711,-0.00390625
850,-149.625,-100.25,92.4375,-0.4985352,0.9140625,-0.6787109,0.1557617,-0.3217773,-0.02050781
854,-152.0625,-63.6875,77.8125,-0.5141602,0.8286133,-0.7822266,0.1459961,-0.3266602,-0.03808594
858,-145.625,-49.375,70.5625,-0.7426758,0.8828125,-0.6669922,0.1401367,-0.3256836,-0.05029297
862,-135.125,-59.4375,63.5,-0.8745117,0.9838867,-0.4594727,0.1367188,-0.328125,-0.06396484
866,-116.6875,-88.75,69.9375,-0.8745117,1.003418,-0.394043,0.128418,-0.328125,-0.07861328
870,-101.1875,-102.5625,76.625,-0.6611328,1.045898,-0.4052734,0.1235352,-0.3266602,-0.08544922
874,-99.9375,-94.25,77.875,-0.5756836,1.112305,-0.5478516,0.1142578,-0.3291016,-0.09521484
878,-101.8125,-61.6875,67.5,-0.4482422,0.8945313,-0.6401367,0.1044922,-0.3291016,-0.1098633
882,-92.5,-40.375,60,-0.5952148,0.8945313,-0.6132813,0.1010742,-0.3291016,-0.1166992
886,-78.75,-36.25,51.625,-0.6845703,0.9916992,-0.4130859,0.09375,-0.3266602,-0.125
890,-72.5625,-45.5625,47.6875,-0.6147461,0.9995117,-0.2822266,0.08886719,-0.3242188,-0.1347656
894,-64.375,-43.625,48.8125,-0.5063477,1.003418,-0.2978516,0.08447266,-0.3256836,-0.137207
898,-67.4375,-16.3125,41.4375,-0.3666992,0.8520508,-0.394043,0.07958984,-0.3232422,-0.144043
902,-66.375,8.0625,24.625,-0.5952148,0.9179688,-0.3012695,0.07617188,-0.3208008,-0.1484375
906,-59.6875,5.4375,12.125,-0.6845703,0.8984375,-0.01318359,0.07714844,-0.3208008,-0.1523438
910,-56.375,-17.875,5.4375,-0.7114258,0.9492188,0.125,0.07470703,-0.3168945,-0.15625
914,-45.875,-39.4375,6.625,-0.5874023,0.8710938,0.2133789,0.07373047,-0.3129883,-0.1630859
918,-41.4375,-51.8125,8.9375,-0.4555664,0.9492188,0.2905273,0.07128906,-0.3129883,-0.1660156
922,-45.5625,-52.4375,12.25,-0.3164063,0.956543,0.2749023,0.06884766,-0.3120117,-0.1699219
926,-35.25,-30.875,28,-0.1147461,1.09668,0.4443359,0.06640625,-0.3105469,-0.1738281
930,-80.6875,-21.25,14.1875,-0.3007813,1.135742,0.2368164,0.06542969,-0.3066406,-0.1767578
934,-82.375,-7.9375,16.875,-0.296875,0.777832,0.1098633,0.06152344,-0.3017578,-0.1850586
938,-79.1875,-3.1875,19.8125,-0.3666992,0.7158203,-0.06689453,0.06152344,-0.2993164,-0.1904297
942,-73.5,2.4375,11.9375,-0.4521484,0.6538086,-0.1782227,0.05957031,-0.2944336,-0.1943359
946,-59.8125,0.1875,7.5,-0.5292969,0.5605469,-0.2592773,0.05957031,-0.2919922,-0.199707
950,-33.875,-6.5,6.1875,-0.5527344,0.4946289,-0.3051758,0.05810547,-0.2895508,-0.1987305
954,-3.375,-14.3125,10.625,-0.5214844,0.5214844,-0.3554688,0.05712891,-0.2905273,-0.2026367
958,19.875,-11.5625,12.375,-0.4633789,0.6499023,-0.4091797,0.05712891,-0.2880859,-0.2041016
962,28.625,1.125,1.875,-0.4169922,0.7973633,-0.3632813,0.0546875,-0.2905273,-0.2041016
966,34.125,17.8125,-7.875,-0.4208984,0.824707,-0.2822266,0.05566406,-0.2905273,-0.2011719
970,46.1875,28.3125,-12.125,-0.4443359,0.7587891,-0.2324219,0.05712891,-0.2944336,-0.1972656
975,60.1875,32.3125,-15.1875,-0.4829102,0.8325195,-0.2285156,0.05810547,-0.296875,-0.1928711
979,73.625,33.1875,-18.625,-0.5024414,0.777832,-0.2285156,0.06152344,-0.2993164,-0.1875
983,89.375,30.75,-20.6875,-0.5292969,0.8671875,-0.2207031,0.06396484,-0.3032227,-0.1821289
987,97.8125,27.375,-28.9375,-0.5683594,0.9995117,-0.2167969,0.06640625,-0.3066406,-0.1738281
991,95.75,25.875,-47.625,-0.5488281,0.9760742,-0.2475586,0.06787109,-0.3120117,-0.1699219
995,109.125,24.8125,-52.8125,-0.5175781,0.8598633,-0.3286133,0.07470703,-0.3154297,-0.1591797
999,131.3125,25.5,-49.5625,-0.5024414,0.8286133,-0.3974609,0.07958984,-0.3168945,-0.1508789
1003,144.375,22.8125,-49.75,-0.5449219,0.9760742,-0.4360352,0.08300781,-0.3208008,-0.144043
1007,151.375,26.8125,-59.1875,-0.6069336,1.09668,-0.4248047,0.08886719,-0.3256836,-0.1289063
1011,153.5,28.3125,-68.875,-0.6108398,1.026855,-0.4208984,0.09619141,-0.328125,-0.1157227
1015,161.4375,34.9375,-70.1875,-0.5527344,1.073242,-0.4282227,0.09960938,-0.3320313,-0.1044922
1019,165.8125,51.625,-64.375,-0.4868164,1.104492,-0.4208984,0.1069336,-0.3344727,-0.09228516
1023,161.1875,74.6875,-54.8125,-0.4555664,1.112305,-0.4594727,0.1142578,-0.3344727,-0.07470703
1027,148.875,106.6875,-57.5,-0.5683594,1.205566,-0.4555664,0.1176758,-0.3354492,-0.06542969
1031,136.4375,121.875,-65.5625,-0.7617188,1.104492,-0.4707031,0.1235352,-0.3354492,-0.04882813
1035,146.5625,124.125,-69.1875,-0.9130859,0.8632813,-0.4746094,0.1293945,-0.3354492,-0.03271484
1039,169.4375,101.1875,-58.9375,-0.9594727,0.7666016,-0.5439453,0.1357422,-0.3330078,-0.01611328
1043,202.3125,85.875,-44.6875,-0.9365234,0.9453125,-0.5053711,0.1391602,-0.328125,0
1047,206,72.3125,-35.3125,-0.7617188,0.8789063,-0.5668945,0.1416016,-0.3256836,0.02001953
1051,223.5,90.5625,-25.8125,-0.5756836,1.174316,-0.5478516,0.1450195,-0.3217773,0.03369141
1055,177.125,115.625,-55.8125,-0.715332,1.255859,-0.6860352,0.1459961,-0.3168945,0.05664063
1059,166.5625,152.9375,-63,-0.6264648,0.7973633,-0.8979492,0.1474609,-0.3095703,0.07861328
1063,182,172.0625,-57.1875,-0.7617188,0.4477539,-1.213379,0.1474609,-0.3032227,0.09082031
1067,225.9375,163.75,-47.375,-0.8549805,0.3740234,-1.617188,0.1474609,-0.2929688,0.1166992
1071,283.625,143.625,-41,-0.8354492,0.4321289,-1.801758,0.1416016,-0.2783203,0.1411133
1075,322.4375,136.75,-36.4375,-0.7075195,0.9023438,-1.897949,0.1401367,-0.2670898,0.1601563
1079,299.5625,151.3125,-71.625,-0.8276367,1.473633,-1.740234,0.1357422,-0.2441406,0.1860352
1083,274.625,162.9375,-90.875,-0.7617188,1.182129,-1.416992,0.1293945,-0.2192383,0.2089844
1087,268.5625,155,-79.75,-0.8745117,1.353027,-1.344238,0.125,-0.2055664,0.2270508
1091,262.6875,149.25,-60.8125,-0.6494141,1.100586,-0.9980469,0.1166992,-0.1791992,0.2446289
1095,245.625,141.4375,-31.8125,-0.6533203,1.178223,-0.9248047,0.1069336,-0.1542969,0.262207
1099,216.5625,128.6875,-32.625,-0.6303711,1.038574,-0.6938477,0.1010742,-0.140625,0.2675781
1104,181,116.125,-45.1875,-0.4985352,0.7739258,-0.5283203,0.09130859,-0.1196289,0.2773438
1108,153.375,97.9375,-44.3125,-0.5834961,0.6186523,-0.3974609,0.08300781,-0.09960938,0.2841797
1112,136.0625,70.5,-36.875,-0.4365234,0.3623047,-0.2089844,0.07714844,-0.08935547,0.2910156
1116,117.5625,51.8125,-28.6875,-0.3164063,0.3271484,-0.1474609,0.07128906,-0.07568359,0.2919922
1120,94.4375,31,-20.0625,-0.2041016,0.2612305,-0.06689453,0.06640625,-0.06298828,0.2973633
1124,71.4375,19.4375,-16.375,-0.06054688,0.1445313,-0.03613281,0.06542969,-0.05712891,0.2963867
1128,48.1875,13.5625,-16.0625,-0.05273438,0.1914063,-0.02050781,0.06396484,-0.04931641,0.2963867
1132,22.6875,2.5625,-16.25,-0.05664063,0.1333008,-0.02832031,0.06298828,-0.04589844,0.2973633
1136,-4.5,-8.375,-17.875,-0.04101563,0.08251953,-0.1591797,0.06298828,-0.04443359,0.2963867
1140,-15.625,-11.875,-19.375,0.03564453,-0.1499023,-0.2744141,0.06396484,-0.04296875,0.2963867
1144,-17.4375,-18.5625,-10.4375,-0.006347656,-0.1459961,-0.324707,0.06396484,-0.04443359,0.2963867
1148,-22.0625,-34.4375,0.9375,-0.01806641,-0.1074219,-0.3554688,0.06542969,-0.04589844,0.293457
1152,-28.6875,-41.6875,6.0625,0.07861328,-0.09960938,-0.4438477,0.06884766,-0.05078125,0.2949219
1156,-43.9375,-33.5625,6,0.1557617,-0.02197266,-0.59375,0.07373047,-0.05322266,0.2919922
1160,-60.9375,-15.3125,1.375,0.1557617,0.008789063,-0.6479492,0.07470703,-0.05712891,0.293457
1164,-75.6875,-6.5625,0.625,0.01269531,-0.006347656,-0.7402344,0.07617188,-0.06445313,0.2919922
1168,-75.9375,-8.375,5.9375,-0.02978516,-0.09960938,-0.7167969,0.07714844,-0.07080078,0.2949219
1172,-81.375,-21.375,17.875,-0.1342773,0.121582,-0.7402344,0.07714844,-0.07714844,0.2895508
1176,-89.3125,-29.3125,21.5,-0.1186523,0.08642578,-0.6630859,0.07861328,-0.08544922,0.2880859
1180,-104.1875,-46.875,26.125,-0.3046875,0.2265625,-0.7475586,0.08300781,-0.09570313,0.2866211
1184,-105.75,-65.1875,28.8125,-0.3549805,0.1367188,-0.6977539,0.08447266,-0.1020508,0.2841797
1188,-122,-84.9375,21.125,-0.3549805,0.1640625,-0.9438477,0.09033203,-0.1142578,0.2773438
1192,-113.625,-91.4375,15.8125,-0.3745117,0.121582,-0.9018555,0.09863281,-0.1269531,0.2714844
1196,-115.8125,-108.75,20.25,-0.3666992,0.21875,-0.8325195,0.1035156,-0.1342773,0.2675781
1200,-113.8125,-126.4375,36.4375,-0.4868164,0.6303711,-0.7094727,0.1152344,-0.1469727,0.2592773
1204,-138.125,-140.0625,39.625,-0.328125,0.5253906,-0.7016602,0.1235352,-0.1591797,0.25
1208,-152.9375,-134,46.3125,-0.4633789,0.7895508,-0.9516602,0.1269531,-0.1704102,0.2416992
1212,-181.8125,-108.5625,15.9375,-0.262207,0.284668,-1.113281,0.1367188,-0.1845703,0.230957
1216,-172,-84.875,-1.125,-0.5253906,0.4516602,-1.193848,0.144043,-0.2006836,0.2158203
1220,-167.3125,-93.9375,1.625,-0.6225586,0.4086914,-0.9941406,0.1474609,-0.2080078,0.2104492
1224,-147.25,-124.75,19.4375,-0.7617188,0.6772461,-0.7324219,0.1557617,-0.2216797,0.1953125
1228,-141.625,-164.625,42.6875,-0.796875,1.007324,-0.4824219,0.1606445,-0.2329102,0.1777344
1233,-159.625,-196.0625,61.4375,-0.7543945,1.321777,-0.4746094,0.1650391,-0.2407227,0.1699219
1237,-187.5625,-188.3125,64.1875,-0.4711914,1.158691,-0.609375,0.1723633,-0.2543945,0.1464844
1241,-219.5625,-136.9375,68.9375,-0.2504883,0.972168,-0.9941406,0.1748047,-0.2680664,0.1235352
1245,-219.625,-77.375,56.9375,-0.4169922,0.7509766,-0.9902344,0.1757813,-0.2753906,0.1098633
1249,-210,-73.9375,62,-0.8354492,0.921875,-0.7978516,0.1748047,-0.2866211,0.08789063
1253,-189.6875,-107.5,85.1875,-0.9633789,1.026855,-0.5478516,0.1699219,-0.2983398,0.06787109
1257,-177.875,-137,102.9375,-0.8974609,1.209473,-0.4863281,0.1674805,-0.3041992,0.05517578
1261,-192.3125,-130.8125,114.125,-0.6689453,1.232422,-0.6938477,0.1606445,-0.3120117,0.03222656
1265,-209.875,-83.5625,106.9375,-0.4790039,0.9179688,-0.8710938,0.1508789,-0.3217773,0.009277344
1269,-205.4375,-43.8125,93.625,-0.78125,0.9179688,-0.8056641,0.144043,-0.3256836,-0.00390625
1273,-193.5625,-46.6875,94.6875,-1.033203,0.9956055,-0.6323242,0.1376953,-0.3320313,-0.02148438
1277,-179.625,-70.125,92.1875,-1.056641,1.022949,-0.4746094,0.1293945,-0.3330078,-0.03955078
1281,-161.5625,-90.5,91.5,-0.9907227,1.061523,-0.3666992,0.125,-0.3344727,-0.05273438
1285,-153.125,-98.75,90.3125,-0.8818359,1.162598,-0.3129883,0.112793,-0.3344727,-0.07080078
1289,-151.5625,-94.5,92.5,-0.7192383,1.12793,-0.2783203,0.1035156,-0.3354492,-0.08837891
1293,-149.0625,-77.5625,87.125,-0.6689453,1.182129,-0.2167969,0.09521484,-0.3354492,-0.09765625
1297,-152.4375,-67.4375,76.3125,-0.7504883,1.430664,-0.05126953,0.08789063,-0.3320313,-0.1098633
1301,-154.0625,-68.625,72.75,-0.7617188,1.364746,0.2402344,0.07617188,-0.328125,-0.1279297
1305,-159.75,-92.1875,72.625,-0.8666992,1.418945,0.3251953,0.07226563,-0.3266602,-0.137207
1309,-159.0625,-112.5625,83.75,-0.7231445,1.376465,0.2905273,0.06298828,-0.3193359,-0.1508789
1313,-166.9375,-121,94.375,-0.5527344,1.271484,0.02880859,0.04980469,-0.3144531,-0.1674805
1317,-154.5,-92.4375,117.25,-0.2700195,0.956543,-0.1669922,0.04394531,-0.3105469,-0.1782227
1321,-163.0625,-51.25,91.9375,-0.5410156,1.283203,-0.4282227,0.03076172,-0.3032227,-0.1889648
1325,-173.375,-27.5,61.875,-0.5683594,1.019043,-0.4628906,0.02148438,-0.2929688,-0.2041016
1329,-161.3125,-17.3125,51.375,-0.6069336,0.8632813,-0.5976563,0.01757813,-0.2866211,-0.2109375
1333,-142.375,-11.125,38.0625,-0.5175781,0.7548828,-0.6552734,0.01416016,-0.2768555,-0.2231445
1337,-117.1875,6.3125,23.875,-0.3862305,0.6420898,-0.609375,0.01171875,-0.2695313,-0.2324219
1341,-92.8125,18.75,17.125,-0.362793,0.6186523,-0.5708008,0.01171875,-0.2641602,-0.2338867
1345,-64.75,29,11.125,-0.3393555,0.5878906,-0.4438477,0.01269531,-0.2583008,-0.2392578
1349,-38,31.5625,7.1875,-0.3085938,0.5527344,-0.2705078,0.01513672,-0.2529297,-0.2436523
1353,-11.1875,30.1875,10.4375,-0.3203125,0.6499023,-0.112793,0.01513672,-0.2519531,-0.2446289
1357,0.0625,26.375,9.6875,-0.28125,0.7392578,-0.02441406,0.01660156,-0.2504883,-0.2460938
1362,8.125,29.1875,4.75,-0.2426758,0.6923828,0.07128906,0.01660156,-0.2519531,-0.2446289
1366,18.6875,32.4375,2.6875,-0.2426758,0.7197266,0.1518555,0.01904297,-0.2543945,-0.2436523
1370,20.8125,30.9375,-3.0625,-0.2851563,0.824707,0.2368164,0.02148438,-0.2568359,-0.2421875
1374,20.8125,27.75,-8.3125,-0.2851563,0.809082,0.2944336,0.0234375,-0.2568359,-0.2407227
1378,26.3125,22.875,-7.75,-0.3085938,0.8325195,0.3330078,0.02587891,-0.2568359,-0.2392578
1382,28.9375,15.75,-6.875,-0.3320313,0.8671875,0.2788086,0.02734375,-0.2592773,-0.2368164
1386,30.75,11.125,-8.4375,-0.3354492,0.855957,0.159668,0.02832031,-0.2617188,-0.2338867
1390,37.375,14.1875,-11.5625,-0.347168,0.8364258,-0.02050781,0.03076172,-0.2607422,-0.2338867
1394,39.9375,23.1875,-22.625,-0.3935547,0.8671875,-0.2055664,0.02978516,-0.265625,-0.2324219
1398,49.875,39.25,-37.75,-0.4443359,0.7353516,-0.3286133,0.03417969,-0.2670898,-0.2285156
1402,75.375,41.25,-49.75,-0.6416016,0.7705078,-0.4975586,0.0390625,-0.2705078,-0.2270508
1406,111.5,25.1875,-61.4375,-0.7890625,0.8129883,-0.644043,0.04394531,-0.2753906,-0.2216797
1410,160.5625,3.8125,-77.1875,-0.878418,0.6694336,-0.7324219,0.04980469,-0.2832031,-0.2080078
1414,228.375,-32.1875,-102.5625,-1.230957,0.6186523,-0.6591797,0.05224609,-0.2895508,-0.2026367
1418,298.625,-91.6875,-132,-1.296875,0.7275391,-0.5786133,0.05810547,-0.3017578,-0.1865234
1422,345.4375,-121.6875,-163.3125,-0.9438477,1.034668,-0.4785156,0.06396484,-0.3154297,-0.1630859
1426,356.0625,-111.1875,-181.625,-0.715332,1.376465,-0.3632813,0.06982422,-0.3232422,-0.144043
1430,326.75,-75.6875,-193.75,-0.5292969,1.745605,-0.2631836,0.08203125,-0.3330078,-0.1166992
1434,246.3125,-8,-195.6875,-0.1572266,2.095215,-0.1821289,0.09863281,-0.3369141,-0.09667969
1438,140.25,92.125,-184.375,0.1132813,1.958984,-0.1938477,0.1103516,-0.3354492,-0.08447266
1442,71.4375,192.1875,-160.75,-0.02587891,1.508301,-0.3359375,0.128418,-0.328125,-0.06787109
1446,50.375,227.8125,-136.3125,-0.7543945,1.131836,-0.4863281,0.144043,-0.3256836,-0.05566406
1450,81.875,194,-120.5625,-1.145508,0.5488281,-0.5825195,0.1523438,-0.3217773,-0.04492188
1454,163.3125,143.5625,-98.8125,-1.091309,0.3662109,-0.7133789,0.1650391,-0.3154297,-0.02734375
1458,235.4375,113.1875,-69.375,-1.021484,0.824707,-0.7055664,0.1723633,-0.3105469,-0.001464844
1462,228.8125,98.9375,-83.125,-0.9130859,1.349121,-0.6401367,0.1757813,-0.3066406,0.01318359
1466,221.6875,107.75,-65.3125,-0.6806641,0.9995117,-0.5825195,0.1806641,-0.3007813,0.03515625
1470,223.375,122.4375,-39.6875,-0.7114258,1.12793,-0.6206055,0.1821289,-0.2905273,0.05810547
1474,218.625,126.1875,-14.6875,-0.7426758,0.9023438,-0.7709961,0.1831055,-0.2866211,0.07568359
1478,226,139.1875,-8.1875,-0.7734375,1.112305,-0.809082,0.1796875,-0.2783203,0.1000977
1482,188.6875,136.625,-47.5,-1.07959,1.166504,-0.824707,0.1757813,-0.2670898,0.1206055
1486,180.5625,133.8125,-74.9375,-0.9672852,0.8051758,-0.7783203,0.1748047,-0.2592773,0.1328125
1491,187.375,116.375,-65.375,-0.9326172,0.6030273,-0.8745117,0.1748047,-0.2441406,0.1533203
1495,207.375,108.3125,-44.0625,-0.5913086,0.2612305,-1.028809,0.1699219,-0.2304688,0.1708984
1499,231.25,121.625,-42.125,-0.5024414,0.6962891,-1.032227,0.1689453,-0.2207031,0.1806641
1503,153,157.5625,-131.375,-0.4633789,1.244141,-0.7861328,0.1616211,-0.203125,0.2011719
1507,102,189.5,-176.875,-0.4985352,0.5839844,-0.6630859,0.1582031,-0.1845703,0.2143555
1511,116.4375,179.9375,-166.875,-0.6611328,0.5019531,-0.6401367,0.1557617,-0.1704102,0.2241211
1515,119.6875,155.9375,-107.125,-0.4868164,0.7392578,-0.5361328,0.1474609,-0.1533203,0.2392578
1519,106.8125,163,-64.3125,-0.4555664,0.7817383,-0.3632813,0.1367188,-0.1396484,0.25
1523,68.5625,147.375,-47.6875,-0.765625,0.7080078,-0.3286133,0.128418,-0.1318359,0.2553711
1527,46.5,104.25,-42.1875,-0.9477539,0.3271484,-0.4091797,0.1176758,-0.1230469,0.2651367
1531,53.375,59.9375,-46.4375,-0.9130859,0.01269531,-0.4516602,0.112793,-0.1166992,0.2705078
1535,59.3125,11.6875,-39.5625,-0.730957,0.04003906,-0.5361328,0.109375,-0.1132813,0.2705078
1539,59.375,-8.5,-32.1875,-0.4169922,0.04736328,-0.574707,0.1103516,-0.1069336,0.2729492
1543,51.125,-18,-21.0625,-0.246582,0.1367188,-0.5786133,0.1142578,-0.1020508,0.2744141
1547,34.9375,-20.375,-8.9375,-0.1225586,0.2109375,-0.5322266,0.1142578,-0.09814453,0.2744141
1551,11.75,-11.5,2.5,0.0009765625,0.1254883,-0.5976563,0.1152344,-0.09423828,0.2744141
1555,0.375,1.375,1.375,-0.08398438,0.02441406,-0.5864258,0.1152344,-0.09326172,0.2729492
1559,-10.5625,-5.1875,3.8125,-0.1650391,0.01269531,-0.609375,0.1152344,-0.09423828,0.2744141
1563,-10.9375,-12.5625,-0.875,-0.1572266,-0.04882813,-0.6054688,0.1166992,-0.09423828,0.2729492
1567,-16.8125,-19.8125,1.6875,-0.05664063,-0.01416016,-0.6245117,0.1176758,-0.09814453,0.2714844
1571,-18,-24.1875,7.8125,-0.1147461,0.05908203,-0.5400391,0.1201172,-0.09423828,0.2714844
1575,-25.1875,-37.625,13.9375,-0.07226563,0.1137695,-0.4936523,0.1210938,-0.09960938,0.269043
1579,-33.8125,-52.75,27.3125,-0.1420898,0.2612305,-0.4438477,0.125,-0.1020508,0.2675781
1583,-59.1875,-49.5,30,0.07861328,0.1484375,-0.6245117,0.1259766,-0.1069336,0.269043
1587,-63.9375,-33.25,29.1875,-0.1186523,0.1254883,-0.6401367,0.1318359,-0.1132813,0.2636719
1591,-72.75,-35.8125,36.3125,-0.2041016,0.1176758,-0.59375,0.1342773,-0.1220703,0.2592773
1595,-74.9375,-54.25,41.3125,-0.4482422,0.3041992,-0.4863281,0.1357422,-0.1269531,0.2568359
1599,-93,-75.6875,44.625,-0.3164063,0.2265625,-0.6401367,0.1376953,-0.1367188,0.2514648
1603,-92.8125,-80.875,51.25,-0.3745117,0.2924805,-0.7900391,0.144043,-0.1445313,0.2446289
1607,-99.375,-73.8125,50.375,-0.3125,0.1835938,-0.8862305,0.1459961,-0.1557617,0.2402344
1611,-99.5,-75.375,50.125,-0.5253906,0.3271484,-0.9360352,0.1499023,-0.1655273,0.230957
1615,-95.3125,-81.75,44,-0.5141602,0.1953125,-0.894043,0.1547852,-0.1743164,0.2270508
1620,-95.8125,-96.5625,52.625,-0.6264648,0.4711914,-1.005371,0.1582031,-0.1806641,0.2172852
1624,-100,-86.375,42.5625,-0.4521484,0.1953125,-1.009277,0.1606445,-0.1933594,0.2119141
1628,-97.375,-88.3125,44.6875,-0.6845703,0.3857422,-1.063477,0.1650391,-0.2045898,0.199707
1632,-86.9375,-95.0625,42.4375,-0.6611328,0.315918,-0.8745117,0.1689453,-0.2094727,0.1953125
1636,-80.5,-112,50.75,-0.7543945,0.5410156,-0.7631836,0.1738281,-0.2182617,0.1845703
1640,-87.125,-117.4375,50.625,-0.6455078,0.5952148,-0.6323242,0.1757813,-0.2255859,0.1723633
1644,-102.625,-115.6875,56.4375,-0.6533203,0.7666016,-0.5898438,0.1772461,-0.2304688,0.1630859
1648,-120.3125,-105.625,51.125,-0.6689453,0.7275391,-0.5092773,0.1821289,-0.2392578,0.1518555
1652,-136,-105.9375,52.6875,-0.746582,0.824707,-0.5244141,0.1831055,-0.2495117,0.1396484
1656,-143.9375,-114.3125,53.6875,-0.8549805,0.8984375,-0.4824219,0.1831055,-0.2568359,0.1274414
1660,-144.875,-128.75,64.375,-0.7851563,0.8828125,-0.4052734,0.1855469,-0.2680664,0.1098633
1664,-151.25,-131.5625,78.0625,-0.7231445,1.007324,-0.3862305,0.1831055,-0.2768555,0.09228516
1668,-171.0625,-118.5,80.9375,-0.5566406,1.04248,-0.4052734,0.1821289,-0.2856445,0.08007813
1672,-206.5625,-76.25,77.8125,-0.347168,0.9956055,-0.5131836,0.1796875,-0.2944336,0.05810547
1676,-231.6875,-26.75,70.5,-0.4404297,0.9838867,-0.4863281,0.1748047,-0.3041992,0.04199219
1680,-250.125,-4.6875,66.125,-0.6533203,1.073242,-0.4248047,0.1713867,-0.3095703,0.02832031
1684,-253.3125,-11.625,70.375,-0.9169922,1.158691,-0.3168945,0.1640625,-0.3154297,0.006347656
1688,-243.1875,-45.0625,80.4375,-1.067871,1.263672,-0.1708984,0.1591797,-0.3217773,-0.01464844
1692,-232.8125,-70.8125,90.5,-0.9555664,1.314453,-0.1401367,0.1533203,-0.3232422,-0.02832031
1696,-234.25,-74.0625,93.25,-0.8237305,1.500488,-0.2016602,0.144043,-0.3266602,-0.05175781
1700,-247.6875,-58.375,90.9375,-0.7348633,1.570801,-0.2285156,0.1357422,-0.3266602,-0.07763672
1704,-258.8125,-48.75,89.5625,-0.878418,1.632813,-0.2553711,0.128418,-0.3242188,-0.08984375
1708,-257.8125,-55.8125,89.8125,-0.9438477,1.516113,-0.2436523,0.1186523,-0.3208008,-0.1157227
1712,-245.75,-70.9375,86.3125,-0.9985352,1.485352,-0.2055664,0.1079102,-0.3144531,-0.1386719
1716,-230.6875,-90.1875,87.25,-0.9248047,1.450195,-0.1782227,0.1020508,-0.3120117,-0.1523438
1720,-222.9375,-90.6875,85.5625,-0.715332,1.418945,-0.2397461,0.09277344,-0.3032227,-0.1728516
1724,-215.0625,-84,85.6875,-0.6225586,1.317871,-0.3286133,0.08056641,-0.2919922,-0.1904297
1728,-204.4375,-76.375,80.0625,-0.6650391,1.259766,-0.359375,0.07373047,-0.2866211,-0.2026367
1732,-189.9375,-74.75,76.6875,-0.5102539,0.9453125,-0.4594727,0.06542969,-0.2753906,-0.2148438
1736,-152.5625,-50.625,79.1875,-0.5605469,1.244141,-0.3325195,0.0546875,-0.265625,-0.2285156
1740,-169.75,-49.625,61.3125,-0.5449219,1.077148,-0.2861328,0.04980469,-0.2568359,-0.2338867
1744,-153.875,-36.1875,54.75,-0.4052734,0.8286133,-0.3862305,0.04248047,-0.2480469,-0.2446289
1749,-132.5625,-17.0625,59.0625,-0.3510742,0.6845703,-0.3974609,0.0390625,-0.2382813,-0.2543945
1753,-114.4375,1.9375,58.375,-0.3046875,0.5332031,-0.3706055,0.03662109,-0.2319336,-0.2597656
1757,-87.375,18.25,58.125,-0.362793,0.4829102,-0.3286133,0.03417969,-0.2231445,-0.2651367
1761,-62.375,24.3125,53.3125,-0.4130859,0.4438477,-0.2128906,0.03320313,-0.2182617,-0.269043
1765,-41.8125,17.4375,39.9375,-0.5644531,0.6069336,-0.1513672,0.03320313,-0.2158203,-0.269043
1769,-25.9375,6.1875,29.75,-0.4985352,0.5253906,-0.005371094,0.03173828,-0.2104492,-0.2734375
1773,-6.875,-2.25,22.0625,-0.4326172,0.5644531,0.07910156,0.03173828,-0.2104492,-0.2734375
1777,9.5,-3.375,16.6875,-0.362793,0.6538086,0.2094727,0.02978516,-0.2119141,-0.2734375
1781,13.75,-1.8125,12.625,-0.2851563,0.6962891,0.2983398,0.02832031,-0.2128906,-0.2734375
1785,17.75,3.625,9.125,-0.2504883,0.7353516,0.3364258,0.02587891,-0.2143555,-0.2705078
1789,19.5625,9.25,6.3125,-0.246582,0.7856445,0.4057617,0.02734375,-0.2158203,-0.2719727
1793,19.9375,12.25,2.5,-0.2700195,0.7739258,0.4018555,0.02832031,-0.2182617,-0.269043
1797,21.9375,12.5625,-4.5625,-0.3549805,0.840332,0.4633789,0.02978516,-0.2167969,-0.2680664
1801,16.875,2.375,-13.5,-0.4091797,0.8208008,0.4599609,0.02832031,-0.2192383,-0.2680664
1805,24.1875,-8.5625,-18.3125,-0.4052734,0.7041016,0.3867188,0.03076172,-0.2192383,-0.2680664
1809,39.6875,-18.1875,-21.6875,-0.3706055,0.6420898,0.3291016,0.03076172,-0.2246094,-0.2626953
1813,56.875,-24.3125,-23.5625,-0.3432617,0.7236328,0.1982422,0.03076172,-0.2246094,-0.2651367
1817,62.125,-21.4375,-31.125,-0.2929688,0.8168945,0.07910156,0.02978516,-0.2294922,-0.2626953
1821,68.0625,-8.8125,-38.5625,-0.2851563,0.840332,-0.05517578,0.02978516,-0.234375,-0.2597656
1825,73.875,7.4375,-44.5625,-0.2890625,0.8051758,-0.1899414,0.03173828,-0.2368164,-0.2558594
1829,87.9375,26.8125,-50.75,-0.3203125,0.7353516,-0.2900391,0.03564453,-0.2441406,-0.2514648
1833,107.125,44.1875,-54.875,-0.4091797,0.7158203,-0.3208008,0.0390625,-0.2495117,-0.2475586
1837,130,53.1875,-53.6875,-0.4985352,0.7197266,-0.2939453,0.04394531,-0.2529297,-0.2407227
1841,152.8125,55.5625,-50.25,-0.6225586,0.7431641,-0.2436523,0.05224609,-0.2631836,-0.230957
1845,172.5,61.25,-54.6875,-0.5527344,0.8945313,-0.1474609,0.05810547,-0.2719727,-0.21875
1849,165.875,81.3125,-63.75,-0.4829102,1.108398,-0.07861328,0.06298828,-0.2792969,-0.2109375
1853,160.4375,106.75,-54.4375,-0.378418,1.019043,-0.08984375,0.07226563,-0.2880859,-0.1972656
1857,168.25,133.75,-39.0625,-0.4672852,1.084961,-0.08984375,0.08300781,-0.296875,-0.1865234
1861,170.75,130.875,-34.4375,-0.7231445,1.166504,-0.1054688,0.08789063,-0.3017578,-0.1728516
1865,161.6875,109.0625,-60.125,-0.8935547,1.403809,-0.1054688,0.09765625,-0.3095703,-0.1577148
1869,165.6875,82.625,-76.5,-0.831543,1.104492,-0.07080078,0.1069336,-0.3129883,-0.1416016
1873,184.5625,54.25,-78.875,-0.7929688,1.034668,-0.1513672,0.112793,-0.3178711,-0.1264648
1878,211.1875,33.5,-68.3125,-0.5874023,1.053711,-0.2436523,0.1210938,-0.3208008,-0.1157227
1882,225.125,35.125,-47.3125,-0.4052734,1.158691,-0.3325195,0.128418,-0.3256836,-0.09375
1886,224.875,47.3125,-35.375,-0.3085938,1.225098,-0.4438477,0.1308594,-0.328125,-0.08007813
1890,207.5625,68.1875,-45.625,-0.4208984,1.543457,-0.4746094,0.1318359,-0.328125,-0.06103516
1894,160,87.6875,-80.8125,-0.4287109,1.504395,-0.4208984,0.1391602,-0.328125,-0.03955078
1898,145.0625,107.1875,-81.3125,-0.3588867,1.154785,-0.4667969,0.1450195,-0.3266602,-0.02734375
1902,158.375,115.375,-53.125,-0.4208984,0.921875,-0.5400391,0.1508789,-0.3232422,-0.01074219
1906,184.1875,112.3125,-5,-0.4013672,0.824707,-0.7133789,0.1533203,-0.3208008,0.009277344
1910,224.375,114.6875,32.8125,-0.4750977,0.9682617,-0.6899414,0.1547852,-0.3208008,0.02294922
1914,202.625,111.5,9.8125,-0.7890625,1.566895,-0.6630859,0.1508789,-0.3154297,0.04882813
1918,158.5625,110.875,-37.4375,-0.796875,1.333496,-0.5092773,0.1499023,-0.3095703,0.06640625
1922,150.125,107.8125,-40.0625,-0.7270508,1.019043,-0.4824219,0.1484375,-0.3066406,0.08007813
1926,154.125,100,-16.9375,-0.7270508,1.084961,-0.4399414,0.1474609,-0.2993164,0.09912109
1930,141.75,98.625,5.875,-0.5214844,0.8789063,-0.5322266,0.1459961,-0.2944336,0.1137695
1934,152.375,102.375,34,-0.5991211,0.7548828,-0.6630859,0.1425781,-0.2895508,0.1220703
1938,154.4375,95.0625,39.25,-0.6572266,0.7197266,-0.6669922,0.1367188,-0.2832031,0.1396484
1942,142.625,76.875,10.9375,-0.831543,0.8710938,-0.6787109,0.1293945,-0.2768555,0.1533203
1946,132.8125,55.1875,-11.5,-0.7075195,0.6303711,-0.628418,0.1269531,-0.2719727,0.1669922
1950,129.5,36.75,-16.25,-0.5605469,0.6499023,-0.7207031,0.1259766,-0.2641602,0.175293
1954,123.75,43.0625,-13.125,-0.3203125,0.5952148,-0.7939453,0.1235352,-0.2543945,0.1875
1958,116.9375,62.875,-7.1875,-0.1923828,0.3779297,-0.9594727,0.1235352,-0.2480469,0.1914063
1962,133.125,82.8125,6.1875,-0.2001953,0.2651367,-1.155762,0.1201172,-0.2392578,0.199707
1966,156.5,98.875,16.5625,-0.230957,0.07470703,-1.193848,0.1103516,-0.2304688,0.2143555
1970,180,97.625,29.625,-0.3164063,0.3310547,-1.221191,0.105957,-0.2207031,0.2226563
1974,156.875,106,3.125,-0.3974609,0.8710938,-1.005371,0.09863281,-0.2070313,0.2348633
1978,114.625,113.0625,-13.0625,-0.4052734,0.7314453,-0.7441406,0.09130859,-0.1967773,0.2460938
1982,85.4375,106.3125,-18,-0.4711914,0.5952148,-0.6821289,0.08544922,-0.1894531,0.2514648
1986,72.75,96,-16.75,-0.3666992,0.3427734,-0.6132813,0.07714844,-0.1821289,0.2592773
1990,66.6875,80.6875,-6.5,-0.3862305,0.300293,-0.6479492,0.06982422,-0.1757813,0.262207
1994,67.4375,61.125,3.9375,-0.3432617,0.2265625,-0.6206055,0.06542969,-0.1704102,0.2675781
1998,61.6875,43.9375,7.4375,-0.296875,0.269043,-0.5864258,0.06152344,-0.1630859,0.269043
2002,41.5625,29.3125,-2.6875,-0.296875,0.3935547,-0.5898438,0.05810547,-0.1591797,0.2729492
2007,26.375,19.6875,-5.9375,-0.2080078,0.2729492,-0.5322266,0.05712891,-0.1557617,0.2744141
2011,10.0625,11.8125,-7,-0.1381836,0.2495117,-0.5439453,0.05566406,-0.1557617,0.2744141
2015,-2.0625,8.8125,-8,-0.1264648,0.3193359,-0.5400391,0.05322266,-0.1557617,0.2758789
2019,-22.5625,4,-10.25,-0.04882813,0.2070313,-0.5898438,0.05322266,-0.1542969,0.2773438
2023,-29.75,0.5625,-9.375,-0.08789063,0.1367188,-0.7402344,0.05224609,-0.1557617,0.2783203
2027,-27.5,-3.9375,-8.875,-0.02587891,-0.04150391,-0.809082,0.05322266,-0.1606445,0.2744141
2031,-21.25,-8.9375,-5.5625,-0.06835938,0.01660156,-0.9018555,0.0546875,-0.1606445,0.2744141
2035,-15.625,-11.625,-5.3125,-0.07226563,0.1020508,-0.809082,0.05566406,-0.1630859,0.2744141
2039,-25.25,-18.4375,-5.1875,-0.09912109,0.2807617,-0.7324219,0.05712891,-0.1630859,0.2714844
2043,-42.375,-26.5,-3.9375,-0.07617188,0.3120117,-0.809082,0.05810547,-0.1645508,0.2714844
2047,-52.6875,-24.9375,-6.5,-0.01025391,0.2070313,-0.8745117,0.06152344,-0.1694336,0.269043
2051,-53.875,-22.3125,-4.5,-0.06054688,0.2265625,-0.8515625,0.06298828,-0.1757813,0.2675781
2055,-54.9375,-27.25,3.1875,-0.1030273,0.2495117,-0.7207031,0.06396484,-0.1782227,0.262207
2059,-63.375,-38.5,12.75,-0.215332,0.4594727,-0.6591797,0.06787109,-0.1845703,0.2607422
2063,-81.5625,-46.75,10.375,-0.2387695,0.3779297,-0.6245117,0.06982422,-0.1894531,0.2553711
2067,-99,-59.6875,3.125,-0.3432617,0.2807617,-0.8823242,0.07226563,-0.1967773,0.2514648
2071,-84,-68.1875,-5.5625,-0.3549805,0.08642578,-0.8745117,0.07714844,-0.203125,0.2470703
2075,-70.8125,-89.0625,-4.4375,-0.4091797,0.2807617,-0.7055664,0.08300781,-0.2104492,0.2446289
2079,-69.4375,-110.3125,8,-0.3549805,0.5332031,-0.5014648,0.08886719,-0.2158203,0.2348633
2083,-102,-114.375,20.1875,-0.1342773,0.6342773,-0.7402344,0.09521484,-0.2216797,0.2280273
2087,-122.25,-73,15.5,-0.04101563,0.4086914,-1.001465,0.1020508,-0.2329102,0.2158203
2091,-137.625,-25.1875,-2.3125,0.02050781,-0.006347656,-1.232422,0.1044922,-0.2382813,0.2133789
2095,-97.5,-2.625,-6.0625,-0.3588867,-0.02587891,-1.19043,0.1044922,-0.2456055,0.2021484
2099,-72.3125,-36.4375,6.75,-0.5795898,0.3081055,-1.063477,0.105957,-0.2529297,0.1967773
2103,-50.375,-67.1875,19.4375,-0.4521484,0.5019531,-0.8862305,0.1079102,-0.2568359,0.1928711
2107,-58.6875,-70.9375,23,-0.2851563,0.824707,-0.8515625,0.1118164,-0.2607422,0.1860352
2111,-82,-55.125,13.9375,-0.215332,0.8325195,-0.8901367,0.112793,-0.2670898,0.1791992
2115,-97.3125,-37.9375,12.625,-0.3085938,0.8945313,-0.9555664,0.112793,-0.2680664,0.1777344
2119,-106.5,-25.3125,12.4375,-0.3007813,0.6420898,-0.9902344,0.1142578,-0.2783203,0.1669922
2123,-103.625,-20.625,12.0625,-0.4672852,0.7353516,-0.9863281,0.1152344,-0.2832031,0.1572266
2127,-104.375,-28.1875,6.625,-0.5102539,0.6616211,-0.8710938,0.1166992,-0.2866211,0.1508789
2131,-106.375,-40.5,1.25,-0.6030273,0.8671875,-0.8286133,0.1166992,-0.2944336,0.1425781
2136,-112.9375,-49.75,-11.5,-0.6069336,0.7973633,-0.6630859,0.1176758,-0.2993164,0.1328125
2140,-127.5,-66.625,-20.3125,-0.7036133,0.9140625,-0.7133789,0.1210938,-0.3007813,0.1235352
2144,-125,-78.875,-26.5625,-0.6611328,0.7353516,-0.6054688,0.1235352,-0.3066406,0.1098633
2148,-118.125,-99.1875,-20.125,-0.6767578,0.890625,-0.5053711,0.128418,-0.3120117,0.1000977
2152,-118.5,-117.625,-11.6875,-0.6455078,1.077148,-0.4091797,0.1318359,-0.3144531,0.08789063
2156,-136.8125,-124.125,-12.5,-0.4091797,0.9023438,-0.5786133,0.1357422,-0.3168945,0.07177734
2160,-136.5625,-101.5625,-8.3125,-0.3432617,0.890625,-0.7514648,0.1391602,-0.3178711,0.05517578
2164,-145.25,-65.8125,-10.5625,-0.3393555,0.6845703,-0.7402344,0.1416016,-0.3217773,0.04443359
2168,-142.25,-50.5,-19,-0.6376953,0.7509766,-0.6479492,0.144043,-0.3242188,0.02978516
2172,-131.75,-67,-21.4375,-0.8046875,0.7856445,-0.4785156,0.144043,-0.3242188,0.01855469
2176,-116.6875,-94.9375,-20.4375,-0.7851563,0.8984375,-0.324707,0.1484375,-0.3242188,0.0078125
2180,-110.25,-116.6875,-13.5,-0.6923828,1.057617,-0.2475586,0.1484375,-0.3266602,-0.008300781
2184,-112.125,-124.3125,-3.375,-0.5253906,1.162598,-0.2246094,0.1484375,-0.3256836,-0.02148438
2188,-125.625,-108.5625,0.1875,-0.362793,1.146973,-0.2783203,0.1474609,-0.3242188,-0.03369141
2192,-137.125,-82.25,5.0625,-0.4091797,1.135742,-0.2744141,0.1474609,-0.3232422,-0.04882813
2196,-148.4375,-66.8125,11.875,-0.4946289,1.186035,-0.2246094,0.1450195,-0.3256836,-0.06542969
2200,-156.3125,-63.625,17.375,-0.5952148,1.162598,-0.2016602,0.144043,-0.3217773,-0.07617188
2204,-157.6875,-65.8125,20.75,-0.6069336,1.108398,-0.1513672,0.1401367,-0.3193359,-0.09228516
2208,-156.0625,-72.3125,26.4375,-0.6650391,1.158691,-0.1015625,0.1367188,-0.3168945,-0.1074219
2212,-156.3125,-81.875,32.625,-0.6147461,1.146973,-0.05126953,0.1357422,-0.3129883,-0.1166992
2216,-153.375,-82.1875,37.5,-0.5722656,1.178223,-0.001464844,0.1293945,-0.3105469,-0.1333008
2220,-156.4375,-81.5,37.125,-0.5874023,1.298828,0.1210938,0.1225586,-0.3056641,-0.1494141
2224,-163.1875,-85.5625,38.4375,-0.6455078,1.399902,0.2441406,0.1201172,-0.3007813,-0.1577148
2228,-169,-95.8125,47.4375,-0.6264648,1.353027,0.2827148,0.112793,-0.2954102,-0.1738281
2232,-171.625,-100.1875,52.75,-0.5722656,1.32959,0.2944336,0.1020508,-0.2866211,-0.1889648
2236,-172.125,-107.9375,57.75,-0.6650391,1.349121,0.3330078,0.09765625,-0.2817383,-0.199707
2240,-160.75,-121.8125,67.8125,-0.6533203,1.271484,0.5942383,0.08691406,-0.2729492,-0.2133789
2244,-145.125,-150.1875,99.0625,-0.796875,1.418945,0.4790039,0.07373047,-0.2631836,-0.2270508
2248,-132.5,-145.8125,129.625,-0.3242188,1.345215,0.2094727,0.06152344,-0.2592773,-0.2353516
2252,-169.625,-98.8125,99.25,-0.3393555,1.267578,-0.4282227,0.04492188,-0.2519531,-0.2446289
2256,-183.4375,-37.1875,65.9375,-0.3901367,0.8598633,-0.7324219,0.03564453,-0.2382813,-0.2583008
2260,-172.1875,6.5,45.8125,-0.5024414,0.5566406,-0.8710938,0.03417969,-0.2294922,-0.2636719
2265,-144.5625,29.1875,31.9375,-0.5874023,0.4052734,-0.9438477,0.03076172,-0.2182617,-0.2734375
2269,-105.3125,42.25,19.5625,-0.5952148,0.1835938,-0.894043,0.03320313,-0.2080078,-0.2758789
2273,-52.375,40.875,12.3125,-0.6303711,0.05517578,-0.7441406,0.03564453,-0.203125,-0.2802734
2277,7.9375,16.75,15.8125,-0.7426758,0.02832031,-0.378418,0.03808594,-0.1982422,-0.2802734
2281,54.375,-13.5625,14.1875,-0.6342773,0.3120117,-0.06689453,0.04052734,-0.2006836,-0.2802734
2285,70.125,-28.8125,2.4375,-0.4287109,0.5566406,0.140625,0.03808594,-0.203125,-0.2773438
2289,69.5625,-24.375,-9.3125,-0.230957,0.7080078,0.355957,0.03564453,-0.2119141,-0.2734375
2293,59.125,-11.6875,-13.0625,-0.1499023,0.7973633,0.4711914,0.03320313,-0.2158203,-0.2705078
2297,49.625,0.3125,-6.5,-0.1264648,0.8208008,0.5097656,0.03417969,-0.2192383,-0.2705078
2301,36.875,15.5625,-5.8125,-0.1381836,0.8286133,0.425293,0.03417969,-0.2231445,-0.2666016
2305,28.375,31.25,-10,-0.246582,0.793457,0.2480469,0.03564453,-0.2255859,-0.2636719
2309,31.1875,41.4375,-12.0625,-0.3242188,0.6499023,0.02099609,0.03662109,-0.2270508,-0.2636719
2313,49.375,51.8125,-18.4375,-0.4287109,0.6030273,-0.1435547,0.04150391,-0.2280273,-0.2597656
2317,71.375,54.75,-25.1875,-0.5913086,0.7119141,-0.2514648,0.04638672,-0.2329102,-0.2568359
2321,91.4375,49.375,-36.125,-0.6650391,0.6923828,-0.2705078,0.04882813,-0.2358398,-0.2558594
2325,120.5,39.125,-41.125,-0.6923828,0.7001953,-0.2822266,0.0546875,-0.2456055,-0.2475586
2329,149.0625,34.375,-47.6875,-0.6030273,0.809082,-0.1474609,0.05810547,-0.2519531,-0.2407227
2333,168,31.0625,-49,-0.5834961,0.9799805,-0.04003906,0.06298828,-0.2592773,-0.2324219
2337,185.6875,32.6875,-34.75,-0.4633789,0.9916992,0.07128906,0.06884766,-0.2695313,-0.2216797
2341,195,43.25,-18,-0.3085938,1.174316,0.1328125,0.07128906,-0.2832031,-0.206543
2345,183,63.9375,-9.6875,-0.2734375,1.555176,0.3173828,0.07617188,-0.2880859,-0.1987305
2349,137.375,83.625,-20.1875,-0.2583008,1.586426,0.3095703,0.07958984,-0.296875,-0.1850586
2353,115.3125,95.5,-21.4375,-0.3823242,1.116211,0.09033203,0.08447266,-0.3041992,-0.1699219
2357,128,93.75,-20.9375,-0.5527344,0.8481445,-0.03613281,0.08789063,-0.3081055,-0.1645508
2361,151.5,71.9375,-23,-0.7504883,0.8598633,0.001953125,0.09521484,-0.3144531,-0.1508789
2365,164.0625,39.4375,-24.3125,-0.8354492,1.12793,0.1865234,0.09863281,-0.3208008,-0.1357422
2369,158.5625,5.1875,-28.375,-0.7114258,1.034668,0.08251953,0.09960938,-0.3232422,-0.1279297
2373,171.3125,-11.3125,-27.0625,-0.5756836,0.8984375,-0.2514648,0.1035156,-0.328125,-0.1142578
2377,177.6875,-6.25,-36.875,-0.4365234,0.9492188,-0.4975586,0.105957,-0.3330078,-0.1005859
2381,178.6875,12.5,-46.625,-0.4555664,1.01123,-0.6860352,0.1069336,-0.3354492,-0.08837891
2385,172.375,32.8125,-64.0625,-0.5410156,1.116211,-0.6899414,0.112793,-0.3354492,-0.07324219
2389,167.75,47.625,-71.5,-0.6147461,1.120117,-0.6821289,0.1186523,-0.3369141,-0.05712891
2394,174.9375,56,-71,-0.6572266,0.9760742,-0.7207031,0.1235352,-0.3369141,-0.04492188
2398,194.1875,59.25,-55.6875,-0.6494141,0.8671875,-0.8476563,0.1293945,-0.3354492,-0.02734375
2402,228.5625,63,-33.5,-0.6455078,0.8208008,-0.9477539,0.1357422,-0.3305664,-0.008300781
2406,232.9375,73.0625,-40.875,-0.7114258,1.438477,-0.8632813,0.1357422,-0.3320313,0.0078125
2410,197.1875,96.8125,-62.8125,-0.6376953,1.248047,-0.7592773,0.1401367,-0.3266602,0.03222656
2414,172,140.9375,-71.125,-0.6923828,1.39209,-0.7016602,0.144043,-0.3217773,0.05273438
2418,164,152.1875,-46.625,-0.7929688,1.135742,-0.6977539,0.1459961,-0.3144531,0.06640625
2422,188.0625,140,-13,-0.8354492,0.8632813,-0.7094727,0.1459961,-0.3081055,0.08789063
2426,193.375,113.375,-7.4375,-0.8276367,1.294922,-0.6938477,0.1450195,-0.2983398,0.1098633
2430,181.0625,115.125,-21.75,-0.6416016,1.217285,-0.4936523,0.1391602,-0.2944336,0.1220703
2434,155.375,122,-32.5625,-0.6069336,1.162598,-0.4594727,0.1367188,-0.2832031,0.1396484
2438,139.8125,119.8125,-30.875,-0.6650391,0.9375,-0.5014648,0.1342773,-0.2744141,0.1547852
2442,136,110.1875,-30.0625,-0.5527344,0.5332031,-0.7016602,0.1318359,-0.2680664,0.1669922
2446,154.5,101.5,-18.625,-0.5141602,0.3583984,-0.9707031,0.1259766,-0.2568359,0.1806641
2450,184.625,98.875,-8.8125,-0.4169922,0.2885742,-1.032227,0.1225586,-0.2456055,0.1943359
2454,186.3125,97.875,-15.5,-0.4326172,0.6108398,-1.094238,0.1176758,-0.2368164,0.2050781
2458,169.75,111.8125,-38.1875,-0.4052734,0.6962891,-0.9863281,0.1118164,-0.2255859,0.2202148
2462,155.8125,116.8125,-41.375,-0.4169922,0.4829102,-1.013184,0.105957,-0.2094727,0.230957
2466,152.5625,128.5625,-47.3125,-0.3354492,0.1679688,-1.371094,0.1035156,-0.1982422,0.2416992
2470,188.8125,153,-46.125,-0.3320313,-0.1347656,-1.363281,0.09521484,-0.1821289,0.2514648
2474,233.75,138.5625,-15.9375,-0.5756836,0.3388672,-1.051758,0.08056641,-0.1621094,0.2661133
2478,210.4375,110.3125,-18.375,-0.6147461,1.108398,-0.6591797,0.07470703,-0.1469727,0.2729492
2482,152.25,90.4375,-37.9375,-0.4521484,0.8789063,-0.2861328,0.06640625,-0.1269531,0.2841797
2486,102.375,65.5625,-46.625,-0.3432617,0.5800781,-0.394043,0.05810547,-0.1118164,0.2910156
2490,82.3125,58.25,-40.75,-0.1650391,0.300293,-0.4130859,0.05566406,-0.1069336,0.2919922
2494,68.4375,41.875,-26,-0.1689453,0.2495117,-0.4208984,0.05078125,-0.09960938,0.293457
2498,57.375,19.3125,-8.4375,-0.08398438,0.1835938,-0.3129883,0.04980469,-0.09082031,0.2963867
2502,32.5,5.9375,-1,-0.04492188,0.3310547,-0.2553711,0.04736328,-0.08544922,0.2973633
2506,-7.8125,0.3125,-5.5625,-0.06054688,0.1679688,-0.4746094,0.04736328,-0.08447266,0.2973633
2510,-12.9375,4.9375,-12.8125,-0.02587891,-0.1889648,-0.5668945,0.04882813,-0.08544922,0.2973633
2514,-11.6875,1.9375,-11.3125,-0.06054688,-0.1269531,-0.6206055,0.04736328,-0.08837891,0.2988281
2518,-12.1875,-8.25,-5.375,-0.04492188,-0.06054688,-0.5322266,0.04882813,-0.08935547,0.2963867
2523,-23.75,-22.125,-1.4375,-0.03320313,0.02441406,-0.6669922,0.04882813,-0.08935547,0.2973633
2527,-27.25,-18.0625,-0.125,0.07861328,-0.07617188,-0.7207031,0.05078125,-0.09082031,0.2973633
2531,-31.75,-11.4375,2.5,0.08642578,-0.09570313,-0.7978516,0.05224609,-0.09716797,0.2963867
2535,-33.75,-5.4375,1.25,0.02050781,-0.01416016,-0.7324219,0.05322266,-0.09814453,0.2949219
2539,-42.3125,-16.0625,4.4375,-0.02978516,0.1020508,-0.644043,0.05322266,-0.09960938,0.293457
2543,-56.5,-30.5625,9.125,-0.07226563,0.2416992,-0.6362305,0.05566406,-0.1044922,0.2919922
2547,-70.4375,-40.0625,13.9375,-0.01025391,0.1484375,-0.6591797,0.05810547,-0.1118164,0.2910156
2551,-82.875,-46.5,18.25,-0.06835938,0.1875,-0.7670898,0.06054688,-0.1157227,0.2880859
2555,-90.0625,-47.75,17.875,-0.2119141,0.1875,-0.7670898,0.06396484,-0.1269531,0.2851563
2559,-95.875,-62.6875,11.5625,-0.2929688,0.1293945,-0.7441406,0.06884766,-0.1333008,0.28125
2563,-97.1875,-85.25,15.0625,-0.3666992,0.253418,-0.7402344,0.07226563,-0.1420898,0.2773438
2567,-104.25,-103.125,14.5,-0.2851563,0.1293945,-0.84375,0.08203125,-0.1542969,0.2714844
2571,-104,-108.375,11.75,-0.3823242,0.1953125,-1.070801,0.08886719,-0.1630859,0.2651367
2575,-91.875,-108.25,6.0625,-0.3549805,0.07080078,-0.9091797,0.09375,-0.1704102,0.262207
2579,-91.5,-120.125,12.25,-0.4750977,0.2573242,-1.090332,0.1044922,-0.1791992,0.2514648
2583,-80.0625,-125.3125,11.625,-0.5449219,0.253418,-1.001465,0.1118164,-0.1855469,0.2470703
2587,-79.6875,-132.25,1.875,-0.5449219,0.105957,-1.151855,0.1201172,-0.1894531,0.2363281
2591,-60.5,-136.0625,-0.9375,-0.730957,0.2651367,-1.197754,0.1293945,-0.1982422,0.2294922
2595,-55.4375,-146.125,-15.5,-0.7504883,0.140625,-1.155762,0.1376953,-0.2016602,0.2172852
2599,-40.0625,-168.4375,-21.25,-0.8510742,0.3232422,-1.066895,0.1450195,-0.2045898,0.2119141
2603,-34.25,-198.3125,-10.25,-0.6572266,0.4907227,-0.8979492,0.1606445,-0.2055664,0.2011719
2607,-53.375,-192.4375,7.125,-0.3320313,0.6186523,-1.097656,0.1738281,-0.2094727,0.1889648
2611,-72.9375,-135.9375,9.375,-0.1303711,0.4477539,-1.028809,0.1806641,-0.2128906,0.1791992
2615,-87.5,-84.1875,24.9375,-0.1923828,0.4594727,-1.01709,0.1855469,-0.2182617,0.1699219
2619,-91.9375,-50.875,39.6875,-0.4946289,0.5913086,-0.7094727,0.1865234,-0.2280273,0.1586914
2623,-101,-60.875,50.6875,-0.7617188,0.809082,-0.3862305,0.1889648,-0.2329102,0.1547852
2627,-122,-91.5625,57.0625,-0.7734375,0.9335938,-0.3515625,0.1904297,-0.2416992,0.1450195
2631,-138.0625,-101.125,60.6875,-0.6342773,0.8481445,-0.3862305,0.1904297,-0.2504883,0.1313477
2635,-154.9375,-92.375,59.125,-0.4907227,0.7548828,-0.5629883,0.1914063,-0.2583008,0.1220703
2639,-155.4375,-78.3125,61.25,-0.5952148,0.8481445,-0.4707031,0.1889648,-0.2680664,0.1044922
2643,-163.9375,-86.75,72.125,-0.6303711,1.038574,-0.3286133,0.1865234,-0.2792969,0.08935547
2647,-173.125,-94.8125,86.3125,-0.5952148,1.20166,-0.3051758,0.1831055,-0.2866211,0.07714844
2652,-200.9375,-78.3125,89.8125,-0.4169922,1.084961,-0.4785156,0.1796875,-0.296875,0.06103516
2656,-220.5,-43.5625,86.875,-0.4404297,0.9453125,-0.7475586,0.1738281,-0.3056641,0.03759766
2660,-224.625,-10.375,73.0625,-0.5756836,0.7509766,-0.7978516,0.1689453,-0.3120117,0.02294922
2664,-211.3125,-12.125,65.4375,-0.8857422,0.8325195,-0.7133789,0.1650391,-0.3154297,0.0078125
2668,-192.6875,-46.375,69.6875,-1.005859,0.8325195,-0.5898438,0.1567383,-0.3208008,-0.01220703
2672,-174.5625,-73.875,74.125,-0.8896484,0.8671875,-0.6245117,0.1523438,-0.3217773,-0.02294922
2676,-161.5,-74.25,68.1875,-0.7387695,0.8867188,-0.6323242,0.1459961,-0.3256836,-0.04052734
2680,-167.8125,-55,52.6875,-0.6069336,0.9916992,-0.644043,0.1401367,-0.328125,-0.05957031
2684,-170.3125,-21.0625,42.0625,-0.5683594,1.158691,-0.4477539,0.1357422,-0.3266602,-0.07080078
2688,-182.4375,-8.4375,38,-0.7734375,1.36084,-0.2553711,0.1333008,-0.3242188,-0.08447266
2692,-182.1875,-18.3125,42.125,-0.8706055,1.275391,-0.1938477,0.1293945,-0.3217773,-0.09912109
2696,-174.8125,-36.3125,46.6875,-0.831543,1.150879,-0.2705078,0.1235352,-0.3208008,-0.112793
2700,-161.0625,-40.375,46.9375,-0.699707,1.022949,-0.324707,0.1210938,-0.3154297,-0.1264648
2704,-148,-35.75,45.1875,-0.6728516,1.015137,-0.3286133,0.1152344,-0.3120117,-0.1416016
2708,-144.5625,-21.75,40.3125,-0.6303711,1.108398,-0.1630859,0.1118164,-0.3105469,-0.1494141
2712,-147.5,-11.25,33.8125,-0.6455078,1.13916,-0.06689453,0.1069336,-0.3041992,-0.1577148
2716,-147.25,-12.6875,30.9375,-0.7075195,1.026855,0.03271484,0.1044922,-0.2983398,-0.1728516
2720,-140.3125,-24.0625,31.9375,-0.6962891,0.9296875,0.04052734,0.1035156,-0.2929688,-0.1796875
2724,-132.4375,-32.8125,29.875,-0.6455078,0.8325195,0.05175781,0.09960938,-0.2866211,-0.1918945
2728,-124.3125,-37.6875,28.0625,-0.5683594,0.8325195,0.07128906,0.09619141,-0.2807617,-0.199707
2732,-122.5625,-34.3125,20.4375,-0.4868164,0.8867188,0.1171875,0.09521484,-0.2753906,-0.2055664
2736,-122.3125,-30.8125,20.75,-0.4790039,0.8520508,0.144043,0.09033203,-0.2680664,-0.2163086
2740,-119.75,-37.6875,27.4375,-0.3901367,0.6381836,0.02099609,0.08691406,-0.2617188,-0.2246094
2744,-106.0625,-18.5625,23.8125,-0.4287109,1.06543,0.2480469,0.08447266,-0.2568359,-0.2285156
2748,-128.5625,-26.6875,18.8125,-0.5141602,0.8632813,0.1020508,0.08203125,-0.2495117,-0.2368164
2752,-117.125,-24.125,19.875,-0.4287109,0.6303711,-0.01660156,0.07861328,-0.2392578,-0.2436523
2756,-99.375,-19.5,20.625,-0.4326172,0.6186523,-0.1401367,0.07714844,-0.234375,-0.2475586
2760,-85.5,-13.0625,21.375,-0.4672852,0.5566406,-0.2324219,0.07470703,-0.2280273,-0.2543945
2764,-64.5625,-9.125,19.3125,-0.5102539,0.5253906,-0.2475586,0.07373047,-0.2231445,-0.2583008
2768,-42.1875,-9.375,18.0625,-0.4711914,0.4711914,-0.2475586,0.07373047,-0.2216797,-0.2612305
2772,-19.5625,-3.875,14.375,-0.4672852,0.5332031,-0.2783203,0.07128906,-0.2192383,-0.2626953
2776,-3.1875,6.0625,9.4375,-0.3935547,0.4829102,-0.2514648,0.06884766,-0.2182617,-0.2636719
2781,20.4375,17.625,7.3125,-0.4091797,0.5371094,-0.2055664,0.07128906,-0.2192383,-0.2626953
2785,37.1875,30.9375,5.75,-0.3588867,0.6264648,-0.06689453,0.07226563,-0.2207031,-0.2612305
2789,47.3125,41.125,1.3125,-0.4130859,0.7739258,0.144043,0.07373047,-0.2255859,-0.2597656
2793,48.5,42.375,-2.8125,-0.4521484,0.8828125,0.3330078,0.07617188,-0.2255859,-0.2568359
2797,46.6875,35.8125,-3.875,-0.4672852,0.8481445,0.3789063,0.07861328,-0.2304688,-0.2529297
2801,54.5,28.0625,-0.75,-0.4521484,0.7041016,0.2905273,0.07861328,-0.234375,-0.2514648
2805,68.625,21.6875,-0.375,-0.4868164,0.7509766,0.1865234,0.08300781,-0.2368164,-0.2460938
2809,75.9375,12.8125,-8.5,-0.5371094,0.7197266,0.05957031,0.08300781,-0.2416992,-0.2421875
2813,92,9.625,-14.9375,-0.5024414,0.7431641,0.05175781,0.08447266,-0.2480469,-0.2368164
2817,96.4375,8.125,-19.25,-0.4946289,0.9140625,0.02099609,0.08544922,-0.2519531,-0.2324219
2821,99.25,15.0625,-22.0625,-0.4091797,0.8520508,-0.05517578,0.08691406,-0.2583008,-0.2285156
2825,108.5625,25.9375,-21.75,-0.4443359,0.8286133,-0.1860352,0.09033203,-0.265625,-0.21875
2829,123.0625,35.0625,-22.875,-0.5253906,0.7739258,-0.3208008,0.09130859,-0.2680664,-0.2148438
2833,140.75,46.0625,-28.3125,-0.5410156,0.8364258,-0.359375,0.09521484,-0.2753906,-0.2055664
2837,137.4375,68.375,-48.875,-0.5795898,1.104492,-0.2978516,0.09960938,-0.2832031,-0.1943359
2841,124.5,78.625,-67.8125,-0.7617188,1.022949,-0.2631836,0.105957,-0.2856445,-0.1875
2845,131.125,78.1875,-80.625,-0.7695313,0.840332,-0.3359375,0.1152344,-0.2905273,-0.175293
2849,158.625,62.1875,-89.125,-1.037109,0.6577148,-0.3632813,0.125,-0.2954102,-0.1616211
2853,191.25,40.75,-95.4375,-0.9750977,0.8520508,-0.2978516,0.1308594,-0.296875,-0.1538086
2857,184,69,-108.875,-0.5332031,1.302734,-0.1743164,0.1401367,-0.3007813,-0.1347656
2861,140.9375,124.0625,-102.5625,-0.3745117,1.652344,-0.128418,0.1508789,-0.3032227,-0.1196289
2865,92.75,177.25,-88,-0.4169922,1.617188,-0.2324219,0.1616211,-0.3017578,-0.1113281
2869,89.6875,188.1875,-71.3125,-0.9287109,0.9335938,-0.3168945,0.1723633,-0.2983398,-0.09228516
2873,146.6875,137.0625,-41.1875,-1.277344,0.7041016,-0.3398438,0.1821289,-0.2983398,-0.07470703
2877,199.625,87.9375,-7.0625,-1.103027,0.5839844,-0.4667969,0.1831055,-0.2983398,-0.0625
2881,208.75,74.875,-12.1875,-1.044922,1.283203,-0.4248047,0.1855469,-0.3007813,-0.03955078
2885,198.5,91.8125,-19.375,-0.5834961,1.364746,-0.2553711,0.1865234,-0.3007813,-0.01904297
2889,140.875,123.1875,-34.9375,-0.6533203,1.516113,-0.4208984,0.1904297,-0.2993164,-0.005371094
2893,134.125,145.3125,-24,-0.6108398,0.8828125,-0.5322266,0.1904297,-0.2954102,0.01171875
2897,140.9375,137.875,-9.4375,-0.7192383,0.793457,-0.8901367,0.1914063,-0.2919922,0.03076172
2901,174.75,134.3125,-0.1875,-0.8007813,0.6616211,-0.9594727,0.1889648,-0.2919922,0.04589844
2905,201.6875,110.0625,8,-0.8666992,0.7197266,-0.9594727,0.1879883,-0.2866211,0.06787109
2910,215.375,100.75,2.5625,-0.765625,0.953125,-1.024902,0.184082,-0.2817383,0.08935547
2914,198.1875,125.9375,-18.4375,-0.4555664,0.9023438,-1.255371,0.1821289,-0.2729492,0.1015625
2918,211,175.4375,-11.625,-0.4633789,0.6499023,-1.240234,0.1782227,-0.265625,0.1259766
2922,232,179.3125,22.9375,-0.715332,0.8286133,-1.270996,0.1699219,-0.2529297,0.1479492
2926,258.1875,176.625,46.625,-0.6376953,0.7739258,-1.336426,0.1616211,-0.2431641,0.168457
2930,284.875,180.1875,58.9375,-0.715332,0.8481445,-1.221191,0.1499023,-0.2294922,0.1914063
2934,252.6875,169.125,32.125,-1.048828,1.500488,-0.9707031,0.1367188,-0.2119141,0.2143555
2938,206.375,168.75,-0.125,-0.9130859,1.01123,-0.5629883,0.1259766,-0.2006836,0.2294922
2942,175.5,144.3125,-14.0625,-0.9750977,0.7470703,-0.6206055,0.1142578,-0.1831055,0.2431641
2946,170.6875,121.3125,-15.1875,-0.7426758,0.4165039,-0.59375,0.1044922,-0.1679688,0.2539063
2950,176.25,94.9375,0.0625,-0.5991211,0.269043,-0.5786133,0.09863281,-0.1567383,0.262207
2954,175.25,70.375,13.3125,-0.4750977,0.5058594,-0.4208984,0.09130859,-0.1381836,0.2714844
2958,137.0625,54.6875,5.125,-0.5175781,0.7197266,-0.1362305,0.08544922,-0.1254883,0.2797852
2962,79.125,33.375,-19.1875,-0.3935547,0.5332031,-0.04394531,0.08300781,-0.1166992,0.2827148
2966,45.875,18.5625,-27.75,-0.2851563,0.2768555,-0.1899414,0.07958984,-0.1083984,0.2851563
2970,29.9375,7.5625,-26.9375,-0.1303711,0.121582,-0.2783203,0.07861328,-0.1054688,0.2841797
2974,18.9375,3.1875,-18.9375,-0.02978516,0.01269531,-0.4052734,0.07958984,-0.1030273,0.2851563
2978,18.0625,0.25,-12.0625,-0.04101563,-0.05273438,-0.4321289,0.07861328,-0.09960938,0.2880859
2982,11.625,-15.25,-2.75,-0.215332,0.03613281,-0.3666992,0.07861328,-0.09570313,0.2851563
2986,-1.75,-37,-9.25,-0.2041016,0.0009765625,-0.4208984,0.08056641,-0.09570313,0.2851563
2990,-6.8125,-46.4375,-16.1875,-0.1381836,-0.006347656,-0.5517578,0.08447266,-0.09814453,0.2841797
2994,-12.75,-47.8125,-18.3125,0.02050781,0.02441406,-0.6362305,0.08886719,-0.09814453,0.2851563
2998,-20.8125,-38.8125,-13.6875,0.109375,0.121582,-0.6591797,0.09130859,-0.09814453,0.2827148
3002,-31.75,-26.9375,-3.25,0.1557617,0.121582,-0.6323242,0.09619141,-0.09960938,0.28125
3006,-48.3125,-20.1875,8.1875,0.07861328,0.171875,-0.7553711,0.09765625,-0.1044922,0.28125
3010,-54.75,-9.625,11.5,0.02441406,0.01269531,-0.7709961,0.09863281,-0.1083984,0.2783203
3014,-60.875,-8.8125,14.875,-0.08789063,0.05517578,-0.7631836,0.09863281,-0.1132813,0.2758789
3018,-65.875,-17.375,17.875,-0.2543945,0.1992188,-0.6630859,0.09960938,-0.1206055,0.2744141
3022,-81.75,-32.375,10.4375,-0.1806641,0.09033203,-0.8286133,0.1010742,-0.1254883,0.2744141
3026,-77.625,-36.9375,9.5625,-0.2700195,0.1484375,-0.9091797,0.1035156,-0.1342773,0.2705078
3030,-76.125,-48.3125,13.3125,-0.2119141,0.04736328,-0.8901367,0.105957,-0.140625,0.2651367
3034,-68.6875,-61.5625,25.75,-0.3125,0.2807617,-0.7363281,0.1079102,-0.1455078,0.2636719
3039,-87.6875,-76.5625,29.875,-0.2348633,0.4165039,-0.7592773,0.112793,-0.1542969,0.2568359
3043,-104.4375,-70.375,31.875,-0.2387695,0.4594727,-1.036133,0.1201172,-0.1645508,0.2524414
3047,-112.0625,-47.1875,19.1875,-0.1030273,0.008789063,-1.193848,0.1225586,-0.1704102,0.2470703
3051,-87.3125,-41.75,23.125,-0.3745117,0.121582,-1.040039,0.125,-0.1806641,0.2416992
3055,-79.3125,-62.5,37.1875,-0.4790039,0.4243164,-0.6323242,0.1269531,-0.1904297,0.2333984
3059,-91.625,-95.5,52.5625,-0.6416016,0.824707,-0.3666992,0.128418,-0.1958008,0.2280273
3063,-133.5625,-113.0625,49.375,-0.3862305,0.7197266,-0.6479492,0.1333008,-0.2055664,0.2202148
3067,-139.4375,-94.3125,43.375,-0.3974609,0.5644531,-0.7749023,0.1401367,-0.2182617,0.2089844
3071,-143.5625,-91.4375,44.625,-0.5253906,0.5913086,-0.6899414,0.1416016,-0.2255859,0.199707
3075,-142,-108.1875,50.1875,-0.7036133,0.793457,-0.4438477,0.1425781,-0.2382813,0.1860352
3079,-152.125,-141.6875,60.75,-0.8046875,1.09668,-0.4130859,0.1499023,-0.2504883,0.1723633
3083,-170.25,-150.125,64.4375,-0.4868164,0.7666016,-0.59375,0.1523438,-0.2592773,0.1601563
3087,-164.125,-142.5,77.5,-0.5834961,1.034668,-0.7094727,0.1557617,-0.2719727,0.1396484
3091,-178.125,-119.25,81.6875,-0.4052734,0.9335938,-0.6552734,0.1533203,-0.2841797,0.1220703
3095,-185.6875,-95.75,84.5,-0.6533203,1.259766,-0.4936523,0.1533203,-0.2919922,0.1069336
3099,-201.375,-99.625,92.625,-0.8237305,1.399902,-0.3168945,0.1484375,-0.3056641,0.08691406
3103,-210.4375,-115.0625,107.9375,-0.831543,1.407715,-0.3286133,0.144043,-0.3144531,0.06640625
3107,-218.9375,-112.25,114.5,-0.7192383,1.302734,-0.4975586,0.1391602,-0.3232422,0.05126953
3111,-235.0625,-89.625,103.5625,-0.6572266,1.162598,-0.8286133,0.1318359,-0.3320313,0.02539063
3115,-230.8125,-63.8125,81.125,-0.7617188,0.9916992,-0.8208008,0.1235352,-0.3393555,0.002441406
3119,-223.75,-74.125,72.4375,-0.9594727,1.112305,-0.6899414,0.1186523,-0.3393555,-0.008300781
3123,-208.625,-103.0625,66.875,-0.9868164,1.197754,-0.5517578,0.1118164,-0.3417969,-0.03515625
3127,-195.125,-136.9375,64.6875,-0.9208984,1.302734,-0.5092773,0.1035156,-0.3432617,-0.05566406
3131,-184.1875,-156.875,67.8125,-0.7270508,1.345215,-0.5053711,0.1020508,-0.3417969,-0.06933594
3135,-182.8125,-145.3125,68.1875,-0.4248047,1.380371,-0.5551758,0.09033203,-0.3408203,-0.09082031
3139,-190.5,-108.875,64.9375,-0.3510742,1.39209,-0.5864258,0.07958984,-0.3378906,-0.1113281
3143,-197.1875,-76.3125,62.625,-0.4443359,1.283203,-0.6015625,0.07373047,-0.3330078,-0.1235352
3147,-191.6875,-59.0625,53.8125,-0.5644531,1.209473,-0.6054688,0.06640625,-0.3266602,-0.1416016
3151,-176.375,-55.25,48.5,-0.6108398,1.100586,-0.5786133,0.06054688,-0.3208008,-0.1577148
3155,-160.3125,-54,45.3125,-0.5913086,1.088867,-0.5209961,0.05566406,-0.3154297,-0.1674805
3159,-146.75,-41.4375,42.6875,-0.4594727,0.9799805,-0.4438477,0.04980469,-0.3095703,-0.1821289
3163,-140.75,-19,33.4375,-0.4482422,1.003418,-0.378418,0.04492188,-0.2993164,-0.1943359
3168,-135.5625,-6.3125,19.375,-0.5332031,0.921875,-0.4013672,0.04492188,-0.2954102,-0.199707
3172,-116.0625,-4.125,17.5,-0.5795898,0.7817383,-0.3901367,0.04150391,-0.2880859,-0.2080078
3176,-85.0625,-5.375,23.5625,-0.3588867,0.3466797,-0.4902344,0.04052734,-0.2817383,-0.2148438
3180,-62.8125,7.9375,14.9375,-0.6533203,1.081055,-0.309082,0.0390625,-0.2783203,-0.21875
3184,-65.5625,13.6875,-1.9375,-0.4130859,0.7666016,-0.04736328,0.03808594,-0.2744141,-0.2246094
3188,-60.3125,28.625,-12.125,-0.4208984,0.793457,0.06738281,0.04052734,-0.2695313,-0.2285156
3192,-57.625,31.0625,-18.25,-0.4790039,0.8051758,0.2133789,0.04248047,-0.2670898,-0.2285156
3196,-49.75,22.25,-21.3125,-0.4868164,0.6884766,0.3017578,0.04638672,-0.2641602,-0.2324219
3200,-33.9375,5.8125,-17.4375,-0.4750977,0.6733398,0.4057617,0.04882813,-0.2607422,-0.2368164
3204,-24.25,-13.375,-14.375,-0.4404297,0.793457,0.4599609,0.04882813,-0.2592773,-0.237793
3208,-21.6875,-23.5,-15.3125,-0.3432617,0.793457,0.5058594,0.05078125,-0.2543945,-0.2392578
3212,-23.5625,-28.5,-14.5625,-0.262207,0.7895508,0.4750977,0.04980469,-0.2558594,-0.2407227
3216,-26,-25.6875,-13.625,-0.2270508,0.8325195,0.4443359,0.04882813,-0.2543945,-0.2421875
3220,-32.375,-22.9375,-14.125,-0.215332,0.7739258,0.3520508,0.04492188,-0.2519531,-0.2436523
3224,-26.0625,-20.9375,-5.8125,-0.2192383,0.7236328,0.2558594,0.04736328,-0.2480469,-0.2475586
3228,-21.8125,-17.1875,-4.875,-0.2270508,0.7817383,0.1826172,0.04638672,-0.2480469,-0.2490234
3232,-20.4375,-11.1875,-7.3125,-0.2387695,0.7973633,0.144043,0.04638672,-0.2456055,-0.25
3236,-17.375,-1.1875,-7.6875,-0.2543945,0.8286133,0.125,0.04736328,-0.2441406,-0.25
3240,-14.75,11.75,-8.0625,-0.2426758,0.7392578,0.1289063,0.04882813,-0.2416992,-0.2514648
3244,-6.1875,21.1875,-5.9375,-0.296875,0.7119141,0.09033203,0.04736328,-0.2431641,-0.2529297
3248,10.3125,27.5625,0.1875,-0.3354492,0.6499023,0.02880859,0.04980469,-0.2431641,-0.2514648
3252,29.9375,30,6.5625,-0.378418,0.6342773,-0.04003906,0.05224609,-0.2456055,-0.2490234
3256,51.375,31.75,5.6875,-0.4482422,0.7080078,-0.08984375,0.0546875,-0.2441406,-0.2460938
3260,58.5,29.0625,-9.6875,-0.5410156,0.8364258,-0.1362305,0.0546875,-0.2480469,-0.2436523
3264,67.5,33.4375,-24.875,-0.4985352,0.7080078,-0.1860352,0.05566406,-0.2529297,-0.2407227
3268,88.375,39.375,-28.5,-0.4868164,0.6225586,-0.2670898,0.06054688,-0.2558594,-0.2353516
3272,115.0625,41.1875,-25.5,-0.5024414,0.5644531,-0.34375,0.06542969,-0.2631836,-0.2270508
3276,152.625,38.75,-14.875,-0.5683594,0.6772461,-0.3554688,0.06640625,-0.2705078,-0.2216797
3280,170.625,28.4375,-18.375,-0.6069336,0.8671875,-0.3476563,0.06982422,-0.2807617,-0.2109375
3284,176.125,21.5625,-41.25,-0.6416016,1.053711,-0.2822266,0.07470703,-0.2866211,-0.199707
3288,173,16.75,-64.75,-0.6069336,1.019043,-0.2055664,0.07617188,-0.2944336,-0.1889648
3292,184.5625,13.75,-69.4375,-0.5527344,0.9335938,-0.2128906,0.08056641,-0.3032227,-0.1767578
3297,206,8.625,-55.375,-0.5566406,0.8945313,-0.2397461,0.08789063,-0.3105469,-0.1616211
3301,233.0625,1.4375,-30.3125,-0.5253906,0.9257813,-0.3051758,0.08886719,-0.3154297,-0.1508789
3305,249.1875,3.5,-18.875,-0.5527344,1.112305,-0.3515625,0.09277344,-0.3242188,-0.1303711
3309,238.6875,7.75,-31.25,-0.6845703,1.500488,-0.3554688,0.09375,-0.3320313,-0.1098633
3313,205.4375,21.0625,-68.4375,-0.6186523,1.388184,-0.3359375,0.09765625,-0.3369141,-0.09667969
3317,189.4375,36.25,-88.1875,-0.6611328,1.228516,-0.4248047,0.1044922,-0.3408203,-0.07861328
3321,197.625,45.6875,-77.1875,-0.6069336,0.9604492,-0.5439453,0.1118164,-0.3393555,-0.0625
3325,229.875,42.25,-43.6875,-0.6962891,0.8051758,-0.7133789,0.1166992,-0.3393555,-0.04492188
3329,281.625,13,2.5,-0.7543945,0.8012695,-0.7978516,0.1210938,-0.3378906,-0.02294922
3333,294.875,-11.875,-26.25,-0.9477539,1.966797,-0.5668945,0.1210938,-0.3393555,0.002441406
3337,204.0625,-26,-91.5625,-0.7036133,1.791992,-0.3974609,0.1225586,-0.3369141,0.01708984
3341,168.9375,23.8125,-113.1875,-0.3354492,1.578613,-0.3359375,0.1342773,-0.3291016,0.03222656
3345,135.9375,74.125,-103.8125,-0.2700195,1.36084,-0.2783203,0.144043,-0.3208008,0.04882813
3349,110.625,114.5625,-80.1875,-0.362793,1.049805,-0.4628906,0.1474609,-0.3168945,0.05664063
3353,118.1875,133.75,-58.625,-0.6342773,0.7314453,-0.6206055,0.1499023,-0.3105469,0.07177734
3357,136.375,131.25,-33.8125,-0.715332,0.4438477,-0.878418,0.1499023,-0.3032227,0.08935547
3361,185.1875,121.8125,-14.1875,-0.8935547,0.4946289,-0.9633789,0.1499023,-0.2993164,0.1015625
3365,166.8125,108.4375,-64.25,-1.025391,1.193848,-0.9672852,0.1459961,-0.2905273,0.1206055
3369,137.125,112.375,-99.9375,-0.6611328,0.7392578,-1.028809,0.1474609,-0.2783203,0.1396484
3373,135.9375,159.6875,-113.4375,-0.3706055,0.5253906,-1.340332,0.1499023,-0.2705078,0.1479492
3377,143.4375,216.1875,-99.5625,-0.347168,0.5019531,-1.571289,0.1484375,-0.2583008,0.1640625
3381,178.4375,246.0625,-65.0625,-0.7075195,0.3623047,-1.494141,0.1401367,-0.2431641,0.1845703
3385,216.5625,230.5,-26.5,-0.9013672,0.6030273,-1.394043,0.1318359,-0.2319336,0.2011719
3389,210.875,212.3125,-44.625,-1.041016,1.120117,-1.070801,0.1176758,-0.2128906,0.2211914
3393,178.0625,200.25,-61.8125,-0.8007813,1.034668,-0.7133789,0.105957,-0.1958008,0.2402344
3397,146.25,180.0625,-69.6875,-0.78125,0.9995117,-0.4477539,0.09765625,-0.1845703,0.25
3401,114.6875,139.875,-50.3125,-0.730957,0.8789063,-0.3286133,0.08691406,-0.1694336,0.2607422
3405,102.75,95.5,-29.75,-0.5024414,0.5214844,-0.2670898,0.07714844,-0.1582031,0.269043
3409,93.5,65.3125,-10.6875,-0.3510742,0.4790039,-0.3051758,0.06982422,-0.1508789,0.2744141
3413,80.0625,44.4375,0.0625,-0.2001953,0.4013672,-0.1899414,0.06787109,-0.1430664,0.2797852
3417,49.1875,38.8125,-2.125,-0.06445313,0.5566406,-0.1743164,0.06396484,-0.1357422,0.28125
3421,12.0625,43.6875,-6.75,0.07080078,0.4790039,-0.1474609,0.06152344,-0.1308594,0.28125
3426,-18.1875,47.3125,-1.375,0.1054688,0.2963867,-0.2592773,0.05712891,-0.1318359,0.2841797
3430,-30.625,44.375,4.25,-0.01806641,0.07470703,-0.4516602,0.0546875,-0.1342773,0.2841797
3434,-26.1875,34.875,1.875,-0.08007813,-0.06835938,-0.5092773,0.05078125,-0.1367188,0.2851563
3438,-21.9375,16.5625,3.5625,-0.1572266,-0.06054688,-0.5322266,0.04736328,-0.1381836,0.2841797
3442,-19.3125,-2.125,0.5,-0.1650391,-0.006347656,-0.5551758,0.04492188,-0.1420898,0.28125
3446,-27.125,-15.8125,-5.3125,-0.1030273,0.08251953,-0.5898438,0.04638672,-0.1420898,0.2841797
3450,-38.3125,-16.3125,-8.0625,-0.04882813,0.1176758,-0.5864258,0.04980469,-0.1445313,0.2841797
3454,-47.3125,-24.3125,-4.5625,-0.1499023,0.1679688,-0.6708984,0.05078125,-0.1508789,0.2773438
3458,-52.625,-32.875,-4.3125,-0.1030273,0.1445313,-0.7592773,0.05224609,-0.1533203,0.2783203
3462,-57.0625,-35.5625,-3.5625,-0.09912109,0.1367188,-0.9130859,0.05712891,-0.1567383,0.2758789
3466,-52.25,-31.0625,-3.875,-0.08007813,0.08642578,-0.9360352,0.05810547,-0.1630859,0.2729492
3470,-54.75,-30.625,-1.4375,-0.1342773,0.1914063,-0.9746094,0.05957031,-0.1679688,0.2705078
3474,-55.75,-33.0625,0.4375,-0.1728516,0.253418,-0.8710938,0.06152344,-0.1694336,0.2675781
3478,-69.625,-43.5625,0.75,-0.230957,0.3505859,-0.8823242,0.06787109,-0.1767578,0.2651367
3482,-75.25,-47.625,1.625,-0.2583008,0.3310547,-0.8208008,0.06884766,-0.1821289,0.2607422
3486,-85.1875,-59.0625,-0.4375,-0.3046875,0.3349609,-0.8208008,0.07226563,-0.1894531,0.2583008
3490,-90.1875,-70.625,0.875,-0.4169922,0.4438477,-0.8710938,0.07861328,-0.1982422,0.2539063
3494,-94.75,-81.4375,-7.6875,-0.3085938,0.1293945,-0.9902344,0.08203125,-0.2016602,0.2460938
3498,-81.5625,-88.9375,-6.75,-0.4555664,0.3662109,-0.9438477,0.08886719,-0.2094727,0.2392578
3502,-80.875,-109.3125,-0.875,-0.4052734,0.4399414,-0.7670898,0.09619141,-0.2158203,0.2324219
3506,-91.25,-124.5625,13.5,-0.3974609,0.8051758,-0.8554688,0.1044922,-0.2207031,0.2270508
3510,-113.375,-100.875,1.625,-0.01416016,0.3935547,-0.9902344,0.1103516,-0.2294922,0.2158203
3514,-112.625,-69.875,7.625,-0.1499023,0.5878906,-1.121094,0.1166992,-0.2368164,0.206543
3518,-110.125,-49.125,23.875,-0.1499023,0.4946289,-0.9785156,0.1186523,-0.2431641,0.2011719
3522,-105.75,-45.6875,56.375,-0.2700195,0.8129883,-0.8056641,0.1186523,-0.2504883,0.1928711
3526,-124,-31.1875,72.25,-0.2270508,0.953125,-0.7670898,0.1176758,-0.2617188,0.1806641
3530,-163.8125,2.5625,52.1875,-0.2192383,0.6147461,-1.182617,0.1142578,-0.2719727,0.175293
3534,-142.375,22.0625,29.9375,-0.6225586,0.3583984,-1.109375,0.1103516,-0.2807617,0.1640625
3538,-123.1875,-10.4375,25.625,-0.8085938,0.5913086,-0.9169922,0.109375,-0.2880859,0.1533203
3542,-110.375,-49.0625,21.1875,-0.7426758,0.8051758,-0.5786133,0.1069336,-0.2944336,0.1494141
3546,-120.375,-80.4375,17.5,-0.5795898,1.209473,-0.3632813,0.1069336,-0.3017578,0.1396484
3550,-146.875,-88.8125,24.625,-0.3393555,1.353027,-0.3359375,0.1103516,-0.3081055,0.1235352
3555,-181.0625,-66.25,21.1875,-0.1845703,1.333496,-0.4052734,0.1103516,-0.3144531,0.1123047
3559,-208.5625,-38.3125,10.3125,-0.3320313,1.283203,-0.4360352,0.1118164,-0.3217773,0.09472656
3563,-226.4375,-32.0625,-1.25,-0.5214844,1.112305,-0.5244141,0.1118164,-0.3291016,0.07421875
3567,-212.375,-58.75,-3,-0.7617188,1.038574,-0.4824219,0.112793,-0.3320313,0.06103516
3571,-195.625,-102.125,12.0625,-0.6494141,1.088867,-0.5361328,0.1142578,-0.3369141,0.0390625
3575,-184.6875,-116.375,17.9375,-0.4482422,1.178223,-0.5092773,0.1152344,-0.3408203,0.01708984
3579,-192.5,-104.6875,26.75,-0.2270508,1.182129,-0.644043,0.112793,-0.3408203,0.006347656
3583,-199.8125,-66.375,16.8125,-0.230957,1.205566,-0.6015625,0.1103516,-0.3432617,-0.01464844
3587,-212.0625,-48.125,10.9375,-0.3549805,1.154785,-0.6015625,0.109375,-0.3417969,-0.03515625
3591,-209.0625,-47.375,6.875,-0.4790039,1.116211,-0.5551758,0.109375,-0.3432617,-0.05029297
3595,-195.125,-63.5,12.9375,-0.4790039,1.06543,-0.5478516,0.1069336,-0.3393555,-0.07080078
3599,-180,-70.0625,17.0625,-0.4130859,1.174316,-0.4707031,0.1035156,-0.3354492,-0.08984375
3603,-181.5,-64.1875,18.5625,-0.2929688,1.232422,-0.4438477,0.09960938,-0.3344727,-0.1020508
3607,-180.6875,-39.5625,20.8125,-0.246582,1.154785,-0.3745117,0.09863281,-0.3291016,-0.1181641
3611,-176.875,-27.0625,18.875,-0.4052734,1.150879,-0.34375,0.09521484,-0.3217773,-0.1347656
3615,-163.5,-29.9375,19.0625,-0.4829102,1.104492,-0.2939453,0.09277344,-0.3168945,-0.1455078
3619,-144.0625,-41.75,26.5,-0.5214844,1.17041,-0.2016602,0.08789063,-0.3120117,-0.1577148
3623,-131,-47.4375,32.9375,-0.3935547,1.209473,-0.1669922,0.08544922,-0.3066406,-0.1699219
3627,-123.375,-31.1875,34.4375,-0.3510742,1.225098,-0.2514648,0.08300781,-0.3017578,-0.175293
3631,-119.4375,-2,26.125,-0.3432617,1.022949,-0.4667969,0.07958984,-0.2954102,-0.1850586
3635,-99.75,30.125,10.3125,-0.4985352,0.8168945,-0.5976563,0.07714844,-0.2895508,-0.1943359
3639,-66.8125,26.875,9.375,-0.7773438,0.7587891,-0.7016602,0.08056641,-0.2856445,-0.1987305
3643,-26.5,4.8125,6.6875,-0.7192383,0.6538086,-0.6669922,0.07958984,-0.2841797,-0.1987305
3647,17.75,-3.125,24.1875,-0.3666992,0.5371094,-0.5209961,0.07958984,-0.2817383,-0.2026367
3651,7.25,-1.0625,-3.4375,-0.5063477,1.061523,-0.5244141,0.07861328,-0.2856445,-0.199707
3655,-4.25,9.1875,-20.5,-0.2773438,0.8520508,-0.34375,0.08203125,-0.2841797,-0.1972656
3659,-7.875,31.25,-26.75,-0.1459961,0.6962891,-0.2514648,0.08300781,-0.2817383,-0.1987305
3663,-2.5,52,-23,-0.1611328,0.6733398,-0.1513672,0.08691406,-0.2817383,-0.1987305
3667,10.875,56.125,-6,-0.246582,0.5839844,-0.07861328,0.08886719,-0.2832031,-0.1972656
3671,35.375,53.0625,14.875,-0.2773438,0.6225586,0.03271484,0.09033203,-0.2807617,-0.1928711
3675,43.5,45.125,24.8125,-0.3823242,0.875,0.1518555,0.09277344,-0.2832031,-0.1918945
3679,30.125,37.1875,17.3125,-0.4365234,0.9643555,0.2636719,0.09375,-0.2895508,-0.1850586
3684,22.25,29.8125,6.9375,-0.4633789,0.8442383,0.2441406,0.09619141,-0.2919922,-0.1835938
3688,23.5625,16.1875,5.5625,-0.5024414,0.793457,0.1748047,0.09619141,-0.2895508,-0.1835938
3692,32.9375,5.125,4.0625,-0.4829102,0.7626953,0.07519531,0.09521484,-0.2919922,-0.1796875
3696,41.6875,-3.8125,4.8125,-0.4868164,0.8129883,-0.02050781,0.09375,-0.2929688,-0.1767578
3700,48.125,-4.8125,4.9375,-0.362793,0.855957,-0.112793,0.09619141,-0.2944336,-0.175293
3704,49.9375,12,-1.5,-0.2851563,0.9335938,-0.2167969,0.09375,-0.296875,-0.1713867
3708,45.6875,32.8125,-8.0625,-0.3320313,0.9414063,-0.2861328,0.09521484,-0.3017578,-0.1674805
3712,48.75,42.8125,-13.8125,-0.4521484,0.890625,-0.3901367,0.09765625,-0.3017578,-0.1645508
3716,58.625,43.8125,-19.125,-0.5253906,0.8325195,-0.4321289,0.1020508,-0.3032227,-0.1591797
3720,73.3125,40.875,-22.8125,-0.5913086,0.824707,-0.4707031,0.1069336,-0.3041992,-0.1547852
3724,93,32.875,-21.8125,-0.6494141,0.7626953,-0.4785156,0.1079102,-0.3081055,-0.1484375
3728,110.375,35.75,-30.25,-0.5371094,0.824707,-0.4936523,0.109375,-0.3120117,-0.1401367
3732,122.75,45.125,-37,-0.5449219,0.8671875,-0.4863281,0.1152344,-0.3154297,-0.1303711
3736,126.0625,54.4375,-43.4375,-0.5141602,0.9453125,-0.5014648,0.1186523,-0.3168945,-0.1210938
3740,128,72.25,-51.5625,-0.4907227,1.007324,-0.5209961,0.1225586,-0.3208008,-0.1098633
3744,124.75,86.5,-57.0625,-0.5566406,1.019043,-0.5170898,0.1318359,-0.3217773,-0.09521484
3748,132.125,89.125,-55.375,-0.6030273,0.953125,-0.5322266,0.1357422,-0.3242188,-0.08691406
3752,148.875,82.4375,-49.4375,-0.6572266,0.9916992,-0.5322266,0.1401367,-0.3217773,-0.07177734
3756,165.625,77.0625,-40.6875,-0.6030273,1.04248,-0.5244141,0.1459961,-0.3232422,-0.05566406
3760,167.75,77.5625,-41.1875,-0.5913086,1.213379,-0.5361328,0.1484375,-0.3242188,-0.04199219
3764,157.8125,85.9375,-50.3125,-0.5214844,1.291016,-0.5014648,0.1533203,-0.3232422,-0.02587891
3768,156.3125,99.875,-38.8125,-0.5253906,1.143066,-0.4555664,0.1582031,-0.3208008,-0.006835938
3772,162.625,88.1875,-1.125,-0.6923828,1.20166,-0.5092773,0.1606445,-0.3178711,0.00390625
3776,184.625,62.5,42.375,-0.7114258,1.158691,-0.4863281,0.1582031,-0.3178711,0.02294922
3780,182.5,45.3125,44.125,-0.5332031,1.321777,-0.628418,0.1533203,-0.3178711,0.0390625
3784,149.375,59.3125,-12.375,-0.5332031,1.388184,-0.5825195,0.1523438,-0.3154297,0.05273438
3788,139.5,71.4375,-27.8125,-0.362793,1.197754,-0.3974609,0.1533203,-0.3105469,0.06787109
3792,122.75,81.4375,-21.875,-0.3393555,1.283203,-0.3862305,0.1533203,-0.3056641,0.08105469
3796,109.375,83.5625,-10.3125,-0.328125,1.061523,-0.4477539,0.1523438,-0.3032227,0.09228516
3800,108.75,90.0625,-1.75,-0.2387695,0.6733398,-0.6860352,0.1499023,-0.296875,0.1044922
3804,125.125,90.75,6.375,-0.3320313,0.6811523,-0.9555664,0.1450195,-0.2919922,0.1191406
3808,137.75,101.6875,7.5625,-0.2080078,0.3896484,-1.086426,0.1450195,-0.2895508,0.1303711
3813,153.375,108.9375,8,-0.296875,0.4672852,-1.224609,0.1391602,-0.2817383,0.1425781
3817,155.25,100.3125,3.5625,-0.4443359,0.6616211,-1.151855,0.1318359,-0.2729492,0.1586914
3821,170.125,102.8125,8.1875,-0.230957,0.4282227,-1.132324,0.128418,-0.2670898,0.1699219
3825,183.875,114.4375,18.1875,-0.1499023,0.4516602,-1.38623,0.1225586,-0.2568359,0.1845703
3829,212.9375,129.8125,37.375,-0.2119141,0.5214844,-1.375,0.1142578,-0.2441406,0.2036133
3833,220.5,140.0625,45.6875,-0.2426758,0.7119141,-1.255371,0.105957,-0.234375,0.2172852
3837,219.625,148.625,44.3125,-0.4907227,0.953125,-0.9360352,0.09277344,-0.2182617,0.2348633
3841,189.1875,116.6875,28.375,-0.7348633,1.01123,-0.7402344,0.07958984,-0.2016602,0.25
3845,179.125,92.5,28.375,-0.4750977,0.6733398,-0.6591797,0.07226563,-0.1943359,0.2553711
3849,168.1875,80.75,39,-0.3007813,0.6538086,-0.5517578,0.06396484,-0.1757813,0.2661133
3853,140.3125,67.75,57.3125,-0.4711914,0.824707,-0.4091797,0.05566406,-0.1591797,0.2744141
3857,105.875,36.3125,44.25,-0.4326172,0.4399414,-0.3515625,0.04882813,-0.1542969,0.2783203
3861,87.5625,19.75,29.75,-0.2773438,0.315918,-0.4091797,0.04736328,-0.1445313,0.2827148
3865,63.375,16.75,16.1875,-0.1147461,0.2963867,-0.3325195,0.04492188,-0.1381836,0.2866211
3869,32.5,20.875,2.125,-0.1147461,0.2651367,-0.3515625,0.04394531,-0.1342773,0.2866211
3873,14.3125,12.0625,-2.4375,-0.230957,0.2070313,-0.359375,0.04248047,-0.1308594,0.2880859
3877,-1.8125,-5.125,-3,-0.1225586,0.01269531,-0.559082,0.04052734,-0.1308594,0.2895508
3881,1.25,-11.5625,0.25,-0.1533203,-0.002441406,-0.6860352,0.04052734,-0.1293945,0.2880859
3885,1.125,-17.1875,-4.8125,-0.01806641,-0.1616211,-0.7441406,0.04150391,-0.1318359,0.2880859
3889,4.875,-18.5625,-3.5,-0.07226563,0.004882813,-0.7749023,0.04638672,-0.1308594,0.2895508
3893,0.5,-19.1875,-2.3125,0.03173828,0.05517578,-0.7094727,0.04638672,-0.1279297,0.2866211
3897,-15.375,-12.875,-4.5,0.09765625,0.1098633,-0.7783203,0.04882813,-0.1293945,0.2866211
3901,-21.8125,-3.625,-1.4375,0.07470703,0.04003906,-0.7592773,0.04980469,-0.1318359,0.2866211
3905,-31.6875,-2.375,-2.9375,-0.03320313,0.09814453,-0.8056641,0.04882813,-0.1333008,0.2866211
3909,-34,-9.25,-4.5,-0.1186523,0.1293945,-0.7749023,0.04882813,-0.1357422,0.2851563
3913,-43,-19.75,-8.125,-0.07617188,0.1137695,-0.7783203,0.04980469,-0.1396484,0.2841797
3917,-49.8125,-24.1875,-7.375,-0.06054688,0.1757813,-0.7978516,0.05078125,-0.1445313,0.28125
3921,-54.75,-28.9375,-2.9375,-0.1147461,0.1484375,-0.7475586,0.05322266,-0.1479492,0.2783203
3925,-62.75,-39.625,-5.6875,-0.1767578,0.1484375,-0.8710938,0.05712891,-0.1542969,0.2783203
3929,-58.3125,-48.25,-4.125,-0.230957,0.1333008,-0.8823242,0.05957031,-0.1591797,0.2758789
3933,-61.625,-54.9375,-13.5625,-0.07226563,0.07080078,-0.9672852,0.06396484,-0.1645508,0.2714844
3937,-59.0625,-49.375,-8.0625,-0.1342773,0.2612305,-0.9438477,0.07128906,-0.1704102,0.2675781
3942,-66.5625,-49.6875,-13.375,-0.06835938,0.02832031,-1.097656,0.07226563,-0.1733398,0.2651367
3946,-53.5,-44,-8.3125,-0.1806641,0.1640625,-1.151855,0.07714844,-0.1791992,0.2607422
3950,-45.0625,-41,-12.1875,-0.1108398,-0.05273438,-1.15918,0.08056641,-0.1845703,0.2568359
3954,-30.6875,-46.3125,-9.1875,-0.3320313,0.1293945,-1.070801,0.08300781,-0.1855469,0.2568359
3958,-24.5625,-61.5625,-17.5625,-0.4169922,0.1137695,-0.9208984,0.08789063,-0.1855469,0.2539063
3962,-28.5,-88.3125,-37.4375,-0.4829102,0.171875,-1.036133,0.09521484,-0.1894531,0.2485352
3966,-20.8125,-91,-51.3125,-0.08789063,0.2807617,-1.032227,0.1010742,-0.1894531,0.2460938
3970,-32.5,-80.625,-33.75,0.04736328,0.4711914,-0.9941406,0.1103516,-0.1904297,0.2416992
3974,-44.25,-59.625,-22.125,-0.02197266,0.3974609,-0.9169922,0.1152344,-0.1933594,0.237793
3978,-50.9375,-56.6875,-11.6875,-0.2387695,0.3427734,-0.8056641,0.1201172,-0.1967773,0.2348633
3982,-59.875,-64.25,-8.8125,-0.3046875,0.4360352,-0.8710938,0.125,-0.1992188,0.2280273
3986,-66.5,-52.8125,-8.5625,-0.246582,0.3662109,-0.7978516,0.1318359,-0.2045898,0.2241211
3990,-78.5625,-51.9375,-12.0625,-0.3823242,0.5136719,-0.7861328,0.1318359,-0.2094727,0.21875
3994,-84.0625,-52.9375,-4.9375,-0.3666992,0.5527344,-0.6245117,0.1376953,-0.2143555,0.2119141
3998,-99.25,-57.6875,3.375,-0.4208984,0.777832,-0.4360352,0.1401367,-0.2207031,0.206543
4002,-124.1875,-65.6875,10.75,-0.4482422,0.956543,-0.2822266,0.1416016,-0.2255859,0.199707
4006,-165.0625,-72.5,7.3125,-0.4482422,0.7705078,-0.7749023,0.1474609,-0.2368164,0.1860352
4010,-145.75,-59.75,7.9375,-0.4868164,0.4282227,-0.7709961,0.1508789,-0.2480469,0.1762695
4014,-144.9375,-68.0625,13.6875,-0.6728516,0.8442383,-0.6132813,0.1523438,-0.2519531,0.168457
4018,-156,-84.125,10.4375,-0.7578125,0.9682617,-0.3515625,0.1547852,-0.2617188,0.1518555
4022,-171.875,-110.5625,15.1875,-0.7773438,1.205566,-0.2207031,0.1582031,-0.2719727,0.1357422
4026,-194.875,-124.25,19.1875,-0.6533203,1.263672,-0.3168945,0.1616211,-0.2768555,0.1235352
4030,-218.4375,-119.5625,10.5,-0.4672852,0.8129883,-0.809082,0.1665039,-0.2880859,0.1030273
4034,-195.25,-101.625,10.875,-0.6147461,0.793457,-0.8632813,0.1665039,-0.2954102,0.08105469
4038,-188.3125,-107.1875,13.25,-0.7192383,0.9492188,-0.6787109,0.1674805,-0.3007813,0.06787109
4042,-183.6875,-119.5625,13.25,-0.7890625,1.143066,-0.4594727,0.1699219,-0.3066406,0.04589844
4046,-191.5,-139.625,20.0625,-0.78125,1.380371,-0.3012695,0.1699219,-0.3095703,0.02294922
4050,-207,-147.1875,25.9375,-0.6884766,1.49707,-0.2246094,0.1699219,-0.3120117,0.0078125
4054,-235.75,-133.25,19.875,-0.5756836,1.547363,-0.4208984,0.1689453,-0.3154297,-0.01611328
4058,-253.0625,-97.4375,5.0625,-0.5141602,1.368652,-0.4707031,0.1650391,-0.3154297,-0.04199219
4062,-269.9375,-77.25,-13.3125,-0.8588867,1.512207,-0.4399414,0.1640625,-0.3144531,-0.06103516
4066,-283.6875,-93.125,-40.375,-1.15332,1.49707,-0.2783203,0.1640625,-0.3066406,-0.08837891
4071,-278.125,-130.125,-51.625,-1.133789,1.225098,-0.2089844,0.1640625,-0.296875,-0.1142578
4075,-259.75,-136.25,-43.5,-0.7192383,1.426758,-0.1513672,0.1650391,-0.2880859,-0.1303711
4079,-274.1875,-96.875,-19.875,-0.2583008,1.418945,-0.3208008,0.1630859,-0.2753906,-0.15625
4083,-280.1875,-35.5625,10.9375,-0.262207,1.209473,-0.5244141,0.1567383,-0.2617188,-0.1806641
4087,-261.375,-7.75,28.875,-0.7036133,0.9492188,-0.6171875,0.1567383,-0.2529297,-0.1889648
4091,-225.0625,-21.125,29.4375,-1.001953,0.8129883,-0.5976563,0.1557617,-0.2392578,-0.2055664
4095,-185.1875,-50.6875,16.9375,-1.033203,0.7275391,-0.6054688,0.1523438,-0.2280273,-0.2177734
4099,-139.5,-69.8125,17.375,-0.7890625,0.6108398,-0.628418,0.1459961,-0.2207031,-0.2246094
4103,-100.625,-65.875,23.8125,-0.5449219,0.6381836,-0.6171875,0.1425781,-0.2119141,-0.2338867
4107,-68.25,-47.9375,39.3125,-0.3510742,0.6381836,-0.5439453,0.1376953,-0.2080078,-0.2392578
4111,-47.625,-26.5,50.9375,-0.1533203,0.5292969,-0.5825195,0.1333008,-0.2055664,-0.2460938
4115,-33.6875,16,56.375,-0.4633789,1.255859,-0.2939453,0.1293945,-0.2055664,-0.2475586
4119,-53.75,31.5,41.25,-0.4208984,0.8632813,-0.07470703,0.128418,-0.2045898,-0.2475586
4123,-43.75,43.6875,31.4375,-0.4868164,0.6186523,-0.01660156,0.1293945,-0.203125,-0.2460938
4127,-27.375,43.5,26.5,-0.5605469,0.5644531,0.06738281,0.1308594,-0.2016602,-0.2490234
4131,-12.6875,38.0625,21.3125,-0.5991211,0.5371094,0.1748047,0.1333008,-0.1992188,-0.2490234
4135,1.8125,25.125,22.1875,-0.6186523,0.5488281,0.2636719,0.1342773,-0.2006836,-0.2460938
4139,15.125,14.875,20.3125,-0.5991211,0.6342773,0.3442383,0.1342773,-0.203125,-0.2446289
4143,11.875,4.5,10.375,-0.6186523,0.8442383,0.375,0.1357422,-0.2045898,-0.2436523
4147,0.625,-4.0625,0.125,-0.5756836,0.7973633,0.3364258,0.1342773,-0.203125,-0.2436523
4151,5.0625,-4.1875,-3.25,-0.5175781,0.6845703,0.2905273,0.1333008,-0.2055664,-0.2436523
4155,10.375,-3.125,-3.125,-0.5566406,0.7314453,0.2172852,0.1342773,-0.2055664,-0.2407227
4159,15,-6.75,-3.0625,-0.6030273,0.6962891,0.1748047,0.1333008,-0.2055664,-0.2421875
4163,28.125,-10.75,-3.625,-0.5952148,0.6108398,0.09814453,0.1342773,-0.2070313,-0.2421875
4167,43.125,-17.75,-6.9375,-0.6611328,0.6381836,0.04443359,0.1318359,-0.2080078,-0.2421875
4171,58.0625,-25.375,-10.875,-0.6030273,0.6420898,-0.01660156,0.1318359,-0.2104492,-0.2407227
4175,71.9375,-24.5625,-16,-0.5175781,0.7119141,-0.1362305,0.1293945,-0.2143555,-0.2392578
4179,81.8125,-11.5625,-19.375,-0.4052734,0.7509766,-0.2016602,0.1293945,-0.2192383,-0.2368164
4183,89.6875,8.4375,-16.6875,-0.3510742,0.8598633,-0.2324219,0.1293945,-0.2246094,-0.2324219
4187,95.3125,31.875,-13,-0.3432617,0.8286133,-0.2324219,0.1333008,-0.2280273,-0.2285156
4191,105.25,45.25,-7.375,-0.4829102,0.855957,-0.2285156,0.1342773,-0.234375,-0.2231445
4195,117.4375,47,-7.375,-0.5952148,0.793457,-0.2397461,0.1367188,-0.2382813,-0.2163086
4200,137.75,42.875,-8.6875,-0.6767578,0.809082,-0.2324219,0.1401367,-0.2470703,-0.2080078
4204,143.6875,55.1875,-15.6875,-0.4365234,0.9296875,-0.2128906,0.1425781,-0.2529297,-0.1958008
4208,143.6875,90.0625,-12.1875,-0.3935547,1.073242,-0.1362305,0.1484375,-0.2607422,-0.1889648
4212,121.875,119.25,-12.5,-0.4521484,1.213379,-0.05517578,0.1533203,-0.2670898,-0.175293
4216,112,139.9375,-8.3125,-0.5488281,1.06543,-0.06298828,0.1606445,-0.2719727,-0.1616211
4220,113.5625,146.0625,0.5,-0.6455078,1.09668,-0.05126953,0.1630859,-0.2744141,-0.1508789
4224,105.4375,140.75,-6.375,-0.8046875,1.108398,-0.09765625,0.1713867,-0.2792969,-0.137207
4228,115.0625,125.25,-7.4375,-0.847168,0.890625,-0.128418,0.1748047,-0.2817383,-0.1225586
4232,141.9375,108.25,8.0625,-0.730957,0.7973633,-0.1669922,0.1772461,-0.2856445,-0.112793
4236,158.1875,104.125,27.8125,-0.6455078,1.124023,-0.1708984,0.1796875,-0.2905273,-0.09521484
4240,149.3125,104.4375,28.25,-0.6884766,1.306641,-0.1435547,0.1821289,-0.296875,-0.08007813
4244,128.4375,101,14.8125,-0.730957,1.291016,-0.1630859,0.1821289,-0.2993164,-0.06542969
4248,117.875,92.25,6.0625,-0.7426758,1.092773,-0.2167969,0.1796875,-0.3017578,-0.05029297
4252,124.1875,79.375,5.4375,-0.7231445,0.890625,-0.3208008,0.1821289,-0.3032227,-0.03662109
4256,143.875,82,15.5,-0.6303711,1.088867,-0.3974609,0.1806641,-0.3041992,-0.02587891
4260,149.125,67.875,25.0625,-0.5644531,0.7856445,-0.5014648,0.1796875,-0.3041992,-0.01220703
4264,152.125,73,23,-0.4907227,1.104492,-0.5825195,0.1782227,-0.3056641,0.004882813
4268,147.8125,77.3125,23.6875,-0.4985352,0.9799805,-0.6513672,0.1757813,-0.3066406,0.01708984
4272,149.1875,79,22.0625,-0.5063477,1.030762,-0.7207031,0.1757813,-0.3041992,0.03369141
4276,149.5625,79.3125,19.3125,-0.4829102,0.8520508,-0.8364258,0.1713867,-0.3007813,0.04882813
4280,168.625,81.5625,29.25,-0.4287109,0.8129883,-0.8632813,0.1713867,-0.3032227,0.05810547
4284,173.75,92.375,38.875,-0.3432617,0.9760742,-0.878418,0.1665039,-0.2993164,0.07714844
4288,166.25,122.375,45.6875,-0.09130859,1.038574,-0.9438477,0.1582031,-0.2954102,0.09619141
4292,148.9375,161.625,43.6875,-0.05664063,0.9799805,-1.297852,0.1547852,-0.2919922,0.1113281
4296,141.875,189.0625,19.125,-0.1303711,0.9995117,-1.586426,0.1450195,-0.2856445,0.1289063
4300,165.75,219.3125,23.75,-0.3046875,0.8632813,-1.45166,0.1333008,-0.2792969,0.1518555
4304,189.75,216.4375,38.125,-0.6533203,0.9643555,-1.232422,0.1259766,-0.2729492,0.1669922
4308,211.8125,184.125,65.1875,-0.9169922,1.112305,-0.9516602,0.109375,-0.2617188,0.1875
4312,207.5625,147.375,84.8125,-0.7617188,1.259766,-0.7324219,0.09521484,-0.2480469,0.206543
4316,176.8125,127.1875,73.5625,-0.862793,1.20166,-0.5864258,0.08300781,-0.2416992,0.2202148
4320,149.25,86.6875,47.5,-0.7543945,0.6962891,-0.7167969,0.07226563,-0.2294922,0.2333984
4324,164.5,64.4375,41.625,-0.6147461,0.4204102,-0.7167969,0.06396484,-0.2192383,0.2446289
4329,162.6875,38.1875,34.8125,-0.3354492,0.3505859,-0.6630859,0.06054688,-0.2080078,0.25
4333,152.375,34.9375,34.3125,-0.2426758,0.4946289,-0.6401367,0.05712891,-0.1958008,0.2583008
4337,126.5625,33.8125,30.9375,-0.2661133,0.4946289,-0.4555664,0.04980469,-0.1806641,0.2661133
4341,99.75,21.3125,23.875,-0.3354492,0.4125977,-0.3974609,0.04736328,-0.1757813,0.269043
4345,74.5,10.4375,13.1875,-0.2504883,0.3857422,-0.3706055,0.04394531,-0.1669922,0.2758789
4349,50.6875,8.75,7,-0.08007813,0.2148438,-0.378418,0.04394531,-0.1591797,0.2773438
4353,39.5,11.75,8.875,-0.06054688,0.09423828,-0.3325195,0.04394531,-0.1582031,0.2797852
4357,23.375,2.6875,7.375,-0.1767578,0.2109375,-0.2939453,0.04394531,-0.1557617,0.2797852
4361,2.875,-14.8125,-3.4375,-0.2041016,0.1796875,-0.4360352,0.04394531,-0.1533203,0.2797852
4365,-0.5,-20.0625,-8.3125,0.0009765625,-0.05664063,-0.5361328,0.04394531,-0.1533203,0.2797852
4369,1.375,-19.75,-10.125,-0.06054688,0.01660156,-0.5864258,0.04492188,-0.1518555,0.28125
4373,-5.1875,-28.8125,-13.4375,-0.1264648,0.1523438,-0.59375,0.04638672,-0.1518555,0.2797852
4377,-16.125,-32.3125,-17.0625,0.07080078,0.1176758,-0.644043,0.04980469,-0.1518555,0.2783203
4381,-22.875,-22.0625,-6.4375,0.1132813,0.1254883,-0.6513672,0.0546875,-0.1542969,0.2797852
4385,-34.3125,-16.4375,-3.5625,-0.02197266,0.2226563,-0.6977539,0.05566406,-0.1567383,0.2773438
4389,-44.875,-20.8125,-7.5,-0.1381836,0.2148438,-0.7402344,0.05566406,-0.1591797,0.2758789
4393,-49.625,-31.6875,-17.9375,-0.08789063,0.1445313,-0.9091797,0.05957031,-0.1669922,0.2729492
4397,-41.1875,-27.9375,-17,0.08251953,0.07080078,-0.8862305,0.06152344,-0.1704102,0.269043
4401,-43.8125,-17.5,-6.3125,0.05126953,0.2612305,-0.7285156,0.06396484,-0.1704102,0.2705078
4405,-60.9375,-11.125,0,-0.1225586,0.4360352,-0.4707031,0.06396484,-0.1757813,0.2661133
4409,-94.375,-22.9375,-6.5625,-0.4365234,0.7314453,-0.4052734,0.06640625,-0.1831055,0.2607422
4413,-135.875,-55.0625,-46.0625,-0.3320313,0.4555664,-1.005371,0.06884766,-0.1894531,0.2592773
4417,-104.6875,-43.25,-45.25,0.02832031,-0.07226563,-1.086426,0.07470703,-0.1992188,0.2524414
4421,-79.5625,-44.75,-25.875,-0.1650391,0.2768555,-0.8632813,0.08056641,-0.2055664,0.2431641
4425,-80.9375,-54.875,-15.1875,-0.296875,0.6186523,-0.4594727,0.08300781,-0.2104492,0.2402344
4429,-123.5,-73.4375,-24.6875,-0.4052734,0.9604492,-0.4360352,0.09130859,-0.2182617,0.2348633
4433,-167.25,-80.125,-39.4375,-0.3432617,0.8867188,-0.8208008,0.09619141,-0.2280273,0.2241211
4437,-165.625,-74.875,-43.1875,-0.1689453,0.3193359,-0.9785156,0.1020508,-0.2368164,0.2172852
4441,-140.375,-75,-35.8125,-0.4248047,0.5175781,-0.9902344,0.109375,-0.2470703,0.2050781
4445,-128.125,-93.5625,-39.5,-0.4208984,0.4360352,-0.7861328,0.1176758,-0.2543945,0.1928711
4449,-114.75,-108.125,-33.3125,-0.5952148,0.8012695,-0.4902344,0.1210938,-0.2592773,0.1821289
4453,-133.75,-126.375,-24.3125,-0.6455078,1.150879,-0.2397461,0.1308594,-0.2670898,0.168457
4458,-180.625,-136.125,-31.4375,-0.6494141,1.310547,-0.5708008,0.1416016,-0.2744141,0.1533203
4462,-188.8125,-130,-40,-0.5292969,0.7314453,-0.7514648,0.1450195,-0.2768555,0.1396484
4466,-180.125,-131.375,-49.625,-0.6455078,0.5761719,-0.9824219,0.1533203,-0.2866211,0.1166992
4470,-139.9375,-141.5,-51.25,-0.8085938,0.4672852,-0.7939453,0.1630859,-0.2919922,0.09912109
4474,-111.5,-176.3125,-48.4375,-1.075684,0.8364258,-0.4516602,0.1689453,-0.2919922,0.08789063
4478,-118.375,-210.5,-46,-1.075684,1.321777,-0.3051758,0.1772461,-0.2919922,0.06884766
4482,-167.375,-215.375,-60.5625,-0.6186523,1.450195,-0.6630859,0.1879883,-0.2944336,0.04296875
4486,-188.125,-158.125,-67.75,-0.2543945,1.045898,-0.7783203,0.1904297,-0.2944336,0.02685547
4490,-191.375,-117.4375,-52.75,-0.5141602,1.01123,-0.8286133,0.1962891,-0.2919922,0.004882813
4494,-178,-102.5625,-40.375,-0.7773438,0.9682617,-0.6787109,0.2011719,-0.2905273,-0.01757813
4498,-164.5625,-116,-37.9375,-1.048828,1.104492,-0.4707031,0.2011719,-0.2880859,-0.03125
4502,-159.4375,-139.25,-37,-1.056641,1.221191,-0.2670898,0.203125,-0.2841797,-0.04882813
4506,-163.625,-151.75,-34.4375,-0.9287109,1.302734,-0.3359375,0.2011719,-0.2807617,-0.06933594
4510,-171.9375,-137.5625,-29.875,-0.6416016,1.182129,-0.3745117,0.203125,-0.2753906,-0.08691406
4514,-175.625,-110.9375,-20.5625,-0.6650391,1.271484,-0.3515625,0.2011719,-0.2705078,-0.1044922
4518,-187.125,-88.9375,-16,-0.6806641,1.213379,-0.2939453,0.1972656,-0.2641602,-0.125
4522,-186.3125,-78.25,-16.6875,-0.8432617,1.197754,-0.2055664,0.1948242,-0.2583008,-0.1357422
4526,-184.0625,-85.6875,-18.875,-0.9052734,1.116211,-0.1552734,0.1962891,-0.2495117,-0.1523438
4530,-172.875,-95.875,-19.125,-0.8935547,1.100586,-0.112793,0.1928711,-0.2392578,-0.168457
4534,-165.6875,-101.8125,-15.75,-0.7578125,1.04248,-0.1435547,0.1889648,-0.2329102,-0.1782227
4538,-155.8125,-96.1875,-10.1875,-0.6806641,0.9916992,-0.1323242,0.184082,-0.2246094,-0.1928711
4542,-149.6875,-90.5,-5.0625,-0.6416016,0.9453125,-0.1435547,0.1796875,-0.2158203,-0.2026367
4546,-141.75,-84.875,-3.0625,-0.6264648,0.8710938,-0.1899414,0.1772461,-0.2094727,-0.2094727
4550,-129.875,-79.3125,-4.5625,-0.6147461,0.7587891,-0.2397461,0.1713867,-0.1992188,-0.2231445
4554,-111.75,-77.375,-6.125,-0.6108398,0.6499023,-0.2939453,0.1674805,-0.1904297,-0.2324219
4558,-87.5,-78.5,-5.375,-0.6303711,0.6108398,-0.309082,0.1630859,-0.1855469,-0.237793
4562,-62.125,-84.625,-3.875,-0.5991211,0.5214844,-0.3359375,0.1582031,-0.1806641,-0.2446289
4566,-30.5,-87.4375,5.1875,-0.5644531,0.4868164,-0.3476563,0.1523438,-0.1757813,-0.25
4570,15.3125,-81.6875,24.6875,-0.4594727,0.6030273,-0.2055664,0.1484375,-0.1757813,-0.2529297
4574,6.75,-71.4375,15.5,-0.5175781,0.6923828,-0.2592773,0.1401367,-0.1767578,-0.2583008
4578,9.5625,-44.4375,4.3125,-0.4907227,0.6655273,-0.2016602,0.1367188,-0.1782227,-0.2583008
4582,13.75,-20.625,-0.75,-0.4868164,0.5488281,-0.02050781,0.1333008,-0.1782227,-0.2597656
4587,23.4375,-4.875,5.875,-0.5449219,0.5605469,0.09423828,0.1308594,-0.1806641,-0.2583008
4591,31.25,10.0625,15.6875,-0.5102539,0.5253906,0.2133789,0.1318359,-0.1831055,-0.2568359
4595,39.625,26.0625,22.875,-0.5527344,0.5952148,0.3095703,0.1333008,-0.1855469,-0.2568359
4599,28.375,31.5625,11.3125,-0.6923828,0.7973633,0.375,0.1342773,-0.1894531,-0.2558594
4603,19.75,30,-3.5,-0.699707,0.6733398,0.4018555,0.1367188,-0.1894531,-0.2514648
4607,25.875,20.5625,-9,-0.7348633,0.5566406,0.3598633,0.1376953,-0.1894531,-0.2490234
4611,39.25,9.3125,-9.9375,-0.6884766,0.5332031,0.2788086,0.1401367,-0.1943359,-0.25
4615,56.375,-1.625,-9.5,-0.6923828,0.5371094,0.1826172,0.1391602,-0.1967773,-0.2475586
4619,72.6875,-13.4375,-8.8125,-0.6767578,0.6186523,0.105957,0.1401367,-0.1982422,-0.2446289
4623,83.125,-16.9375,-12.625,-0.5834961,0.7197266,0.04443359,0.1401367,-0.2055664,-0.2436523
4627,86.6875,-9.9375,-18.0625,-0.5141602,0.7392578,-0.01660156,0.1416016,-0.2094727,-0.2407227
4631,89.375,3.375,-20.5625,-0.4711914,0.7626953,-0.07470703,0.1391602,-0.2119141,-0.237793
4635,97.3125,20.25,-16.875,-0.4365234,0.6884766,-0.1245117,0.1401367,-0.2207031,-0.2338867
4639,112.8125,33.5625,-5.1875,-0.4750977,0.7001953,-0.1513672,0.1416016,-0.2255859,-0.2246094
4643,121.6875,41.1875,-3.375,-0.5874023,0.8671875,-0.109375,0.144043,-0.2294922,-0.2216797
4647,116.75,44.4375,-13.25,-0.6376953,0.8945313,-0.06298828,0.1484375,-0.2382813,-0.2119141
4651,121.875,50.1875,-17.375,-0.6572266,0.8632813,-0.005371094,0.1499023,-0.2456055,-0.2041016
4655,125.6875,52.3125,-20.6875,-0.6962891,0.8364258,0.02099609,0.1523438,-0.2495117,-0.1972656
4659,140.125,48.8125,-12.1875,-0.7036133,0.7314453,-0.05126953,0.1582031,-0.2529297,-0.1835938
4663,166.3125,44.125,8.9375,-0.6533203,0.6694336,-0.1938477,0.1591797,-0.2607422,-0.1728516
4667,189.8125,43.5,18.0625,-0.7426758,1.026855,-0.1899414,0.1630859,-0.2695313,-0.1660156
4671,164.4375,33,-15.0625,-0.8896484,1.356934,-0.1323242,0.1640625,-0.2768555,-0.1523438
4675,149.25,31.6875,-43.25,-0.7578125,1.061523,-0.1166992,0.1665039,-0.2832031,-0.1401367
4679,151.625,33.8125,-47.4375,-0.7114258,1.030762,-0.1899414,0.1674805,-0.2856445,-0.1318359
4683,151,41.1875,-44,-0.6264648,1.057617,-0.3051758,0.1757813,-0.2866211,-0.1196289
4687,151.1875,53.6875,-39,-0.5063477,0.9101563,-0.4169922,0.1796875,-0.2895508,-0.105957
4691,160.6875,70.125,-37.75,-0.6030273,0.9995117,-0.4824219,0.1806641,-0.2905273,-0.09521484
4695,147.0625,72.125,-59.4375,-0.7543945,1.146973,-0.4516602,0.1879883,-0.2919922,-0.07861328
4699,145.9375,77.25,-76.25,-0.7426758,0.9335938,-0.4438477,0.1914063,-0.2919922,-0.06396484
4703,157.1875,75.5625,-75,-0.7426758,0.6108398,-0.6362305,0.1962891,-0.2866211,-0.05419922
4707,162.375,88.125,-82.875,-0.8745117,0.987793,-0.6938477,0.2021484,-0.2841797,-0.03662109
4711,163.4375,100.5625,-85.375,-0.7270508,0.875,-0.7246094,0.2104492,-0.2792969,-0.01904297
4716,161.25,123.5,-87.9375,-0.7773438,0.90625,-0.7475586,0.215332,-0.2744141,-0.005371094
4720,154.625,139.3125,-74.125,-0.847168,0.90625,-0.8056641,0.2211914,-0.2670898,0.01318359
4724,157.5625,155.5,-55.8125,-0.8276367,0.7666016,-0.8364258,0.2236328,-0.2617188,0.03369141
4728,174,169.125,-31,-0.9516602,0.7739258,-0.7749023,0.2246094,-0.2543945,0.05126953
4732,171.4375,164.8125,-10.0625,-1.071777,0.9643555,-0.7900391,0.2211914,-0.2495117,0.07177734
4736,170,174.5625,-5.3125,-0.9555664,0.7856445,-0.7709961,0.2163086,-0.2416992,0.09326172
4740,169.125,185.0625,0.4375,-0.8818359,0.7080078,-0.7783203,0.2163086,-0.2382813,0.1098633
4744,172.625,195,15,-0.8125,0.6225586,-0.8168945,0.2080078,-0.2319336,0.1313477
4748,183.875,195.25,41.125,-0.7426758,0.4750977,-0.8168945,0.1938477,-0.2207031,0.1533203
4752,213.9375,187.875,73.5,-0.6923828,0.4399414,-0.7783203,0.1865234,-0.2167969,0.168457
4756,218.5625,177.9375,69.875,-0.8510742,0.9257813,-0.6630859,0.1723633,-0.2045898,0.1914063
4760,172.75,163.5625,38.1875,-0.9013672,1.104492,-0.5170898,0.1582031,-0.1933594,0.2104492
4764,100.3125,150.375,-0.6875,-0.78125,1.04248,-0.4399414,0.1484375,-0.1879883,0.2211914
4768,55.0625,141.125,-14,-0.6376953,0.5952148,-0.4863281,0.1391602,-0.1791992,0.2324219
4772,39.9375,118.875,-5.5,-0.5024414,0.315918,-0.6323242,0.1293945,-0.1743164,0.2402344
4776,45.875,103.75,0.8125,-0.2890625,0.1367188,-0.7441406,0.125,-0.171875,0.2446289
4780,59.0625,99.5,11.625,-0.215332,0.1445313,-0.7592773,0.1152344,-0.1655273,0.2514648
4784,60.5,91.1875,20.25,-0.296875,0.3349609,-0.6552734,0.105957,-0.1630859,0.2553711
4788,44,73.1875,20.125,-0.3432617,0.3818359,-0.5209961,0.1010742,-0.1582031,0.2607422
4792,26,55.9375,13.6875,-0.3823242,0.4204102,-0.4130859,0.09521484,-0.1567383,0.2651367
4796,-1.3125,33.25,9.25,-0.3901367,0.4125977,-0.4594727,0.09130859,-0.1533203,0.2651367
4800,-16.3125,24.9375,6.0625,-0.1459961,0.1176758,-0.5322266,0.08886719,-0.1557617,0.2675781
4804,-11.4375,27.125,9.1875,-0.1069336,0.03613281,-0.5629883,0.08691406,-0.1567383,0.2661133
4808,-8.0625,20.25,18.1875,-0.1962891,0.1098633,-0.5629883,0.08447266,-0.1567383,0.2675781
4812,-17.6875,7.875,17.1875,-0.2661133,0.2265625,-0.5209961,0.08447266,-0.1582031,0.269043
4816,-35.25,-1.5625,11.6875,-0.28125,0.1835938,-0.574707,0.08056641,-0.1591797,0.2675781
4820,-44.0625,-9.75,4.5,-0.3203125,0.1020508,-0.6630859,0.08203125,-0.1645508,0.2651367
4824,-45.6875,-21.9375,-2.25,-0.3432617,0.05908203,-0.6899414,0.08056641,-0.1694336,0.262207
4828,-40.9375,-34.5,-7.6875,-0.3320313,0.04736328,-0.6938477,0.08691406,-0.1733398,0.2583008
4832,-39,-48.8125,-9,-0.3393555,0.1445313,-0.7324219,0.08789063,-0.1743164,0.2592773
4836,-43.375,-58.9375,-9.8125,-0.3203125,0.1679688,-0.7592773,0.09130859,-0.1782227,0.2553711
4840,-47,-66.875,-10.75,-0.362793,0.2416992,-0.7939453,0.09765625,-0.1821289,0.2514648
4845,-51.4375,-78.375,-12.3125,-0.3510742,0.1953125,-0.7402344,0.1035156,-0.1855469,0.2470703
4849,-51.1875,-90.625,-10.625,-0.3862305,0.2924805,-0.7285156,0.1079102,-0.1879883,0.2431641
4853,-54,-100.75,-10.625,-0.4052734,0.4086914,-0.6362305,0.1142578,-0.1918945,0.237793
4857,-72.0625,-111.0625,-12.625,-0.3745117,0.4907227,-0.6821289,0.1259766,-0.1982422,0.2294922
4861,-83.5,-110.3125,-11.5,-0.328125,0.4086914,-0.6977539,0.1293945,-0.2016602,0.2270508
4865,-92.75,-112.3125,-6.0625,-0.4130859,0.4399414,-0.7246094,0.1391602,-0.2080078,0.2143555
4869,-89.1875,-117.6875,-2.1875,-0.4750977,0.3701172,-0.6206055,0.1484375,-0.2143555,0.206543
4873,-94.125,-137.75,0.875,-0.5991211,0.5800781,-0.7475586,0.1508789,-0.2192383,0.1982422
4877,-90.5625,-142.875,0.9375,-0.4443359,0.4321289,-0.6899414,0.1616211,-0.2270508,0.1860352
4881,-105,-143.8125,5.5625,-0.4829102,0.6577148,-0.894043,0.1674805,-0.2329102,0.1738281
4885,-110.75,-121.6875,1.6875,-0.3432617,0.4711914,-0.7939453,0.1748047,-0.2382813,0.1655273
4889,-114.375,-106,-0.4375,-0.6303711,0.6108398,-0.6787109,0.1796875,-0.2441406,0.1479492
4893,-115.875,-119.875,1.25,-0.8896484,0.7626953,-0.6015625,0.184082,-0.2504883,0.1342773
4897,-133.4375,-139,-2.8125,-0.7504883,0.7158203,-0.8476563,0.1879883,-0.2568359,0.125
4901,-123.125,-126.1875,-11.0625,-0.5292969,0.4672852,-0.9516602,0.1948242,-0.2607422,0.1083984
4905,-108.9375,-112.6875,-11.375,-0.5991211,0.5371094,-0.8979492,0.1987305,-0.2641602,0.09082031
4909,-95.75,-112.75,-1,-0.7387695,0.6538086,-0.6860352,0.2021484,-0.2670898,0.08251953
4913,-89.5625,-123.8125,11.1875,-0.8510742,0.8129883,-0.4438477,0.2045898,-0.2705078,0.06884766
4917,-98.4375,-138.8125,22.25,-0.8588867,1.022949,-0.4208984,0.2055664,-0.2729492,0.05273438
4921,-120.9375,-128.4375,19.5,-0.6108398,0.8945313,-0.4594727,0.2055664,-0.2768555,0.04199219
4925,-131.125,-107,22.0625,-0.6806641,0.9140625,-0.5092773,0.2070313,-0.2807617,0.02539063
4929,-138.5625,-100.5,28.9375,-0.7851563,0.890625,-0.4282227,0.2055664,-0.2817383,0.009277344
4933,-135.125,-105.5,34.25,-0.9399414,0.9492188,-0.3051758,0.2045898,-0.2832031,-0.001464844
4937,-133.125,-123,38.375,-1.013672,1.057617,-0.1782227,0.2011719,-0.2866211,-0.01904297
4941,-135.3125,-137.25,42.1875,-0.9711914,1.116211,-0.1435547,0.1987305,-0.2905273,-0.03808594
4945,-148.5,-138,48.9375,-0.8046875,1.182129,-0.2822266,0.1938477,-0.2919922,-0.04882813
4949,-165.8125,-115.75,42.8125,-0.7270508,1.12793,-0.3012695,0.1879883,-0.2929688,-0.06933594
4953,-177.625,-99.9375,39.8125,-0.8046875,1.108398,-0.2705078,0.1821289,-0.2919922,-0.08837891
4957,-186.5625,-90.4375,37.125,-0.8549805,1.20166,-0.1708984,0.1796875,-0.2905273,-0.1005859
4961,-193.0625,-88.125,39.9375,-0.8818359,1.154785,-0.1435547,0.1738281,-0.2866211,-0.1210938
4965,-200.9375,-79,45.625,-0.8164063,1.146973,-0.2900391,0.1674805,-0.2841797,-0.137207
4969,-210.4375,-64.3125,39.125,-0.7773438,1.030762,-0.4863281,0.1630859,-0.2783203,-0.1523438
4974,-205.375,-41.625,28,-0.746582,0.8325195,-0.5361328,0.1582031,-0.2705078,-0.1674805
4978,-192.1875,-23.875,17.25,-0.78125,0.7626953,-0.5478516,0.1547852,-0.2617188,-0.1821289
4982,-170.125,-18.375,2.375,-0.9365234,0.7509766,-0.4321289,0.1533203,-0.2558594,-0.1904297
4986,-150.9375,-34.125,-5.875,-0.9477539,0.7587891,-0.3208008,0.1533203,-0.2441406,-0.2026367
4990,-126.4375,-45.9375,-5.4375,-0.8393555,0.7236328,-0.2475586,0.1484375,-0.2358398,-0.2109375
4994,-112.0625,-46,-3.375,-0.6611328,0.7548828,-0.1743164,0.1484375,-0.2304688,-0.2163086
4998,-104.625,-28.375,-0.9375,-0.5527344,0.7817383,-0.1899414,0.1459961,-0.2246094,-0.2255859
5002,-100.5625,-4.5625,-3.6875,-0.5683594,0.7353516,-0.01318359,0.1450195,-0.2182617,-0.2299805
5006,-99.4375,5.75,-12.5625,-0.6845703,0.7856445,0.2402344,0.1450195,-0.2143555,-0.2324219
5010,-96.75,-2.625,-16.1875,-0.8125,0.7626953,0.5136719,0.1474609,-0.2055664,-0.2368164
5014,-96.5625,-23.3125,-8.625,-0.7231445,0.7236328,0.5556641,0.1474609,-0.1967773,-0.2421875
5018,-97.375,-27,-0.3125,-0.5449219,0.6962891,0.355957,0.144043,-0.1943359,-0.2475586
5022,-95,-17.625,4.6875,-0.4750977,0.5605469,0.2021484,0.144043,-0.1855469,-0.2514648
5026,-69.4375,4.0625,28.5,-0.3203125,0.5527344,0.1557617,0.1425781,-0.1806641,-0.2529297
5030,-81.125,6.6875,9.3125,-0.6923828,0.6884766,0.04785156,0.1425781,-0.1767578,-0.2583008
5034,-69.9375,3.25,4.4375,-0.5834961,0.4052734,0.05957031,0.1416016,-0.1704102,-0.2597656
5038,-52.875,5,5.125,-0.5449219,0.3740234,0.03271484,0.1425781,-0.1655273,-0.2583008
5042,-36.8125,7.375,7.3125,-0.5527344,0.4282227,-0.005371094,0.1425781,-0.1645508,-0.2612305
5046,-20.1875,12.6875,10,-0.5566406,0.4282227,-0.02050781,0.1416016,-0.1621094,-0.2651367
5050,-9.3125,15.5,7.375,-0.6416016,0.5605469,-0.02441406,0.144043,-0.1606445,-0.2626953
5054,1.625,17.25,4.625,-0.5991211,0.4672852,0.001953125,0.1450195,-0.1591797,-0.2612305
5058,18.125,22.375,5.375,-0.6416016,0.5175781,0.09423828,0.1484375,-0.1630859,-0.2612305
5062,27.4375,24.8125,5.375,-0.6533203,0.5488281,0.1635742,0.1474609,-0.1645508,-0.2583008
5066,36.5625,26.6875,5.4375,-0.6376953,0.5761719,0.1826172,0.1474609,-0.1655273,-0.2583008
5070,42.375,29.3125,5.1875,-0.6264648,0.6264648,0.1557617,0.1508789,-0.1694336,-0.2558594
5074,47.75,38.3125,2.875,-0.5991211,0.5878906,0.07910156,0.1523438,-0.171875,-0.2543945
5078,53.75,44.6875,-1.75,-0.6728516,0.6186523,0.009765625,0.1547852,-0.1743164,-0.25
5082,67.125,48.375,-2.4375,-0.7192383,0.5878906,-0.01318359,0.1582031,-0.1806641,-0.2475586
5086,82.25,45,-3.875,-0.7387695,0.5913086,-0.07080078,0.1606445,-0.1845703,-0.2407227
5090,104.6875,43.6875,-0.875,-0.6884766,0.5488281,-0.1323242,0.1640625,-0.1894531,-0.2392578
5094,125.1875,45.375,4.25,-0.699707,0.7275391,-0.1474609,0.1640625,-0.1958008,-0.2299805
5098,126,54.125,-1.4375,-0.6884766,0.8598633,-0.109375,0.1689453,-0.2045898,-0.2216797
5103,127.375,66.75,-3.25,-0.7231445,0.9023438,-0.03222656,0.1699219,-0.2104492,-0.2163086
5107,125.25,70,-4.8125,-0.8393555,0.9179688,-0.01660156,0.1757813,-0.2182617,-0.2041016
5111,137.125,67.625,4.125,-0.8393555,0.840332,-0.001464844,0.1796875,-0.2255859,-0.1958008
5115,148.625,77.625,20.9375,-0.6923828,0.921875,-0.005371094,0.1821289,-0.2329102,-0.1875
5119,140.3125,109.1875,36.1875,-0.6030273,1.104492,0.03662109,0.1855469,-0.2416992,-0.175293
5123,110.5625,146.75,43.0625,-0.6650391,1.251953,0.04785156,0.1889648,-0.2495117,-0.1591797
5127,76.9375,162.625,32.6875,-0.9208984,1.150879,0.02099609,0.1904297,-0.2529297,-0.1523438
5131,78.3125,152.4375,28.625,-1.060547,0.7587891,-0.07080078,0.1962891,-0.2592773,-0.1357422
5135,109.8125,125.375,34.4375,-1.106934,0.5991211,-0.2089844,0.199707,-0.2641602,-0.1210938
5139,146.5625,100.375,37.5,-0.9907227,0.5371094,-0.2783203,0.199707,-0.2695313,-0.112793
5143,176.5625,83.25,38.8125,-0.8974609,0.7705078,-0.2783203,0.2011719,-0.2744141,-0.09375
5147,172.1875,76.8125,24.8125,-0.8393555,1.108398,-0.2055664,0.2011719,-0.2807617,-0.07324219
5151,151.75,79.8125,6.0625,-0.699707,1.186035,-0.109375,0.199707,-0.2832031,-0.06396484
5155,128.6875,85.625,-3.3125,-0.5991211,1.092773,-0.1362305,0.2011719,-0.2880859,-0.05029297
5159,121.0625,91.75,4.1875,-0.5527344,0.9604492,-0.2436523,0.2021484,-0.2880859,-0.03271484
5163,119.4375,96.4375,12.625,-0.5024414,0.7392578,-0.4594727,0.2021484,-0.2880859,-0.02441406
5167,135.5625,105.125,24.75,-0.6225586,0.7626953,-0.5283203,0.2021484,-0.2895508,-0.009277344
5171,150.1875,84.8125,25.8125,-0.746582,0.6811523,-0.5244141,0.2011719,-0.2895508,0.006347656
5175,154.75,65.6875,4.8125,-0.8198242,0.8598633,-0.5629883,0.1987305,-0.2880859,0.01708984
5179,154.375,55.0625,-6.875,-0.6689453,0.7895508,-0.5551758,0.1987305,-0.2880859,0.03369141
5183,147.375,66.125,-12.0625,-0.4985352,0.8945313,-0.5976563,0.1972656,-0.2832031,0.04882813
5187,135.0625,80.3125,-3.8125,-0.3974609,0.8325195,-0.7285156,0.1987305,-0.2807617,0.05957031
5191,144.9375,97.75,18.1875,-0.4169922,0.7001953,-0.8325195,0.1972656,-0.2768555,0.07324219
5195,150.25,101.75,34.4375,-0.5874023,0.7973633,-0.9052734,0.1928711,-0.2729492,0.09326172
5199,156.6875,102.1875,38.8125,-0.7036133,0.9257813,-0.9052734,0.1855469,-0.2705078,0.1044922
5203,139.375,108.25,30.5,-0.6030273,1.084961,-0.84375,0.1796875,-0.2670898,0.1206055
5207,111.8125,125.75,45.125,-0.5141602,1.04248,-0.84375,0.1738281,-0.2607422,0.137207
5211,95.5,150,76.4375,-0.3354492,0.9414063,-0.8515625,0.1674805,-0.2592773,0.1450195
5215,84.75,171,95.8125,-0.4482422,0.9335938,-0.9287109,0.1523438,-0.2617188,0.1572266
5219,77.8125,165.625,98.4375,-0.6147461,0.8598633,-0.9707031,0.1391602,-0.2568359,0.1738281
5223,83.125,162.75,93.9375,-0.4790039,0.5878906,-0.9326172,0.1269531,-0.2568359,0.1821289
5227,85.75,163.6875,84.6875,-0.4907227,0.6303711,-0.9672852,0.1142578,-0.2568359,0.1953125
5232,86.3125,162.125,74.625,-0.4829102,0.4907227,-0.9018555,0.09765625,-0.2519531,0.2050781
