Packet number,Gyroscope X (deg/s),Gyroscope Y (deg/s),Gyroscope Z (deg/s),Accelerometer X (g),Accelerometer Y (g),Accelerometer Z (g),Magnetometer X (G),Magnetometer Y (G),Magnetometer Z (G)
0,-9.1875,6.8125,14.125,-0.6455078,-0.03369141,0.2636719,0.2080078,-0.1044922,-0.2368164
4,0.8125,12.9375,10.625,-0.7348633,-0.01025391,0.3134766,0.2080078,-0.1044922,-0.2353516
8,9.9375,10.0625,7.5625,-0.8510742,0.04736328,0.3789063,0.2080078,-0.1054688,-0.2368164
12,19,1.0625,8.5,-0.8706055,0.07861328,0.3979492,0.2094727,-0.1044922,-0.2368164
16,25.125,-4.5,12.125,-0.8354492,0.140625,0.3979492,0.2080078,-0.109375,-0.2353516
20,22.3125,-7.4375,15.5,-0.796875,0.2148438,0.3671875,0.2094727,-0.1118164,-0.2368164
24,14.9375,-5.375,19.8125,-0.7426758,0.2226563,0.340332,0.2094727,-0.1142578,-0.2353516
28,8.75,2.75,28.875,-0.8007813,0.2265625,0.3095703,0.2055664,-0.1142578,-0.2353516
32,5.875,6.5625,38.125,-0.9399414,0.237793,0.3134766,0.2055664,-0.1196289,-0.2338867
36,5.5625,2.5,45.3125,-1.099121,0.253418,0.3095703,0.2080078,-0.1196289,-0.2338867
41,4.375,-2.5,44.3125,-1.145508,0.2963867,0.2636719,0.203125,-0.1230469,-0.2353516
45,-7.375,1.0625,37.5625,-1.125977,0.3466797,0.2133789,0.2021484,-0.1279297,-0.2368164
49,-18.1875,17.4375,31,-1.041016,0.2963867,0.2172852,0.2021484,-0.1279297,-0.2324219
53,-15.4375,34.5625,34.5625,-1.133789,0.2495117,0.2250977,0.2045898,-0.1308594,-0.2324219
57,-8.5,40.0625,39.0625,-1.165039,0.2768555,0.105957,0.2055664,-0.1318359,-0.230957
61,-3.5,50.6875,38.4375,-1.11084,0.2265625,-0.04736328,0.2070313,-0.1333008,-0.2299805
65,2.375,56.25,23.375,-1.211426,0.2148438,-0.2055664,0.2080078,-0.1342773,-0.2255859
69,4.75,60.75,3.75,-1.083496,0.1914063,-0.3286133,0.2119141,-0.1357422,-0.2202148
73,12.5625,77.625,-7.625,-0.9829102,0.1098633,-0.4282227,0.2138672,-0.1357422,-0.21875
77,34.75,96.1875,-13.4375,-1.001953,0.06298828,-0.5131836,0.2202148,-0.1367188,-0.2133789
81,61,109.1875,-20.8125,-1.083496,0.1875,-0.5517578,0.2260742,-0.1396484,-0.2041016
85,67.625,120,-38.4375,-1.044922,0.4013672,-0.5825195,0.2319336,-0.140625,-0.1972656
89,48.6875,139.9375,-53.6875,-1.041016,0.5058594,-0.5898438,0.2392578,-0.1420898,-0.1875
93,28.9375,162.5,-62.125,-1.048828,0.3896484,-0.5170898,0.25,-0.1381836,-0.1767578
97,33.75,174.25,-63.75,-1.195801,0.2226563,-0.4863281,0.2543945,-0.1357422,-0.1674805
101,64.625,182.8125,-54.625,-1.172852,0.1254883,-0.4667969,0.2641602,-0.1318359,-0.1508789
105,103.9375,199.75,-44.5,-1.172852,0.1640625,-0.6787109,0.2734375,-0.1308594,-0.1333008
109,127.9375,212.625,-48.8125,-1.416992,0.4555664,-0.6479492,0.2792969,-0.1293945,-0.1181641
113,117.3125,213.25,-58,-1.459473,0.6538086,-0.5400391,0.2841797,-0.1293945,-0.09667969
117,87,222.6875,-55,-1.385742,0.7470703,-0.4516602,0.2924805,-0.1254883,-0.07177734
121,58.5,240.4375,-38.3125,-1.269531,0.5800781,-0.5053711,0.2949219,-0.1220703,-0.05859375
125,60.4375,260.5,-12.5625,-1.242188,0.3583984,-0.6938477,0.2973633,-0.1181641,-0.03125
129,84.875,279.6875,11.8125,-1.327637,0.2265625,-0.7016602,0.2998047,-0.1157227,-0.00390625
133,106.25,276.375,12.9375,-1.719238,0.3935547,-0.6054688,0.2963867,-0.1166992,0.01464844
137,94.875,235.125,-27,-1.715332,0.4516602,-0.6132813,0.2939453,-0.1157227,0.04052734
141,85.5625,237.375,-36.5625,-1.187988,0.284668,-0.6669922,0.2900391,-0.109375,0.06494141
145,81.6875,259.3125,-28,-1.114746,0.3427734,-0.9555664,0.2866211,-0.1054688,0.08251953
149,78.8125,282.9375,-6.6875,-1.137695,0.2416992,-1.047852,0.2773438,-0.09814453,0.1083984
153,82.75,299.625,18.1875,-1.037109,0.1523438,-1.313477,0.2675781,-0.09179688,0.1328125
157,92.5625,319.6875,5.8125,-1.32373,0.1254883,-1.213379,0.2558594,-0.09082031,0.1518555
161,96.125,300.875,-12.125,-1.48291,0.121582,-1.05957,0.237793,-0.08447266,0.1806641
165,97.125,289.125,-22.5625,-1.300781,0.1333008,-0.9785156,0.21875,-0.07421875,0.2021484
170,81.625,288,-29.6875,-1.141602,0.2768555,-1.009277,0.2055664,-0.06689453,0.2158203
174,53.5,288.125,-22.5,-1.017578,0.269043,-1.055664,0.1831055,-0.05712891,0.2363281
178,50,291.6875,3.5625,-0.8818359,0.1098633,-0.9169922,0.1616211,-0.0546875,0.2539063
182,58.625,285.25,28.875,-0.9868164,0.1601563,-0.7900391,0.1450195,-0.04833984,0.2651367
186,44.125,259.625,31.5625,-0.8935547,0.1953125,-0.5478516,0.1201172,-0.04296875,0.2773438
190,13.375,224.625,19.8125,-0.8164063,0.004882813,-0.5439453,0.09619141,-0.03955078,0.2866211
194,9.1875,194.625,-4.3125,-0.6611328,-0.387207,-0.4321289,0.08300781,-0.04052734,0.2919922
198,35.4375,163.5,-11.375,-0.6767578,-0.9272461,-0.4052734,0.06542969,-0.03710938,0.2973633
202,74.9375,125.8125,-7.75,-0.4169922,-0.3598633,-0.3129883,0.05078125,-0.02929688,0.2988281
206,95.4375,103.5625,9.3125,-0.2041016,-0.09179688,-0.2285156,0.04248047,-0.02587891,0.3032227
210,80.5,83.8125,15.6875,-0.1499023,0.2299805,-0.2285156,0.03320313,-0.015625,0.3032227
214,36,66.3125,6.9375,-0.1303711,0.3466797,-0.1552734,0.02490234,-0.009277344,0.3032227
218,-6.125,45.0625,-12.3125,-0.01806641,0.07470703,-0.05126953,0.02001953,-0.005859375,0.3032227
222,-17.75,24.875,-14.875,-0.01806641,-0.03369141,-0.04736328,0.01757813,-0.006835938,0.3041992
226,-21.875,-3.4375,-6.8125,-0.05664063,-0.09960938,-0.109375,0.01416016,-0.009277344,0.3041992
230,-17.4375,-25.4375,-0.5625,0.1445313,-0.1655273,-0.1708984,0.01757813,-0.01074219,0.3032227
234,-11.75,-33.9375,4.3125,0.07861328,-0.1967773,-0.3325195,0.02001953,-0.01171875,0.3041992
238,-6.3125,-48.375,-2.1875,0.125,-0.2241211,-0.3476563,0.02246094,-0.01318359,0.3041992
242,-1.1875,-66.875,-11.3125,-0.01806641,-0.1191406,-0.3823242,0.02734375,-0.01464844,0.3041992
246,-4.3125,-87.5625,-12.3125,-0.03710938,-0.01416016,-0.3632813,0.03320313,-0.01464844,0.3032227
250,-12.3125,-112.125,-8.25,-0.08789063,0.01269531,-0.5517578,0.04248047,-0.015625,0.300293
254,-14.6875,-124.875,-2.5,-0.07617188,-0.06445313,-0.7402344,0.05078125,-0.01708984,0.2973633
258,-12.3125,-130.1875,0.0625,0.01269531,-0.1113281,-0.8364258,0.06298828,-0.01806641,0.2973633
262,-5.625,-132.625,1.25,-0.1264648,-0.1035156,-0.8632813,0.07470703,-0.02050781,0.293457
266,1.25,-142.875,6.9375,-0.347168,0.04003906,-0.7055664,0.08447266,-0.0234375,0.2910156
270,-12.0625,-174.0625,11.0625,-0.2890625,0.07080078,-1.040039,0.09863281,-0.02197266,0.2851563
274,-21.6875,-163,13.4375,-0.2851563,0.01269531,-1.094238,0.1142578,-0.02441406,0.2783203
278,-44.375,-160.0625,9.75,-0.05273438,-0.01806641,-1.351563,0.125,-0.02587891,0.2744141
282,-46.125,-123.3125,13.9375,-0.2734375,-0.04541016,-1.113281,0.1367188,-0.03320313,0.2661133
286,-50.25,-129.3125,19.75,-0.5332031,0.121582,-0.8515625,0.1484375,-0.03710938,0.2607422
290,-60.75,-153.625,32.625,-0.847168,0.1601563,-1.086426,0.1547852,-0.04199219,0.2568359
294,-73.625,-158.375,22.0625,-0.4594727,-0.07226563,-1.055664,0.1699219,-0.05078125,0.2470703
299,-75.375,-149.125,22.5625,-0.4711914,-0.1381836,-1.394043,0.1806641,-0.05810547,0.237793
303,-67.6875,-123.625,17.625,-0.5683594,-0.2587891,-1.090332,0.1904297,-0.06298828,0.2333984
307,-60.3125,-140.4375,10.25,-0.831543,-0.1308594,-1.121094,0.1987305,-0.07080078,0.2226563
311,-44.125,-151.75,-0.5625,-0.9365234,-0.1381836,-0.8862305,0.2104492,-0.07568359,0.2119141
315,-37.4375,-172.875,-3.25,-0.6806641,-0.04150391,-1.066895,0.2163086,-0.07958984,0.206543
319,-27.5625,-157.9375,-0.75,-0.8085938,0.04003906,-0.9594727,0.2270508,-0.08056641,0.1943359
323,-34.8125,-164.1875,7.125,-0.7851563,0.2265625,-0.8862305,0.2368164,-0.08447266,0.1806641
327,-48,-160,11,-0.9946289,0.3271484,-0.8017578,0.2436523,-0.08691406,0.1699219
331,-69.4375,-168,4.9375,-0.8818359,0.2729492,-0.7285156,0.253418,-0.09082031,0.15625
335,-82.6875,-172.375,12.5,-0.9907227,0.284668,-1.097656,0.2617188,-0.09716797,0.1396484
339,-102.3125,-154.5625,-1.8125,-0.5488281,0.02050781,-1.063477,0.2675781,-0.09960938,0.1313477
343,-80.75,-132.5,5.3125,-0.9326172,0.008789063,-0.8979492,0.2724609,-0.1054688,0.1181641
347,-61.6875,-139.3125,12.25,-1.07959,0.2148438,-0.574707,0.2783203,-0.1108398,0.1030273
351,-51.1875,-149.4375,22.3125,-1.168945,0.4399414,-0.3359375,0.2807617,-0.1118164,0.09228516
355,-67.6875,-167.0625,36.3125,-1.091309,0.6108398,-0.5668945,0.2841797,-0.1157227,0.07421875
359,-100.5625,-159.125,33.3125,-0.7426758,0.4321289,-0.7094727,0.2890625,-0.1230469,0.05810547
363,-114.125,-141.4375,34.0625,-0.7890625,0.269043,-0.7822266,0.2900391,-0.1269531,0.04882813
367,-112.1875,-135,23.3125,-0.9477539,0.1992188,-0.5976563,0.2924805,-0.1333008,0.03222656
371,-95.0625,-144.75,19,-1.056641,0.2070313,-0.4438477,0.2924805,-0.1357422,0.01708984
375,-66.1875,-153.875,29.4375,-1.029297,0.2573242,-0.3706055,0.2939453,-0.1381836,0.006347656
379,-60.75,-160.0625,39.125,-0.9633789,0.4321289,-0.5825195,0.2924805,-0.1420898,-0.01074219
383,-75.5,-147.5625,32,-0.8007813,0.3740234,-0.5976563,0.2900391,-0.1445313,-0.02734375
387,-79.875,-139.3125,24.5625,-1.025391,0.3935547,-0.5478516,0.2900391,-0.1479492,-0.03808594
391,-78.6875,-141.0625,17.4375,-1.060547,0.4165039,-0.4282227,0.2880859,-0.1508789,-0.05273438
395,-73.75,-140.75,20.6875,-1.11084,0.4829102,-0.3398438,0.2841797,-0.1518555,-0.06933594
399,-69.8125,-137.125,28.9375,-1.060547,0.5019531,-0.3325195,0.2817383,-0.1508789,-0.07861328
403,-67.25,-127.0625,38.5,-1.118652,0.5097656,-0.3051758,0.2783203,-0.1533203,-0.09082031
407,-71.6875,-127.25,48.3125,-1.137695,0.4868164,-0.4013672,0.2758789,-0.1542969,-0.1044922
411,-81.3125,-113.1875,40.0625,-0.9555664,0.3505859,-0.3632813,0.2709961,-0.1567383,-0.112793
415,-75.25,-100.25,25.875,-1.118652,0.2416992,-0.359375,0.2651367,-0.1582031,-0.1264648
419,-59.9375,-101.25,18.875,-1.176758,0.237793,-0.3286133,0.2602539,-0.1567383,-0.1357422
423,-47.125,-100.5625,22.25,-1.052734,0.2416992,-0.359375,0.2583008,-0.1557617,-0.1425781
428,-33.125,-94.3125,39.625,-0.6962891,0.1367188,-0.6899414,0.253418,-0.1542969,-0.1523438
432,-37.5625,-53.25,45.8125,-1.005859,0.3388672,-0.5131836,0.2475586,-0.1582031,-0.1591797
436,-52.5,-64.6875,29.1875,-0.9326172,0.300293,-0.5092773,0.2460938,-0.1582031,-0.1630859
440,-49.3125,-44.5625,19.3125,-0.8198242,0.2148438,-0.4438477,0.2412109,-0.1567383,-0.1699219
444,-46.8125,-32,14.375,-0.8706055,0.253418,-0.4248047,0.2402344,-0.1567383,-0.1738281
448,-38.375,-23.4375,11.3125,-0.8198242,0.1875,-0.3398438,0.2392578,-0.1542969,-0.175293
452,-21.5,-10.125,15.5625,-0.7617188,0.1875,-0.2861328,0.237793,-0.1557617,-0.1782227
456,-7,5.875,21.0625,-0.7734375,0.2338867,-0.2167969,0.2353516,-0.1567383,-0.1806641
460,1.5,14.375,22,-0.8276367,0.315918,-0.1513672,0.234375,-0.1582031,-0.1767578
464,3.125,16.3125,14.9375,-0.9399414,0.3818359,-0.1166992,0.2353516,-0.1606445,-0.175293
468,0.125,11.5625,4.375,-0.9091797,0.4052734,-0.1166992,0.2368164,-0.1591797,-0.1767578
472,1.5625,12.8125,0.1875,-0.8974609,0.3466797,-0.1401367,0.2353516,-0.1621094,-0.175293
476,7.0625,17.0625,-1.6875,-0.862793,0.315918,-0.1362305,0.2353516,-0.1606445,-0.175293
480,14.3125,25.6875,-2.5625,-0.8706055,0.2924805,-0.1743164,0.2392578,-0.1621094,-0.1713867
484,23.125,32.375,-3.5,-0.9013672,0.284668,-0.2246094,0.2392578,-0.1621094,-0.168457
488,30.375,39.875,-6.1875,-0.9091797,0.2885742,-0.3168945,0.2426758,-0.1621094,-0.1674805
492,33.5,48.1875,-13.75,-0.8935547,0.2963867,-0.4477539,0.2426758,-0.1630859,-0.1630859
496,32.75,62.125,-22.5,-0.878418,0.300293,-0.5170898,0.2451172,-0.1630859,-0.1591797
500,31.875,79.875,-28.0625,-0.8393555,0.2612305,-0.5864258,0.25,-0.1621094,-0.1538086
504,40.4375,102.5,-27.1875,-0.9208984,0.237793,-0.6015625,0.2519531,-0.1606445,-0.1469727
508,49.125,114.9375,-29.3125,-0.9790039,0.2651367,-0.6132813,0.2568359,-0.1630859,-0.137207
512,61.875,129.25,-28.1875,-0.9594727,0.253418,-0.6323242,0.2626953,-0.1630859,-0.1235352
516,67.875,141.75,-31.3125,-1.009766,0.3505859,-0.6552734,0.2675781,-0.1606445,-0.1157227
520,66,157.25,-34.4375,-0.9169922,0.3740234,-0.6552734,0.2700195,-0.1591797,-0.105957
524,65.5,182.9375,-24.9375,-0.9790039,0.4204102,-0.644043,0.2758789,-0.1591797,-0.08691406
528,68.3125,195.0625,-12.5,-1.145508,0.4243164,-0.5629883,0.2817383,-0.1591797,-0.06933594
532,73,188.1875,-9.875,-1.265625,0.3623047,-0.5517578,0.2832031,-0.1582031,-0.05566406
536,79.1875,181.25,-22,-1.20752,0.3349609,-0.5708008,0.2856445,-0.1582031,-0.03808594
540,72.5625,175.75,-42.9375,-1.273438,0.4360352,-0.6206055,0.2880859,-0.1557617,-0.01904297
544,59.6875,178.9375,-50.3125,-1.087402,0.4282227,-0.6479492,0.2890625,-0.1518555,-0.00390625
548,56.375,197.25,-30.5,-1.067871,0.3935547,-0.7324219,0.2890625,-0.1479492,0.01171875
552,71.1875,215.1875,4.625,-0.9907227,0.3232422,-0.8129883,0.2866211,-0.1445313,0.03369141
557,83.3125,225.1875,10.8125,-1.304199,0.4829102,-0.7939453,0.2841797,-0.1430664,0.04980469
561,71.1875,195.5,-15.1875,-1.385742,0.5019531,-0.7900391,0.2792969,-0.140625,0.07324219
565,73.3125,186.875,-23.9375,-1.099121,0.3081055,-0.809082,0.2749023,-0.1357422,0.09082031
569,58.8125,191.875,-42.1875,-1.087402,0.4204102,-0.9477539,0.2709961,-0.1318359,0.1030273
573,54.8125,202.0625,-35.375,-0.9399414,0.300293,-0.9438477,0.2651367,-0.1245117,0.1220703
577,66.8125,215.8125,-10.25,-0.8666992,0.2148438,-0.9980469,0.2558594,-0.1181641,0.1425781
581,93.75,227.75,20.4375,-0.8125,0.1640625,-1.055664,0.2475586,-0.1157227,0.15625
585,113.8125,236.5,41.8125,-0.8549805,0.2651367,-1.221191,0.234375,-0.1118164,0.1777344
589,101.25,233.6875,17.0625,-0.8085938,0.3271484,-1.38623,0.21875,-0.1054688,0.1982422
593,78.5625,235.4375,-26.25,-0.9287109,0.4013672,-1.359375,0.2094727,-0.1005859,0.2080078
597,51.25,233.25,-46.5,-0.6494141,0.3232422,-1.351563,0.1928711,-0.09326172,0.2255859
601,34,256.75,-33.625,-0.6342773,0.3120117,-1.571289,0.1738281,-0.08544922,0.2402344
605,37.625,289.4375,-8.0625,-0.5410156,0.1367188,-1.424805,0.1591797,-0.08203125,0.2553711
609,69.5,309,24.1875,-0.7036133,0.1098633,-1.30957,0.1367188,-0.07714844,0.269043
613,93.8125,309,44,-0.9477539,0.3310547,-1.097656,0.1069336,-0.06933594,0.2827148
617,69.75,285.125,33.25,-0.9438477,0.4633789,-0.7900391,0.08789063,-0.06445313,0.2880859
621,37.9375,246.8125,19.5625,-1.103027,0.284668,-0.4477539,0.06054688,-0.05810547,0.2988281
625,23.5625,179.625,-3.5,-0.8666992,0.1020508,-0.1899414,0.0390625,-0.05322266,0.3041992
629,27.3125,130.4375,-7.9375,-0.5332031,0.0009765625,0.03662109,0.02832031,-0.05078125,0.3041992
633,38.3125,82.4375,7.875,-0.4482422,0.07470703,0.04785156,0.01513672,-0.046875,0.3041992
637,41.9375,42.75,28.25,-0.1962891,0.1137695,0.04785156,0.008300781,-0.04052734,0.3056641
641,26.25,16.3125,25.75,-0.05664063,0.1601563,-0.1708984,0.008300781,-0.04052734,0.3085938
645,-4,0.75,4.75,0.1328125,0.01269531,-0.3359375,0.004394531,-0.03955078,0.3071289
649,-10.875,-3.5625,-11.125,0.1870117,-0.1381836,-0.3706055,0.005859375,-0.03955078,0.3071289
653,-3.6875,-14.0625,-10.5,0.2026367,-0.1308594,-0.4438477,0.006835938,-0.04052734,0.3071289
657,6,-21.125,-1.625,0.2451172,-0.1191406,-0.5361328,0.008300781,-0.03955078,0.3056641
661,13.3125,-25.3125,7.375,0.2529297,-0.05273438,-0.574707,0.01074219,-0.03955078,0.3056641
665,8.125,-29.8125,9.875,0.190918,0.07861328,-0.6054688,0.01171875,-0.03710938,0.3071289
669,-9.25,-39.4375,1.25,0.2216797,0.09033203,-0.7246094,0.01269531,-0.03955078,0.3056641
673,-18.5625,-39.25,-4.4375,0.2490234,0.03222656,-0.7822266,0.01904297,-0.04199219,0.3056641
677,-20.125,-40.8125,0.25,0.190918,0.06298828,-0.8017578,0.0234375,-0.04199219,0.3056641
681,-23.375,-48.125,10.4375,0.1210938,0.09033203,-0.894043,0.02734375,-0.04443359,0.3041992
686,-25.8125,-52.375,15.25,0.1948242,0.01660156,-0.9360352,0.02978516,-0.04589844,0.3032227
690,-26.6875,-52.1875,16.8125,0.1054688,-0.002441406,-0.9326172,0.03564453,-0.04931641,0.3032227
694,-27.875,-59.3125,14.3125,0.04736328,0.01660156,-0.8554688,0.04150391,-0.04931641,0.3017578
698,-28.375,-68.4375,10.8125,-0.04101563,0.08642578,-0.7324219,0.04638672,-0.05566406,0.3017578
702,-34.625,-95.5,4.625,-0.08789063,-0.01025391,-1.155762,0.05322266,-0.05957031,0.3017578
706,-28.5,-87.375,-0.1875,0.2026367,-0.1616211,-1.113281,0.06054688,-0.06201172,0.2973633
710,-12.625,-73.1875,12.125,0.004882813,-0.07617188,-1.005371,0.06982422,-0.06298828,0.2963867
714,-4.375,-80.25,23.1875,-0.1533203,0.1137695,-0.6977539,0.07226563,-0.06591797,0.2963867
718,-8.125,-104.25,31.8125,-0.4130859,0.2651367,-0.6591797,0.08056641,-0.06591797,0.2919922
722,-24.125,-147.5625,27.375,-0.362793,0.04736328,-1.248047,0.09130859,-0.07080078,0.2866211
726,-25.125,-128.6875,1.125,0.2797852,-0.2470703,-1.224609,0.1020508,-0.07177734,0.2827148
730,-5.4375,-94.6875,5.5625,-0.07226563,-0.08007813,-1.128418,0.1118164,-0.07568359,0.2783203
734,2.125,-102.0625,17.3125,-0.3510742,0.1992188,-0.7514648,0.1225586,-0.07714844,0.2729492
738,0.5,-126.5,34.375,-0.6611328,0.4555664,-0.4863281,0.1259766,-0.07421875,0.2705078
742,-29,-171.625,43.8125,-0.6845703,0.4321289,-0.9287109,0.1391602,-0.07958984,0.2636719
746,-48.5625,-171.125,21.0625,-0.1420898,-0.002441406,-0.9785156,0.1533203,-0.08447266,0.2524414
750,-25.9375,-151.3125,28.5625,-0.4711914,-0.06835938,-0.9980469,0.1630859,-0.08837891,0.2485352
754,-11.3125,-161.4375,31.0625,-0.5253906,0.04736328,-0.7900391,0.1738281,-0.09179688,0.2402344
758,3.375,-168.8125,39.5625,-0.7890625,0.203125,-0.609375,0.1855469,-0.09423828,0.2280273
762,1.375,-198,52.125,-0.9790039,0.3662109,-0.6362305,0.1928711,-0.09814453,0.2202148
766,-28.125,-216.5,48.4375,-0.5292969,0.203125,-1.117188,0.2094727,-0.1030273,0.2080078
770,-34.125,-182.0625,30.5,-0.4711914,-0.01416016,-1.024902,0.2236328,-0.1069336,0.1889648
774,-36.5,-174.9375,32.875,-0.7114258,0.08642578,-1.097656,0.2270508,-0.1108398,0.1821289
778,-28.6875,-169.875,31.5625,-0.8007813,0.04736328,-0.8325195,0.237793,-0.1181641,0.1699219
782,-13.5625,-181.3125,38.0625,-0.9985352,0.1484375,-0.8168945,0.2485352,-0.1230469,0.15625
786,-5.75,-191.6875,42.4375,-0.9868164,0.237793,-0.7441406,0.253418,-0.1269531,0.1425781
790,-31.0625,-190.75,41.125,-0.8354492,0.3466797,-0.9980469,0.2651367,-0.1308594,0.1259766
794,-57.3125,-168.875,25.375,-0.7929688,0.1796875,-0.894043,0.2651367,-0.1367188,0.1113281
798,-63.1875,-161.375,23.9375,-0.9946289,0.1333008,-0.8901367,0.2709961,-0.1396484,0.09765625
802,-53.1875,-161.1875,21.25,-1.033203,0.08642578,-0.7016602,0.2734375,-0.1445313,0.08105469
806,-38.5625,-164.3125,30,-1.099121,0.1953125,-0.6630859,0.2783203,-0.1494141,0.06494141
810,-36.0625,-164.125,32.625,-1.141602,0.2924805,-0.5244141,0.2807617,-0.1518555,0.05664063
815,-47.75,-164.25,40.125,-1.060547,0.3505859,-0.609375,0.2817383,-0.1567383,0.0390625
819,-63.375,-151.6875,34.875,-1.099121,0.3349609,-0.4975586,0.2841797,-0.1591797,0.02148438
823,-71.0625,-154.625,33.75,-1.184082,0.3081055,-0.4746094,0.2832031,-0.1645508,0.01074219
827,-65.375,-153,34.375,-1.199707,0.2148438,-0.3632813,0.2817383,-0.1669922,-0.005371094
831,-50.5,-159.5,33.9375,-1.292969,0.237793,-0.3632813,0.2817383,-0.171875,-0.02050781
835,-38.0625,-167.1875,38.625,-1.242188,0.2729492,-0.5283203,0.2792969,-0.1733398,-0.03271484
839,-43.0625,-158.1875,30.1875,-1.060547,0.3120117,-0.5708008,0.2783203,-0.1782227,-0.04736328
843,-50.8125,-143.5625,28.625,-1.091309,0.3349609,-0.5629883,0.2749023,-0.1806641,-0.06396484
847,-55.4375,-134.8125,22.75,-1.161133,0.3193359,-0.4399414,0.2724609,-0.1806641,-0.07324219
851,-45.875,-133.25,24.8125,-1.20752,0.3041992,-0.3554688,0.2666016,-0.1821289,-0.08691406
855,-32.4375,-131.4375,25.375,-1.176758,0.3583984,-0.2744141,0.2641602,-0.1821289,-0.1005859
859,-30.1875,-127.6875,27.1875,-1.095215,0.4672852,-0.2939453,0.2617188,-0.1855469,-0.1088867
863,-41.75,-115.5625,27,-1.052734,0.5175781,-0.1552734,0.2558594,-0.1879883,-0.1196289
867,-58.3125,-107.125,26.5,-1.106934,0.5097656,-0.06298828,0.2509766,-0.1870117,-0.1289063
871,-61,-111.25,19.5625,-1.25,0.4204102,0.001953125,0.2475586,-0.1855469,-0.137207
875,-46,-122.0625,17.9375,-1.176758,0.3505859,0.02490234,0.2436523,-0.1855469,-0.1484375
879,-27.375,-118.4375,24.9375,-1.075684,0.4165039,0.02490234,0.237793,-0.1845703,-0.1591797
883,-33.4375,-106.6875,31.75,-1.075684,0.5722656,0.1171875,0.2329102,-0.1855469,-0.1630859
887,-52.3125,-97.4375,52.6875,-0.8974609,0.4594727,-0.001464844,0.2285156,-0.1855469,-0.1728516
891,-85.1875,-92.125,32.9375,-1.227051,0.5722656,-0.08203125,0.222168,-0.1845703,-0.1806641
895,-104.5625,-95.875,21.8125,-0.8818359,0.3232422,-0.1054688,0.2163086,-0.1845703,-0.1875
899,-93.5,-77.75,19.6875,-0.878418,0.2109375,-0.1630859,0.2104492,-0.1782227,-0.1972656
903,-79.8125,-71.0625,16.1875,-0.8896484,0.1601563,-0.1669922,0.2055664,-0.1743164,-0.206543
907,-64.125,-64.6875,11.625,-0.831543,0.1333008,-0.1743164,0.203125,-0.1733398,-0.2109375
911,-50.6875,-58.4375,2.75,-0.831543,0.1254883,-0.1938477,0.1987305,-0.1679688,-0.2177734
915,-35.125,-54.9375,-2.5,-0.7578125,0.105957,-0.2631836,0.1972656,-0.1645508,-0.2231445
919,-19.0625,-40.0625,-8.25,-0.6572266,0.105957,-0.2246094,0.1938477,-0.1669922,-0.2255859
923,-3.1875,-27.875,-8,-0.7231445,0.1679688,-0.1938477,0.1928711,-0.1606445,-0.2270508
927,1.6875,-14.6875,-5.0625,-0.6689453,0.2573242,-0.08203125,0.1914063,-0.1621094,-0.230957
931,0,-2.75,-2.6875,-0.6923828,0.3232422,-0.03222656,0.1914063,-0.1621094,-0.2299805
935,-3.875,4.1875,-6.25,-0.7543945,0.3310547,0.02099609,0.1914063,-0.1621094,-0.2299805
939,-1.5625,5.625,-8.875,-0.7504883,0.2768555,0.03662109,0.1928711,-0.1591797,-0.2285156
944,8.9375,12.4375,-9.5,-0.7543945,0.2807617,0.04785156,0.1928711,-0.1591797,-0.2285156
948,12.1875,18.8125,-11.0625,-0.7617188,0.3310547,0.05566406,0.1938477,-0.1591797,-0.2270508
952,13.375,27.3125,-9.5,-0.7734375,0.3193359,0.1098633,0.1938477,-0.1606445,-0.2255859
956,14.75,31,-10.625,-0.8706055,0.3271484,0.159668,0.1962891,-0.1621094,-0.2255859
960,18.9375,29.8125,-13.5,-0.8432617,0.284668,0.144043,0.199707,-0.1630859,-0.2231445
964,22.9375,32.25,-17.3125,-0.8510742,0.3120117,0.04785156,0.199707,-0.1606445,-0.2202148
968,16.8125,38.875,-22.9375,-0.8007813,0.315918,-0.03222656,0.2011719,-0.1621094,-0.21875
972,12.1875,53.0625,-26,-0.8125,0.2612305,-0.08203125,0.2055664,-0.1606445,-0.2148438
976,14.3125,66.8125,-26.5,-0.8510742,0.1914063,-0.1743164,0.2094727,-0.1606445,-0.2094727
980,24.5625,78.6875,-29.75,-0.9169922,0.1445313,-0.2016602,0.2138672,-0.1606445,-0.206543
984,38.9375,87.875,-34,-0.9130859,0.121582,-0.2592773,0.21875,-0.1591797,-0.2026367
988,56.1875,102.4375,-36.125,-0.9516602,0.1484375,-0.2783203,0.2260742,-0.1621094,-0.1928711
992,63.5,111.4375,-40.375,-0.9985352,0.2299805,-0.2978516,0.230957,-0.1606445,-0.1850586
996,63.6875,125.8125,-44.875,-0.9711914,0.2456055,-0.2861328,0.2368164,-0.1606445,-0.1782227
1000,65,139.5625,-46.5,-0.9907227,0.2299805,-0.309082,0.2451172,-0.1591797,-0.1645508
1004,76.25,152.6875,-41.6875,-1.005859,0.1333008,-0.3515625,0.25,-0.1591797,-0.1538086
1008,105.3125,167.0625,-39.8125,-0.9711914,0.008789063,-0.3325195,0.2568359,-0.1621094,-0.1401367
1012,135.75,178.5,-55.625,-1.219238,0.09423828,-0.3554688,0.2651367,-0.1621094,-0.1225586
1016,145.1875,161.375,-98.8125,-1.23877,0.1176758,-0.4594727,0.2700195,-0.1606445,-0.1098633
1020,152.0625,172.6875,-117.625,-1.114746,0.1293945,-0.4785156,0.2792969,-0.1557617,-0.08837891
1024,141.3125,191.0625,-114.125,-1.118652,0.3193359,-0.6132813,0.2866211,-0.1455078,-0.06640625
1028,119.1875,202.3125,-74,-1.289063,0.3271484,-0.6015625,0.2890625,-0.140625,-0.05566406
1032,113.1875,216.3125,-18.625,-1.168945,0.4052734,-0.6860352,0.2939453,-0.1357422,-0.03271484
1036,73.875,221.375,-36.5,-1.587402,0.6459961,-0.644043,0.2949219,-0.1342773,-0.008300781
1040,14.0625,186.1875,-87,-1.525391,0.4829102,-0.6401367,0.2949219,-0.1318359,0.00390625
1044,-10.9375,182.9375,-107.6875,-1.269531,0.1992188,-0.6513672,0.2939453,-0.1220703,0.02294922
1048,-11.6875,194.25,-104.25,-1.12207,0.1098633,-0.6938477,0.2949219,-0.109375,0.04052734
1052,4.0625,212.5625,-73.1875,-1.11084,0.03613281,-0.7592773,0.2939453,-0.1030273,0.05126953
1056,39.3125,224.5625,-18.3125,-1.176758,-0.07226563,-0.7749023,0.2900391,-0.09570313,0.07421875
1060,78.375,222.125,5.5,-1.424316,0.01660156,-0.7475586,0.2841797,-0.09423828,0.09472656
1064,77.6875,196.5,-14.8125,-1.420898,0.21875,-0.7441406,0.2773438,-0.08935547,0.1069336
1068,60.375,177.1875,-49.625,-1.374023,0.2148438,-0.6362305,0.269043,-0.08300781,0.1259766
1073,33.3125,150,-75.6875,-1.230957,0.1835938,-0.6899414,0.2626953,-0.07421875,0.1411133
1077,17,144,-78.6875,-1.001953,0.07861328,-0.6630859,0.2592773,-0.06933594,0.1494141
1081,7.1875,141.0625,-66.3125,-0.9248047,0.05126953,-0.7939453,0.2519531,-0.06201172,0.1630859
1085,5.5,145.0625,-50.4375,-0.730957,-0.09179688,-0.8979492,0.2451172,-0.0546875,0.1738281
1089,20,154.5625,-31.875,-0.5874023,-0.2275391,-1.001465,0.2368164,-0.05322266,0.1821289
1093,51.25,170.875,-11.25,-0.5063477,-0.324707,-1.032227,0.2270508,-0.04589844,0.1943359
1097,84.625,177.8125,-0.875,-0.7270508,-0.1967773,-1.020996,0.2163086,-0.04199219,0.2089844
1101,87.75,160.5,-9.6875,-0.8276367,-0.01806641,-0.9672852,0.2080078,-0.03710938,0.2158203
1105,69.875,146.3125,-18.25,-0.7231445,0.02050781,-0.9555664,0.1962891,-0.02587891,0.2255859
1109,48.5625,143.25,-25.8125,-0.6108398,0.01660156,-0.9785156,0.184082,-0.02197266,0.2363281
1113,26.5625,142.625,-25.1875,-0.4868164,-0.06445313,-1.097656,0.1772461,-0.01708984,0.2416992
1117,18.375,154.375,-21.1875,-0.2929688,-0.1928711,-1.163086,0.1665039,-0.01171875,0.2514648
1121,20.3125,168.1875,-29.875,-0.6030273,-0.09570313,-1.055664,0.1508789,-0.009277344,0.2583008
1125,12,143.625,-38.5,-0.4868164,-0.1928711,-0.9594727,0.1416016,-0.005859375,0.2636719
1129,31.3125,145.1875,-35.6875,-0.5102539,-0.1928711,-0.7822266,0.128418,-0.001953125,0.2705078
1133,36.8125,124.375,-15.4375,-0.5605469,-0.01806641,-0.6977539,0.1166992,0.002441406,0.2758789
1137,36.9375,107.625,-0.8125,-0.4130859,-0.02197266,-0.6132813,0.1079102,0.006347656,0.2783203
1141,36.5625,92,8.1875,-0.3706055,0.004882813,-0.5439453,0.09863281,0.01025391,0.2827148
1145,22.9375,71.3125,-6.375,-0.28125,0.03222656,-0.4628906,0.09130859,0.01367188,0.2841797
1149,7.125,52.125,-19.5,-0.2851563,0.0009765625,-0.3745117,0.08691406,0.01513672,0.2841797
1153,0.3125,30.5625,-22.375,-0.1420898,-0.1230469,-0.34375,0.08203125,0.01367188,0.2866211
1157,6,18.375,-12,-0.006347656,-0.1694336,-0.3666992,0.07861328,0.01757813,0.2880859
1161,13.0625,11.25,5.9375,-0.006347656,-0.09960938,-0.3901367,0.07861328,0.01757813,0.2880859
1165,4.1875,0.4375,18.3125,0.03564453,-0.05664063,-0.5053711,0.07861328,0.01757813,0.2866211
1169,-11.125,-1.75,13.625,0.02050781,-0.1035156,-0.5244141,0.08056641,0.01757813,0.2895508
1173,-22,-10.0625,3.9375,0.03173828,-0.2202148,-0.5400391,0.07714844,0.01611328,0.2880859
1177,-19.5,-16.75,2.875,0.04345703,-0.2900391,-0.6513672,0.07958984,0.01513672,0.2866211
1181,-13.5,-21.5625,8,-0.002441406,-0.2900391,-0.6821289,0.08300781,0.01123047,0.2880859
1185,-7.9375,-27,13.3125,0.04345703,-0.2900391,-0.7861328,0.08447266,0.01269531,0.2895508
1189,-1.1875,-28.0625,15.6875,-0.01806641,-0.2783203,-0.824707,0.08544922,0.01025391,0.2851563
1193,0,-32.3125,14.6875,0.01660156,-0.2124023,-0.8710938,0.08886719,0.01025391,0.2851563
1197,-4.875,-31.8125,15.5,-0.01025391,-0.1733398,-0.9399414,0.09130859,0.008789063,0.2841797
1202,-16.5625,-28.625,12,-0.002441406,-0.1420898,-0.9902344,0.09277344,0.007324219,0.2851563
1206,-27.5625,-28.8125,8.5625,-0.06835938,-0.1967773,-1.009277,0.09619141,0.00390625,0.2827148
1210,-27.125,-30.5625,10.25,-0.1225586,-0.2314453,-0.8862305,0.09863281,0.001464844,0.2827148
1214,-21.875,-43.75,16.1875,-0.2543945,-0.2163086,-0.9169922,0.1020508,0,0.2797852
1218,-18.875,-50.5,15.8125,-0.1381836,-0.2163086,-0.8745117,0.105957,-0.003417969,0.2797852
1222,-21.3125,-56.1875,18.375,-0.262207,-0.1694336,-0.9555664,0.109375,-0.005859375,0.2797852
1226,-26.9375,-59.8125,8.375,-0.1186523,-0.2470703,-0.878418,0.1142578,-0.008300781,0.2773438
1230,-22.8125,-63.625,7.6875,-0.230957,-0.2548828,-0.8710938,0.1210938,-0.01171875,0.2758789
1234,-15.0625,-73.1875,9,-0.3393555,-0.1850586,-0.6821289,0.125,-0.01171875,0.2729492
1238,-12.75,-95.1875,16.8125,-0.378418,-0.09570313,-0.7016602,0.1318359,-0.01464844,0.2705078
1242,-16.8125,-106.0625,25.5,-0.4443359,-0.1152344,-0.8168945,0.1416016,-0.01806641,0.2636719
1246,-35,-111.4375,6.0625,0.03564453,-0.3481445,-1.20166,0.1484375,-0.01953125,0.2607422
1250,-20.1875,-78.4375,-4.25,-0.07226563,-0.534668,-1.170898,0.1567383,-0.0234375,0.2539063
1254,-2.5625,-76.125,-7.0625,-0.2387695,-0.4960938,-1.055664,0.1640625,-0.02587891,0.2524414
1258,11.8125,-77.625,-4.25,-0.3320313,-0.2822266,-1.105469,0.1674805,-0.02441406,0.25
1262,14.625,-75.1875,-2.1875,-0.296875,-0.1347656,-1.005371,0.1738281,-0.0234375,0.2431641
1266,8,-73.1875,4.4375,-0.347168,-0.06054688,-1.020996,0.1796875,-0.02197266,0.2416992
1270,-2.5625,-69.0625,13.5,-0.3393555,-0.03369141,-1.074707,0.184082,-0.0234375,0.2363281
1274,-17.375,-59.125,11.5625,-0.4208984,-0.03759766,-1.013184,0.1904297,-0.0234375,0.2324219
1278,-25.0625,-65.1875,10.6875,-0.5991211,-0.09570313,-0.9672852,0.1938477,-0.02685547,0.2280273
1282,-19.875,-74.9375,10.875,-0.6572266,-0.1381836,-0.8476563,0.1962891,-0.02929688,0.2255859
1286,-16.9375,-87.1875,10.5625,-0.5141602,-0.1269531,-0.9052734,0.203125,-0.03173828,0.2211914
1290,-22.9375,-85.6875,15.125,-0.5332031,-0.09960938,-0.9477539,0.2094727,-0.03320313,0.2143555
1294,-32.875,-81.75,10.1875,-0.4829102,-0.1538086,-0.7939453,0.2128906,-0.03710938,0.2104492
1298,-25.375,-89.4375,7.625,-0.796875,-0.1152344,-0.574707,0.2177734,-0.04199219,0.2050781
1302,-8.8125,-119.125,11.875,-0.9477539,0.0009765625,-0.3666992,0.2260742,-0.04443359,0.1982422
1306,-14.4375,-146.5,19.5,-0.6767578,0.1098633,-0.7441406,0.2319336,-0.04443359,0.1899414
1310,-27.9375,-130.9375,16.0625,-0.5834961,0.05126953,-0.6245117,0.2402344,-0.046875,0.1777344
1314,-42,-137.375,21.0625,-0.7851563,0.1020508,-0.6362305,0.2485352,-0.05322266,0.1699219
1318,-41.8125,-145.3125,20.625,-0.9365234,0.05126953,-0.3666992,0.253418,-0.05566406,0.1601563
1322,-31.5625,-171.125,29.3125,-1.029297,0.1176758,-0.5400391,0.2617188,-0.05957031,0.1479492
1326,-33,-180.0625,32.5,-0.9438477,0.1796875,-0.6171875,0.269043,-0.06445313,0.1313477
1331,-59.9375,-175.9375,31.25,-0.6455078,0.1875,-0.8632813,0.2749023,-0.06835938,0.1206055
1335,-76,-154.5625,26.375,-0.8549805,0.06298828,-0.6630859,0.2832031,-0.07568359,0.105957
1339,-70.9375,-162.5,32.125,-1.129883,0.09423828,-0.4208984,0.2856445,-0.07958984,0.09082031
1343,-50.375,-182.0625,38.25,-1.28125,0.1293945,-0.3012695,0.2890625,-0.08447266,0.08105469
1347,-40.4375,-197.4375,55.4375,-1.227051,0.2729492,-0.4707031,0.2924805,-0.09082031,0.06103516
1351,-64.6875,-191.5625,56.8125,-0.9287109,0.2885742,-0.7246094,0.2973633,-0.09960938,0.04199219
1355,-84.9375,-171.9375,52.125,-1.033203,0.171875,-0.7133789,0.2983398,-0.1030273,0.02832031
1359,-101.9375,-164.5625,48.9375,-1.052734,0.1333008,-0.7324219,0.2983398,-0.1108398,0.01074219
1363,-102.5625,-156,37.25,-1.246094,0.03613281,-0.5322266,0.2983398,-0.1157227,-0.008300781
1367,-79.75,-169.8125,34.8125,-1.439941,0.07470703,-0.34375,0.2983398,-0.1196289,-0.01757813
1371,-53,-183.0625,40.8125,-1.385742,0.1367188,-0.2705078,0.2963867,-0.1245117,-0.03662109
1375,-42.5625,-183.625,48.9375,-1.265625,0.3041992,-0.2822266,0.2949219,-0.1293945,-0.05419922
1379,-49.1875,-175.875,59.9375,-1.273438,0.3701172,-0.3012695,0.2924805,-0.1318359,-0.06787109
1383,-73.9375,-167.9375,60.5,-1.215332,0.4204102,-0.394043,0.2856445,-0.1342773,-0.08447266
1387,-94.375,-155.8125,51.0625,-1.28125,0.2885742,-0.324707,0.2792969,-0.1396484,-0.1005859
1391,-95.8125,-155.75,42.625,-1.413086,0.237793,-0.2089844,0.2783203,-0.140625,-0.1113281
1395,-86.3125,-164.875,30.4375,-1.401367,0.2109375,-0.06689453,0.2724609,-0.1420898,-0.1279297
1399,-63,-168.9375,36.75,-1.331543,0.1953125,-0.06689453,0.2641602,-0.140625,-0.1455078
1403,-43.75,-166.5625,47.125,-1.257813,0.284668,-0.07470703,0.2592773,-0.1430664,-0.1547852
1407,-44.3125,-161.3125,50.875,-1.195801,0.3779297,-0.2436523,0.2509766,-0.1445313,-0.1699219
1411,-63.875,-146.0625,41.375,-1.075684,0.3505859,-0.2900391,0.2426758,-0.1445313,-0.1806641
1415,-78.4375,-130.1875,35.0625,-1.118652,0.2768555,-0.2939453,0.234375,-0.1445313,-0.1918945
1419,-74.5,-102.6875,53.25,-0.9248047,0.2495117,-0.1708984,0.2270508,-0.1430664,-0.2026367
1423,-85.875,-103.9375,25.5625,-1.215332,0.2495117,-0.4013672,0.222168,-0.1396484,-0.2119141
1427,-86.5,-93.375,21.5,-0.8164063,0.07470703,-0.4282227,0.2177734,-0.1396484,-0.2163086
1431,-82.5625,-60.6875,19.0625,-0.7543945,0.04394531,-0.6132813,0.2104492,-0.1342773,-0.2246094
1435,-84.4375,-38.1875,6.625,-0.831543,-0.04541016,-0.6362305,0.2070313,-0.1293945,-0.2299805
1439,-69.0625,-15,-3.25,-0.7426758,-0.2124023,-0.5439453,0.2070313,-0.1254883,-0.2324219
1443,-34.6875,5.375,-9.4375,-0.7695313,-0.2509766,-0.4746094,0.2055664,-0.1220703,-0.2353516
1447,3.5625,26.375,-3.9375,-0.7387695,-0.1694336,-0.2978516,0.2045898,-0.1196289,-0.2353516
1451,30.875,43,0.3125,-0.8666992,0.06689453,-0.09375,0.2070313,-0.1181641,-0.2338867
1455,38.8125,46.875,-4.1875,-0.9287109,0.253418,0.09423828,0.2094727,-0.1220703,-0.2285156
1460,37.8125,42.6875,-11.875,-0.9907227,0.3388672,0.2021484,0.2128906,-0.1230469,-0.2255859
1464,34.5625,39.25,-14.3125,-0.9052734,0.3701172,0.1635742,0.215332,-0.1245117,-0.2231445
1468,29.375,46.75,-13.875,-0.8125,0.3081055,-0.05517578,0.2177734,-0.1269531,-0.2202148
1472,27.125,62.75,-17.5,-0.8432617,0.2573242,-0.2324219,0.222168,-0.1254883,-0.2133789
1476,33.6875,72.1875,-20.25,-0.9287109,0.1523438,-0.3359375,0.2246094,-0.1254883,-0.2119141
1480,48.3125,89,-23.1875,-0.9399414,0.1601563,-0.3286133,0.2294922,-0.1279297,-0.206543
1484,57.6875,106.125,-21.6875,-1.013672,0.2265625,-0.3666992,0.2353516,-0.1293945,-0.1987305
1488,56.75,121.0625,-26.1875,-1.056641,0.253418,-0.4013672,0.2392578,-0.1318359,-0.1904297
1492,55.1875,135.125,-31.5625,-1.118652,0.2109375,-0.4091797,0.2460938,-0.1318359,-0.1806641
1496,53.875,142.5625,-43.5625,-1.211426,0.1992188,-0.3862305,0.2543945,-0.1318359,-0.168457
1500,60.9375,152.375,-45.875,-1.15332,0.105957,-0.359375,0.2583008,-0.1308594,-0.1606445
1504,82.0625,167.6875,-35.4375,-1.203613,0.09423828,-0.324707,0.2666016,-0.1293945,-0.144043
1508,100,178,-26.8125,-1.253906,0.253418,-0.34375,0.2749023,-0.1293945,-0.1279297
1512,92.5625,183.1875,-32.8125,-1.343262,0.4360352,-0.3476563,0.2783203,-0.1318359,-0.1142578
1516,65.8125,179.9375,-48.5625,-1.413086,0.5136719,-0.3129883,0.2866211,-0.1279297,-0.09765625
1520,37.1875,183.9375,-50.3125,-1.261719,0.3935547,-0.3554688,0.2915039,-0.1254883,-0.07861328
1524,28.6875,194.875,-44.0625,-1.215332,0.21875,-0.4282227,0.2924805,-0.1220703,-0.06787109
1528,41.375,210.25,-27.5625,-1.176758,0.07080078,-0.5439453,0.2973633,-0.1196289,-0.04736328
1532,66.8125,223.1875,-11.375,-1.358887,0.09033203,-0.5131836,0.2983398,-0.1166992,-0.02832031
1536,79.6875,209.75,-16.9375,-1.490234,0.1992188,-0.5517578,0.3022461,-0.1142578,-0.01220703
1540,73.625,197.9375,-37.6875,-1.45166,0.3271484,-0.4746094,0.2983398,-0.1118164,0.01074219
1544,62.875,191.5625,-37.875,-1.191895,0.1757813,-0.5092773,0.2973633,-0.1054688,0.02832031
1548,44.3125,200.625,-32.75,-1.32373,0.3120117,-0.5517578,0.2973633,-0.1030273,0.04296875
1552,40.75,202.5,-13.3125,-1.013672,0.1796875,-0.5976563,0.2924805,-0.09814453,0.06347656
1556,54.0625,218,9.5625,-1.005859,0.1098633,-0.7441406,0.2856445,-0.09570313,0.08398438
1560,56,214.125,-0.3125,-1.234863,0.237793,-0.7709961,0.2817383,-0.09423828,0.1000977
1564,45.375,194.5625,-20.0625,-1.234863,0.1914063,-0.6669922,0.2749023,-0.08935547,0.1191406
1568,42.625,185.1875,-26.6875,-0.9633789,0.1176758,-0.7514648,0.2675781,-0.08544922,0.1342773
1572,42,189.875,-20.9375,-0.9013672,0.08251953,-0.9018555,0.2592773,-0.08203125,0.1450195
1576,40.6875,198.375,-9.625,-0.7270508,0.01660156,-1.05957,0.2509766,-0.078125,0.1640625
1580,48.1875,213,4.6875,-0.6147461,-0.06835938,-1.390137,0.2402344,-0.07324219,0.1791992
1584,62.375,241.4375,0.6875,-0.7890625,0.0009765625,-1.351563,0.2285156,-0.07080078,0.1899414
1589,53.1875,229.625,-16.1875,-0.9829102,0.1523438,-1.355469,0.2128906,-0.06445313,0.2089844
1593,32.9375,238.5625,-22.0625,-0.7504883,0.121582,-1.30957,0.1962891,-0.05957031,0.2255859
1597,18.25,255,-18.1875,-0.8164063,0.03222656,-1.255371,0.1855469,-0.05566406,0.2348633
1601,12.5,257.25,-7.8125,-0.6416016,-0.1152344,-1.405762,0.1630859,-0.05078125,0.2524414
1605,31.0625,279.6875,-7.5625,-0.5874023,-0.3134766,-1.232422,0.1416016,-0.04833984,0.2651367
1609,62.25,274.5625,-7.875,-1.005859,-0.1772461,-0.9091797,0.125,-0.04589844,0.2758789
1613,71.5,240.0625,-7.125,-0.9013672,0.01660156,-0.5478516,0.09960938,-0.03955078,0.2841797
1617,63.9375,205.0625,-11.9375,-0.8085938,0.09423828,-0.3051758,0.07958984,-0.02929688,0.2910156
1621,45.6875,163.8125,-10.1875,-0.6264648,0.105957,-0.08984375,0.06542969,-0.02685547,0.2963867
1625,36.125,117.625,-9.625,-0.5175781,-0.02978516,0.009765625,0.05224609,-0.02050781,0.300293
1629,43.5625,69.875,-8.875,-0.3549805,-0.1577148,0.02099609,0.04248047,-0.015625,0.3017578
1633,49.125,39.3125,-4.3125,-0.06835938,-0.1308594,-0.1474609,0.03662109,-0.01171875,0.3041992
1637,39.75,23.125,-6,-0.02587891,-0.04882813,-0.2670898,0.03320313,-0.006835938,0.3017578
1641,21.625,8.8125,-9.1875,0.109375,-0.07226563,-0.359375,0.03173828,-0.003417969,0.3017578
1645,15.625,2.1875,-8.75,0.1054688,-0.1308594,-0.4360352,0.03173828,-0.003417969,0.3032227
1649,12.875,-8,-7.6875,0.1289063,-0.1499023,-0.4863281,0.03076172,-0.0004882813,0.300293
1653,14.625,-14.625,-4.375,0.2138672,-0.1733398,-0.5786133,0.03173828,-0.0004882813,0.300293
1657,10.875,-19.8125,-3.9375,0.1289063,-0.1074219,-0.7246094,0.03173828,0.001464844,0.3017578
1661,7.0625,-26.3125,-6.625,0.206543,-0.1381836,-0.7402344,0.03417969,0.002441406,0.3017578
1665,0.25,-25.8125,-5.125,0.206543,-0.03759766,-0.8632813,0.03808594,0.00390625,0.300293
1669,-12.1875,-20.5625,-0.4375,0.2490234,-0.06835938,-0.84375,0.0390625,0.00390625,0.300293
1673,-16.25,-18.3125,4.6875,0.175293,-0.1113281,-0.8364258,0.04150391,0.001464844,0.2988281
1677,-15.875,-25.5625,8.75,0.1171875,-0.1074219,-0.7285156,0.04248047,0,0.300293
1681,-17.125,-34.375,12.375,0.05517578,-0.06445313,-0.5976563,0.04492188,-0.001953125,0.300293
1685,-19.8125,-57.3125,12.875,-0.09130859,-0.07226563,-0.7207031,0.05078125,-0.005859375,0.300293
1689,-16.375,-68.375,10,0.09765625,-0.2084961,-0.7709961,0.0546875,-0.006835938,0.2988281
1693,-7.3125,-68.6875,9.5,0.125,-0.2084961,-0.9326172,0.06054688,-0.006835938,0.2973633
1697,0.3125,-65.1875,14.5,0.02832031,-0.1577148,-0.8056641,0.06640625,-0.009277344,0.293457
1701,0.3125,-76.9375,16.0625,-0.03710938,-0.06445313,-0.878418,0.07470703,-0.01074219,0.2919922
1705,-6.0625,-84.5,17.5,-0.1303711,-0.06054688,-1.005371,0.07861328,-0.009277344,0.2910156
1709,-18.75,-83.375,8.8125,0.09033203,-0.1113281,-1.051758,0.08544922,-0.01074219,0.2895508
1713,-23.25,-77.375,8.125,-0.06835938,-0.2006836,-1.248047,0.09619141,-0.01464844,0.2851563
1718,-18.375,-68.125,0.875,0.03564453,-0.3173828,-1.117188,0.09863281,-0.01464844,0.2841797
1722,-4.5,-64.125,-1.0625,-0.1499023,-0.2314453,-1.001465,0.1079102,-0.01806641,0.2827148
1726,-3.625,-77,-9.5625,-0.3203125,-0.1577148,-0.8862305,0.1118164,-0.01806641,0.2783203
1730,-8.75,-91.6875,-28.0625,-0.2001953,-0.2006836,-0.9516602,0.1166992,-0.01708984,0.2773438
1734,0.75,-102.0625,-43.75,-0.2890625,-0.324707,-1.066895,0.125,-0.01953125,0.2714844
1738,22.25,-107,-41,-0.08007813,-0.2783203,-1.144043,0.1342773,-0.01464844,0.2661133
1742,32.6875,-93,-26.125,-0.1611328,-0.09960938,-1.170898,0.1416016,-0.01318359,0.2651367
1746,21.1875,-87.5625,-12.625,-0.246582,0.04394531,-1.024902,0.1459961,-0.01074219,0.2592773
1750,5.1875,-92.1875,-4.9375,-0.3432617,0.02832031,-0.9516602,0.1557617,-0.009277344,0.2553711
1754,-1.4375,-94.5,8.375,-0.4169922,-0.002441406,-0.7861328,0.1616211,-0.01074219,0.2553711
1758,-19.375,-105.375,15.4375,-0.2700195,0.06689453,-1.213379,0.1699219,-0.01318359,0.2485352
1762,-42.25,-79.1875,18.375,-0.2348633,-0.1420898,-1.047852,0.1782227,-0.015625,0.2416992
1766,-40.5,-76.0625,31.25,-0.4672852,-0.1811523,-0.9707031,0.1821289,-0.01806641,0.237793
1770,-30.5,-82.625,36.5625,-0.6069336,-0.2045898,-0.5786133,0.1889648,-0.02441406,0.2324219
1774,-9.875,-113.1875,43,-0.9130859,-0.08007813,-0.3051758,0.1962891,-0.02929688,0.2280273
1778,-16.125,-152.1875,45,-0.7734375,0.1098633,-0.6787109,0.2021484,-0.02929688,0.2211914
1782,-48.625,-145.875,31.0625,-0.3549805,-0.06054688,-0.8129883,0.2128906,-0.03808594,0.2089844
1786,-42.375,-132.8125,35.9375,-0.6923828,-0.1967773,-0.6630859,0.2211914,-0.04443359,0.1982422
1790,-27.8125,-149.125,40.1875,-0.8198242,-0.1269531,-0.4282227,0.2294922,-0.04589844,0.1928711
1794,-9.4375,-172.25,44.3125,-1.071777,0.01269531,-0.2744141,0.237793,-0.05322266,0.1831055
1798,-10.3125,-197.6875,52.8125,-0.9790039,0.1875,-0.324707,0.25,-0.05810547,0.168457
1802,-42.0625,-205.5,53.5,-0.7617188,0.2651367,-0.8286133,0.2558594,-0.06201172,0.15625
1806,-73.6875,-181.0625,44.5625,-0.6494141,0.02441406,-0.7441406,0.2651367,-0.07080078,0.1411133
1810,-59.875,-174.625,54.6875,-1.052734,-0.01025391,-0.5629883,0.2709961,-0.078125,0.1235352
1814,-40.4375,-188.8125,61.0625,-1.223145,0.121582,-0.3208008,0.2773438,-0.08447266,0.1098633
1818,-28.5625,-205.4375,77.3125,-1.351074,0.3505859,-0.2939453,0.2856445,-0.09179688,0.09082031
1822,-54.625,-213.5625,81.9375,-1.215332,0.5527344,-0.4013672,0.2880859,-0.1020508,0.07177734
1826,-99.375,-202.5,87.5625,-1.145508,0.5332031,-0.644043,0.2924805,-0.1069336,0.05664063
1830,-136.9375,-182.5,84.3125,-1.203613,0.3310547,-0.6362305,0.2939453,-0.1206055,0.03515625
1834,-143.375,-178.1875,81.1875,-1.405273,0.15625,-0.6054688,0.2924805,-0.1308594,0.01611328
1838,-126.5,-184.625,75.375,-1.544922,0.05908203,-0.4746094,0.2924805,-0.1357422,0.002441406
1842,-97.125,-200.0625,70.3125,-1.65332,0.121582,-0.4052734,0.2900391,-0.1469727,-0.01904297
1847,-82,-211.8125,66,-1.537109,0.2729492,-0.6054688,0.2866211,-0.1533203,-0.03955078
1851,-88.625,-201.9375,55.375,-1.428223,0.3427734,-0.6821289,0.2856445,-0.1567383,-0.05273438
1855,-105.25,-193.5,38.625,-1.385742,0.4052734,-0.8286133,0.2792969,-0.1591797,-0.07470703
1859,-106.625,-180.0625,23.125,-1.381836,0.2729492,-0.6323242,0.2734375,-0.1606445,-0.09667969
1863,-85.6875,-178.5625,16.3125,-1.479004,0.3583984,-0.4628906,0.2709961,-0.1606445,-0.1074219
1867,-62.625,-184.1875,14.1875,-1.40918,0.4165039,-0.394043,0.2641602,-0.1591797,-0.1289063
1871,-46.0625,-175.125,25.4375,-1.187988,0.4946289,-0.34375,0.2568359,-0.1582031,-0.144043
1875,-53.75,-159.6875,32.5625,-1.118652,0.5722656,-0.4248047,0.2509766,-0.1606445,-0.1538086
1879,-73.5,-140.5625,29.25,-0.9985352,0.4204102,-0.3974609,0.2436523,-0.1591797,-0.168457
1883,-76.3125,-126.75,20,-1.044922,0.2651367,-0.4052734,0.2368164,-0.1582031,-0.1796875
1887,-67.0625,-121.0625,8.375,-0.9907227,0.1445313,-0.34375,0.2319336,-0.1557617,-0.1875
1891,-41.875,-113.375,5.875,-0.9594727,0.1020508,-0.2475586,0.2260742,-0.1533203,-0.1972656
1895,-18.9375,-96.1875,29.25,-0.6767578,0.02441406,-0.2744141,0.2202148,-0.1508789,-0.2080078
1899,-37.25,-77.4375,15.625,-1.075684,0.4165039,-0.2822266,0.2163086,-0.1508789,-0.2094727
1903,-66.6875,-78.875,1,-0.8237305,0.3120117,-0.2397461,0.2104492,-0.1494141,-0.2163086
1907,-69.3125,-52.8125,-2.3125,-0.715332,0.105957,-0.2670898,0.2070313,-0.1420898,-0.2255859
1911,-60.875,-35.125,-5.5625,-0.8164063,0.05517578,-0.2705078,0.2055664,-0.1396484,-0.2270508
1915,-47.25,-22.8125,-9.5625,-0.78125,0.01660156,-0.2475586,0.203125,-0.1367188,-0.2299805
1919,-28.5625,-4.125,-6.625,-0.8085938,0.01660156,-0.1669922,0.2011719,-0.1318359,-0.2324219
1923,-10.875,3.5625,-8.875,-0.8432617,0.06298828,-0.1552734,0.2021484,-0.1308594,-0.230957
1927,5.5,16.875,-9,-0.8125,0.09423828,-0.08984375,0.203125,-0.1308594,-0.2324219
1931,15.5625,26.5,-8.5,-0.7890625,0.1601563,-0.04003906,0.2055664,-0.1318359,-0.2299805
1935,16.75,38.0625,-13.125,-0.8588867,0.2612305,0.06347656,0.2055664,-0.1318359,-0.2299805
1939,8.5625,39.25,-21.1875,-0.8935547,0.269043,0.1171875,0.2094727,-0.1318359,-0.2255859
1943,11.5,43.25,-21.4375,-0.9091797,0.2338867,0.140625,0.2119141,-0.1308594,-0.2231445
1947,14.9375,43.875,-23.75,-0.9130859,0.237793,0.07910156,0.2138672,-0.1308594,-0.2202148
1951,17.5625,51.625,-24.375,-0.8354492,0.1992188,-0.04394531,0.2177734,-0.1318359,-0.2177734
1955,20.8125,66.5,-24.4375,-0.8818359,0.1914063,-0.1206055,0.222168,-0.1293945,-0.2148438
1959,26.125,74.75,-25.6875,-0.9633789,0.1445313,-0.2055664,0.2246094,-0.1279297,-0.2109375
1963,34.625,83.9375,-35.1875,-0.9985352,0.1137695,-0.2631836,0.2329102,-0.1293945,-0.2055664
1967,49.4375,91.625,-42.5625,-1.021484,0.09423828,-0.3632813,0.2368164,-0.1293945,-0.1972656
1971,62.125,108,-50.25,-0.9750977,0.140625,-0.4248047,0.2426758,-0.1279297,-0.1904297
1976,65.5,127.125,-47.9375,-1.037109,0.253418,-0.4902344,0.2485352,-0.1293945,-0.1806641
1980,44.8125,148.4375,-49.125,-1.071777,0.3583984,-0.559082,0.2543945,-0.1269531,-0.168457
1984,8.125,164.1875,-67.6875,-1.099121,0.2148438,-0.6171875,0.2602539,-0.1269531,-0.1606445
1988,6.75,179.125,-82.5625,-1.165039,-0.1811523,-0.4863281,0.269043,-0.1181641,-0.1469727
1992,53.3125,185.5,-83.5,-1.242188,-0.3911133,-0.4091797,0.2807617,-0.1132813,-0.1289063
1996,104.0625,193.1875,-73.5,-1.215332,-0.2939453,-0.4477539,0.2841797,-0.1108398,-0.1181641
2000,130.9375,209.875,-64.625,-1.358887,0.05517578,-0.4282227,0.2900391,-0.1044922,-0.09765625
2004,107.5625,211.0625,-76.625,-1.544922,0.4360352,-0.3666992,0.2963867,-0.1020508,-0.07763672
2008,54.4375,202.4375,-88.6875,-1.475098,0.5878906,-0.3706055,0.3007813,-0.09716797,-0.06103516
2012,17.5,210.25,-78.5,-1.393555,0.4360352,-0.3476563,0.3032227,-0.08837891,-0.04199219
2016,19.5625,219.375,-40.875,-1.246094,0.2612305,-0.4667969,0.3032227,-0.08203125,-0.02050781
2020,50.5625,239,6,-1.165039,0.1796875,-0.6513672,0.3056641,-0.07958984,-0.006835938
2024,83.75,264.875,29.6875,-1.475098,0.4555664,-0.5551758,0.3022461,-0.07958984,0.01855469
2028,59.375,210.8125,-24.1875,-1.874023,0.5488281,-0.644043,0.2998047,-0.078125,0.04296875
2032,49.625,189.8125,-37.875,-1.219238,0.2573242,-0.4013672,0.2973633,-0.07421875,0.05664063
2036,53.9375,198.4375,-19.875,-1.141602,0.3041992,-0.5864258,0.2924805,-0.06933594,0.07324219
2040,54.0625,194.3125,3.3125,-1.060547,0.2456055,-0.7133789,0.2866211,-0.06591797,0.09326172
2044,70,206.4375,40.5,-0.6806641,0.07861328,-0.8823242,0.2817383,-0.06298828,0.1069336
2048,107.8125,238.5625,69.75,-0.9052734,0.1523438,-0.8208008,0.2724609,-0.06591797,0.1259766
2052,86.625,199.875,20.625,-1.397461,0.4750977,-0.9516602,0.2617188,-0.06298828,0.1494141
2056,50.5625,173.8125,-6.9375,-0.878418,0.2226563,-0.7861328,0.2558594,-0.05957031,0.1601563
2060,27.4375,192.1875,3.3125,-0.6650391,0.1333008,-1.001465,0.2451172,-0.05712891,0.1738281
2064,7.5625,210.6875,15.375,-0.5756836,-0.05664063,-1.236328,0.2329102,-0.05566406,0.1889648
2068,23.6875,239.875,44,-0.4907227,-0.340332,-1.213379,0.2236328,-0.05566406,0.1982422
2072,51.5,270.8125,76.125,-0.7734375,-0.2124023,-1.144043,0.2080078,-0.0546875,0.21875
2076,8.5625,246.0625,20.9375,-1.161133,0.008789063,-1.224609,0.1855469,-0.05322266,0.237793
2080,-27.25,222.625,-33.625,-0.765625,-0.6279297,-0.9287109,0.1757813,-0.0546875,0.2446289
2084,12,220.625,-37.9375,-0.9985352,-0.9697266,-0.8056641,0.1557617,-0.0546875,0.2583008
2088,63.875,192.0625,-32.5,-1.037109,-0.6357422,-0.6401367,0.1401367,-0.04833984,0.269043
2092,110,156.1875,-24.125,-0.8237305,-0.4882813,-0.5209961,0.1259766,-0.04052734,0.2729492
2096,143.3125,131.0625,-16.875,-0.6108398,-0.2124023,-0.5244141,0.1118164,-0.02929688,0.2783203
2100,126.125,112.5625,-27,-0.6186523,0.3623047,-0.3745117,0.09960938,-0.01171875,0.2841797
2105,66.4375,75.4375,-43.625,-0.4443359,0.7236328,-0.378418,0.09375,-0.005859375,0.2880859
2109,22.3125,56.6875,-43.9375,-0.2119141,0.1601563,-0.2324219,0.08789063,0.002441406,0.2866211
2113,16.4375,37.5,-37.1875,-0.1884766,-0.04882813,-0.3901367,0.08056641,0.004882813,0.2895508
2117,23.25,23.25,-29.25,0.008789063,-0.1230469,-0.3823242,0.07861328,0.007324219,0.2910156
2121,28.25,19.875,-12.375,0.05517578,-0.006347656,-0.3745117,0.07617188,0.01025391,0.2895508
2125,20.4375,4.3125,-0.75,-0.07617188,0.07470703,-0.3632813,0.07373047,0.01123047,0.2880859
2129,3.6875,-14.875,-8.6875,0.06689453,-0.01025391,-0.4785156,0.07470703,0.01269531,0.2919922
2133,0.3125,-19.0625,-8.8125,0.09033203,-0.09960938,-0.5478516,0.07714844,0.01367188,0.2895508
2137,-3.375,-24.125,-4.1875,0.07861328,-0.03759766,-0.609375,0.07861328,0.01367188,0.2910156
2141,-9.625,-30.625,0.9375,0.03564453,-0.04150391,-0.6938477,0.08056641,0.01367188,0.2895508
2145,-11.9375,-36.3125,5.375,0.09033203,-0.1113281,-0.7670898,0.08447266,0.01269531,0.2880859
2149,-10.25,-37.6875,10.125,0.05908203,-0.1347656,-0.8862305,0.08691406,0.01025391,0.2866211
2153,-15.625,-34.4375,10.9375,0.09375,-0.1308594,-0.9672852,0.09033203,0.01123047,0.2866211
2157,-21.25,-30.0625,9.125,0.05517578,-0.1459961,-0.9980469,0.09277344,0.007324219,0.2851563
2161,-22.125,-27.6875,12.5625,-0.02587891,-0.1420898,-0.9326172,0.09521484,0.006347656,0.2841797
2165,-23,-36.0625,14.625,-0.1030273,-0.1152344,-0.9399414,0.09765625,0.00390625,0.28125
2169,-23.25,-41.1875,19.125,-0.08007813,-0.1347656,-0.9208984,0.1010742,0.001464844,0.28125
2173,-24.5625,-47.125,25.1875,-0.1186523,-0.1308594,-1.043945,0.1044922,-0.001953125,0.2827148
2177,-30.6875,-44.375,24.8125,-0.07617188,-0.1772461,-1.066895,0.1069336,-0.004394531,0.2797852
2181,-32.625,-41.625,21.9375,-0.1186523,-0.2202148,-1.028809,0.1142578,-0.008300781,0.2797852
2185,-28.1875,-47.5625,22.9375,-0.3007813,-0.2353516,-1.001465,0.1176758,-0.01318359,0.2783203
2189,-25.1875,-57.8125,12.25,-0.07617188,-0.3286133,-1.193848,0.1201172,-0.015625,0.2758789
2193,-11.9375,-47.625,12.4375,-0.1186523,-0.3442383,-1.178711,0.125,-0.01806641,0.2729492
2197,-1.25,-45.9375,17.25,-0.1459961,-0.2392578,-1.125,0.1293945,-0.01953125,0.2714844
2201,6.0625,-45.9375,23,-0.2041016,-0.1347656,-0.9248047,0.1342773,-0.02197266,0.2705078
2205,6.875,-53.875,32.4375,-0.3085938,-0.002441406,-0.7861328,0.1367188,-0.02197266,0.2675781
2209,-1.25,-66,44.25,-0.4130859,0.09814453,-0.6860352,0.1416016,-0.0234375,0.2651367
2213,-28.875,-84.4375,39.875,-0.3588867,0.02441406,-1.043945,0.1474609,-0.02587891,0.262207
2217,-47.125,-74.0625,17.375,-0.03710938,-0.3017578,-1.070801,0.1547852,-0.03173828,0.2583008
2221,-25.0625,-58.375,19,-0.2504883,-0.3950195,-0.9594727,0.1582031,-0.03710938,0.2553711
2225,-4.25,-63.5625,25.9375,-0.4091797,-0.1811523,-0.7133789,0.1616211,-0.03710938,0.2524414
2229,6.625,-83.5,35.5,-0.6611328,0.05517578,-0.4208984,0.1674805,-0.03808594,0.2485352
2234,-8.125,-122.5625,46,-0.7851563,0.2148438,-0.7670898,0.1772461,-0.04199219,0.2431641
2238,-47.375,-126.1875,21.375,-0.1806641,-0.06054688,-0.9169922,0.184082,-0.04443359,0.2363281
2242,-47.625,-100.375,19.5625,-0.378418,-0.2587891,-1.036133,0.1928711,-0.05175781,0.2280273
2246,-37.1875,-98.0625,18.8125,-0.4169922,-0.2705078,-0.9326172,0.199707,-0.05566406,0.2211914
2250,-17.4375,-97.0625,23.0625,-0.6416016,-0.1308594,-0.6362305,0.2070313,-0.05810547,0.21875
2254,-5.9375,-120.75,29,-0.878418,0.07861328,-0.4091797,0.2128906,-0.06445313,0.2119141
2258,-12.6875,-156.25,38.9375,-0.9169922,0.2226563,-0.5361328,0.2211914,-0.06445313,0.199707
2262,-28.5625,-163.25,38.6875,-0.7270508,0.15625,-0.5898438,0.2285156,-0.06933594,0.1914063
2266,-54,-159.75,34.25,-0.6342773,0.1333008,-0.840332,0.2368164,-0.07421875,0.1806641
2270,-62.0625,-144.5625,33.5625,-0.7348633,0.02832031,-0.6552734,0.2475586,-0.08056641,0.1669922
2274,-53.3125,-150.9375,42.625,-1.033203,0.1367188,-0.4628906,0.2519531,-0.08691406,0.1572266
2278,-44.3125,-176.375,53.375,-1.223145,0.2495117,-0.3745117,0.2602539,-0.09423828,0.1464844
2282,-52,-195.875,61.25,-1.005859,0.269043,-0.5825195,0.2675781,-0.1005859,0.1289063
2286,-79.125,-185.875,53.1875,-0.8085938,0.1992188,-0.9287109,0.2709961,-0.1069336,0.1152344
2290,-102,-164.4375,36.1875,-0.8276367,0.04736328,-0.9018555,0.2758789,-0.1181641,0.09765625
2294,-89.6875,-159,33.4375,-1.133789,0.0009765625,-0.7167969,0.2817383,-0.1245117,0.08007813
2298,-63.5,-174.75,32.875,-1.32373,0.1137695,-0.4936523,0.2856445,-0.1269531,0.0703125
2302,-37.0625,-193.8125,41.0625,-1.381836,0.2456055,-0.3476563,0.2880859,-0.1318359,0.04980469
2306,-25.1875,-206.625,56.125,-1.366211,0.4321289,-0.4169922,0.2915039,-0.140625,0.03076172
2310,-49.9375,-207.125,55.6875,-1.12207,0.5214844,-0.5786133,0.2915039,-0.1430664,0.01708984
2314,-76.6875,-185.375,50.625,-1.219238,0.5175781,-0.5283203,0.2915039,-0.1479492,-0.001464844
2318,-99.3125,-187.5,41.25,-1.455566,0.5683594,-0.3476563,0.2890625,-0.1542969,-0.02148438
2322,-104.75,-201.0625,35.125,-1.563965,0.4946289,-0.1362305,0.2856445,-0.1582031,-0.03515625
2326,-93.5625,-221.6875,39.3125,-1.67627,0.5683594,0.03662109,0.2841797,-0.1621094,-0.06103516
2330,-86.25,-233.4375,56.75,-1.432129,0.5605469,-0.1015625,0.2783203,-0.1645508,-0.08300781
2334,-103.5625,-214.3125,69.9375,-1.25,0.5800781,-0.3325195,0.2734375,-0.1669922,-0.09765625
2338,-138.875,-191.6875,64.4375,-1.257813,0.4985352,-0.5014648,0.2651367,-0.1704102,-0.1210938
2342,-152.8125,-176.8125,52.0625,-1.393555,0.3120117,-0.3706055,0.2558594,-0.1694336,-0.1401367
2346,-144.125,-175.875,38.25,-1.393555,0.1875,-0.2553711,0.2509766,-0.1669922,-0.1523438
2350,-112.3125,-176.875,33.375,-1.393555,0.105957,-0.2246094,0.2412109,-0.1645508,-0.1699219
2354,-82.4375,-174.625,34.25,-1.242188,0.171875,-0.3012695,0.2294922,-0.1630859,-0.1875
2358,-75.5625,-160.5,32.75,-1.118652,0.2807617,-0.4863281,0.2270508,-0.1621094,-0.1972656
2363,-91.25,-132.625,27.875,-0.9399414,0.237793,-0.6206055,0.215332,-0.1582031,-0.2119141
2367,-90.4375,-94.8125,36.5625,-0.730957,-0.07226563,-0.7363281,0.2080078,-0.1533203,-0.2177734
2371,-97.3125,-68.3125,4.1875,-1.145508,0.15625,-0.6630859,0.2045898,-0.1508789,-0.2246094
2375,-84.9375,-68.9375,-16.4375,-0.9438477,-0.01416016,-0.4516602,0.199707,-0.1430664,-0.2324219
2379,-55.8125,-47.1875,-22.125,-0.7504883,-0.006347656,-0.4477539,0.1962891,-0.1381836,-0.2392578
2383,-37.5625,-24.125,-20.5625,-0.7929688,0.1020508,-0.34375,0.1948242,-0.1342773,-0.2407227
2387,-30.3125,-8.8125,-18.5625,-0.7387695,0.1367188,-0.2744141,0.1928711,-0.1318359,-0.2421875
2391,-24.4375,13.25,-15.5,-0.6923828,0.121582,-0.1743164,0.1938477,-0.1293945,-0.2460938
2395,-14.3125,27.3125,-17.875,-0.8085938,0.1333008,-0.09375,0.1948242,-0.1269531,-0.2421875
2399,-5.375,32.1875,-23.9375,-0.8164063,0.1796875,-0.02832031,0.1972656,-0.1230469,-0.2407227
2403,-0.4375,38.625,-31.9375,-0.878418,0.2148438,0.08251953,0.2021484,-0.1220703,-0.2421875
2407,5.6875,39.5,-35.1875,-0.9130859,0.2226563,0.1557617,0.203125,-0.1181641,-0.2368164
2411,13.25,39.4375,-38.5,-0.8974609,0.2265625,0.159668,0.2070313,-0.1181641,-0.2338867
2415,23.0625,45.75,-30.8125,-0.8046875,0.1953125,0.1098633,0.2104492,-0.1166992,-0.2299805
2419,30.1875,60.5625,-20.3125,-0.8198242,0.2495117,0.05566406,0.2119141,-0.1166992,-0.2285156
2423,29.6875,67.6875,-20.5625,-0.9091797,0.2456055,0.005859375,0.21875,-0.1181641,-0.2231445
2427,30.0625,72.8125,-27.25,-0.9672852,0.2416992,0.01708984,0.2236328,-0.1181641,-0.2177734
2431,31.4375,72.25,-33.6875,-0.9365234,0.1992188,-0.03613281,0.2236328,-0.1181641,-0.2163086
2435,37.3125,83.5625,-32.6875,-0.8666992,0.1875,-0.04394531,0.2294922,-0.1166992,-0.2109375
2439,39.4375,92.875,-27.9375,-0.8549805,0.1875,-0.112793,0.2353516,-0.1166992,-0.2011719
2443,44.1875,107.625,-22.3125,-0.862793,0.1640625,-0.1401367,0.2402344,-0.1196289,-0.1972656
2447,43,114.9375,-27.4375,-0.9829102,0.2456055,-0.1591797,0.2460938,-0.1196289,-0.1875
2451,37,109.9375,-43.625,-1.067871,0.2226563,-0.1245117,0.2519531,-0.1196289,-0.1767578
2455,38.625,107.875,-50.6875,-1.005859,0.1796875,-0.08984375,0.2568359,-0.1166992,-0.1728516
2459,42.0625,110.25,-44.125,-0.9711914,0.1757813,-0.05517578,0.2626953,-0.1157227,-0.1630859
2463,44.125,115.75,-34.125,-0.9555664,0.1835938,0.001953125,0.269043,-0.1132813,-0.1538086
2467,40.3125,115.5625,-36.8125,-1.017578,0.2299805,-0.02050781,0.2709961,-0.1118164,-0.1469727
2471,33.8125,112.9375,-41.1875,-0.9868164,0.21875,-0.04736328,0.2773438,-0.1108398,-0.1347656
2475,33.0625,114.875,-42.5,-1.001953,0.21875,-0.1206055,0.2817383,-0.109375,-0.125
2479,37.625,120.6875,-31.125,-1.001953,0.2148438,-0.1743164,0.2841797,-0.1054688,-0.1166992
2483,39.8125,129.0625,-16.5625,-1.067871,0.2573242,-0.2089844,0.2880859,-0.1044922,-0.1044922
2487,37.8125,133.75,-0.875,-1.095215,0.269043,-0.3012695,0.2915039,-0.1054688,-0.09375
2492,26.6875,139.5625,2.9375,-1.118652,0.237793,-0.3974609,0.2939453,-0.1044922,-0.08447266
2496,18,147.3125,7.6875,-1.071777,0.1484375,-0.5170898,0.2963867,-0.1054688,-0.06933594
2500,21.6875,157.0625,9.1875,-1.145508,0.02050781,-0.559082,0.2983398,-0.1054688,-0.05566406
2504,44.0625,163.375,14.6875,-1.125977,-0.03759766,-0.628418,0.3022461,-0.1069336,-0.04345703
2508,77.1875,171.8125,26.8125,-1.106934,-0.06835938,-0.6821289,0.3022461,-0.1069336,-0.02734375
2512,114.125,184.8125,49.125,-1.103027,0.0009765625,-0.7749023,0.3007813,-0.1118164,-0.006835938
2516,102.4375,187.5625,25,-1.416992,0.3935547,-0.8515625,0.2998047,-0.1142578,0.00390625
2520,53.4375,162.4375,-28.75,-1.447754,0.5410156,-0.7402344,0.2983398,-0.1132813,0.02294922
2524,13,159.125,-52.375,-1.083496,0.2416992,-0.7939453,0.2963867,-0.109375,0.0390625
2528,13.875,177.75,-40.375,-1.025391,0.04394531,-0.7822266,0.2939453,-0.1044922,0.04736328
2532,45.1875,187.6875,-8.9375,-1.056641,-0.006347656,-0.809082,0.2924805,-0.1005859,0.06640625
2536,69.125,195.625,10.5,-1.165039,0.2148438,-0.7631836,0.2866211,-0.09814453,0.08544922
2540,58.0625,187.4375,8.5625,-1.157227,0.3427734,-0.7402344,0.2817383,-0.09423828,0.1000977
2544,37.625,168.0625,-11.5625,-1.413086,0.3466797,-0.5439453,0.2758789,-0.09179688,0.1152344
2548,12.625,133.625,-21.9375,-0.9555664,0.2265625,-0.5668945,0.269043,-0.09082031,0.1303711
2552,13.4375,148.875,-0.0625,-0.796875,0.1137695,-0.5014648,0.2626953,-0.08691406,0.1381836
2556,15.875,156.875,34.4375,-0.831543,0.121582,-0.5053711,0.2583008,-0.08837891,0.1518555
2560,18.4375,154.8125,51.25,-0.8198242,0.07861328,-0.6132813,0.2460938,-0.08837891,0.1640625
2564,11.5625,150.4375,38.125,-0.8393555,0.04003906,-0.6591797,0.2402344,-0.08935547,0.1723633
2568,-2.5625,146.6875,19.4375,-0.4555664,-0.1655273,-1.001465,0.2329102,-0.09179688,0.1831055
2572,11.5,173.625,15.875,-0.4672852,-0.3325195,-1.121094,0.222168,-0.09179688,0.1982422
2576,30,189.875,25.1875,-0.5063477,-0.3325195,-1.163086,0.2163086,-0.09082031,0.2050781
2580,67,198.3125,49.625,-0.5683594,-0.340332,-1.132324,0.199707,-0.09179688,0.2202148
2584,90,209.25,53.1875,-0.6767578,-0.09960938,-1.01709,0.1831055,-0.08691406,0.2324219
2588,70.4375,185.125,24.25,-0.8198242,0.08251953,-1.074707,0.1723633,-0.08300781,0.2446289
2592,48.4375,172.9375,-9.8125,-0.7426758,0.03613281,-0.7285156,0.1582031,-0.078125,0.2539063
2596,40.0625,139.625,-14.6875,-0.7734375,0.07861328,-0.6362305,0.1450195,-0.07324219,0.262207
2600,39.625,113.75,-8.25,-0.6767578,0.121582,-0.5170898,0.1376953,-0.07080078,0.2661133
2604,23.125,81.5,-11,-0.5063477,0.1640625,-0.5786133,0.128418,-0.06591797,0.2714844
2608,9.375,59.0625,-15.375,-0.4946289,0.07470703,-0.5517578,0.1225586,-0.06298828,0.2758789
2612,8.125,31,-22.8125,-0.4287109,-0.01025391,-0.3823242,0.1166992,-0.06201172,0.2758789
2616,17.5,-1.375,-22.5625,-0.3432617,-0.02978516,-0.3632813,0.1176758,-0.05957031,0.2783203
2621,24.75,-24.4375,-18.9375,-0.1650391,0.02050781,-0.5131836,0.1166992,-0.05712891,0.2783203
2625,18.25,-26.5625,-12.875,0.09375,0.09423828,-0.8208008,0.1186523,-0.0546875,0.2773438
2629,2.0625,-11.6875,-7.875,0.09765625,0.140625,-0.7783203,0.1201172,-0.05322266,0.2744141
2633,-10.5,-13.1875,-5.1875,-0.08398438,0.140625,-0.628418,0.1225586,-0.0546875,0.2744141
2637,-16.3125,-27.5625,0.4375,-0.1108398,0.09033203,-0.6552734,0.1225586,-0.05322266,0.2773438
2641,-17.8125,-32.875,-0.9375,-0.02978516,0.02441406,-0.6787109,0.125,-0.05712891,0.2729492
2645,-13.8125,-41.3125,2.8125,-0.08789063,0.004882813,-0.7670898,0.128418,-0.05712891,0.2714844
2649,-7.5625,-47.875,3.25,-0.1381836,0.008789063,-0.8208008,0.1308594,-0.05957031,0.2705078
2653,-3,-53.6875,1.875,-0.07226563,0.01269531,-0.8979492,0.1367188,-0.06054688,0.2705078
2657,-1.6875,-52.0625,6.625,-0.1303711,0.05126953,-0.9824219,0.1401367,-0.05957031,0.2675781
2661,-8.25,-47.6875,7.125,-0.1264648,0.06298828,-0.9824219,0.1425781,-0.06054688,0.2661133
2665,-13.6875,-48.6875,7.3125,-0.1923828,0.008789063,-1.028809,0.1474609,-0.06298828,0.2607422
2669,-12.3125,-46.6875,12,-0.2543945,-0.04150391,-0.9980469,0.1533203,-0.06445313,0.2583008
2673,-12.5,-49.0625,12.125,-0.3242188,-0.04882813,-0.9555664,0.1547852,-0.06445313,0.2568359
2677,-14.875,-52.0625,14.5,-0.378418,-0.09570313,-1.01709,0.1567383,-0.06689453,0.2524414
2681,-14.0625,-50.125,7.5625,-0.3393555,-0.2006836,-0.9555664,0.1630859,-0.06835938,0.2524414
2685,-6.75,-56.0625,3.6875,-0.4169922,-0.2275391,-0.9785156,0.1650391,-0.06933594,0.2514648
2689,4.0625,-64.0625,0.875,-0.5063477,-0.2006836,-0.7783203,0.1689453,-0.07080078,0.2446289
2693,17.9375,-85.375,4.5625,-0.6455078,-0.09960938,-0.4863281,0.1748047,-0.06835938,0.2416992
2697,27.4375,-114.9375,18,-0.847168,0.03613281,-0.3823242,0.1806641,-0.06933594,0.237793
2701,-3.5625,-128.4375,2.125,-0.2504883,-0.09570313,-0.894043,0.1904297,-0.06933594,0.230957
2705,-2.75,-108.6875,-11,-0.4404297,-0.3637695,-0.8017578,0.2011719,-0.07080078,0.2211914
2709,17.8125,-120.625,-14.5,-0.5488281,-0.2900391,-0.6171875,0.2045898,-0.07080078,0.2172852
2713,44.0625,-140.875,-15.375,-0.7695313,-0.1152344,-0.2397461,0.2128906,-0.06835938,0.2080078
2717,68.625,-180.5,4.625,-1.009766,0.1523438,-0.09765625,0.2260742,-0.06445313,0.1982422
2721,53.375,-209.25,17.375,-0.6689453,0.315918,-0.5551758,0.2319336,-0.06445313,0.1889648
2725,19.9375,-191.4375,15.625,-0.4130859,0.1914063,-0.859375,0.2451172,-0.06298828,0.1723633
2729,-15.5,-166.6875,13.6875,-0.3432617,0.1333008,-1.097656,0.2543945,-0.06445313,0.1572266
2733,-23.3125,-143.75,15.75,-0.6147461,0.01660156,-0.8168945,0.2602539,-0.06445313,0.1494141
2737,-18.6875,-147,25.8125,-0.9594727,0.1293945,-0.4399414,0.2666016,-0.06933594,0.1342773
2741,-14.1875,-171.0625,32.875,-1.312012,0.1757813,-0.1630859,0.2734375,-0.07324219,0.1206055
2745,-16.5,-200.5,38.8125,-0.9555664,0.140625,-0.6630859,0.2792969,-0.07421875,0.1113281
2750,-24.75,-172.0625,45.25,-0.8549805,0.07861328,-0.7441406,0.2856445,-0.08056641,0.09326172
2754,-50.25,-161.6875,49.5625,-0.9326172,0.1796875,-1.01709,0.2915039,-0.08837891,0.07568359
2758,-77.375,-141.9375,35.0625,-1.07959,0.05126953,-0.7514648,0.2915039,-0.09423828,0.06640625
2762,-75.0625,-143.5,34.4375,-1.331543,-0.02197266,-0.4785156,0.2949219,-0.09814453,0.05126953
2766,-46.6875,-160,33.3125,-1.521484,0.01269531,-0.2363281,0.2973633,-0.1030273,0.03759766
2770,-17.375,-182.8125,48.5,-1.498047,0.2226563,-0.2207031,0.2998047,-0.1083984,0.02392578
2774,-23.6875,-184,68.8125,-1.292969,0.4282227,-0.3862305,0.2998047,-0.1118164,0.004882813
2778,-64.625,-171.25,68.875,-1.157227,0.4165039,-0.628418,0.2983398,-0.1220703,-0.01074219
2782,-94.125,-153.375,61.5,-1.242188,0.237793,-0.5825195,0.2963867,-0.1269531,-0.02294922
2786,-103.4375,-152.1875,49.6875,-1.370117,0.1293945,-0.3823242,0.2963867,-0.1333008,-0.03808594
2790,-86.375,-160.875,44.5,-1.467285,0.09814453,-0.2285156,0.2900391,-0.1357422,-0.05566406
2794,-60.9375,-173.5,48,-1.479004,0.203125,-0.0859375,0.2900391,-0.1381836,-0.06787109
2798,-46.875,-180.4375,56.5625,-1.366211,0.3818359,-0.1323242,0.2856445,-0.1420898,-0.08691406
2802,-56.6875,-176.4375,58.875,-1.289063,0.4868164,-0.1206055,0.2807617,-0.1469727,-0.1044922
2806,-89.9375,-164.3125,59,-1.11084,0.5683594,-0.2939453,0.2749023,-0.1494141,-0.112793
2810,-131,-139.25,47.5625,-1.099121,0.5722656,-0.2475586,0.269043,-0.1508789,-0.1303711
2814,-168.0625,-125.4375,33.5,-1.265625,0.5371094,-0.01660156,0.2602539,-0.1508789,-0.1455078
2818,-147,-147.5625,42.9375,-1.529297,0.008789063,0.2558594,0.2583008,-0.1469727,-0.1577148
2822,-84.0625,-170.5625,51.125,-1.351074,-0.1191406,0.2402344,0.2485352,-0.1430664,-0.1728516
2826,-47.375,-173.125,39.6875,-1.133789,0.05126953,-0.112793,0.237793,-0.1445313,-0.1889648
2830,-60.0625,-155.1875,29.6875,-1.063965,0.3427734,-0.4785156,0.2319336,-0.1455078,-0.1972656
2834,-105.5,-133.125,22.8125,-1.021484,0.3779297,-0.5170898,0.222168,-0.1420898,-0.2094727
2838,-120.25,-115.375,16.25,-1.056641,0.1098633,-0.4013672,0.215332,-0.1381836,-0.2202148
2842,-104.25,-100.0625,11.8125,-1.033203,-0.006347656,-0.2055664,0.2094727,-0.1318359,-0.2285156
2846,-77.5625,-93.125,8.375,-1.044922,-0.04541016,-0.2055664,0.2045898,-0.1279297,-0.2368164
2850,-40.4375,-63,37.9375,-0.6845703,0.01660156,-0.2631836,0.1962891,-0.1230469,-0.2436523
2854,-56.375,-53.3125,10.75,-1.005859,0.2226563,-0.5668945,0.1938477,-0.1206055,-0.2460938
2858,-48.625,-34.125,4.375,-0.6572266,-0.01025391,-0.3554688,0.1889648,-0.1166992,-0.25
2862,-27.625,-1.6875,9.25,-0.6650391,0.01660156,-0.1977539,0.1879883,-0.1166992,-0.2514648
2866,-21.0625,11.4375,7.875,-0.8198242,0.1679688,-0.04003906,0.1889648,-0.1132813,-0.2490234
2870,-22.75,20.5,11.25,-0.7114258,0.1914063,0.05957031,0.1914063,-0.1118164,-0.25
2874,-27.875,32.375,9.4375,-0.7851563,0.21875,0.1098633,0.1914063,-0.1118164,-0.25
2879,-31.8125,31,-1.6875,-0.8198242,0.1484375,0.1943359,0.1938477,-0.1108398,-0.25
2883,-18,30,-6.9375,-0.8085938,0.07861328,0.2519531,0.1948242,-0.109375,-0.2490234
2887,-2.125,30.8125,-7.9375,-0.8164063,0.121582,0.2519531,0.1962891,-0.1054688,-0.2475586
2891,8.375,33.375,-6.4375,-0.8164063,0.1875,0.2060547,0.1987305,-0.1069336,-0.2460938
2895,9.25,41.6875,-3.3125,-0.8125,0.253418,0.1210938,0.2011719,-0.1054688,-0.2436523
2899,10.1875,49.25,-3.75,-0.862793,0.2070313,0.005859375,0.2021484,-0.1083984,-0.2407227
2903,15.5,55.625,-9.4375,-0.9091797,0.1835938,-0.09765625,0.2055664,-0.109375,-0.2368164
2907,20.5625,68.875,-11.75,-0.8549805,0.21875,-0.1860352,0.2104492,-0.1108398,-0.2324219
2911,19.5625,87,-7.75,-0.8818359,0.1914063,-0.2592773,0.215332,-0.1108398,-0.2270508
2915,20.0625,110.6875,-2.375,-0.8276367,0.1796875,-0.3398438,0.2211914,-0.1118164,-0.2231445
2919,22,139.8125,4.0625,-0.8745117,0.1523438,-0.394043,0.2270508,-0.1108398,-0.2148438
2923,19.8125,168.4375,13.75,-0.9555664,0.2768555,-0.3974609,0.2353516,-0.1142578,-0.2041016
2927,7.5,177.75,5.5,-1.219238,0.3081055,-0.3168945,0.2412109,-0.1142578,-0.1958008
2931,6.5,177.125,-2.4375,-1.223145,0.15625,-0.1977539,0.25,-0.1157227,-0.1821289
2935,18.6875,173.375,-10.625,-1.234863,0.07080078,-0.2055664,0.2583008,-0.1166992,-0.168457
2939,37.8125,180.625,-5.625,-1.071777,0.07470703,-0.2978516,0.2641602,-0.1166992,-0.1577148
2943,52,201.5,15.375,-1.021484,0.1875,-0.4208984,0.2724609,-0.1181641,-0.1401367
2947,63.4375,224.125,30.625,-1.168945,0.2768555,-0.3745117,0.2783203,-0.1206055,-0.1210938
2951,61.9375,202.3125,9.875,-1.583496,0.3857422,-0.378418,0.2841797,-0.1245117,-0.1088867
2955,68.375,186.875,-0.8125,-1.234863,0.2573242,-0.3745117,0.2880859,-0.1269531,-0.08984375
2959,80.3125,201.125,1.0625,-1.176758,0.3544922,-0.4594727,0.2900391,-0.1279297,-0.06787109
2963,75.625,200.3125,-2.8125,-1.304199,0.5410156,-0.5439453,0.2963867,-0.1279297,-0.05566406
2967,78.625,210.25,15.1875,-1.052734,0.4438477,-0.59375,0.2983398,-0.1293945,-0.03515625
2971,91.875,235.75,48.625,-0.9790039,0.4477539,-0.7094727,0.2949219,-0.1308594,-0.01220703
2975,81.25,237.1875,46.0625,-1.439941,0.5722656,-0.7246094,0.2949219,-0.1318359,0.004882813
2979,77.8125,216.25,23.75,-1.486328,0.4829102,-0.6132813,0.2915039,-0.1367188,0.02685547
2983,80.625,198.125,3.1875,-1.253906,0.3466797,-0.6630859,0.2866211,-0.1357422,0.04980469
2987,91.25,203.875,12.8125,-1.168945,0.4052734,-0.8017578,0.2841797,-0.1333008,0.06347656
2991,91.6875,212.3125,24.9375,-0.9365234,0.4516602,-0.9360352,0.2792969,-0.1308594,0.08544922
2995,95.875,236.625,50.9375,-0.8046875,0.4594727,-1.047852,0.2700195,-0.1293945,0.1098633
2999,102.875,265.75,82.3125,-0.7617188,0.5449219,-1.08252,0.2626953,-0.1293945,0.125
3003,97.125,287.4375,106.75,-0.8085938,0.6923828,-1.117188,0.2475586,-0.1293945,0.1494141
3008,68.6875,300.0625,108.4375,-0.9052734,0.793457,-1.078613,0.2260742,-0.1333008,0.1762695
3012,14.3125,299.8125,97.0625,-0.8125,0.8520508,-1.047852,0.2138672,-0.1342773,0.1899414
3016,-29.9375,316.5625,109.625,-0.6923828,0.5839844,-1.001465,0.1914063,-0.1396484,0.2089844
3020,-38.0625,333.5625,139.1875,-0.8549805,0.3505859,-0.8710938,0.1650391,-0.1479492,0.2280273
3024,-32.75,321.4375,151.875,-1.106934,0.253418,-0.7246094,0.1450195,-0.1567383,0.2402344
3028,-32.75,279.625,130.8125,-1.25,0.02441406,-0.5786133,0.1152344,-0.1630859,0.2539063
3032,-16.0625,219.1875,86.9375,-1.242188,-0.1459961,-0.4052734,0.08886719,-0.1669922,0.2636719
3036,-2.0625,141.5625,27.4375,-1.133789,-0.3325195,-0.4628906,0.07861328,-0.1694336,0.2661133
3040,31.25,84.6875,-4.3125,-0.6884766,-0.2241211,-0.4594727,0.06542969,-0.1704102,0.2675781
3044,48.625,51.3125,-6.5625,-0.3974609,0.07861328,-0.6821289,0.05810547,-0.1655273,0.2744141
3048,52.375,42.1875,-3.25,-0.05664063,0.1914063,-0.7749023,0.05566406,-0.1606445,0.2744141
3052,52.4375,41.3125,0.9375,0.04345703,0.2299805,-0.9091797,0.0546875,-0.1582031,0.2783203
3056,46.8125,41.5,3.375,-0.002441406,0.2651367,-0.9672852,0.04882813,-0.1518555,0.2797852
3060,38.6875,37.125,-3.1875,0.09375,0.1757813,-0.9633789,0.04492188,-0.1469727,0.28125
3064,35.625,39.375,-11.4375,0.08642578,0.171875,-0.9672852,0.04150391,-0.1445313,0.2827148
3068,31.875,37.5,-10.5625,0.03173828,0.2109375,-0.9287109,0.0390625,-0.1420898,0.2841797
3072,28.5625,32.8125,-7.625,0.125,0.2070313,-0.9052734,0.03564453,-0.1381836,0.2866211
3076,26.125,37.3125,4.875,0.1054688,0.2070313,-0.84375,0.03417969,-0.1342773,0.2866211
3080,22.4375,28.875,8.5625,0.04736328,0.1523438,-0.8325195,0.02978516,-0.1318359,0.2895508
3084,18.5625,24.75,5.375,0.03564453,0.09814453,-0.7709961,0.02734375,-0.1333008,0.2895508
3088,14,13,-7.5,0.02441406,0.06689453,-0.7514648,0.02490234,-0.1308594,0.2910156
3092,11.1875,-0.3125,-16.8125,0.008789063,0.05908203,-0.7631836,0.02734375,-0.1293945,0.2910156
3096,9.5625,-5.375,-17,0.07080078,0.07080078,-0.7055664,0.02734375,-0.1293945,0.2895508
3100,9.6875,-15,-13.125,0.03955078,0.07470703,-0.7324219,0.02832031,-0.1279297,0.2910156
3104,10.6875,-20.625,-6.9375,0.07861328,0.08642578,-0.7363281,0.02978516,-0.1269531,0.2919922
3108,7.125,-25.8125,-5.125,0.06689453,0.1020508,-0.7363281,0.03076172,-0.1254883,0.2919922
3112,1.125,-31.3125,-8.4375,0.02832031,0.07470703,-0.6938477,0.03320313,-0.1269531,0.2910156
3116,-2.4375,-41.9375,-16.1875,-0.002441406,0.07861328,-0.6748047,0.0390625,-0.1269531,0.2910156
3120,-7.25,-53.1875,-23.1875,-0.08007813,0.121582,-0.7324219,0.04052734,-0.1254883,0.2880859
3124,-9.875,-64.4375,-26.6875,0.02441406,0.09033203,-0.7402344,0.04492188,-0.1269531,0.2895508
3128,-8.1875,-67.6875,-19.1875,-0.04101563,0.1293945,-0.7441406,0.05224609,-0.1269531,0.2866211
3132,-5.4375,-75.3125,-12.5,-0.09521484,0.09423828,-0.6054688,0.05566406,-0.1254883,0.2866211
3137,6.5625,-99.625,-3.5,-0.4052734,-0.006347656,-0.6132813,0.06640625,-0.1279297,0.2841797
3141,33.25,-134.9375,-12.125,-0.2426758,-0.2124023,-0.7055664,0.07714844,-0.1245117,0.2797852
3145,46.75,-141.75,-24.4375,-0.2270508,0.03613281,-0.7822266,0.08447266,-0.1230469,0.2797852
3149,24.6875,-147.8125,-30.25,-0.2543945,0.3081055,-0.7016602,0.09765625,-0.1196289,0.2744141
3153,5.5625,-153.375,-24.75,-0.4013672,0.3427734,-0.5244141,0.1142578,-0.1166992,0.2705078
3157,-2.5625,-175.3125,-13.875,-0.5141602,0.1992188,-0.5864258,0.1225586,-0.1196289,0.2661133
3161,3.3125,-197.5625,-15.3125,-0.4790039,-0.08789063,-0.8710938,0.1376953,-0.1181641,0.2553711
3165,23.5,-194,-29.8125,-0.3320313,-0.1499023,-0.8710938,0.1533203,-0.1157227,0.2470703
3169,16.9375,-184.5,-31.625,-0.4985352,0.3120117,-0.8632813,0.1640625,-0.1157227,0.2416992
3173,-21.6875,-184.3125,-31.25,-0.6689453,0.4399414,-0.9169922,0.1806641,-0.1142578,0.2280273
3177,-40.75,-193.5625,-47,-0.7075195,0.2148438,-0.8901367,0.1948242,-0.1142578,0.2172852
3181,-32.5625,-212.625,-46.5,-0.7348633,0.09423828,-1.193848,0.203125,-0.1142578,0.206543
3185,-17.125,-190.9375,-40.875,-0.2890625,0.05517578,-1.213379,0.21875,-0.1142578,0.1928711
3189,-16.8125,-156.1875,-17.3125,-0.5332031,0.3427734,-1.155762,0.2294922,-0.1142578,0.1791992
3193,-38.1875,-140.1875,1.5625,-0.7734375,0.4868164,-0.878418,0.2368164,-0.1142578,0.1723633
3197,-61.6875,-146.1875,6.125,-1.091309,0.3779297,-0.7709961,0.2436523,-0.1196289,0.1601563
3201,-66.375,-164,-2.25,-1.129883,0.2265625,-0.8208008,0.2509766,-0.1254883,0.1464844
3205,-69.0625,-172,-16.125,-0.8354492,0.03613281,-1.032227,0.2568359,-0.1269531,0.1357422
3209,-53.4375,-157.9375,-19.6875,-1.025391,0.05517578,-0.8862305,0.2626953,-0.1293945,0.1191406
3213,-44,-168.5,-14.875,-1.261719,0.2768555,-0.6323242,0.2724609,-0.1293945,0.1030273
3217,-38.5,-187.1875,-7.9375,-1.389648,0.4399414,-0.4091797,0.2758789,-0.1308594,0.09082031
3221,-47.5625,-205.625,1.5625,-1.230957,0.5644531,-0.559082,0.2817383,-0.1318359,0.07324219
3225,-68.625,-205.8125,0.4375,-1.203613,0.5292969,-0.7709961,0.2866211,-0.1333008,0.05419922
3229,-84.3125,-195.0625,-7,-0.9052734,0.269043,-0.878418,0.2890625,-0.1367188,0.03759766
3233,-78.75,-177.875,-8.9375,-1.137695,0.2416992,-0.6977539,0.2924805,-0.1381836,0.01708984
3237,-65.6875,-185.1875,-7,-1.362793,0.3466797,-0.3666992,0.2939453,-0.1381836,0.0009765625
3241,-55.0625,-201.4375,0.875,-1.416992,0.4711914,-0.2744141,0.2939453,-0.1381836,-0.01367188
3245,-65.5625,-203.6875,9.875,-1.114746,0.5449219,-0.4438477,0.2915039,-0.1396484,-0.03271484
3249,-76.375,-193.8125,12.375,-1.12207,0.4052734,-0.5517578,0.2900391,-0.140625,-0.05419922
3253,-80.8125,-182.6875,15.625,-0.8818359,0.2612305,-0.7363281,0.2900391,-0.140625,-0.06640625
3257,-77.5,-159.8125,14.125,-1.025391,0.2226563,-0.5864258,0.2866211,-0.1396484,-0.08544922
3261,-68.625,-159.5,15,-1.261719,0.3349609,-0.2978516,0.2841797,-0.140625,-0.1035156
3266,-63.8125,-161.625,17.9375,-1.257813,0.4555664,-0.03613281,0.2783203,-0.1381836,-0.112793
3270,-69.8125,-165.9375,30.5,-1.253906,0.5253906,-0.1015625,0.2724609,-0.140625,-0.1289063
3274,-88.9375,-153.75,33.75,-0.9091797,0.3466797,-0.3208008,0.2651367,-0.1381836,-0.144043
3278,-92.375,-136.875,32.1875,-0.9594727,0.15625,-0.5551758,0.2602539,-0.140625,-0.1538086
3282,-82.375,-113,23.1875,-1.025391,0.09814453,-0.2939453,0.2543945,-0.1381836,-0.1674805
3286,-66.3125,-116.4375,17.125,-1.289063,0.2070313,0.1328125,0.25,-0.1367188,-0.1767578
3290,-50.125,-130.8125,20.875,-1.374023,0.315918,0.2597656,0.2436523,-0.1342773,-0.1835938
3294,-52.8125,-141.0625,20.375,-1.017578,0.284668,-0.09375,0.237793,-0.1333008,-0.1943359
3298,-55.4375,-123.4375,18.75,-0.8276367,0.105957,-0.5361328,0.2285156,-0.1318359,-0.206543
3302,-52.5,-85.1875,14,-0.5756836,0.02832031,-0.5361328,0.2211914,-0.1293945,-0.2109375
3306,-38.8125,-54.4375,20.5,-0.9399414,0.121582,-0.309082,0.21875,-0.1269531,-0.2202148
3310,-35.0625,-46.9375,22.0625,-1.041016,0.2495117,-0.05908203,0.215332,-0.1279297,-0.2231445
3314,-34.9375,-50.25,22.9375,-0.9208984,0.1796875,-0.2397461,0.2119141,-0.1254883,-0.2255859
3318,-25.4375,-10.5625,36.5625,-0.6455078,0.2963867,-0.2436523,0.2094727,-0.1254883,-0.2285156
3322,-31,-11.0625,18.6875,-0.746582,0.09033203,-0.2705078,0.2080078,-0.1245117,-0.230957
3326,-14.3125,11.1875,20.3125,-0.7929688,0.1098633,-0.1206055,0.2080078,-0.1254883,-0.2299805
3330,-12.8125,19.0625,20,-0.862793,0.2338867,-0.01660156,0.2055664,-0.1269531,-0.230957
3334,-13.3125,27.375,13.875,-0.8549805,0.2148438,0.2021484,0.2080078,-0.1269531,-0.2285156
3338,-7.25,21.5,8,-1.044922,0.2299805,0.3710938,0.2080078,-0.1269531,-0.2270508
3342,-0.8125,7.5625,-3.0625,-0.9399414,0.2226563,0.4404297,0.2094727,-0.1245117,-0.2285156
3346,8.625,3.5625,-8.75,-0.8745117,0.2109375,0.375,0.2094727,-0.1245117,-0.2255859
3350,14.375,1,-8.75,-0.8896484,0.2070313,0.2480469,0.2119141,-0.1254883,-0.2255859
3354,18.5,5.25,-11.4375,-0.8085938,0.1796875,0.08251953,0.2104492,-0.1269531,-0.2270508
3358,22.1875,14.4375,-16.75,-0.8354492,0.171875,-0.04003906,0.2128906,-0.1279297,-0.2246094
3362,26.5625,20.75,-21.1875,-0.9633789,0.1757813,-0.09765625,0.2128906,-0.1279297,-0.2231445
3366,33.875,25.4375,-27.6875,-0.9208984,0.1333008,-0.1591797,0.215332,-0.1279297,-0.2202148
3370,49.125,35.75,-28.3125,-0.9516602,0.105957,-0.1977539,0.2163086,-0.1279297,-0.21875
3374,61.875,49.6875,-30.5,-0.878418,0.1020508,-0.3666992,0.21875,-0.1308594,-0.2163086
3378,74.6875,73.75,-30.9375,-0.8857422,0.07861328,-0.5170898,0.2260742,-0.1318359,-0.2109375
3382,88.625,100.4375,-30.5625,-0.9399414,0.09033203,-0.6132813,0.2285156,-0.1357422,-0.2041016
3386,101.1875,121.8125,-28.1875,-1.037109,0.09814453,-0.609375,0.2353516,-0.1357422,-0.1943359
3390,115.75,135.75,-30.875,-1.137695,0.07080078,-0.5708008,0.2426758,-0.1396484,-0.1835938
3395,137.9375,142.9375,-37.375,-1.23877,0.01269531,-0.4824219,0.25,-0.1420898,-0.1699219
3399,153.125,139.8125,-56.875,-1.269531,0.2070313,-0.4516602,0.253418,-0.1455078,-0.1606445
3403,142.9375,144.875,-78.0625,-1.234863,0.3857422,-0.3706055,0.2626953,-0.1455078,-0.144043
3407,114.0625,152.375,-90.3125,-1.223145,0.5332031,-0.2900391,0.2709961,-0.1430664,-0.1264648
3411,80.1875,164.9375,-95.625,-1.161133,0.4165039,-0.2436523,0.2758789,-0.140625,-0.1166992
3415,72.1875,175.875,-88.3125,-1.265625,0.1992188,-0.2397461,0.2841797,-0.1357422,-0.09912109
3419,83.8125,178.375,-79.3125,-1.234863,0.01660156,-0.2514648,0.2900391,-0.1279297,-0.08154297
3423,118.625,182.125,-67,-1.347168,-0.07617188,-0.3012695,0.2939453,-0.1254883,-0.06787109
3427,138.375,172.375,-70.5,-1.424316,0.2226563,-0.3286133,0.2963867,-0.1181641,-0.04882813
3431,125.125,171.3125,-74.6875,-1.292969,0.4907227,-0.4208984,0.3022461,-0.1118164,-0.02978516
3435,83.4375,180.4375,-75.25,-1.242188,0.7197266,-0.5551758,0.3032227,-0.1054688,-0.01757813
3439,27.0625,201.125,-65.5,-1.125977,0.6616211,-0.7631836,0.3022461,-0.09814453,0.0009765625
3443,16.6875,217.625,-51.375,-1.067871,0.1137695,-0.8476563,0.3022461,-0.09179688,0.02294922
3447,57.5625,230.3125,-26.5625,-1.145508,-0.1152344,-0.9707031,0.3007813,-0.08837891,0.03759766
3451,103.625,243.875,-8.8125,-1.203613,0.04736328,-1.01709,0.2963867,-0.08447266,0.05957031
3455,95.9375,228.625,-33.3125,-1.560059,0.5058594,-1.066895,0.2900391,-0.07714844,0.08398438
3459,61,226.3125,-50.25,-1.145508,0.4829102,-0.8710938,0.2841797,-0.07177734,0.09912109
3463,26.125,231.125,-50.4375,-1.32373,0.4946289,-0.8286133,0.2773438,-0.06445313,0.1220703
3467,1.5,233.0625,-30.9375,-1.021484,0.3041992,-0.8632813,0.2675781,-0.05810547,0.1411133
3471,1.3125,247.5,-9.75,-1.033203,0.04736328,-0.9399414,0.2583008,-0.05712891,0.1547852
3475,23.3125,253.625,20.375,-0.9711914,-0.08007813,-1.009277,0.2460938,-0.05712891,0.1723633
3479,15.1875,246.0625,1,-1.180664,0.1020508,-1.094238,0.2294922,-0.05322266,0.1953125
3483,1.0625,231.3125,-20.9375,-1.021484,-0.1035156,-1.028809,0.21875,-0.05175781,0.206543
3487,-4,234.625,-21.625,-0.831543,-0.03369141,-1.063477,0.2011719,-0.05078125,0.2211914
3491,-17.875,239.25,-6.8125,-0.847168,0.07080078,-1.078613,0.184082,-0.046875,0.237793
3495,-22.9375,243.125,14,-0.7270508,-0.1113281,-1.005371,0.1713867,-0.04931641,0.2460938
3499,-15.9375,229.5625,20,-0.7543945,-0.2124023,-1.090332,0.1499023,-0.05175781,0.2607422
3503,-6.0625,222.5,6,-0.7270508,-0.1928711,-0.9824219,0.1318359,-0.04931641,0.2705078
3507,-8.875,210.1875,-8.375,-0.6186523,-0.1577148,-0.8208008,0.1186523,-0.04931641,0.2773438
3511,-5.8125,192.3125,-8.5625,-0.7387695,-0.1420898,-0.5898438,0.09863281,-0.046875,0.2851563
3515,1.5,164.6875,-3.625,-0.5605469,-0.07617188,-0.359375,0.08056641,-0.04833984,0.2919922
3519,8.875,132.375,4.25,-0.5175781,-0.09960938,-0.2783203,0.07128906,-0.04833984,0.293457
3524,15.0625,100.4375,2.9375,-0.2387695,-0.1459961,-0.3706055,0.06152344,-0.04443359,0.2963867
3528,21.9375,88.625,4.8125,-0.1611328,-0.1538086,-0.3325195,0.05078125,-0.04443359,0.3017578
3532,14.75,70.5625,-2.8125,-0.1069336,-0.04150391,-0.2631836,0.04492188,-0.04052734,0.2988281
3536,6.5625,50.8125,-10.3125,-0.04101563,-0.1538086,-0.2783203,0.04052734,-0.03808594,0.3017578
3540,7.9375,38.25,-2.6875,-0.06054688,-0.09960938,-0.2900391,0.03320313,-0.03808594,0.3041992
3544,0.3125,22.4375,-2.1875,0.01660156,-0.1074219,-0.378418,0.03173828,-0.03955078,0.3041992
3548,-0.125,12.75,-1.0625,0.05517578,-0.1889648,-0.4169922,0.03076172,-0.03955078,0.3041992
3552,1.9375,-2.4375,-0.6875,0.09033203,-0.1694336,-0.5170898,0.02832031,-0.04052734,0.3085938
3556,-3.25,-7.125,-5.875,0.190918,-0.1967773,-0.6552734,0.03076172,-0.03955078,0.3032227
3560,-5,-6.75,-12.8125,0.1831055,-0.2084961,-0.7324219,0.02978516,-0.03955078,0.3032227
3564,-1.25,-12.8125,-17,0.05517578,-0.1850586,-0.6132813,0.03173828,-0.03955078,0.3032227
3568,5.875,-34.9375,-15.4375,-0.01416016,-0.06835938,-0.5551758,0.03076172,-0.03808594,0.3041992
3572,9.125,-50.625,-11.9375,0.109375,0.02832031,-0.6132813,0.03662109,-0.04052734,0.3032227
3576,-0.375,-54.8125,-3.3125,0.2412109,0.15625,-0.8208008,0.04150391,-0.03955078,0.3017578
3580,-20.4375,-42.5,3.3125,0.2412109,0.1445313,-0.84375,0.04492188,-0.03808594,0.3032227
3584,-29.8125,-43.125,9.5625,0.02050781,0.04394531,-0.6938477,0.04882813,-0.04199219,0.3017578
3588,-29.3125,-64.1875,6.4375,-0.07617188,-0.06445313,-0.7978516,0.05322266,-0.04443359,0.2988281
3592,-17.0625,-73.75,2.5625,-0.002441406,-0.1772461,-0.8364258,0.05957031,-0.04589844,0.2973633
3596,-7.4375,-83.375,4.5625,0.04345703,-0.1269531,-0.9746094,0.06542969,-0.046875,0.2963867
3600,-3,-79.4375,6.875,-0.01416016,-0.04150391,-0.8671875,0.07373047,-0.05078125,0.2949219
3604,-6.5625,-91.625,9.4375,-0.1108398,0.1098633,-0.8325195,0.07958984,-0.05078125,0.2919922
3608,-16.5,-100.875,19.5625,-0.2890625,0.1293945,-0.8515625,0.08691406,-0.05322266,0.2880859
3612,-27.125,-106.5,10.0625,0.03564453,-0.1074219,-1.040039,0.09765625,-0.05712891,0.2841797
3616,-13.1875,-98.875,13.125,-0.2080078,-0.1230469,-0.9594727,0.1035156,-0.05810547,0.2827148
3620,-3.9375,-112,14.875,-0.2851563,0.07861328,-0.7783203,0.112793,-0.05957031,0.2797852
3624,-11.9375,-127.5,24.875,-0.5214844,0.2885742,-0.7094727,0.125,-0.06201172,0.2729492
3628,-41.4375,-137.25,14.5,-0.1459961,0.1953125,-0.9052734,0.1293945,-0.06298828,0.269043
3632,-51.75,-127.5,18.5625,-0.4829102,0.07080078,-0.9516602,0.1425781,-0.06933594,0.262207
3636,-47.875,-137.8125,16.1875,-0.4443359,-0.09960938,-0.9130859,0.1547852,-0.07568359,0.2553711
3640,-27.125,-152.875,19.6875,-0.6572266,-0.1191406,-1.074707,0.1616211,-0.07714844,0.2514648
3644,-16.875,-157.625,4.875,-0.3125,-0.1811523,-1.066895,0.1757813,-0.08203125,0.2416992
3648,-1.5625,-153.3125,11.0625,-0.6342773,-0.006347656,-1.028809,0.1865234,-0.08300781,0.2333984
3653,-1.6875,-159.875,12.6875,-0.6225586,0.1137695,-0.824707,0.1962891,-0.08544922,0.2226563
3657,-0.1875,-169.6875,21.1875,-0.9052734,0.2612305,-0.6323242,0.2055664,-0.08691406,0.2133789
3661,-1.3125,-191.6875,31.5625,-1.013672,0.4243164,-0.5053711,0.2177734,-0.08935547,0.1982422
3665,-24.25,-206.4375,43.5625,-0.8198242,0.4477539,-0.8632813,0.2260742,-0.09179688,0.1914063
3669,-52.5625,-186.5625,43.75,-0.8276367,0.315918,-0.7631836,0.2392578,-0.09960938,0.1762695
3673,-75,-194.9375,35.25,-1.029297,0.171875,-0.84375,0.2475586,-0.1069336,0.1586914
3677,-72.625,-201.8125,24.25,-1.075684,0.004882813,-0.628418,0.2558594,-0.1118164,0.1464844
3681,-42.1875,-216.875,28.6875,-1.265625,0.09814453,-0.4360352,0.2641602,-0.1196289,0.1274414
3685,-31.0625,-234.0625,37.8125,-1.312012,0.4204102,-0.359375,0.2709961,-0.1245117,0.1069336
3689,-49.625,-245.0625,51.6875,-1.23877,0.5683594,-0.5629883,0.2758789,-0.1279297,0.09228516
3693,-82.1875,-225.75,52.0625,-1.029297,0.4438477,-0.6899414,0.2832031,-0.1357422,0.06884766
3697,-100.125,-214.6875,49.1875,-1.230957,0.3623047,-0.6708984,0.2866211,-0.1420898,0.04443359
3701,-102.5,-218.125,44.9375,-1.397461,0.3974609,-0.5400391,0.2880859,-0.1455078,0.03076172
3705,-103.5625,-222.875,47.9375,-1.405273,0.5214844,-0.4130859,0.2880859,-0.1533203,0.006347656
3709,-105.875,-223.9375,60.25,-1.381836,0.5527344,-0.3208008,0.2880859,-0.1591797,-0.01757813
3713,-116.25,-217.9375,74.6875,-1.312012,0.5761719,-0.4477539,0.2841797,-0.1630859,-0.03125
3717,-137.8125,-212.625,63.75,-1.385742,0.4750977,-0.5014648,0.2792969,-0.1694336,-0.05712891
3721,-134.8125,-210.8125,56.4375,-1.32373,0.2768555,-0.5668945,0.2749023,-0.1743164,-0.08154297
3725,-119.9375,-203.25,50.3125,-1.370117,0.2495117,-0.5244141,0.269043,-0.1733398,-0.09521484
3729,-103.6875,-204.9375,45.125,-1.424316,0.2807617,-0.4516602,0.2617188,-0.1767578,-0.1166992
3733,-85.3125,-203,42.5625,-1.37793,0.3041992,-0.4130859,0.2543945,-0.1757813,-0.1357422
3737,-75.1875,-194.125,43.4375,-1.257813,0.3974609,-0.4282227,0.2475586,-0.1767578,-0.1508789
3741,-76.4375,-178.375,43.5,-1.180664,0.4282227,-0.4360352,0.237793,-0.1757813,-0.168457
3745,-89.5625,-157.0625,37.6875,-1.106934,0.4555664,-0.4707031,0.2270508,-0.1743164,-0.1806641
3749,-94.4375,-123.75,52.125,-0.8432617,0.2885742,-0.394043,0.2211914,-0.1743164,-0.1904297
3753,-109.125,-113.875,26.375,-1.389648,0.3505859,-0.4975586,0.2128906,-0.171875,-0.2026367
3757,-90.625,-116.125,16.4375,-1.001953,0.09814453,-0.3476563,0.2070313,-0.1655273,-0.2133789
3761,-55.8125,-91.875,18.625,-0.8857422,0.08251953,-0.4248047,0.2011719,-0.1630859,-0.2202148
3765,-35.8125,-68.9375,17.875,-0.878418,0.1796875,-0.4555664,0.1938477,-0.1621094,-0.2285156
3769,-30.625,-48.875,6.1875,-0.8706055,0.1835938,-0.4013672,0.1889648,-0.1591797,-0.2324219
3773,-22.5,-30.0625,-0.375,-0.8237305,0.1640625,-0.324707,0.1879883,-0.1582031,-0.2324219
3777,-10.375,-11.25,-4.3125,-0.8276367,0.1992188,-0.2363281,0.1865234,-0.1557617,-0.2353516
3782,-2,2.6875,-5.25,-0.7929688,0.2226563,-0.1977539,0.1865234,-0.1542969,-0.237793
3786,2.4375,18.25,-10,-0.7851563,0.2807617,-0.1630859,0.1865234,-0.1542969,-0.2368164
3790,-0.8125,34.1875,-16.4375,-0.7851563,0.3120117,-0.07470703,0.1889648,-0.1557617,-0.2353516
3794,-3.1875,44.5,-20.9375,-0.7890625,0.2768555,-0.01660156,0.1914063,-0.1542969,-0.2338867
3798,6.0625,54.75,-18.75,-0.831543,0.2299805,0.05175781,0.1972656,-0.1518555,-0.230957
3802,18.5,56,-18.3125,-0.8706055,0.237793,0.04443359,0.199707,-0.1518555,-0.2270508
3806,28,59.375,-21,-0.8896484,0.2963867,0.01367188,0.2021484,-0.1518555,-0.2216797
3810,25.5,66.9375,-21.4375,-0.796875,0.3120117,-0.07470703,0.2045898,-0.1533203,-0.2202148
3814,20.1875,85.3125,-20.6875,-0.878418,0.2885742,-0.1323242,0.2094727,-0.1533203,-0.2148438
3818,13.6875,94.5,-26.125,-0.9555664,0.2299805,-0.1821289,0.215332,-0.1533203,-0.2094727
3822,22.1875,103.625,-27.8125,-0.9052734,0.105957,-0.2246094,0.2211914,-0.1518555,-0.2026367
3826,38.8125,117.0625,-27.6875,-0.9248047,0.09814453,-0.2631836,0.2270508,-0.1508789,-0.1958008
3830,52.5,126.875,-29.1875,-0.9946289,0.1293945,-0.2631836,0.234375,-0.1542969,-0.1865234
3834,65.625,132.6875,-31.9375,-1.013672,0.1176758,-0.2631836,0.2392578,-0.1533203,-0.1767578
3838,82.3125,138.8125,-29.0625,-1.063965,0.1757813,-0.2475586,0.2485352,-0.1533203,-0.1674805
3842,94,141.75,-28,-1.052734,0.2573242,-0.2475586,0.2519531,-0.1542969,-0.1508789
3846,95.125,154.5,-20.4375,-1.009766,0.3701172,-0.2670898,0.2592773,-0.1542969,-0.144043
3850,87,164.125,-12.6875,-0.9868164,0.4013672,-0.324707,0.2651367,-0.1582031,-0.1264648
3854,91.25,186.0625,16.125,-0.8237305,0.3041992,-0.3632813,0.2700195,-0.1591797,-0.1088867
3858,109.75,213.8125,42.9375,-0.9985352,0.300293,-0.3901367,0.2749023,-0.1630859,-0.09228516
3862,136.125,228.0625,72.625,-0.9711914,0.2768555,-0.4594727,0.2758789,-0.1694336,-0.07080078
3866,142.25,224.75,48.125,-1.436035,0.5488281,-0.6132813,0.2783203,-0.1782227,-0.04638672
3870,135,189.875,15.375,-1.180664,0.3310547,-0.6245117,0.2783203,-0.1806641,-0.02978516
3874,153.3125,193.5625,6.625,-1.087402,0.3232422,-0.6977539,0.2783203,-0.1831055,-0.006835938
3878,170.5625,192.4375,12.3125,-1.07959,0.3271484,-0.7709961,0.2749023,-0.1821289,0.01611328
3882,197.5,199.25,39.375,-0.9868164,0.3583984,-0.859375,0.2734375,-0.1821289,0.03369141
3886,221.5,215,55.625,-0.9633789,0.5136719,-0.9208984,0.269043,-0.1806641,0.05664063
3890,203.75,221.75,34.25,-1.091309,0.9023438,-1.028809,0.2602539,-0.1767578,0.08544922
3894,103.8125,194.5625,-51.125,-1.261719,1.209473,-1.121094,0.2558594,-0.171875,0.1030273
3898,1.625,197.25,-94.4375,-0.8432617,0.8520508,-1.043945,0.25,-0.1630859,0.1191406
3902,-30.1875,214.1875,-91.0625,-0.878418,0.3935547,-1.121094,0.2451172,-0.1542969,0.137207
3906,-4.5,214.5,-55.8125,-0.9594727,0.03222656,-1.117188,0.2402344,-0.1518555,0.1464844
3911,56.1875,208.6875,-11.1875,-0.9633789,-0.08007813,-1.128418,0.2319336,-0.1455078,0.1630859
3915,104.3125,199.875,8.5,-1.12207,0.2416992,-1.028809,0.2177734,-0.140625,0.1821289
3919,84.875,154.625,-19.1875,-1.32373,0.4594727,-1.094238,0.2128906,-0.1367188,0.1914063
3923,65.375,132.75,-36.25,-0.9907227,0.3505859,-0.9785156,0.203125,-0.1293945,0.2036133
3927,52.8125,123.9375,-43.5625,-0.878418,0.2963867,-1.043945,0.1948242,-0.1196289,0.2158203
3931,47.125,126.6875,-31.75,-0.847168,0.269043,-1.055664,0.1889648,-0.1142578,0.2226563
3935,44.9375,128,-20.9375,-0.6376953,0.1953125,-1.009277,0.1782227,-0.109375,0.230957
3939,48.9375,137.75,-12.6875,-0.6689453,0.1445313,-0.9863281,0.1713867,-0.1044922,0.2402344
3943,47.0625,131.4375,-22.125,-0.6376953,0.1137695,-0.9477539,0.1640625,-0.1005859,0.2446289
3947,47,125.875,-26.875,-0.5913086,0.03222656,-0.9248047,0.1508789,-0.09326172,0.2524414
3951,40.125,119.6875,-36.5625,-0.5175781,0.08642578,-0.9018555,0.1416016,-0.08837891,0.262207
3955,31,127.6875,-35.8125,-0.3046875,0.05126953,-0.8901367,0.1357422,-0.08447266,0.2661133
3959,28.5625,142.4375,-22.375,-0.246582,0.1098633,-0.840332,0.1225586,-0.07958984,0.2729492
3963,14.1875,152.5,-5.9375,-0.362793,0.2729492,-0.7441406,0.1103516,-0.07568359,0.2773438
3967,-17.25,136.875,-9.6875,-0.4907227,0.2070313,-0.6171875,0.1010742,-0.07324219,0.2827148
3971,-25.1875,116.4375,-12.5625,-0.362793,-0.1967773,-0.5131836,0.09033203,-0.07421875,0.2851563
3975,-4.625,101.1875,-14.125,-0.4130859,-0.3017578,-0.4746094,0.07958984,-0.07568359,0.2895508
3979,13.4375,80.4375,-13.25,-0.2734375,-0.2783203,-0.4169922,0.07226563,-0.07421875,0.293457
3983,27.3125,64.375,-5.625,-0.2348633,-0.1928711,-0.4399414,0.06787109,-0.07177734,0.2919922
3987,27.5625,46,-4.125,-0.1962891,-0.04541016,-0.4594727,0.06152344,-0.06933594,0.2949219
3991,13.9375,26.8125,-9.1875,0.0009765625,-0.06054688,-0.5708008,0.05957031,-0.06933594,0.2963867
3995,6.875,31.875,-14,0.06689453,-0.09960938,-0.6054688,0.0546875,-0.06689453,0.2963867
3999,2.8125,27.6875,-13,-0.02978516,-0.07226563,-0.5668945,0.05322266,-0.06689453,0.2973633
4003,2.125,11,-13.5625,-0.1225586,-0.08789063,-0.5629883,0.05224609,-0.06835938,0.2988281
4007,13.25,-9.125,-14.3125,-0.04492188,-0.1420898,-0.59375,0.05078125,-0.06689453,0.2973633
4011,16.3125,-29,-12.375,-0.01416016,-0.01416016,-0.7285156,0.05322266,-0.06201172,0.2973633
4015,12.125,-31.5625,-13.3125,0.1289063,0.02050781,-0.7709961,0.0546875,-0.06201172,0.2988281
4019,1.625,-33.4375,-14.3125,0.07470703,0.09033203,-0.8286133,0.05957031,-0.06054688,0.2963867
4023,-5.6875,-32.375,-14.5,0.1713867,0.06689453,-0.8129883,0.06054688,-0.06201172,0.2963867
4027,-9.625,-32.875,-6.1875,0.1132813,0.105957,-0.8515625,0.06152344,-0.06054688,0.2949219
4031,-16.1875,-34.4375,0.375,0.05126953,0.1293945,-0.84375,0.06542969,-0.06201172,0.2949219
4035,-24.5,-43.1875,0.5625,0.06689453,0.01660156,-0.878418,0.07128906,-0.06298828,0.293457
4040,-24.625,-44.6875,0.9375,-0.02587891,-0.01416016,-0.8515625,0.07373047,-0.06689453,0.2949219
4044,-24.4375,-55,-2.8125,-0.07617188,-0.02587891,-0.8056641,0.07714844,-0.06933594,0.2919922
4048,-21.6875,-65.4375,-0.875,-0.1923828,0.004882813,-0.7783203,0.08447266,-0.07177734,0.2895508
4052,-19.75,-80.0625,-2.75,-0.07617188,-0.05664063,-0.8476563,0.08886719,-0.07421875,0.2880859
4056,-13.9375,-80.8125,1,-0.1884766,-0.01806641,-0.840332,0.09375,-0.07324219,0.2851563
4060,-11.375,-91,6.3125,-0.2348633,0.05517578,-0.7133789,0.1035156,-0.07958984,0.28125
4064,-17.8125,-103.6875,7.75,-0.4013672,0.1992188,-0.559082,0.1079102,-0.07958984,0.28125
4068,-33.625,-126.75,8.625,-0.4091797,0.1484375,-0.6513672,0.1176758,-0.08203125,0.2729492
4072,-46.6875,-138.3125,4.9375,-0.4555664,0.02441406,-0.8979492,0.1293945,-0.08544922,0.2675781
4076,-45.9375,-142.3125,-6.125,-0.1303711,-0.2626953,-1.063477,0.1376953,-0.08935547,0.262207
4080,-18.375,-124.375,-5.3125,-0.2890625,-0.2275391,-0.9902344,0.1523438,-0.09326172,0.2553711
4084,7.4375,-131.75,16.3125,-0.5644531,-0.08789063,-0.809082,0.1591797,-0.09423828,0.2470703
4088,30.875,-147.625,55.3125,-0.5756836,-0.002441406,-0.8325195,0.1674805,-0.09423828,0.2446289
4092,35.625,-147.5,84.4375,-0.3666992,0.1098633,-1.05957,0.1796875,-0.09570313,0.2363281
4096,11.5625,-124.8125,67.8125,-0.3164063,0.237793,-1.086426,0.1889648,-0.09960938,0.2241211
4100,-26.0625,-109.375,49.375,-0.4790039,0.2885742,-0.9941406,0.1938477,-0.1020508,0.2211914
4104,-46.8125,-102.875,32.875,-0.6533203,0.2148438,-0.7553711,0.2011719,-0.109375,0.2143555
4108,-45.1875,-118.8125,35.125,-1.060547,0.2416992,-0.5825195,0.2070313,-0.1132813,0.2050781
4112,-38.3125,-159.6875,39.8125,-0.8896484,0.09423828,-0.8364258,0.2119141,-0.1196289,0.1967773
4116,-16.9375,-157.9375,36.3125,-0.7851563,0.04003906,-0.9169922,0.2236328,-0.1254883,0.1875
4120,-14.1875,-164.875,31.125,-0.8125,0.2299805,-0.9169922,0.230957,-0.1279297,0.1738281
4124,-33.9375,-165.25,16.4375,-0.9130859,0.4438477,-0.7670898,0.2353516,-0.1318359,0.168457
4128,-60.75,-174.875,7.125,-1.07959,0.5566406,-0.5864258,0.2460938,-0.1367188,0.1494141
4132,-80.5625,-189.5,5.125,-1.157227,0.6303711,-0.4707031,0.253418,-0.1420898,0.1342773
4136,-100.5625,-205.9375,10.125,-1.001953,0.4360352,-0.7133789,0.2592773,-0.1445313,0.1206055
4140,-99.8125,-197.9375,4.25,-0.9907227,0.2573242,-0.8017578,0.2651367,-0.1508789,0.09912109
4144,-89.75,-198.1875,6.875,-1.095215,0.2963867,-0.7133789,0.2709961,-0.1542969,0.08007813
4148,-87.625,-203.3125,5.4375,-1.165039,0.4438477,-0.559082,0.2758789,-0.1567383,0.06787109
4152,-87.9375,-206.6875,11.0625,-1.203613,0.4790039,-0.3823242,0.2792969,-0.1606445,0.04589844
4156,-94.3125,-215.3125,14.1875,-1.265625,0.5527344,-0.3554688,0.2832031,-0.1621094,0.02294922
4160,-95.625,-220.9375,21.5625,-1.242188,0.4868164,-0.4208984,0.2841797,-0.1645508,0.0078125
4164,-95.3125,-219.25,27.125,-1.211426,0.4907227,-0.4667969,0.2817383,-0.1679688,-0.01611328
4169,-97.375,-212.8125,32.6875,-1.191895,0.5058594,-0.5014648,0.2807617,-0.171875,-0.03955078
4173,-106.375,-201.25,35.625,-1.246094,0.5878906,-0.4013672,0.2783203,-0.1733398,-0.05273438
4177,-123.9375,-197.25,38.6875,-1.381836,0.6108398,-0.3129883,0.2749023,-0.1757813,-0.07470703
4181,-140.1875,-197.25,40.3125,-1.343262,0.5527344,-0.2822266,0.2675781,-0.1767578,-0.09667969
4185,-147.6875,-190.125,40.625,-1.234863,0.3818359,-0.3168945,0.2651367,-0.1782227,-0.1113281
4189,-141.5625,-180.625,42.25,-1.269531,0.315918,-0.2592773,0.2558594,-0.1757813,-0.1333008
4193,-131.8125,-173.0625,38.1875,-1.230957,0.284668,-0.1630859,0.2460938,-0.1743164,-0.1523438
4197,-121.875,-166.6875,26.875,-1.381836,0.3740234,-0.08203125,0.2402344,-0.1733398,-0.1645508
4201,-120.125,-168.8125,20.125,-1.405273,0.4013672,-0.0859375,0.2329102,-0.1679688,-0.1796875
4205,-115.6875,-170.5,15.6875,-1.319824,0.3271484,-0.2055664,0.222168,-0.1630859,-0.1958008
4209,-95.5,-155.3125,32.9375,-0.9287109,0.09423828,-0.3901367,0.2163086,-0.1591797,-0.206543
4213,-90.9375,-127.1875,26.875,-1.223145,0.3427734,-0.5092773,0.2055664,-0.1557617,-0.21875
4217,-93.5,-110.8125,16.75,-1.037109,0.2924805,-0.4707031,0.1987305,-0.1494141,-0.2285156
4221,-97.875,-92.75,3.9375,-1.005859,0.2807617,-0.5322266,0.1928711,-0.1455078,-0.2368164
4225,-96.6875,-71.0625,-5.5,-0.9052734,0.1992188,-0.4902344,0.1855469,-0.1381836,-0.2421875
4229,-85.5625,-47.375,-9.625,-0.8046875,0.08642578,-0.3666992,0.1821289,-0.1318359,-0.2490234
4233,-64.125,-31.5,-7.75,-0.7929688,0.06298828,-0.2553711,0.1796875,-0.1245117,-0.2529297
4237,-39.625,-14.75,-4.9375,-0.699707,0.03222656,-0.1474609,0.1806641,-0.1206055,-0.2543945
4241,-12.375,-1.125,-1.125,-0.730957,0.06689453,-0.06298828,0.1782227,-0.1196289,-0.2558594
4245,10.0625,7.3125,3.875,-0.746582,0.140625,-0.02050781,0.1796875,-0.1206055,-0.2568359
4249,21.9375,11.6875,3.3125,-0.746582,0.2109375,-0.009277344,0.1796875,-0.1206055,-0.2543945
4253,24.5625,19.75,-0.625,-0.7036133,0.2338867,-0.04003906,0.1821289,-0.1220703,-0.2514648
4257,20.375,28.8125,-9,-0.6923828,0.2573242,-0.09375,0.1821289,-0.1254883,-0.2514648
4261,17.1875,45.75,-12.8125,-0.6806641,0.2299805,-0.08984375,0.184082,-0.1254883,-0.25
4265,18.5625,59.6875,-12.1875,-0.7504883,0.2338867,-0.09765625,0.1879883,-0.1254883,-0.2490234
4269,22.75,68.5625,-11.1875,-0.8510742,0.2265625,-0.1669922,0.1904297,-0.1254883,-0.2446289
4273,26.6875,78.4375,-10.75,-0.7851563,0.1640625,-0.2744141,0.1962891,-0.1254883,-0.237793
4277,32.9375,102.0625,-11.25,-0.8085938,0.15625,-0.359375,0.2021484,-0.1279297,-0.2338867
4281,32.5,125.875,-8.75,-0.9013672,0.21875,-0.3745117,0.2080078,-0.1308594,-0.2285156
4285,23.1875,147.6875,-10,-1.037109,0.269043,-0.3398438,0.2163086,-0.1308594,-0.21875
4289,19.1875,163.75,4.6875,-1.161133,0.2109375,-0.2822266,0.2246094,-0.1318359,-0.206543
4293,34.9375,177,23.8125,-1.308105,0.15625,-0.2514648,0.2319336,-0.1342773,-0.1958008
4298,57,191.9375,32.5,-1.385742,0.253418,-0.1630859,0.2402344,-0.1381836,-0.1865234
4302,76.0625,201.25,34.75,-1.614258,0.4125977,0.05566406,0.25,-0.1455078,-0.168457
4306,71.4375,188.0625,13.1875,-1.672363,0.5761719,0.2172852,0.2543945,-0.1494141,-0.15625
4310,58.0625,173.8125,-4.625,-1.48291,0.4946289,0.2094727,0.2602539,-0.1533203,-0.1401367
4314,51,175.6875,-8.25,-1.327637,0.4594727,0.1132813,0.2675781,-0.1542969,-0.125
4318,43.3125,174.1875,-8.75,-1.230957,0.3779297,-0.02050781,0.2709961,-0.1542969,-0.1142578
4322,50.875,167.875,-10.5625,-1.257813,0.2807617,-0.1166992,0.2773438,-0.1533203,-0.09667969
4326,70.875,158.4375,-14.5625,-1.176758,0.1992188,-0.2475586,0.2817383,-0.1542969,-0.08154297
4330,92.5,138.625,-33.3125,-1.223145,0.1953125,-0.3398438,0.2841797,-0.1542969,-0.07080078
4334,114.4375,129.1875,-43.8125,-0.8745117,0.1914063,-0.4902344,0.2856445,-0.1518555,-0.05419922
4338,124.25,147.3125,-35.875,-0.746582,0.4086914,-0.6362305,0.2890625,-0.1494141,-0.03808594
4342,117.625,168.5625,-18.6875,-0.6962891,0.5097656,-0.7441406,0.2915039,-0.1479492,-0.02294922
4346,107.125,184.8125,-9.25,-0.8857422,0.5488281,-0.7441406,0.2915039,-0.1445313,-0.005371094
4350,100.5625,177.125,-15.375,-0.9169922,0.4516602,-0.7055664,0.2915039,-0.1420898,0.01318359
4354,108.6875,179.0625,-17.6875,-0.878418,0.3466797,-0.7055664,0.2890625,-0.1396484,0.02832031
4358,118.5,191.375,-12.625,-0.7578125,0.5410156,-0.7475586,0.2880859,-0.1357422,0.04736328
4362,119.9375,200.375,4.8125,-0.8198242,0.4907227,-0.8632813,0.2856445,-0.1308594,0.06884766
4366,123.5,226.5625,31.6875,-0.8007813,0.5175781,-0.9785156,0.2807617,-0.1293945,0.08544922
4370,114.5625,235.9375,43.75,-1.056641,0.5566406,-1.113281,0.2709961,-0.1269531,0.1069336
4374,72.125,221.3125,5.3125,-1.230957,0.5488281,-1.251953,0.2592773,-0.1230469,0.1313477
4378,42.875,225.25,-28.5625,-1.013672,0.1992188,-1.251953,0.253418,-0.1220703,0.144043
4382,45.3125,237.125,-24.3125,-1.184082,0.09814453,-1.155762,0.2426758,-0.1166992,0.1640625
4386,59.6875,237.3125,-8.875,-0.9326172,-0.06054688,-1.205566,0.2294922,-0.109375,0.1821289
4390,87.9375,255.3125,6.375,-0.9477539,-0.1269531,-1.297852,0.21875,-0.1069336,0.1953125
4394,101.625,267.125,-0.1875,-1.20752,0.2573242,-0.9287109,0.2045898,-0.09960938,0.2158203
4398,72.4375,221.25,-24.125,-1.436035,0.3857422,-0.6708984,0.1855469,-0.09082031,0.2324219
4402,60.25,186.75,-37.375,-1.157227,0.1796875,-0.5825195,0.1699219,-0.08544922,0.2446289
4406,53.75,167.9375,-36.625,-0.796875,0.1523438,-0.5478516,0.1567383,-0.07714844,0.2524414
4410,50.6875,159.125,-17.5625,-0.730957,0.203125,-0.5400391,0.144043,-0.07080078,0.262207
4414,49.4375,150.5625,3.5,-0.4985352,0.1098633,-0.4667969,0.1342773,-0.06591797,0.269043
4418,49.1875,129.125,19.9375,-0.730957,0.1367188,-0.4321289,0.1225586,-0.06201172,0.2758789
4422,25.1875,95.0625,-8.0625,-0.4365234,-0.002441406,-0.4013672,0.1118164,-0.05712891,0.2797852
4427,12.75,67.625,-24.75,-0.4091797,-0.1347656,-0.394043,0.1044922,-0.05566406,0.2841797
4431,13.4375,55.4375,-21.8125,-0.2192383,-0.06054688,-0.2128906,0.1010742,-0.05175781,0.2866211
4435,6.75,30.625,-2.5625,-0.2734375,0.1020508,-0.2363281,0.09521484,-0.04931641,0.2866211
4439,-0.75,9.75,6.3125,-0.1845703,-0.05664063,-0.4399414,0.09521484,-0.05175781,0.2880859
4443,1.625,5.9375,1.9375,0.01660156,-0.2275391,-0.6054688,0.09375,-0.04931641,0.2880859
4447,6.6875,-0.125,-1.5625,-0.08007813,-0.2084961,-0.6513672,0.09521484,-0.04931641,0.2880859
4451,8.125,-6.8125,-7.5,-0.09521484,-0.1113281,-0.5478516,0.09375,-0.04833984,0.2866211
4455,0.0625,-25.0625,-9.5,-0.07617188,-0.04150391,-0.7167969,0.09521484,-0.04931641,0.2880859
4459,-2,-21.875,-6.875,0.008789063,-0.06835938,-0.7939453,0.09765625,-0.05078125,0.2866211
4463,-5.75,-22.8125,-1.5625,-0.01806641,-0.04150391,-0.8476563,0.09765625,-0.04833984,0.2841797
4467,-5.6875,-25.75,-2.5,-0.06835938,-0.05664063,-0.9091797,0.1035156,-0.04931641,0.2841797
4471,-6.125,-27.3125,-2.875,-0.002441406,-0.006347656,-0.9248047,0.1020508,-0.05078125,0.2827148
4475,-10.375,-27.4375,0.75,-0.05273438,0.06298828,-0.8979492,0.1044922,-0.04931641,0.2841797
4479,-16.875,-31.625,5.3125,-0.04101563,0.07861328,-0.878418,0.1079102,-0.05175781,0.28125
4483,-19.3125,-35,8.8125,-0.09912109,0.0009765625,-0.9477539,0.1103516,-0.0546875,0.2797852
4487,-18.0625,-38.5625,6.5,-0.03710938,-0.06054688,-0.9824219,0.1142578,-0.05566406,0.2797852
4491,-13.625,-37.75,8.0625,-0.1420898,0.01269531,-0.878418,0.1166992,-0.05566406,0.2797852
4495,-14.6875,-49.5,10.375,-0.1884766,0.1176758,-0.7133789,0.1201172,-0.05957031,0.2744141
4499,-21.125,-65.9375,18.5,-0.4169922,0.1914063,-0.6821289,0.1225586,-0.06054688,0.2729492
4503,-31.1875,-81.6875,9.4375,-0.05273438,-0.07617188,-0.8632813,0.1293945,-0.06591797,0.2714844
4507,-26.125,-75.5625,7.125,-0.2001953,-0.1308594,-1.001465,0.1367188,-0.07080078,0.2661133
4511,-23.125,-71.4375,-3,-0.1572266,-0.1074219,-0.8901367,0.1416016,-0.07080078,0.2661133
4515,-26.75,-74.125,-14.0625,-0.3242188,0.09423828,-0.6669922,0.1459961,-0.07177734,0.262207
4519,-40.625,-86.5625,-16.9375,-0.5292969,0.3388672,-0.359375,0.1547852,-0.07568359,0.2553711
4523,-69.125,-120.6875,-8.5625,-0.7387695,0.4086914,-0.5786133,0.1591797,-0.078125,0.2524414
4527,-102.125,-130.375,-20.0625,-0.3745117,0.07470703,-0.894043,0.1699219,-0.08447266,0.2446289
4531,-98.6875,-122.8125,-34.25,-0.2583008,-0.2045898,-1.08252,0.1796875,-0.09179688,0.2363281
4535,-59.75,-108.9375,-28.375,-0.4130859,-0.2548828,-0.9326172,0.1865234,-0.09423828,0.2270508
4539,-26.3125,-110.875,-18.6875,-0.6962891,-0.06445313,-0.6669922,0.1948242,-0.09960938,0.2211914
4543,-13.5625,-142.875,-17.4375,-1.137695,0.2963867,-0.5668945,0.203125,-0.09960938,0.2119141
4547,-31.75,-193.4375,-34.125,-0.9208984,0.3466797,-0.8862305,0.2119141,-0.09960938,0.2050781
4551,-51.8125,-188.4375,-41.9375,-0.7348633,0.237793,-1.05957,0.2246094,-0.09960938,0.1889648
4556,-59.625,-179.1875,-40.5625,-0.796875,0.15625,-0.9863281,0.237793,-0.09960938,0.175293
4560,-52.75,-176.625,-27.625,-1.048828,0.1445313,-0.7246094,0.2451172,-0.1005859,0.1640625
4564,-49.5625,-194.9375,-19.375,-1.289063,0.2416992,-0.6245117,0.2543945,-0.1044922,0.1479492
4568,-57.375,-213.5,-20.3125,-1.253906,0.2768555,-0.6323242,0.2641602,-0.1054688,0.1303711
4572,-70.125,-230.25,-24.5,-0.9829102,0.105957,-0.8554688,0.2700195,-0.1069336,0.1152344
4576,-55.875,-209.4375,-22.4375,-0.9013672,-0.08398438,-0.7939453,0.2792969,-0.109375,0.09228516
4580,-29.75,-197.4375,-9.75,-1.125977,0.02050781,-0.5708008,0.2866211,-0.1083984,0.07568359
4584,-14.3125,-205.875,-3.5625,-1.327637,0.237793,-0.3515625,0.2900391,-0.109375,0.06347656
4588,-16.6875,-218.4375,5.5625,-1.347168,0.4052734,-0.2436523,0.2949219,-0.1108398,0.04296875
4592,-36.25,-229.375,17.75,-1.253906,0.5019531,-0.3706055,0.2983398,-0.1132813,0.02148438
4596,-57,-222.5,30.0625,-1.060547,0.3583984,-0.5092773,0.2983398,-0.1157227,0.006347656
4600,-63.5,-203.4375,30.8125,-1.048828,0.2651367,-0.5668945,0.2983398,-0.1206055,-0.01464844
4604,-64.0625,-195.8125,27.3125,-1.23877,0.2612305,-0.5322266,0.2963867,-0.1220703,-0.03662109
4608,-62.5,-192.1875,25.6875,-1.312012,0.2924805,-0.4169922,0.2949219,-0.1230469,-0.05175781
4612,-65.0625,-194.625,25.1875,-1.40918,0.4086914,-0.3208008,0.2915039,-0.1269531,-0.06933594
4616,-70.9375,-198.5,30.3125,-1.424316,0.4321289,-0.2363281,0.2866211,-0.1293945,-0.08691406
4620,-83.375,-199.875,35.375,-1.339355,0.4633789,-0.3012695,0.2856445,-0.1293945,-0.1020508
4624,-95,-193.25,36.6875,-1.28125,0.4165039,-0.4208984,0.2773438,-0.1293945,-0.1225586
4628,-105.3125,-183.3125,31.4375,-1.184082,0.2885742,-0.4628906,0.2700195,-0.1293945,-0.1416016
4632,-97.9375,-168.9375,27.1875,-1.203613,0.1914063,-0.4282227,0.2626953,-0.1293945,-0.1538086
4636,-83.6875,-161.5,21.25,-1.285156,0.1640625,-0.3208008,0.2543945,-0.1254883,-0.1660156
4640,-68.375,-163.8125,16.875,-1.285156,0.203125,-0.2822266,0.2460938,-0.1230469,-0.1821289
4644,-57.8125,-156.875,13.4375,-1.176758,0.21875,-0.2592773,0.2402344,-0.1230469,-0.1928711
4648,-51.5,-145.625,16.1875,-1.052734,0.2338867,-0.3208008,0.234375,-0.1206055,-0.2041016
4652,-49.8125,-124.5625,18.8125,-0.9399414,0.2456055,-0.3823242,0.222168,-0.1181641,-0.2163086
4656,-55.6875,-100.25,15.5,-0.8974609,0.2226563,-0.3823242,0.2202148,-0.1181641,-0.2202148
4660,-58.0625,-80.125,10.125,-0.9130859,0.1640625,-0.3706055,0.2128906,-0.1157227,-0.2299805
4664,-56,-65.25,1.9375,-0.8818359,0.08251953,-0.3823242,0.2080078,-0.1108398,-0.2338867
4668,-46.6875,-49.3125,-3.0625,-0.8085938,0.02441406,-0.3901367,0.2045898,-0.109375,-0.237793
4672,-31.25,-31.9375,0.1875,-0.5371094,-0.02587891,-0.5361328,0.2021484,-0.1054688,-0.2407227
4676,-14.125,13.75,3.75,-0.7075195,0.004882813,-0.4013672,0.199707,-0.1044922,-0.2421875
4680,-3.625,27.25,1.8125,-0.746582,0.05908203,-0.2939453,0.203125,-0.1030273,-0.2407227
4685,10,40,-5.5,-0.862793,0.121582,-0.2055664,0.2045898,-0.1020508,-0.2392578
4689,14.375,36.875,-20.5625,-0.9594727,0.1796875,-0.07861328,0.2070313,-0.1030273,-0.2353516
4693,19.875,35.625,-28.125,-0.8276367,0.1601563,0.001953125,0.2094727,-0.1030273,-0.2324219
4697,30.75,51.875,-21.5,-0.8046875,0.1640625,0.03662109,0.2119141,-0.1030273,-0.2324219
4701,36.375,64.3125,-12.3125,-0.8393555,0.21875,-0.009277344,0.2163086,-0.1054688,-0.2270508
4705,36.0625,73.75,-11.8125,-0.8974609,0.21875,-0.05126953,0.2177734,-0.1054688,-0.2255859
4709,33.875,80.1875,-18.4375,-0.9672852,0.2226563,-0.05908203,0.2246094,-0.1083984,-0.2163086
4713,31.375,82.9375,-26.375,-1.056641,0.1796875,-0.04736328,0.230957,-0.1083984,-0.2119141
4717,34.125,83.8125,-28.125,-1.021484,0.1293945,-0.0859375,0.2319336,-0.109375,-0.2080078
4721,40,94.875,-23.875,-0.9907227,0.105957,-0.1630859,0.2392578,-0.1083984,-0.2011719
4725,43.0625,109.9375,-22.1875,-1.025391,0.1367188,-0.2553711,0.2426758,-0.1108398,-0.1928711
4729,28.375,115.9375,-36.1875,-1.168945,0.2265625,-0.34375,0.2475586,-0.109375,-0.1850586
4733,9.625,131.3125,-44.5625,-1.133789,0.15625,-0.3286133,0.2543945,-0.1069336,-0.1738281
4737,1.25,141.5625,-37.5,-1.285156,0.06689453,-0.3554688,0.2617188,-0.1044922,-0.1660156
4741,1.375,154.1875,-28.75,-1.211426,-0.002441406,-0.3745117,0.2675781,-0.1020508,-0.15625
4745,6.4375,177.5625,-20.125,-1.211426,-0.04882813,-0.4130859,0.2749023,-0.09814453,-0.1425781
4749,11.3125,195.8125,-19.9375,-1.319824,-0.06835938,-0.3974609,0.2817383,-0.09814453,-0.1279297
4753,20.5,198.0625,-22.125,-1.443848,-0.1191406,-0.3325195,0.2856445,-0.09716797,-0.1157227
4757,34.375,194.8125,-31.0625,-1.498047,-0.07226563,-0.2592773,0.2915039,-0.09570313,-0.09667969
4761,46.9375,193.5625,-36.375,-1.467285,0.02441406,-0.309082,0.2973633,-0.09082031,-0.07861328
4765,55.0625,198.1875,-31.6875,-1.416992,0.2070313,-0.3208008,0.2998047,-0.08837891,-0.06396484
4769,53.8125,209.1875,-17.5,-1.40918,0.5722656,-0.3168945,0.3032227,-0.08837891,-0.04492188
4773,26.375,197.8125,-19.75,-1.436035,0.4282227,-0.378418,0.3056641,-0.08544922,-0.02587891
4777,20.625,196.3125,-17.9375,-1.393555,0.3193359,-0.4130859,0.3056641,-0.08447266,-0.01074219
4781,29.125,193.4375,-13.0625,-1.227051,0.1992188,-0.5014648,0.3056641,-0.08056641,0.0078125
4785,51.0625,197.6875,-0.3125,-1.099121,0.237793,-0.7094727,0.3022461,-0.08056641,0.02978516
4789,68.5625,213.875,25.375,-0.847168,0.284668,-0.8745117,0.2998047,-0.078125,0.04296875
4793,81.3125,235.8125,45.125,-0.78125,0.3466797,-0.9863281,0.2949219,-0.078125,0.06347656
4797,90.6875,257.1875,49.0625,-1.095215,0.5019531,-0.809082,0.2880859,-0.08056641,0.08691406
4801,70.1875,224.5625,21.125,-1.219238,0.5097656,-0.7324219,0.2841797,-0.07958984,0.1015625
4805,57.8125,214.4375,6,-1.044922,0.4052734,-0.6479492,0.2749023,-0.07714844,0.1235352
4809,49,211,10.9375,-0.8354492,0.4013672,-0.7900391,0.2641602,-0.07421875,0.1450195
4814,42.375,222.6875,32.3125,-0.7426758,0.315918,-0.9672852,0.2568359,-0.07080078,0.1572266
4818,42.8125,237.4375,64.875,-0.6533203,0.21875,-1.217285,0.2436523,-0.07177734,0.175293
4822,39.0625,263.4375,60,-0.9868164,0.21875,-1.01709,0.2270508,-0.07324219,0.1953125
4826,24.125,237.1875,42.75,-1.215332,0.1293945,-0.859375,0.2177734,-0.07421875,0.2089844
4830,14.75,219.4375,24.125,-0.9438477,-0.07226563,-0.8554688,0.1987305,-0.07421875,0.2241211
4834,7.8125,215.8125,12.25,-0.6845703,-0.2045898,-1.05957,0.1806641,-0.07177734,0.237793
4838,15.4375,224.9375,6.875,-0.715332,-0.2783203,-1.125,0.1699219,-0.07324219,0.2470703
4842,39.125,220.75,-6.0625,-0.6303711,-0.453125,-0.9824219,0.1508789,-0.07080078,0.2592773
4846,76.0625,212.0625,-21.8125,-0.7890625,-0.3676758,-0.6591797,0.1333008,-0.06445313,0.2714844
4850,87.25,174.5625,-30.5625,-0.8125,-0.08007813,-0.4785156,0.1186523,-0.05810547,0.2758789
4854,75.625,138.25,-34.9375,-0.6806641,0.05517578,-0.128418,0.1044922,-0.046875,0.2841797
4858,58.125,86.875,-30.1875,-0.5683594,0.15625,-0.04736328,0.09277344,-0.03955078,0.2910156
4862,37.625,47.3125,-24.3125,-0.3862305,0.2299805,-0.09765625,0.08886719,-0.03466797,0.2895508
4866,5.5,26.9375,-14.0625,-0.1264648,0.2070313,-0.2900391,0.08544922,-0.03076172,0.2910156
4870,-18.75,20.5625,-11.75,-0.04101563,0.008789063,-0.5400391,0.08203125,-0.03173828,0.2919922
4874,-16.3125,18.1875,-8.625,0.07080078,-0.2509766,-0.5053711,0.07958984,-0.03173828,0.293457
4878,3,13.75,-7,-0.04492188,-0.2084961,-0.5053711,0.07861328,-0.03173828,0.2919922
4882,4,-1.0625,-6.6875,-0.07617188,-0.07617188,-0.4824219,0.07714844,-0.03173828,0.2919922
4886,-0.75,-18.8125,-9.625,0.01269531,-0.05664063,-0.6591797,0.07861328,-0.03076172,0.293457
4890,-1.375,-21.3125,-10.5625,0.01660156,-0.08398438,-0.7939453,0.08056641,-0.03320313,0.2919922
4894,-1.9375,-20.6875,-8.875,0.109375,-0.04882813,-0.7861328,0.08203125,-0.03173828,0.2919922
4898,-0.9375,-21.3125,-4.75,0.01269531,0.008789063,-0.7475586,0.08447266,-0.03320313,0.2919922
4902,-5.625,-35.9375,-4.5625,-0.01025391,0.04003906,-0.9555664,0.08691406,-0.03320313,0.2910156
4906,-3.5,-32.25,-2.25,0.04736328,-0.04882813,-0.8979492,0.08886719,-0.03320313,0.2895508
4910,2.3125,-38.625,-0.8125,-0.02978516,0.01660156,-0.9516602,0.09277344,-0.03173828,0.2866211
4914,3.5625,-42.0625,1.875,0.02050781,0.08251953,-0.9672852,0.09619141,-0.03466797,0.2880859
4918,-3.625,-42.125,7.6875,0.01269531,0.15625,-0.9360352,0.09863281,-0.03466797,0.2880859
4922,-16.9375,-45.25,13.6875,0.0009765625,0.1757813,-0.9477539,0.1010742,-0.03466797,0.2851563
4926,-25.9375,-47.75,19.25,-0.08398438,0.1020508,-0.9594727,0.1079102,-0.03466797,0.2841797
4930,-30,-52.5625,20.5,-0.02978516,0.004882813,-1.032227,0.1103516,-0.04052734,0.2797852
4934,-21.8125,-47.875,19.125,-0.07617188,-0.08398438,-0.9130859,0.1142578,-0.04199219,0.2827148
4938,-10,-56.25,21.4375,-0.1845703,0.004882813,-0.7749023,0.1186523,-0.04443359,0.2783203
4943,-6.6875,-72.0625,26.4375,-0.3007813,0.1020508,-0.644043,0.1235352,-0.046875,0.2744141
4947,-15.25,-93.625,30.375,-0.4404297,0.1757813,-0.7324219,0.1293945,-0.04931641,0.2714844
4951,-37.5,-108.9375,19.9375,-0.07226563,0.02050781,-0.9785156,0.1391602,-0.05322266,0.2675781
4955,-26.5,-90.875,22.375,-0.2543945,-0.1459961,-0.8979492,0.1459961,-0.05712891,0.262207
4959,-12.3125,-101.75,26.875,-0.3320313,-0.1074219,-0.7978516,0.1533203,-0.05810547,0.2583008
4963,5.625,-109.8125,30.375,-0.5527344,-0.03369141,-0.4707031,0.1606445,-0.06445313,0.2553711
4967,11.125,-146.1875,31.5,-0.7851563,0.1367188,-0.3666992,0.1699219,-0.06445313,0.2460938
4971,-1.6875,-188.1875,33.8125,-0.8588867,0.21875,-0.8364258,0.1796875,-0.06591797,0.2402344
4975,-38.4375,-186.1875,13.375,-0.1650391,-0.04541016,-1.078613,0.1948242,-0.06933594,0.2270508
4979,-20.3125,-145.0625,7.75,-0.3706055,-0.3754883,-0.9980469,0.2080078,-0.07177734,0.2143555
4983,9.25,-142.25,6.875,-0.6416016,-0.3325195,-0.7939453,0.2128906,-0.07324219,0.2089844
4987,38.5625,-161.3125,3.875,-0.9052734,-0.2202148,-0.6899414,0.2236328,-0.07324219,0.199707
4991,51.625,-183.875,-3.375,-0.7929688,-0.1499023,-0.5668945,0.2329102,-0.07177734,0.1875
4995,48.9375,-199.3125,-8.1875,-0.7270508,0.02441406,-0.859375,0.2412109,-0.06933594,0.1723633
4999,33.0625,-179.5,-13.8125,-0.6455078,0.03613281,-0.7783203,0.253418,-0.06689453,0.1601563
5003,28.5,-177.0625,-2.125,-0.9790039,0.09033203,-0.7363281,0.2626953,-0.06445313,0.1450195
5007,27.0625,-180,6.0625,-1.001953,0.06689453,-0.574707,0.2675781,-0.06445313,0.1342773
5011,14.6875,-191.125,16.625,-1.137695,0.1914063,-0.9516602,0.2773438,-0.06591797,0.1181641
5015,-18.5625,-177.8125,12.5625,-0.796875,0.04003906,-0.9824219,0.2817383,-0.06689453,0.1044922
5019,-27.6875,-157.75,21.1875,-1.083496,-0.06445313,-0.9824219,0.2880859,-0.06835938,0.09082031
5023,-34.25,-149.75,18.75,-1.106934,-0.1269531,-0.7939453,0.2924805,-0.07324219,0.07421875
5027,-23.5625,-150.875,14.25,-1.343262,-0.1655273,-0.6015625,0.2949219,-0.07568359,0.06201172
5031,-18.8125,-164.125,7.375,-1.289063,-0.09179688,-0.5551758,0.2973633,-0.078125,0.05126953
5035,-12.5,-171,-0.3125,-1.439941,-0.07226563,-0.4091797,0.2998047,-0.07958984,0.03613281
5039,-6.4375,-186.125,7.25,-1.319824,0.04003906,-0.3862305,0.3032227,-0.08300781,0.01611328
5043,-10.125,-185.75,15.5,-1.304199,0.1445313,-0.3012695,0.3032227,-0.08056641,0.006347656
5047,-22.4375,-190.0625,23.625,-1.385742,0.21875,-0.1591797,0.3046875,-0.08300781,-0.01220703
5051,-32.6875,-199.3125,27.8125,-1.436035,0.1992188,-0.02050781,0.3046875,-0.08837891,-0.03271484
5055,-41.875,-213.625,23.125,-1.432129,0.2109375,0.01367188,0.3022461,-0.08837891,-0.04492188
5059,-46.0625,-222.625,22.6875,-1.424316,0.1796875,0.009765625,0.2998047,-0.09179688,-0.06542969
5063,-49.625,-230.25,30,-1.339355,0.1914063,-0.1435547,0.2949219,-0.09326172,-0.08837891
5067,-63,-221.125,36,-1.211426,0.2226563,-0.1591797,0.2924805,-0.09423828,-0.1035156
5072,-76.6875,-213.0625,39.8125,-1.393555,0.2265625,-0.0859375,0.2866211,-0.09814453,-0.125
5076,-88.5625,-215.9375,37.5625,-1.424316,0.2109375,-0.04394531,0.2758789,-0.09960938,-0.144043
5080,-92.0625,-215.25,34.125,-1.416992,0.1796875,-0.06689453,0.2675781,-0.09814453,-0.1577148
5084,-94.75,-211.875,32.75,-1.366211,0.2299805,-0.07470703,0.2592773,-0.09716797,-0.1767578
5088,-104.625,-198.625,36.3125,-1.273438,0.2226563,-0.07861328,0.2485352,-0.09179688,-0.1972656
5092,-114.625,-181.8125,38.125,-1.424316,0.171875,-0.02832031,0.2412109,-0.09326172,-0.2055664
5096,-124.4375,-177.6875,32.125,-1.362793,0.105957,-0.08203125,0.2294922,-0.08691406,-0.2202148
5100,-120.8125,-167.875,25.8125,-1.277344,-0.02587891,-0.1401367,0.2177734,-0.08056641,-0.2324219
5104,-106.3125,-159.625,19.3125,-1.199707,-0.06445313,-0.2207031,0.2119141,-0.07568359,-0.2392578
5108,-82.625,-131,41.1875,-0.8510742,0.03613281,-0.2167969,0.199707,-0.07177734,-0.2514648
5112,-88.8125,-115.4375,22.5625,-1.118652,0.105957,-0.4555664,0.1904297,-0.06835938,-0.2583008
5116,-95.1875,-102.875,16.875,-0.8085938,-0.05273438,-0.3745117,0.184082,-0.06054688,-0.2626953
5120,-81.4375,-78.1875,17.75,-0.6845703,-0.1308594,-0.3862305,0.1796875,-0.0546875,-0.269043
5124,-58.375,-59.875,15.3125,-0.7231445,-0.2275391,-0.3168945,0.1748047,-0.05078125,-0.2719727
5128,-23,-48,13.75,-0.6767578,-0.2470703,-0.2128906,0.1713867,-0.046875,-0.2719727
5132,1.375,-33,12.0625,-0.6533203,-0.06445313,-0.1362305,0.1674805,-0.046875,-0.2758789
5136,3.6875,-21.5,7.875,-0.6611328,0.06689453,-0.0859375,0.1650391,-0.046875,-0.2788086
5140,-0.875,-6.875,9,-0.6650391,0.1293945,0.01367188,0.1650391,-0.04833984,-0.2788086
5144,-7.75,3.25,9.5,-0.7114258,0.105957,0.07519531,0.1665039,-0.04931641,-0.2788086
5148,-12.5625,11.1875,2.25,-0.7387695,0.06689453,0.140625,0.1630859,-0.04833984,-0.2802734
5152,-10.75,16.875,-5.5,-0.7114258,-0.05664063,0.2172852,0.1650391,-0.04833984,-0.2773438
5156,3.4375,26.625,-6.3125,-0.7192383,-0.1035156,0.2866211,0.1665039,-0.046875,-0.2773438
5160,14.375,35,-10.625,-0.7773438,-0.08007813,0.3134766,0.1689453,-0.04833984,-0.2734375
5164,25.4375,42.0625,-15.25,-0.8125,-0.07617188,0.2749023,0.1699219,-0.04833984,-0.2749023
5168,32.5,52.8125,-20.375,-0.8085938,-0.03369141,0.2250977,0.1748047,-0.04931641,-0.2719727
5172,38.875,61.4375,-24.9375,-0.8588867,-0.03759766,0.1171875,0.1806641,-0.05078125,-0.2705078
5176,46.375,71.5625,-26.5625,-0.8198242,-0.05664063,0.02880859,0.1806641,-0.04931641,-0.2666016
5180,56.3125,90.125,-23.5,-0.7929688,-0.07226563,-0.07470703,0.1865234,-0.05566406,-0.2626953
5184,62.6875,112.6875,-22.4375,-0.9091797,-0.02197266,-0.1899414,0.1938477,-0.05712891,-0.2568359
5188,63.4375,126.9375,-30.5,-0.9907227,-0.03369141,-0.3012695,0.2021484,-0.05810547,-0.2514648
5192,69.875,149.625,-30.25,-0.9052734,-0.07617188,-0.3745117,0.2119141,-0.06201172,-0.2421875
5196,85.8125,181.3125,-25.6875,-1.021484,-0.06445313,-0.3974609,0.2202148,-0.06689453,-0.2324219
5201,105.1875,198.25,-18.9375,-1.12207,-0.07617188,-0.394043,0.230957,-0.06933594,-0.2216797
5205,134.875,223.4375,-8.875,-1.25,0.01660156,-0.3286133,0.2412109,-0.07714844,-0.2055664
5209,135.6875,210.0625,-36.25,-1.552246,0.2109375,-0.324707,0.2543945,-0.08056641,-0.1889648
5213,142.125,216.4375,-41.875,-1.269531,0.1484375,-0.2553711,0.2641602,-0.08544922,-0.1767578
5217,154.375,228.9375,-34.6875,-1.335449,0.2416992,-0.3012695,0.2724609,-0.08837891,-0.1547852
5221,176.9375,246.4375,-7,-1.292969,0.284668,-0.2900391,0.2832031,-0.09326172,-0.1357422
5225,185.1875,260.6875,8.5625,-1.556152,0.6069336,-0.309082,0.2866211,-0.09716797,-0.1157227
