Packet number,Gyroscope X (deg/s),Gyroscope Y (deg/s),Gyroscope Z (deg/s),Accelerometer X (g),Accelerometer Y (g),Accelerometer Z (g),Magnetometer X (G),Magnetometer Y (G),Magnetometer Z (G)
0,-12.1875,7.4375,-8.875,-0.7734375,-0.6552734,0.1479492,0.2568359,0.09375,-0.1591797
4,-4.75,0,-13.4375,-0.78125,-0.6513672,0.1479492,0.2583008,0.09521484,-0.1577148
8,-2.4375,-3.375,-16.1875,-0.7504883,-0.6591797,0.1557617,0.2568359,0.09619141,-0.1577148
12,3.0625,0.9375,-12.375,-0.7231445,-0.6396484,0.1289063,0.2558594,0.09619141,-0.1591797
16,-5.25,5.875,-6,-0.7426758,-0.581543,0.1328125,0.2558594,0.09765625,-0.1577148
20,-7.1875,3.9375,-5.125,-0.7617188,-0.6318359,0.1210938,0.2568359,0.09765625,-0.15625
24,-4.5625,1.25,-4.5,-0.7504883,-0.6552734,0.1289063,0.2543945,0.09765625,-0.1547852
28,-3.0625,1.875,-3.5,-0.7387695,-0.6162109,0.125,0.253418,0.09863281,-0.1547852
32,-3.4375,1.9375,-3.6875,-0.7426758,-0.6162109,0.1171875,0.2543945,0.1000977,-0.1547852
36,-1.5,0.9375,-5.0625,-0.7387695,-0.6318359,0.1098633,0.2543945,0.1000977,-0.1547852
40,-1.25,1.1875,-4.625,-0.7387695,-0.6357422,0.1171875,0.2568359,0.1000977,-0.1577148
45,-0.375,3,-1.8125,-0.7348633,-0.6357422,0.1210938,0.2558594,0.1010742,-0.1547852
49,-0.4375,4.5,-2.5625,-0.7426758,-0.6201172,0.1020508,0.2558594,0.1010742,-0.15625
53,-0.9375,3.75,-3.75,-0.7617188,-0.6279297,0.07910156,0.2558594,0.1025391,-0.1538086
57,-2,2.125,-3.8125,-0.7695313,-0.6318359,0.06738281,0.2558594,0.1025391,-0.1538086
61,-2.375,1.5625,-2.1875,-0.765625,-0.6630859,0.09423828,0.2543945,0.1025391,-0.1547852
65,-1.75,1.375,-1.1875,-0.7578125,-0.6474609,0.1171875,0.2558594,0.1025391,-0.15625
69,-2.0625,1.25,-0.8125,-0.765625,-0.6357422,0.1171875,0.2543945,0.1025391,-0.1538086
73,-2.25,1.125,0.75,-0.7734375,-0.6201172,0.1210938,0.2543945,0.1025391,-0.1538086
77,-1.875,1.1875,0.4375,-0.7929688,-0.6240234,0.1328125,0.2568359,0.1010742,-0.1538086
81,-0.25,1.5,2.5,-0.8007813,-0.6357422,0.1518555,0.2558594,0.1010742,-0.1523438
85,1.75,3.9375,5.5625,-0.8164063,-0.6435547,0.1826172,0.2543945,0.1025391,-0.1538086
89,6.1875,6,9.5,-0.8432617,-0.6748047,0.2060547,0.2558594,0.1010742,-0.1547852
93,12.625,8.875,14.6875,-0.8432617,-0.6669922,0.2133789,0.2568359,0.1010742,-0.1538086
97,19.125,12.9375,18.75,-0.8510742,-0.6552734,0.2094727,0.2583008,0.1000977,-0.1523438
101,25.0625,19.4375,21.25,-0.8510742,-0.6357422,0.2172852,0.2592773,0.09765625,-0.1523438
105,31.625,28.375,26,-0.9248047,-0.6708984,0.2368164,0.2617188,0.09228516,-0.1508789
109,37.75,35.0625,36.25,-1.025391,-0.6513672,0.2133789,0.2617188,0.09228516,-0.1508789
113,39.5,31.875,47.4375,-1.165039,-0.6005859,0.1904297,0.2641602,0.08642578,-0.1508789
117,41,21.6875,56.625,-1.23877,-0.6201172,0.1943359,0.2675781,0.08007813,-0.1494141
121,46.125,11.5625,66.0625,-1.292969,-0.6357422,0.1982422,0.2709961,0.07617188,-0.1508789
125,48.875,9.75,81.9375,-1.261719,-0.5893555,0.2211914,0.2734375,0.06884766,-0.1494141
129,47,19.6875,102.1875,-1.242188,-0.5854492,0.2290039,0.2758789,0.05859375,-0.1538086
133,46.25,26.5,117.375,-1.381836,-0.5737305,0.2211914,0.2783203,0.04882813,-0.1523438
137,47.75,18.4375,130.1875,-1.517578,-0.5927734,0.1479492,0.2841797,0.03515625,-0.1523438
141,43.625,8,148.875,-1.571777,-0.503418,0.1020508,0.2866211,0.02148438,-0.1508789
145,29.125,-15.875,159.4375,-1.695801,-0.4492188,0.04052734,0.2890625,0.01123047,-0.1523438
149,21.0625,-42.3125,173.625,-1.610352,-0.5927734,0.1020508,0.2900391,-0.005859375,-0.1523438
153,25.875,-42,195.1875,-1.327637,-0.6938477,0.2021484,0.2890625,-0.02441406,-0.1591797
157,30.75,-20.4375,207.8125,-1.129883,-0.581543,0.2675781,0.2890625,-0.03710938,-0.1645508
161,33.1875,-7.6875,210.375,-1.223145,-0.5737305,0.2636719,0.2890625,-0.05712891,-0.1660156
165,44.375,-13.5,204.875,-1.265625,-0.5541992,0.2558594,0.2880859,-0.07958984,-0.1674805
169,49.6875,-3.9375,212.9375,-1.203613,-0.484375,0.3330078,0.2866211,-0.09179688,-0.1674805
174,47.125,10.625,236.9375,-1.358887,-0.4414063,0.2905273,0.2832031,-0.1157227,-0.168457
178,38.125,1.625,258.5625,-1.513672,-0.3950195,0.1748047,0.2792969,-0.1381836,-0.1645508
182,33.5,-20.5,269.5625,-1.401367,-0.3676758,0.1171875,0.2749023,-0.1567383,-0.1660156
186,34.5,-13.125,269.1875,-0.9672852,-0.340332,0.2983398,0.2651367,-0.1791992,-0.1660156
190,46.375,18.375,268.8125,-0.9555664,-0.3442383,0.2944336,0.2543945,-0.203125,-0.1660156
194,49.875,24.6875,265.8125,-1.075684,-0.1113281,0.1518555,0.2460938,-0.2192383,-0.1630859
198,40.8125,25.5625,264.5,-1.253906,-0.05664063,0.125,0.2329102,-0.2431641,-0.1591797
202,33.0625,9.1875,273,-1.389648,0.02050781,0.02099609,0.2202148,-0.2631836,-0.1547852
206,12.5625,-9.5,285.5,-1.300781,0.1254883,0.01367188,0.2080078,-0.2783203,-0.1547852
210,1.3125,-35.6875,286.6875,-1.176758,0.05517578,-0.01318359,0.1879883,-0.2954102,-0.1547852
214,-1.75,-45.625,287.625,-0.8432617,0.05126953,0.06738281,0.1665039,-0.3129883,-0.15625
218,-5.3125,-39.8125,295.0625,-0.5795898,0.04394531,0.1020508,0.1499023,-0.3208008,-0.1577148
222,-2.4375,-33.875,288.125,-0.4091797,0.07470703,0.08251953,0.1235352,-0.3330078,-0.1630859
226,1.4375,-31.625,273.8125,-0.2929688,0.1523438,0.08642578,0.09765625,-0.3432617,-0.1606445
230,4.625,-33.25,255.875,-0.262207,0.21875,0.04052734,0.08203125,-0.3466797,-0.1630859
234,4.5,-39.0625,241.3125,-0.2583008,0.09033203,-0.001464844,0.05712891,-0.3554688,-0.1630859
238,-10.125,-54.5,236.0625,-0.347168,0.4243164,-0.1323242,0.03564453,-0.359375,-0.1616211
242,-26.8125,-75.25,229.9375,-0.2348633,0.4282227,-0.1323242,0.01660156,-0.3603516,-0.1645508
246,-33.1875,-88.5625,215.875,-0.01806641,0.3583984,-0.08984375,-0.006835938,-0.3579102,-0.1660156
250,-25.4375,-79.5,207.125,0.2373047,0.21875,0.09033203,-0.03076172,-0.3554688,-0.1674805
254,-5,-43.125,205.1875,0.3457031,0.253418,0.1943359,-0.04492188,-0.3544922,-0.168457
258,8.5,-16.0625,198.9375,0.190918,0.4243164,0.1748047,-0.06640625,-0.3491211,-0.168457
262,7.1875,-14.1875,197.9375,-0.04882813,0.5913086,0.01708984,-0.08300781,-0.3457031,-0.1674805
266,-15.625,-39.3125,198.6875,-0.1264648,0.7080078,-0.08203125,-0.09863281,-0.3408203,-0.1660156
270,-38.3125,-67.375,198.625,0.05517578,0.6264648,-0.07080078,-0.1152344,-0.3330078,-0.1660156
274,-55.25,-83.375,194.6875,0.3613281,0.5527344,-0.03613281,-0.1367188,-0.3242188,-0.1660156
278,-62.25,-83.1875,180.8125,0.8149414,0.3935547,0.07519531,-0.1494141,-0.3154297,-0.1645508
282,-51.75,-59.6875,151.75,1.252441,0.2807617,0.1748047,-0.1674805,-0.3032227,-0.1674805
286,-36.875,-32.8125,104.5625,1.419434,0.2612305,0.2060547,-0.1816406,-0.2944336,-0.1674805
290,-21.8125,-17.1875,52.8125,1.454102,0.253418,0.1713867,-0.1865234,-0.2895508,-0.1660156
294,-14.6875,-3.375,3.0625,1.450195,0.3081055,0.1865234,-0.1889648,-0.2866211,-0.168457
298,-9,6.0625,-48.75,1.283691,0.3081055,0.2368164,-0.1875,-0.2866211,-0.1699219
303,-0.6875,13.0625,-94.3125,1.121094,0.3349609,0.3134766,-0.1831055,-0.2866211,-0.1699219
307,10.75,21.5,-133.5,0.8881836,0.300293,0.3598633,-0.1772461,-0.2944336,-0.1713867
311,25.5625,28.75,-152,0.6870117,0.2924805,0.2944336,-0.1665039,-0.3041992,-0.1713867
315,25.4375,31,-159.8125,0.578125,0.4399414,0.1635742,-0.1542969,-0.3095703,-0.168457
319,15.125,21.9375,-174.1875,0.5200195,0.5253906,0.05957031,-0.1401367,-0.3208008,-0.1713867
323,4.5625,3.25,-201.375,0.4853516,0.5175781,0.02099609,-0.1235352,-0.3266602,-0.1713867
327,-2.0625,-8.1875,-231.25,0.5200195,0.4829102,0.1210938,-0.1113281,-0.3330078,-0.1713867
331,2.3125,1.6875,-259.75,0.4814453,0.3310547,0.2329102,-0.09130859,-0.3408203,-0.1713867
335,19.625,20.875,-268.6875,0.2568359,0.15625,0.2597656,-0.06640625,-0.3481445,-0.1713867
339,30.5,43.6875,-254.0625,0.03955078,0.253418,0.1748047,-0.04980469,-0.3505859,-0.1713867
343,17,56.0625,-235.8125,-0.1845703,0.4633789,0.04443359,-0.02490234,-0.3569336,-0.168457
347,-7.5625,38.875,-224.5625,-0.5102539,0.5371094,-0.1206055,0.0009765625,-0.359375,-0.168457
351,-30,-4.375,-231.0625,-0.5332031,0.5800781,-0.128418,0.01269531,-0.3554688,-0.168457
355,-44.375,-36.6875,-250.625,-0.3706055,0.5175781,-0.001464844,0.03417969,-0.3530273,-0.1738281
359,-52.0625,-39,-259.5,-0.2661133,0.4125977,0.1171875,0.05566406,-0.3466797,-0.1782227
363,-57.0625,-13.5,-243.1875,-0.3432617,0.2416992,0.1904297,0.07128906,-0.3417969,-0.1821289
367,-66.625,18.9375,-203.75,-0.4482422,0.269043,0.1518555,0.08886719,-0.3305664,-0.1865234
371,-80.625,39.875,-181.25,-0.5605469,0.2456055,0.1479492,0.1069336,-0.3217773,-0.1928711
375,-80.0625,31,-189.125,-0.6650391,0.203125,0.07519531,0.1176758,-0.3144531,-0.1972656
379,-83.6875,5.1875,-214.5625,-0.5683594,0.253418,0.04443359,0.1342773,-0.3032227,-0.2026367
383,-90.75,1.0625,-240.6875,-0.2700195,0.1020508,0.2368164,0.1508789,-0.2866211,-0.2080078
387,-80.9375,41.0625,-249.125,-0.2773438,-0.2666016,0.409668,0.1606445,-0.2744141,-0.2094727
391,-61.9375,98.5,-233.6875,-0.5024414,-0.3911133,0.5249023,0.1782227,-0.2558594,-0.2109375
395,-43.625,139,-219.75,-1.227051,-0.4609375,0.390625,0.1987305,-0.2407227,-0.206543
399,-33.5,102.0625,-214.375,-1.847168,-0.2392578,0.1635742,0.2104492,-0.2280273,-0.2026367
403,-43.6875,9,-236.9375,-2.017578,-0.02587891,0.009765625,0.2270508,-0.2128906,-0.199707
407,-66.625,-52.4375,-236.4375,-1.486328,-0.05273438,0.1171875,0.2353516,-0.1933594,-0.2041016
411,-91.4375,-39.5625,-213.3125,-0.8666992,-0.2666016,0.3442383,0.237793,-0.1757813,-0.2080078
415,-82.9375,36.8125,-191.5,-0.5488281,-0.6201172,0.6176758,0.2436523,-0.1557617,-0.2109375
419,-46.625,109.0625,-195.25,-0.9868164,-0.7329102,0.5942383,0.253418,-0.1342773,-0.2094727
423,-7.4375,104.875,-212.1875,-1.672363,-0.7250977,0.375,0.2592773,-0.1230469,-0.2011719
427,3,68.25,-213.1875,-1.827637,-0.4765625,0.3173828,0.2700195,-0.1054688,-0.1958008
432,-10.3125,44.8125,-176.75,-1.765625,-0.5424805,0.3173828,0.2758789,-0.08935547,-0.1889648
436,-19.625,43.0625,-136.5625,-1.467285,-0.453125,0.3056641,0.2758789,-0.07958984,-0.1865234
440,-23.6875,51.9375,-120.25,-1.219238,-0.3911133,0.2060547,0.2817383,-0.06689453,-0.1806641
444,-25.1875,52.5625,-123,-1.199707,-0.387207,0.125,0.2832031,-0.05322266,-0.1767578
448,-25.625,39.1875,-134.5,-1.227051,-0.3793945,0.1132813,0.2841797,-0.04443359,-0.1728516
452,-30.0625,24.9375,-141.375,-1.242188,-0.4067383,0.1367188,0.2866211,-0.03173828,-0.1713867
456,-36.0625,12.8125,-138.6875,-1.28125,-0.4726563,0.1826172,0.2856445,-0.015625,-0.1674805
460,-36.8125,0.875,-133.0625,-1.246094,-0.5151367,0.2290039,0.2856445,-0.005859375,-0.1674805
464,-32.25,5.4375,-124.25,-1.083496,-0.5776367,0.3212891,0.2832031,0.006347656,-0.1660156
468,-21,28.3125,-114.8125,-1.044922,-0.5854492,0.3710938,0.2807617,0.01611328,-0.1645508
472,-7.75,44.25,-104.4375,-1.180664,-0.6435547,0.3251953,0.2817383,0.02490234,-0.1606445
476,5.75,48.25,-94.0625,-1.23877,-0.534668,0.2675781,0.2792969,0.03515625,-0.1547852
480,11,45.4375,-86.3125,-1.28125,-0.5151367,0.2250977,0.2783203,0.04492188,-0.1523438
484,14.875,38.875,-72.6875,-1.308105,-0.4648438,0.1713867,0.2807617,0.04736328,-0.1494141
488,11.4375,33.3125,-54,-1.28125,-0.3950195,0.1518555,0.2792969,0.05273438,-0.1455078
492,3.0625,26.25,-36.6875,-1.28125,-0.3676758,0.144043,0.2807617,0.05761719,-0.1425781
496,-5.625,12.6875,-24.8125,-1.296875,-0.3676758,0.1479492,0.2807617,0.06005859,-0.1425781
500,-10.75,-1.1875,-15.125,-1.234863,-0.3637695,0.1787109,0.2807617,0.0625,-0.1416016
504,-14.4375,-13.9375,-10.375,-1.133789,-0.3833008,0.2250977,0.2807617,0.0625,-0.1416016
508,-11.25,-14.75,-6.8125,-1.044922,-0.4492188,0.3056641,0.2792969,0.06640625,-0.1425781
512,-1.4375,-7.1875,-1.5625,-1.07959,-0.4882813,0.3789063,0.2792969,0.06494141,-0.1425781
516,13.25,2.4375,9.3125,-1.23877,-0.503418,0.390625,0.2783203,0.06396484,-0.144043
520,28.3125,8.8125,23.9375,-1.439941,-0.503418,0.3945313,0.2783203,0.06494141,-0.144043
524,44.1875,13.75,47.875,-1.560059,-0.46875,0.375,0.2817383,0.05761719,-0.1416016
528,49.0625,24.75,80.8125,-1.661133,-0.3911133,0.2983398,0.2817383,0.05273438,-0.144043
532,44.6875,28.3125,119.125,-1.773438,-0.3364258,0.1982422,0.2841797,0.04492188,-0.144043
536,34.625,16.8125,151.1875,-1.804199,-0.3095703,0.1328125,0.2866211,0.03125,-0.144043
540,25.4375,-7.1875,162.8125,-1.738281,-0.3286133,0.1171875,0.2915039,0.01513672,-0.144043
544,20.5625,-22.5625,171.5625,-1.633789,-0.4921875,0.2172852,0.2924805,0.006347656,-0.144043
548,21.875,-22.375,190.75,-1.533203,-0.5620117,0.2866211,0.2939453,-0.01318359,-0.1469727
552,26.3125,-15,205.1875,-1.475098,-0.5776367,0.3134766,0.2949219,-0.03076172,-0.1494141
556,36,-7.125,214.75,-1.40918,-0.5463867,0.3017578,0.2949219,-0.046875,-0.1523438
561,38.8125,-2.125,221.25,-1.455566,-0.4570313,0.2329102,0.2949219,-0.06835938,-0.1538086
565,32.3125,-13.8125,229.3125,-1.571777,-0.3793945,0.1020508,0.2924805,-0.09082031,-0.1523438
569,21.625,-37.25,233.3125,-1.525391,-0.3286133,0.05957031,0.2890625,-0.1054688,-0.1547852
573,9.5,-53.0625,240.0625,-1.385742,-0.3173828,0.03662109,0.2841797,-0.1279297,-0.1606445
577,1.125,-56.9375,243.8125,-1.176758,-0.3056641,0.09423828,0.2749023,-0.1494141,-0.1645508
581,2.9375,-56.75,236.1875,-1.095215,-0.3676758,0.144043,0.269043,-0.1645508,-0.1674805
585,14.125,-53.9375,224.75,-1.021484,-0.3208008,0.1787109,0.2592773,-0.1845703,-0.1728516
589,14.8125,-41,227.25,-1.041016,-0.2666016,0.1713867,0.2475586,-0.203125,-0.175293
593,12.9375,-40.125,231.6875,-1.118652,-0.2241211,0.1132813,0.2392578,-0.2128906,-0.1796875
597,9.625,-50.6875,227.625,-1.11084,-0.1230469,0.06347656,0.2246094,-0.2319336,-0.1782227
601,1,-62.8125,224.625,-1.005859,-0.04150391,0.03662109,0.2119141,-0.2480469,-0.1835938
605,-3.5625,-60.9375,209.1875,-0.878418,-0.02587891,0.1557617,0.199707,-0.2583008,-0.1850586
609,7.8125,-43.125,189.5625,-0.9091797,-0.08007813,0.2983398,0.1831055,-0.2695313,-0.1918945
613,33.375,-20.75,197.3125,-1.184082,-0.3017578,0.3520508,0.1699219,-0.2832031,-0.1928711
617,56.9375,-0.375,232.3125,-1.331543,-0.1616211,0.2905273,0.1606445,-0.2905273,-0.1904297
621,43.375,-1.25,269.6875,-1.315918,0.2226563,0.07519531,0.144043,-0.3056641,-0.1875
625,13.5625,-32.5,279.1875,-1.141602,0.3271484,-0.07861328,0.1210938,-0.3193359,-0.1835938
629,-9.3125,-69.4375,263.0625,-0.9326172,0.3701172,-0.04394531,0.105957,-0.3266602,-0.1850586
633,-16.625,-94.1875,242.875,-0.746582,0.1757813,0.07519531,0.08203125,-0.3320313,-0.1904297
637,-4.4375,-92.9375,249.125,-0.4555664,-0.01806641,0.2866211,0.0546875,-0.3369141,-0.1918945
641,11.375,-60.8125,269.375,-0.1923828,0.03222656,0.3056641,0.03564453,-0.3408203,-0.1943359
645,20.375,-26.0625,273.375,-0.1069336,0.1523438,0.2788086,0.008300781,-0.3432617,-0.1928711
649,24.9375,-3.125,275.5,-0.06445313,0.269043,0.2133789,-0.01513672,-0.3457031,-0.1904297
653,22.125,1,266.875,-0.1186523,0.300293,0.05566406,-0.02929688,-0.3442383,-0.1865234
657,11.1875,-6.875,261.375,0.03173828,0.4052734,-0.04736328,-0.05322266,-0.3432617,-0.1850586
661,-4.625,-18.5,248.0625,0.1713867,0.3583984,-0.09375,-0.07714844,-0.3354492,-0.1865234
665,-12.1875,-20.375,230.25,0.4272461,0.3623047,0.005859375,-0.09228516,-0.3305664,-0.1850586
669,-5.4375,1.6875,216.4375,0.6635742,0.1757813,0.2211914,-0.112793,-0.3232422,-0.1850586
673,19.4375,42.875,209.25,0.7177734,0.121582,0.340332,-0.1293945,-0.3154297,-0.1821289
677,20.4375,61.75,206.25,0.543457,0.3310547,0.2827148,-0.1401367,-0.3095703,-0.1835938
681,-2.625,42.125,197,0.4541016,0.4013672,0.1943359,-0.1533203,-0.3032227,-0.1850586
685,-26.6875,2.1875,176.4375,0.675293,0.315918,0.2480469,-0.1665039,-0.2905273,-0.1875
690,-34.625,-17.8125,143.3125,1.182617,0.21875,0.3598633,-0.1748047,-0.2832031,-0.1904297
694,-28.125,-8.625,94.5625,1.585938,0.1796875,0.425293,-0.1831055,-0.2753906,-0.1889648
698,-11.1875,7.625,35.1875,1.659668,0.1523438,0.390625,-0.1899414,-0.2705078,-0.1904297
702,4.6875,17.875,-26.5625,1.461914,0.237793,0.2905273,-0.1899414,-0.2680664,-0.1928711
706,9.5,12.5625,-81.8125,1.13623,0.3505859,0.2519531,-0.1855469,-0.2719727,-0.1928711
710,16.625,4.8125,-119,0.8300781,0.3081055,0.2983398,-0.1791992,-0.2792969,-0.1928711
714,22.3125,7.25,-137.375,0.5512695,0.4594727,0.3828125,-0.1733398,-0.2841797,-0.1928711
718,26.1875,11.25,-139,0.3378906,0.4946289,0.3481445,-0.1625977,-0.2919922,-0.1889648
722,25.5625,10.75,-134.3125,0.2490234,0.6030273,0.2749023,-0.1508789,-0.3007813,-0.1904297
726,15.5,3.6875,-136,0.3071289,0.7080078,0.159668,-0.1435547,-0.3066406,-0.1875
730,5.25,-6.5,-146.9375,0.3457031,0.6694336,0.144043,-0.1328125,-0.3129883,-0.1875
734,1.1875,-10.9375,-163.875,0.4077148,0.6616211,0.1865234,-0.1201172,-0.3193359,-0.1875
738,5.1875,-5.5,-182.8125,0.3691406,0.5644531,0.2827148,-0.1103516,-0.3232422,-0.1865234
742,13.8125,4.9375,-188.6875,0.2026367,0.5292969,0.2866211,-0.09472656,-0.3291016,-0.1875
746,15.5,15.125,-182,0.08251953,0.5253906,0.2368164,-0.078125,-0.3354492,-0.1850586
750,8.8125,19.125,-172,0.04345703,0.6069336,0.09423828,-0.06640625,-0.3393555,-0.1850586
754,-8,15,-174.3125,0.06298828,0.6538086,0.05175781,-0.04980469,-0.3432617,-0.1865234
758,-19.875,0.6875,-191.375,0.008789063,0.6147461,0.04052734,-0.03515625,-0.3457031,-0.1850586
762,-23.5,-14.375,-225.625,0.03564453,0.5605469,0.1289063,-0.0234375,-0.3466797,-0.1865234
766,-19.25,-12.1875,-245,-0.04882813,0.3466797,0.2172852,-0.003417969,-0.3457031,-0.1918945
770,-14.75,9.3125,-229.125,-0.1728516,0.2768555,0.2329102,0.01757813,-0.3417969,-0.1943359
774,-24.875,31.25,-203,-0.2773438,0.3974609,0.1289063,0.03076172,-0.3408203,-0.1928711
778,-40.875,44.125,-191.9375,-0.296875,0.4399414,0.09814453,0.05078125,-0.3369141,-0.1958008
782,-44.6875,44.375,-207.5625,-0.4829102,0.3466797,0.1367188,0.06982422,-0.328125,-0.199707
786,-35.1875,23.125,-241.1875,-0.6767578,0.284668,0.1557617,0.08447266,-0.3232422,-0.199707
790,-26.8125,9.125,-267.75,-0.7192383,0.1875,0.2329102,0.1035156,-0.3144531,-0.2011719
794,-26.75,28.5625,-238.9375,-0.7036133,0.05908203,0.3173828,0.125,-0.3032227,-0.2041016
798,-33.9375,77.375,-187.125,-0.5913086,0.05126953,0.3364258,0.1367188,-0.296875,-0.2041016
802,-35.4375,103.6875,-169.625,-0.7617188,0.1176758,0.1367188,0.1547852,-0.2841797,-0.2041016
806,-40.5625,61.5625,-204.1875,-1.029297,0.2573242,-0.02832031,0.1713867,-0.2729492,-0.2011719
810,-43.75,-15.125,-273.8125,-1.087402,0.1679688,0.01367188,0.1821289,-0.2641602,-0.2011719
814,-41.3125,-39.0625,-310.5,-0.9208984,-0.1694336,0.4135742,0.1972656,-0.2416992,-0.2026367
819,-21.1875,23.75,-263.9375,-0.8935547,-0.5424805,0.7099609,0.2119141,-0.2216797,-0.2080078
823,-6.5,107.5,-188.875,-1.001953,-0.3989258,0.5595703,0.2202148,-0.2119141,-0.206543
827,-3.75,135.8125,-163.5625,-1.219238,-0.1308594,0.1826172,0.2353516,-0.1992188,-0.1987305
831,-11.375,92.875,-178.6875,-1.447754,0.02441406,-0.09375,0.25,-0.1855469,-0.1875
835,-30.75,1.25,-223.3125,-1.498047,0.04394531,-0.1821289,0.2543945,-0.1743164,-0.1821289
839,-48.8125,-56.875,-258.5,-1.005859,-0.08007813,0.1132813,0.2592773,-0.1533203,-0.1865234
843,-45.5,-18.6875,-253.5625,-0.7348633,-0.6083984,0.4750977,0.2666016,-0.1279297,-0.1928711
847,-25.25,56.8125,-212,-0.9130859,-0.6279297,0.4829102,0.2675781,-0.1142578,-0.1928711
851,-21.25,93.875,-184.4375,-1.315918,-0.5,0.2480469,0.2758789,-0.09423828,-0.1850586
855,-29.875,70.125,-179.5,-1.665039,-0.3676758,0.05566406,0.2817383,-0.07714844,-0.1796875
859,-45.5,5.5,-187,-1.757813,-0.3520508,0.009765625,0.2817383,-0.06591797,-0.1738281
863,-62.25,-51.75,-193.6875,-1.48291,-0.4257813,0.08642578,0.2832031,-0.04443359,-0.1782227
867,-70.25,-64.3125,-188.8125,-1.037109,-0.5581055,0.2290039,0.2783203,-0.02441406,-0.1796875
871,-67.9375,-33.5,-179.9375,-0.8393555,-0.6821289,0.2983398,0.2773438,-0.01074219,-0.1835938
875,-58.5,2.25,-167.0625,-0.9208984,-0.7524414,0.2983398,0.2734375,0.007324219,-0.1835938
879,-56.1875,18.25,-156.5,-1.114746,-0.6787109,0.2441406,0.2709961,0.02490234,-0.1821289
883,-59.6875,6.75,-151.125,-1.304199,-0.7172852,0.2368164,0.2700195,0.03613281,-0.1806641
887,-52.9375,-18.125,-154.125,-1.296875,-0.7602539,0.2749023,0.2641602,0.05126953,-0.1767578
891,-46.0625,-27.375,-151.9375,-1.161133,-0.7094727,0.3330078,0.2602539,0.06738281,-0.1738281
895,-42.9375,-11.0625,-138.25,-1.075684,-0.7055664,0.3671875,0.253418,0.07763672,-0.175293
899,-38.125,6.75,-117.9375,-1.172852,-0.6669922,0.3671875,0.2485352,0.08984375,-0.1738281
903,-34,10.625,-94.625,-1.347168,-0.6513672,0.390625,0.2475586,0.1010742,-0.1728516
907,-30.1875,1.9375,-69.5625,-1.447754,-0.5854492,0.4213867,0.2451172,0.1074219,-0.1713867
911,-25.625,-7.75,-46,-1.420898,-0.5737305,0.4711914,0.2412109,0.1137695,-0.1699219
915,-16.4375,-10.5625,-26.25,-1.32373,-0.6044922,0.5444336,0.237793,0.1176758,-0.1699219
919,-4.4375,-0.125,-8.3125,-1.273438,-0.581543,0.625,0.2368164,0.1186523,-0.1674805
923,8,9.1875,11.25,-1.327637,-0.6083984,0.625,0.237793,0.1201172,-0.168457
927,20.375,17.375,33.5,-1.370117,-0.5927734,0.590332,0.2392578,0.1176758,-0.168457
931,31.4375,23,52.9375,-1.416992,-0.5927734,0.5214844,0.2412109,0.1152344,-0.168457
935,40.1875,23.75,76.25,-1.501953,-0.5893555,0.4174805,0.2451172,0.1088867,-0.1674805
939,39.3125,16.6875,100.375,-1.525391,-0.4960938,0.3134766,0.2485352,0.09863281,-0.168457
943,34.1875,4.8125,116.25,-1.533203,-0.5463867,0.3212891,0.253418,0.09228516,-0.168457
948,36.9375,-2.5625,130.9375,-1.533203,-0.6201172,0.375,0.2583008,0.08105469,-0.1699219
952,42.1875,-4.5625,150.125,-1.537109,-0.6860352,0.3637695,0.2617188,0.06738281,-0.1713867
956,45.75,-7.375,172.125,-1.513672,-0.7290039,0.3212891,0.2666016,0.05761719,-0.1728516
960,45.5625,-12.5625,189.4375,-1.428223,-0.7211914,0.2749023,0.2700195,0.03857422,-0.1767578
964,45.9375,-16,201.8125,-1.351074,-0.7485352,0.2827148,0.2724609,0.01855469,-0.1796875
968,49.4375,-18.1875,205.3125,-1.315918,-0.7368164,0.2749023,0.2734375,0.004882813,-0.1821289
972,52.4375,-21.9375,205.625,-1.296875,-0.6938477,0.2597656,0.2773438,-0.01464844,-0.1850586
976,55.4375,-23,206.25,-1.300781,-0.6899414,0.2749023,0.2758789,-0.03710938,-0.1875
980,58.3125,-13.6875,217.625,-1.292969,-0.7055664,0.3017578,0.2758789,-0.05078125,-0.1889648
984,57.3125,-5.625,233.125,-1.339355,-0.6513672,0.2519531,0.2749023,-0.07324219,-0.1889648
988,49.5,-18.625,239.1875,-1.401367,-0.5,0.1132813,0.2724609,-0.09716797,-0.1928711
992,34.875,-51.9375,235.375,-1.447754,-0.4453125,0.02099609,0.269043,-0.1118164,-0.1918945
996,24.25,-85.4375,228.75,-1.300781,-0.4492188,0.05175781,0.2592773,-0.1318359,-0.1987305
1000,23.375,-100.4375,224.5625,-1.048828,-0.5268555,0.1826172,0.2485352,-0.1533203,-0.2055664
1004,39.125,-78.3125,225.9375,-0.7695313,-0.5927734,0.390625,0.2426758,-0.1669922,-0.2094727
1008,57.625,-29.4375,232.8125,-0.8046875,-0.534668,0.4633789,0.230957,-0.1855469,-0.2133789
1012,62.125,-13.4375,246,-1.075684,-0.3173828,0.2250977,0.2202148,-0.2055664,-0.2133789
1016,46.5625,-35.5,245.75,-1.145508,-0.09570313,0.1020508,0.2104492,-0.2192383,-0.2109375
1020,36.375,-63.8125,229.375,-1.125977,-0.1420898,0.1132813,0.1962891,-0.2392578,-0.2133789
1024,27.5625,-89.1875,233.5625,-0.9946289,-0.06835938,0.05175781,0.1796875,-0.2543945,-0.2133789
1028,13.4375,-95.8125,230.1875,-0.8085938,-0.05664063,0.1557617,0.1650391,-0.2617188,-0.2163086
1032,18.625,-98.625,222.3125,-0.6689453,-0.07617188,0.1826172,0.1450195,-0.2744141,-0.2202148
1036,19.375,-101.6875,207.4375,-0.6611328,0.02441406,0.140625,0.1259766,-0.2866211,-0.2255859
1040,24.625,-100.625,192.5,-0.4750977,0.008789063,0.2480469,0.1118164,-0.2919922,-0.2270508
1044,33.75,-72.0625,190.125,-0.3164063,0.01660156,0.3867188,0.09277344,-0.3017578,-0.2285156
1048,49.125,-35.5,199,-0.3862305,-0.07617188,0.4174805,0.07128906,-0.3081055,-0.2270508
1052,58.625,-19.0625,215.5625,-0.4482422,0.1523438,0.2788086,0.06298828,-0.3120117,-0.2246094
1056,40.5625,-27.75,219.6875,-0.4365234,0.3701172,0.1674805,0.04394531,-0.3208008,-0.2202148
1060,35.0625,-47.75,204.0625,-0.28125,0.4750977,0.2211914,0.02490234,-0.3242188,-0.2163086
1064,40.125,-55.5625,190.125,-0.02978516,0.2924805,0.2944336,0.01074219,-0.3266602,-0.2148438
1068,47,-37.25,176.5,0.159668,0.3120117,0.3598633,-0.009277344,-0.3305664,-0.2119141
1072,54,-7.25,175.3125,0.2412109,0.3271484,0.3789063,-0.02490234,-0.3330078,-0.206543
1077,64.5,18.3125,175,0.2104492,0.3583984,0.3637695,-0.03417969,-0.3354492,-0.2026367
1081,67.375,32.625,176.5,0.1054688,0.5058594,0.2133789,-0.04736328,-0.3378906,-0.1972656
1085,55.375,25.8125,171.75,0.01269531,0.6694336,0.08642578,-0.06152344,-0.3378906,-0.1918945
1089,37.25,0.0625,167,0.03955078,0.6733398,0.02880859,-0.06982422,-0.3369141,-0.1904297
1093,23.25,-20.9375,161.8125,0.2177734,0.6264648,0.07128906,-0.08642578,-0.3344727,-0.1865234
1097,15.625,-19.625,157.1875,0.5126953,0.6342773,0.1787109,-0.1010742,-0.3305664,-0.1835938
1101,10,-6,151.0625,0.6289063,0.6030273,0.144043,-0.1113281,-0.3256836,-0.1821289
1105,6.1875,4.625,136.5,0.7641602,0.6186523,0.159668,-0.1220703,-0.3208008,-0.1806641
1109,2.75,13.75,115.1875,0.8652344,0.6186523,0.140625,-0.1342773,-0.3168945,-0.1806641
1113,-0.3125,15.25,85,0.9038086,0.6303711,0.1098633,-0.1391602,-0.3129883,-0.1806641
1117,-6.1875,6.9375,49.125,0.9038086,0.6577148,0.06347656,-0.1435547,-0.3105469,-0.1806641
1121,-15.5,-6.3125,15,0.9272461,0.6459961,0.05566406,-0.1474609,-0.3056641,-0.1821289
1125,-23.75,-14.6875,-22.3125,0.9736328,0.6303711,0.1098633,-0.1484375,-0.3081055,-0.1835938
1129,-21.4375,-11.75,-59.8125,0.9501953,0.5644531,0.2211914,-0.1459961,-0.3066406,-0.1850586
1133,-13.75,3.4375,-90.625,0.8959961,0.5644531,0.3251953,-0.1411133,-0.3066406,-0.1850586
1137,-0.9375,20.8125,-116.125,0.6831055,0.5136719,0.355957,-0.1352539,-0.3120117,-0.1875
1141,11.1875,27.625,-128.875,0.4506836,0.5253906,0.3095703,-0.1245117,-0.3178711,-0.1875
1145,13.25,22.75,-133.4375,0.3339844,0.6030273,0.1904297,-0.1103516,-0.3232422,-0.1875
1149,5.0625,11,-137.625,0.3188477,0.6845703,0.1210938,-0.1044922,-0.3266602,-0.1875
1153,-9,-1.0625,-151.3125,0.2993164,0.7158203,0.08251953,-0.09130859,-0.3320313,-0.1875
1157,-19.125,-8.5,-167.25,0.3378906,0.6845703,0.1713867,-0.078125,-0.3344727,-0.1875
1161,-22.3125,-5.1875,-184.3125,0.2797852,0.5800781,0.2636719,-0.06884766,-0.3369141,-0.1904297
1165,-16.5,5.25,-191.625,0.1987305,0.4672852,0.3095703,-0.05224609,-0.3408203,-0.1928711
1169,-9.4375,25.125,-191.75,0.1445313,0.4790039,0.3637695,-0.03320313,-0.3417969,-0.1943359
1173,-6,45.75,-185.875,-0.05273438,0.4790039,0.2709961,-0.02001953,-0.3417969,-0.1958008
1177,-13.0625,48.375,-180.75,-0.2192383,0.6147461,0.1748047,-0.005859375,-0.3432617,-0.1943359
1181,-31.5625,33.1875,-184.0625,-0.4287109,0.6733398,0.1020508,0.01513672,-0.3393555,-0.1958008
1185,-48.3125,8.375,-189,-0.5488281,0.6655273,0.1171875,0.02734375,-0.3378906,-0.199707
1189,-58,-19.5625,-205.5625,-0.6416016,0.6030273,0.2094727,0.04150391,-0.3320313,-0.2041016
1193,-58.8125,-37.5625,-206.9375,-0.6303711,0.4672852,0.3330078,0.05957031,-0.3242188,-0.2094727
1197,-54.5625,-25.125,-187.8125,-0.5332031,0.3505859,0.4672852,0.06982422,-0.3193359,-0.2148438
1201,-52,5.3125,-155.1875,-0.4404297,0.3974609,0.4907227,0.08300781,-0.3120117,-0.2202148
1206,-55.125,42.5,-145.0625,-0.4521484,0.3935547,0.5444336,0.09521484,-0.3032227,-0.2231445
1210,-42.0625,56.9375,-138.1875,-0.6806641,0.269043,0.4326172,0.1044922,-0.3017578,-0.2231445
1214,-39.1875,31.4375,-159,-0.9711914,0.4829102,0.2983398,0.1166992,-0.2919922,-0.2246094
1218,-44.5625,-17.4375,-175.5,-1.087402,0.3583984,0.2558594,0.128418,-0.2807617,-0.2270508
1222,-50.3125,-46.3125,-171.4375,-0.9477539,0.2885742,0.375,0.1342773,-0.2753906,-0.2285156
1226,-58.4375,-35.5,-144.75,-0.6264648,0.2495117,0.4672852,0.1425781,-0.2607422,-0.2353516
1230,-60.25,9.5625,-119.0625,-0.3745117,0.121582,0.5595703,0.1523438,-0.2529297,-0.2407227
1234,-55.3125,49.625,-114.8125,-0.4326172,0.2226563,0.4560547,0.1547852,-0.2470703,-0.2392578
1238,-53.6875,51.875,-155.5625,-0.8164063,0.1679688,0.3710938,0.1665039,-0.2358398,-0.2407227
1242,-38.6875,17.25,-185.1875,-1.048828,0.04736328,0.3291016,0.1796875,-0.2231445,-0.2421875
1246,-38.5,0.9375,-191.0625,-1.041016,-0.04150391,0.4287109,0.1831055,-0.2128906,-0.2421875
1250,-34.125,16.5,-161.625,-0.9091797,-0.1538086,0.5249023,0.1938477,-0.2006836,-0.2446289
1254,-31.625,57.8125,-123.6875,-0.7036133,-0.01416016,0.4482422,0.2011719,-0.1894531,-0.2421875
1258,-40.5625,86.0625,-113.5,-0.7851563,0.1098633,0.2558594,0.2094727,-0.1821289,-0.2407227
1262,-47.625,66.25,-124.0625,-0.9750977,0.03613281,0.08251953,0.2177734,-0.1733398,-0.2368164
1266,-47.625,30.375,-150.6875,-0.8666992,-0.01025391,0.1367188,0.2236328,-0.1591797,-0.2338867
1270,-47.8125,29.125,-165.5,-0.5952148,-0.1889648,0.3442383,0.2285156,-0.1518555,-0.2338867
1274,-37.0625,73,-168,-0.5175781,-0.3989258,0.5058594,0.2353516,-0.1342773,-0.2299805
1278,-19.3125,117.375,-157.0625,-0.7270508,-0.4804688,0.4482422,0.2451172,-0.1196289,-0.2246094
1282,-12.625,130.1875,-145.625,-1.001953,-0.3598633,0.2329102,0.2509766,-0.1118164,-0.2202148
1286,-21.5625,98.625,-143.5625,-1.273438,-0.2666016,0.04052734,0.2602539,-0.09814453,-0.2094727
1290,-39.5,42,-147.125,-1.308105,-0.2392578,-0.05126953,0.2666016,-0.08544922,-0.2041016
1294,-52.5,-2.5,-159,-1.025391,-0.355957,0.07910156,0.269043,-0.07421875,-0.2011719
1298,-45.875,8.25,-169.125,-0.6030273,-0.581543,0.3364258,0.269043,-0.05810547,-0.2026367
1302,-35.3125,65,-171.4375,-0.6303711,-0.7172852,0.409668,0.2700195,-0.04052734,-0.199707
1306,-26.125,102.8125,-166.0625,-1.071777,-0.7133789,0.3330078,0.2709961,-0.02929688,-0.1928711
1310,-25.875,89.5625,-156.25,-1.587402,-0.6860352,0.2133789,0.2749023,-0.015625,-0.1835938
1314,-32.3125,37.0625,-144.5,-1.843262,-0.6552734,0.1826172,0.2773438,-0.0004882813,-0.175293
1318,-35.5625,-15.4375,-136.9375,-1.657227,-0.6083984,0.2172852,0.2758789,0.01025391,-0.1738281
1322,-34.8125,-28.5,-131.5,-1.296875,-0.565918,0.3212891,0.2734375,0.02392578,-0.1767578
1326,-31,-4.25,-118.5,-1.219238,-0.5385742,0.3598633,0.2700195,0.03613281,-0.1767578
1330,-29.875,13.0625,-96.0625,-1.40918,-0.5698242,0.3710938,0.2675781,0.04638672,-0.1738281
1335,-25.6875,12.4375,-70.25,-1.521484,-0.534668,0.425293,0.2666016,0.05371094,-0.1738281
1339,-20.9375,3.875,-51.5625,-1.529297,-0.4882813,0.4711914,0.2641602,0.06103516,-0.1699219
1343,-9.5,-0.5,-37.125,-1.45166,-0.4726563,0.5249023,0.2641602,0.06396484,-0.1699219
1347,0.625,5,-22.875,-1.413086,-0.3989258,0.5214844,0.2626953,0.06640625,-0.1699219
1351,7.625,10.3125,-4.5625,-1.439941,-0.3754883,0.4829102,0.2626953,0.06738281,-0.1713867
1355,13.4375,11.3125,16.375,-1.486328,-0.3911133,0.4560547,0.2641602,0.06640625,-0.168457
1359,17.3125,8.3125,43.25,-1.533203,-0.3950195,0.4287109,0.2626953,0.06640625,-0.168457
1363,19,1.75,61.6875,-1.501953,-0.3520508,0.409668,0.2651367,0.06005859,-0.1699219
1367,24.9375,-4.625,73.125,-1.494141,-0.4179688,0.4174805,0.2675781,0.05615234,-0.168457
1371,31,-3.8125,91.0625,-1.471191,-0.4257813,0.390625,0.2700195,0.04638672,-0.1713867
1375,31.1875,-1.9375,108.5,-1.48291,-0.4067383,0.3828125,0.2734375,0.03759766,-0.1699219
1379,34.375,-2.6875,126.6875,-1.513672,-0.5073242,0.375,0.2734375,0.03027344,-0.1713867
1383,38,-5.125,145.8125,-1.490234,-0.5,0.3442383,0.2758789,0.01513672,-0.1767578
1387,41.25,-6.375,161.875,-1.486328,-0.5112305,0.3364258,0.2783203,0,-0.1782227
1391,42.8125,-9,175,-1.459473,-0.4960938,0.3017578,0.2783203,-0.009277344,-0.1796875
1395,43,-16.75,186.625,-1.439941,-0.4960938,0.2675781,0.2807617,-0.03076172,-0.1782227
1399,42.1875,-21.625,191.9375,-1.335449,-0.4414063,0.2866211,0.2792969,-0.04931641,-0.1821289
1403,44.125,-17.625,200.1875,-1.327637,-0.534668,0.3134766,0.2783203,-0.06054688,-0.1850586
1407,47.75,-7.4375,213,-1.273438,-0.4609375,0.3364258,0.2783203,-0.08056641,-0.1850586
1411,48.5,-9.1875,214.375,-1.347168,-0.3989258,0.2519531,0.2724609,-0.1030273,-0.1875
1415,47.625,-24.0625,216.5,-1.405273,-0.3442383,0.1787109,0.2709961,-0.1181641,-0.1865234
1419,37.875,-39,224.125,-1.331543,-0.2900391,0.1904297,0.2641602,-0.1396484,-0.1889648
1423,35.125,-45.8125,225.25,-1.20752,-0.2822266,0.2172852,0.2583008,-0.1606445,-0.1918945
1427,36.6875,-45.0625,223.875,-1.099121,-0.2666016,0.2480469,0.25,-0.171875,-0.1928711
1431,36.6875,-40.4375,225.5,-1.07959,-0.2163086,0.1748047,0.2402344,-0.1918945,-0.1958008
1435,31.3125,-47,222.0625,-1.087402,-0.08789063,0.1289063,0.2285156,-0.2119141,-0.1972656
1439,25.75,-58.9375,222.125,-1.037109,-0.1074219,0.144043,0.21875,-0.2207031,-0.1987305
1443,21.875,-57,219.125,-0.9365234,-0.08007813,0.2558594,0.2045898,-0.2368164,-0.2011719
1447,28.125,-52.625,218.5625,-0.9829102,-0.1577148,0.2636719,0.1904297,-0.2519531,-0.2041016
1451,32.25,-43.9375,221.4375,-0.8393555,0.01660156,0.2558594,0.1796875,-0.2631836,-0.206543
1455,25.1875,-29.0625,225,-0.8046875,0.07470703,0.2172852,0.1640625,-0.2783203,-0.206543
1459,21.8125,-23.4375,221.9375,-0.8857422,0.1333008,0.1826172,0.1459961,-0.2905273,-0.2041016
1464,14.625,-29.5625,225.625,-1.037109,0.09423828,0.144043,0.1357422,-0.2993164,-0.2041016
1468,16.4375,-41.875,240.1875,-0.9711914,0.07080078,0.1713867,0.1166992,-0.3081055,-0.2055664
1472,18.5,-49.4375,245.5,-0.7617188,0.1254883,0.1826172,0.09375,-0.3168945,-0.2055664
1476,22.4375,-49.75,245.0625,-0.5371094,0.2109375,0.144043,0.08056641,-0.3242188,-0.2055664
1480,19,-41.75,240.5,-0.3588867,0.269043,0.1748047,0.05712891,-0.328125,-0.2041016
1484,21.9375,-33.375,229.9375,-0.3007813,0.1445313,0.1904297,0.03564453,-0.3330078,-0.2055664
1488,26.1875,-28.3125,219.9375,-0.230957,0.2456055,0.2480469,0.02148438,-0.3378906,-0.2041016
1492,31,-20.5625,220.8125,-0.2387695,0.2612305,0.1826172,0,-0.3408203,-0.2011719
1496,23.625,-16.875,228,-0.2041016,0.3583984,0.1982422,-0.02099609,-0.3393555,-0.1972656
1500,18.125,-20.9375,230.8125,-0.1499023,0.3583984,0.1904297,-0.03515625,-0.3378906,-0.1943359
1504,16.6875,-19.75,220.625,-0.06445313,0.4165039,0.2519531,-0.05419922,-0.3393555,-0.1928711
1508,18.375,-25.5625,210.625,-0.09130859,0.4204102,0.2441406,-0.07470703,-0.3344727,-0.1904297
1512,19.125,-29.1875,214.5625,0.0009765625,0.3427734,0.2788086,-0.08789063,-0.3305664,-0.1875
1516,21.0625,-16.125,227.375,0.206543,0.3544922,0.3095703,-0.1079102,-0.3242188,-0.1875
1520,17.75,0.1875,241.125,0.3378906,0.3935547,0.2211914,-0.128418,-0.3168945,-0.1821289
1524,7.1875,8.3125,245.0625,0.3959961,0.4633789,0.1518555,-0.1425781,-0.3105469,-0.1821289
1528,-12.25,-11.8125,234.8125,0.4467773,0.4633789,0.07910156,-0.1616211,-0.2983398,-0.1821289
1532,-22.5625,-40.875,203.875,0.7099609,0.4086914,0.06347656,-0.1772461,-0.2866211,-0.1806641
1536,-37.9375,-55.375,169.625,1.085938,0.4321289,0.09814453,-0.1914063,-0.2783203,-0.1806641
1540,-44.125,-41.875,138.25,1.43457,0.1953125,0.1865234,-0.2055664,-0.265625,-0.1806641
1544,-37.625,-14.75,107.25,1.655762,0.09423828,0.2211914,-0.215332,-0.2543945,-0.1796875
1548,-25.0625,8.625,55,1.783691,0.1679688,0.2021484,-0.21875,-0.2495117,-0.1796875
1552,-14.375,19.5,-16.5,1.608887,0.284668,0.159668,-0.2211914,-0.2456055,-0.1850586
1556,-8.875,11.4375,-84.5,1.314453,0.3310547,0.1826172,-0.215332,-0.2470703,-0.1865234
1560,-4.3125,7.8125,-135.4375,1.074219,0.3623047,0.3095703,-0.2114258,-0.2495117,-0.1865234
1564,6.1875,10.3125,-165.0625,0.7412109,0.315918,0.4018555,-0.2021484,-0.2607422,-0.1875
1568,19.9375,17.9375,-166.375,0.5512695,0.3041992,0.409668,-0.1899414,-0.2719727,-0.1850586
1572,25.4375,26.8125,-153.4375,0.4311523,0.4086914,0.3481445,-0.1816406,-0.2817383,-0.1865234
1576,21,27.1875,-150.0625,0.4038086,0.5839844,0.2368164,-0.168457,-0.2880859,-0.1865234
1580,13.125,15.6875,-165.9375,0.3886719,0.6577148,0.1787109,-0.1557617,-0.296875,-0.1875
1584,7.0625,1.3125,-187.8125,0.3071289,0.6342773,0.1713867,-0.1459961,-0.3056641,-0.1865234
1588,2.4375,-4.625,-205.3125,0.2451172,0.6030273,0.2636719,-0.1303711,-0.3120117,-0.1875
1593,2.5625,-3.0625,-209.0625,0.1713867,0.5058594,0.2519531,-0.1137695,-0.3217773,-0.1865234
1597,3.125,7.75,-201.4375,0.175293,0.4750977,0.2788086,-0.1044922,-0.3266602,-0.1865234
1601,1.125,21.125,-187.8125,0.1132813,0.4633789,0.2021484,-0.08544922,-0.3330078,-0.1875
1605,-6.5,28.75,-181.875,0.06689453,0.5527344,0.1748047,-0.06982422,-0.3369141,-0.1889648
1609,-15.125,24.0625,-191.0625,-0.04492188,0.5605469,0.1210938,-0.05566406,-0.3378906,-0.1904297
1613,-20.6875,11.125,-213.875,-0.1147461,0.5878906,0.2094727,-0.03662109,-0.3417969,-0.1943359
1617,-15,2.5625,-239.75,-0.1845703,0.4438477,0.2329102,-0.01611328,-0.3417969,-0.1958008
1621,-13.8125,4.875,-231.1875,-0.2890625,0.3623047,0.2211914,-0.001953125,-0.3408203,-0.1958008
1625,-27.75,15.4375,-201.5,-0.3242188,0.4672852,0.1328125,0.01757813,-0.3393555,-0.1958008
1629,-53.875,22.9375,-181.125,-0.230957,0.5019531,0.1098633,0.03564453,-0.3354492,-0.199707
1633,-61.8125,36.6875,-197.375,-0.3125,0.3857422,0.2480469,0.04736328,-0.3305664,-0.2041016
1637,-46.5,26.5625,-227.6875,-0.6416016,0.1992188,0.2329102,0.06542969,-0.3232422,-0.206543
1641,-33.375,4.8125,-243.25,-0.7114258,0.3120117,0.1904297,0.08544922,-0.3168945,-0.2094727
1645,-48.6875,4.625,-232.625,-0.7578125,0.2651367,0.1748047,0.09765625,-0.3095703,-0.2133789
1649,-67,15.25,-190.875,-0.6962891,0.2416992,0.1826172,0.1166992,-0.2983398,-0.2163086
1653,-84.25,46,-172.3125,-0.6225586,0.2299805,0.3330078,0.1293945,-0.2866211,-0.2216797
1657,-81.8125,62.4375,-162.5625,-0.8354492,-0.002441406,0.340332,0.1376953,-0.2792969,-0.2231445
1661,-46.5,54.1875,-193.0625,-0.8706055,-0.03369141,0.4443359,0.1533203,-0.2670898,-0.2255859
1665,-15.75,49,-223.625,-0.9672852,0.07470703,0.3945313,0.1699219,-0.2519531,-0.2216797
1669,-20.5,55.6875,-217.25,-1.219238,0.09423828,0.3212891,0.1796875,-0.2431641,-0.2246094
1673,-40.25,49.375,-175.5,-1.401367,0.1137695,0.1826172,0.1962891,-0.2304688,-0.2202148
1677,-63.9375,43.375,-141.0625,-1.099121,0.1757813,0.2441406,0.2055664,-0.2192383,-0.2202148
1681,-71.0625,61.625,-132.5625,-0.9013672,0.04394531,0.3598633,0.2104492,-0.2080078,-0.2216797
1685,-57.0625,70.5,-142.6875,-0.9365234,-0.08789063,0.3710938,0.2211914,-0.1943359,-0.21875
1689,-30.0625,58.625,-173.8125,-0.9594727,-0.08007813,0.2827148,0.230957,-0.1821289,-0.2133789
1693,-26.0625,46.4375,-194.0625,-1.052734,-0.04541016,0.2211914,0.237793,-0.1704102,-0.2133789
1697,-39.875,34.1875,-185.0625,-1.157227,-0.09179688,0.1328125,0.2460938,-0.1557617,-0.2109375
1701,-63.125,25.625,-166.75,-1.067871,-0.09570313,0.1367188,0.253418,-0.1396484,-0.2080078
1705,-75.875,31.1875,-163.5,-0.8818359,-0.2744141,0.2402344,0.2558594,-0.1254883,-0.2080078
1709,-54.75,38.3125,-187.375,-0.847168,-0.519043,0.3442383,0.2592773,-0.1069336,-0.206543
1713,-29.625,51.125,-214.8125,-0.9594727,0.1484375,0.340332,0.2651367,-0.08691406,-0.2041016
1717,-30.6875,50.25,-200.75,-1.327637,-0.4335938,0.2172852,0.2700195,-0.07568359,-0.2011719
1722,-47.375,40.25,-176.9375,-1.393555,-0.484375,0.2133789,0.2734375,-0.05712891,-0.1958008
1726,-59.1875,30.75,-165.5625,-1.366211,-0.5385742,0.2368164,0.2749023,-0.03955078,-0.1918945
1730,-57.1875,22.4375,-168,-1.343262,-0.581543,0.2905273,0.2749023,-0.02832031,-0.1904297
1734,-46.875,15.125,-172.9375,-1.401367,-0.5927734,0.3481445,0.2734375,-0.009277344,-0.1875
1738,-41.75,14.5,-158.375,-1.45166,-0.6201172,0.4135742,0.2724609,0.008789063,-0.1850586
1742,-36,18.6875,-135.5625,-1.490234,-0.6083984,0.4482422,0.2709961,0.01757813,-0.1835938
1746,-30.1875,17.4375,-112.375,-1.563965,-0.5698242,0.4213867,0.2675781,0.03271484,-0.1806641
1750,-23.4375,11.4375,-90.3125,-1.541016,-0.4492188,0.390625,0.2666016,0.04150391,-0.1767578
1754,-16.625,12.4375,-69.9375,-1.420898,-0.4453125,0.4599609,0.2666016,0.04882813,-0.1767578
1758,-7,19.6875,-49.8125,-1.413086,-0.3754883,0.4868164,0.2651367,0.05371094,-0.1767578
1762,0.9375,19.9375,-28.0625,-1.455566,-0.402832,0.5249023,0.2626953,0.05859375,-0.1738281
1766,10.3125,17.3125,-6.8125,-1.443848,-0.355957,0.5327148,0.2641602,0.06005859,-0.1699219
1770,18.4375,17,13.75,-1.439941,-0.3442383,0.5556641,0.2666016,0.06005859,-0.1713867
1774,29.5625,22.3125,32.625,-1.447754,-0.3520508,0.5942383,0.2675781,0.05371094,-0.1699219
1778,44.375,31.5625,52.625,-1.48291,-0.355957,0.5869141,0.269043,0.05126953,-0.168457
1782,56.8125,37.5,72.9375,-1.556152,-0.355957,0.5366211,0.2709961,0.04394531,-0.1674805
1786,64,35.125,95.0625,-1.637695,-0.3637695,0.4750977,0.2749023,0.03369141,-0.1660156
1790,70.875,32.75,120.8125,-1.649414,-0.3598633,0.4326172,0.2783203,0.02490234,-0.1674805
1794,73.5,34.875,143.375,-1.70752,-0.3325195,0.3867188,0.2817383,0.01269531,-0.1674805
1798,74.1875,32.3125,166.8125,-1.75,-0.340332,0.2827148,0.2880859,-0.006835938,-0.1660156
1802,66,20.875,185.6875,-1.785156,-0.324707,0.2133789,0.2866211,-0.01953125,-0.1630859
1806,57.5,6.625,203.5,-1.723145,-0.3364258,0.1713867,0.2890625,-0.03955078,-0.1616211
1810,50.125,-4.25,214,-1.684082,-0.3676758,0.2172852,0.2915039,-0.06201172,-0.1645508
1814,48.875,-10.8125,227.875,-1.599121,-0.402832,0.2060547,0.2890625,-0.07714844,-0.1630859
1818,45.3125,-13.6875,237.125,-1.525391,-0.3481445,0.2021484,0.2841797,-0.09960938,-0.1645508
1822,43.125,-18.6875,245,-1.517578,-0.355957,0.1787109,0.2807617,-0.1245117,-0.1674805
1826,38.4375,-26.5,250.0625,-1.45166,-0.2861328,0.159668,0.2773438,-0.140625,-0.1674805
1830,33.0625,-28.125,255.625,-1.343262,-0.2626953,0.1904297,0.2675781,-0.1630859,-0.1699219
1834,32,-26.875,260.9375,-1.351074,-0.2783203,0.1674805,0.2583008,-0.1855469,-0.1699219
1838,31.9375,-32.625,267.4375,-1.343262,-0.2509766,0.144043,0.2519531,-0.2016602,-0.1713867
1842,26,-44.5,267.5625,-1.23877,-0.1308594,0.1171875,0.2368164,-0.2246094,-0.1728516
1846,22.3125,-47.5625,264.375,-1.137695,-0.1850586,0.1518555,0.2202148,-0.2431641,-0.175293
1851,27.1875,-41.6875,265.5625,-1.029297,-0.1967773,0.2021484,0.2094727,-0.2583008,-0.1767578
1855,29.125,-30.8125,270.5,-0.9907227,-0.1152344,0.1713867,0.1928711,-0.2768555,-0.1767578
1859,30.1875,-28.4375,269.5,-0.9790039,-0.07226563,0.105957,0.1723633,-0.2919922,-0.1767578
1863,27.5,-24,273.6875,-0.831543,0.004882813,0.1098633,0.1567383,-0.3032227,-0.1782227
1867,21,-24.8125,270.3125,-0.8857422,0.05908203,0.01367188,0.1357422,-0.3154297,-0.1767578
1871,4.75,-45.25,268.125,-0.847168,0.2265625,-0.128418,0.1142578,-0.3291016,-0.1782227
1875,-17.5625,-71.5,256.3125,-0.6611328,0.1367188,-0.05908203,0.09619141,-0.3344727,-0.1782227
1879,-12.9375,-80.5625,226.1875,-0.4829102,0.04736328,0.04443359,0.07128906,-0.3408203,-0.1806641
1883,1.375,-60.5,230.5,-0.296875,-0.04541016,0.1748047,0.04980469,-0.3442383,-0.1835938
1887,14,-20.5625,243.125,-0.1845703,0.05517578,0.1865234,0.03173828,-0.3481445,-0.1835938
1891,17.75,7.625,249.9375,-0.1459961,0.171875,0.1865234,0.01074219,-0.3491211,-0.1806641
1895,25,19.9375,237.6875,-0.1650391,0.2573242,0.1098633,-0.01171875,-0.3505859,-0.1782227
1899,21.8125,20.1875,221.9375,-0.2001953,0.4204102,0.09423828,-0.0234375,-0.3520508,-0.1767578
1903,13.5625,10.3125,211.6875,-0.2348633,0.4282227,0.04443359,-0.04248047,-0.3481445,-0.175293
1907,3.1875,1.625,210.5625,-0.1689453,0.3779297,0.09814453,-0.06298828,-0.3442383,-0.1738281
1911,-1.5625,5,220.75,0.04345703,0.3779297,0.1943359,-0.07470703,-0.3442383,-0.175293
1915,0.25,17.5,218.5,0.1635742,0.3818359,0.2749023,-0.09472656,-0.3378906,-0.1738281
1919,5.875,22.8125,211.6875,0.2412109,0.4243164,0.2441406,-0.1113281,-0.3305664,-0.175293
1923,8.3125,23.0625,200.3125,0.4038086,0.4868164,0.2329102,-0.1235352,-0.3256836,-0.1738281
1927,2.5,22.5,188.1875,0.5161133,0.5175781,0.1748047,-0.1376953,-0.3178711,-0.1713867
1931,-14.9375,17,179,0.609375,0.5332031,0.140625,-0.1533203,-0.3095703,-0.175293
1935,-37.25,6.125,169.0625,0.7758789,0.4790039,0.105957,-0.1625977,-0.3032227,-0.1767578
1939,-54.5625,-4.3125,148.75,1.035645,0.3623047,0.1787109,-0.1748047,-0.2919922,-0.1796875
1943,-56.9375,-9,110.625,1.318359,0.2456055,0.2866211,-0.1855469,-0.2792969,-0.1806641
1947,-41.5,-2,57.75,1.508301,0.121582,0.3671875,-0.1899414,-0.2744141,-0.1835938
1951,-20.75,7,1.125,1.484863,0.1640625,0.4213867,-0.1923828,-0.2705078,-0.1875
1955,-0.4375,10.25,-58.25,1.302734,0.1992188,0.425293,-0.1899414,-0.2719727,-0.1850586
1959,18.375,13.6875,-105.9375,1.117188,0.2456055,0.425293,-0.1855469,-0.2744141,-0.1875
1963,35.25,18.375,-140.4375,0.8183594,0.3041992,0.3979492,-0.1772461,-0.2807617,-0.1875
1967,45.8125,19.25,-155.1875,0.5668945,0.3583984,0.3056641,-0.1650391,-0.2929688,-0.1865234
1971,45.25,16.9375,-158.75,0.4428711,0.4750977,0.2211914,-0.1567383,-0.2993164,-0.1835938
1975,37.6875,9.75,-165.0625,0.3535156,0.5527344,0.1748047,-0.1435547,-0.3095703,-0.1806641
1980,32.6875,1.375,-178.1875,0.3149414,0.6069336,0.144043,-0.128418,-0.3208008,-0.1796875
1984,26.0625,-4.8125,-193.5,0.2685547,0.6499023,0.140625,-0.1186523,-0.3242188,-0.1796875
1988,21.125,-8.5,-205.875,0.190918,0.5878906,0.1674805,-0.1020508,-0.3330078,-0.1782227
1992,22.9375,-5.3125,-212.3125,0.125,0.5449219,0.1865234,-0.08203125,-0.3408203,-0.175293
1996,22.625,2.125,-210.625,0.06689453,0.5605469,0.1748047,-0.07226563,-0.3442383,-0.1738281
2000,20.5625,9,-209.0625,-0.08789063,0.5839844,0.1289063,-0.05224609,-0.3491211,-0.1738281
2004,9.625,4.75,-204.25,-0.2426758,0.6772461,0.04052734,-0.03173828,-0.3554688,-0.1713867
2008,-10.1875,-8.875,-207.125,-0.2890625,0.7470703,0.04443359,-0.01855469,-0.3530273,-0.1738281
2012,-22.25,-25.0625,-213,-0.378418,0.5952148,0.04443359,-0.001953125,-0.3530273,-0.1728516
2016,-30.875,-34,-211.375,-0.2661133,0.6303711,0.1098633,0.01513672,-0.3530273,-0.175293
2020,-41.8125,-26.625,-213.3125,-0.2890625,0.5058594,0.140625,0.02734375,-0.3505859,-0.1782227
2024,-43.875,-15.1875,-203.125,-0.3320313,0.4399414,0.1674805,0.04638672,-0.3457031,-0.1821289
2028,-53.3125,-1.625,-190.4375,-0.347168,0.4672852,0.1518555,0.06152344,-0.3393555,-0.1865234
2032,-59.1875,12.0625,-196.625,-0.3549805,0.4243164,0.2211914,0.07373047,-0.3354492,-0.1875
2036,-53.4375,22.375,-207.375,-0.4404297,0.2885742,0.2250977,0.09130859,-0.3256836,-0.1943359
2040,-46.125,29.3125,-223.75,-0.5449219,0.269043,0.2480469,0.109375,-0.3168945,-0.1972656
2044,-36.6875,28.5625,-220.5,-0.8046875,0.105957,0.1943359,0.1225586,-0.3105469,-0.1987305
2048,-35.4375,29,-203.5,-0.831543,0.1992188,0.1943359,0.1401367,-0.2983398,-0.2026367
2052,-48,42.4375,-183.875,-0.7426758,0.2299805,0.2402344,0.1557617,-0.2866211,-0.2041016
2056,-52.3125,56.3125,-185.6875,-0.8354492,0.121582,0.2675781,0.1650391,-0.2783203,-0.2041016
2060,-37.125,50,-208.375,-1.025391,-0.01806641,0.2905273,0.1796875,-0.265625,-0.2026367
2064,-15.375,36,-217.6875,-1.071777,-0.04541016,0.2709961,0.1948242,-0.2504883,-0.2026367
2068,-15.25,37.375,-210,-1.087402,0.05908203,0.2597656,0.203125,-0.2407227,-0.1987305
2072,-26.1875,46.125,-188,-1.141602,0.07080078,0.2172852,0.2163086,-0.2255859,-0.1987305
2076,-36.9375,52.6875,-164.3125,-1.099121,0.06689453,0.1787109,0.2270508,-0.2104492,-0.1972656
2080,-41.8125,58,-152.5,-1.041016,0.02441406,0.144043,0.234375,-0.203125,-0.1943359
2084,-45.1875,47.125,-167.6875,-1.083496,0.05126953,0.1518555,0.2436523,-0.1894531,-0.1889648
2088,-34,20.9375,-200.75,-1.125977,-0.09960938,0.1635742,0.2509766,-0.1694336,-0.1918945
2092,-28.125,13.625,-202.3125,-1.149414,-0.2202148,0.2558594,0.2583008,-0.1591797,-0.1904297
2096,-28.9375,31.4375,-175.25,-1.083496,-0.2084961,0.2944336,0.2641602,-0.1430664,-0.1889648
2100,-36.25,52.1875,-150,-1.091309,-0.1811523,0.2250977,0.269043,-0.1254883,-0.1875
2104,-46.625,48.9375,-146.0625,-1.165039,-0.1113281,0.07910156,0.2749023,-0.1157227,-0.1865234
2109,-60.4375,21.75,-161.1875,-1.195801,-0.1420898,0.01708984,0.2773438,-0.09814453,-0.1821289
2113,-66.75,-3.0625,-184.125,-1.037109,-0.2822266,0.125,0.2792969,-0.08203125,-0.1806641
2117,-55.5,2.125,-204.6875,-0.9169922,-0.5112305,0.2944336,0.2807617,-0.06933594,-0.1806641
2121,-45.5625,27.25,-211.8125,-0.9750977,-0.3754883,0.355957,0.2817383,-0.046875,-0.1796875
2125,-27.25,41,-200.6875,-1.23877,-0.6977539,0.3330078,0.2832031,-0.02685547,-0.1782227
2129,-23.0625,32,-192.0625,-1.486328,-0.6708984,0.2675781,0.2832031,-0.015625,-0.1713867
2133,-20.125,12.1875,-181.1875,-1.501953,-0.6708984,0.2519531,0.2807617,0.00390625,-0.1713867
2137,-21.4375,0.0625,-174.8125,-1.432129,-0.5737305,0.2094727,0.2783203,0.02246094,-0.168457
2141,-23.5,-7.0625,-167.9375,-1.436035,-0.6162109,0.2172852,0.2749023,0.03271484,-0.1674805
2145,-18.75,-8.625,-152.1875,-1.45166,-0.5776367,0.2480469,0.2709961,0.04882813,-0.168457
2149,-16.8125,-8.4375,-124.5,-1.475098,-0.6123047,0.3212891,0.2651367,0.0625,-0.168457
2153,-12.75,-0.375,-89.8125,-1.413086,-0.581543,0.3867188,0.2626953,0.06982422,-0.1660156
2157,-8.5625,9.1875,-56.6875,-1.374023,-0.5385742,0.3945313,0.2602539,0.07519531,-0.1660156
2161,-5.5625,12.125,-32.75,-1.366211,-0.4804688,0.3710938,0.2602539,0.08251953,-0.1630859
2165,0.75,7.25,-14.75,-1.385742,-0.4648438,0.3945313,0.2602539,0.08251953,-0.1645508
2169,7.375,1.25,6.0625,-1.397461,-0.4492188,0.4018555,0.2602539,0.08251953,-0.1630859
2173,6,-0.1875,29.8125,-1.351074,-0.4067383,0.4287109,0.2592773,0.08105469,-0.1645508
2177,12.3125,-0.125,47,-1.366211,-0.4882813,0.4365234,0.2617188,0.07861328,-0.1660156
2181,21.4375,1.625,65.8125,-1.397461,-0.4609375,0.4750977,0.2641602,0.07275391,-0.1660156
2185,29.375,1.75,82.0625,-1.405273,-0.4882813,0.4482422,0.2651367,0.06494141,-0.1674805
2189,42.375,9,98.0625,-1.385742,-0.5268555,0.4482422,0.2666016,0.06103516,-0.1674805
2193,50.3125,16.3125,118.4375,-1.45166,-0.5073242,0.390625,0.2709961,0.04736328,-0.1674805
2197,53.75,17.5625,139.25,-1.509766,-0.4960938,0.3095703,0.2758789,0.03613281,-0.168457
2201,52,11.3125,158.125,-1.505859,-0.4648438,0.2709961,0.2783203,0.02636719,-0.1674805
2205,48.5625,3.0625,166.875,-1.455566,-0.4296875,0.2402344,0.2807617,0.007324219,-0.1699219
2209,45.9375,-3.6875,170.5,-1.339355,-0.4296875,0.2211914,0.2832031,-0.009277344,-0.1713867
2213,44.1875,-1.3125,172.625,-1.23877,-0.4570313,0.2636719,0.2841797,-0.02197266,-0.1728516
2217,47.8125,0.375,169.4375,-1.25,-0.4921875,0.2558594,0.2856445,-0.04052734,-0.1713867
2221,58.125,3.75,167.6875,-1.242188,-0.5385742,0.2944336,0.2856445,-0.05810547,-0.1728516
2225,65.0625,13.9375,182.4375,-1.304199,-0.4804688,0.2519531,0.2856445,-0.06835938,-0.1728516
2229,58,19,201,-1.339355,-0.355957,0.1904297,0.2841797,-0.08935547,-0.1728516
2233,48.1875,16.0625,210.4375,-1.381836,-0.2744141,0.1171875,0.2817383,-0.1108398,-0.1699219
2238,39.0625,0.6875,215.125,-1.385742,-0.2587891,0.04052734,0.2807617,-0.1269531,-0.168457
2242,28.375,-13.75,214.5625,-1.304199,-0.1889648,0.04785156,0.2758789,-0.1445313,-0.168457
2246,19.125,-26.1875,215.375,-1.253906,-0.2006836,0.05957031,0.2700195,-0.1645508,-0.1699219
2250,13.6875,-32.9375,214.875,-1.172852,-0.2124023,0.1171875,0.2602539,-0.1791992,-0.1699219
2254,16.5,-24.25,221.3125,-1.037109,-0.2548828,0.2250977,0.2509766,-0.1967773,-0.1728516
2258,18.875,-5.375,234,-1.029297,-0.1772461,0.1982422,0.2412109,-0.2143555,-0.1738281
2262,13.4375,-4.875,236,-1.095215,-0.06054688,0.1289063,0.234375,-0.2270508,-0.175293
2266,9.125,-24.625,223.25,-1.118652,0.03222656,0.05566406,0.222168,-0.2441406,-0.1728516
2270,0,-52.25,209.5,-1.083496,0.07080078,0.01367188,0.2055664,-0.2583008,-0.1767578
2274,-6.1875,-66.625,200.1875,-0.9287109,0.04394531,0.08251953,0.1962891,-0.2680664,-0.1796875
2278,0.625,-64.4375,200,-0.7890625,-0.07617188,0.159668,0.1806641,-0.2792969,-0.1821289
2282,9.4375,-46,207.125,-0.6455078,0.06689453,0.1943359,0.1650391,-0.2929688,-0.1865234
2286,8.4375,-35.5625,197.5625,-0.6728516,0.171875,0.1098633,0.1523438,-0.3007813,-0.1865234
2290,9.1875,-53.1875,181.5625,-0.7387695,0.1953125,0.05566406,0.1376953,-0.3081055,-0.1889648
2294,15.4375,-52.25,169.125,-0.4907227,0.1992188,0.1943359,0.1201172,-0.3154297,-0.1875
2298,21.3125,-21.1875,175.8125,-0.4946289,0.203125,0.2983398,0.1103516,-0.3232422,-0.1889648
2302,21.875,2.9375,200.375,-0.6689453,0.2226563,0.2636719,0.09521484,-0.3291016,-0.1875
2306,17.6875,1,211.375,-0.7192383,0.3857422,0.2021484,0.07714844,-0.3354492,-0.1850586
2310,10.75,-19.25,203.5625,-0.7270508,0.4907227,0.1557617,0.06542969,-0.3393555,-0.1850586
2314,6.125,-39.625,207,-0.5024414,0.3779297,0.1748047,0.04492188,-0.3442383,-0.1850586
2318,3.5,-33,214.25,-0.2192383,0.3779297,0.2636719,0.02490234,-0.3481445,-0.1850586
2322,10.25,-7.5625,211.5,0.008789063,0.3466797,0.3671875,0.01171875,-0.3481445,-0.1850586
2326,21.875,14.75,213.3125,-0.06445313,0.3701172,0.2441406,-0.006835938,-0.3481445,-0.1835938
2330,14.625,12.3125,223.125,-0.08007813,0.5449219,0.04052734,-0.02587891,-0.3481445,-0.1796875
2334,-8.5,-9.0625,213.375,0.06298828,0.6962891,-0.06298828,-0.0390625,-0.3466797,-0.1796875
2338,-30,-38.875,183.5625,0.1484375,0.6772461,-0.1362305,-0.05810547,-0.3442383,-0.1806641
2342,-42.5,-64.6875,153.5,0.2797852,0.5449219,0.06347656,-0.07714844,-0.3393555,-0.1821289
2346,-37.0625,-52.8125,146,0.5356445,0.3701172,0.3212891,-0.08642578,-0.3354492,-0.1850586
2350,-22.875,-4.0625,158.4375,0.7138672,0.269043,0.5483398,-0.1030273,-0.3266602,-0.1850586
2354,-3.0625,43.125,169.375,0.7412109,0.4013672,0.4711914,-0.1137695,-0.3208008,-0.1865234
2358,-1.5625,62.125,159.3125,0.6674805,0.6186523,0.3330078,-0.1220703,-0.3178711,-0.1889648
2362,-2.6875,41.625,122.9375,0.5898438,0.6962891,0.1518555,-0.1318359,-0.3120117,-0.1889648
2367,-16.5625,0.6875,74.875,0.6401367,0.809082,0.03662109,-0.1401367,-0.3056641,-0.1918945
2371,-45.6875,-41.0625,32.1875,0.7568359,0.7739258,-0.01318359,-0.1435547,-0.3041992,-0.1918945
2375,-64,-66.5625,-3.875,1.016113,0.5722656,0.125,-0.1474609,-0.2993164,-0.1928711
2379,-55.75,-55.5,-40.875,1.233398,0.3544922,0.3598633,-0.1508789,-0.296875,-0.1943359
2383,-25.125,-20.0625,-73.6875,1.260254,0.2573242,0.5097656,-0.1494141,-0.296875,-0.1972656
2387,5.25,18.9375,-103.5625,1.05127,0.3388672,0.4980469,-0.1450195,-0.3007813,-0.1987305
2391,27.0625,39,-124.875,0.7177734,0.3544922,0.375,-0.1342773,-0.3041992,-0.1987305
2395,34.125,41.125,-133.8125,0.4467773,0.5214844,0.2094727,-0.1220703,-0.3095703,-0.1987305
2399,17.9375,22.75,-141.0625,0.2568359,0.6811523,0.05175781,-0.109375,-0.3178711,-0.1943359
2403,-7.75,-9.875,-154.5,0.1987305,0.7509766,0.009765625,-0.09716797,-0.3217773,-0.1972656
2407,-28.375,-34,-172.625,0.2758789,0.6694336,0.08642578,-0.09033203,-0.3242188,-0.1987305
2411,-32.5625,-30.9375,-187.6875,0.4389648,0.5019531,0.2788086,-0.07568359,-0.328125,-0.199707
2415,-17.75,3.3125,-195.5625,0.4736328,0.3120117,0.4287109,-0.06152344,-0.3305664,-0.2011719
2419,4.4375,43.8125,-194.3125,0.3071289,0.284668,0.390625,-0.04833984,-0.3320313,-0.2041016
2423,12.8125,64.6875,-192.1875,-0.01416016,0.3974609,0.2402344,-0.03173828,-0.3354492,-0.2026367
2427,4.375,51.3125,-194.8125,-0.3935547,0.5488281,0.03271484,-0.009277344,-0.3354492,-0.2011719
2431,-20.5625,5.375,-204,-0.5566406,0.6923828,-0.04736328,0.002441406,-0.3393555,-0.2026367
2435,-42.9375,-29.25,-224.5,-0.4404297,0.5952148,0.1557617,0.02001953,-0.3344727,-0.2055664
2439,-40,-19.9375,-223.5,-0.2773438,0.2924805,0.390625,0.03808594,-0.3305664,-0.2094727
2443,-28.25,23.75,-202.875,-0.230957,0.2299805,0.4711914,0.04882813,-0.3242188,-0.2080078
2447,-16.9375,60.875,-190.8125,-0.4169922,0.2299805,0.3710938,0.06787109,-0.3208008,-0.2133789
2451,-11.875,45.8125,-197.625,-0.8125,0.3974609,0.1020508,0.08544922,-0.3144531,-0.2133789
2455,-31.625,-6.25,-217.5625,-0.9365234,0.5683594,-0.005371094,0.09765625,-0.3095703,-0.2119141
2459,-60.9375,-53.4375,-235.5625,-0.878418,0.4868164,0.05957031,0.1142578,-0.2983398,-0.2163086
2463,-77.9375,-55.0625,-224.4375,-0.5024414,0.15625,0.4135742,0.1259766,-0.2841797,-0.2231445
2467,-60.875,24.75,-191.8125,-0.3242188,-0.1928711,0.7480469,0.1342773,-0.2753906,-0.2285156
2471,-28.5,122,-145.8125,-0.4711914,-0.1655273,0.6943359,0.1508789,-0.265625,-0.2285156
2475,-1.4375,152.375,-144.5,-0.9711914,-0.02978516,0.340332,0.1665039,-0.2583008,-0.2231445
2479,2.6875,95.125,-186.375,-1.351074,0.315918,-0.02050781,0.1796875,-0.2504883,-0.2177734
2483,-28,11.5625,-216.0625,-1.447754,0.4013672,-0.109375,0.1938477,-0.2392578,-0.2133789
2487,-65.5625,-47.125,-213.4375,-1.195801,0.2416992,0.04785156,0.2055664,-0.2216797,-0.2163086
2491,-80.625,-24.6875,-187.25,-0.6650391,-0.1577148,0.4907227,0.2104492,-0.2104492,-0.2216797
2496,-53.625,69.75,-149.25,-0.4443359,-0.4375,0.7099609,0.2177734,-0.1904297,-0.2231445
2500,-21.3125,153,-124.8125,-0.8085938,-0.3598633,0.5249023,0.2270508,-0.1806641,-0.2202148
2504,4.75,136.1875,-151.75,-1.393555,-0.2045898,0.159668,0.2368164,-0.1757813,-0.2094727
2508,2.0625,66.3125,-189,-1.537109,0.105957,0.001953125,0.25,-0.1621094,-0.199707
2512,-38,-0.9375,-197.1875,-1.529297,0.105957,-0.04003906,0.2583008,-0.1445313,-0.1987305
2516,-68.375,-53.6875,-180.4375,-1.289063,-0.09960938,0.001953125,0.2592773,-0.1318359,-0.199707
2520,-88.625,-54.1875,-168.625,-0.6416016,-0.2124023,0.2402344,0.2602539,-0.1132813,-0.206543
2524,-77.1875,6.0625,-173.25,-0.4013672,-0.5151367,0.4599609,0.2617188,-0.09423828,-0.2109375
2528,-43,51.1875,-192.9375,-0.878418,-0.6123047,0.3867188,0.2617188,-0.08203125,-0.2094727
2532,-36.8125,48,-201.3125,-1.343262,-0.5073242,0.2519531,0.2666016,-0.06445313,-0.2011719
2536,-42.0625,14.75,-197.625,-1.529297,-0.5737305,0.2558594,0.2675781,-0.04296875,-0.199707
2540,-44.5625,-15,-183,-1.424316,-0.6083984,0.3173828,0.2666016,-0.03076172,-0.199707
2544,-48.9375,-28.375,-172,-1.165039,-0.5698242,0.3330078,0.2651367,-0.01318359,-0.2026367
2548,-48.6875,-23.1875,-169.0625,-0.9711914,-0.5927734,0.3212891,0.2617188,0.006347656,-0.2011719
2552,-43.625,-10.875,-170.625,-0.9052734,-0.6240234,0.3134766,0.2592773,0.01611328,-0.2041016
2556,-43.125,-0.1875,-170.5625,-0.9248047,-0.6396484,0.3481445,0.2558594,0.03369141,-0.199707
2560,-42.75,2.9375,-165.3125,-1.005859,-0.6748047,0.3520508,0.2509766,0.04736328,-0.1987305
2564,-44.125,-3.1875,-159.875,-1.037109,-0.7055664,0.3867188,0.2475586,0.06103516,-0.1987305
2568,-45.3125,-7.3125,-154,-1.025391,-0.6669922,0.3945313,0.2426758,0.07617188,-0.1972656
2572,-47.0625,-8.125,-148.3125,-1.048828,-0.7329102,0.4213867,0.2368164,0.08984375,-0.1972656
2576,-37.8125,-7.3125,-133.6875,-1.083496,-0.8535156,0.4907227,0.2329102,0.09619141,-0.1918945
2580,-27.4375,1.875,-109.5,-1.091309,-0.8144531,0.5405273,0.2260742,0.1113281,-0.1928711
2584,-18.9375,12.4375,-86.375,-1.114746,-0.7792969,0.5444336,0.222168,0.1176758,-0.1904297
2588,-11.0625,16.0625,-68.6875,-1.157227,-0.7172852,0.4941406,0.2202148,0.1225586,-0.1875
2592,-4.1875,14.625,-57.125,-1.176758,-0.6748047,0.4521484,0.21875,0.1289063,-0.1875
2596,1.125,11.75,-43.1875,-1.191895,-0.6513672,0.4365234,0.215332,0.1313477,-0.1850586
2600,8.6875,12.5,-23,-1.184082,-0.6669922,0.4287109,0.215332,0.1347656,-0.1875
2604,10.4375,15.875,1.6875,-1.227051,-0.5737305,0.390625,0.215332,0.1347656,-0.1850586
2608,12.25,12,17.375,-1.265625,-0.6240234,0.355957,0.2177734,0.1323242,-0.1850586
2612,17.5,7.1875,32.3125,-1.242188,-0.6044922,0.3330078,0.2177734,0.1337891,-0.1850586
2616,18.1875,5,49.5,-1.227051,-0.6162109,0.3291016,0.2202148,0.1274414,-0.1850586
2620,23.0625,7.625,67.6875,-1.215332,-0.6318359,0.340332,0.222168,0.1235352,-0.1865234
2625,24.9375,10.5,89.25,-1.257813,-0.6552734,0.3330078,0.2260742,0.1186523,-0.1850586
2629,25.375,9,108.375,-1.304199,-0.6669922,0.3671875,0.2319336,0.1113281,-0.1889648
2633,32.3125,4.875,120,-1.339355,-0.7446289,0.4213867,0.237793,0.1010742,-0.1889648
2637,41.25,9.9375,136.4375,-1.347168,-0.8066406,0.4941406,0.2392578,0.09228516,-0.1889648
2641,50.75,22.875,162.1875,-1.447754,-0.8647461,0.4941406,0.2451172,0.08007813,-0.1904297
2645,54.6875,28.5625,195.75,-1.517578,-0.8378906,0.425293,0.2519531,0.0625,-0.1904297
2649,48.5,21.25,218.0625,-1.57959,-0.7446289,0.340332,0.2568359,0.04736328,-0.1904297
2653,43.6875,-3.3125,225.0625,-1.606445,-0.7719727,0.3095703,0.2641602,0.02636719,-0.1928711
2657,43.1875,-20.3125,230.25,-1.439941,-0.7792969,0.3598633,0.2666016,0.004882813,-0.1943359
2661,46.4375,-7.75,244.875,-1.234863,-0.8496094,0.4633789,0.2675781,-0.01074219,-0.1972656
2665,55,20.5,260.0625,-1.141602,-0.7792969,0.4672852,0.2700195,-0.03320313,-0.1958008
2669,59.375,25.1875,261.75,-1.308105,-0.6279297,0.3364258,0.2709961,-0.05810547,-0.1972656
2673,52.75,2.9375,258.5625,-1.389648,-0.4648438,0.2211914,0.2709961,-0.078125,-0.1958008
2677,40.75,-23.0625,257.8125,-1.312012,-0.4375,0.2094727,0.269043,-0.1020508,-0.1958008
2681,34.9375,-42.1875,250.5625,-1.187988,-0.4296875,0.2558594,0.2626953,-0.1254883,-0.199707
2685,41.5625,-47.125,248.9375,-1.11084,-0.5385742,0.2827148,0.2558594,-0.140625,-0.2011719
2689,46.3125,-30.5,263.1875,-0.9130859,-0.4726563,0.355957,0.2485352,-0.1655273,-0.2055664
2693,48.3125,-9.0625,271.6875,-0.9287109,-0.340332,0.2441406,0.2368164,-0.1894531,-0.2026367
2697,40.3125,-14.5625,265.4375,-1.001953,-0.2084961,0.144043,0.2319336,-0.2045898,-0.2026367
2701,34.5625,-30.4375,250.625,-1.037109,-0.1655273,0.105957,0.2177734,-0.2246094,-0.2026367
2705,23.3125,-56.5625,243.8125,-1.037109,-0.05664063,0.02490234,0.203125,-0.2416992,-0.2041016
2709,14.8125,-71.5625,239.3125,-0.9013672,-0.1577148,0.125,0.1904297,-0.2519531,-0.206543
2713,23.6875,-61.25,238.875,-0.730957,-0.2163086,0.2905273,0.1713867,-0.2670898,-0.2080078
2717,33.3125,-35.5625,248.75,-0.6962891,-0.1459961,0.2709961,0.1533203,-0.2817383,-0.2080078
2721,36.1875,-20.625,250.3125,-0.6611328,0.01660156,0.2441406,0.1416016,-0.2905273,-0.2094727
2725,39.1875,-20.75,243.25,-0.7270508,0.07080078,0.159668,0.1210938,-0.3041992,-0.206543
2729,37.4375,-18.1875,241.9375,-0.5952148,0.1484375,0.2290039,0.1010742,-0.3129883,-0.2055664
2733,38.9375,-0.75,244.375,-0.5141602,0.1445313,0.3173828,0.08886719,-0.3217773,-0.2026367
2737,55,19,240.8125,-0.4633789,0.15625,0.3251953,0.06884766,-0.3305664,-0.2011719
2741,62.875,37.625,248.3125,-0.4672852,0.3193359,0.2905273,0.04980469,-0.3378906,-0.1904297
2745,55.75,46.4375,261.375,-0.5952148,0.4477539,0.1635742,0.03564453,-0.3432617,-0.1889648
2749,36.0625,27.25,267.9375,-0.699707,0.5722656,0.01708984,0.01416016,-0.3466797,-0.1850586
2754,11.625,-6.5,263.3125,-0.715332,0.6186523,-0.02441406,-0.009277344,-0.3520508,-0.1806641
2758,-6.625,-30,269.75,-0.4868164,0.5371094,0.02880859,-0.0234375,-0.3491211,-0.1796875
2762,-22.8125,-31.9375,283.9375,-0.328125,0.4360352,0.05957031,-0.05078125,-0.3466797,-0.1806641
2766,-42.6875,-45.5,301.5,-0.1069336,0.4086914,-0.05126953,-0.07958984,-0.3369141,-0.1821289
2770,-68.8125,-64.8125,298.8125,0.2836914,0.3583984,-0.1435547,-0.09716797,-0.3320313,-0.1835938
2774,-86.875,-76.1875,278.875,0.7680664,0.1992188,-0.1245117,-0.1259766,-0.3168945,-0.1875
2778,-94.375,-75.1875,243.3125,1.089844,0.105957,-0.109375,-0.1508789,-0.2993164,-0.1904297
2782,-95.3125,-71.75,195.6875,1.372559,0.05517578,-0.09765625,-0.1674805,-0.2880859,-0.1928711
2786,-94.25,-64.25,138.5625,1.535645,0.05126953,-0.06689453,-0.1831055,-0.2719727,-0.1928711
2790,-84,-51.4375,79.625,1.608887,-0.1152344,0.07128906,-0.1938477,-0.2592773,-0.1987305
2794,-64.5,-20,37.4375,1.666992,-0.1308594,0.2290039,-0.2006836,-0.2543945,-0.1987305
2798,-44.5,10.125,-8.5,1.59375,-0.06445313,0.2749023,-0.2021484,-0.2470703,-0.2011719
2802,-23.625,29.5,-61.375,1.403809,0.02441406,0.2905273,-0.1982422,-0.2480469,-0.2055664
2806,-12.875,41.3125,-108.8125,1.151855,0.1640625,0.2983398,-0.1923828,-0.2519531,-0.206543
2810,-2.3125,42.4375,-143.0625,0.9077148,0.1445313,0.2905273,-0.1855469,-0.2583008,-0.2094727
2814,5.4375,45.4375,-166.1875,0.7641602,0.237793,0.2944336,-0.1699219,-0.2670898,-0.2133789
2818,5.5,48.875,-184.8125,0.6210938,0.3349609,0.2519531,-0.1616211,-0.2729492,-0.2148438
2822,5.4375,48.1875,-202.9375,0.5009766,0.3662109,0.2558594,-0.1459961,-0.2832031,-0.2163086
2826,3.8125,48.875,-219.75,0.3808594,0.4243164,0.2788086,-0.1269531,-0.2919922,-0.2177734
2830,2.0625,48.1875,-226.3125,0.206543,0.3081055,0.2172852,-0.1113281,-0.2983398,-0.21875
2834,-9.0625,42.75,-229.5625,0.140625,0.4052734,0.1748047,-0.09375,-0.3041992,-0.2216797
2838,-24,34.3125,-227.75,0.1015625,0.4750977,0.1171875,-0.07226563,-0.3105469,-0.2255859
2842,-43.5625,32.125,-229.5625,0.1445313,0.4399414,0.1674805,-0.05810547,-0.3095703,-0.2255859
2846,-57.9375,41.3125,-224.125,0.06689453,0.3388672,0.1943359,-0.03759766,-0.3129883,-0.2299805
2850,-67.75,48.5,-217.125,-0.05273438,0.2807617,0.2480469,-0.01611328,-0.3095703,-0.2353516
2854,-66.9375,50.8125,-222.625,-0.2231445,0.2612305,0.2788086,-0.001953125,-0.3066406,-0.2392578
2858,-72.0625,44.875,-224.75,-0.4555664,0.3701172,0.2749023,0.01757813,-0.3017578,-0.2460938
2862,-80.875,20.875,-234.375,-0.715332,0.2768555,0.3017578,0.03662109,-0.2944336,-0.2490234
2866,-76.1875,-5.625,-242.125,-0.5952148,0.2651367,0.4287109,0.04980469,-0.2866211,-0.2558594
2870,-68.9375,13.5625,-249.9375,-0.4750977,0.06298828,0.6328125,0.06396484,-0.2768555,-0.2597656
2874,-46.1875,53.25,-232.9375,-0.5834961,-0.03369141,0.6791992,0.08447266,-0.2670898,-0.2636719
2878,-35.875,83.625,-215.1875,-0.8935547,0.008789063,0.590332,0.09765625,-0.2592773,-0.2651367
2883,-33.3125,88.9375,-192.75,-1.087402,0.05126953,0.4599609,0.1166992,-0.2504883,-0.2636719
2887,-34.375,73.625,-184.875,-1.044922,0.1601563,0.3291016,0.1308594,-0.2382813,-0.2612305
2891,-42.3125,51.75,-196.75,-0.9399414,0.1640625,0.2519531,0.1425781,-0.2319336,-0.2597656
2895,-50.9375,46.625,-216.125,-0.8896484,0.08251953,0.3789063,0.1557617,-0.2167969,-0.2626953
2899,-45.75,49.5,-219.0625,-1.048828,-0.2163086,0.4443359,0.1699219,-0.203125,-0.2597656
2903,-36.4375,61.5625,-192.8125,-1.044922,-0.2314453,0.4672852,0.1772461,-0.1933594,-0.2583008
2907,-43.9375,78.5625,-168.625,-1.005859,-0.08789063,0.3481445,0.1889648,-0.1791992,-0.2543945
2911,-53.125,76.375,-160.4375,-1.017578,-0.09570313,0.1943359,0.199707,-0.1655273,-0.2543945
2915,-63.8125,52.75,-175.4375,-0.9516602,-0.08398438,0.1020508,0.2055664,-0.1557617,-0.25
2919,-72.5,22.9375,-216.25,-0.9208984,-0.1967773,0.140625,0.215332,-0.1396484,-0.25
2923,-79.8125,7.4375,-234.375,-0.8818359,-0.3481445,0.1787109,0.2202148,-0.1157227,-0.2543945
2927,-86.6875,15.3125,-230.5,-0.8276367,-0.534668,0.2480469,0.2246094,-0.1020508,-0.2514648
2931,-93.5625,36.75,-213,-0.8393555,-0.7910156,0.1865234,0.2285156,-0.078125,-0.2514648
2935,-98.0625,51.9375,-209.75,-0.9013672,-0.6240234,0.1289063,0.230957,-0.05712891,-0.2475586
2939,-108.75,52.5,-212.375,-0.9790039,-0.6708984,0.02880859,0.2353516,-0.04052734,-0.2436523
2943,-123.5,44.8125,-217.9375,-1.001953,-0.7211914,0.01367188,0.2353516,-0.015625,-0.2407227
2947,-136.0625,28.375,-234.5625,-1.056641,-0.8535156,0.02880859,0.2353516,0.007324219,-0.2353516
2951,-132.9375,12.1875,-253.0625,-1.021484,-1.040039,0.1367188,0.2319336,0.02636719,-0.230957
2955,-127.25,12.4375,-257.875,-1.041016,-1.160156,0.2827148,0.2285156,0.05371094,-0.2285156
2959,-121.6875,25.1875,-239.9375,-1.129883,-1.222656,0.390625,0.2202148,0.08251953,-0.2202148
2963,-113.0625,39.25,-220,-1.223145,-1.199219,0.4941406,0.215332,0.09765625,-0.2148438
2967,-99.9375,47.9375,-210,-1.23877,-1.062988,0.5869141,0.2055664,0.1186523,-0.206543
2971,-90.75,52.9375,-209.75,-1.242188,-0.8881836,0.6518555,0.2011719,0.1386719,-0.1987305
2975,-85.125,54,-201.6875,-1.335449,-0.9736328,0.7290039,0.1948242,0.1523438,-0.1904297
2979,-61.6875,50.375,-155.125,-1.552246,-1.342773,0.9057617,0.1865234,0.1689453,-0.1796875
2983,-36.3125,46.3125,-86.625,-1.525391,-1.055176,0.9750977,0.1821289,0.1801758,-0.1738281
2987,-34.6875,37.5,-43.5,-1.385742,-0.8183594,0.890625,0.1806641,0.1850586,-0.168457
2991,-29.4375,23.25,-29.5625,-1.195801,-0.7485352,0.8022461,0.1782227,0.1875,-0.1674805
2995,-19.8125,11.75,-33.625,-1.029297,-0.7250977,0.6674805,0.1806641,0.1899414,-0.1645508
2999,-9.125,12.4375,-36.4375,-0.9169922,-0.7753906,0.5097656,0.1782227,0.1938477,-0.1616211
3003,13.125,24.0625,-22.8125,-0.9946289,-1.066895,0.4599609,0.1757813,0.1948242,-0.1616211
3007,53.75,41.9375,13,-1.021484,-1.036133,0.4018555,0.1748047,0.1923828,-0.1616211
3012,68.9375,64.5625,41.0625,-1.033203,-0.7719727,0.2983398,0.1782227,0.1914063,-0.1660156
3016,78.5625,77.4375,61.3125,-1.227051,-0.8300781,0.2329102,0.1855469,0.1850586,-0.1674805
3020,95.1875,69.8125,92.3125,-1.428223,-0.8066406,0.1674805,0.1914063,0.1762695,-0.1660156
3024,90.5625,55.625,121.5625,-1.475098,-0.6899414,0.1748047,0.1972656,0.1689453,-0.168457
3028,86.625,44.625,150.5,-1.501953,-0.7792969,0.2060547,0.2080078,0.1547852,-0.1713867
3032,83.9375,35.25,182.5,-1.467285,-0.8725586,0.2480469,0.2202148,0.1401367,-0.1738281
3036,84.0625,29.8125,208.3125,-1.405273,-0.9428711,0.340332,0.2260742,0.1264648,-0.175293
3040,85.0625,21.625,221.125,-1.420898,-0.9853516,0.390625,0.2392578,0.1064453,-0.1782227
3044,92,3,218.75,-1.428223,-0.9506836,0.390625,0.2475586,0.08398438,-0.1821289
3048,90.4375,-7.25,224.5,-1.401367,-0.9272461,0.4287109,0.253418,0.06982422,-0.1835938
3052,87.125,-1.375,250.0625,-1.331543,-0.9467773,0.4790039,0.2592773,0.04638672,-0.1889648
3056,88.375,13.0625,274.3125,-1.28125,-0.9077148,0.4711914,0.2641602,0.01855469,-0.1918945
3060,84.4375,20.5625,290.5625,-1.285156,-0.7368164,0.3598633,0.2700195,-0.0004882813,-0.1904297
3064,70.5625,5.25,282.625,-1.374023,-0.5893555,0.2250977,0.2724609,-0.03076172,-0.1928711
3068,61.1875,-30.1875,268.9375,-1.397461,-0.5776367,0.1713867,0.2724609,-0.05957031,-0.1972656
3072,50,-54.3125,270.9375,-1.289063,-0.5620117,0.1635742,0.2700195,-0.078125,-0.1987305
3076,41.6875,-55.125,277.9375,-1.052734,-0.5385742,0.2290039,0.2651367,-0.1044922,-0.2011719
3080,50,-47.1875,267,-1.017578,-0.6513672,0.2558594,0.2568359,-0.1279297,-0.2055664
3084,63.8125,-37.0625,263.6875,-0.9438477,-0.503418,0.2519531,0.2519531,-0.1445313,-0.206543
3088,64.625,-19.4375,255.0625,-1.001953,-0.371582,0.2172852,0.2412109,-0.1694336,-0.2080078
3092,57.8125,-20.625,258.625,-1.161133,-0.2587891,0.05957031,0.2319336,-0.1918945,-0.2055664
3096,43.375,-40.25,258.1875,-1.230957,-0.2314453,0.01367188,0.2236328,-0.2055664,-0.2080078
3100,32.125,-62.125,253.8125,-1.141602,-0.1772461,0.02099609,0.2080078,-0.2255859,-0.2080078
3104,20.5,-76.125,248.0625,-1.005859,-0.1191406,0.02880859,0.1914063,-0.2441406,-0.2109375
3108,7.6875,-83.6875,241.4375,-0.9516602,-0.1074219,0.04785156,0.1796875,-0.2529297,-0.2148438
3112,0.1875,-96.625,240.0625,-0.8896484,-0.09570313,0.04052734,0.1582031,-0.2670898,-0.21875
3116,-4.9375,-108.625,238,-0.7890625,-0.1152344,0.09033203,0.1367188,-0.2807617,-0.2231445
3120,-4.25,-104.8125,241.5625,-0.6767578,-0.1152344,0.1748047,0.1225586,-0.2856445,-0.2270508
3124,-2.5,-94.1875,247.0625,-0.4868164,-0.04150391,0.2709961,0.09960938,-0.2929688,-0.2285156
3128,5.875,-77.75,238.125,-0.4091797,0.01269531,0.2866211,0.07617188,-0.3017578,-0.2338867
3132,14.75,-64.25,221.9375,-0.3432617,0.15625,0.4018555,0.05957031,-0.3041992,-0.2338867
3136,29.75,-58.9375,212.75,-0.4790039,0.08642578,0.3251953,0.0390625,-0.3105469,-0.2338867
3141,34.625,-59.4375,215.625,-0.3242188,0.2338867,0.2866211,0.02001953,-0.3144531,-0.2285156
3145,36.1875,-51.6875,210.625,-0.2348633,0.2807617,0.3173828,0.003417969,-0.3168945,-0.2270508
3149,39.0625,-43.375,215.5,-0.1186523,0.284668,0.3056641,-0.01513672,-0.3193359,-0.2255859
3153,39.625,-30.1875,222.0625,0.01269531,0.3271484,0.2709961,-0.03662109,-0.3208008,-0.2202148
3157,38.875,-20.125,221.75,0.1171875,0.3427734,0.2675781,-0.04980469,-0.3208008,-0.2163086
3161,45.1875,-5,205.3125,0.1870117,0.4399414,0.3291016,-0.06884766,-0.3178711,-0.2148438
3165,51.0625,0,198.375,0.125,0.4946289,0.2480469,-0.08398438,-0.3154297,-0.2109375
3169,44.6875,-3.3125,194.0625,0.1210938,0.5644531,0.1674805,-0.09472656,-0.3144531,-0.2080078
3173,34.25,-4.75,192.375,0.2138672,0.6147461,0.1826172,-0.1113281,-0.3105469,-0.2026367
3177,20.125,-10.8125,191.75,0.3188477,0.6420898,0.1826172,-0.1293945,-0.3041992,-0.2011719
3181,1.625,-18.75,179.5,0.4077148,0.6225586,0.140625,-0.1376953,-0.3007813,-0.199707
3185,-14.8125,-32.0625,162.4375,0.609375,0.6030273,0.1171875,-0.1533203,-0.2905273,-0.199707
3189,-26.1875,-38.875,133.875,0.8110352,0.5605469,0.144043,-0.1665039,-0.2817383,-0.1972656
3193,-31.375,-42.75,98.4375,0.9350586,0.5214844,0.1171875,-0.1733398,-0.2783203,-0.1972656
3197,-37.4375,-44.9375,63.5,1.023926,0.4829102,0.1328125,-0.1816406,-0.2705078,-0.1972656
3201,-44.4375,-46,29.5625,1.031738,0.4321289,0.125,-0.1889648,-0.2641602,-0.1972656
3205,-41.5625,-49.5,3.6875,1.012207,0.2456055,0.125,-0.1923828,-0.2617188,-0.1972656
3209,-32.9375,-42.5,-16.875,1.16748,0.2612305,0.1865234,-0.1938477,-0.2617188,-0.1958008
3213,-27.75,-19,-38.75,1.217773,0.3388672,0.2441406,-0.1938477,-0.2592773,-0.1972656
3217,-16.6875,-0.4375,-73.1875,1.070313,0.3779297,0.2788086,-0.1914063,-0.2617188,-0.1972656
3221,-2.4375,9.875,-114,0.8769531,0.5136719,0.3134766,-0.1875,-0.2641602,-0.199707
3225,8,12.3125,-145.9375,0.6289063,0.4790039,0.2749023,-0.1772461,-0.2729492,-0.2011719
3229,15.4375,12.0625,-154.3125,0.4853516,0.4750977,0.2636719,-0.1699219,-0.2807617,-0.199707
3233,16.8125,18.375,-148.8125,0.4077148,0.5410156,0.2636719,-0.1591797,-0.2866211,-0.199707
3237,11.8125,24.0625,-140.875,0.3457031,0.6108398,0.2094727,-0.1450195,-0.2954102,-0.199707
3241,6.1875,28.8125,-148.5625,0.3339844,0.7001953,0.2329102,-0.1367188,-0.3007813,-0.2011719
3245,-0.5,26,-152.625,0.2836914,0.7236328,0.2094727,-0.1220703,-0.3066406,-0.2026367
3249,-4.8125,27.625,-163.75,0.2490234,0.6884766,0.2060547,-0.1103516,-0.3120117,-0.2041016
3253,-5,27.9375,-165.4375,0.1484375,0.5800781,0.1982422,-0.09960938,-0.3168945,-0.2026367
3257,-6.875,28.6875,-162.375,0.1484375,0.6381836,0.1826172,-0.08398438,-0.3217773,-0.2041016
3261,-19.875,30.0625,-162.125,0.125,0.6772461,0.1479492,-0.06884766,-0.3242188,-0.206543
3265,-28.875,26.875,-172.6875,0.08251953,0.6538086,0.2021484,-0.06054688,-0.3256836,-0.2094727
3270,-33.8125,20.5625,-192.125,0.02832031,0.6342773,0.2094727,-0.04248047,-0.3266602,-0.2133789
3274,-39.625,17.9375,-212.4375,-0.04882813,0.5878906,0.2675781,-0.0234375,-0.3266602,-0.2163086
3278,-40.75,17.4375,-219.4375,-0.1728516,0.4125977,0.2675781,-0.01171875,-0.3266602,-0.2177734
3282,-38.125,19,-209.4375,-0.2929688,0.3232422,0.2709961,0.006835938,-0.3232422,-0.2231445
3286,-39.125,25.75,-191.5,-0.3203125,0.3623047,0.2905273,0.02490234,-0.3178711,-0.2246094
3290,-49.0625,33.875,-177.125,-0.3164063,0.4516602,0.2558594,0.03662109,-0.3144531,-0.2270508
3294,-61.6875,43.5625,-178.9375,-0.3085938,0.4321289,0.3056641,0.05224609,-0.3081055,-0.2299805
3298,-57.875,44.75,-193,-0.4287109,0.2416992,0.3134766,0.06884766,-0.3007813,-0.2338867
3302,-47.625,47.1875,-204.1875,-0.5683594,0.2109375,0.4135742,0.08203125,-0.2944336,-0.2353516
3306,-41.6875,51.375,-197.8125,-0.7773438,0.1176758,0.3710938,0.09863281,-0.2866211,-0.237793
3310,-45.8125,50.3125,-170.8125,-0.8432617,0.2299805,0.3095703,0.1142578,-0.2768555,-0.237793
3314,-65.6875,47.375,-156.5625,-0.831543,0.3271484,0.2250977,0.1225586,-0.2705078,-0.2392578
3318,-86.6875,31.625,-150.25,-0.746582,0.2885742,0.1289063,0.1376953,-0.2568359,-0.2436523
3322,-100.1875,18.75,-179.125,-0.5644531,0.2226563,0.3017578,0.1484375,-0.2441406,-0.2490234
3326,-87.25,24.875,-217.8125,-0.6069336,-0.08398438,0.4711914,0.1547852,-0.2329102,-0.2514648
3330,-66.125,51.4375,-217.125,-0.7387695,-0.3134766,0.6176758,0.1674805,-0.2167969,-0.2514648
3334,-46.1875,85.5625,-192.375,-0.9868164,-0.3637695,0.5712891,0.1821289,-0.1982422,-0.2529297
3338,-42.9375,94.4375,-155,-1.106934,-0.1733398,0.3671875,0.1928711,-0.1918945,-0.25
3342,-58.25,83.4375,-142.25,-1.056641,-0.02978516,0.2094727,0.2045898,-0.1806641,-0.2446289
3346,-70.625,59.0625,-154.4375,-0.9169922,-0.05664063,0.1289063,0.2138672,-0.1645508,-0.2436523
3350,-71.75,39.75,-201.9375,-0.7773438,-0.1152344,0.2983398,0.21875,-0.1533203,-0.2421875
3354,-56.0625,56.5625,-239.0625,-0.9091797,-0.4648438,0.5097656,0.2260742,-0.1333008,-0.2392578
3358,-30.875,87.375,-214.1875,-1.296875,-0.7602539,0.5791016,0.2353516,-0.1132813,-0.2353516
3362,-15.4375,111.875,-152,-1.471191,-0.6279297,0.4482422,0.2436523,-0.1020508,-0.2299805
3366,-22.0625,112.75,-122.6875,-1.45166,-0.2822266,0.2749023,0.2509766,-0.08935547,-0.2231445
3370,-33.5,81.8125,-127.375,-1.45166,-0.1889648,0.09814453,0.2583008,-0.078125,-0.2148438
3374,-47.6875,28.3125,-155.875,-1.385742,-0.1538086,0.02099609,0.2617188,-0.06835938,-0.2109375
3378,-64.0625,-7.5625,-173.5625,-1.168945,-0.2006836,0.05957031,0.2641602,-0.05322266,-0.2094727
3382,-78.9375,-4.5625,-165.6875,-0.9829102,-0.3637695,0.2021484,0.2617188,-0.03173828,-0.206543
3386,-80,20.0625,-148.4375,-0.9790039,-0.503418,0.3017578,0.2617188,-0.02050781,-0.2080078
3390,-78.1875,35.25,-133.1875,-1.133789,-0.4882813,0.2983398,0.2626953,-0.004394531,-0.2041016
3394,-83.8125,20.4375,-129.4375,-1.285156,-0.5,0.2636719,0.2617188,0.01123047,-0.1987305
3399,-81.25,-8.9375,-139.875,-1.25,-0.5541992,0.2788086,0.2602539,0.02246094,-0.1972656
3403,-79.1875,-24,-148.75,-1.157227,-0.550293,0.2983398,0.2568359,0.03759766,-0.1972656
3407,-78.25,-20.125,-142.0625,-1.106934,-0.6474609,0.3598633,0.25,0.05517578,-0.1972656
3411,-71.0625,-4.625,-122.25,-1.099121,-0.7407227,0.3710938,0.2485352,0.06396484,-0.1943359
3415,-68.6875,5.125,-97,-1.044922,-0.6821289,0.3095703,0.2451172,0.07861328,-0.1918945
3419,-70.75,4,-90.8125,-0.9750977,-0.6357422,0.3173828,0.2402344,0.08886719,-0.1875
3423,-68.75,-2.6875,-94.375,-0.8549805,-0.6899414,0.340332,0.2392578,0.09619141,-0.1850586
3427,-62.9375,-2.8125,-107.1875,-0.8085938,-0.6899414,0.4213867,0.2329102,0.1074219,-0.1835938
3431,-51.8125,5,-113.8125,-0.8237305,-0.7910156,0.4868164,0.230957,0.1162109,-0.1782227
3435,-33.0625,19.75,-104.4375,-0.9829102,-0.8959961,0.5097656,0.2270508,0.1264648,-0.175293
3439,-17.0625,28.75,-78,-1.149414,-0.8647461,0.4482422,0.2236328,0.1362305,-0.1738281
3443,-8,27.3125,-55.1875,-1.242188,-0.7368164,0.425293,0.2202148,0.1401367,-0.1699219
3447,4.375,18.125,-44.9375,-1.261719,-0.6938477,0.4404297,0.21875,0.1425781,-0.168457
3451,19.625,14.8125,-27.25,-1.300781,-0.6591797,0.4750977,0.2177734,0.1459961,-0.1728516
3455,28.125,17.875,-0.125,-1.351074,-0.5927734,0.4790039,0.2177734,0.1459961,-0.168457
3459,38.625,20.6875,30.3125,-1.385742,-0.6435547,0.4672852,0.21875,0.1425781,-0.1699219
3463,52,21,59.6875,-1.397461,-0.6279297,0.4135742,0.222168,0.1401367,-0.1699219
3467,57.125,18,85.5625,-1.374023,-0.5927734,0.3671875,0.2246094,0.1323242,-0.1713867
3471,62.375,13.125,104.9375,-1.327637,-0.6123047,0.355957,0.2294922,0.125,-0.1738281
3475,66.4375,12.625,116.8125,-1.246094,-0.5776367,0.3671875,0.2353516,0.1123047,-0.1782227
3479,71.125,14.1875,127.3125,-1.304199,-0.6318359,0.3945313,0.2402344,0.1010742,-0.1806641
3483,76.8125,12.75,144.9375,-1.397461,-0.6977539,0.4018555,0.2451172,0.08984375,-0.1806641
3487,79.8125,11.125,170.0625,-1.471191,-0.7211914,0.4213867,0.25,0.07519531,-0.1835938
3491,79.1875,3.75,195.125,-1.513672,-0.7055664,0.3945313,0.2568359,0.05517578,-0.1865234
3495,75.5625,-8.6875,207.625,-1.494141,-0.6787109,0.3979492,0.2583008,0.04150391,-0.1875
3499,74.875,-18.5,213.5625,-1.443848,-0.6821289,0.3789063,0.2641602,0.02148438,-0.1918945
3503,69.9375,-23.625,224.5625,-1.45166,-0.6787109,0.375,0.2666016,-0.001953125,-0.1958008
3507,65.8125,-26,241.25,-1.401367,-0.6513672,0.355957,0.269043,-0.02050781,-0.1972656
3511,58.4375,-31.3125,252.25,-1.366211,-0.5541992,0.3017578,0.2675781,-0.04443359,-0.2026367
3515,53.3125,-38.625,254.6875,-1.28125,-0.5151367,0.3056641,0.2651367,-0.06835938,-0.2055664
3519,53.5,-44.625,249.0625,-1.211426,-0.4648438,0.2866211,0.2626953,-0.08300781,-0.2094727
3523,52.5,-56.5,237.1875,-1.203613,-0.3989258,0.2211914,0.2583008,-0.1083984,-0.2119141
3528,46.0625,-67.875,234.9375,-1.20752,-0.3950195,0.2172852,0.2485352,-0.1308594,-0.2163086
3532,47.4375,-71.6875,237.3125,-1.106934,-0.4492188,0.2675781,0.2412109,-0.1445313,-0.2202148
3536,58.9375,-58.75,239.125,-1.029297,-0.4570313,0.3330078,0.2329102,-0.1655273,-0.2246094
3540,67.0625,-43.1875,245,-1.017578,-0.3208008,0.2480469,0.2202148,-0.1870117,-0.2231445
3544,65.875,-39.5625,239.125,-1.083496,-0.1928711,0.1904297,0.2104492,-0.2016602,-0.2246094
3548,63.9375,-46.9375,228.9375,-1.125977,-0.1191406,0.1518555,0.1987305,-0.2207031,-0.2202148
3552,59.9375,-50.1875,228.125,-1.137695,-0.1269531,0.1328125,0.1831055,-0.2382813,-0.2246094
3556,52.6875,-48.9375,244.6875,-1.091309,-0.1074219,0.1132813,0.1723633,-0.2495117,-0.2255859
3560,44.1875,-42.125,254.4375,-0.9672852,-0.02978516,0.1479492,0.1533203,-0.2670898,-0.2216797
3564,42.3125,-46.4375,255.75,-0.8706055,0.03222656,0.105957,0.1367188,-0.2807617,-0.2202148
3568,36.8125,-50.0625,245.75,-0.7231445,0.1640625,0.06347656,0.1235352,-0.2880859,-0.21875
3572,22.125,-50.5,242.75,-0.6494141,0.171875,0.125,0.1020508,-0.2993164,-0.2216797
3576,15.5,-49.125,243.9375,-0.6147461,0.15625,0.08642578,0.08056641,-0.3095703,-0.2216797
3580,4.4375,-47.9375,248.5,-0.4594727,0.2265625,0.1328125,0.06640625,-0.3129883,-0.21875
3584,1.75,-50.875,241,-0.378418,0.2070313,0.105957,0.04150391,-0.3178711,-0.2202148
3588,0,-53.375,231.4375,-0.2001953,0.2807617,0.1635742,0.02148438,-0.3208008,-0.2216797
3592,0.625,-49.1875,221.0625,-0.09521484,0.2612305,0.1943359,0.004394531,-0.3217773,-0.2202148
3596,0.875,-41.125,212.5625,0.03173828,0.3583984,0.2290039,-0.01416016,-0.3217773,-0.2216797
3600,4,-29.9375,203,0.1132813,0.3818359,0.3017578,-0.03417969,-0.3208008,-0.2216797
3604,9.375,-13.875,195.625,0.08251953,0.3974609,0.3095703,-0.04736328,-0.3178711,-0.21875
3608,12.625,-7.6875,195.5,0.06298828,0.4321289,0.2749023,-0.06298828,-0.3154297,-0.2202148
3612,11.25,-2.25,195.5,0.07080078,0.4790039,0.3330078,-0.07958984,-0.3129883,-0.2177734
3616,10.9375,3.5,201.6875,0.125,0.4594727,0.2944336,-0.09033203,-0.3105469,-0.2163086
3620,8.8125,7.75,197.375,0.2333984,0.5371094,0.2827148,-0.1044922,-0.3041992,-0.2133789
3624,8.25,6.3125,183.875,0.3227539,0.5449219,0.2827148,-0.1201172,-0.2993164,-0.2148438
3628,8.5625,11.125,174,0.4697266,0.5488281,0.2944336,-0.128418,-0.2929688,-0.2148438
3632,7.5625,19.125,169,0.5356445,0.4907227,0.2597656,-0.1401367,-0.2880859,-0.2133789
3636,5.3125,28.1875,163.4375,0.644043,0.4829102,0.2329102,-0.1518555,-0.2792969,-0.2148438
3640,0.9375,30.875,147.6875,0.7915039,0.5136719,0.2021484,-0.1582031,-0.2744141,-0.2148438
3644,-7.875,29.6875,119.125,0.8999023,0.5136719,0.1479492,-0.1665039,-0.2680664,-0.2177734
3648,-16.25,25.0625,83.0625,0.9814453,0.4829102,0.1635742,-0.1708984,-0.2617188,-0.21875
3652,-16.8125,22.125,43.0625,1.035645,0.3896484,0.2060547,-0.1733398,-0.2592773,-0.2202148
3657,-14.875,19,5.5,1.004395,0.3505859,0.2558594,-0.1748047,-0.2558594,-0.2231445
3661,-18,11.6875,-28.0625,0.9233398,0.3388672,0.2788086,-0.1723633,-0.2558594,-0.2246094
3665,-18.1875,1.25,-57.1875,0.8842773,0.3349609,0.3442383,-0.1723633,-0.2558594,-0.2270508
3669,-14.9375,-4.1875,-91.3125,0.8959961,0.3974609,0.4135742,-0.168457,-0.2583008,-0.2270508
3673,-11.6875,-4.75,-126.8125,0.8417969,0.3935547,0.4018555,-0.1601563,-0.2592773,-0.2255859
3677,-9.9375,-8.6875,-150.125,0.7451172,0.3388672,0.3364258,-0.1557617,-0.265625,-0.2270508
3681,-13.4375,-13.4375,-165.3125,0.7099609,0.3388672,0.3251953,-0.1435547,-0.2719727,-0.2270508
3685,-14.25,-13.3125,-183.9375,0.7099609,0.3081055,0.3330078,-0.1328125,-0.2783203,-0.2285156
3689,-10.0625,-7.375,-204.375,0.6132813,0.2963867,0.4213867,-0.1245117,-0.2832031,-0.2285156
3693,-3.5625,3.25,-219.375,0.4892578,0.284668,0.4057617,-0.109375,-0.2905273,-0.2299805
3697,0.625,10.8125,-229.5625,0.3266602,0.2885742,0.3598633,-0.09228516,-0.2983398,-0.2270508
3701,1.375,15.0625,-231.1875,0.2568359,0.2807617,0.3056641,-0.07958984,-0.3017578,-0.230957
3705,1.6875,22.8125,-240.5625,0.1831055,0.315918,0.3095703,-0.05908203,-0.3081055,-0.2299805
3709,1.1875,25.875,-243.6875,-0.01806641,0.2807617,0.2133789,-0.0390625,-0.3105469,-0.2324219
3713,-9.5,23.5625,-241.5,-0.1225586,0.3896484,0.1098633,-0.02587891,-0.3129883,-0.230957
3717,-31.0625,18.375,-241,-0.1767578,0.4013672,0.05566406,-0.004394531,-0.3129883,-0.2338867
3721,-46.75,11.25,-248.75,-0.1186523,0.3544922,0.07910156,0.01660156,-0.3095703,-0.2368164
3725,-49.75,16.9375,-273.4375,-0.347168,0.2299805,0.2290039,0.02832031,-0.3056641,-0.2392578
3729,-47.75,27,-262.9375,-0.6845703,0.1484375,0.2368164,0.05078125,-0.296875,-0.2446289
3733,-59.625,31.25,-234.125,-0.8818359,0.2416992,0.2060547,0.07226563,-0.2880859,-0.2446289
3737,-75.0625,26.9375,-215.3125,-0.7929688,0.3081055,0.2021484,0.08300781,-0.2817383,-0.2490234
3741,-84.0625,31.875,-225.25,-0.8046875,0.2651367,0.3251953,0.09960938,-0.2705078,-0.2529297
3745,-81.5625,35.0625,-219.125,-0.9365234,0.04394531,0.3095703,0.1152344,-0.2543945,-0.2568359
3749,-80.6875,39.3125,-215.625,-0.8432617,0.09814453,0.4174805,0.1259766,-0.2470703,-0.2597656
3753,-66.1875,59.0625,-217.6875,-0.8432617,-0.1655273,0.4907227,0.1416016,-0.2294922,-0.2597656
3757,-47.375,93.25,-194.875,-0.8588867,-0.1811523,0.5058594,0.1547852,-0.2158203,-0.2612305
3761,-47.75,116.75,-173.625,-0.9438477,-0.03759766,0.3251953,0.1665039,-0.2080078,-0.2597656
3765,-54.5625,100.9375,-177.625,-1.029297,-0.01025391,0.125,0.1831055,-0.1933594,-0.2543945
3769,-69.4375,59.6875,-210.5625,-1.063965,0.1098633,0.1171875,0.1962891,-0.1767578,-0.2529297
3773,-77.1875,19.5,-245.75,-1.103027,-0.2045898,0.2519531,0.2021484,-0.1645508,-0.2514648
3777,-72.1875,27.3125,-245.875,-1.060547,-0.4257813,0.5249023,0.2119141,-0.1420898,-0.2543945
3781,-60,71.625,-201.0625,-1.125977,-0.6044922,0.640625,0.2202148,-0.1220703,-0.2514648
3786,-48.125,115.25,-151.1875,-1.172852,-0.4921875,0.5175781,0.2270508,-0.1108398,-0.2475586
3790,-43.4375,118,-140.625,-1.285156,-0.324707,0.2788086,0.2353516,-0.09716797,-0.2392578
3794,-51.9375,75.75,-165.125,-1.370117,-0.1850586,0.1367188,0.2451172,-0.08203125,-0.2324219
3798,-66.25,15.75,-200.5,-1.32373,-0.2548828,0.1098633,0.2451172,-0.06933594,-0.2299805
3802,-79.3125,-4.4375,-208.9375,-1.037109,-0.421875,0.2983398,0.2475586,-0.04833984,-0.2285156
3806,-74.6875,17.3125,-186.6875,-1.052734,-0.7368164,0.390625,0.2460938,-0.02685547,-0.2299805
3810,-76.375,40.625,-159.125,-1.129883,-0.5620117,0.3330078,0.2475586,-0.01464844,-0.2255859
3814,-88.4375,35.375,-152.3125,-1.300781,-0.5229492,0.2290039,0.2485352,0.001464844,-0.2202148
3818,-99.875,4.5,-159.0625,-1.405273,-0.5151367,0.1982422,0.2475586,0.02148438,-0.2177734
3822,-108.0625,-35.75,-171.25,-1.385742,-0.6044922,0.2675781,0.2460938,0.03369141,-0.2148438
3826,-104,-53.5,-174.125,-1.211426,-0.6552734,0.3828125,0.2368164,0.05517578,-0.2148438
3830,-96.5625,-48.6875,-160.4375,-1.118652,-0.7832031,0.5097656,0.2294922,0.07373047,-0.2148438
3834,-76.625,-23.4375,-136,-0.9907227,-0.8457031,0.6210938,0.2236328,0.08496094,-0.2148438
3838,-58.5625,0.1875,-111.5,-0.9248047,-0.8535156,0.5751953,0.2177734,0.09765625,-0.2119141
3842,-46.875,14.1875,-96.4375,-0.7929688,-0.7055664,0.425293,0.2138672,0.1088867,-0.2080078
3846,-50,14.375,-102.75,-0.6884766,-0.5927734,0.2905273,0.2119141,0.1162109,-0.2055664
3850,-58.8125,10.875,-119.375,-0.6264648,-0.6435547,0.3330078,0.2070313,0.125,-0.2026367
3854,-54.625,12.875,-133.125,-0.7231445,-0.7910156,0.5249023,0.203125,0.1376953,-0.1987305
3858,-34.875,25.1875,-131.125,-0.8510742,-0.9541016,0.7021484,0.1972656,0.1459961,-0.1943359
3862,-8.5,43.1875,-113.75,-0.9946289,-1.012695,0.7407227,0.1914063,0.15625,-0.1918945
3866,15.3125,56.8125,-82.875,-1.168945,-0.9619141,0.6674805,0.1889648,0.1635742,-0.1850586
3870,31.4375,56.9375,-47.125,-1.300781,-0.8378906,0.5136719,0.1865234,0.1635742,-0.1875
3874,34.375,47,-17.6875,-1.32373,-0.6787109,0.4213867,0.1879883,0.1650391,-0.1850586
3878,34.5625,36.1875,4.5,-1.292969,-0.6357422,0.390625,0.1914063,0.1635742,-0.1865234
3882,40.9375,29.0625,21.75,-1.289063,-0.7055664,0.4287109,0.1914063,0.1625977,-0.1865234
3886,55.875,26.875,36.875,-1.269531,-0.7407227,0.4790039,0.1938477,0.1577148,-0.1865234
3890,72.5625,38.125,57.125,-1.257813,-0.7949219,0.5483398,0.1987305,0.1523438,-0.1875
3894,95.4375,59.1875,88.6875,-1.308105,-0.8535156,0.5405273,0.203125,0.1459961,-0.1889648
3898,106.6875,79.6875,124.3125,-1.424316,-0.7524414,0.4633789,0.2119141,0.1323242,-0.1918945
3902,106.1875,85.6875,161.625,-1.583496,-0.6821289,0.3598633,0.2211914,0.1176758,-0.1928711
3906,95.3125,69.0625,188.8125,-1.75,-0.6513672,0.2709961,0.2294922,0.1049805,-0.1918945
3910,84.5,33.125,205.5,-1.839355,-0.6938477,0.2558594,0.2412109,0.08496094,-0.1943359
3915,75.1875,1.1875,220.8125,-1.79248,-0.7832031,0.340332,0.2485352,0.0625,-0.1958008
3919,69.4375,-1.1875,253.125,-1.637695,-0.8959961,0.4174805,0.253418,0.04736328,-0.1972656
3923,62.3125,9.5625,285.8125,-1.498047,-0.8496094,0.4135742,0.2568359,0.02392578,-0.199707
3927,58.25,15.0625,298.25,-1.40918,-0.7680664,0.3520508,0.2641602,-0.005859375,-0.2011719
3931,54.375,1.1875,292.375,-1.420898,-0.6748047,0.2519531,0.2666016,-0.02441406,-0.199707
3935,45.5625,-26.75,286.3125,-1.401367,-0.550293,0.1479492,0.2675781,-0.05322266,-0.2011719
3939,30.25,-50.5,282,-1.223145,-0.4648438,0.1635742,0.2651367,-0.07958984,-0.206543
3943,25.6875,-57.4375,274.5625,-1.071777,-0.5268555,0.2402344,0.2592773,-0.09570313,-0.2080078
3947,29.5,-48.4375,268.125,-0.9516602,-0.5,0.3251953,0.253418,-0.1206055,-0.2119141
3951,40,-39.5625,257.75,-1.056641,-0.5581055,0.3291016,0.2436523,-0.1445313,-0.2163086
3955,47.125,-36.125,256.6875,-1.099121,-0.4257813,0.2749023,0.2392578,-0.1567383,-0.2177734
3959,39.875,-39.9375,266.625,-1.176758,-0.4101563,0.2172852,0.2285156,-0.1791992,-0.2202148
3963,32.125,-59.625,261.8125,-1.125977,-0.2392578,0.144043,0.215332,-0.1992188,-0.2202148
3967,25.625,-80.4375,242.25,-1.044922,-0.2084961,0.1713867,0.2045898,-0.2158203,-0.2216797
3971,31.3125,-81.1875,232.875,-0.9399414,-0.3056641,0.2749023,0.1879883,-0.2319336,-0.2255859
3975,45.125,-60.0625,241.0625,-0.8432617,-0.3598633,0.375,0.1713867,-0.2456055,-0.2270508
3979,57.1875,-28.4375,256.5625,-0.796875,-0.1889648,0.3637695,0.1591797,-0.2583008,-0.2285156
3983,54.375,-15.0625,265.3125,-0.9013672,-0.01806641,0.2133789,0.1401367,-0.2729492,-0.2231445
3987,40.9375,-32.75,265.0625,-0.9399414,0.1293945,0.07519531,0.1210938,-0.2895508,-0.2246094
3991,18.9375,-59.6875,262.25,-0.8164063,0.2265625,-0.001464844,0.1069336,-0.296875,-0.2216797
3995,1.375,-88.5,249.5625,-0.7075195,0.1137695,0.05175781,0.08447266,-0.3056641,-0.2246094
3999,7.6875,-91.375,247.25,-0.4365234,-0.02587891,0.2094727,0.05810547,-0.3120117,-0.2255859
4003,16.5625,-68.5,257.3125,-0.1923828,0.01660156,0.3056641,0.04248047,-0.3154297,-0.2246094
4007,25.8125,-36.5625,259.125,-0.02197266,0.1176758,0.2788086,0.01757813,-0.3178711,-0.2255859
4011,30.125,-18.1875,254.375,0.01660156,0.2070313,0.1826172,-0.005859375,-0.3208008,-0.2231445
4015,27.375,-14.6875,243.4375,0.0009765625,0.300293,0.05175781,-0.01855469,-0.3232422,-0.2202148
4019,19.0625,-16.3125,234.3125,0.02050781,0.4790039,0.001953125,-0.04003906,-0.3217773,-0.2177734
4023,8.5,-14.0625,231,-0.002441406,0.4399414,0.08642578,-0.06152344,-0.3193359,-0.2148438
4027,11.5,-2.25,238.1875,0.05126953,0.3935547,0.2172852,-0.07470703,-0.3168945,-0.2148438
4031,15.9375,23.5625,239.4375,0.1870117,0.5605469,0.3442383,-0.09130859,-0.3105469,-0.2133789
4035,25,37.9375,241.75,0.125,0.4399414,0.2866211,-0.1103516,-0.3056641,-0.2119141
4039,22.5625,45.5,249,0.3305664,0.6342773,0.1943359,-0.1201172,-0.2993164,-0.2119141
4044,-7.0625,35.1875,235.1875,0.3959961,0.6459961,0.1098633,-0.1367188,-0.2905273,-0.2109375
4048,-34.9375,2.25,210.3125,0.6171875,0.5292969,0.09423828,-0.1533203,-0.2792969,-0.2148438
4052,-52.875,-27,173.5,0.9038086,0.269043,0.2133789,-0.1625977,-0.2705078,-0.2148438
4056,-46.8125,-30.8125,139.3125,1.22168,0.04394531,0.355957,-0.1748047,-0.2583008,-0.2177734
4060,-28.9375,-13.75,101.625,1.411621,-0.01025391,0.4633789,-0.1855469,-0.2480469,-0.21875
4064,-4.5625,7.25,61.1875,1.384277,0.01660156,0.425293,-0.1875,-0.2431641,-0.21875
4068,6.4375,15.875,24,1.225586,0.1992188,0.2905273,-0.1899414,-0.2416992,-0.21875
4072,-2.875,5.9375,-22,1.066406,0.4360352,0.1557617,-0.1914063,-0.2407227,-0.21875
4076,-16.8125,-13.875,-71.8125,0.9423828,0.4594727,0.1943359,-0.1899414,-0.2407227,-0.2202148
4080,-19.125,-24.4375,-110.0625,0.8261719,0.3974609,0.2866211,-0.1855469,-0.2456055,-0.2202148
4084,-12.875,-19.5625,-124.625,0.6982422,0.3120117,0.4018555,-0.1791992,-0.2519531,-0.21875
4088,-3.125,-2.4375,-123.25,0.6289063,0.3388672,0.4174805,-0.1733398,-0.2583008,-0.2177734
4092,1.6875,9.5625,-123.5625,0.559082,0.4516602,0.355957,-0.1674805,-0.2617188,-0.2216797
4096,-3.875,7.125,-136.0625,0.4892578,0.5761719,0.2480469,-0.1567383,-0.2695313,-0.2216797
4100,-20.375,-13.1875,-158.75,0.3730469,0.6538086,0.1328125,-0.1508789,-0.2729492,-0.2216797
4104,-36.5625,-33.75,-181.625,0.4350586,0.5644531,0.2597656,-0.1411133,-0.2807617,-0.2216797
4108,-36.9375,-27.25,-191.5625,0.5087891,0.3896484,0.4018555,-0.1293945,-0.2841797,-0.2255859
4112,-25.875,-2.875,-192.625,0.5161133,0.3041992,0.4404297,-0.1186523,-0.2895508,-0.2246094
4116,-14.9375,22.125,-190.4375,0.4233398,0.3193359,0.3442383,-0.1044922,-0.2944336,-0.2285156
4120,-15.25,30.1875,-196.0625,0.2685547,0.4243164,0.2021484,-0.08886719,-0.2993164,-0.230957
4124,-31.875,19.125,-211.75,0.1557617,0.5371094,0.07910156,-0.078125,-0.3017578,-0.230957
4128,-52.125,-1.25,-241.25,0.03955078,0.4907227,0.144043,-0.06054688,-0.3041992,-0.2353516
4132,-58.25,-21.125,-264.6875,-0.08789063,0.3310547,0.2211914,-0.04150391,-0.3041992,-0.237793
4136,-60.375,-12.5,-253.125,-0.08789063,0.2070313,0.3598633,-0.02832031,-0.3032227,-0.2421875
4140,-60.9375,27,-227.75,-0.06054688,0.1484375,0.5136719,-0.009277344,-0.2983398,-0.2475586
4144,-46,72.625,-205.125,-0.1767578,0.09814453,0.4907227,0.009277344,-0.2944336,-0.2529297
4148,-35.375,95.9375,-205.875,-0.4868164,0.2265625,0.3671875,0.02148438,-0.2919922,-0.2529297
4152,-30.1875,68.125,-230.0625,-0.7348633,0.3193359,0.2172852,0.04638672,-0.2856445,-0.2543945
4156,-36.5625,22.9375,-263.5,-0.847168,0.3427734,0.1557617,0.06542969,-0.2807617,-0.2558594
4160,-55.625,11.4375,-249.75,-0.746582,0.2226563,0.3251953,0.07714844,-0.2705078,-0.2568359
4164,-62.875,41.8125,-221.1875,-0.6264648,0.01269531,0.5058594,0.09521484,-0.2617188,-0.2626953
4168,-39.6875,100.625,-194.4375,-0.4672852,-0.1420898,0.6982422,0.1118164,-0.2504883,-0.2636719
4173,-6.9375,158.0625,-186.625,-0.746582,-0.08007813,0.5634766,0.1269531,-0.2441406,-0.2626953
4177,13.0625,135.75,-218.6875,-1.374023,0.1254883,0.1904297,0.1459961,-0.2368164,-0.2543945
4181,-2.4375,55.375,-249.9375,-1.641602,0.4052734,-0.07861328,0.1674805,-0.2246094,-0.2475586
4185,-52.0625,-15.5625,-239.3125,-1.505859,0.3193359,-0.109375,0.1748047,-0.2143555,-0.2475586
4189,-102.125,-31.75,-201.8125,-0.9208984,0.1875,0.1748047,0.1855469,-0.1943359,-0.2529297
4193,-96.3125,36.1875,-182.75,-0.3432617,-0.3208008,0.659668,0.1914063,-0.1757813,-0.2543945
4197,-47.875,127.625,-173.1875,-0.5488281,-0.484375,0.6445313,0.1987305,-0.1655273,-0.2558594
4201,-15.375,165.5625,-177.125,-0.9790039,-0.3208008,0.3789063,0.2138672,-0.1508789,-0.2460938
4205,-4.25,136.1875,-208.0625,-1.397461,-0.2045898,0.125,0.2294922,-0.1381836,-0.2368164
4209,-17.9375,69.8125,-220.3125,-1.711426,-0.1230469,-0.04003906,0.237793,-0.1254883,-0.230957
4213,-67.75,3.0625,-194.875,-1.533203,0.008789063,-0.04736328,0.2451172,-0.1083984,-0.2246094
4217,-107.9375,-26.1875,-190.0625,-0.9868164,-0.1616211,0.04785156,0.2436523,-0.08837891,-0.2270508
4221,-113.4375,-8.375,-199.3125,-0.5566406,-0.4414063,0.1943359,0.2460938,-0.07177734,-0.2299805
4225,-102.0625,39,-205.75,-0.5371094,-0.6083984,0.2290039,0.2460938,-0.05078125,-0.230957
4229,-98.5,74.375,-211.1875,-0.796875,-0.7832031,0.1557617,0.25,-0.02587891,-0.2246094
4233,-95.0625,72.25,-224.625,-1.063965,-0.8378906,0.1557617,0.2509766,-0.008300781,-0.21875
4237,-87.5625,55.8125,-228.25,-1.215332,-1.008789,0.2636719,0.2519531,0.01367188,-0.2119141
4241,-80.4375,45.6875,-231.25,-1.203613,-1.008789,0.3637695,0.2509766,0.03857422,-0.2055664
4245,-67.625,42.9375,-228.5,-1.343262,-1.164063,0.4790039,0.2475586,0.05517578,-0.2011719
4249,-38.625,44,-204.75,-1.521484,-1.233887,0.5444336,0.2412109,0.07373047,-0.1958008
4253,-18.5625,58.8125,-167.9375,-1.556152,-0.9272461,0.5791016,0.2392578,0.09130859,-0.1918945
4257,-6.375,73.875,-134.625,-1.727051,-0.7016602,0.5483398,0.2353516,0.09765625,-0.1835938
4261,3.8125,67.3125,-99.625,-1.936035,-0.5307617,0.5249023,0.234375,0.1098633,-0.1796875
4265,6.8125,46,-65.5,-1.959473,-0.4101563,0.5405273,0.2353516,0.1162109,-0.1738281
4269,5.1875,25.8125,-24.75,-1.850586,-0.3520508,0.5522461,0.2329102,0.1186523,-0.1728516
4273,-5.5,2.5,13.4375,-1.711426,-0.3208008,0.5712891,0.2329102,0.1201172,-0.1713867
4277,-7.125,-19.6875,28.0625,-1.475098,-0.3637695,0.6137695,0.2353516,0.1186523,-0.1713867
4281,7.9375,-24.875,37.9375,-1.219238,-0.550293,0.7211914,0.2353516,0.1176758,-0.1728516
4285,37.75,-2.5,47.4375,-1.044922,-0.581543,0.7138672,0.2353516,0.1123047,-0.1738281
4289,62.75,20.375,53.1875,-1.180664,-0.5229492,0.5673828,0.2392578,0.1074219,-0.1767578
4293,83.0625,24.125,68.4375,-1.413086,-0.5268555,0.409668,0.2412109,0.1035156,-0.1767578
4297,89.125,21.1875,92.8125,-1.513672,-0.4335938,0.3251953,0.2451172,0.09130859,-0.1796875
4302,86.5,15.875,114.375,-1.57959,-0.4414063,0.2983398,0.2485352,0.07763672,-0.1821289
4306,84,12.1875,137.3125,-1.645508,-0.5385742,0.3481445,0.2519531,0.06738281,-0.1850586
4310,87.0625,11.5625,167.4375,-1.695801,-0.6396484,0.3789063,0.2558594,0.05126953,-0.1865234
4314,83,12.4375,198,-1.691895,-0.6396484,0.390625,0.2626953,0.03271484,-0.1889648
4318,81.1875,12.25,222.8125,-1.665039,-0.7250977,0.3710938,0.2641602,0.01757813,-0.1889648
4322,79.1875,14,246.5625,-1.633789,-0.6821289,0.3056641,0.2709961,-0.006835938,-0.1904297
4326,66.625,7.25,265.3125,-1.633789,-0.5927734,0.2094727,0.2724609,-0.03466797,-0.1918945
4330,50.3125,-12.0625,269.75,-1.587402,-0.503418,0.1289063,0.2734375,-0.05078125,-0.1928711
4334,35.625,-35.5625,265.6875,-1.505859,-0.4375,0.1132813,0.2700195,-0.07714844,-0.1958008
4338,24.4375,-54.125,261.8125,-1.397461,-0.4335938,0.1479492,0.2666016,-0.1005859,-0.1972656
4342,20,-65.875,259.8125,-1.292969,-0.4335938,0.1787109,0.2592773,-0.1166992,-0.2011719
4346,19.75,-69.6875,261.6875,-1.187988,-0.453125,0.2368164,0.2519531,-0.1396484,-0.2055664
4350,22.125,-67.6875,265.0625,-1.12207,-0.3989258,0.2211914,0.2412109,-0.1621094,-0.2109375
4354,24.875,-63,260.75,-1.025391,-0.3754883,0.2827148,0.2319336,-0.1757813,-0.2148438
4358,35.625,-47.625,259.9375,-0.9907227,-0.3598633,0.3134766,0.21875,-0.1967773,-0.21875
4362,40.5625,-37.9375,259.6875,-1.099121,-0.2431641,0.2480469,0.2055664,-0.2158203,-0.2202148
4366,34.625,-51.5625,260.4375,-1.161133,-0.06835938,0.04785156,0.1948242,-0.2294922,-0.2202148
4370,13.8125,-75,253.625,-1.141602,-0.01806641,0.01708984,0.1772461,-0.2441406,-0.2231445
4374,10.625,-84.875,253.3125,-0.9208984,-0.1308594,0.2060547,0.1582031,-0.2607422,-0.2246094
4378,26.75,-65.5,248.3125,-0.8007813,-0.1655273,0.2983398,0.1425781,-0.2695313,-0.2270508
4382,35.375,-46.3125,253.4375,-0.7617188,-0.01806641,0.2597656,0.125,-0.2817383,-0.2270508
4386,31.125,-36.8125,265.4375,-0.796875,0.02832031,0.1865234,0.1035156,-0.2944336,-0.2285156
4390,25.375,-44.125,268,-0.7695313,0.1757813,0.06738281,0.08886719,-0.3017578,-0.2270508
4394,9.625,-63.875,251.6875,-0.7075195,0.2924805,0.001953125,0.06542969,-0.3095703,-0.2270508
4398,-2.25,-92,236.9375,-0.6455078,0.4985352,-0.001464844,0.04150391,-0.3129883,-0.2270508
4402,-11.0625,-93.8125,239.8125,-0.3974609,0.06689453,0.2749023,0.02587891,-0.3144531,-0.2255859
4406,12.0625,-56.5,248.625,-0.2270508,-0.01025391,0.5288086,0,-0.3144531,-0.2299805
4410,33,-16.3125,265.25,-0.347168,0.1445313,0.4750977,-0.02246094,-0.3154297,-0.2255859
4414,31.8125,-1.25,287.6875,-0.4521484,0.300293,0.2905273,-0.03759766,-0.3154297,-0.2246094
4418,17.6875,-6.0625,295.5625,-0.4130859,0.4360352,0.1713867,-0.06054688,-0.3129883,-0.2231445
4422,-1.375,-25.6875,298.25,-0.28125,0.3701172,0.07519531,-0.08544922,-0.3081055,-0.2216797
4426,-23.625,-41.875,305.9375,-0.006347656,0.203125,0.06738281,-0.1030273,-0.3007813,-0.21875
4431,-38.1875,-40.6875,317.1875,0.3417969,0.03613281,0.2094727,-0.1293945,-0.2866211,-0.2216797
4435,-42.875,-32.5,323.625,0.5668945,-0.1967773,0.2441406,-0.1533203,-0.2705078,-0.2202148
4439,-41.5,-37.375,312.9375,0.9697266,-0.3095703,0.2597656,-0.1708984,-0.2568359,-0.2202148
4443,-31.9375,-36.125,267.5625,1.446289,-0.340332,0.2368164,-0.1914063,-0.2392578,-0.2216797
4447,-20.5,-25.375,202.0625,1.864746,-0.324707,0.1943359,-0.2089844,-0.2207031,-0.2216797
4451,-12.125,-11.9375,122.125,1.915039,-0.2392578,0.07128906,-0.215332,-0.2128906,-0.2177734
4455,-12.1875,-9.375,40.6875,1.822266,-0.1152344,-0.02441406,-0.2211914,-0.2045898,-0.2202148
4459,-9.4375,-8.0625,-39.875,1.655762,0.008789063,0.01708984,-0.222168,-0.203125,-0.21875
4463,-5.0625,-6.5,-109.625,1.411621,0.1679688,0.1289063,-0.21875,-0.2055664,-0.21875
4467,3.5,2.1875,-161.9375,1.043457,0.2456055,0.2788086,-0.215332,-0.2158203,-0.21875
4471,19.6875,9.5625,-186.4375,0.5708008,0.2729492,0.3867188,-0.2045898,-0.2280273,-0.21875
4475,32.4375,13.4375,-176.375,0.3071289,0.2963867,0.3828125,-0.1972656,-0.234375,-0.21875
4479,32,20.875,-149.25,0.3227539,0.3935547,0.3173828,-0.1855469,-0.2480469,-0.21875
4483,22.4375,25.6875,-134.375,0.4272461,0.5683594,0.2368164,-0.1757813,-0.2583008,-0.2177734
4487,7.1875,24.0625,-144.6875,0.5668945,0.6342773,0.1826172,-0.168457,-0.2631836,-0.21875
4491,5.3125,11.8125,-188.9375,0.5048828,0.6381836,0.3017578,-0.1567383,-0.2719727,-0.2202148
4495,19.3125,5.8125,-225.1875,0.4580078,0.5332031,0.375,-0.1425781,-0.2817383,-0.21875
4499,33.5,17.4375,-241.25,0.2685547,0.4165039,0.4287109,-0.1303711,-0.2895508,-0.21875
4503,52.5,32.0625,-217.9375,0.004882813,0.3388672,0.2597656,-0.1103516,-0.3017578,-0.2148438
4507,37.0625,43.375,-179.125,0.004882813,0.5991211,0.1289063,-0.09375,-0.3105469,-0.2148438
4511,9.375,46.0625,-166.5625,0.05908203,0.7119141,0.02880859,-0.08056641,-0.3154297,-0.2148438
4515,-15,26.625,-188.5625,0.05126953,0.7353516,0.07128906,-0.06298828,-0.3193359,-0.2148438
4519,-20.5,5.3125,-231.25,0.1289063,0.6225586,0.1865234,-0.04736328,-0.3208008,-0.2148438
4523,-13.9375,6.5,-263.625,-0.02197266,0.3974609,0.3330078,-0.03173828,-0.3217773,-0.2163086
4527,2.5,19.375,-245.375,-0.2773438,0.2338867,0.3056641,-0.01025391,-0.3217773,-0.21875
4531,-7.6875,39.875,-204.5625,-0.3354492,0.4399414,0.1904297,0.01074219,-0.3232422,-0.2177734
4535,-32.9375,50.9375,-183.4375,-0.2231445,0.5332031,0.09033203,0.0234375,-0.3208008,-0.2202148
4539,-49.8125,56.375,-198.8125,-0.262207,0.4946289,0.125,0.04150391,-0.3178711,-0.2216797
4543,-54.375,49.75,-225.3125,-0.4326172,0.3974609,0.2094727,0.05957031,-0.3105469,-0.2255859
4547,-40.5,39,-250.5,-0.6650391,0.1445313,0.2827148,0.07470703,-0.3041992,-0.2299805
4551,-24.625,35.9375,-240.4375,-0.8007813,0.02441406,0.2983398,0.09521484,-0.2944336,-0.2299805
4555,-31.8125,55.625,-203.4375,-0.7231445,0.21875,0.2480469,0.1142578,-0.2841797,-0.2285156
4560,-49.875,78.6875,-179.9375,-0.6845703,0.2573242,0.2290039,0.125,-0.2783203,-0.2299805
4564,-52.375,86.25,-187.5625,-0.8354492,0.1953125,0.2133789,0.1425781,-0.2680664,-0.230957
4568,-51.375,67.875,-220.0625,-1.060547,0.2148438,0.2172852,0.1591797,-0.2543945,-0.2299805
4572,-41.375,38.375,-256.625,-1.149414,0.07080078,0.2636719,0.1699219,-0.2431641,-0.2299805
4576,-34.4375,34.4375,-261.375,-1.048828,-0.06445313,0.3364258,0.1865234,-0.2280273,-0.2285156
4580,-33,53.875,-237.25,-1.001953,-0.1811523,0.3364258,0.2011719,-0.2094727,-0.2285156
4584,-30.125,69.0625,-202,-1.044922,-0.2163086,0.2402344,0.2104492,-0.1967773,-0.2270508
4588,-37.75,78.6875,-190.5625,-0.9946289,-0.02197266,0.2060547,0.222168,-0.1831055,-0.2231445
4592,-44.875,67,-207.375,-1.269531,-0.1152344,0.140625,0.2319336,-0.1645508,-0.21875
4596,-45.8125,34,-235.25,-1.439941,-0.1074219,0.2094727,0.2402344,-0.1533203,-0.2177734
4600,-41.5,13,-249.375,-1.389648,-0.2783203,0.3364258,0.2475586,-0.1308594,-0.2163086
4604,-34.375,26.625,-234.4375,-1.23877,-0.3833008,0.4287109,0.2509766,-0.1069336,-0.2133789
4608,-31.6875,56.3125,-202.9375,-1.199707,-0.3637695,0.3710938,0.2568359,-0.09326172,-0.2109375
4612,-36.125,71.5625,-186.9375,-1.180664,-0.2822266,0.2519531,0.2617188,-0.07421875,-0.206543
4616,-42.6875,63.6875,-192.0625,-1.145508,-0.2626953,0.1557617,0.2675781,-0.05712891,-0.2011719
4620,-51.8125,43.5625,-212.75,-1.067871,-0.2744141,0.1020508,0.269043,-0.04443359,-0.199707
4624,-61.875,22.125,-236.625,-0.9750977,-0.371582,0.1098633,0.2700195,-0.02050781,-0.1958008
4628,-69.875,12.0625,-252.3125,-0.8818359,-0.503418,0.140625,0.2666016,0.002441406,-0.1918945
4632,-81.9375,14.9375,-257.8125,-0.7348633,-0.581543,0.140625,0.2651367,0.02148438,-0.1918945
4636,-91.25,30.5,-260.875,-0.7231445,-0.6938477,0.1557617,0.2592773,0.04736328,-0.1850586
4640,-106.75,42.5625,-257.9375,-0.8007813,-0.8144531,0.09814453,0.253418,0.07373047,-0.1796875
4644,-115.125,44.0625,-251.8125,-1.033203,-0.9931641,0.05957031,0.2485352,0.09130859,-0.1728516
4648,-90.375,29.4375,-209.875,-1.374023,-1.48291,0.1635742,0.2392578,0.1152344,-0.1630859
4652,-55.5625,12,-152.125,-1.401367,-1.249512,0.2133789,0.2319336,0.1337891,-0.1591797
4656,-49.375,1.75,-119.375,-1.223145,-0.9619141,0.1787109,0.2270508,0.1411133,-0.15625
4660,-51.5625,2.0625,-108.5,-1.071777,-0.8339844,0.1904297,0.2202148,0.1538086,-0.1508789
4664,-49.25,11.9375,-102.1875,-1.005859,-0.8144531,0.1982422,0.2138672,0.1625977,-0.1484375
4668,-55.125,18.75,-94,-1.044922,-0.7250977,0.1787109,0.2104492,0.1699219,-0.1455078
4672,-60.375,11.6875,-75.25,-1.133789,-0.9038086,0.2094727,0.2055664,0.1787109,-0.1401367
4676,-50.75,-2.4375,-44.1875,-1.137695,-1.016602,0.2636719,0.203125,0.1860352,-0.1347656
4680,-40.875,-12.3125,-22.5625,-0.9365234,-0.8842773,0.3364258,0.203125,0.1899414,-0.1347656
4684,-34,-3.8125,-21.3125,-0.7695313,-0.8496094,0.4633789,0.1987305,0.1923828,-0.1303711
4689,-15.5,17.1875,-30.3125,-0.8046875,-0.9194336,0.5097656,0.1987305,0.1948242,-0.1289063
4693,15.4375,30.3125,-25.4375,-1.052734,-1.074707,0.4633789,0.1962891,0.1948242,-0.1279297
4697,42.5625,30,0.125,-1.296875,-1.020508,0.3520508,0.1972656,0.1962891,-0.1289063
4701,60.1875,14.375,41.75,-1.463379,-1.016602,0.2211914,0.1972656,0.1923828,-0.1289063
4705,75.875,-3.5,86.125,-1.459473,-0.9853516,0.1943359,0.2011719,0.1875,-0.1333008
4709,85.5625,-9.375,124.8125,-1.343262,-0.8881836,0.1826172,0.2080078,0.1787109,-0.1386719
4713,85.8125,-0.25,148.875,-1.265625,-0.8222656,0.2558594,0.215332,0.1674805,-0.144043
4717,93,8.1875,165.125,-1.327637,-0.8959961,0.2983398,0.222168,0.1547852,-0.1494141
4721,108.875,12.5625,188.5625,-1.443848,-1.117676,0.3867188,0.2319336,0.1376953,-0.1494141
4725,132.5625,18.375,226.5625,-1.494141,-1.121582,0.3789063,0.2426758,0.1162109,-0.1616211
4729,132.625,33,260.1875,-1.420898,-0.8574219,0.3330078,0.2475586,0.1000977,-0.1630859
4733,115.375,43.375,278.875,-1.525391,-0.7792969,0.2133789,0.2602539,0.07275391,-0.1674805
4737,96.1875,33.125,295.5625,-1.691895,-0.7407227,0.1210938,0.2709961,0.04248047,-0.168457
4741,77.1875,9.625,305.25,-1.769531,-0.7871094,0.1171875,0.2783203,0.02148438,-0.168457
4745,63.25,-15.5,307.4375,-1.687988,-0.7016602,0.06738281,0.2832031,-0.009277344,-0.1699219
4749,40.1875,-33.8125,315.6875,-1.587402,-0.6396484,0.02490234,0.2841797,-0.04052734,-0.1738281
4753,21.1875,-50.5625,317.6875,-1.479004,-0.6162109,0.02880859,0.2817383,-0.06201172,-0.1782227
4757,15.25,-62.4375,310.4375,-1.304199,-0.6083984,0.08251953,0.2773438,-0.09082031,-0.1806641
4761,12.0625,-57.125,302.375,-1.095215,-0.4726563,0.09814453,0.2709961,-0.1196289,-0.1875
4765,6.5625,-48.75,293.4375,-1.083496,-0.4648438,0.1098633,0.2626953,-0.1357422,-0.1889648
4769,11.5,-52.5,283.0625,-1.137695,-0.4257813,0.06347656,0.253418,-0.1591797,-0.1943359
4773,11.125,-74.5,271,-1.168945,-0.324707,-0.02441406,0.2412109,-0.1831055,-0.1987305
4777,5,-97.5,257.375,-1.025391,-0.2314453,0.01367188,0.2319336,-0.1967773,-0.2026367
4781,8.8125,-101.75,235.5625,-0.9248047,-0.3134766,0.1479492,0.215332,-0.2143555,-0.2080078
4785,22.9375,-89.4375,230.5625,-0.9130859,-0.3754883,0.2290039,0.1972656,-0.2304688,-0.2163086
4789,36.4375,-65.0625,252.875,-0.862793,-0.3520508,0.2519531,0.1865234,-0.2392578,-0.2163086
4793,39.625,-42.625,270.9375,-0.9248047,-0.2124023,0.2094727,0.1689453,-0.2592773,-0.2202148
4797,45.75,-37.25,274.1875,-0.8198242,-0.05664063,0.1787109,0.1484375,-0.2744141,-0.2163086
4801,35.9375,-35.9375,263.0625,-0.8085938,0.2109375,0.105957,0.1367188,-0.2856445,-0.2177734
4805,17.75,-56.1875,246.375,-1.037109,0.1484375,-0.02832031,0.1152344,-0.296875,-0.2163086
4809,10.5,-82.3125,261.625,-0.9208984,0.02832031,0.04052734,0.09277344,-0.3066406,-0.2177734
4813,2.75,-72.8125,282.125,-0.5874023,0.09814453,0.1367188,0.07470703,-0.3129883,-0.2202148
4818,-10.375,-58.3125,294.6875,-0.3745117,0.1796875,0.05566406,0.04736328,-0.3178711,-0.2202148
4822,-27.75,-58.375,288.875,-0.2119141,0.2729492,0.01708984,0.02148438,-0.3208008,-0.2231445
4826,-28.1875,-74.1875,256.5625,-0.07617188,0.2109375,-0.001464844,0.002441406,-0.3193359,-0.2246094
4830,-20.4375,-76,223.875,0.1674805,0.2109375,0.1328125,-0.02099609,-0.3168945,-0.2255859
4834,-12.4375,-57.0625,201.875,0.09765625,0.1601563,0.2597656,-0.04394531,-0.3144531,-0.2255859
4838,3.25,-31.25,213.5625,0.03564453,0.04736328,0.4326172,-0.05664063,-0.3120117,-0.2246094
4842,25.875,18.625,253.75,0.03955078,0.05126953,0.4829102,-0.07568359,-0.3056641,-0.2246094
4846,27.5,50.0625,295.625,-0.01806641,0.3466797,0.3330078,-0.09619141,-0.3032227,-0.2255859
4850,8.6875,45.1875,290.8125,-0.1225586,0.5952148,0.2402344,-0.1079102,-0.296875,-0.2231445
4854,-7.5,-0.3125,268.375,-0.09130859,0.6069336,0.1943359,-0.1269531,-0.2880859,-0.2216797
4858,-25.4375,-35.5,250.5,0.1015625,0.4907227,0.2788086,-0.1474609,-0.2729492,-0.2216797
4862,-28.625,-39.3125,258.3125,0.4194336,0.1523438,0.4443359,-0.1625977,-0.265625,-0.2216797
4866,-12.5625,0,290.5625,0.8032227,-0.09960938,0.5634766,-0.1806641,-0.2480469,-0.2202148
4870,3.3125,57.125,325.5,1.121094,-0.1347656,0.4750977,-0.1962891,-0.2304688,-0.2231445
4874,-0.625,77.75,322.8125,1.171387,0.07080078,0.2402344,-0.2089844,-0.2167969,-0.2246094
4878,-9.875,51.4375,254.0625,1.43457,0.1953125,0.1020508,-0.2172852,-0.1943359,-0.2299805
4882,-25.625,12.4375,146.25,1.523926,0.2573242,0.09423828,-0.2246094,-0.1791992,-0.2324219
4886,-35.8125,-17,49.8125,1.43457,0.15625,0.140625,-0.2270508,-0.171875,-0.2324219
4890,-43.875,-15.3125,-0.375,1.306641,0.08642578,0.2597656,-0.2304688,-0.1669922,-0.2353516
4894,-46.625,-6,-31,1.101563,0.1293945,0.3212891,-0.2294922,-0.1655273,-0.230957
4898,-41.4375,-2.5,-66.125,1.059082,0.21875,0.4365234,-0.2304688,-0.1655273,-0.2353516
4902,-25.5625,0.75,-108.875,0.9931641,0.1796875,0.5634766,-0.2270508,-0.1679688,-0.2353516
4906,6,3.5,-146.375,0.9311523,-0.002441406,0.640625,-0.2211914,-0.1757813,-0.237793
4910,36.4375,16.3125,-165.375,0.8378906,-0.05273438,0.5634766,-0.2163086,-0.1855469,-0.2353516
4914,52.1875,21.25,-165.625,0.5976563,0.02441406,0.3364258,-0.2080078,-0.1992188,-0.2368164
4918,39.625,20.875,-158.1875,0.6210938,0.2456055,0.1674805,-0.1982422,-0.2119141,-0.2368164
4922,18.1875,18.0625,-170.3125,0.6831055,0.3232422,0.125,-0.1914063,-0.2216797,-0.2368164
4926,7.4375,14.875,-199.0625,0.7138672,0.300293,0.1674805,-0.1806641,-0.2304688,-0.2368164
4930,7.5625,12.3125,-234.625,0.6948242,0.2109375,0.1826172,-0.1665039,-0.2441406,-0.2368164
4934,10.875,7.625,-255.125,0.4580078,0.1367188,0.01367188,-0.1582031,-0.2529297,-0.2368164
4938,-15.3125,9.8125,-256.5625,0.4658203,0.300293,-0.07470703,-0.1401367,-0.265625,-0.2368164
4942,-42.4375,19.3125,-261.0625,0.4541016,0.1875,0.01708984,-0.1210938,-0.2729492,-0.2407227
4947,-45.5625,25.9375,-275.8125,0.3339844,0.09423828,0.1020508,-0.1079102,-0.2792969,-0.2436523
4951,-40.125,33.5,-290.4375,0.1674805,0.1367188,0.1518555,-0.08544922,-0.2832031,-0.2475586
4955,-41.3125,40,-296.375,-0.1030273,0.1445313,0.2788086,-0.06152344,-0.2880859,-0.2514648
4959,-28.3125,59.5,-289,-0.28125,0.03613281,0.4521484,-0.04589844,-0.2880859,-0.2529297
4963,-5.25,90.4375,-262.9375,-0.4790039,-0.02197266,0.5175781,-0.02099609,-0.2895508,-0.2583008
4967,7.625,110.125,-233.4375,-0.7192383,0.2226563,0.3095703,0.003417969,-0.2905273,-0.2568359
4971,-11.125,96.1875,-226.4375,-0.7426758,0.8598633,-0.04003906,0.02246094,-0.2895508,-0.2558594
4975,-64.0625,59.9375,-247.8125,-0.6689453,0.6459961,0.01708984,0.04492188,-0.2832031,-0.2558594
4979,-66.9375,40.5625,-288.5,-0.5449219,0.1796875,0.2368164,0.06884766,-0.2729492,-0.2597656
4983,-38.25,74.5,-286.9375,-0.4750977,-0.3017578,0.8481445,0.08203125,-0.265625,-0.2612305
4987,42,147.4375,-247.5625,-0.9248047,-0.6162109,0.8212891,0.1069336,-0.2558594,-0.2583008
4991,72.5,184.5625,-200.0625,-1.199707,0.04736328,0.3017578,0.1308594,-0.2519531,-0.25
4995,32.1875,146.5,-206.6875,-1.339355,0.5913086,-0.2744141,0.1459961,-0.2480469,-0.2421875
4999,-22,65.125,-266.5,-1.125977,0.5097656,-0.112793,0.1674805,-0.2368164,-0.237793
5003,-27.75,34.1875,-319.5625,-0.9169922,-0.1035156,0.2675781,0.184082,-0.2192383,-0.2353516
5007,5.1875,61.125,-308.3125,-0.9248047,-0.6513672,0.5444336,0.1972656,-0.2070313,-0.2368164
5011,32.1875,115.9375,-255.1875,-1.083496,-0.5073242,0.409668,0.215332,-0.1870117,-0.2255859
5015,32.875,140.3125,-232.75,-1.277344,-0.2202148,0.1132813,0.2319336,-0.171875,-0.2177734
5019,18.3125,112.0625,-248.25,-1.475098,-0.1347656,-0.06689453,0.2402344,-0.1606445,-0.2094727
5023,-5.625,64.875,-276.25,-1.443848,-0.09570313,-0.109375,0.253418,-0.140625,-0.2026367
5027,-26.9375,24.375,-309.8125,-1.215332,-0.3095703,-0.04394531,0.2626953,-0.1166992,-0.1987305
5031,-35.8125,15.6875,-336.875,-0.8896484,-0.519043,0.07910156,0.2651367,-0.09814453,-0.1972656
5035,-33.3125,46.125,-358,-0.6069336,-0.8378906,0.2211914,0.269043,-0.06591797,-0.1958008
5039,-25.75,85,-373.1875,-0.7504883,-1.062988,0.2060547,0.2724609,-0.03320313,-0.1865234
5043,-18.125,102.3125,-389,-1.013672,-1.214844,0.1098633,0.2734375,-0.006835938,-0.1821289
5047,-21.75,86.3125,-402.875,-1.261719,-1.253418,0.04785156,0.2700195,0.02636719,-0.1728516
5051,-26.0625,63.1875,-415.4375,-1.273438,-1.393555,0.07519531,0.2641602,0.06494141,-0.1645508
5055,-6.125,62.9375,-389,-1.331543,-1.875,0.1943359,0.2568359,0.08984375,-0.1606445
5059,28.1875,86.375,-311.0625,-1.567871,-1.90625,0.2329102,0.2436523,0.1201172,-0.1547852
5063,50.5625,98.6875,-207.5625,-1.78125,-1.42041,0.1328125,0.2329102,0.1401367,-0.1484375
5067,37,86.1875,-147.0625,-1.773438,-0.7602539,-0.05517578,0.230957,0.1489258,-0.144043
5071,19.5,50.4375,-123.125,-1.815918,-0.6396484,-0.1362305,0.2260742,0.1547852,-0.1386719
5076,2.6875,7.5625,-95.125,-1.757813,-0.484375,-0.01318359,0.2202148,0.1660156,-0.137207
5080,-32,-20.6875,-66.125,-1.563965,-0.4765625,0.2983398,0.2177734,0.1713867,-0.1386719
5084,-42.25,-28.5625,-42.125,-1.405273,-0.6748047,0.5444336,0.2128906,0.1772461,-0.1357422
5088,-24.75,-21.3125,-24.875,-1.23877,-0.8920898,0.7290039,0.2104492,0.1811523,-0.1357422
5092,10.9375,-5.125,-14.8125,-1.165039,-1.02832,0.675293,0.2080078,0.1801758,-0.1357422
5096,48.25,10.5625,-1.125,-1.095215,-0.9038086,0.4057617,0.2094727,0.1801758,-0.137207
5100,56.3125,20.5625,17.125,-1.083496,-0.6513672,0.04443359,0.2070313,0.1772461,-0.1386719
5104,37.75,11.875,36.0625,-1.07959,-0.5463867,-0.2285156,0.2094727,0.1762695,-0.1386719
5108,17.4375,-6.75,44.1875,-0.9555664,-0.5463867,-0.309082,0.2119141,0.1723633,-0.1425781
5112,3.5,-20.9375,41.6875,-0.7387695,-0.6162109,-0.2055664,0.215332,0.1689453,-0.1469727
5116,-3,-19.8125,35.625,-0.5605469,-0.7485352,-0.04736328,0.2163086,0.1635742,-0.1469727
5120,5.3125,-12.1875,31.875,-0.4985352,-0.9155273,0.05175781,0.2177734,0.1650391,-0.1469727
5124,21.125,1.1875,39.875,-0.4672852,-1.000977,0.125,0.21875,0.1611328,-0.1484375
5128,29.3125,18.8125,50,-0.4443359,-0.8417969,0.09423828,0.21875,0.15625,-0.1508789
5132,20.3125,26.5625,51,-0.4790039,-0.6899414,-0.02050781,0.2236328,0.1523438,-0.1494141
5136,10.1875,21.5,38.9375,-0.5449219,-0.6240234,-0.07861328,0.2285156,0.1489258,-0.1484375
