Packet number,Gyroscope X (deg/s),Gyroscope Y (deg/s),Gyroscope Z (deg/s),Accelerometer X (g),Accelerometer Y (g),Accelerometer Z (g),Magnetometer X (G),Magnetometer Y (G),Magnetometer Z (G)
3,3.4375,1.375,2,0.9194336,0.3857422,0.1328125,-0.293457,-0.1166992,-0.1455078
7,2.5625,1.9375,3.125,0.9077148,0.4125977,0.1367188,-0.2924805,-0.1142578,-0.1469727
11,-0.375,1.6875,4.125,0.9038086,0.4399414,0.1367188,-0.2924805,-0.1166992,-0.1484375
15,-4.3125,0.375,5.5,0.8920898,0.4321289,0.1328125,-0.293457,-0.1157227,-0.1469727
19,-6.6875,-1.8125,5.5,0.8881836,0.4125977,0.1328125,-0.2924805,-0.1132813,-0.1484375
23,-8.75,-3.4375,5.875,0.8959961,0.4052734,0.1020508,-0.2949219,-0.1142578,-0.1469727
27,-9.875,-4.4375,7.4375,0.9116211,0.3974609,0.1020508,-0.2924805,-0.1132813,-0.1469727
31,-11.25,-4.3125,9.5,0.9077148,0.4052734,0.1098633,-0.2949219,-0.1118164,-0.1455078
36,-14.75,-6.6875,11.625,0.8803711,0.4086914,0.09423828,-0.293457,-0.1108398,-0.1469727
40,-18.4375,-9.5625,12.625,0.8959961,0.4086914,0.105957,-0.2973633,-0.109375,-0.1484375
44,-21.5625,-10.625,12.875,0.8959961,0.4052734,0.1020508,-0.2973633,-0.1069336,-0.1455078
48,-26.0625,-10.1875,13.9375,0.9077148,0.4125977,0.08642578,-0.2973633,-0.1054688,-0.1469727
52,-30,-11.5625,15.5625,0.8842773,0.3701172,0.07910156,-0.2973633,-0.1044922,-0.1469727
56,-33.75,-19,18.125,0.8769531,0.3740234,0.07519531,-0.2983398,-0.1005859,-0.1455078
60,-45,-31.4375,25.0625,0.9038086,0.3740234,0.09033203,-0.2983398,-0.09814453,-0.144043
64,-62.0625,-44.75,33.875,1.000488,0.3701172,0.1479492,-0.3007813,-0.09423828,-0.1416016
68,-80.5,-51.5625,42.75,1.147949,0.3466797,0.1943359,-0.3041992,-0.08691406,-0.137207
72,-99.4375,-50.4375,57.9375,1.268066,0.269043,0.2021484,-0.3056641,-0.08203125,-0.1357422
76,-113.5625,-47.5,82.125,1.380371,0.1679688,0.2290039,-0.3066406,-0.07080078,-0.1303711
80,-125.25,-41.5,111.4375,1.492676,0.0009765625,0.2558594,-0.3115234,-0.05712891,-0.1289063
84,-132,-42.375,143.875,1.605469,0.08251953,0.2480469,-0.3105469,-0.04833984,-0.125
88,-135.875,-43.1875,174.375,1.608887,-0.2861328,0.1943359,-0.3115234,-0.02832031,-0.1210938
92,-118.6875,-41.75,196.9375,1.744629,-0.4492188,0.1826172,-0.3125,-0.005859375,-0.1157227
96,-95.5625,-24.125,206.375,1.888184,-0.4453125,0.1748047,-0.3115234,0.008789063,-0.1113281
100,-72.25,-8.1875,217.375,1.930664,-0.4726563,0.1518555,-0.3105469,0.03125,-0.1098633
104,-59.625,1,243.1875,1.954102,-0.5073242,0.1132813,-0.3032227,0.05517578,-0.105957
108,-48.9375,-1.875,273.375,1.992676,-0.4570313,0.105957,-0.3007813,0.07275391,-0.1074219
112,-42.25,0.8125,290.5625,2.046875,-0.4296875,0.09033203,-0.2890625,0.09863281,-0.1074219
116,-18.375,18.5,299.1875,2.066406,-0.5463867,0.06347656,-0.2744141,0.1264648,-0.1035156
120,17.5625,43.6875,293.125,1.950195,-0.5581055,0.06738281,-0.2675781,0.1425781,-0.105957
124,50.3125,67.1875,284.625,1.794922,-0.4335938,0.06738281,-0.2495117,0.1635742,-0.112793
128,64.4375,85.4375,274.6875,1.663574,-0.2314453,0.05175781,-0.2304688,0.1835938,-0.1225586
132,61.75,92.375,273.3125,1.442383,-0.04541016,0.07910156,-0.2163086,0.1914063,-0.1303711
136,36.6875,83.5625,269.4375,1.279785,0.1293945,0.1518555,-0.1948242,0.2050781,-0.1416016
140,-2.6875,75.125,258.0625,1.271973,0.1875,0.2094727,-0.1733398,0.2172852,-0.1469727
144,-30.6875,64.9375,261.1875,1.217773,-0.08789063,0.159668,-0.1557617,0.2285156,-0.1484375
148,-33.25,56.6875,276.625,1.341797,-0.3056641,0.1367188,-0.1367188,0.2426758,-0.1508789
152,-26.5,62.25,293.75,1.333984,-0.3134766,0.1020508,-0.109375,0.2509766,-0.1523438
156,-22.6875,65.0625,309.4375,1.217773,-0.3481445,0.04052734,-0.09130859,0.2587891,-0.1508789
160,-14.125,62.5,317.625,1.082031,-0.4067383,-0.01318359,-0.06152344,0.2651367,-0.1523438
165,4.875,69,315.125,1.059082,-0.453125,-0.04394531,-0.02929688,0.2700195,-0.1508789
169,27.0625,83.375,305,0.9462891,-0.3754883,-0.07080078,-0.01025391,0.2709961,-0.1523438
173,31.5,86.125,297.375,0.7529297,-0.2314453,-0.05517578,0.02001953,0.2675781,-0.1591797
177,17.5625,70.75,308.0625,0.5859375,-0.1655273,-0.03222656,0.05078125,0.262207,-0.1616211
181,1.9375,46.5625,325.6875,0.4775391,-0.2744141,-0.05517578,0.07128906,0.2573242,-0.1606445
185,2.625,28.0625,340.875,0.3613281,-0.2783203,-0.01318359,0.1035156,0.2475586,-0.1606445
189,4.9375,21.9375,330.5625,0.3266602,-0.2431641,0.005859375,0.1318359,0.2324219,-0.1606445
193,11.1875,26.875,310.75,0.2451172,-0.2822266,0.01708984,0.1484375,0.2226563,-0.1616211
197,23.6875,31.8125,295.25,0.05517578,-0.2744141,-0.01318359,0.1748047,0.2036133,-0.1630859
201,28.4375,28.9375,285.375,-0.1108398,-0.1538086,-0.02441406,0.1962891,0.1850586,-0.1606445
205,10.125,18.875,294.9375,-0.328125,0.121582,-0.03613281,0.2104492,0.1699219,-0.1645508
209,-17.625,-5,312.1875,-0.5488281,0.1523438,-0.06689453,0.2294922,0.1489258,-0.1630859
213,-8.6875,-22.125,307.8125,-0.6611328,0.15625,-0.06298828,0.2451172,0.1225586,-0.1645508
217,47.6875,-4.8125,263.5625,-0.7504883,0.284668,0.02099609,0.2558594,0.1074219,-0.1660156
221,107.4375,29.3125,186.9375,-0.9555664,0.5952148,-0.01318359,0.2666016,0.08398438,-0.168457
225,137.3125,46.5,109.75,-1.327637,0.9101563,-0.02832031,0.2734375,0.06396484,-0.1699219
229,124.75,29.75,39.1875,-1.591309,1.205566,0.03271484,0.2792969,0.05517578,-0.1713867
233,75.0625,1,-22.0625,-1.509766,1.228516,0.1787109,0.2783203,0.04638672,-0.1728516
237,14.5,-21.8125,-72.5625,-1.265625,1.015137,0.2944336,0.2783203,0.04638672,-0.175293
241,-38.5625,-42.125,-108.5625,-1.063965,0.6538086,0.2983398,0.2758789,0.05371094,-0.175293
245,-70.8125,-51.6875,-136.25,-0.7617188,0.2924805,0.2788086,0.2675781,0.06494141,-0.1782227
249,-75.875,-46.875,-147.5,-0.5834961,-0.06054688,0.1865234,0.2617188,0.08398438,-0.1796875
253,-54.625,-38.1875,-155.875,-0.5488281,-0.2978516,0.1328125,0.2558594,0.09228516,-0.1796875
257,-27.8125,-29.25,-179.375,-0.5449219,-0.3017578,0.1748047,0.2451172,0.1088867,-0.1782227
261,-16.8125,-20.6875,-204.6875,-0.4946289,-0.2626953,0.1865234,0.2353516,0.1235352,-0.1796875
265,-19.375,-23,-225.375,-0.4672852,-0.2666016,0.2402344,0.2270508,0.1376953,-0.1806641
269,-33.1875,-31.375,-237.3125,-0.362793,-0.3134766,0.2094727,0.2138672,0.15625,-0.1796875
273,-39.8125,-37.1875,-235.125,-0.2426758,-0.4492188,0.144043,0.1948242,0.1738281,-0.1796875
277,-34.5625,-33.9375,-226.625,-0.1381836,-0.5307617,0.09033203,0.184082,0.1835938,-0.1782227
281,-21.75,-34.125,-222.75,-0.2001953,-0.6162109,0.09423828,0.1650391,0.2001953,-0.175293
285,-10.125,-41.25,-229.3125,-0.09912109,-0.5541992,0.1098633,0.1474609,0.2138672,-0.1782227
289,-6.625,-40.875,-241.75,0.05908203,-0.5424805,0.1367188,0.1342773,0.2211914,-0.1782227
294,-5.5625,-31.125,-252,0.1948242,-0.4882813,0.159668,0.112793,0.2314453,-0.1767578
298,-4.875,-29.25,-252.8125,0.1367188,-0.503418,0.1518555,0.09033203,0.2426758,-0.1782227
302,-4.875,-36.3125,-243.625,0.2333984,-0.519043,0.1098633,0.07617188,0.2451172,-0.1782227
306,6.0625,-38.875,-231.4375,0.2373047,-0.550293,0.1020508,0.05566406,0.2509766,-0.1767578
310,19.625,-32.8125,-244.1875,0.3652344,-0.4804688,0.1367188,0.03173828,0.2539063,-0.1782227
314,31.0625,-21.875,-271.375,0.4311523,-0.3950195,0.1674805,0.01513672,0.2539063,-0.1782227
318,32.8125,-20.3125,-299.4375,0.5708008,-0.355957,0.1713867,-0.009277344,0.2548828,-0.1806641
322,26,-22.3125,-288.0625,0.7216797,-0.3833008,0.159668,-0.03662109,0.25,-0.1806641
326,18.1875,-45.9375,-257.4375,0.6054688,-0.3520508,0.1518555,-0.05322266,0.2485352,-0.1850586
330,7.6875,-79.875,-241.625,0.8261719,-0.3325195,0.1635742,-0.07714844,0.2436523,-0.1821289
334,-3.5625,-91.4375,-233.5,1.070313,-0.2509766,0.2441406,-0.09960938,0.2363281,-0.1806641
338,-10.375,-68,-254,1.287598,-0.2587891,0.2709961,-0.1152344,0.2338867,-0.1782227
342,-7.125,-52.5625,-259,1.147949,-0.3989258,0.1518555,-0.1367188,0.2236328,-0.1738281
346,9.1875,-56.875,-254.75,1.078125,-0.3325195,0.1132813,-0.1582031,0.2138672,-0.1699219
350,13.625,-59.75,-249.8125,1.194336,-0.2006836,0.09033203,-0.1733398,0.2075195,-0.168457
354,16,-65.25,-233.375,1.105469,-0.1616211,0.07128906,-0.1914063,0.1914063,-0.1674805
358,16,-73.625,-240.8125,1.194336,0.02832031,0.1210938,-0.2104492,0.1762695,-0.1630859
362,7.9375,-70.5,-259.6875,1.380371,0.121582,0.1557617,-0.2197266,0.1650391,-0.1577148
366,6.3125,-60.3125,-258.8125,1.473633,-0.02587891,0.1171875,-0.2387695,0.1474609,-0.1547852
370,18.9375,-53.5,-236.5,1.469727,-0.06835938,0.09033203,-0.253418,0.1298828,-0.1508789
374,35,-46.25,-217,1.380371,-0.03369141,0.05566406,-0.2617188,0.1162109,-0.1484375
378,49.6875,-42.75,-216.375,1.337891,0.1484375,0.06738281,-0.2724609,0.09765625,-0.1469727
382,57.625,-38.3125,-220.625,1.299316,0.2495117,0.06738281,-0.2817383,0.07763672,-0.144043
386,65.5625,-36.0625,-230.25,1.333984,0.3466797,0.07519531,-0.2866211,0.06005859,-0.1425781
390,70.375,-36.375,-231.5,1.39209,0.3896484,0.105957,-0.2949219,0.03759766,-0.1401367
394,70.5625,-43.25,-221.875,1.42334,0.4594727,0.1132813,-0.2998047,0.01611328,-0.1386719
398,65.75,-53.375,-209.8125,1.516113,0.4750977,0.1557617,-0.3056641,0,-0.1357422
402,58.4375,-57.0625,-200.875,1.647949,0.4438477,0.2211914,-0.309082,-0.02197266,-0.1303711
406,51.875,-50.4375,-198.375,1.798828,0.3427734,0.3056641,-0.3115234,-0.04296875,-0.125
410,40.375,-35.125,-182.5,1.930664,0.1875,0.3442383,-0.3115234,-0.05566406,-0.1225586
414,28.5625,-21,-157,1.930664,0.03613281,0.3710938,-0.3105469,-0.07421875,-0.1181641
418,7.75,-22.875,-122.8125,1.841797,-0.1308594,0.3520508,-0.3115234,-0.08691406,-0.1181641
423,-8.125,-30.3125,-75.875,1.837891,-0.324707,0.3173828,-0.309082,-0.09423828,-0.1181641
427,-8.875,-27.625,-36.5625,1.868652,-0.4375,0.3212891,-0.3105469,-0.1020508,-0.1157227
431,-0.1875,-12.875,-5.6875,1.826172,-0.453125,0.3637695,-0.3115234,-0.1044922,-0.112793
435,8.625,3.3125,13.625,1.713867,-0.3095703,0.3442383,-0.309082,-0.1020508,-0.112793
439,9.5,13.0625,30.5625,1.554688,-0.2045898,0.3173828,-0.3115234,-0.1020508,-0.1113281
443,2.875,16.25,44.625,1.492676,-0.09179688,0.2675781,-0.3115234,-0.09814453,-0.112793
447,-3.3125,19.1875,56.75,1.446289,-0.06445313,0.1943359,-0.3105469,-0.09326172,-0.1157227
451,-8.4375,20,71.5625,1.39209,-0.04541016,0.1328125,-0.3105469,-0.08837891,-0.1181641
455,-13.5,16.75,87.4375,1.376465,-0.02978516,0.09033203,-0.3115234,-0.08056641,-0.1181641
459,-19.625,12.4375,103.75,1.458008,0.008789063,0.1289063,-0.3125,-0.07421875,-0.1181641
463,-28.8125,13.375,124.1875,1.558594,-0.01416016,0.140625,-0.3115234,-0.06298828,-0.1181641
467,-33.125,14.125,150.4375,1.605469,-0.02197266,0.1289063,-0.3115234,-0.04931641,-0.1210938
471,-32.9375,17.0625,172.4375,1.69043,-0.01025391,0.1367188,-0.3139648,-0.04052734,-0.1225586
475,-35.75,31.0625,188.9375,1.856934,0.1020508,0.2133789,-0.3115234,-0.02050781,-0.1235352
479,-43.5,40.25,208.3125,1.729004,0.07861328,0.1826172,-0.3066406,-0.0004882813,-0.1279297
483,-46,26.75,236.5,1.72168,0.1137695,0.159668,-0.3056641,0.01367188,-0.1289063
487,-51.75,17.6875,259.8125,1.798828,0.1679688,0.1826172,-0.2983398,0.03759766,-0.1303711
491,-50.75,14.875,266.5625,1.775879,0.1098633,0.1748047,-0.293457,0.0625,-0.1318359
495,-42.8125,17.875,271.375,1.794922,-0.006347656,0.1367188,-0.2875977,0.08105469,-0.1303711
499,-24.875,24.8125,274.625,1.771973,-0.04541016,0.1479492,-0.2724609,0.1049805,-0.1318359
503,-11.125,35.625,278.9375,1.709961,-0.04150391,0.1210938,-0.2617188,0.1289063,-0.1347656
507,-15.625,29.875,286.75,1.543457,0.03613281,0.159668,-0.2509766,0.1425781,-0.1357422
511,-21,20.1875,294.0625,1.500488,-0.07617188,0.1479492,-0.234375,0.1635742,-0.1357422
515,-17.0625,22.1875,292.1875,1.516113,-0.1655273,0.1479492,-0.2163086,0.1860352,-0.1386719
519,-0.3125,35.3125,288.1875,1.419434,-0.3520508,0.05566406,-0.2021484,0.1972656,-0.1401367
523,26.125,50.9375,283.0625,1.407715,-0.3637695,0.02099609,-0.1831055,0.2138672,-0.1416016
527,42.375,74.125,274.875,1.372559,-0.2978516,0.001953125,-0.1591797,0.2260742,-0.1469727
531,48.9375,83.1875,273.875,1.113281,-0.2045898,-0.02050781,-0.1450195,0.2324219,-0.1538086
535,33.4375,66.25,279.0625,0.9541016,-0.1499023,-0.03222656,-0.1201172,0.2426758,-0.1616211
539,13.0625,49,283.625,0.9501953,-0.1381836,0.03662109,-0.09472656,0.2460938,-0.1660156
543,1.4375,42.4375,278.75,0.9462891,-0.3134766,0.01367188,-0.07568359,0.2539063,-0.1674805
547,3.9375,40.0625,273.6875,0.9541016,-0.4257813,-0.001464844,-0.04980469,0.2573242,-0.168457
552,13.625,45,276,1.105469,-0.5424805,0.02099609,-0.02587891,0.2587891,-0.1699219
556,34.3125,67.4375,275,0.9541016,-0.6357422,-0.05517578,-0.01025391,0.2587891,-0.1728516
560,57.3125,71.75,279.1875,0.7412109,-0.503418,-0.05908203,0.01904297,0.2548828,-0.1767578
564,67.375,73.6875,281.5,0.578125,-0.3442383,-0.05126953,0.04736328,0.2485352,-0.1835938
568,72.625,78,274.625,0.3691406,-0.2124023,-0.03613281,0.06542969,0.2436523,-0.1865234
572,72,79.0625,262.875,0.206543,-0.1420898,-0.04736328,0.09033203,0.2299805,-0.1904297
576,61.375,63.125,260.4375,0.03564453,-0.09960938,-0.01318359,0.1142578,0.21875,-0.1943359
580,36.875,41.1875,255.75,-0.04101563,-0.05664063,0.09814453,0.1318359,0.2099609,-0.1987305
584,10,18.9375,258,-0.02978516,-0.2314453,0.1098633,0.1523438,0.1938477,-0.1972656
588,1.1875,1.25,268.625,-0.04492188,-0.4101563,0.1289063,0.1713867,0.1787109,-0.199707
592,10.6875,-0.125,271.4375,-0.03710938,-0.4492188,0.1328125,0.1831055,0.1699219,-0.199707
596,36.5,13.9375,263.5,-0.2001953,-0.3833008,0.05957031,0.2021484,0.1499023,-0.2026367
600,66.8125,27.875,238.5625,-0.3549805,-0.08007813,0.05175781,0.2163086,0.1313477,-0.2026367
604,83.75,33.5625,212.125,-0.7348633,0.284668,0.05566406,0.2260742,0.1152344,-0.2041016
608,92.8125,31.125,191.125,-1.099121,1.12793,-0.001464844,0.2368164,0.09228516,-0.206543
612,74.1875,16,149.25,-1.428223,0.9643555,0.06738281,0.2436523,0.07617188,-0.206543
616,53.75,-4.75,87.1875,-1.591309,1.158691,0.1210938,0.2475586,0.06640625,-0.2109375
620,32.75,-18.875,11.0625,-1.498047,1.057617,0.1674805,0.25,0.05615234,-0.2119141
624,21.8125,-21,-59.0625,-1.25,0.8208008,0.2402344,0.25,0.05761719,-0.2148438
628,10,-21.75,-110.875,-1.044922,0.6264648,0.3095703,0.2460938,0.06005859,-0.2133789
632,-5.375,-26.5,-146.6875,-0.8125,0.3544922,0.3671875,0.2412109,0.06982422,-0.2163086
636,-18.375,-24.1875,-158.3125,-0.5722656,0.1137695,0.3442383,0.2329102,0.08398438,-0.2202148
640,-19.6875,-24.6875,-158.9375,-0.5913086,-0.1074219,0.2905273,0.2285156,0.09228516,-0.21875
644,-11.5,-24.25,-172.75,-0.5527344,-0.1694336,0.2558594,0.21875,0.1035156,-0.2202148
648,0.9375,-17.8125,-202.9375,-0.5292969,-0.2163086,0.2558594,0.2080078,0.1176758,-0.2216797
652,9.75,-12.0625,-232.75,-0.4482422,-0.2163086,0.2788086,0.2011719,0.1274414,-0.2216797
656,1.75,-16.5,-252.875,-0.3203125,-0.1811523,0.3481445,0.1865234,0.1425781,-0.2216797
660,-17.75,-27.8125,-241.75,-0.1767578,-0.2978516,0.3134766,0.1699219,0.1577148,-0.2216797
664,-23.625,-43.375,-216.3125,-0.1611328,-0.4726563,0.2519531,0.1606445,0.1699219,-0.2216797
668,-11.25,-51,-206.375,-0.04882813,-0.5581055,0.2133789,0.1416016,0.1811523,-0.2216797
672,10,-38.25,-214.375,-0.06835938,-0.7250977,0.1904297,0.1259766,0.1914063,-0.2231445
676,31.4375,-29.3125,-246.125,-0.02587891,-0.4492188,0.2290039,0.112793,0.1972656,-0.2246094
681,38,-24.375,-267.5625,0.07080078,-0.3520508,0.2519531,0.09375,0.2036133,-0.2270508
685,28.25,-41.9375,-255.5,0.1791992,-0.4375,0.2211914,0.07226563,0.2099609,-0.230957
689,25.875,-65.25,-214.625,0.2954102,-0.5893555,0.2094727,0.05810547,0.2099609,-0.230957
693,32.25,-78.5625,-192.9375,0.4619141,-0.534668,0.2558594,0.04052734,0.2124023,-0.2353516
697,41.6875,-61,-207,0.5708008,-0.4257813,0.3017578,0.01904297,0.2124023,-0.2368164
701,53.9375,-43.0625,-240.6875,0.4580078,-0.3676758,0.2480469,0.005859375,0.2099609,-0.237793
705,60,-44.3125,-261.9375,0.4736328,-0.2939453,0.2172852,-0.01513672,0.2075195,-0.2421875
709,52.625,-60,-254.625,0.6713867,-0.2587891,0.2597656,-0.03662109,0.2036133,-0.2421875
713,35.3125,-81.875,-223.1875,0.8261719,-0.2392578,0.3212891,-0.05078125,0.2001953,-0.2446289
717,17.8125,-103.5,-201.4375,0.9697266,-0.3286133,0.3095703,-0.07128906,0.1923828,-0.2460938
721,19,-104.6875,-192.0625,1.147949,-0.4101563,0.3095703,-0.09228516,0.1860352,-0.2436523
725,35.75,-90.3125,-195.3125,1.074219,-0.5424805,0.1748047,-0.1054688,0.1826172,-0.2421875
729,66.75,-90.125,-188.0625,1.02002,-0.4726563,0.1328125,-0.1235352,0.1738281,-0.2407227
733,74.75,-93.3125,-188.625,0.8457031,-0.08007813,0.1328125,-0.1391602,0.1611328,-0.2421875
737,26.0625,-134.9375,-193.875,0.7373047,0.4477539,0.2402344,-0.1494141,0.1538086,-0.2407227
741,-61.875,-205.0625,-183.3125,0.9970703,0.921875,0.2211914,-0.1708984,0.1450195,-0.2338867
745,-143.875,-237.375,-167.25,1.353516,0.3505859,0.1865234,-0.1923828,0.1425781,-0.2148438
749,-156.6875,-225.75,-173.625,1.740723,-0.1967773,0.1518555,-0.2080078,0.1411133,-0.199707
753,-103.125,-161.25,-199.6875,2.000488,-0.3520508,0.1865234,-0.2270508,0.1401367,-0.1782227
757,-28.3125,-69.625,-224.5,2.000488,-0.4648438,0.140625,-0.2436523,0.1289063,-0.1660156
761,28.375,-20.4375,-243.6875,1.512207,-0.1967773,-0.01660156,-0.253418,0.1152344,-0.1616211
765,31.8125,-35.875,-249.125,1.179199,0.1445313,-0.1166992,-0.2636719,0.09765625,-0.1630859
769,12.25,-71.25,-242.0625,1.361328,0.1914063,-0.08203125,-0.2744141,0.07519531,-0.1591797
773,11.8125,-78.0625,-232.5625,1.647949,0.04003906,0.001953125,-0.2817383,0.0625,-0.1538086
777,40.25,-50.0625,-226.875,1.96582,-0.09570313,0.2094727,-0.2915039,0.04150391,-0.1455078
781,73.4375,-8.75,-215.25,1.918945,-0.08007813,0.3212891,-0.2958984,0.01855469,-0.144043
785,84.1875,8.5,-198.625,1.694336,0.07470703,0.3095703,-0.2983398,0.00390625,-0.1455078
789,55.625,-6.375,-174.5,1.384277,0.2299805,0.2368164,-0.3017578,-0.01708984,-0.1469727
793,22.375,-41.125,-148.4375,1.380371,0.04394531,0.2749023,-0.3041992,-0.03320313,-0.144043
797,10.125,-49.4375,-124.625,1.628418,-0.1191406,0.3945313,-0.3032227,-0.04296875,-0.1416016
801,14.1875,-32.6875,-102.6875,1.713867,-0.2509766,0.5136719,-0.3066406,-0.0546875,-0.137207
805,21.75,-13,-84.875,1.605469,-0.2626953,0.5288086,-0.3066406,-0.06445313,-0.1347656
810,25.375,0,-78,1.543457,-0.2084961,0.5673828,-0.3066406,-0.06933594,-0.1347656
814,13.3125,3.125,-60.6875,1.481445,-0.1381836,0.6176758,-0.3066406,-0.07714844,-0.1347656
818,-8.625,-5.0625,-35.0625,1.481445,-0.1035156,0.6137695,-0.3056641,-0.08203125,-0.1347656
822,-32.0625,-10,-7.75,1.504395,-0.1499023,0.5288086,-0.3056641,-0.08447266,-0.1357422
826,-44.125,-7.5625,14.5,1.539551,-0.2084961,0.3979492,-0.3081055,-0.08300781,-0.1347656
830,-46.375,0.4375,37.125,1.469727,-0.2666016,0.2368164,-0.3066406,-0.078125,-0.1333008
834,-35.9375,6.3125,52.8125,1.430664,-0.2783203,0.1518555,-0.3066406,-0.07568359,-0.1347656
838,-25.125,17.3125,63.5,1.43457,-0.1772461,0.1328125,-0.3066406,-0.06689453,-0.137207
842,-20.875,25.1875,71.5,1.388184,-0.08007813,0.159668,-0.3066406,-0.06201172,-0.137207
846,-26.4375,26.5625,84.75,1.368652,0.02441406,0.1826172,-0.3056641,-0.05712891,-0.1401367
850,-36.3125,24.875,98.5,1.403809,0.04736328,0.2060547,-0.3056641,-0.04589844,-0.1416016
854,-45.625,19.1875,120,1.407715,0.02050781,0.1904297,-0.3032227,-0.03466797,-0.1455078
858,-51,11.6875,138.6875,1.454102,0.02441406,0.1904297,-0.3041992,-0.0234375,-0.144043
862,-58.0625,8.9375,157.3125,1.558594,0.03613281,0.2211914,-0.3007813,-0.01171875,-0.1469727
866,-58.5,14.4375,171.25,1.616699,0.0009765625,0.2094727,-0.2983398,0.007324219,-0.1455078
870,-53.8125,20.4375,183.75,1.628418,0.0009765625,0.1787109,-0.2958984,0.01855469,-0.1469727
874,-49.1875,24.625,200.8125,1.589844,-0.006347656,0.1674805,-0.2924805,0.03759766,-0.1484375
878,-44.9375,24.4375,207.5625,1.512207,-0.01806641,0.1674805,-0.2866211,0.05859375,-0.1494141
882,-45.3125,25,212.0625,1.531738,0.008789063,0.2021484,-0.2807617,0.07128906,-0.1484375
886,-49.4375,25.0625,212.875,1.566406,-0.07226563,0.2329102,-0.2734375,0.09130859,-0.1508789
890,-47,27.25,220.5625,1.608887,-0.1772461,0.2250977,-0.2626953,0.1088867,-0.1523438
894,-40.875,31.5,230.8125,1.632324,-0.2392578,0.2329102,-0.2553711,0.1235352,-0.1494141
898,-29.4375,41.5,243.125,1.647949,-0.3173828,0.1787109,-0.2412109,0.1411133,-0.1508789
902,-12.375,57.25,249.1875,1.554688,-0.3208008,0.1748047,-0.2270508,0.1601563,-0.1523438
906,-5.375,63.3125,248.5,1.384277,-0.2084961,0.1518555,-0.21875,0.1699219,-0.15625
910,-7.8125,59.25,252.375,1.206055,-0.2006836,0.144043,-0.199707,0.1875,-0.1606445
914,-18.5,50.625,249.3125,1.105469,-0.1499023,0.1635742,-0.1806641,0.2036133,-0.1630859
918,-24.5,40.375,254.3125,1.13623,-0.3017578,0.1518555,-0.1674805,0.2099609,-0.1645508
922,-18.5,46.5625,258.25,1.209961,-0.3598633,0.1367188,-0.1474609,0.2236328,-0.1660156
926,-0.25,61,252.1875,1.179199,-0.4492188,0.1171875,-0.1259766,0.2348633,-0.1674805
930,16.625,75.375,244.375,1.097656,-0.3911133,0.09423828,-0.1113281,0.2397461,-0.1699219
934,25.75,86.375,236.5,1.02002,-0.387207,0.08642578,-0.08789063,0.2460938,-0.175293
939,25.875,86.375,237.6875,0.8730469,-0.324707,0.07128906,-0.06396484,0.25,-0.1796875
943,4.1875,72.0625,244.5,0.7641602,-0.1655273,0.1132813,-0.04736328,0.25,-0.1821289
947,-18.0625,58,247.4375,0.7373047,-0.3442383,0.09033203,-0.0234375,0.2548828,-0.1835938
951,-16.5,47.375,252.5625,0.7719727,-0.5581055,0.1098633,0,0.2548828,-0.1821289
955,1.125,57.125,251.625,0.7915039,-0.5620117,0.1020508,0.01660156,0.2524414,-0.1806641
959,10.5,70.5,238.3125,0.7412109,-0.4335938,0.1328125,0.04150391,0.25,-0.1821289
963,4.125,81.3125,223.875,0.6518555,-0.3520508,0.1748047,0.06542969,0.2460938,-0.1821289
967,-12.625,74.9375,213.625,0.4892578,-0.355957,0.2094727,0.07861328,0.2426758,-0.1806641
971,-40,54.5625,207.5,0.4467773,-0.4257813,0.2094727,0.09960938,0.2363281,-0.1796875
975,-57.25,34.875,224,0.3730469,-0.4414063,0.1865234,0.1210938,0.2299805,-0.1738281
979,-51.125,45.125,244.375,0.4736328,-0.565918,0.07910156,0.1342773,0.2260742,-0.168457
983,-16.25,75.6875,267,0.159668,-0.4882813,0.001953125,0.1557617,0.2163086,-0.1660156
987,22.1875,98.1875,271.0625,-0.3085938,0.0009765625,-0.04003906,0.1806641,0.2001953,-0.1616211
991,34.25,101.375,267.5,-0.9287109,0.3779297,-0.1323242,0.1972656,0.1884766,-0.1591797
995,40.3125,89.5,237.75,-1.436035,0.7973633,-0.1743164,0.21875,0.1689453,-0.1577148
999,41.375,78.375,173.125,-1.808105,0.956543,-0.2670898,0.2353516,0.1499023,-0.1538086
1003,37.0625,59.625,92.75,-1.967285,0.956543,-0.2475586,0.2426758,0.1411133,-0.1508789
1007,21.5625,29.8125,19,-1.831543,0.8520508,-0.128418,0.2485352,0.1337891,-0.1494141
1011,3.5625,3.3125,-36.0625,-1.494141,0.5683594,-0.03613281,0.2485352,0.1337891,-0.1494141
1015,-10.0625,-17.4375,-75.375,-1.137695,0.3041992,0.06738281,0.2460938,0.1362305,-0.1469727
1019,-22.375,-30.5625,-103.6875,-0.8432617,0.02441406,0.1020508,0.2426758,0.1450195,-0.1508789
1023,-23.6875,-34.75,-119.75,-0.5449219,-0.2392578,0.08642578,0.234375,0.1538086,-0.1508789
1027,-5.5625,-18.25,-131.0625,-0.4052734,-0.4921875,0.04052734,0.2285156,0.1601563,-0.1494141
1031,23.4375,4.125,-144.75,-0.4946289,-0.5,-0.1474609,0.2177734,0.1689453,-0.1508789
1035,43.4375,14.9375,-169.375,-0.6069336,-0.3017578,-0.05126953,0.2080078,0.1787109,-0.1523438
1039,35.6875,-1.1875,-192.125,-0.6147461,-0.2045898,0.07128906,0.2011719,0.1884766,-0.1538086
1043,8.1875,-27.5,-209.5,-0.4750977,-0.1191406,0.1557617,0.1865234,0.1987305,-0.15625
1047,-20.75,-46.9375,-220.75,-0.2348633,-0.2548828,0.144043,0.1689453,0.2114258,-0.1547852
1051,-20.6875,-43.625,-220,0.07470703,-0.5854492,0.09814453,0.1557617,0.2226563,-0.15625
1055,16.625,-16.25,-220.875,0.2026367,-0.8339844,0.07910156,0.1357422,0.2324219,-0.1547852
1059,58.8125,8.875,-220.625,0.2216797,-0.8378906,0.05566406,0.1152344,0.2412109,-0.1606445
1063,87.75,18.75,-206.5625,0.01660156,-0.6899414,0.02880859,0.105957,0.2451172,-0.1630859
1068,93.5625,2,-212.75,-0.1728516,-0.387207,0.08251953,0.08886719,0.2475586,-0.1699219
1072,70.3125,-24.9375,-227.625,-0.1186523,-0.2431641,0.125,0.06884766,0.2485352,-0.1767578
1076,46.1875,-55.0625,-230.75,0.03955078,-0.355957,0.140625,0.05322266,0.25,-0.1796875
1080,37.875,-72.375,-232.75,0.3266602,-0.4765625,0.2060547,0.03173828,0.2524414,-0.1835938
1084,36.9375,-80.5625,-216.125,0.6328125,-0.6162109,0.2675781,0.008300781,0.2524414,-0.1865234
1088,56.5,-55.5,-210,0.9814453,-0.8183594,0.3637695,-0.005859375,0.2509766,-0.1889648
1092,96.125,2.125,-226.4375,1.070313,-0.8496094,0.3598633,-0.02490234,0.2475586,-0.1943359
1096,128.875,39.4375,-227.125,0.7138672,-0.7753906,0.2749023,-0.04394531,0.2387695,-0.2011719
1100,114.125,-5.1875,-211.25,0.159668,-0.2705078,0.2944336,-0.05419922,0.2314453,-0.2094727
1104,48.75,-96.4375,-185.1875,0.4506836,0.03222656,0.4521484,-0.07226563,0.2211914,-0.2148438
1108,-2,-119.375,-184.0625,0.9311523,-0.2470703,0.4868164,-0.09130859,0.2163086,-0.2133789
1112,8.5,-90.625,-198.0625,1.357422,-0.6977539,0.4868164,-0.1054688,0.2138672,-0.2109375
1116,52.625,-31.6875,-190.0625,1.461914,-0.9233398,0.425293,-0.1235352,0.2036133,-0.2094727
1120,101.75,13,-177.4375,1.198242,-0.8535156,0.355957,-0.1376953,0.1962891,-0.2163086
1124,126.9375,23.4375,-166.25,0.6948242,-0.4067383,0.2905273,-0.1435547,0.1860352,-0.2202148
1128,99.0625,-27.1875,-159.375,0.3305664,0.05517578,0.3095703,-0.1518555,0.1713867,-0.2285156
1132,50.25,-87.75,-156.3125,0.4428711,0.1953125,0.340332,-0.1650391,0.15625,-0.2299805
1136,12.5625,-116,-174.125,0.7758789,0.1835938,0.4018555,-0.1748047,0.1499023,-0.2255859
1140,3.125,-115.75,-182.6875,1.082031,-0.08398438,0.4174805,-0.1914063,0.1401367,-0.21875
1144,26.1875,-87.6875,-176.8125,1.376465,-0.3520508,0.4135742,-0.206543,0.1313477,-0.2148438
1148,71.125,-45.8125,-160.5625,1.395996,-0.421875,0.3520508,-0.2138672,0.1201172,-0.2109375
1152,106.75,-4.1875,-168.25,1.244629,-0.1074219,0.2827148,-0.2236328,0.1035156,-0.2133789
1156,109.3125,-0.5625,-186.4375,0.7993164,0.2338867,0.2211914,-0.2304688,0.08740234,-0.2177734
1160,77.625,-56.6875,-181.875,0.6289063,0.4321289,0.2133789,-0.234375,0.07519531,-0.2177734
1164,41.6875,-111.625,-164.0625,0.8999023,0.4243164,0.2709961,-0.2436523,0.05761719,-0.2133789
1168,31.3125,-131.1875,-153.75,1.186523,0.2768555,0.3056641,-0.2543945,0.04248047,-0.206543
1172,41,-106.5,-165.6875,1.574219,0.4594727,0.4672852,-0.2626953,0.03369141,-0.199707
1176,42.1875,-60.25,-191.4375,1.484863,0.4594727,0.4287109,-0.2700195,0.01757813,-0.1928711
1180,49.875,-49.8125,-200.3125,1.275879,0.4243164,0.3056641,-0.2758789,-0.001953125,-0.1875
1184,41.4375,-62.1875,-194.25,1.256348,0.5332031,0.2172852,-0.2783203,-0.01318359,-0.1875
1188,29.875,-74.875,-183.375,1.341797,0.5097656,0.2211914,-0.2841797,-0.03076172,-0.1796875
1192,28.625,-76.0625,-172.25,1.539551,0.4360352,0.3017578,-0.2875977,-0.04931641,-0.1738281
1197,27.0625,-56.375,-172.5,1.651855,0.3974609,0.3789063,-0.2890625,-0.06054688,-0.1699219
1201,24.75,-41.8125,-156.6875,1.601563,0.2807617,0.3789063,-0.2915039,-0.07568359,-0.1645508
1205,22.4375,-36.625,-131.6875,1.582031,0.1757813,0.3671875,-0.2915039,-0.09082031,-0.1616211
1209,18.875,-32.5,-102.875,1.550781,0.1098633,0.3637695,-0.2915039,-0.09716797,-0.1591797
1213,17,-28.5,-73,1.481445,0.04003906,0.3637695,-0.2915039,-0.1069336,-0.1547852
1217,19.0625,-25.75,-49.1875,1.446289,0.01660156,0.3671875,-0.2900391,-0.1132813,-0.1538086
1221,20.4375,-13.4375,-34.0625,1.458008,0.06298828,0.4174805,-0.2900391,-0.1181641,-0.1523438
1225,22.625,-1.9375,-21.75,1.376465,0.07861328,0.4365234,-0.2915039,-0.1220703,-0.1494141
1229,18.875,3.75,-12.4375,1.310547,0.1333008,0.4672852,-0.2900391,-0.1230469,-0.1494141
1233,10.375,4.6875,-1.5625,1.29541,0.171875,0.4482422,-0.2890625,-0.1245117,-0.1508789
1237,-4.4375,-0.75,14.1875,1.256348,0.1875,0.4213867,-0.2900391,-0.1230469,-0.1508789
1241,-16.75,-8.125,31.8125,1.268066,0.1137695,0.3520508,-0.2900391,-0.1220703,-0.1494141
1245,-18.625,-8.125,47.5625,1.337891,0.05908203,0.3134766,-0.2900391,-0.1196289,-0.1494141
1249,-14.8125,0.25,60.1875,1.442383,0.06298828,0.3173828,-0.2915039,-0.1132813,-0.1484375
1253,-12.8125,14.5,70,1.430664,0.105957,0.2905273,-0.293457,-0.1069336,-0.1484375
1257,-13.625,19.875,83.625,1.388184,0.105957,0.2675781,-0.2949219,-0.1030273,-0.1508789
1261,-18.75,21.0625,102.625,1.415527,0.1835938,0.2866211,-0.2949219,-0.09423828,-0.1538086
1265,-28.0625,26.25,117.5625,1.458008,0.1992188,0.3017578,-0.2958984,-0.08203125,-0.1547852
1269,-32.5,29.9375,134.3125,1.446289,0.2109375,0.3251953,-0.2949219,-0.07421875,-0.1577148
1273,-41,32.4375,137.875,1.46582,0.2495117,0.3173828,-0.2949219,-0.06201172,-0.1591797
1277,-50.3125,32.625,149.0625,1.527832,0.1757813,0.3017578,-0.293457,-0.04589844,-0.1616211
1281,-51.9375,31.8125,170.1875,1.589844,0.1484375,0.3095703,-0.2924805,-0.03466797,-0.1645508
1285,-56.25,34.5,185.3125,1.624512,0.1875,0.3056641,-0.2915039,-0.01708984,-0.168457
1289,-61.625,33.875,198.8125,1.651855,0.1835938,0.3017578,-0.2875977,0.001464844,-0.1713867
1293,-64.3125,31.875,213.125,1.73291,0.1679688,0.3291016,-0.2827148,0.01611328,-0.1713867
1297,-65.875,28.9375,223.625,1.717773,0.105957,0.3095703,-0.2783203,0.03857422,-0.175293
1301,-73.625,13.625,241.375,1.736816,0.1796875,0.340332,-0.2700195,0.06005859,-0.1728516
1305,-84.125,-2.1875,270.1875,1.775879,0.03222656,0.3291016,-0.2661133,0.07763672,-0.1713867
1309,-68.125,10,281.4375,1.895996,-0.1811523,0.3017578,-0.2553711,0.1000977,-0.1713867
1313,-32.75,48.6875,280.125,1.895996,-0.2431641,0.2558594,-0.2436523,0.1235352,-0.168457
1317,0.1875,85.1875,272.3125,1.674805,-0.2275391,0.1865234,-0.2319336,0.1401367,-0.1728516
1321,14.25,102.25,270.375,1.442383,-0.08398438,0.1865234,-0.2138672,0.1577148,-0.1796875
1326,7.625,98.875,275.1875,1.248535,0.06298828,0.2368164,-0.1962891,0.1723633,-0.1865234
1330,-3.625,97.5625,270.875,1.151855,0.0009765625,0.2368164,-0.1791992,0.1811523,-0.1904297
1334,-10.875,93.1875,267.375,1.070313,0.05126953,0.2597656,-0.1567383,0.1962891,-0.1972656
1338,-32.8125,65.5625,280.875,0.8920898,0.02441406,0.2597656,-0.1342773,0.2084961,-0.2011719
1342,-44.875,45.875,285.875,1.078125,-0.02978516,0.2944336,-0.1176758,0.2163086,-0.199707
1346,-37.125,56.375,281.8125,1.082031,-0.2353516,0.2329102,-0.09375,0.2285156,-0.1958008
1350,-21,69.0625,279.25,1.035645,-0.1772461,0.1943359,-0.06982422,0.2338867,-0.1987305
1354,-17.4375,69.25,276.5,0.7993164,-0.1191406,0.1635742,-0.05224609,0.2412109,-0.1972656
1358,-18.6875,61.3125,275.75,0.7060547,-0.07617188,0.159668,-0.02490234,0.2426758,-0.1972656
1362,-24,58.625,272.5625,0.543457,-0.03759766,0.1171875,-0.0009765625,0.2451172,-0.1972656
1366,-29.1875,47.9375,266.8125,0.3339844,-0.04541016,0.09033203,0.01660156,0.2451172,-0.1972656
1370,-43.1875,23.25,264.5625,0.2529297,-0.05664063,0.105957,0.04150391,0.2436523,-0.1943359
1374,-48.8125,9.875,263.5625,0.2138672,-0.1850586,0.105957,0.06298828,0.2412109,-0.1928711
1378,-45.375,7.3125,254.9375,0.190918,-0.2470703,0.1020508,0.07861328,0.2373047,-0.1875
1382,-39.4375,1.1875,244.0625,0.07861328,-0.2900391,0.08642578,0.09960938,0.2314453,-0.1865234
1386,-41.1875,-7.8125,244.375,0.04345703,-0.2939453,0.1098633,0.1201172,0.2260742,-0.1835938
1390,-57.3125,-29.625,259.8125,-0.1264648,-0.2900391,0.1518555,0.1318359,0.21875,-0.1806641
1394,-81.25,-56,276.8125,-0.2270508,-0.3520508,0.1674805,0.1499023,0.2084961,-0.1796875
1398,-87.0625,-74.4375,287.6875,-0.1845703,-0.5776367,0.1479492,0.1699219,0.2001953,-0.1767578
1402,-55.1875,-51.625,274.75,-0.1459961,-0.7446289,0.09814453,0.1806641,0.1884766,-0.175293
1406,3.9375,-7.4375,233.5625,-0.2851563,-0.6821289,0.03271484,0.199707,0.1738281,-0.1782227
1410,58.9375,31.0625,191.1875,-0.5605469,-0.3364258,0.009765625,0.2104492,0.1577148,-0.1767578
1414,78.9375,39.25,167.8125,-1.041016,0.2109375,0.05957031,0.21875,0.1474609,-0.1796875
1418,63.5,17.5,147.4375,-1.35498,0.5566406,0.125,0.230957,0.1313477,-0.1806641
1422,34.6875,-7.75,117.375,-1.479004,0.7509766,0.1904297,0.237793,0.1176758,-0.1835938
1426,12.1875,-21.0625,56.4375,-1.475098,0.7119141,0.2172852,0.2402344,0.1098633,-0.1875
1430,11.4375,-17.75,-11.3125,-1.230957,0.4516602,0.2709961,0.2412109,0.1064453,-0.1875
1434,23.1875,-0.4375,-71.9375,-1.009766,0.2924805,0.3095703,0.2392578,0.1098633,-0.1904297
1438,31.625,16.125,-117.9375,-0.8276367,0.09814453,0.3056641,0.2368164,0.1137695,-0.1875
1442,36.5625,23.6875,-134.1875,-0.6884766,-0.08789063,0.2519531,0.230957,0.1225586,-0.1904297
1446,36.3125,20.75,-138.125,-0.7231445,-0.1347656,0.2060547,0.2260742,0.1298828,-0.1918945
1450,34.875,11.6875,-152.125,-0.7387695,-0.1733398,0.1479492,0.222168,0.1347656,-0.1904297
1455,35.875,7.1875,-174.9375,-0.6845703,-0.1694336,0.1289063,0.2138672,0.1450195,-0.1889648
1459,35.6875,0.5625,-198.875,-0.6376953,-0.2202148,0.140625,0.203125,0.1586914,-0.1918945
1463,34.375,-7.625,-217,-0.4326172,-0.2705078,0.1787109,0.1938477,0.1625977,-0.1943359
1467,38.9375,-10.125,-217.5625,-0.2851563,-0.4414063,0.1865234,0.1806641,0.1748047,-0.1943359
1471,51.875,-12.125,-212.375,-0.1962891,-0.4765625,0.2021484,0.1640625,0.1850586,-0.1987305
1475,64.125,-10.25,-213.5,-0.1650391,-0.4453125,0.2558594,0.1523438,0.1914063,-0.2011719
1479,58.625,-12.8125,-240.0625,-0.1186523,-0.2666016,0.3481445,0.1376953,0.1987305,-0.2080078
1483,37.6875,-24.1875,-250.25,0.0009765625,-0.3286133,0.390625,0.1176758,0.2060547,-0.2109375
1487,23.125,-41,-236.75,0.1445313,-0.5424805,0.3598633,0.1044922,0.2124023,-0.2133789
1491,24.9375,-51.4375,-209.6875,0.2568359,-0.6748047,0.2944336,0.08300781,0.21875,-0.2133789
1495,38.125,-51.5,-198.375,0.2529297,-0.6474609,0.2480469,0.06396484,0.2226563,-0.2163086
1499,47.625,-48.5625,-209.375,0.3188477,-0.519043,0.2749023,0.05224609,0.2226563,-0.2216797
1503,52.5,-35.9375,-232.625,0.4697266,-0.4453125,0.3520508,0.03320313,0.2226563,-0.2231445
1507,52.875,-27.0625,-251.0625,0.4155273,-0.4296875,0.3637695,0.01269531,0.2226563,-0.2270508
1511,44.0625,-46.0625,-245.6875,0.4931641,-0.5073242,0.3637695,0,0.2211914,-0.2299805
1515,38.9375,-65.25,-189.4375,0.59375,-0.6123047,0.3212891,-0.02246094,0.21875,-0.2299805
1519,48.375,-73.6875,-170.5625,0.578125,-0.550293,0.3056641,-0.04003906,0.2138672,-0.2368164
1523,60.125,-45.0625,-197.9375,0.8149414,-0.3095703,0.409668,-0.04980469,0.2084961,-0.2353516
1527,65.1875,-10.1875,-248.375,0.644043,-0.3095703,0.3828125,-0.06884766,0.2011719,-0.2392578
1531,62.5625,-32.5,-269.4375,0.6362305,-0.2353516,0.4560547,-0.08642578,0.1923828,-0.2407227
1535,26,-72.0625,-228.6875,0.8071289,-0.2241211,0.425293,-0.09960938,0.1835938,-0.2436523
1539,8.5625,-113.5,-169.5625,0.9194336,-0.4648438,0.4018555,-0.1201172,0.1787109,-0.2421875
1543,6.25,-123.125,-137.625,1.097656,-0.4140625,0.375,-0.1367188,0.1713867,-0.2353516
1547,11.125,-94.5625,-161.4375,1.268066,-0.2705078,0.4482422,-0.1450195,0.1674805,-0.2324219
1551,25.25,-56.5625,-199.5625,1.132324,-0.4414063,0.3364258,-0.1601563,0.1577148,-0.230957
1555,47.5,-59.3125,-211.4375,1.070313,-0.3950195,0.3173828,-0.1757813,0.1450195,-0.2285156
1559,36.625,-79,-202.75,1.287598,-0.2275391,0.390625,-0.1865234,0.1362305,-0.2270508
1563,10.6875,-106.5,-142.375,1.322266,-0.3676758,0.340332,-0.2006836,0.1235352,-0.2246094
1567,6.0625,-129,-94.3125,1.291504,-0.3989258,0.3251953,-0.2128906,0.1152344,-0.2148438
1571,6.4375,-105.3125,-100.375,1.450195,-0.1655273,0.3598633,-0.2211914,0.1123047,-0.2119141
1575,19.9375,-53.75,-141,1.271973,-0.3134766,0.2749023,-0.2294922,0.1064453,-0.2055664
1579,55.8125,-24.9375,-162.1875,1.097656,-0.4067383,0.1904297,-0.2363281,0.08984375,-0.2041016
1584,82.5625,-7.875,-163.6875,1.008301,-0.2163086,0.159668,-0.2412109,0.08105469,-0.2055664
1588,98.9375,-3.375,-162.8125,0.8261719,-0.09960938,0.09814453,-0.2485352,0.06494141,-0.2055664
1592,101.1875,-21.0625,-163.375,0.7294922,0.2070313,0.1171875,-0.253418,0.04736328,-0.2080078
1596,83.0625,-49.75,-169.625,0.7719727,0.4052734,0.1748047,-0.253418,0.03515625,-0.2080078
1600,63.6875,-68.375,-176.3125,1.012207,0.4594727,0.2709961,-0.2626953,0.01611328,-0.2055664
1604,57.1875,-70.3125,-185.0625,1.179199,0.4555664,0.3364258,-0.2675781,-0.001953125,-0.199707
1608,51.75,-64.25,-185.5,1.299316,0.5019531,0.355957,-0.2709961,-0.015625,-0.1958008
1612,43.6875,-66.625,-174.8125,1.271973,0.5019531,0.3095703,-0.2768555,-0.03076172,-0.1918945
1616,32.375,-79.9375,-166.8125,1.271973,0.5097656,0.2480469,-0.2807617,-0.04833984,-0.1850586
1620,20.4375,-90.5625,-166.75,1.415527,0.5292969,0.2675781,-0.2841797,-0.05957031,-0.1806641
1624,11.375,-80.125,-169,1.655762,0.4907227,0.3481445,-0.2866211,-0.07421875,-0.1728516
1628,2.8125,-61.6875,-152.4375,1.725586,0.3349609,0.3867188,-0.2875977,-0.08837891,-0.1660156
1632,-3.75,-50.0625,-121.625,1.674805,0.1875,0.3710938,-0.2900391,-0.09716797,-0.1616211
1636,-9.5,-48.6875,-85.375,1.585938,0.06298828,0.3520508,-0.2890625,-0.1054688,-0.15625
1640,-8.5,-44,-52.4375,1.585938,-0.04882813,0.355957,-0.2915039,-0.1132813,-0.1547852
1644,-2.8125,-27.3125,-31.375,1.597656,-0.06835938,0.3828125,-0.2915039,-0.1157227,-0.1508789
1648,7.75,-4.875,-13.4375,1.531738,-0.08789063,0.3867188,-0.2900391,-0.1157227,-0.1508789
1652,14.375,9.875,6.0625,1.399902,0.0009765625,0.3481445,-0.2915039,-0.1181641,-0.1508789
1656,18.0625,15.1875,18.125,1.318359,0.07080078,0.3291016,-0.2915039,-0.1181641,-0.1523438
1660,17.0625,16.5,28.3125,1.299316,0.06298828,0.3173828,-0.2900391,-0.1157227,-0.1523438
1664,17.3125,19.0625,38.1875,1.341797,0.07861328,0.3979492,-0.2915039,-0.1142578,-0.1523438
1668,7.375,28.5,48.9375,1.372559,0.2226563,0.4672852,-0.2900391,-0.1108398,-0.1523438
1672,-17.375,28.1875,60,1.29541,0.2963867,0.4672852,-0.2900391,-0.1083984,-0.1577148
1676,-46.875,6.875,83.5,1.22168,0.1796875,0.3945313,-0.2900391,-0.09814453,-0.1591797
1680,-67.125,-13.8125,106,1.368652,0.1293945,0.3671875,-0.2915039,-0.09326172,-0.1577148
1684,-75.5,-15.0625,126.6875,1.554688,-0.04150391,0.3251953,-0.2924805,-0.08056641,-0.1577148
1688,-60.625,1.125,143.5,1.702148,-0.1269531,0.3134766,-0.2949219,-0.06445313,-0.1577148
1692,-39.75,27.25,151,1.729004,-0.09960938,0.2983398,-0.2949219,-0.0546875,-0.1606445
1696,-26.75,45.3125,162.8125,1.59375,-0.006347656,0.2675781,-0.2924805,-0.03955078,-0.1630859
1700,-24.25,45.5625,171.0625,1.496582,0.07861328,0.2441406,-0.2900391,-0.02441406,-0.1660156
1704,-38.5625,36.4375,178.5625,1.426758,0.1914063,0.2441406,-0.2890625,-0.01318359,-0.1674805
1708,-50.75,25,185.5625,1.570313,0.08251953,0.2749023,-0.2851563,0.00390625,-0.1728516
1713,-47.625,36.9375,187.8125,1.841797,-0.07617188,0.3017578,-0.2792969,0.02490234,-0.1728516
1717,-34.0625,60.5625,198.625,1.922852,-0.1616211,0.2675781,-0.2783203,0.03515625,-0.175293
1721,-25.75,67.75,223.5,1.864746,-0.09570313,0.2597656,-0.2700195,0.05371094,-0.1796875
1725,-30.6875,65.0625,255.3125,1.76416,-0.006347656,0.2329102,-0.2602539,0.07373047,-0.1850586
1729,-42.9375,49.75,273.25,1.620605,0.07861328,0.2480469,-0.2509766,0.08886719,-0.1865234
1733,-56.875,37.5,279.75,1.550781,0.07080078,0.2944336,-0.2387695,0.1123047,-0.1889648
1737,-61.5625,34.75,284.6875,1.5625,-0.07226563,0.2866211,-0.2236328,0.1337891,-0.1875
1741,-52.0625,38.6875,299.6875,1.5625,-0.1694336,0.3017578,-0.2114258,0.1489258,-0.1889648
1745,-39.3125,55.8125,293.75,1.585938,-0.07617188,0.3291016,-0.1938477,0.1699219,-0.1875
1749,-41.3125,77.3125,278.5,1.659668,-0.01025391,0.3364258,-0.1733398,0.1860352,-0.1904297
1753,-49.25,85.125,291.375,1.48877,-0.1928711,0.2597656,-0.1601563,0.1972656,-0.1918945
1757,-36.25,83,298.125,1.260254,-0.2900391,0.1479492,-0.1352539,0.2124023,-0.1928711
1761,-18.9375,77.75,301.4375,1.330078,-0.3286133,0.1557617,-0.1079102,0.2260742,-0.1928711
1765,3.4375,106.375,296.75,1.430664,-0.3286133,0.1210938,-0.09033203,0.2324219,-0.1958008
1769,30.5625,131.0625,310.25,1.05127,-0.2861328,0.01367188,-0.05908203,0.2363281,-0.199707
1773,33.4375,123,321.1875,0.6557617,0.1484375,0.01367188,-0.03076172,0.2397461,-0.2055664
1777,-1.625,89.8125,326.5,0.4428711,0.269043,0.06347656,-0.006835938,0.2387695,-0.2080078
1781,-16.4375,70.75,319.875,0.3032227,0.05908203,0.03662109,0.02587891,0.2373047,-0.206543
1785,-12.0625,64.375,295.3125,0.3266602,0.03613281,0.07128906,0.05566406,0.2338867,-0.206543
1789,-4.4375,73.125,278.4375,0.3496094,-0.1113281,0.03662109,0.07128906,0.2275391,-0.2055664
1793,26,90.9375,275.625,0.3188477,-0.2314453,-0.009277344,0.09863281,0.2197266,-0.2041016
1797,55.125,108.75,263.0625,0.0009765625,-0.04882813,-0.05517578,0.1225586,0.2075195,-0.2041016
1801,45.875,97.1875,246.125,-0.4326172,0.3779297,-0.06298828,0.1416016,0.1962891,-0.2041016
1805,12.875,61.0625,218.875,-0.7543945,0.4985352,-0.03613281,0.1630859,0.1811523,-0.2011719
1809,-14.8125,34.75,179.75,-0.8549805,0.4125977,0.01708984,0.1796875,0.1713867,-0.2011719
1813,-34.6875,19.0625,143.0625,-0.8818359,0.269043,-0.01318359,0.1879883,0.1635742,-0.199707
1817,-29.5,11.8125,111.1875,-0.9326172,0.1176758,-0.009277344,0.1972656,0.15625,-0.1972656
1821,-8.1875,18.125,70.25,-0.9365234,0.06689453,0.001953125,0.2055664,0.1513672,-0.1943359
1825,14.1875,28.3125,31.5,-0.9790039,0.06298828,0.009765625,0.2080078,0.1499023,-0.1943359
1829,30.5,31.875,-1.75,-1.083496,0.09423828,0.01708984,0.2104492,0.1474609,-0.1928711
1833,30.875,18.5,-33.6875,-1.20752,0.1835938,0.02880859,0.2094727,0.1459961,-0.1943359
1837,15.625,-1.4375,-65.5,-1.125977,0.2299805,0.09423828,0.2094727,0.1459961,-0.1943359
1842,-3.1875,-18.8125,-97.3125,-1.013672,0.08251953,0.1171875,0.2045898,0.1523438,-0.1958008
1846,-12.75,-33.6875,-125.1875,-0.831543,-0.07226563,0.1518555,0.1962891,0.1611328,-0.1958008
1850,-12.1875,-35.125,-143.125,-0.6108398,-0.2509766,0.1518555,0.1904297,0.1660156,-0.1958008
1854,2.6875,-28.625,-160.1875,-0.4868164,-0.3989258,0.1518555,0.1757813,0.1762695,-0.1958008
1858,16.75,-20.6875,-178,-0.3510742,-0.1967773,0.2290039,0.1665039,0.1850586,-0.199707
1862,15.8125,-25.1875,-185.375,-0.3432617,-0.3520508,0.2519531,0.1547852,0.1899414,-0.1987305
1866,5.8125,-35.125,-183.75,-0.2348633,-0.355957,0.2983398,0.1425781,0.1987305,-0.199707
1870,1.0625,-37.5,-188.4375,-0.1650391,-0.46875,0.2368164,0.1269531,0.2075195,-0.2055664
1874,15.0625,-35.5625,-195.8125,-0.1186523,-0.581543,0.1713867,0.1142578,0.2124023,-0.2041016
1878,29.75,-33.5625,-208,-0.002441406,-0.5463867,0.2133789,0.09619141,0.2197266,-0.206543
1882,36,-32.3125,-208.625,0.1132813,-0.5698242,0.2211914,0.07861328,0.2226563,-0.206543
1886,38.5625,-38.375,-204.5,0.206543,-0.6044922,0.2519531,0.06787109,0.2275391,-0.2119141
1890,47.75,-35,-207.5,0.3339844,-0.6240234,0.2597656,0.04882813,0.2275391,-0.2148438
1894,53,-31.625,-203.6875,0.3266602,-0.5698242,0.2636719,0.02978516,0.2275391,-0.2177734
1898,55.75,-39.625,-202.625,0.2568359,-0.484375,0.2675781,0.01660156,0.2275391,-0.2202148
1902,51.75,-53.75,-201.5625,0.2646484,-0.3637695,0.2558594,0.0009765625,0.2236328,-0.2270508
1906,43.1875,-63.625,-214.75,0.3925781,-0.2006836,0.3330078,-0.01855469,0.2211914,-0.2270508
1910,24.4375,-69.125,-238.5625,0.5395508,-0.1269531,0.390625,-0.03173828,0.21875,-0.2299805
1914,-0.875,-74.75,-258.375,0.7568359,-0.08007813,0.4404297,-0.05664063,0.2148438,-0.2285156
1918,-14.625,-74.625,-250.875,0.8959961,-0.2939453,0.3481445,-0.078125,0.2099609,-0.2255859
1922,-4.3125,-75.9375,-227.8125,0.8110352,-0.3950195,0.2519531,-0.09375,0.2050781,-0.2231445
1926,12.875,-76.5625,-225.75,0.8691406,-0.3173828,0.2402344,-0.112793,0.2001953,-0.21875
1930,24.125,-67.5625,-247.6875,1.124512,-0.2314453,0.3330078,-0.1328125,0.1899414,-0.2177734
1934,29.1875,-56.4375,-246.4375,1.353516,-0.2705078,0.3520508,-0.1474609,0.1826172,-0.2133789
1938,34.5,-42.5,-229.3125,1.322266,-0.2861328,0.3330078,-0.1640625,0.1713867,-0.2133789
1942,35.8125,-48.0625,-204.875,1.089844,-0.2392578,0.2211914,-0.1806641,0.1547852,-0.2148438
1946,38.1875,-73.75,-182.5625,0.9389648,-0.1772461,0.159668,-0.1889648,0.1474609,-0.2119141
1950,36.9375,-88.6875,-184,1.043457,0.01269531,0.1904297,-0.2045898,0.1362305,-0.2109375
1954,34.25,-89.3125,-211.5,1.322266,0.09814453,0.3017578,-0.21875,0.1210938,-0.2055664
1958,30.3125,-64.8125,-223.625,1.651855,0.08642578,0.375,-0.2270508,0.1098633,-0.2026367
1962,25.375,-50.25,-203.375,1.42334,-0.08007813,0.3095703,-0.2387695,0.09375,-0.2011719
1966,33.1875,-64.6875,-176.9375,1.271973,-0.06835938,0.2441406,-0.2485352,0.07617188,-0.1972656
1971,32.75,-73.8125,-161,1.244629,0.04003906,0.1826172,-0.253418,0.06982422,-0.1958008
1975,39.25,-74.4375,-159.125,1.225586,0.09033203,0.1557617,-0.2636719,0.05371094,-0.1904297
1979,47.625,-62.6875,-176.25,1.260254,0.2070313,0.1748047,-0.2709961,0.04003906,-0.1835938
1983,53.5625,-46.125,-191.8125,1.283691,0.2729492,0.2060547,-0.2758789,0.02734375,-0.1821289
1987,58,-38.25,-192.9375,1.283691,0.315918,0.2441406,-0.2807617,0.008789063,-0.1782227
1991,54.875,-40.6875,-184.375,1.237305,0.3896484,0.2172852,-0.2827148,-0.01074219,-0.1767578
1995,48.375,-50.875,-178.3125,1.271973,0.4946289,0.2636719,-0.2841797,-0.02197266,-0.1728516
1999,30.3125,-61.0625,-172.9375,1.388184,0.5175781,0.2866211,-0.2890625,-0.04052734,-0.168457
2003,18.9375,-60.5625,-172.125,1.500488,0.4555664,0.3173828,-0.2924805,-0.05712891,-0.1645508
2007,11.375,-53.75,-167,1.605469,0.3120117,0.3481445,-0.2915039,-0.06835938,-0.1616211
2011,5.75,-46,-144.5625,1.63623,0.1796875,0.3251953,-0.2949219,-0.08447266,-0.1547852
2015,5.3125,-41.75,-115.3125,1.59375,0.05517578,0.3364258,-0.2949219,-0.09423828,-0.1523438
2019,3.375,-39.875,-84.3125,1.589844,0.01660156,0.3789063,-0.2949219,-0.1005859,-0.1469727
2023,5.0625,-33.0625,-59.25,1.612793,-0.04150391,0.4599609,-0.293457,-0.1083984,-0.1469727
2027,4.0625,-19.5625,-45.875,1.616699,-0.03759766,0.5136719,-0.2958984,-0.1132813,-0.1425781
2031,-2.1875,-8.75,-26.875,1.589844,-0.04541016,0.5483398,-0.2958984,-0.1132813,-0.1416016
2035,-14,-6.4375,-3.875,1.543457,-0.05664063,0.5249023,-0.2958984,-0.1157227,-0.1416016
2039,-28.375,-13.375,24.125,1.516113,-0.06445313,0.4750977,-0.2949219,-0.1157227,-0.1416016
2043,-45.3125,-26.25,55.1875,1.566406,-0.09570313,0.3789063,-0.2958984,-0.1132813,-0.1416016
2047,-54.5,-30,85,1.698242,-0.1577148,0.3134766,-0.2973633,-0.1044922,-0.1401367
2051,-54.0625,-17,101,1.822266,-0.1347656,0.2749023,-0.2998047,-0.09570313,-0.137207
2055,-55.9375,-3.6875,121.6875,1.794922,-0.1113281,0.2368164,-0.3017578,-0.08544922,-0.137207
2059,-57.5,-4.0625,152,1.752441,-0.09570313,0.2211914,-0.3032227,-0.07177734,-0.137207
2063,-59.1875,-11.875,184,1.768066,-0.09179688,0.1943359,-0.3056641,-0.05566406,-0.137207
2067,-56.875,-15,211.5625,1.888184,-0.03759766,0.2290039,-0.3056641,-0.04199219,-0.1357422
2071,-54.1875,-5.75,228.25,2.035156,0.02050781,0.3173828,-0.3041992,-0.01953125,-0.1347656
2075,-47.0625,9.6875,244.5,2.046875,0.01660156,0.2709961,-0.3017578,0.004882813,-0.1333008
2079,-33.75,16.8125,266.25,2.004395,0.04736328,0.2172852,-0.3007813,0.02246094,-0.1347656
2083,-27.8125,19.25,291.8125,1.911133,0.1484375,0.159668,-0.293457,0.04736328,-0.1333008
2087,-22.25,17.125,310.625,1.768066,0.171875,0.1328125,-0.2841797,0.07519531,-0.137207
2091,-12.4375,23.75,307.4375,1.725586,0.1835938,0.159668,-0.2758789,0.09375,-0.1386719
2095,-4,37.3125,301.125,1.628418,0.1523438,0.1328125,-0.2636719,0.1210938,-0.1425781
2100,6.125,42.625,301.6875,1.492676,0.07861328,0.07910156,-0.2470703,0.1411133,-0.1425781
2104,8,42.875,301.6875,1.46582,0.1254883,0.06347656,-0.2363281,0.1577148,-0.1469727
2108,-1.875,38.625,298.5,1.407715,0.1601563,0.09423828,-0.215332,0.1772461,-0.1494141
2112,-9.0625,33.8125,298.5625,1.326172,-0.03369141,0.06738281,-0.1962891,0.1938477,-0.1538086
2116,4.75,42.875,293.9375,1.438477,-0.1230469,0.1020508,-0.1831055,0.2060547,-0.1538086
2120,20.6875,77.125,272.875,1.372559,-0.1191406,0.04785156,-0.1591797,0.21875,-0.1547852
2124,22.0625,84.75,263.1875,1.198242,-0.08007813,0.03271484,-0.1352539,0.2299805,-0.1645508
2128,11.875,71.6875,275.875,0.9970703,-0.09960938,0.009765625,-0.1201172,0.2363281,-0.1674805
2132,-0.375,48.5,282.0625,0.9892578,-0.1381836,0.04443359,-0.09619141,0.2436523,-0.1699219
2136,0,56,281.9375,1.012207,-0.2353516,0.03271484,-0.06884766,0.25,-0.1713867
2140,20.9375,73.875,267.3125,0.8535156,-0.371582,-0.03222656,-0.05322266,0.2539063,-0.1738281
2144,47.5,90,257.1875,0.7680664,-0.340332,-0.05517578,-0.02685547,0.2548828,-0.1796875
2148,63.25,106.0625,247.6875,0.6289063,-0.2202148,-0.02441406,-0.0009765625,0.2509766,-0.1850586
2152,62.75,108.1875,246.1875,0.4038086,-0.1694336,-0.03613281,0.02001953,0.2509766,-0.1889648
2156,55.4375,93.9375,245.4375,0.2607422,-0.1230469,0.01367188,0.04394531,0.2436523,-0.1918945
2160,34.9375,77.375,242.875,0.109375,-0.07617188,0.05566406,0.06982422,0.2363281,-0.1972656
2164,20.375,58.9375,236.6875,-0.02197266,-0.1230469,0.105957,0.08544922,0.2299805,-0.1987305
2168,8.5,49.75,212.5625,-0.01806641,-0.1733398,0.1518555,0.1079102,0.2211914,-0.199707
2172,-5.125,37.625,210.125,-0.1147461,-0.2705078,0.144043,0.125,0.2138672,-0.1958008
2176,-20.5,15.875,229.0625,-0.215332,-0.3134766,0.1289063,0.1376953,0.2060547,-0.1943359
2180,-30.75,-5.5,239.25,-0.2734375,-0.3481445,0.140625,0.1547852,0.1948242,-0.1943359
2184,-27.875,-9.6875,237.1875,-0.2734375,-0.3989258,0.1367188,0.1723633,0.1860352,-0.1943359
2188,-12.3125,0.75,212.625,-0.3203125,-0.421875,0.1635742,0.1796875,0.1772461,-0.1943359
2192,11.8125,23.9375,183.3125,-0.3823242,-0.3950195,0.1865234,0.1938477,0.1635742,-0.1904297
2196,41.75,38.6875,171.8125,-0.5175781,-0.4067383,0.1210938,0.2080078,0.1489258,-0.1943359
2200,71.5,40.75,164.3125,-0.7348633,-0.2509766,0.1098633,0.215332,0.1401367,-0.1943359
2204,81.9375,39.0625,141.75,-0.8818359,0.008789063,0.144043,0.2260742,0.1235352,-0.1958008
2208,69.875,31.75,108.5,-1.009766,0.1254883,0.1904297,0.234375,0.1088867,-0.1958008
2212,57.25,19.375,79.4375,-1.125977,0.1367188,0.1635742,0.2392578,0.1035156,-0.1972656
2216,51.875,8.3125,44.5,-1.184082,0.1254883,0.1171875,0.2412109,0.09375,-0.199707
2220,53.5625,1.125,9.5625,-1.180664,0.1875,0.09033203,0.2451172,0.08740234,-0.1987305
2224,51.375,-1.3125,-26.375,-1.157227,0.2651367,0.1289063,0.2451172,0.08740234,-0.2041016
2229,40.5625,-6.625,-68.4375,-1.133789,0.300293,0.1713867,0.2426758,0.08496094,-0.2055664
2233,19.625,-15.1875,-103.125,-1.056641,0.284668,0.2133789,0.237793,0.08984375,-0.2055664
2237,-2.875,-27.8125,-129.25,-0.9248047,0.15625,0.2402344,0.2353516,0.09619141,-0.206543
2241,-17.3125,-37.75,-148.5625,-0.7617188,0.04003906,0.2519531,0.2285156,0.1074219,-0.2094727
2245,-25.4375,-40.75,-162.9375,-0.6225586,-0.1035156,0.2558594,0.2177734,0.1210938,-0.2109375
2249,-22.75,-40.75,-176.1875,-0.5292969,-0.2124023,0.2172852,0.2094727,0.1298828,-0.2094727
2253,-15.5,-38.9375,-190.9375,-0.4594727,-0.2822266,0.2133789,0.1987305,0.1411133,-0.2094727
2257,-5.5,-38.3125,-208.3125,-0.3588867,-0.3481445,0.2329102,0.184082,0.15625,-0.2133789
2261,0.625,-31.75,-219.5625,-0.215332,-0.324707,0.2519531,0.1738281,0.1660156,-0.2148438
2265,0.4375,-31.625,-226.5625,-0.1923828,-0.3637695,0.2329102,0.1582031,0.1762695,-0.2163086
2269,-0.375,-39,-224,-0.1342773,-0.387207,0.1943359,0.1391602,0.1884766,-0.2163086
2273,-2.6875,-55.5,-214.375,-0.1186523,-0.4257813,0.1865234,0.1269531,0.1962891,-0.2163086
2277,-1.5,-66.625,-217.375,0.01269531,-0.421875,0.1943359,0.109375,0.2050781,-0.2177734
2281,4.875,-64.8125,-228.6875,0.175293,-0.4570313,0.2329102,0.08789063,0.2114258,-0.2202148
2285,12.1875,-55.875,-247.5625,0.3925781,-0.519043,0.3017578,0.07470703,0.2172852,-0.2202148
2289,23.5,-39.875,-254,0.4580078,-0.5229492,0.2709961,0.05078125,0.2226563,-0.2231445
2293,36.5,-34.6875,-245.6875,0.4736328,-0.5854492,0.2368164,0.02978516,0.2226563,-0.2231445
2297,47.8125,-43,-226.125,0.3999023,-0.5268555,0.2368164,0.01513672,0.2211914,-0.2285156
2301,48.125,-63.5625,-221.9375,0.4506836,-0.3989258,0.2983398,-0.003417969,0.2211914,-0.2285156
2305,36.0625,-77.9375,-229.5,0.7373047,-0.2587891,0.425293,-0.02685547,0.2148438,-0.2324219
2309,12.875,-68.375,-244.75,0.9501953,-0.2202148,0.4560547,-0.04003906,0.2138672,-0.2324219
2313,2,-63.1875,-239.6875,0.8535156,-0.4335938,0.340332,-0.06054688,0.2099609,-0.2285156
2317,17.0625,-65.9375,-220.9375,0.8339844,-0.5698242,0.2290039,-0.08398438,0.2060547,-0.230957
2321,42.0625,-62.8125,-202.8125,0.7993164,-0.5112305,0.1713867,-0.09716797,0.2011719,-0.2270508
2325,64.875,-63.25,-203.0625,0.6870117,-0.3754883,0.140625,-0.1113281,0.1938477,-0.2299805
2329,64.4375,-81.6875,-224.375,0.8842773,-0.03759766,0.2749023,-0.1303711,0.1801758,-0.2299805
2333,39.0625,-85.625,-236.8125,1.194336,0.09423828,0.4174805,-0.1425781,0.1699219,-0.230957
2337,4.5625,-94.3125,-230.3125,1.144043,0.03613281,0.3637695,-0.1640625,0.1586914,-0.2270508
2341,-13.0625,-119.5625,-202.0625,1.0625,-0.1308594,0.2172852,-0.1831055,0.1474609,-0.2202148
2345,-6.625,-130.875,-180.8125,1.078125,-0.2006836,0.125,-0.1938477,0.1425781,-0.2148438
2349,10.5625,-121.5625,-175.125,1.101563,-0.1269531,0.08251953,-0.2089844,0.1313477,-0.206543
2353,32.3125,-106.5625,-182.3125,0.9970703,-0.01416016,0.02099609,-0.2246094,0.1186523,-0.1987305
2358,51.875,-96.8125,-198.375,0.9814453,0.1757813,-0.005371094,-0.2329102,0.1113281,-0.1972656
2362,56.3125,-97.5625,-217.8125,0.9350586,0.4204102,-0.03613281,-0.2460938,0.09228516,-0.1904297
2366,58.25,-112.5625,-233.5,0.9853516,0.3544922,-0.01318359,-0.2578125,0.07275391,-0.1850586
2370,48.125,-124.9375,-245.375,1.388184,0.6108398,0.06738281,-0.2685547,0.05761719,-0.1796875
2374,52.1875,-124.5625,-238.625,1.729004,0.5253906,0.1557617,-0.2783203,0.03613281,-0.1713867
2378,66.6875,-98.375,-229.75,2.058594,0.4790039,0.2250977,-0.2900391,0.01367188,-0.1630859
2382,82.8125,-57.6875,-234.125,2.108887,0.4790039,0.2558594,-0.293457,-0.003417969,-0.1577148
2386,82.0625,-30.0625,-249.3125,2.016113,0.4399414,0.2827148,-0.2958984,-0.02832031,-0.1523438
2390,67.0625,-27.6875,-248.5,1.915039,0.2885742,0.3134766,-0.2973633,-0.05175781,-0.1508789
2394,31.375,-41.875,-205.625,2.016113,0.21875,0.4326172,-0.3007813,-0.06933594,-0.1484375
2398,-11.125,-58.5625,-127.75,2.004395,-0.06054688,0.4829102,-0.3007813,-0.08544922,-0.144043
2402,-33.3125,-66.125,-64.4375,1.942383,-0.2509766,0.4287109,-0.3017578,-0.09570313,-0.1386719
2406,-25.8125,-49,-24.5625,1.876465,-0.4453125,0.3598633,-0.3007813,-0.09814453,-0.1347656
2410,12,-10.75,-12.9375,1.748535,-0.5620117,0.3945313,-0.3032227,-0.09814453,-0.1318359
2414,46.875,19,-12.1875,1.554688,-0.3134766,0.4521484,-0.3041992,-0.1005859,-0.1333008
2418,55.875,31.5625,-5.5,1.415527,-0.06445313,0.5595703,-0.3017578,-0.1054688,-0.1303711
2422,25.5,23.8125,8.5,1.237305,0.2456055,0.6020508,-0.3017578,-0.1044922,-0.1347656
2426,-24.125,-2.5625,26.0625,1.19043,0.2924805,0.6020508,-0.3032227,-0.1030273,-0.1347656
2430,-65.0625,-17.125,40.875,1.337891,0.1254883,0.4404297,-0.3007813,-0.1005859,-0.1347656
2434,-82.375,-19.4375,58.625,1.407715,-0.09179688,0.2675781,-0.3032227,-0.09326172,-0.1347656
2438,-79.0625,-13.4375,74.8125,1.481445,-0.2045898,0.1518555,-0.3032227,-0.08544922,-0.1347656
2442,-69.5,-2.8125,94.5,1.539551,-0.2626953,0.08642578,-0.3041992,-0.07714844,-0.1318359
2446,-54.1875,4.0625,113.3125,1.585938,-0.2124023,0.1098633,-0.3041992,-0.06445313,-0.1347656
2450,-50.0625,12.875,124.4375,1.644043,-0.1230469,0.1518555,-0.3066406,-0.05322266,-0.1357422
2454,-51.1875,15.3125,143.3125,1.670898,-0.08398438,0.1826172,-0.3056641,-0.04199219,-0.1357422
2458,-56.9375,17.4375,167.75,1.729004,-0.03759766,0.1748047,-0.3041992,-0.02685547,-0.1386719
2462,-60.0625,16.875,196.375,1.666992,-0.08789063,0.140625,-0.3041992,-0.008300781,-0.1401367
2466,-50.5,13,215.75,1.694336,-0.09960938,0.1557617,-0.3017578,0.006347656,-0.1386719
2470,-42.8125,21.3125,221.125,1.760254,-0.01416016,0.1904297,-0.2958984,0.02636719,-0.1401367
2474,-38.0625,33.875,217.1875,1.756348,0.004882813,0.2250977,-0.2924805,0.04882813,-0.1416016
2478,-35.125,41.125,220.9375,1.744629,-0.07226563,0.1982422,-0.2866211,0.0625,-0.144043
2482,-25.875,42.4375,240.4375,1.775879,-0.1420898,0.1826172,-0.2758789,0.08251953,-0.1469727
2487,-19.625,46.75,258.5625,1.73291,-0.08007813,0.1713867,-0.2661133,0.1025391,-0.1508789
2491,-17.9375,50.25,260.9375,1.63623,-0.04882813,0.1865234,-0.2578125,0.1176758,-0.1523438
2495,-17.25,55.875,258.1875,1.589844,-0.09570313,0.1518555,-0.2436523,0.1376953,-0.1538086
2499,-11.875,61.1875,258.1875,1.578125,-0.1733398,0.140625,-0.2270508,0.15625,-0.1591797
2503,-2.25,68.5625,259.0625,1.504395,-0.2006836,0.125,-0.215332,0.1674805,-0.1606445
2507,-3.5,67.875,267.75,1.43457,-0.1308594,0.1171875,-0.1982422,0.1826172,-0.1660156
2511,-5.5625,63.5625,280.25,1.252441,-0.1850586,0.06738281,-0.1782227,0.1987305,-0.1699219
2515,1.8125,65.3125,274.125,1.229492,-0.1889648,0.07910156,-0.1640625,0.2084961,-0.1728516
2519,11.3125,78.6875,259.75,1.140137,-0.2006836,0.07910156,-0.1401367,0.2197266,-0.175293
2523,20.625,87.125,250.9375,0.9619141,-0.1967773,0.02880859,-0.1162109,0.2299805,-0.1806641
2527,16.8125,79.1875,241.25,0.8842773,-0.08789063,0.07519531,-0.1020508,0.2324219,-0.1835938
2531,-2.1875,71.125,252.4375,0.8071289,-0.1269531,0.03662109,-0.07958984,0.2412109,-0.1889648
2535,-7,52.0625,260.3125,0.6401367,-0.2314453,0.02880859,-0.05566406,0.2451172,-0.1889648
2539,-2.0625,47.875,251.625,0.7836914,-0.3442383,0.02880859,-0.0390625,0.2460938,-0.1889648
2543,14.75,62.5625,245.8125,0.690918,-0.4067383,0.02490234,-0.01611328,0.2451172,-0.1918945
2547,22.375,59.875,235.5625,0.5551758,-0.2939453,0.07519531,0.006835938,0.2436523,-0.1943359
2551,10.125,53.9375,235.8125,0.5898438,-0.2978516,0.1098633,0.0234375,0.2436523,-0.1958008
2555,-7.625,34.125,261.625,0.4619141,-0.4453125,0.1289063,0.04736328,0.2426758,-0.1928711
2559,-10.375,8.4375,294.5,0.5161133,-0.6044922,0.1748047,0.06884766,0.2363281,-0.1972656
2563,9.625,10.5625,314.9375,0.6328125,-0.6787109,0.1557617,0.08447266,0.2285156,-0.1943359
2567,43.4375,42.75,308,0.6674805,-0.6279297,0.1904297,0.1118164,0.2172852,-0.1972656
2571,78.3125,79,289.25,0.3457031,-0.5307617,0.1098633,0.1376953,0.2011719,-0.2011719
2575,106.0625,91.875,275.625,-0.05273438,-0.2353516,0.09033203,0.1557617,0.1899414,-0.2026367
2579,91.1875,88,257.4375,-0.4091797,0.1914063,0.1289063,0.1772461,0.1650391,-0.206543
2583,40.75,54.625,248.9375,-0.6962891,0.4750977,0.2060547,0.1987305,0.1474609,-0.206543
2587,-15.625,17.125,243.875,-0.862793,0.5019531,0.1865234,0.2104492,0.1337891,-0.206543
2591,-45.1875,-8.625,227.0625,-0.9672852,0.3623047,0.1635742,0.222168,0.1186523,-0.2055664
2595,-36.875,-13.875,192.875,-0.9594727,0.237793,0.07519531,0.2319336,0.1035156,-0.2041016
2599,-3.4375,-0.3125,143.25,-0.9790039,0.1914063,0.05566406,0.2368164,0.09765625,-0.2055664
2603,36.5,18.5,83.625,-1.091309,0.237793,0.03662109,0.2426758,0.08642578,-0.2026367
2607,67.6875,31.4375,20.125,-1.199707,0.3505859,0.04785156,0.2451172,0.08007813,-0.2055664
2611,72.5625,29.125,-29.125,-1.265625,0.4633789,0.05957031,0.2475586,0.07617188,-0.2041016
2616,52.375,15.375,-66.5,-1.23877,0.5019531,0.144043,0.2475586,0.07519531,-0.2041016
2620,16.3125,-6.5,-95.3125,-1.141602,0.4086914,0.2133789,0.2451172,0.07763672,-0.206543
2624,-16.75,-26.125,-114.625,-0.8935547,0.1601563,0.2558594,0.2412109,0.08496094,-0.2055664
2628,-30.8125,-29.875,-126.8125,-0.6650391,-0.1381836,0.2250977,0.2353516,0.09521484,-0.206543
2632,-21.375,-26.25,-135.9375,-0.5913086,-0.3325195,0.1674805,0.2270508,0.1064453,-0.2080078
2636,7.5,-14.625,-149.875,-0.5644531,-0.4414063,0.1020508,0.2236328,0.1123047,-0.2055664
2640,35.75,-6.75,-170.1875,-0.6806641,-0.6513672,0.02099609,0.2128906,0.125,-0.2094727
2644,50,-5.125,-203.25,-0.5332031,-0.2470703,0.1943359,0.203125,0.1347656,-0.2109375
2648,33.3125,-11.9375,-215.8125,-0.4750977,-0.1191406,0.3056641,0.1948242,0.1411133,-0.2133789
2652,0.625,-35.75,-212.625,-0.4594727,-0.1191406,0.3095703,0.1821289,0.1577148,-0.2148438
2656,-26,-59.1875,-202,-0.3706055,-0.2124023,0.2519531,0.1665039,0.1689453,-0.21875
2660,-32.3125,-69.3125,-194.5625,-0.215332,-0.3676758,0.1635742,0.1557617,0.1762695,-0.2148438
2664,-6.5625,-59,-206.0625,-0.06445313,-0.5424805,0.1518555,0.1367188,0.1884766,-0.2177734
2668,32.4375,-33.1875,-243.6875,0.1015625,-0.581543,0.2250977,0.1201172,0.1972656,-0.21875
2672,58,-12.375,-265,0.1171875,-0.4726563,0.2749023,0.1069336,0.2001953,-0.2202148
2676,59.9375,-19.1875,-267.25,0.04345703,-0.3833008,0.2709961,0.08691406,0.2075195,-0.2255859
2680,53.1875,-38.5,-253.375,0.06689453,-0.3173828,0.2329102,0.06542969,0.2114258,-0.230957
2684,39.5,-63.4375,-241.6875,0.08251953,-0.2353516,0.2636719,0.05224609,0.2124023,-0.2324219
2688,19.1875,-89.75,-245.375,0.3339844,-0.1967773,0.355957,0.02832031,0.2138672,-0.2353516
2692,13.3125,-78.375,-260.125,0.7529297,-0.3637695,0.3828125,0.003417969,0.2138672,-0.2353516
2696,37.5,-44.625,-280.5625,0.9423828,-0.6318359,0.3945313,-0.01416016,0.2124023,-0.2368164
2700,71.875,-16.8125,-264.875,0.9311523,-0.6396484,0.3212891,-0.03662109,0.2075195,-0.2407227
2704,85.6875,-29.8125,-233.1875,0.4775391,-0.3833008,0.2709961,-0.05224609,0.1987305,-0.2446289
2708,60.75,-84.375,-224.0625,0.4272461,0.01269531,0.3330078,-0.06640625,0.1923828,-0.2446289
2712,23.9375,-112,-228.6875,0.7915039,-0.006347656,0.3520508,-0.08642578,0.1860352,-0.2475586
2716,22.375,-102.375,-245.625,1.117188,-0.1889648,0.390625,-0.109375,0.1762695,-0.2460938
2720,28.5625,-81.5625,-261.625,1.175293,-0.1577148,0.3598633,-0.1235352,0.1713867,-0.2436523
2724,20.0625,-93.8125,-242.5,0.9775391,-0.08398438,0.3173828,-0.1450195,0.1586914,-0.2421875
2728,-5.5,-138.75,-209,0.9580078,0.01269531,0.2636719,-0.1625977,0.1474609,-0.2368164
2732,-26.3125,-166.0625,-191.125,1.175293,-0.01806641,0.2519531,-0.1772461,0.1425781,-0.2285156
2736,-15.5,-147,-206.8125,1.546875,-0.1074219,0.2944336,-0.1972656,0.1347656,-0.21875
2740,12.5625,-81.3125,-237.5625,1.787598,-0.1269531,0.3364258,-0.215332,0.1210938,-0.2109375
2745,35.3125,-41,-242.8125,1.361328,-0.06445313,0.2597656,-0.2236328,0.1088867,-0.2080078
2749,27.9375,-74.3125,-219.5625,1.031738,0.1835938,0.1904297,-0.2363281,0.09130859,-0.2055664
2753,-11.5,-133.3125,-182.75,1.012207,0.3466797,0.144043,-0.2470703,0.07617188,-0.199707
2757,-37.25,-169.3125,-169,1.283691,0.2807617,0.1557617,-0.2553711,0.06884766,-0.1904297
2761,-42.6875,-154.5,-178.3125,1.655762,0.2573242,0.2441406,-0.2709961,0.05761719,-0.175293
2765,-28.3125,-106.5625,-193.75,1.818359,0.1445313,0.2827148,-0.2817383,0.04492188,-0.1645508
2769,-3.875,-61.75,-197.9375,1.744629,0.07861328,0.2402344,-0.2866211,0.03369141,-0.15625
2773,21.25,-31.6875,-198.375,1.659668,0.05908203,0.1674805,-0.2924805,0.01367188,-0.1523438
2777,40.3125,-18.25,-189.1875,1.535645,0.07861328,0.09814453,-0.2973633,-0.005859375,-0.1508789
2781,49.375,-19.375,-174.5,1.500488,0.1020508,0.105957,-0.2983398,-0.015625,-0.1484375
2785,53.375,-23.5,-156.125,1.550781,0.07470703,0.1943359,-0.3017578,-0.03320313,-0.1484375
2789,55.9375,-16.75,-140.6875,1.69043,0.09814453,0.3056641,-0.3007813,-0.05078125,-0.144043
2793,46.625,-2,-118.5625,1.69043,0.1445313,0.3481445,-0.3017578,-0.05810547,-0.144043
2797,32.25,-4.125,-94.4375,1.504395,0.06689453,0.3017578,-0.3007813,-0.07177734,-0.144043
2801,18.125,-13.8125,-70.75,1.481445,0.05517578,0.2597656,-0.2983398,-0.07958984,-0.1425781
2805,7.8125,-17.25,-49.5,1.454102,-0.05273438,0.2290039,-0.2998047,-0.08300781,-0.1416016
2809,8.5,-14.5,-32.3125,1.46582,-0.09960938,0.2290039,-0.3007813,-0.08837891,-0.1386719
2813,7.9375,-9.25,-15.875,1.43457,-0.1230469,0.2519531,-0.3017578,-0.08935547,-0.1401367
2817,5.6875,-5.4375,1.625,1.42334,-0.1191406,0.2636719,-0.2998047,-0.09082031,-0.137207
2821,6.3125,-2.8125,17.125,1.42334,-0.1191406,0.2983398,-0.3007813,-0.09082031,-0.137207
2825,2.0625,3.625,29.6875,1.473633,-0.05664063,0.3330078,-0.3032227,-0.08837891,-0.1386719
2829,-7.125,6.9375,44.875,1.438477,-0.07617188,0.3212891,-0.3017578,-0.08935547,-0.137207
2833,-16.625,1.75,63.3125,1.477539,-0.05664063,0.3330078,-0.3032227,-0.08056641,-0.1386719
2837,-31.3125,-1.75,82.125,1.554688,-0.05273438,0.3481445,-0.3032227,-0.07568359,-0.1386719
2841,-44.3125,-4.1875,101.8125,1.624512,-0.06835938,0.3291016,-0.3041992,-0.07080078,-0.137207
2845,-58.0625,-9.6875,126.0625,1.663574,-0.06445313,0.3095703,-0.3066406,-0.05712891,-0.1357422
2849,-71.75,-16.75,150.4375,1.702148,-0.03369141,0.3017578,-0.3041992,-0.04052734,-0.1357422
2853,-82.8125,-19.3125,170.6875,1.787598,-0.07226563,0.3212891,-0.3041992,-0.02929688,-0.1347656
2857,-88.1875,-20.0625,192.25,1.895996,-0.09570313,0.2866211,-0.3041992,-0.009277344,-0.1333008
2861,-84.4375,-17.125,216,1.926758,-0.2084961,0.1943359,-0.3041992,0.01123047,-0.1289063
2865,-62.1875,-3.5,237.5,2.02002,-0.3095703,0.1557617,-0.3007813,0.02734375,-0.1289063
2869,-30.3125,22.1875,254.0625,1.980957,-0.2163086,0.140625,-0.2958984,0.04980469,-0.1289063
2874,-6.8125,42.3125,267.125,1.791016,-0.09960938,0.1171875,-0.2875977,0.07617188,-0.1318359
2878,4.125,52.25,268.875,1.644043,0.07080078,0.1367188,-0.2807617,0.08984375,-0.1347656
2882,4.125,58.625,262.8125,1.484863,0.1176758,0.144043,-0.2661133,0.1123047,-0.1386719
2886,-2.75,54.625,259.625,1.384277,0.121582,0.1289063,-0.2519531,0.1313477,-0.1425781
2890,-6.625,50.5,263.1875,1.368652,-0.01416016,0.09423828,-0.2426758,0.1450195,-0.1469727
2894,1.75,54.5625,267.4375,1.384277,-0.06054688,0.07519531,-0.2246094,0.1635742,-0.1494141
2898,10.9375,65.25,263.3125,1.322266,-0.1074219,0.03662109,-0.2080078,0.1801758,-0.15625
2902,22.4375,72.5,257.875,1.229492,-0.1113281,0.02880859,-0.1962891,0.1914063,-0.1577148
2906,29.5625,81.9375,250.3125,1.175293,-0.07617188,0.05566406,-0.1748047,0.2026367,-0.1630859
2910,24.625,80.0625,250.875,1.000488,-0.04882813,0.03662109,-0.1557617,0.2138672,-0.1728516
2914,12,64.75,258.125,0.8652344,0.02050781,0.06738281,-0.1391602,0.2211914,-0.1738281
2918,-12.375,41.1875,253.5625,0.7875977,-0.04150391,0.1020508,-0.1186523,0.2299805,-0.1796875
2922,-15.4375,35.4375,250.3125,0.8842773,-0.2509766,0.105957,-0.09472656,0.2387695,-0.1796875
2926,-2.3125,52.4375,230.4375,0.9233398,-0.3442383,0.125,-0.08203125,0.2436523,-0.1806641
2930,14.875,68.8125,226.3125,0.9462891,-0.4609375,0.1020508,-0.06054688,0.2460938,-0.1806641
2934,26.0625,78.875,232,0.8110352,-0.4067383,0.08251953,-0.0390625,0.25,-0.1835938
2938,29.25,84.0625,228.1875,0.690918,-0.3754883,0.1020508,-0.02246094,0.25,-0.1889648
2942,21.125,77.25,223.5625,0.5395508,-0.3520508,0.1132813,0,0.2485352,-0.1928711
2946,9.3125,59.8125,225.0625,0.4428711,-0.4296875,0.1171875,0.02246094,0.2475586,-0.1928711
2950,-0.4375,37.6875,223,0.4038086,-0.5,0.1674805,0.03808594,0.2451172,-0.1918945
2954,-9.75,23.875,229.375,0.3847656,-0.4765625,0.1904297,0.05957031,0.2412109,-0.1928711
2958,-34.9375,-0.8125,234.3125,0.2529297,-0.4375,0.2290039,0.07861328,0.2324219,-0.1928711
2962,-68.8125,-29.875,247,0.109375,-0.3950195,0.2480469,0.09033203,0.2314453,-0.1918945
2966,-101.25,-64.25,264.8125,0.004882813,-0.5112305,0.1943359,0.1103516,0.2285156,-0.1865234
2970,-120.625,-89.5625,276.8125,-0.02197266,-0.6044922,0.1479492,0.1269531,0.2236328,-0.1806641
2974,-99,-86.0625,290.25,0.01269531,-0.8764648,0.07519531,0.1391602,0.21875,-0.1767578
2978,-35.25,-55.4375,282.8125,0.08642578,-0.9389648,0.07910156,0.1567383,0.2084961,-0.175293
2982,52.1875,8.375,257.625,0.06298828,-0.7680664,0.07519531,0.1772461,0.1914063,-0.1782227
2986,137.1875,76.625,230,-0.1806641,-0.453125,0.005859375,0.1904297,0.1772461,-0.1821289
2990,193.1875,123.375,205.375,-0.6689453,0.09423828,-0.1435547,0.2094727,0.15625,-0.1875
2994,208.6875,118.875,189.6875,-1.529297,1.01123,-0.3398438,0.2260742,0.1313477,-0.1875
2998,158.4375,69.625,156.0625,-1.827637,1.162598,-0.1743164,0.237793,0.1152344,-0.1904297
3003,87.625,11.6875,97.8125,-1.908691,1.372559,0.02099609,0.2451172,0.09619141,-0.1928711
3007,14.6875,-24.8125,19.4375,-1.715332,1.154785,0.1171875,0.2485352,0.08740234,-0.1958008
3011,-23.125,-41.9375,-49.1875,-1.35498,0.7119141,0.1479492,0.2475586,0.08740234,-0.1958008
3015,-30.3125,-46.125,-97.125,-0.9907227,0.2768555,0.2060547,0.2402344,0.09375,-0.199707
3019,-25,-42.5625,-130.6875,-0.6884766,0.03222656,0.2519531,0.2329102,0.1035156,-0.2026367
3023,-23.8125,-31.3125,-146.625,-0.4672852,-0.1230469,0.2558594,0.2285156,0.1123047,-0.2011719
3027,-20.1875,-19.125,-150.5,-0.4130859,-0.2666016,0.2211914,0.21875,0.1235352,-0.2055664
3031,-9.625,-13.9375,-155.0625,-0.4672852,-0.3637695,0.1826172,0.2104492,0.1362305,-0.2011719
3035,6,-11.5625,-170.5,-0.4521484,-0.3754883,0.1635742,0.2011719,0.1450195,-0.199707
3039,19.9375,-1.9375,-192.0625,-0.3706055,-0.3676758,0.1787109,0.1938477,0.15625,-0.2055664
3043,32.4375,1.1875,-214,-0.328125,-0.402832,0.1904297,0.1806641,0.1674805,-0.2055664
3047,42.375,7.9375,-228.875,-0.1923828,-0.3481445,0.2211914,0.1723633,0.1748047,-0.2055664
3051,43.25,9.4375,-233.6875,-0.1728516,-0.355957,0.2250977,0.1557617,0.1835938,-0.2080078
3055,39.5625,-5.6875,-221.6875,-0.1962891,-0.355957,0.2060547,0.1401367,0.1948242,-0.2109375
3059,34.4375,-25.5,-212.375,-0.1689453,-0.324707,0.1943359,0.128418,0.1987305,-0.2119141
3063,31.8125,-36.625,-228,-0.08007813,-0.2978516,0.2519531,0.1118164,0.2050781,-0.2148438
3067,33.375,-36.1875,-247.75,0.04736328,-0.3325195,0.2519531,0.09277344,0.2124023,-0.21875
3071,39,-32,-266.125,0.1870117,-0.3637695,0.2709961,0.07714844,0.2148438,-0.2202148
3075,42.6875,-29.25,-267.375,0.2797852,-0.4609375,0.2788086,0.05712891,0.2226563,-0.2202148
3079,52.0625,-37,-249.0625,0.3110352,-0.5307617,0.2709961,0.03320313,0.2211914,-0.2270508
3083,59.3125,-54.0625,-224.4375,0.2490234,-0.5,0.2329102,0.01757813,0.2211914,-0.2285156
3087,63.125,-77.75,-220.375,0.3496094,-0.3911133,0.2709961,-0.0009765625,0.2163086,-0.2324219
3091,60.1875,-82.875,-232.0625,0.5395508,-0.2509766,0.3598633,-0.02246094,0.2114258,-0.237793
3095,51.9375,-70.9375,-273.125,0.7680664,-0.1694336,0.4672852,-0.0390625,0.2099609,-0.237793
3099,48.875,-66.125,-303.75,0.8261719,-0.2978516,0.4213867,-0.06298828,0.2026367,-0.2407227
3103,49.6875,-69.75,-282.625,1.004395,-0.3481445,0.3945313,-0.08886719,0.1914063,-0.2421875
3107,43.625,-67.25,-232.0625,1.039551,-0.3598633,0.3789063,-0.1010742,0.1850586,-0.2421875
3111,51.8125,-75.4375,-212.5,0.8999023,-0.371582,0.355957,-0.1210938,0.1738281,-0.2407227
3115,57.625,-81.1875,-217.75,1.121094,-0.1420898,0.3867188,-0.1376953,0.1635742,-0.2407227
3119,49.6875,-66.625,-239.6875,1.252441,-0.04150391,0.4633789,-0.1508789,0.1538086,-0.2421875
3123,37.625,-60.0625,-252.4375,1.26416,-0.05664063,0.4521484,-0.1665039,0.1386719,-0.2407227
3127,23.625,-75.125,-227.75,1.237305,-0.1381836,0.375,-0.1831055,0.125,-0.237793
3132,11.5,-97.0625,-177.5625,1.186523,-0.1928711,0.3134766,-0.1938477,0.1162109,-0.2353516
3136,15,-106.625,-154.25,1.179199,-0.2084961,0.2597656,-0.206543,0.1064453,-0.2299805
3140,32.8125,-92.125,-163.375,1.287598,-0.1381836,0.2597656,-0.2172852,0.09375,-0.2246094
3144,49.125,-59.1875,-191.75,1.399902,0.06689453,0.3637695,-0.2255859,0.08496094,-0.2202148
3148,49.8125,-44.25,-209.9375,1.384277,0.06298828,0.3789063,-0.234375,0.06884766,-0.21875
3152,31,-63.875,-180.875,1.244629,0.140625,0.3442383,-0.2426758,0.04980469,-0.2148438
3156,11.625,-95.875,-145.1875,1.217773,0.09423828,0.2983398,-0.2509766,0.04248047,-0.2119141
3160,4.4375,-108.125,-129.125,1.306641,0.105957,0.2788086,-0.2568359,0.03125,-0.2041016
3164,11.5625,-96.9375,-125.4375,1.372559,0.07470703,0.2709961,-0.2675781,0.02148438,-0.1958008
3168,28.4375,-68.125,-139.9375,1.407715,0.1098633,0.2636719,-0.2724609,0.01269531,-0.1918945
3172,45.8125,-40.3125,-158.375,1.322266,0.171875,0.2402344,-0.2768555,0.001464844,-0.1875
3176,57.5625,-29,-168.1875,1.206055,0.2070313,0.1982422,-0.2792969,-0.01806641,-0.1835938
3180,66.75,-27.75,-167.8125,1.252441,0.284668,0.2021484,-0.2817383,-0.02832031,-0.1821289
3184,63.5625,-32.8125,-152.75,1.198242,0.3466797,0.2094727,-0.2841797,-0.04589844,-0.1796875
3188,54.0625,-48.8125,-137.3125,1.233398,0.4165039,0.2636719,-0.2851563,-0.06201172,-0.175293
3192,44.625,-56.9375,-125.75,1.376465,0.4360352,0.355957,-0.2851563,-0.07177734,-0.1713867
3196,32.75,-47.1875,-127.4375,1.46582,0.4204102,0.390625,-0.2875977,-0.08447266,-0.1699219
3200,24.625,-37.4375,-126.875,1.473633,0.315918,0.3867188,-0.2866211,-0.09814453,-0.1606445
3204,15.8125,-30,-113.0625,1.500488,0.253418,0.3671875,-0.2866211,-0.1054688,-0.1616211
3208,6.625,-27.5,-76.3125,1.473633,0.09033203,0.3212891,-0.2866211,-0.1132813,-0.15625
3212,5.75,-23.75,-40.75,1.450195,0.04736328,0.3134766,-0.2866211,-0.1206055,-0.15625
3216,11.9375,-13.8125,-23.6875,1.395996,0.03613281,0.3134766,-0.2866211,-0.1220703,-0.1538086
3220,18.25,1.9375,-17.6875,1.376465,0.08642578,0.3134766,-0.2875977,-0.1254883,-0.1538086
3224,18.625,14.75,-9.3125,1.291504,0.1367188,0.3330078,-0.2851563,-0.1269531,-0.1547852
3228,14.5625,16,2.0625,1.213867,0.1757813,0.340332,-0.2866211,-0.1269531,-0.15625
3232,4.6875,9.125,11.5,1.19043,0.2416992,0.3710938,-0.2851563,-0.1254883,-0.15625
3236,-14.125,-1.3125,26.375,1.233398,0.237793,0.3945313,-0.2851563,-0.1269531,-0.1538086
3240,-35.3125,-10,44.5,1.364746,0.2416992,0.4711914,-0.2866211,-0.1230469,-0.1577148
3244,-55.75,-12.625,64.375,1.458008,0.1293945,0.4599609,-0.2890625,-0.1181641,-0.15625
3248,-63.875,-7.6875,80.375,1.612793,0.04003906,0.4672852,-0.2900391,-0.1083984,-0.15625
3252,-68.1875,9.375,101.5625,1.744629,0.0009765625,0.4404297,-0.2900391,-0.1005859,-0.15625
3256,-67,20.9375,133.25,1.698242,-0.05273438,0.4018555,-0.293457,-0.08691406,-0.1591797
3261,-65.6875,20,158.5625,1.624512,0.004882813,0.3637695,-0.2924805,-0.07324219,-0.1606445
3265,-67.5,14.9375,180.3125,1.670898,0.04003906,0.3828125,-0.293457,-0.05957031,-0.1630859
3269,-66.1875,19.375,194.0625,1.725586,0.08251953,0.4057617,-0.2924805,-0.03955078,-0.1645508
3273,-63.0625,28.25,203.375,1.752441,0.1254883,0.390625,-0.2924805,-0.01953125,-0.1674805
3277,-66.5,31.625,220.6875,1.725586,0.1484375,0.3671875,-0.2900391,-0.006835938,-0.1660156
3281,-62.4375,38.8125,231.1875,1.744629,0.09423828,0.3364258,-0.2841797,0.01611328,-0.168457
3285,-48.375,55.25,237.625,1.748535,0.02832031,0.3056641,-0.2758789,0.04003906,-0.1713867
3289,-33.3125,74.375,240.9375,1.686523,0.02441406,0.2788086,-0.2734375,0.05371094,-0.175293
3293,-26.5625,84.5,237.75,1.566406,0.07470703,0.2519531,-0.2602539,0.07519531,-0.1821289
3297,-31.3125,81,242.1875,1.492676,0.07080078,0.2441406,-0.2495117,0.09228516,-0.1850586
3301,-40.5625,72.375,252.875,1.357422,0.03222656,0.1982422,-0.2412109,0.1074219,-0.1889648
3305,-46.6875,57.6875,268.5625,1.330078,-0.006347656,0.2060547,-0.2255859,0.1274414,-0.1928711
3309,-50.5,53.75,265.6875,1.376465,-0.01025391,0.2441406,-0.2089844,0.1474609,-0.1958008
3313,-50.625,55,258.625,1.384277,-0.09570313,0.2480469,-0.1982422,0.1601563,-0.1943359
3317,-43.5,64.0625,255.3125,1.407715,-0.2006836,0.2021484,-0.1782227,0.1801758,-0.1958008
3321,-29.625,73.5625,262.0625,1.380371,-0.2241211,0.1674805,-0.1616211,0.1923828,-0.1987305
3325,-27.25,81.375,269.3125,1.229492,-0.1347656,0.140625,-0.1450195,0.2026367,-0.1987305
3329,-28.375,72.6875,273.375,0.9931641,-0.1381836,0.1132813,-0.1235352,0.2138672,-0.2011719
3333,-27.0625,66.375,270.0625,0.9389648,-0.1655273,0.09814453,-0.09863281,0.2236328,-0.199707
3337,-19.9375,64.5625,268.6875,0.8652344,-0.2163086,0.09423828,-0.08398438,0.2275391,-0.2011719
3341,-7.1875,71.625,262.375,0.8417969,-0.2509766,0.1098633,-0.05810547,0.2348633,-0.2026367
3345,5.125,85.9375,262.3125,0.8417969,-0.2509766,0.09033203,-0.03320313,0.2373047,-0.2055664
3349,16.375,90.0625,264.25,0.559082,-0.2275391,0.07519531,-0.01611328,0.2387695,-0.2055664
3353,25.4375,89.9375,257.625,0.4350586,-0.1655273,0.06347656,0.01171875,0.2373047,-0.2055664
3357,32.5625,90.875,245.125,0.2875977,-0.1694336,0.06347656,0.03662109,0.2324219,-0.2094727
3361,25.0625,81.0625,226.625,0.1831055,-0.05664063,0.144043,0.05224609,0.2299805,-0.2119141
3365,1.9375,61.875,227.3125,0.125,-0.1459961,0.125,0.07470703,0.2211914,-0.2119141
3369,-13.125,37,239.5,0.04736328,-0.2548828,0.1367188,0.09619141,0.2148438,-0.2119141
3373,-21.75,23.9375,246,0.08251953,-0.2939453,0.140625,0.1103516,0.2114258,-0.2109375
3377,-29.3125,13.6875,245.3125,-0.01806641,-0.324707,0.1210938,0.128418,0.2026367,-0.2094727
3381,-30.125,16.5,248.5625,0.04736328,-0.3325195,0.1479492,0.1474609,0.1923828,-0.2080078
3385,-22.5,23.0625,245.25,-0.2387695,-0.3833008,0.1171875,0.1591797,0.1826172,-0.2055664
3390,-7.6875,15.3125,228.6875,-0.4287109,-0.3173828,0.09814453,0.1772461,0.1713867,-0.2055664
3394,3,7.625,209.625,-0.5991211,-0.1538086,0.1674805,0.1914063,0.1577148,-0.2026367
3398,-5.25,-1.625,193.4375,-0.7851563,0.05126953,0.1904297,0.1987305,0.1474609,-0.2026367
3402,-8.8125,-16.1875,178.1875,-1.044922,0.1176758,0.1943359,0.2104492,0.1347656,-0.2026367
3406,-0.9375,-18.8125,139.3125,-1.141602,0.2265625,0.2021484,0.2202148,0.1235352,-0.2055664
3410,14,-6,79.5,-1.23877,0.300293,0.1904297,0.2202148,0.1186523,-0.2055664
3414,34.1875,4.0625,11.9375,-1.319824,0.2963867,0.1787109,0.2246094,0.1123047,-0.206543
3418,50.0625,10.1875,-45.875,-1.230957,0.315918,0.1748047,0.2260742,0.1098633,-0.206543
3422,48.1875,10.5625,-87.75,-1.141602,0.3041992,0.2250977,0.2236328,0.1123047,-0.2080078
3426,33.1875,0.5,-121.5625,-1.083496,0.269043,0.2675781,0.2177734,0.1176758,-0.2119141
3430,10.75,-14,-150.25,-0.8935547,0.1640625,0.3134766,0.2104492,0.1235352,-0.2133789
3434,-10.0625,-22.125,-169.875,-0.6923828,-0.01416016,0.3056641,0.2070313,0.1313477,-0.2119141
3438,-18.5,-27.8125,-183.0625,-0.5952148,-0.1538086,0.2709961,0.1962891,0.1450195,-0.2133789
3442,-17.6875,-28.8125,-202.125,-0.4521484,-0.2392578,0.2290039,0.1821289,0.1577148,-0.2133789
3446,-14.3125,-26.3125,-216.125,-0.347168,-0.3364258,0.2133789,0.1723633,0.1674805,-0.2119141
3450,-3.5625,-26.875,-222,-0.1923828,-0.4375,0.2060547,0.1567383,0.1787109,-0.2133789
3454,8.6875,-22,-218.0625,-0.09912109,-0.5,0.1787109,0.1401367,0.1899414,-0.2133789
3458,23,-17.25,-222,0.008789063,-0.3208008,0.2597656,0.128418,0.1962891,-0.2148438
3462,40.5,-9.625,-239,0.01269531,-0.4453125,0.2021484,0.1118164,0.2036133,-0.2177734
3466,42.625,-8.75,-249.8125,-0.006347656,-0.355957,0.2519531,0.09277344,0.2114258,-0.2202148
3470,30.9375,-28.8125,-250.25,0.07470703,-0.355957,0.2480469,0.07958984,0.2124023,-0.2202148
3474,23.3125,-48.125,-223.125,0.190918,-0.4726563,0.1943359,0.05810547,0.2172852,-0.2246094
3478,33.1875,-63.375,-206.5625,0.3339844,-0.5112305,0.2480469,0.03662109,0.2197266,-0.2285156
3482,43.625,-56.8125,-214.5625,0.5161133,-0.4609375,0.2749023,0.02490234,0.21875,-0.2270508
3486,51.875,-45.8125,-237.9375,0.644043,-0.3950195,0.3979492,0.003417969,0.2172852,-0.230957
3490,50.5,-33.5,-253.25,0.7568359,-0.3754883,0.3867188,-0.01757813,0.2148438,-0.2338867
3494,50.3125,-35.3125,-239.625,0.675293,-0.4921875,0.3212891,-0.02929688,0.2114258,-0.2353516
3498,55.625,-57.1875,-199,0.5629883,-0.5151367,0.2368164,-0.04980469,0.2075195,-0.2392578
3502,59.0625,-87,-163.375,0.4697266,-0.3637695,0.2172852,-0.06640625,0.2011719,-0.2421875
3506,54.4375,-101.125,-166.1875,0.6171875,-0.08789063,0.2749023,-0.07714844,0.1938477,-0.2436523
3510,46.25,-71.9375,-224.8125,0.9116211,0.05517578,0.3637695,-0.09619141,0.1860352,-0.2446289
3514,53.1875,-37.8125,-280.4375,0.9775391,-0.09179688,0.3291016,-0.112793,0.1762695,-0.2436523
3519,66.4375,-39.5625,-299.375,1.008301,-0.1538086,0.3481445,-0.128418,0.1660156,-0.2436523
3523,62.6875,-63.9375,-257.1875,1.016113,-0.1308594,0.3364258,-0.1459961,0.1499023,-0.2490234
3527,44.8125,-109.875,-197,0.7836914,-0.01806641,0.2441406,-0.1625977,0.1337891,-0.2446289
3531,16.3125,-161.0625,-178.25,0.7993164,0.2924805,0.2211914,-0.1733398,0.1289063,-0.2407227
3535,-13.3125,-157.25,-211.75,1.237305,0.2573242,0.3945313,-0.1948242,0.1162109,-0.2324219
3539,-12.1875,-109.625,-277.9375,1.46582,0.269043,0.2749023,-0.2128906,0.1035156,-0.2216797
3543,10.9375,-81.375,-322.625,1.314453,0.21875,0.2519531,-0.2255859,0.09228516,-0.2163086
3547,-5,-113.5,-311.1875,1.209961,0.5913086,0.2866211,-0.2402344,0.06884766,-0.2133789
3551,-65.4375,-181.375,-256.5625,1.349609,0.7392578,0.2983398,-0.2568359,0.04882813,-0.1972656
3555,-103.875,-200.3125,-240.5,1.907715,0.5761719,0.2597656,-0.2675781,0.03857422,-0.1875
3559,-94.25,-139.625,-262.0625,2.418945,0.2148438,0.2866211,-0.2807617,0.02392578,-0.168457
3563,-45.5,-47.875,-267.4375,2.368652,-0.1381836,0.2094727,-0.2900391,0.00390625,-0.1591797
3567,11.3125,13.625,-241.5625,2.035156,-0.3364258,0.06347656,-0.293457,-0.008300781,-0.1577148
3571,64.9375,42.6875,-196.3125,1.682617,-0.3481445,-0.04736328,-0.2949219,-0.03173828,-0.1591797
3575,105.9375,41.1875,-155.4375,1.42334,-0.1538086,0.009765625,-0.293457,-0.05175781,-0.1645508
3579,120.0625,24.875,-130.75,1.426758,0.1098633,0.2290039,-0.2900391,-0.06445313,-0.1660156
3583,117.125,21.4375,-112.3125,1.512207,0.2495117,0.4365234,-0.2915039,-0.08056641,-0.1674805
3587,107.8125,23.25,-96.4375,1.481445,0.3041992,0.5214844,-0.2866211,-0.09570313,-0.1660156
3591,95.375,24.9375,-85,1.403809,0.300293,0.4829102,-0.2866211,-0.1054688,-0.1660156
3595,84.5,24.8125,-73.25,1.326172,0.253418,0.4057617,-0.2817383,-0.1157227,-0.1660156
3599,77.75,24.75,-47.75,1.275879,0.1992188,0.3637695,-0.2807617,-0.1254883,-0.1660156
3603,82.125,22.8125,-24.1875,1.159668,0.1640625,0.3598633,-0.2783203,-0.1308594,-0.1660156
3607,88.25,17.25,-12.375,1.082031,0.2924805,0.375,-0.2768555,-0.1357422,-0.1660156
3611,79.375,15.5,-17.1875,1.128418,0.5175781,0.4365234,-0.2744141,-0.1430664,-0.1645508
3615,52.875,23.6875,-39.6875,1.209961,0.6694336,0.5483398,-0.2744141,-0.1469727,-0.1645508
3619,12.25,21.25,-45.5625,1.171387,0.5371094,0.5097656,-0.2724609,-0.1508789,-0.1630859
3623,-14.4375,0.25,-17,1.206055,0.284668,0.3979492,-0.2700195,-0.1567383,-0.1660156
3627,-27.125,-16.0625,16.9375,1.326172,0.1523438,0.3637695,-0.2724609,-0.1567383,-0.1674805
3631,-40.5,-19.25,42.375,1.473633,0.1953125,0.4135742,-0.2734375,-0.1494141,-0.1660156
3635,-59.4375,-11.75,67.25,1.570313,0.1796875,0.4790039,-0.2758789,-0.1445313,-0.1645508
3639,-76.9375,-13.0625,97.5625,1.554688,0.1796875,0.4711914,-0.2758789,-0.1367188,-0.1660156
3643,-96.1875,-24.8125,134.8125,1.566406,0.1835938,0.4287109,-0.2792969,-0.1245117,-0.1660156
3648,-105.375,-33.6875,175.375,1.608887,0.1523438,0.3867188,-0.2841797,-0.1054688,-0.1674805
3652,-108,-38.125,205.75,1.659668,0.2070313,0.3867188,-0.2851563,-0.09082031,-0.1660156
3656,-108.0625,-34.625,223.625,1.69043,0.1914063,0.3598633,-0.2915039,-0.06835938,-0.1630859
3660,-104.1875,-32,239.3125,1.73291,0.1796875,0.3710938,-0.293457,-0.04052734,-0.1606445
3664,-96.75,-22.5,250.6875,1.779785,0.140625,0.3520508,-0.2949219,-0.02197266,-0.1591797
3668,-85.375,-15.125,261.5,1.748535,0.07470703,0.3056641,-0.2949219,0.001464844,-0.15625
3672,-80.375,-15.375,276.375,1.771973,0.09033203,0.2905273,-0.2900391,0.03125,-0.1538086
3676,-72.8125,-12.9375,290.3125,1.849121,0.0009765625,0.2597656,-0.2851563,0.04882813,-0.1523438
3680,-50.4375,3.625,305.8125,1.930664,-0.09570313,0.2368164,-0.2792969,0.07617188,-0.1484375
3684,-23.0625,31.0625,306.0625,1.884277,-0.1152344,0.1943359,-0.2651367,0.1035156,-0.1494141
3688,-5.125,45.4375,306.6875,1.706055,-0.06054688,0.125,-0.2553711,0.1225586,-0.1494141
3692,0.1875,43.4375,317.375,1.640137,0.008789063,0.1289063,-0.2387695,0.1435547,-0.1547852
3696,-6,43.4375,323.625,1.601563,0.07470703,0.1367188,-0.2211914,0.1660156,-0.1606445
3700,-8.5625,42.9375,329.125,1.481445,-0.07617188,0.09423828,-0.206543,0.1811523,-0.1591797
3704,6.8125,52.0625,320.0625,1.473633,-0.1459961,0.08251953,-0.1831055,0.2001953,-0.1630859
3708,23,74,310.9375,1.395996,-0.1967773,0.02880859,-0.1567383,0.2163086,-0.1699219
3712,41.0625,82.875,309,1.209961,-0.2163086,-0.01660156,-0.1401367,0.2211914,-0.1699219
3716,49.9375,84,305.875,1.059082,-0.07617188,-0.01660156,-0.112793,0.2324219,-0.1782227
3720,32.1875,81.3125,296.125,0.9155273,0.07470703,0.009765625,-0.08642578,0.2373047,-0.1865234
3724,6.625,66.5625,294.375,0.7529297,0.008789063,0.04052734,-0.06884766,0.2412109,-0.1865234
3728,-6.375,40.75,299.4375,0.7294922,-0.2353516,0.04052734,-0.04248047,0.2460938,-0.1904297
3732,-0.25,36.5625,302.625,0.8110352,-0.3286133,0.02880859,-0.01416016,0.2475586,-0.1918945
3736,12.25,47.1875,292.9375,0.8378906,-0.421875,0.03662109,0.003417969,0.2460938,-0.1904297
3740,33.25,64.6875,288,0.8149414,-0.4882813,0.04443359,0.02978516,0.2426758,-0.1943359
3744,47.375,71.1875,290.25,0.6289063,-0.4375,-0.02441406,0.05957031,0.2363281,-0.1972656
3748,53.625,58.8125,308,0.4077148,-0.3095703,-0.02050781,0.07861328,0.2299805,-0.199707
3752,53.4375,47.125,331.6875,0.2529297,-0.2275391,-0.1015625,0.105957,0.2172852,-0.2041016
3756,64,39.3125,334,0.05517578,-0.1459961,-0.1401367,0.1318359,0.2001953,-0.2055664
3760,65.9375,36.3125,317.375,-0.05273438,0.1137695,-0.03222656,0.1499023,0.1875,-0.2080078
3764,50.625,39.5625,281.125,-0.2929688,0.1914063,0.08642578,0.1738281,0.1674805,-0.2133789
3768,37.6875,32.25,242.1875,-0.4985352,0.1640625,0.125,0.1938477,0.1474609,-0.2133789
3772,36.3125,19.9375,221.1875,-0.6303711,0.2416992,0.1865234,0.2045898,0.1347656,-0.2133789
3777,27.625,3.1875,206.6875,-0.9091797,0.5136719,0.1787109,0.2138672,0.1176758,-0.21875
3781,25.75,-11.4375,177.5625,-1.114746,0.5952148,0.1674805,0.2236328,0.1000977,-0.2202148
3785,30.625,-7.5,115.0625,-1.261719,0.7626953,0.1557617,0.2260742,0.09130859,-0.21875
3789,38.5,2.3125,31,-1.362793,0.777832,0.1367188,0.230957,0.08105469,-0.2216797
3793,48.0625,7.625,-35.875,-1.35498,0.7587891,0.1557617,0.230957,0.08007813,-0.2216797
3797,41.25,7.125,-94.25,-1.331543,0.8129883,0.2060547,0.2285156,0.08007813,-0.2255859
3801,14.5,-8.9375,-132.125,-1.199707,0.6845703,0.2368164,0.2270508,0.08642578,-0.2246094
3805,-16.75,-26.9375,-150.1875,-0.9750977,0.4555664,0.2368164,0.2202148,0.09619141,-0.2246094
3809,-34.4375,-39.125,-170.3125,-0.7578125,0.1293945,0.2480469,0.2138672,0.1064453,-0.2255859
3813,-34.8125,-38.3125,-194.875,-0.5795898,-0.06445313,0.2368164,0.203125,0.1186523,-0.2270508
3817,-21.6875,-30.6875,-227.9375,-0.5063477,-0.2045898,0.1787109,0.1889648,0.1347656,-0.2270508
3821,-2.5,-21.5625,-256.5,-0.296875,-0.2783203,0.1865234,0.1796875,0.1459961,-0.2285156
3825,7.8125,-15.125,-259.125,-0.1030273,-0.371582,0.2060547,0.1640625,0.1601563,-0.2270508
3829,16.25,-21.6875,-241.5625,-0.09521484,-0.484375,0.2290039,0.1459961,0.1762695,-0.2285156
3833,22.5,-30.625,-227.6875,-0.01806641,-0.4067383,0.2250977,0.1342773,0.1811523,-0.2299805
3837,23.6875,-34.9375,-228.1875,-0.1030273,-0.3364258,0.2329102,0.1176758,0.1884766,-0.2285156
3841,18.875,-42.625,-253.8125,-0.04492188,-0.2163086,0.2709961,0.09619141,0.1962891,-0.2338867
3845,9.75,-48.375,-269.125,0.206543,-0.3017578,0.2788086,0.08203125,0.1987305,-0.2338867
3849,11.6875,-56.125,-258.5,0.4619141,-0.5581055,0.2788086,0.05957031,0.2060547,-0.2353516
3853,32.1875,-57.3125,-226.1875,0.659668,-0.7485352,0.2944336,0.03662109,0.2114258,-0.237793
3857,56.75,-54.125,-201.375,0.5668945,-0.6630859,0.3095703,0.0234375,0.2099609,-0.237793
3861,70.0625,-51.9375,-206.0625,0.527832,-0.3989258,0.3364258,0.006835938,0.2060547,-0.2446289
3865,60.5625,-42.25,-243.125,0.574707,-0.1655273,0.4287109,-0.01269531,0.2026367,-0.2475586
3869,39.8125,-45.9375,-262.875,0.6054688,-0.1889648,0.375,-0.02587891,0.1987305,-0.2490234
3873,29.25,-66.9375,-248,0.6054688,-0.3793945,0.2519531,-0.04736328,0.1938477,-0.25
3877,39.625,-85.875,-222.625,0.7373047,-0.4648438,0.2133789,-0.06738281,0.1860352,-0.2529297
3881,49.1875,-90.375,-215.0625,0.9619141,-0.2783203,0.3017578,-0.08056641,0.1850586,-0.2529297
3885,43,-83.4375,-221.6875,1.082031,-0.1499023,0.3637695,-0.09960938,0.1738281,-0.2529297
3889,34.875,-74.8125,-244.25,1.171387,-0.1381836,0.409668,-0.1186523,0.1635742,-0.2490234
3893,34,-70.625,-262.9375,1.237305,-0.2509766,0.3710938,-0.1318359,0.1547852,-0.25
3897,39.375,-75.5,-236.625,1.237305,-0.3208008,0.2788086,-0.1494141,0.1435547,-0.2490234
3901,50.0625,-87.1875,-200.625,1.043457,-0.3056641,0.140625,-0.168457,0.1313477,-0.2475586
3906,57.5,-101.25,-196.5625,1.066406,0.03222656,0.1748047,-0.1772461,0.1210938,-0.2446289
3910,34,-110.3125,-215.875,0.9814453,0.300293,0.1635742,-0.1938477,0.1064453,-0.2407227
3914,-9.9375,-141.375,-237.125,1.19043,0.4399414,0.3637695,-0.2104492,0.09130859,-0.2353516
3918,-65.8125,-169.8125,-233.125,1.477539,0.3388672,0.3710938,-0.2197266,0.08105469,-0.2231445
3922,-83.1875,-180.6875,-194.9375,1.748535,-0.09179688,0.3134766,-0.2387695,0.07275391,-0.2119141
3926,-58.3125,-148.4375,-174,1.954102,-0.2744141,0.2827148,-0.2553711,0.06396484,-0.1943359
3930,-15.4375,-83.75,-184.625,1.864746,-0.340332,0.2060547,-0.2626953,0.05761719,-0.1875
3934,38.5625,-30.5,-201.25,1.535645,-0.4140625,0.08642578,-0.2724609,0.04248047,-0.1821289
3938,86.4375,-5.75,-207.875,1.287598,-0.2783203,0.05566406,-0.2758789,0.02246094,-0.1806641
3942,115.375,-0.4375,-200.1875,1.16748,-0.07226563,0.1098633,-0.2807617,0.007324219,-0.1806641
3946,127.3125,-10.375,-186.375,1.085938,0.203125,0.2133789,-0.2792969,-0.015625,-0.1821289
3950,126.5,-23,-178.9375,1.171387,0.4282227,0.3789063,-0.2827148,-0.03808594,-0.1806641
3954,114,-28.875,-179.9375,1.248535,0.5878906,0.4790039,-0.2841797,-0.05175781,-0.1782227
3958,90.4375,-38.25,-184.1875,1.275879,0.6733398,0.4941406,-0.2827148,-0.07568359,-0.175293
3962,64.5,-55.375,-183.25,1.283691,0.5371094,0.4907227,-0.2851563,-0.09326172,-0.1728516
3966,40.75,-68.4375,-172,1.516113,0.4907227,0.5097656,-0.2827148,-0.1054688,-0.168457
3970,15.4375,-68.3125,-139.5,1.678711,0.2963867,0.5522461,-0.2841797,-0.1220703,-0.1616211
3974,-3.0625,-60.1875,-95.0625,1.787598,0.1875,0.590332,-0.2841797,-0.1318359,-0.15625
3978,-17.8125,-44.3125,-53.5625,1.779785,0.09033203,0.6176758,-0.2827148,-0.1367188,-0.1523438
3982,-28,-28.125,-24.75,1.651855,0.02832031,0.5595703,-0.2841797,-0.140625,-0.1508789
3986,-32.6875,-22.125,-2.0625,1.504395,-0.01416016,0.4980469,-0.2851563,-0.1396484,-0.1494141
3990,-42.75,-18.0625,23.6875,1.523926,0.02050781,0.4521484,-0.2851563,-0.1381836,-0.1484375
3994,-52.25,-15.6875,55.625,1.469727,-0.04882813,0.4057617,-0.2866211,-0.1333008,-0.1469727
3998,-55.8125,-15.375,75.5625,1.500488,0.008789063,0.3671875,-0.2890625,-0.1254883,-0.1484375
4002,-62.8125,-4.4375,87.625,1.570313,0.01660156,0.3520508,-0.2915039,-0.1196289,-0.1494141
4006,-67.3125,4.625,104.75,1.582031,0.0009765625,0.3134766,-0.293457,-0.1069336,-0.1484375
4010,-73.8125,9.6875,127.875,1.597656,0.008789063,0.2866211,-0.2949219,-0.09570313,-0.1508789
4014,-78.875,7.0625,153.5625,1.585938,0.0009765625,0.2788086,-0.2973633,-0.08447266,-0.1523438
4018,-85.9375,-2.9375,178.3125,1.678711,0.03222656,0.2983398,-0.2958984,-0.06835938,-0.1538086
4022,-92.5,-4,202.9375,1.826172,0.02832031,0.3173828,-0.2998047,-0.04589844,-0.1523438
4026,-91,4.6875,225.3125,1.96582,0.01269531,0.3481445,-0.2983398,-0.03076172,-0.1538086
4030,-85.25,18,247.5625,1.992676,-0.03759766,0.3017578,-0.2949219,-0.006835938,-0.1508789
4035,-71.3125,29.6875,267.375,1.954102,-0.06054688,0.2636719,-0.293457,0.02148438,-0.1547852
4039,-54.9375,30.0625,288.4375,1.822266,-0.04150391,0.2402344,-0.2875977,0.04150391,-0.15625
4043,-46.4375,31.875,299.125,1.818359,0.02832031,0.2329102,-0.2783203,0.06640625,-0.15625
4047,-39.6875,40.4375,300.375,1.740723,-0.02587891,0.2329102,-0.2661133,0.09375,-0.1591797
4051,-24.6875,46.1875,302.0625,1.63623,-0.1308594,0.2021484,-0.2578125,0.1088867,-0.1591797
4055,-8.75,61.875,298.0625,1.659668,-0.08789063,0.2060547,-0.2412109,0.1337891,-0.1630859
4059,2.375,78.4375,291.4375,1.52002,-0.09570313,0.1713867,-0.222168,0.1523438,-0.168457
4063,14.0625,91.5,284.4375,1.48877,-0.06445313,0.1289063,-0.2104492,0.1674805,-0.1738281
4067,11.0625,94.6875,291.0625,1.326172,0.0009765625,0.08251953,-0.1889648,0.1826172,-0.1806641
4071,-1,82.625,293.0625,1.213867,0.05126953,0.1098633,-0.1650391,0.1962891,-0.1865234
4075,-12.75,79.625,287.25,1.171387,-0.01025391,0.09423828,-0.1494141,0.2060547,-0.1865234
4079,-18.0625,67.5,287.125,1.144043,-0.1850586,0.07910156,-0.1259766,0.2211914,-0.1904297
4083,-4.3125,74.0625,288.6875,1.144043,-0.2900391,0.02880859,-0.09863281,0.2285156,-0.1928711
4087,12,79.25,282.5,1.05127,-0.2666016,0.02490234,-0.08300781,0.2338867,-0.1943359
4091,19.5,85.25,281.3125,0.9619141,-0.2163086,0.01367188,-0.05664063,0.2387695,-0.1987305
4095,19.875,78.1875,285.375,0.6713867,-0.1967773,-0.001464844,-0.02832031,0.2397461,-0.2026367
4099,21.3125,68.75,277.1875,0.6362305,-0.2006836,0.005859375,-0.01025391,0.2397461,-0.2041016
4103,20.25,69,267.1875,0.5048828,-0.1889648,-0.03613281,0.01416016,0.2397461,-0.2055664
4107,23.9375,55.8125,267.5625,0.2875977,-0.2939453,-0.04736328,0.0390625,0.2324219,-0.2080078
4111,31.4375,44.5,257.5,0.1948242,-0.421875,-0.08203125,0.0546875,0.2275391,-0.2109375
4115,48.5,46.5,245.125,0.2177734,-0.3095703,-0.01660156,0.08056641,0.2197266,-0.2119141
4119,58.75,50.75,222.8125,0.1713867,-0.2548828,0.08642578,0.1010742,0.2084961,-0.2163086
4123,51.6875,60.125,210.75,0.2177734,-0.2045898,0.1787109,0.1118164,0.2001953,-0.21875
4127,40.5,61.375,214.5,0.004882813,-0.340332,0.2211914,0.1308594,0.1899414,-0.21875
4131,32.5625,42.5625,222.875,-0.1459961,-0.324707,0.2983398,0.1499023,0.1748047,-0.21875
4135,21.5625,36.5625,220.0625,-0.1186523,-0.3017578,0.3442383,0.1616211,0.1689453,-0.2231445
4139,12.5,36.9375,217.125,-0.2851563,-0.3208008,0.3017578,0.1782227,0.1547852,-0.2202148
4143,11.9375,27.0625,213.875,-0.3974609,-0.387207,0.2866211,0.1914063,0.1401367,-0.21875
4147,18.125,20.3125,218,-0.4711914,-0.355957,0.2250977,0.2021484,0.1298828,-0.21875
4151,33.5625,19.4375,212,-0.6455078,-0.2431641,0.1635742,0.215332,0.1137695,-0.2202148
4155,51.875,22.875,179.875,-0.9130859,-0.002441406,0.1132813,0.2211914,0.09521484,-0.2216797
4159,66.0625,22.125,131.5,-1.052734,0.1601563,0.08642578,0.230957,0.08398438,-0.2202148
4164,74.625,21.6875,87.8125,-1.168945,0.3271484,0.03271484,0.234375,0.07128906,-0.2246094
4168,77.375,17.125,39.4375,-1.176758,0.7392578,0.04443359,0.2392578,0.06005859,-0.2231445
4172,59.9375,8.0625,-5.9375,-1.335449,0.5644531,0.02490234,0.2392578,0.05615234,-0.2270508
4176,33.0625,-8.125,-47.4375,-1.261719,0.5991211,0.05957031,0.2392578,0.05517578,-0.2255859
4180,2.25,-19.6875,-79.9375,-1.071777,0.4243164,0.125,0.2368164,0.05761719,-0.2255859
4184,-9.3125,-27.125,-108.625,-0.9248047,0.2265625,0.1826172,0.2329102,0.0625,-0.2285156
4188,-10,-25.125,-136,-0.7890625,0.1098633,0.1943359,0.2285156,0.07275391,-0.2299805
4192,-9.25,-25.25,-152.9375,-0.7617188,0.09423828,0.1748047,0.2202148,0.08496094,-0.230957
4196,-8.25,-34.6875,-165.5,-0.8125,0.07080078,0.1518555,0.215332,0.09228516,-0.230957
4200,-5.375,-44.3125,-192.375,-0.7543945,0.1098633,0.1713867,0.2055664,0.1049805,-0.2338867
4204,-7.0625,-49.375,-226.5,-0.6108398,0.1333008,0.2211914,0.1928711,0.1186523,-0.2353516
4208,-18.0625,-51.5,-255.25,-0.4521484,0.140625,0.2636719,0.1821289,0.1298828,-0.237793
4212,-32.3125,-60.1875,-264.875,-0.328125,0.05517578,0.2519531,0.1650391,0.1459961,-0.2392578
4216,-37,-75.9375,-258.8125,-0.2387695,-0.05273438,0.1904297,0.1459961,0.1625977,-0.2392578
4220,-30.75,-91.8125,-258.3125,-0.1459961,-0.1347656,0.1865234,0.1308594,0.1723633,-0.237793
4224,-20.25,-97.5625,-263,0.09033203,-0.1811523,0.2250977,0.105957,0.1850586,-0.2407227
4228,-11.5,-95.6875,-281.75,0.2836914,-0.1850586,0.3330078,0.08056641,0.1948242,-0.2421875
4232,-13.75,-92.3125,-306,0.559082,-0.1811523,0.4482422,0.06152344,0.2001953,-0.2407227
4236,-25.75,-79.1875,-298.5625,0.7719727,-0.2314453,0.3979492,0.03564453,0.2084961,-0.2421875
4240,-29.4375,-79.3125,-270,0.690918,-0.4296875,0.3056641,0.009277344,0.2124023,-0.237793
4244,-20.3125,-97.5625,-252.8125,0.6557617,-0.4609375,0.2749023,-0.006835938,0.2138672,-0.2338867
4248,-21.8125,-114.9375,-248.375,0.9350586,-0.2163086,0.375,-0.03320313,0.2138672,-0.2299805
4252,-26.25,-123.5625,-255.1875,0.9775391,-0.3911133,0.2368164,-0.05908203,0.2148438,-0.2285156
4256,-13.875,-110.9375,-262.5625,1.109375,-0.484375,0.1674805,-0.07470703,0.2114258,-0.2270508
4260,3.0625,-80.875,-260.4375,1.217773,-0.4067383,0.1748047,-0.1010742,0.2050781,-0.2216797
4264,13.875,-51.4375,-245.875,1.155762,-0.355957,0.1865234,-0.1220703,0.1948242,-0.2202148
4268,20.0625,-60.8125,-256.8125,1.023926,-0.2241211,0.2597656,-0.1342773,0.1899414,-0.2177734
4272,10.6875,-71.1875,-265.6875,1.299316,-0.08007813,0.2788086,-0.1542969,0.1772461,-0.2163086
4276,-4.6875,-72.375,-256.6875,1.368652,-0.1694336,0.2290039,-0.1748047,0.1635742,-0.2119141
4280,-6.375,-75.0625,-234.8125,1.388184,-0.2431641,0.144043,-0.1875,0.1547852,-0.2094727
4284,-3.9375,-72.125,-196.5625,1.299316,-0.2744141,0.04443359,-0.2021484,0.1435547,-0.2041016
4288,12.375,-74.5,-177.25,1.101563,-0.2783203,-0.02050781,-0.2163086,0.1313477,-0.199707
4293,35,-78.6875,-183.125,1.101563,-0.1616211,-0.03613281,-0.2236328,0.1225586,-0.1958008
4297,53,-75.9375,-204,1.310547,0.008789063,0.09423828,-0.2363281,0.1074219,-0.1918945
4301,52.5625,-54.6875,-212.0625,1.543457,0.1640625,0.1787109,-0.2470703,0.08886719,-0.1889648
4305,41.3125,-48.125,-198.8125,1.419434,0.1445313,0.1518555,-0.2543945,0.07763672,-0.1850586
4309,33.4375,-70.375,-175.5,1.237305,0.09033203,0.08642578,-0.2617188,0.05859375,-0.1835938
4313,31.875,-94.5,-163.25,1.291504,0.140625,0.08642578,-0.2709961,0.04638672,-0.1782227
4317,37.75,-93.1875,-165.375,1.481445,0.1484375,0.1328125,-0.2792969,0.03515625,-0.1738281
4321,54.6875,-70.1875,-174.8125,1.546875,0.1254883,0.159668,-0.2841797,0.02001953,-0.1674805
4325,70,-47.0625,-189.4375,1.597656,0.2299805,0.2060547,-0.2900391,0,-0.1630859
4329,63.625,-32.75,-192.3125,1.543457,0.269043,0.2094727,-0.293457,-0.01318359,-0.1606445
4333,53.875,-38.25,-177.375,1.535645,0.1953125,0.2211914,-0.2973633,-0.03320313,-0.1577148
4337,45.25,-45.0625,-148.375,1.620605,0.06689453,0.2827148,-0.2958984,-0.04833984,-0.1538086
4341,49.9375,-38.9375,-121.4375,1.686523,-0.04150391,0.3710938,-0.2983398,-0.05957031,-0.1523438
4345,58.375,-17.625,-106.0625,1.713867,-0.01806641,0.4287109,-0.3007813,-0.07177734,-0.1469727
4349,59.125,1.1875,-99.8125,1.566406,0.004882813,0.4404297,-0.2998047,-0.08447266,-0.1455078
4353,49.1875,0.125,-91.75,1.469727,0.0009765625,0.4633789,-0.2973633,-0.09082031,-0.1455078
4357,30.0625,-7.6875,-66.4375,1.516113,-0.002441406,0.5522461,-0.2973633,-0.1020508,-0.1425781
4361,10.875,-13.375,-27.25,1.582031,-0.04882813,0.640625,-0.2973633,-0.1069336,-0.1425781
4365,-5.6875,-13.375,4.1875,1.566406,-0.03759766,0.6557617,-0.2949219,-0.1083984,-0.1416016
4369,-25.25,-9.25,19.8125,1.5625,0.01660156,0.6328125,-0.2973633,-0.1054688,-0.1401367
4373,-49.0625,-1.6875,34.625,1.558594,-0.006347656,0.5522461,-0.2973633,-0.1020508,-0.1416016
4377,-62.25,1.4375,53.875,1.512207,-0.08398438,0.425293,-0.2983398,-0.09960938,-0.1425781
4381,-67.625,1.875,78.25,1.535645,-0.1499023,0.3134766,-0.2998047,-0.08935547,-0.1425781
4385,-68.75,4.9375,107,1.640137,-0.2045898,0.2675781,-0.2998047,-0.07958984,-0.1425781
4389,-67,10.25,132.8125,1.666992,-0.1889648,0.2675781,-0.3007813,-0.07080078,-0.144043
4393,-68,15.4375,150.1875,1.736816,-0.1230469,0.2749023,-0.3007813,-0.05566406,-0.1469727
4397,-72.125,24.9375,168.125,1.845703,-0.09960938,0.2788086,-0.3007813,-0.03808594,-0.1469727
4401,-70.75,28.75,192.1875,1.787598,-0.1347656,0.2558594,-0.2998047,-0.02441406,-0.1508789
4405,-68.625,25.5,213.5625,1.864746,-0.05664063,0.2519531,-0.2998047,-0.004394531,-0.1523438
4409,-77,22.1875,230.1875,1.903809,-0.002441406,0.2441406,-0.2924805,0.01855469,-0.1547852
4413,-87.0625,11.5625,246.125,2.039063,-0.04882813,0.2250977,-0.2890625,0.03369141,-0.1538086
4417,-94.125,0.125,266.5625,2.170898,-0.09570313,0.1518555,-0.2827148,0.06103516,-0.1538086
4422,-99.875,-21.4375,305.6875,2.225098,-0.2241211,0.05566406,-0.2734375,0.08886719,-0.1484375
4426,-81.25,-21.0625,345.8125,2.461426,-0.3989258,0.02099609,-0.2636719,0.1088867,-0.144043
4430,-36.125,16.5,367.5,2.438477,-0.5854492,-0.08203125,-0.2495117,0.1401367,-0.1425781
4434,30.1875,66.625,362.8125,2.221191,-0.4335938,-0.128418,-0.2304688,0.1660156,-0.1425781
4438,65.25,102.6875,352.8125,1.830078,-0.1733398,-0.1782227,-0.2138672,0.1801758,-0.1484375
4442,79.625,106.25,353.6875,1.42334,0.05126953,-0.1362305,-0.1875,0.1987305,-0.1616211
4446,71.5,93.125,354.75,1.202148,0.15625,-0.1054688,-0.1591797,0.2114258,-0.1699219
4450,61.375,80.625,349.9375,1.113281,0.1992188,-0.05908203,-0.1367188,0.2197266,-0.1782227
4454,59.625,81.625,342.9375,1.074219,0.1020508,-0.05908203,-0.1079102,0.2299805,-0.1850586
4458,64.1875,82.3125,322.4375,0.9350586,0.09423828,-0.04394531,-0.07714844,0.2348633,-0.1943359
4462,66.5625,89.75,307.0625,0.9462891,0.121582,-0.02441406,-0.05810547,0.2363281,-0.2026367
4466,54.4375,91.3125,293.625,0.7602539,0.1293945,-0.02832031,-0.02832031,0.2363281,-0.206543
4470,42.75,81.375,292.0625,0.6362305,0.04394531,-0.03613281,-0.0009765625,0.2324219,-0.2133789
4474,42,71.5,304.625,0.5898438,-0.08007813,-0.05517578,0.01904297,0.2314453,-0.2163086
4478,57.4375,76.625,295.875,0.4814453,-0.07617188,-0.06298828,0.04736328,0.2236328,-0.21875
4482,77.875,89.5,269.1875,0.3652344,-0.07226563,-0.07470703,0.07470703,0.2124023,-0.2246094
4486,92.6875,100.375,243.6875,0.2758789,0.01660156,-0.01318359,0.08886719,0.2036133,-0.2270508
4490,84.625,105.4375,234.8125,0.2607422,0.05517578,0.07519531,0.1142578,0.1899414,-0.2299805
4494,68.5625,97.25,237.8125,0.09033203,0.004882813,0.1713867,0.1376953,0.1748047,-0.230957
4498,35.3125,68.4375,241,-0.04492188,0.03613281,0.2866211,0.1508789,0.1611328,-0.2324219
4502,4.125,41.625,250.8125,-0.1962891,-0.05273438,0.3330078,0.1689453,0.1489258,-0.230957
4506,-15.6875,21.875,246.625,-0.2543945,-0.09179688,0.3598633,0.1865234,0.1323242,-0.230957
4510,-18.1875,25.625,234.1875,-0.3046875,-0.1347656,0.3442383,0.1948242,0.1235352,-0.2299805
4514,-6.0625,35.75,209.3125,-0.4750977,-0.1269531,0.2636719,0.2094727,0.1113281,-0.2255859
4518,18.0625,40.125,186.625,-0.7231445,-0.07617188,0.1865234,0.21875,0.09619141,-0.2270508
4522,42.1875,47.5,159.875,-0.8393555,0.1098633,0.140625,0.2270508,0.08642578,-0.2246094
4526,60.3125,51.125,127.6875,-1.087402,0.3232422,0.1171875,0.234375,0.07128906,-0.2246094
4530,70.5,43.3125,86.625,-1.37793,0.6030273,0.06738281,0.2412109,0.05761719,-0.21875
4534,62.375,31.375,29.375,-1.467285,0.6694336,0.08642578,0.2460938,0.05273438,-0.2216797
4538,53.875,20.5,-25.75,-1.463379,0.7236328,0.1020508,0.25,0.04492188,-0.2216797
4542,38.6875,6.125,-74.1875,-1.428223,0.6264648,0.09423828,0.2485352,0.04736328,-0.2202148
4546,27,-8.75,-115.125,-1.227051,0.4907227,0.1557617,0.2436523,0.05126953,-0.2231445
4551,14.9375,-17.5,-147.4375,-1.041016,0.3271484,0.1943359,0.2402344,0.05859375,-0.2246094
4555,6.5,-21.9375,-172.125,-0.8393555,0.1679688,0.2368164,0.2353516,0.06982422,-0.2246094
4559,3.75,-24,-192.25,-0.730957,0.03613281,0.2441406,0.2285156,0.08007813,-0.2246094
4563,3.875,-26.4375,-208.5625,-0.6455078,-0.04541016,0.2060547,0.21875,0.09228516,-0.2285156
4567,6.4375,-29.375,-224.0625,-0.5683594,-0.07226563,0.1904297,0.2070313,0.1088867,-0.2299805
4571,7.5,-33.1875,-247.4375,-0.5214844,-0.08007813,0.1982422,0.199707,0.1186523,-0.2299805
4575,2.9375,-41.6875,-267,-0.3125,-0.07226563,0.2480469,0.184082,0.1362305,-0.230957
4579,-11.9375,-47.3125,-262.375,-0.09521484,-0.1269531,0.2597656,0.1650391,0.1523438,-0.2324219
4583,-24.375,-61.125,-235.9375,-0.06445313,-0.2783203,0.2368164,0.1533203,0.1601563,-0.2338867
4587,-25.4375,-83.1875,-213.625,-0.05664063,-0.4140625,0.1943359,0.1342773,0.1738281,-0.2353516
4591,-24,-102.6875,-215.3125,0.07470703,-0.387207,0.2558594,0.112793,0.1860352,-0.2368164
4595,-25.625,-106.25,-220.25,0.2451172,-0.3950195,0.2709961,0.09960938,0.1938477,-0.237793
4599,-29.875,-95.875,-231.3125,0.4580078,-0.3676758,0.3291016,0.07714844,0.2001953,-0.2368164
4603,-34.3125,-79.125,-230.75,0.4350586,-0.4648438,0.2441406,0.05322266,0.2075195,-0.2368164
4607,-27.0625,-76.9375,-233.1875,0.3808594,0.3505859,0.159668,0.0390625,0.2138672,-0.2353516
4611,-1.8125,-86.6875,-223.3125,0.3730469,-0.5424805,0.1171875,0.01757813,0.2148438,-0.2338867
4615,9.3125,-96.6875,-219.9375,0.4619141,-0.4335938,0.1713867,-0.003417969,0.2163086,-0.2324219
4619,6.8125,-114.75,-225.1875,0.6132813,-0.3598633,0.2368164,-0.02099609,0.2163086,-0.230957
4623,-8.375,-125.4375,-219.875,0.8496094,-0.2783203,0.2636719,-0.04394531,0.2138672,-0.2299805
4627,-28.125,-128.4375,-211.75,0.9892578,-0.2900391,0.2480469,-0.06738281,0.2114258,-0.2285156
4631,-39.6875,-125.25,-203.0625,0.9697266,-0.340332,0.1748047,-0.08300781,0.2084961,-0.2231445
4635,-41.9375,-129.6875,-205.4375,0.9814453,-0.3911133,0.1518555,-0.1044922,0.2075195,-0.2148438
4639,-41.0625,-124.9375,-204.25,1.109375,-0.3833008,0.1328125,-0.1245117,0.2026367,-0.206543
4643,-41.625,-116.9375,-204.875,1.16748,-0.355957,0.144043,-0.1401367,0.2001953,-0.2026367
4647,-46.8125,-109.6875,-204.375,1.279785,-0.3173828,0.144043,-0.1616211,0.1923828,-0.1918945
4651,-53.375,-100.4375,-195.125,1.337891,-0.3598633,0.09033203,-0.1782227,0.1860352,-0.1865234
4655,-48.5,-91.3125,-186.375,1.206055,-0.4375,0.009765625,-0.1914063,0.1826172,-0.1796875
4659,-28.375,-80.5,-189.1875,1.202148,-0.4375,-0.01660156,-0.2055664,0.1738281,-0.1699219
4663,1.9375,-58.1875,-194.625,1.159668,-0.4257813,-0.04003906,-0.2197266,0.1611328,-0.1645508
4667,29.9375,-48.4375,-214.8125,1.055176,-0.2314453,-0.01318359,-0.2280273,0.1513672,-0.1630859
4671,21.75,-59.0625,-225.625,1.163574,0.05126953,0.04443359,-0.2436523,0.1362305,-0.1606445
4675,-6.375,-81.875,-214.5625,1.237305,0.08251953,0.04052734,-0.2543945,0.1176758,-0.1547852
4680,-30.625,-104,-201.4375,1.372559,0.008789063,0.05957031,-0.2636719,0.1088867,-0.1494141
4684,-34.3125,-104.375,-201.1875,1.644043,-0.1074219,0.08251953,-0.2734375,0.09375,-0.137207
4688,-15.125,-70.5,-202.125,1.950195,-0.1772461,0.159668,-0.2866211,0.07763672,-0.1279297
4692,17.5625,-17.8125,-202.3125,1.961914,-0.2548828,0.144043,-0.2915039,0.06640625,-0.1235352
4696,49.4375,19.375,-207,1.798828,-0.1230469,0.08251953,-0.2973633,0.04638672,-0.1264648
4700,55.625,33.5,-201.875,1.539551,-0.04541016,-0.03613281,-0.3007813,0.02490234,-0.1279297
4704,55.375,13.6875,-196.75,1.357422,-0.06445313,-0.08984375,-0.3017578,0.01123047,-0.1318359
4708,57,-8.6875,-185.0625,1.500488,-0.1152344,-0.02050781,-0.3056641,-0.008300781,-0.1347656
4712,57.625,-9.1875,-159.1875,1.76416,-0.1269531,0.144043,-0.3066406,-0.02832031,-0.1303711
4716,51.875,5.375,-116.625,1.826172,-0.1420898,0.2558594,-0.3081055,-0.03710938,-0.1318359
4720,44.0625,13.5625,-84.1875,1.620605,-0.1420898,0.2480469,-0.3056641,-0.05078125,-0.1333008
4724,28.5,10.25,-64.875,1.496582,-0.1230469,0.2211914,-0.3041992,-0.05810547,-0.1333008
4728,11.75,2.5625,-41.5,1.446289,-0.2124023,0.2368164,-0.3056641,-0.06054688,-0.1333008
4732,1.4375,-6.8125,-12.6875,1.450195,-0.2783203,0.2558594,-0.3041992,-0.06591797,-0.1347656
4736,0.6875,-9.875,18,1.52002,-0.3017578,0.3095703,-0.3066406,-0.06591797,-0.1347656
4740,-0.25,-4.1875,38.3125,1.597656,-0.2241211,0.3979492,-0.3066406,-0.06445313,-0.1333008
4744,-12.75,7.125,57.6875,1.63623,-0.1694336,0.425293,-0.3056641,-0.05957031,-0.1318359
4748,-19.5,21.75,68.125,1.659668,-0.1694336,0.4829102,-0.3056641,-0.0546875,-0.1347656
4752,-31.0625,33,79.75,1.5625,-0.1772461,0.4287109,-0.3041992,-0.04833984,-0.1347656
4756,-42,22.5625,104.8125,1.504395,-0.1967773,0.3671875,-0.3017578,-0.03955078,-0.1401367
4760,-51.5,9,136.125,1.566406,-0.2124023,0.3095703,-0.3032227,-0.02587891,-0.1386719
4764,-53.6875,7.9375,158.9375,1.659668,-0.2124023,0.2827148,-0.3041992,-0.01806641,-0.1416016
4768,-43.9375,14.875,174.4375,1.655762,-0.2470703,0.2636719,-0.3017578,0.001464844,-0.1386719
4772,-32.9375,23.125,180,1.647949,-0.1694336,0.2441406,-0.2958984,0.01855469,-0.1416016
4776,-30,32.3125,182.25,1.647949,-0.1347656,0.2211914,-0.2949219,0.02880859,-0.1425781
4780,-26.5,40.5,195.0625,1.666992,-0.1347656,0.1826172,-0.2890625,0.04882813,-0.1455078
4784,-18.875,43.375,213.5625,1.632324,-0.1308594,0.1865234,-0.2827148,0.06494141,-0.1484375
4788,-20.5,43.5625,227.75,1.644043,-0.06054688,0.1674805,-0.2768555,0.07861328,-0.1538086
4792,-20.4375,42,241.5625,1.601563,-0.1230469,0.1328125,-0.2661133,0.09863281,-0.1538086
4796,-13.9375,47.75,240.9375,1.585938,-0.09960938,0.1171875,-0.2543945,0.1186523,-0.1577148
4800,-12.625,57.4375,233.9375,1.523926,-0.1230469,0.07910156,-0.2446289,0.1298828,-0.1606445
4804,-16.75,55.375,237.9375,1.454102,-0.1538086,0.08251953,-0.2319336,0.1489258,-0.1645508
4809,-25.0625,50.875,251.4375,1.450195,-0.2163086,0.06738281,-0.2138672,0.1650391,-0.1674805
4813,-22.3125,50.6875,259.625,1.407715,-0.3442383,0.02880859,-0.2045898,0.1772461,-0.168457
4817,-12,55.1875,261.4375,1.357422,-0.355957,0.02490234,-0.1855469,0.1923828,-0.1699219
4821,-4.8125,54.875,258.3125,1.306641,-0.4257813,0.01708984,-0.1665039,0.2075195,-0.1713867
4825,5.1875,60.3125,264.25,1.314453,-0.4453125,0.005859375,-0.1518555,0.2148438,-0.1738281
4829,11.25,68.625,262.875,1.198242,-0.4140625,-0.01318359,-0.128418,0.2260742,-0.1782227
4833,14.1875,68.25,264.6875,1.085938,-0.387207,-0.01318359,-0.1054688,0.2338867,-0.1806641
4837,9.1875,66.1875,267.5,1.02002,-0.3754883,0.005859375,-0.09033203,0.2387695,-0.1821289
4841,1.5,48.9375,274.625,0.8920898,-0.4453125,0.005859375,-0.06494141,0.2451172,-0.1865234
4845,2.25,38.9375,296.1875,0.9233398,-0.5698242,-0.04003906,-0.04150391,0.2460938,-0.1875
4849,21.1875,39,302.8125,0.8730469,-0.5966797,-0.01660156,-0.02246094,0.2485352,-0.1889648
4853,36.0625,47.6875,295.375,0.8842773,-0.519043,0.001953125,0.004394531,0.2475586,-0.1928711
4857,49,58.5,299.9375,0.8881836,-0.6318359,-0.05126953,0.03173828,0.2426758,-0.1972656
4861,63.1875,65.875,314.0625,0.8032227,-0.5424805,-0.03613281,0.0546875,0.2373047,-0.1987305
4865,50.4375,56.6875,343.5,0.609375,-0.2861328,0.01708984,0.08056641,0.2260742,-0.2055664
4869,11.3125,22.5625,389.6875,0.2529297,0.0009765625,0.07910156,0.1118164,0.2124023,-0.206543
4873,-25.25,-24.625,409,0.03955078,-0.06445313,0.1748047,0.1308594,0.2001953,-0.206543
4877,-22.5,-39.3125,396.4375,0.06298828,-0.08789063,0.3017578,0.1591797,0.1811523,-0.206543
4881,3.6875,-15.5625,364.25,0.1015625,-0.03759766,0.340332,0.1821289,0.1586914,-0.2119141
4885,48.75,18.875,326.625,-0.1303711,0.140625,0.2827148,0.1948242,0.1450195,-0.2109375
4889,94.8125,40.5,294,-0.4868164,0.21875,0.2133789,0.2138672,0.1176758,-0.2163086
4893,121.625,49.9375,253.8125,-0.7578125,0.8325195,0.1635742,0.2294922,0.09130859,-0.2163086
4897,122.125,50.4375,202.75,-1.165039,1.279297,0.159668,0.2402344,0.07128906,-0.2177734
4901,102.9375,47.625,117.1875,-1.475098,1.535645,0.1289063,0.2475586,0.05371094,-0.21875
4905,74.5,42.25,21.875,-1.529297,1.493164,0.1020508,0.2519531,0.04003906,-0.2163086
4909,53.3125,35.9375,-61.6875,-1.436035,1.240234,0.125,0.2558594,0.03613281,-0.2163086
4913,30.3125,27.25,-127.875,-1.234863,0.9760742,0.1367188,0.2543945,0.04150391,-0.2163086
4917,8.875,17.625,-168.8125,-0.9672852,0.5878906,0.1132813,0.2509766,0.04980469,-0.2119141
4921,-0.375,9,-187.5625,-0.7504883,0.2109375,0.1098633,0.25,0.06103516,-0.2119141
4925,1.0625,3.8125,-200.3125,-0.6147461,-0.02978516,0.1132813,0.2412109,0.07763672,-0.2119141
4929,8.5625,1.75,-213.125,-0.5644531,-0.1459961,0.125,0.2353516,0.09375,-0.2109375
4933,10.3125,-0.6875,-225.625,-0.5566406,-0.1269531,0.1674805,0.2260742,0.1035156,-0.2109375
4938,4.0625,-7.625,-235.4375,-0.5449219,-0.1308594,0.1748047,0.2163086,0.1210938,-0.2094727
4942,-5.3125,-19.25,-243,-0.4985352,-0.1035156,0.2060547,0.2021484,0.1362305,-0.2094727
4946,-21.75,-32.4375,-248.8125,-0.3320313,-0.1152344,0.2250977,0.1928711,0.1474609,-0.2109375
4950,-37.125,-42.0625,-245.125,-0.1572266,-0.2431641,0.2480469,0.1757813,0.1650391,-0.2094727
4954,-41,-49.125,-230.75,0.008789063,-0.46875,0.2060547,0.1567383,0.1801758,-0.2109375
4958,-25.8125,-52.6875,-214.5,0.05517578,-0.6396484,0.1674805,0.1459961,0.1899414,-0.2080078
4962,-4.375,-50.25,-212.375,0.159668,-0.5776367,0.2211914,0.1269531,0.2026367,-0.2094727
4966,16.5625,-36.25,-227.1875,0.1831055,-0.5463867,0.2060547,0.1079102,0.2099609,-0.2109375
4970,29.4375,-23.25,-251.25,0.125,-0.4570313,0.2094727,0.09521484,0.2148438,-0.2119141
4974,30,-26.5,-267.75,0.1328125,-0.402832,0.1904297,0.07373047,0.2211914,-0.2148438
4978,20.25,-42.625,-263.5625,0.2177734,-0.3676758,0.1904297,0.04980469,0.2250977,-0.2163086
4982,-1.3125,-73.625,-244.8125,0.4155273,-0.3989258,0.2211914,0.03662109,0.2275391,-0.2133789
4986,-22.1875,-94.875,-222.4375,0.6518555,-0.4804688,0.2329102,0.01171875,0.2314453,-0.2163086
4990,-29.875,-98.5625,-210.0625,0.8652344,-0.6435547,0.2250977,-0.01269531,0.2338867,-0.2119141
4994,-16,-83.25,-211.5625,0.9272461,-0.6162109,0.2368164,-0.02587891,0.2338867,-0.2094727
4998,-7.0625,-63.5,-229.625,0.8920898,-0.5385742,0.2250977,-0.04394531,0.2314453,-0.206543
5002,-6.4375,-63.5,-231.375,0.7719727,-0.421875,0.1943359,-0.06884766,0.2299805,-0.206543
5006,-30.875,-88.375,-228.6875,0.8222656,-0.2783203,0.2060547,-0.08203125,0.2236328,-0.2055664
5010,-64.8125,-110.125,-213.4375,1.113281,-0.3911133,0.1748047,-0.1030273,0.2226563,-0.1943359
5014,-76.25,-112,-187.75,1.337891,-0.6279297,0.1132813,-0.1245117,0.2211914,-0.1865234
5018,-60.375,-101.75,-167.8125,1.260254,-0.7172852,0.05566406,-0.1376953,0.2172852,-0.1796875
5022,-39.75,-89,-167.8125,1.213867,-0.5966797,0.04443359,-0.1542969,0.2138672,-0.1713867
5026,-26.875,-67.75,-183.0625,1.078125,-0.4067383,0.01708984,-0.168457,0.2075195,-0.1645508
5030,-36.625,-74.25,-200.0625,0.8881836,-0.2124023,-0.01660156,-0.1806641,0.2011719,-0.1591797
5034,-60.0625,-93.375,-200.875,1.089844,-0.2241211,-0.04736328,-0.1972656,0.1914063,-0.1523438
5038,-85.8125,-108.4375,-183.0625,1.299316,-0.2822266,-0.05908203,-0.215332,0.1826172,-0.1401367
5042,-97.4375,-114.75,-159.1875,1.458008,-0.4882813,-0.1054688,-0.2236328,0.1801758,-0.1303711
5046,-77.5625,-96.875,-152.625,1.63623,-0.6357422,-0.08203125,-0.2363281,0.1723633,-0.1166992
5050,-37.5625,-54.8125,-166.1875,1.655762,-0.6435547,-0.04394531,-0.2495117,0.1611328,-0.1074219
5054,-6.8125,-25.6875,-176.875,1.446289,-0.4453125,-0.07080078,-0.2568359,0.1547852,-0.105957
5058,-3.5625,-26.3125,-174.75,1.22168,-0.1889648,-0.1054688,-0.2661133,0.1411133,-0.1020508
5062,-13.8125,-40,-170.125,1.213867,-0.1152344,-0.1166992,-0.2744141,0.1264648,-0.09765625
5067,-17.6875,-43.8125,-170,1.29541,-0.1420898,-0.1474609,-0.2807617,0.1176758,-0.09375
5071,-11.4375,-33.9375,-173.4375,1.42334,-0.2006836,-0.1474609,-0.2900391,0.1035156,-0.09082031
5075,3.8125,-21.6875,-176.1875,1.450195,-0.2939453,-0.1708984,-0.2973633,0.08886719,-0.08691406
5079,26.5625,-9.8125,-179.75,1.492676,-0.3520508,-0.1860352,-0.3017578,0.07617188,-0.08447266
5083,43.5,-2.25,-177.5,1.458008,-0.2548828,-0.1630859,-0.3066406,0.05859375,-0.08837891
5087,40.375,-10.0625,-166.4375,1.395996,-0.1928711,-0.1054688,-0.3115234,0.04150391,-0.08691406
5091,30.5,-21.1875,-153.3125,1.477539,-0.1850586,-0.02050781,-0.3149414,0.03125,-0.08544922
5095,13.5,-23.75,-133.8125,1.574219,-0.1616211,0.06738281,-0.3188477,0.01611328,-0.08544922
5099,-7.1875,-23.5625,-104.25,1.539551,-0.2163086,0.1132813,-0.3208008,0.00390625,-0.08154297
5103,-19.5625,-23.375,-83.1875,1.504395,-0.3017578,0.1132813,-0.3222656,-0.0004882813,-0.08154297
5107,-19.25,-17.125,-69.9375,1.477539,-0.402832,0.1210938,-0.3232422,-0.009277344,-0.07763672
5111,-6.1875,-5.375,-58.625,1.52002,-0.4921875,0.105957,-0.3256836,-0.01464844,-0.07617188
5115,12.125,11.25,-41.0625,1.52002,-0.519043,0.140625,-0.324707,-0.01953125,-0.07861328
5119,30.8125,27,-26.5625,1.516113,-0.5307617,0.1557617,-0.3232422,-0.02197266,-0.07861328
5123,38.6875,34.625,-8.25,1.446289,-0.4101563,0.1826172,-0.324707,-0.02441406,-0.08300781
5127,30.5,32.3125,11.5,1.43457,-0.3208008,0.1557617,-0.3232422,-0.02832031,-0.08447266
5131,21.9375,36.875,31.8125,1.52002,-0.2783203,0.1518555,-0.3232422,-0.02685547,-0.08837891
5135,11.125,42.3125,55.0625,1.52002,-0.2705078,0.08251953,-0.3208008,-0.02050781,-0.09082031
5139,4.3125,37.375,82.625,1.458008,-0.3173828,0.02880859,-0.3198242,-0.01806641,-0.09375
5143,2.5,35,100.75,1.5625,-0.2861328,0.04785156,-0.3173828,-0.009277344,-0.09667969
5147,0.75,48.875,110.375,1.694336,-0.2939453,0.07910156,-0.3149414,-0.0004882813,-0.1020508
5151,3.875,63.4375,127.1875,1.694336,-0.3286133,0.05957031,-0.3139648,0.006347656,-0.1035156
5155,5.625,69,144.75,1.73291,-0.2861328,0.09033203,-0.309082,0.01855469,-0.112793
5159,-5.1875,68.9375,173.875,1.760254,-0.2241211,0.08251953,-0.3041992,0.03271484,-0.1166992
5163,-22.125,53.0625,212.8125,1.748535,-0.2006836,0.09814453,-0.3007813,0.04492188,-0.1235352
5167,-35.3125,34.5625,240.5,1.783691,-0.2006836,0.09423828,-0.293457,0.06640625,-0.1264648
5171,-41.25,35,251.25,1.930664,-0.2124023,0.1171875,-0.2841797,0.08886719,-0.1289063
5175,-34.875,52.4375,259.4375,1.899902,-0.3364258,0.04785156,-0.2758789,0.1035156,-0.1318359
5179,-11.25,53.4375,274.4375,1.72168,-0.4453125,-0.005371094,-0.2626953,0.1264648,-0.1347656
5183,9.3125,54.375,281.0625,1.709961,-0.355957,-0.02441406,-0.2460938,0.1474609,-0.137207
5187,21.625,63.1875,284.4375,1.674805,-0.2939453,-0.005371094,-0.2353516,0.1601563,-0.1425781
5191,27.75,68.375,285.4375,1.477539,-0.2626953,-0.04394531,-0.215332,0.1787109,-0.1484375
5196,33.5,64.8125,282.8125,1.345703,-0.2744141,-0.05908203,-0.1938477,0.1938477,-0.1538086
5200,40.125,69.3125,276.625,1.302734,-0.2822266,-0.05517578,-0.1806641,0.2036133,-0.1606445
5204,48.625,74.125,264,1.19043,-0.3095703,-0.0859375,-0.1582031,0.2148438,-0.1660156
5208,53.625,76.25,257.5,1.128418,-0.3286133,-0.05908203,-0.1367188,0.2236328,-0.1728516
5212,54.9375,76.125,253.6875,1.05127,-0.2978516,-0.01318359,-0.1201172,0.2275391,-0.1796875
5216,48.375,81.75,240.1875,1.016113,-0.2314453,0.01708984,-0.09716797,0.2338867,-0.1865234
5220,33.4375,80.0625,231.3125,0.8842773,-0.2241211,0.01708984,-0.07568359,0.2363281,-0.1928711
5224,7,61.25,237.625,0.8183594,-0.2509766,0.02880859,-0.06152344,0.2373047,-0.1958008
5228,-17.25,34.3125,266.6875,0.7915039,-0.3833008,0.02099609,-0.0390625,0.2412109,-0.1972656
5232,-19.75,16.875,281.6875,0.7915039,-0.5229492,0.02099609,-0.01513672,0.2451172,-0.1958008
5236,-5.75,24.0625,270.5625,0.8881836,-0.6005859,0.02099609,0.0009765625,0.2451172,-0.1972656
5240,23.875,40.6875,264.25,0.8300781,-0.7329102,-0.02832031,0.02490234,0.2426758,-0.1972656
5244,56.1875,56.75,260.75,0.7373047,-0.6396484,-0.03222656,0.05078125,0.2363281,-0.199707
5248,68.5,61.625,263.3125,0.5512695,-0.4492188,0.005859375,0.06787109,0.2314453,-0.2041016
5252,56.875,45.8125,280.375,0.3847656,-0.2666016,0.08251953,0.09130859,0.2211914,-0.2094727
5256,37.3125,19.75,306.75,0.1635742,-0.2241211,0.07519531,0.1166992,0.2050781,-0.2094727
5260,30.5625,-9.5,324.8125,0.004882813,-0.2431641,0.05566406,0.1293945,0.1962891,-0.2148438
5264,36.5625,-25,327.875,-0.03320313,-0.2202148,0.04443359,0.1523438,0.1772461,-0.21875
5268,52.1875,-30.875,328,-0.1069336,-0.1694336,0.005859375,0.1713867,0.1586914,-0.2231445
5272,69.25,-32.75,325.3125,-0.2231445,-0.03369141,0.02880859,0.1831055,0.1411133,-0.2285156
5276,71,-41.75,316.8125,-0.3974609,0.105957,0.1210938,0.199707,0.1162109,-0.2338867
5280,62.75,-48.625,304.875,-0.5371094,0.3740234,0.2172852,0.2094727,0.08740234,-0.2392578
5284,47.375,-49.25,273.8125,-0.7270508,0.5761719,0.3330078,0.215332,0.07373047,-0.2446289
