Packet number,Gyroscope X (deg/s),Gyroscope Y (deg/s),Gyroscope Z (deg/s),Accelerometer X (g),Accelerometer Y (g),Accelerometer Z (g),Magnetometer X (G),Magnetometer Y (G),Magnetometer Z (G)
2,7.625,3.125,9.6875,0.2255859,-0.9619141,0.1171875,-0.001953125,0.2661133,-0.1494141
6,4.6875,2.25,10.625,0.1870117,-0.9194336,0.09423828,-0.0009765625,0.2675781,-0.1508789
10,-3.5,-0.25,8.125,0.2104492,-0.9038086,0.1020508,-0.0009765625,0.2675781,-0.1484375
14,-8.875,-0.8125,13.5625,0.2138672,-0.9814453,0.105957,0,0.2661133,-0.1508789
18,-1.25,-3.6875,11.8125,0.2138672,-1.004883,0.1020508,0.003417969,0.2675781,-0.1523438
22,5.1875,-2.625,6.625,0.1948242,-0.9506836,0.125,0.002441406,0.2675781,-0.1508789
26,4,-1.8125,1.6875,0.1557617,-0.9580078,0.1210938,0.002441406,0.2675781,-0.1523438
30,-3.6875,-0.75,8.1875,0.1518555,-0.9389648,0.1557617,0.0009765625,0.2675781,-0.1494141
34,-9.375,2.625,16,0.2216797,-1.036133,0.159668,0.004394531,0.2661133,-0.1523438
38,-3.0625,6.4375,22.1875,0.1518555,-1.086426,0.1171875,0.004394531,0.2661133,-0.1508789
42,2.5,2.125,16.25,0.07080078,-0.9506836,0.1132813,0.005859375,0.2675781,-0.1494141
46,-0.5625,-5,-3.1875,0.05126953,-0.8496094,0.09814453,0.006835938,0.2661133,-0.1494141
50,-7,-4.125,-5.5,0.159668,-1.109863,0.1787109,0.006835938,0.2661133,-0.1494141
54,-4.8125,3.25,20.4375,0.1289063,-1.152344,0.159668,0.005859375,0.2661133,-0.1494141
58,-4.625,1.25,28.9375,0.1132813,-0.9775391,0.144043,0.009277344,0.2675781,-0.1469727
62,-2.5625,-0.1875,24.0625,0.1518555,-0.9931641,0.1289063,0.01074219,0.2675781,-0.1494141
66,0.75,-0.1875,20.5625,0.1367188,-0.9697266,0.1367188,0.01416016,0.2675781,-0.1494141
70,0.625,0.25,12.8125,0.1289063,-0.9541016,0.1479492,0.01513672,0.2661133,-0.1484375
74,-2.1875,4.4375,14.0625,0.1289063,-1.024414,0.1557617,0.01513672,0.2661133,-0.1484375
78,-4,9.75,20.75,0.1054688,-1.098145,0.1748047,0.01513672,0.2661133,-0.1484375
82,-2.625,11.6875,33.3125,0.07080078,-1.109863,0.140625,0.01904297,0.2661133,-0.1469727
87,-4.5625,13.25,38.5625,0.07470703,-1.05127,0.1748047,0.02148438,0.2675781,-0.1484375
91,-9.625,20.6875,42.625,0.09033203,-1.125488,0.2172852,0.02734375,0.2661133,-0.1469727
95,-13.5625,33.3125,51.0625,0.03955078,-1.210938,0.2480469,0.03173828,0.2661133,-0.1455078
99,-17.125,41.5625,61.75,-0.08789063,-1.241699,0.2133789,0.03417969,0.2661133,-0.1455078
103,-17,41.5,78.875,-0.230957,-1.45166,0.1748047,0.04150391,0.2636719,-0.1416016
107,-11,32.375,105.6875,-0.3510742,-1.560547,0.1479492,0.05224609,0.2636719,-0.1416016
111,-3.75,20.5,128.9375,-0.3901367,-1.533203,0.09814453,0.06054688,0.2612305,-0.1416016
115,4.125,6.125,141.0625,-0.378418,-1.529297,0.144043,0.07226563,0.2587891,-0.1416016
119,16.875,-1.5625,142.6875,-0.3706055,-1.572266,0.1713867,0.08447266,0.2539063,-0.1425781
123,22.8125,-6.5,160.375,-0.4013672,-1.681152,0.1982422,0.09375,0.2509766,-0.1425781
127,19.8125,2.5,190.75,-0.3320313,-1.781738,0.2709961,0.105957,0.2436523,-0.1469727
131,10.25,24.125,213.375,-0.2661133,-1.704102,0.3251953,0.1235352,0.2348633,-0.1484375
135,0.125,42.375,235.375,-0.3510742,-1.789551,0.2983398,0.1357422,0.2285156,-0.1469727
139,8,40.6875,254.5625,-0.5214844,-1.828613,0.1748047,0.1582031,0.2163086,-0.1484375
143,22.875,19.6875,264.5,-0.6147461,-1.708008,0.09814453,0.1782227,0.2011719,-0.1469727
147,36.625,1.8125,270.8125,-0.4907227,-1.576172,0.1289063,0.1904297,0.1899414,-0.1494141
151,41.375,2.5,271.1875,-0.4169922,-1.416504,0.1518555,0.2080078,0.1689453,-0.1547852
155,34.75,11.375,277,-0.4130859,-1.300293,0.1748047,0.2246094,0.1489258,-0.1538086
159,25.875,20.4375,282.9375,-0.4946289,-1.257324,0.1479492,0.2353516,0.1337891,-0.1577148
163,23.0625,18.6875,288.8125,-0.6069336,-1.29248,0.1098633,0.25,0.1088867,-0.15625
167,32.0625,2.0625,293.9375,-0.730957,-1.253418,-0.02832031,0.2641602,0.08496094,-0.1606445
171,48.0625,-33.4375,292.9375,-0.7543945,-1.148438,-0.0859375,0.2700195,0.06738281,-0.1616211
175,64.0625,-64.5625,284,-0.5952148,-0.9892578,-0.08203125,0.2773438,0.03857422,-0.168457
179,69.5,-71.6875,273.875,-0.347168,-0.8686523,0.04443359,0.2807617,0.008789063,-0.175293
183,62.1875,-52.375,275.9375,-0.2270508,-0.7250977,0.1328125,0.2807617,-0.009277344,-0.1806641
187,41.75,-18.4375,282.5625,-0.1572266,-0.5927734,0.1982422,0.2832031,-0.03564453,-0.1850586
191,33.4375,1.25,281.125,-0.3588867,-0.6044922,0.105957,0.2807617,-0.06445313,-0.1875
195,31.5625,-8.125,276.6875,-0.5566406,-0.5424805,-0.001464844,0.2807617,-0.08203125,-0.1850586
199,39.9375,-33.375,266.5,-0.5605469,-0.5620117,-0.01660156,0.2773438,-0.1069336,-0.1875
203,54.3125,-55.625,254.25,-0.5175781,-0.453125,-0.03613281,0.2700195,-0.1357422,-0.1918945
207,57.875,-66.0625,245.4375,-0.3935547,-0.324707,0.01708984,0.2651367,-0.1508789,-0.1943359
211,50.5,-51,243.1875,-0.215332,-0.2275391,0.1210938,0.2519531,-0.1743164,-0.1972656
216,30.9375,-17.8125,247.125,-0.1420898,-0.09570313,0.2636719,0.2426758,-0.1967773,-0.1987305
220,14.6875,16.5,253.1875,-0.2700195,-0.1694336,0.2021484,0.2353516,-0.2104492,-0.1987305
224,8.6875,27.0625,259.9375,-0.4829102,-0.1152344,0.1132813,0.222168,-0.2319336,-0.1958008
228,9.8125,12.75,255.125,-0.730957,-0.06445313,-0.04394531,0.2094727,-0.2495117,-0.1943359
232,18.4375,-21.4375,247.8125,-0.7075195,0.02441406,-0.05908203,0.1972656,-0.2592773,-0.1928711
236,21.125,-34.75,235,-0.4248047,0.1523438,0.1171875,0.1831055,-0.2753906,-0.1958008
240,19.4375,-32.75,233.25,-0.2504883,0.21875,0.1982422,0.1650391,-0.2895508,-0.1958008
244,8.1875,-21.625,244.0625,-0.08007813,0.3935547,0.2402344,0.1523438,-0.2993164,-0.1943359
248,-4.375,-14.6875,246.4375,0.02441406,0.4946289,0.1479492,0.1333008,-0.3129883,-0.1943359
252,-8.9375,-21.625,227.5625,0.2373047,0.7626953,0.1289063,0.1118164,-0.3208008,-0.1987305
256,-3.375,-34.125,183.625,0.3808594,0.9916992,0.05175781,0.09960938,-0.3256836,-0.1987305
260,1.5625,-66.5625,130,0.4658203,1.182129,-0.001464844,0.08300781,-0.3291016,-0.199707
264,5.25,-95.8125,73,0.7021484,1.248047,0.04052734,0.07128906,-0.3330078,-0.1987305
268,7.75,-104.0625,20.0625,0.9389648,1.298828,0.1713867,0.06298828,-0.3330078,-0.199707
272,0.9375,-83.375,-27.5,1.039551,1.376465,0.340332,0.05712891,-0.3344727,-0.2026367
276,-12.1875,-41.0625,-73.375,0.9658203,1.287109,0.4907227,0.05566406,-0.3330078,-0.2055664
280,-19.75,7.9375,-109.0625,0.7490234,1.007324,0.5869141,0.06152344,-0.3330078,-0.2041016
284,-21.8125,53.4375,-130.3125,0.3886719,0.7973633,0.5483398,0.07128906,-0.3291016,-0.206543
288,-24.5,73.0625,-133.0625,-0.006347656,0.6264648,0.3637695,0.08789063,-0.3232422,-0.2080078
292,-16.875,56.625,-136.25,-0.3510742,0.5952148,0.1328125,0.09277344,-0.3178711,-0.206543
296,-5.75,12.6875,-152.3125,-0.5024414,0.7041016,0.001953125,0.1103516,-0.3144531,-0.2080078
300,4,-27.4375,-180.8125,-0.3901367,0.7392578,0.09423828,0.1210938,-0.3081055,-0.2041016
304,7.25,-40.3125,-205.625,-0.1962891,0.6884766,0.2788086,0.1318359,-0.3032227,-0.206543
308,0,-22.875,-215.9375,-0.08398438,0.5878906,0.4135742,0.1425781,-0.2929688,-0.2094727
312,-11.875,10.0625,-213.9375,-0.06054688,0.4282227,0.4560547,0.1582031,-0.2832031,-0.2109375
316,-25,45,-200.875,-0.1499023,0.3466797,0.3710938,0.1674805,-0.2744141,-0.2094727
320,-40.125,56.1875,-184.625,-0.3706055,0.284668,0.2094727,0.184082,-0.2607422,-0.2080078
324,-43.3125,40,-184.625,-0.5175781,0.2338867,0.06347656,0.1972656,-0.2480469,-0.2080078
328,-30.375,12.4375,-208.625,-0.5371094,0.2148438,0.06347656,0.2080078,-0.2382813,-0.2080078
332,-20.6875,-10.8125,-234.1875,-0.4711914,0.15625,0.08642578,0.2202148,-0.2216797,-0.2094727
336,-22.0625,-18.8125,-238.9375,-0.3320313,0.1020508,0.1518555,0.2285156,-0.2055664,-0.2119141
340,-44.75,-5,-222.5625,-0.2661133,0.01269531,0.1865234,0.2329102,-0.1894531,-0.2119141
345,-77.6875,17.625,-197.9375,-0.2929688,-0.08398438,0.2133789,0.2426758,-0.1694336,-0.2148438
349,-95.875,34.875,-187.3125,-0.3901367,-0.2900391,0.1328125,0.2485352,-0.1494141,-0.2148438
353,-72.1875,27.625,-213.9375,-0.4907227,-0.3364258,0.005859375,0.253418,-0.1357422,-0.2133789
357,-54.6875,-1.75,-247.75,-0.5141602,-0.2084961,-0.1166992,0.2602539,-0.1132813,-0.2163086
361,-52.375,-30.6875,-264.5,-0.4013672,-0.2744141,-0.08203125,0.2617188,-0.08935547,-0.2163086
365,-68,-30.75,-275.1875,-0.1923828,-0.4921875,0.1098633,0.2617188,-0.06933594,-0.2177734
369,-91.5625,-2.1875,-255.6875,-0.1381836,-0.7368164,0.1982422,0.2602539,-0.04052734,-0.2202148
373,-108.875,26.6875,-245.75,-0.1962891,-0.9580078,0.2021484,0.2592773,-0.01464844,-0.2148438
377,-94.0625,37.8125,-254.75,-0.3354492,-1.160156,0.09423828,0.2583008,0.002441406,-0.2119141
381,-75.75,26.625,-263.875,-0.4169922,-1.08252,0.02490234,0.2543945,0.03027344,-0.2080078
385,-71.9375,6.4375,-268,-0.4443359,-1.129395,0.01367188,0.2475586,0.05615234,-0.2041016
389,-72.3125,-6.5625,-262.375,-0.3745117,-1.245605,0.09814453,0.2412109,0.07128906,-0.199707
393,-74.5,-3.125,-254.125,-0.2504883,-1.370117,0.2060547,0.2319336,0.09521484,-0.199707
397,-73.4375,13.8125,-256.25,-0.2119141,-1.443848,0.2480469,0.21875,0.1201172,-0.1943359
401,-69.25,29.125,-256.25,-0.2504883,-1.463379,0.2133789,0.2138672,0.1337891,-0.1889648
405,-74.5625,34.3125,-242.75,-0.3242188,-1.533203,0.1674805,0.199707,0.1538086,-0.1835938
409,-70.9375,24.3125,-226,-0.4555664,-1.576172,0.09423828,0.1865234,0.1738281,-0.1767578
413,-55.125,-6.1875,-221,-0.4946289,-1.556641,0.06347656,0.1757813,0.1850586,-0.1728516
417,-34.125,-39.5,-224.4375,-0.3354492,-1.494629,0.08642578,0.1616211,0.1987305,-0.1699219
421,-24.75,-50.4375,-229.625,-0.09912109,-1.350586,0.1787109,0.1416016,0.2114258,-0.1699219
425,-33.625,-42.6875,-233.0625,0.02050781,-1.334961,0.2675781,0.128418,0.2197266,-0.168457
429,-45.875,-28.75,-227.75,0.02832031,-1.501953,0.3291016,0.1079102,0.2314453,-0.1674805
433,-48.4375,-21.0625,-211,-0.03710938,-1.708008,0.3520508,0.09033203,0.2412109,-0.1616211
437,-42.9375,-21.6875,-184.625,-0.1342773,-1.773926,0.3598633,0.07861328,0.2485352,-0.15625
441,-40.625,-23.1875,-168.1875,-0.1459961,-1.762695,0.3481445,0.06298828,0.2548828,-0.1547852
445,-34.8125,-18.6875,-151.4375,-0.2080078,-1.681152,0.3173828,0.04638672,0.2597656,-0.1484375
449,-31.875,-13.4375,-135.9375,-0.2734375,-1.68457,0.3173828,0.03662109,0.2612305,-0.1484375
453,-24.875,-9.125,-117.6875,-0.347168,-1.68457,0.3598633,0.02490234,0.2675781,-0.1455078
457,-19.3125,1.25,-96.25,-0.347168,-1.638184,0.375,0.01513672,0.2685547,-0.1425781
461,-17.875,11.9375,-73.3125,-0.3935547,-1.599121,0.3481445,0.01074219,0.2709961,-0.1386719
465,-13.75,12.875,-53,-0.5024414,-1.537109,0.2709961,0.005859375,0.2724609,-0.1386719
469,-5.375,5.1875,-38.0625,-0.5141602,-1.490723,0.2368164,0.0009765625,0.2724609,-0.1401367
474,0.625,0.875,-21.4375,-0.4907227,-1.439941,0.2329102,0,0.2739258,-0.1357422
478,4.25,-1.25,-1.8125,-0.4208984,-1.439941,0.2250977,-0.001953125,0.2739258,-0.1386719
482,8.375,-1.3125,19.5,-0.3354492,-1.416504,0.2211914,0,0.2709961,-0.1386719
486,11.75,-0.25,36.625,-0.2504883,-1.34668,0.1865234,0,0.2724609,-0.1401367
490,10.6875,7,49.5,-0.1459961,-1.280762,0.2021484,0.003417969,0.2724609,-0.1386719
494,7.625,19.75,63.25,-0.09130859,-1.300293,0.2060547,0.008300781,0.2709961,-0.1425781
498,4.25,30.875,79.875,-0.1303711,-1.338867,0.2021484,0.01171875,0.2685547,-0.1416016
502,3.375,36.0625,95.9375,-0.1962891,-1.374023,0.1674805,0.02148438,0.2685547,-0.1416016
506,3.4375,34.8125,109.0625,-0.230957,-1.416504,0.1674805,0.03076172,0.2675781,-0.1401367
510,9.9375,31.5625,127.3125,-0.2661133,-1.564453,0.1518555,0.04052734,0.2636719,-0.1416016
514,16.1875,19.9375,144.9375,-0.2929688,-1.548828,0.1479492,0.05224609,0.262207,-0.144043
518,28.9375,10.0625,148.75,-0.2231445,-1.583984,0.2094727,0.06396484,0.2587891,-0.1469727
522,34.6875,13.0625,158.3125,-0.2192383,-1.622559,0.2749023,0.07470703,0.2539063,-0.1469727
526,28.25,19.125,184.375,-0.2504883,-1.657715,0.2788086,0.08789063,0.2460938,-0.1523438
530,27.1875,18.9375,204.5625,-0.3085938,-1.634277,0.2211914,0.105957,0.2373047,-0.1547852
534,30.5,11.4375,215.25,-0.3007813,-1.618652,0.1865234,0.1176758,0.2348633,-0.15625
538,36.625,5.5,223.0625,-0.3432617,-1.583984,0.159668,0.1342773,0.2211914,-0.1591797
542,43.25,-8.3125,228,-0.4130859,-1.568359,0.1098633,0.1523438,0.2099609,-0.1645508
546,59.8125,-26.8125,229.875,-0.3935547,-1.509766,0.07910156,0.1640625,0.2001953,-0.1674805
550,68.875,-37.25,227.6875,-0.3203125,-1.342773,0.1098633,0.1782227,0.1835938,-0.175293
554,70.8125,-37.1875,225.6875,-0.262207,-1.280762,0.1674805,0.1914063,0.1650391,-0.1835938
558,70.0625,-28.125,221.6875,-0.2348633,-1.214844,0.2133789,0.1987305,0.1523438,-0.1865234
562,64.875,-14.0625,227.375,-0.2426758,-1.214844,0.2290039,0.2080078,0.1337891,-0.1928711
566,53.8125,2.375,238.1875,-0.2661133,-1.136719,0.2329102,0.2236328,0.1162109,-0.1972656
570,44,15.5,246.875,-0.3510742,-1.105957,0.1826172,0.2294922,0.1000977,-0.1972656
574,46.125,11.625,246.1875,-0.4907227,-1.059082,0.09814453,0.2392578,0.08007813,-0.2011719
578,52.125,-3.875,235.125,-0.5756836,-1.004883,0.07128906,0.2485352,0.05859375,-0.2011719
582,64.375,-23,229.375,-0.5952148,-1.032227,0.05175781,0.2519531,0.04492188,-0.2041016
586,75,-38.625,224.9375,-0.5488281,-0.9272461,0.05957031,0.2568359,0.02148438,-0.206543
590,68.5625,-32.875,230.75,-0.3666992,-0.7871094,0.2094727,0.2583008,-0.001953125,-0.2119141
594,47.4375,-6.1875,245,-0.3085938,-0.6938477,0.2368164,0.2626953,-0.01708984,-0.2163086
598,29.375,7.875,255.3125,-0.4365234,-0.6279297,0.1748047,0.2626953,-0.03955078,-0.2148438
603,29.25,-2.75,252.125,-0.5722656,-0.5424805,0.07519531,0.2626953,-0.06298828,-0.2177734
607,38.125,-27.125,235.1875,-0.5874023,-0.4375,0.03271484,0.2626953,-0.078125,-0.21875
611,43,-47,217.75,-0.5292969,-0.355957,0.07910156,0.2583008,-0.1020508,-0.2202148
615,49.5,-54.9375,208,-0.4365234,-0.4067383,0.1865234,0.2519531,-0.1206055,-0.2231445
619,43,-41.875,218.5625,-0.3046875,-0.2587891,0.2866211,0.2451172,-0.1367188,-0.2255859
623,23.6875,-18.3125,229.375,-0.2348633,-0.1074219,0.3520508,0.237793,-0.1557617,-0.2270508
627,11.375,6,227.6875,-0.262207,0.008789063,0.3330078,0.2285156,-0.1743164,-0.2285156
631,5.4375,20.9375,213.4375,-0.3510742,0.07080078,0.2749023,0.2246094,-0.1855469,-0.2255859
635,5.25,23.3125,200.8125,-0.4594727,0.1176758,0.2250977,0.2177734,-0.2006836,-0.2255859
639,4.25,21.1875,193.0625,-0.5449219,0.05908203,0.2133789,0.2080078,-0.2158203,-0.2216797
643,5.6875,17.1875,191.0625,-0.6264648,0.02050781,0.2636719,0.2045898,-0.2246094,-0.2216797
647,6.375,7.4375,199.75,-0.6108398,0.09814453,0.2827148,0.1938477,-0.2368164,-0.2231445
651,5.5625,-0.875,203.0625,-0.5332031,0.1640625,0.3017578,0.184082,-0.2504883,-0.2216797
655,9.625,-7.3125,196.0625,-0.4711914,0.284668,0.3520508,0.1757813,-0.2583008,-0.2216797
659,12.125,-12.8125,185.625,-0.4287109,0.3974609,0.3364258,0.1616211,-0.2695313,-0.2231445
663,23,-15.375,174.8125,-0.3320313,0.5136719,0.3637695,0.1499023,-0.2783203,-0.2216797
667,22.875,-8.9375,174,-0.3666992,0.4360352,0.2675781,0.1416016,-0.2841797,-0.2202148
671,12.75,-12.625,183.1875,-0.3320313,0.5952148,0.1982422,0.1259766,-0.2954102,-0.2202148
675,-2.25,-24.625,188.5,-0.1381836,0.7509766,0.105957,0.112793,-0.3032227,-0.21875
679,-7.625,-49.4375,175.75,0.09033203,0.9023438,0.1020508,0.1010742,-0.3066406,-0.2202148
683,-3.5,-73.0625,137.6875,0.4155273,1.108398,0.105957,0.08691406,-0.3120117,-0.2202148
687,-0.0625,-81.4375,91.25,0.7602539,1.317871,0.1787109,0.07128906,-0.3144531,-0.2246094
691,-4.75,-64.4375,40.0625,0.9736328,1.418945,0.2827148,0.06396484,-0.3154297,-0.2255859
695,-16.1875,-31.875,-1.125,0.9194336,1.36084,0.3364258,0.05712891,-0.3144531,-0.2285156
699,-23.4375,-5.125,-50.1875,0.675293,1.197754,0.375,0.05712891,-0.3144531,-0.2299805
703,-20.25,10.8125,-91.5625,0.4233398,0.9453125,0.4404297,0.06152344,-0.3105469,-0.2299805
707,-13.8125,25.25,-120.5,0.1870117,0.7001953,0.4443359,0.06884766,-0.3081055,-0.230957
711,-14.5,26.9375,-125.75,-0.04101563,0.6147461,0.3251953,0.08203125,-0.3041992,-0.2285156
715,-18.625,9.5,-119.9375,-0.1650391,0.5952148,0.2060547,0.09033203,-0.3017578,-0.2338867
719,-17.625,-10.6875,-124.125,-0.08789063,0.7158203,0.1479492,0.09863281,-0.2944336,-0.2353516
723,-17.375,-25.375,-149.4375,-0.01806641,0.8286133,0.2060547,0.105957,-0.2919922,-0.2368164
727,-11.5625,-27,-191.5625,0.09765625,0.7895508,0.3364258,0.1142578,-0.2856445,-0.237793
732,-10.3125,-8.3125,-230.5625,0.07861328,0.6147461,0.4365234,0.1259766,-0.2783203,-0.2353516
736,-18.3125,19.875,-234.875,0.03173828,0.3544922,0.4404297,0.1416016,-0.265625,-0.237793
740,-32.25,49.375,-218.5625,-0.04101563,0.253418,0.3710938,0.1508789,-0.2568359,-0.2368164
744,-43.3125,60.4375,-205.9375,-0.2387695,0.237793,0.2172852,0.1713867,-0.2456055,-0.2392578
748,-43.75,50.9375,-217.6875,-0.3588867,0.1445313,0.1865234,0.1855469,-0.2294922,-0.237793
752,-24.5,28.1875,-246.125,-0.5024414,0.05517578,0.1210938,0.1938477,-0.2167969,-0.2392578
756,-8.375,-0.25,-280.9375,-0.4868164,0.05908203,0.2172852,0.2070313,-0.1982422,-0.2368164
760,-8.0625,-7.25,-287.5,-0.3862305,-0.1577148,0.2519531,0.2177734,-0.1791992,-0.2353516
764,-27.6875,-4.8125,-253.125,-0.4052734,-0.1889648,0.1943359,0.2246094,-0.1655273,-0.237793
768,-58.4375,-0.0625,-229.8125,-0.3823242,-0.1152344,0.2441406,0.2319336,-0.1430664,-0.2392578
772,-74.3125,6.0625,-226.875,-0.4443359,-0.3095703,0.2211914,0.2368164,-0.1230469,-0.2392578
776,-48.125,-9.9375,-256.75,-0.6455078,-0.6318359,0.1748047,0.2402344,-0.1069336,-0.2407227
780,-13.875,-43.1875,-298.5625,-0.7231445,-0.581543,0.140625,0.2402344,-0.08300781,-0.2436523
784,-16,-62.5625,-299.1875,-0.4946289,-0.5927734,0.2788086,0.237793,-0.05810547,-0.2460938
788,-60.625,-32.5625,-249.3125,-0.215332,-0.6748047,0.4521484,0.2368164,-0.04199219,-0.2475586
792,-107.625,19.3125,-195.25,-0.2080078,-0.7368164,0.425293,0.234375,-0.01953125,-0.2490234
796,-131.5,54.4375,-169.375,-0.3203125,-0.8647461,0.3710938,0.2329102,0.002441406,-0.2446289
800,-89.375,54,-213.6875,-0.5683594,-1.171875,0.2519531,0.2329102,0.01757813,-0.2407227
804,-34.5,19.875,-270.0625,-0.7773438,-1.144531,0.1289063,0.230957,0.03857422,-0.2338867
808,-31,-18.125,-263.125,-0.7075195,-1.164063,0.1518555,0.2236328,0.0625,-0.2338867
812,-49.75,-23.875,-216.125,-0.5449219,-1.207031,0.2441406,0.2177734,0.07373047,-0.2324219
816,-82.875,-12.875,-167.4375,-0.3974609,-0.9311523,0.2709961,0.2080078,0.09228516,-0.230957
820,-103.25,11.5625,-163.5625,-0.1381836,-1.020508,0.3481445,0.2021484,0.1098633,-0.2255859
824,-86.625,40.0625,-196.3125,-0.2119141,-1.179688,0.3442383,0.1962891,0.1225586,-0.21875
828,-81.3125,43.25,-201.3125,-0.4013672,-1.296387,0.2636719,0.1865234,0.1401367,-0.2133789
832,-75.625,32.125,-190.4375,-0.4829102,-1.389648,0.2060547,0.1796875,0.1538086,-0.206543
836,-68.1875,11.8125,-176.1875,-0.4672852,-1.315918,0.140625,0.1723633,0.1660156,-0.2026367
840,-67.25,-0.875,-165.5,-0.246582,-1.152344,0.1904297,0.1616211,0.1801758,-0.1972656
844,-77.0625,17.875,-164.625,0.02050781,-1.094238,0.3017578,0.1499023,0.1899414,-0.1904297
848,-79.4375,44,-179.5625,-0.03710938,-1.249512,0.2983398,0.144043,0.1987305,-0.1865234
852,-70.375,45.9375,-185.5625,-0.262207,-1.463379,0.2172852,0.1333008,0.2138672,-0.1767578
856,-49.9375,25.1875,-170.625,-0.4404297,-1.634277,0.159668,0.1201172,0.2250977,-0.1699219
861,-33.5,0.3125,-158.125,-0.3901367,-1.603027,0.1289063,0.1118164,0.2299805,-0.168457
865,-28.25,-17.1875,-146.75,-0.3432617,-1.408691,0.08642578,0.09863281,0.2363281,-0.1630859
869,-30,-27.75,-136.6875,-0.2890625,-1.358398,0.05175781,0.08691406,0.2436523,-0.1616211
873,-33.75,-34.75,-128.875,-0.2543945,-1.334961,0.09033203,0.07861328,0.2460938,-0.1606445
877,-34.6875,-39.625,-119.0625,-0.2231445,-1.408691,0.1210938,0.06787109,0.2524414,-0.15625
881,-31.9375,-46,-107.1875,-0.2041016,-1.443848,0.1713867,0.05712891,0.2573242,-0.1547852
885,-18.125,-49.5625,-101.3125,-0.1611328,-1.412598,0.1787109,0.04736328,0.2587891,-0.1523438
889,-13.25,-42.5,-101.125,-0.07617188,-1.245605,0.2290039,0.03662109,0.262207,-0.1508789
893,-19.875,-27.4375,-94.1875,-0.1030273,-1.272949,0.2519531,0.02832031,0.2661133,-0.1494141
897,-22.375,-16.125,-81.375,-0.1845703,-1.331055,0.2172852,0.02148438,0.2661133,-0.1484375
901,-20.8125,-11.8125,-67.1875,-0.2543945,-1.381836,0.1943359,0.01269531,0.2661133,-0.1494141
905,-19.4375,-7.9375,-49.5,-0.2734375,-1.37793,0.2094727,0.006835938,0.2700195,-0.144043
909,-17.75,-4.375,-31.25,-0.2890625,-1.401367,0.2329102,0.004394531,0.2700195,-0.1425781
913,-12.5,-3.625,-15.5625,-0.2890625,-1.393555,0.2749023,0.004394531,0.2709961,-0.1425781
917,-6,2.6875,1.125,-0.2387695,-1.405273,0.3251953,0.002441406,0.2709961,-0.1401367
921,-3.4375,10.25,17.1875,-0.2583008,-1.362305,0.355957,0.002441406,0.2709961,-0.1416016
925,2.4375,15.9375,30.8125,-0.2426758,-1.397461,0.3598633,0.004394531,0.2724609,-0.1386719
929,8.5,21.1875,46.5625,-0.2387695,-1.401367,0.3330078,0.008300781,0.2709961,-0.1416016
933,11.8125,28.0625,65.1875,-0.2192383,-1.416504,0.3134766,0.01171875,0.2709961,-0.144043
937,13,35.125,80.6875,-0.2426758,-1.389648,0.2983398,0.01904297,0.2700195,-0.144043
941,14.125,41.3125,92.75,-0.2890625,-1.447754,0.2944336,0.02832031,0.2661133,-0.144043
945,18.5,43.5,109.375,-0.347168,-1.552734,0.2709961,0.03564453,0.2661133,-0.1455078
949,24.3125,39.9375,126.3125,-0.4052734,-1.587891,0.2402344,0.04736328,0.262207,-0.1469727
953,32.5,35.0625,148.5,-0.4013672,-1.653809,0.2250977,0.05957031,0.2587891,-0.1494141
957,37.75,30.375,163.375,-0.4248047,-1.74707,0.2250977,0.06884766,0.2539063,-0.1494141
961,40,25.6875,186.5625,-0.3935547,-1.704102,0.2329102,0.08544922,0.2475586,-0.1547852
965,40.6875,26.125,203.5625,-0.3046875,-1.661621,0.2290039,0.1010742,0.2397461,-0.1606445
969,41.8125,25.375,212.4375,-0.2700195,-1.603027,0.1982422,0.112793,0.2324219,-0.1606445
973,46.3125,21.375,216.0625,-0.3085938,-1.587891,0.1635742,0.1333008,0.2211914,-0.1616211
977,53.4375,12.875,220,-0.3432617,-1.560547,0.1328125,0.1484375,0.2060547,-0.1674805
981,56.6875,3.875,224.625,-0.3432617,-1.501953,0.125,0.1606445,0.2001953,-0.1699219
985,64.3125,-2.1875,225.75,-0.3510742,-1.505859,0.105957,0.1757813,0.1835938,-0.1767578
990,70.0625,-10.3125,228.375,-0.4130859,-1.436035,0.06347656,0.1889648,0.1674805,-0.1806641
994,71.9375,-23.625,235.625,-0.4248047,-1.389648,0.04785156,0.1987305,0.1538086,-0.1865234
998,79.5,-29.375,236.875,-0.328125,-1.304199,0.07910156,0.2104492,0.1337891,-0.1918945
1002,78.4375,-28.25,236,-0.28125,-1.136719,0.1171875,0.222168,0.1137695,-0.2011719
1006,74.1875,-15.4375,229.375,-0.215332,-1.066895,0.1943359,0.2285156,0.09863281,-0.2026367
1010,62.3125,8.9375,230.4375,-0.2231445,-1.05127,0.2675781,0.2368164,0.08007813,-0.2080078
1014,49.375,26.1875,245.5,-0.4013672,-1.055176,0.144043,0.2460938,0.05517578,-0.206543
1018,47.1875,16.1875,247,-0.5683594,-1.016602,0.04785156,0.25,0.04150391,-0.2080078
1022,58.125,-4.9375,239.6875,-0.6342773,-1.012695,0.01367188,0.2583008,0.01757813,-0.2080078
1026,61.9375,-22.125,240.125,-0.5527344,-0.8535156,0.02880859,0.2617188,-0.004394531,-0.2119141
1030,57.3125,-24,241,-0.3745117,-0.7016602,0.125,0.2626953,-0.01953125,-0.2133789
1034,44.5,-1.375,237.125,-0.2661133,-0.6123047,0.2329102,0.2626953,-0.04199219,-0.2148438
1038,35.4375,20.375,242.3125,-0.3588867,-0.5737305,0.2211914,0.2626953,-0.06689453,-0.2148438
1042,21.8125,24.5625,250.25,-0.5253906,-0.453125,0.09814453,0.2617188,-0.08203125,-0.2163086
1046,25.875,0.125,241.5,-0.6611328,-0.503418,0.03271484,0.2626953,-0.1054688,-0.2148438
1050,50.75,-39.5,229.25,-0.7114258,-0.5,-0.01318359,0.2583008,-0.1269531,-0.2148438
1054,65.0625,-70.9375,220.0625,-0.5024414,-0.3286133,0.1098633,0.2509766,-0.1430664,-0.2177734
1058,66.8125,-66.4375,215.9375,-0.2426758,-0.2084961,0.3134766,0.2412109,-0.1645508,-0.21875
1062,54.4375,-31.1875,223.625,-0.01416016,-0.02197266,0.4404297,0.2294922,-0.1831055,-0.2216797
1066,30.625,12.125,232.125,-0.02197266,0.1333008,0.390625,0.222168,-0.1958008,-0.2231445
1070,11.3125,37.8125,231.5,-0.1611328,0.2416992,0.2788086,0.2128906,-0.2158203,-0.2202148
1074,2.75,43.3125,216.6875,-0.296875,0.269043,0.159668,0.2070313,-0.2304688,-0.2163086
1078,9.3125,26,194,-0.4711914,0.2612305,0.05175781,0.199707,-0.2416992,-0.2148438
1082,21.1875,-9.875,176.9375,-0.5644531,0.21875,0.02880859,0.1904297,-0.2558594,-0.2133789
1086,29.8125,-40.75,173.375,-0.4326172,0.2109375,0.1328125,0.1782227,-0.2641602,-0.2133789
1090,32.375,-48.25,174.375,-0.2001953,0.3974609,0.2905273,0.1665039,-0.2705078,-0.2148438
1094,24.5625,-37.25,165.125,-0.02197266,0.6459961,0.3330078,0.1533203,-0.2841797,-0.2133789
1098,15,-27.8125,149.625,-0.05664063,0.7817383,0.3056641,0.1391602,-0.2929688,-0.2133789
1102,11.5,-27.5,128.1875,-0.08398438,0.824707,0.2441406,0.1318359,-0.2983398,-0.2119141
1106,10.9375,-33.9375,105.625,-0.01806641,0.875,0.2250977,0.1201172,-0.3041992,-0.2148438
1110,8.875,-37.6875,87.5,0.1171875,0.9453125,0.2329102,0.1103516,-0.3081055,-0.2148438
1114,7.6875,-33.5,66.5,0.2915039,1.06543,0.3173828,0.1044922,-0.3105469,-0.2163086
1119,2.1875,-16.9375,38.5625,0.4038086,1.205566,0.3979492,0.09863281,-0.3129883,-0.2148438
1123,-3.6875,3.6875,6.1875,0.4389648,1.232422,0.4287109,0.09521484,-0.3129883,-0.2148438
1127,-3.625,18.8125,-31.8125,0.3305664,1.209473,0.3481445,0.09765625,-0.3129883,-0.2148438
1131,-0.3125,16.5625,-73.75,0.1171875,1.12793,0.2827148,0.1010742,-0.3129883,-0.2163086
1135,8.6875,3.25,-108.25,-0.03710938,0.9140625,0.2329102,0.109375,-0.3095703,-0.2133789
1139,14.125,-7.875,-124.1875,-0.1147461,0.8012695,0.2441406,0.1142578,-0.3066406,-0.2109375
1143,8.5625,-10,-126.6875,-0.1225586,0.7666016,0.2441406,0.1235352,-0.3032227,-0.2119141
1147,-1.5,-3.875,-127.6875,-0.1186523,0.7470703,0.2329102,0.1318359,-0.296875,-0.2148438
1151,-9.3125,-1.5625,-134.5,-0.1459961,0.7626953,0.2021484,0.1391602,-0.2919922,-0.2119141
1155,-7.5625,-6.5625,-153.375,-0.1303711,0.6923828,0.1674805,0.1484375,-0.2841797,-0.2148438
1159,-2.625,-13.875,-180.4375,-0.1420898,0.6923828,0.1904297,0.1591797,-0.2783203,-0.2163086
1163,-0.375,-20.4375,-207.25,-0.1650391,0.5761719,0.1826172,0.1674805,-0.2705078,-0.2177734
1167,-3.4375,-21.8125,-219.6875,-0.2001953,0.3701172,0.2133789,0.1821289,-0.2583008,-0.2177734
1171,-13.375,-18.9375,-206.8125,-0.2851563,0.237793,0.2021484,0.1914063,-0.2441406,-0.2177734
1175,-31.5,-16.625,-186.875,-0.3085938,0.3081055,0.159668,0.1987305,-0.2358398,-0.2216797
1179,-53.0625,-14.5625,-192.8125,-0.3242188,0.3120117,0.2368164,0.2080078,-0.2231445,-0.2216797
1183,-49.25,-11.625,-228.375,-0.378418,0.04394531,0.3095703,0.2163086,-0.2045898,-0.2285156
1187,-23.8125,-13.375,-255.4375,-0.5371094,-0.2470703,0.2827148,0.2236328,-0.1904297,-0.2285156
1191,-18.3125,-21.75,-242.375,-0.6225586,-0.3286133,0.2250977,0.2285156,-0.1704102,-0.230957
1195,-38.1875,-28,-202,-0.5605469,-0.1694336,0.2788086,0.2368164,-0.1508789,-0.2324219
1199,-69.3125,-14.5,-189.125,-0.4287109,-0.1499023,0.3364258,0.2392578,-0.1381836,-0.2324219
1203,-78.5,-2.75,-196.75,-0.4907227,-0.2861328,0.3520508,0.2412109,-0.1181641,-0.2368164
1207,-57.6875,-7.3125,-223.5625,-0.5683594,-0.4921875,0.2944336,0.2451172,-0.09570313,-0.237793
1211,-30.3125,-24.125,-252.4375,-0.6342773,-0.4414063,0.2441406,0.2475586,-0.08300781,-0.237793
1215,-24.875,-42.375,-238.0625,-0.6147461,-0.6123047,0.1904297,0.2451172,-0.06201172,-0.2421875
1219,-42.1875,-50.6875,-202.4375,-0.5410156,-0.4765625,0.2290039,0.2426758,-0.04052734,-0.2421875
1223,-73.9375,-42.3125,-192.1875,-0.3510742,-0.3637695,0.375,0.237793,-0.02685547,-0.2436523
1227,-95.875,-9.8125,-201.3125,-0.2270508,-0.7172852,0.5136719,0.2329102,-0.006835938,-0.2475586
1231,-89.3125,18.0625,-207.6875,-0.3432617,-0.9736328,0.4672852,0.230957,0.01269531,-0.2436523
1235,-82.8125,30.3125,-199.6875,-0.5566406,-1.05127,0.3671875,0.2285156,0.02880859,-0.2421875
1239,-86.625,17.3125,-169.5,-0.7543945,-1.078613,0.2094727,0.2270508,0.04638672,-0.2368164
1243,-75.25,-15.8125,-152.25,-0.8046875,-1.070801,0.09423828,0.2211914,0.06494141,-0.2324219
1248,-59,-54.625,-145,-0.6689453,-0.8496094,0.03662109,0.2177734,0.07519531,-0.2324219
1252,-57.75,-72.9375,-165,-0.262207,-0.6435547,0.2558594,0.2055664,0.08886719,-0.2368164
1256,-55.9375,-45.8125,-203.75,0.04345703,-0.6860352,0.409668,0.1948242,0.1049805,-0.2338867
1260,-89.9375,-3.6875,-200.25,0.05517578,-0.7563477,0.4135742,0.1879883,0.1152344,-0.2324219
1264,-121.125,30.0625,-183.0625,0.004882813,-1.040039,0.3251953,0.1772461,0.1323242,-0.2299805
1268,-122.125,37.5,-170.375,-0.2080078,-1.21875,0.1674805,0.1713867,0.1513672,-0.21875
1272,-111.0625,15,-164,-0.3203125,-1.249512,0.06738281,0.1640625,0.1625977,-0.2109375
1276,-72.3125,-22.4375,-195,-0.2080078,-1.412598,0.09814453,0.1533203,0.1772461,-0.2055664
1280,-32.6875,-45.4375,-235.9375,-0.01416016,-1.257324,0.144043,0.1376953,0.1914063,-0.2011719
1284,-55,-21.75,-240.8125,0.3925781,-1.214844,0.3710938,0.1235352,0.2011719,-0.2011719
1288,-104.5,52.5,-217.8125,0.559082,-1.412598,0.4443359,0.1069336,0.2148438,-0.1943359
1292,-134.0625,111.6875,-189.75,0.2104492,-1.704102,0.3442383,0.09765625,0.2275391,-0.1821289
1296,-118.5625,117.0625,-177.25,-0.2080078,-2.049805,0.2211914,0.09033203,0.2348633,-0.1713867
1300,-70.625,87.8125,-174,-0.4169922,-2.12793,0.1210938,0.08056641,0.2460938,-0.1591797
1304,-33.25,55.75,-157.75,-0.4868164,-1.820801,-0.02441406,0.06884766,0.2548828,-0.1508789
1308,-25.6875,24.875,-140.625,-0.5605469,-1.529297,-0.1401367,0.06152344,0.2587891,-0.1494141
1312,-21.875,-11.1875,-122,-0.5874023,-1.509766,-0.1054688,0.04980469,0.2612305,-0.1455078
1316,-12.4375,-45.25,-104.25,-0.4907227,-1.537109,0.1132813,0.0390625,0.2651367,-0.144043
1320,0.125,-51,-88.5,-0.2504883,-1.537109,0.390625,0.03320313,0.2675781,-0.1425781
1324,2.375,-38.3125,-71.0625,-0.1806641,-1.45166,0.5366211,0.02246094,0.2675781,-0.144043
1328,-1.6875,-17.0625,-52.25,-0.1728516,-1.428223,0.5942383,0.01513672,0.2700195,-0.1455078
1332,-6.5,6.6875,-30.3125,-0.2583008,-1.463379,0.5595703,0.01171875,0.2685547,-0.144043
1336,-11.25,19.8125,-3.75,-0.3823242,-1.479004,0.4521484,0.01171875,0.2700195,-0.1425781
1340,-8.4375,23.125,15.9375,-0.4287109,-1.490723,0.3637695,0.01269531,0.2700195,-0.1416016
1344,-1.8125,22.625,30,-0.3706055,-1.459473,0.3056641,0.01416016,0.2685547,-0.1416016
1348,4.875,23.25,42.9375,-0.3164063,-1.436035,0.2402344,0.01904297,0.2700195,-0.1401367
1352,7.3125,26.4375,57.375,-0.2700195,-1.401367,0.2060547,0.02246094,0.2685547,-0.1416016
1356,5.375,32.75,72,-0.2734375,-1.443848,0.2094727,0.02832031,0.2675781,-0.1425781
1360,2.1875,41.6875,94.375,-0.3085938,-1.513672,0.1904297,0.03662109,0.2651367,-0.1425781
1364,1.8125,43.125,119.4375,-0.378418,-1.568359,0.1171875,0.04492188,0.2636719,-0.1416016
1368,5.3125,33.875,135.1875,-0.4326172,-1.606934,0.1210938,0.0546875,0.262207,-0.144043
1372,14.875,26.4375,151.375,-0.4169922,-1.692383,0.1367188,0.06787109,0.2587891,-0.144043
1377,20.25,24.125,169.9375,-0.3510742,-1.711914,0.159668,0.08056641,0.2548828,-0.144043
1381,18,25.0625,192.1875,-0.3320313,-1.750977,0.1748047,0.09375,0.25,-0.1469727
1385,14.0625,30.125,216.9375,-0.3203125,-1.766602,0.1748047,0.1103516,0.2412109,-0.1484375
1389,9.5625,30.5625,236.9375,-0.3354492,-1.754883,0.1674805,0.1308594,0.2324219,-0.1484375
1393,11.125,25.625,251.6875,-0.4052734,-1.766602,0.1171875,0.144043,0.2226563,-0.1508789
1397,21.3125,8.6875,262.625,-0.4672852,-1.719727,0.07910156,0.1640625,0.2084961,-0.1508789
1401,35.6875,-12.625,266.8125,-0.4907227,-1.645996,0.07128906,0.184082,0.1923828,-0.1538086
1405,51.4375,-33.125,268.9375,-0.4326172,-1.541016,0.05957031,0.1938477,0.1787109,-0.1538086
1409,60.625,-43,268.875,-0.3320313,-1.397461,0.09033203,0.2094727,0.1586914,-0.1616211
1413,57.6875,-37.8125,268,-0.230957,-1.257324,0.1635742,0.2236328,0.1362305,-0.1713867
1417,45.25,-15.4375,274.3125,-0.1650391,-1.164063,0.2329102,0.2319336,0.1225586,-0.175293
1421,34.5,2.125,279.0625,-0.3393555,-1.15625,0.1674805,0.2436523,0.09863281,-0.1782227
1425,37.5625,-9.5,279.625,-0.4790039,-1.136719,0.07128906,0.2558594,0.07373047,-0.1796875
1429,53.625,-28.5625,269.4375,-0.4985352,-1.144531,0.01708984,0.2617188,0.05761719,-0.1821289
1433,62.6875,-41.5625,255.8125,-0.4482422,-1.004883,0.07128906,0.2700195,0.03125,-0.1865234
1437,71.4375,-47.625,249.5,-0.4521484,-0.9931641,0.02099609,0.2709961,0.006347656,-0.1928711
1441,66.5625,-46.6875,254.0625,-0.3901367,-0.9155273,0.08251953,0.2709961,-0.01074219,-0.1943359
1445,59.5,-32.5,265.25,-0.3007813,-0.8959961,0.1713867,0.2734375,-0.03808594,-0.2011719
1449,47.4375,-9.75,272.625,-0.362793,-0.7290039,0.1518555,0.2709961,-0.06445313,-0.2041016
1453,35.5625,-3.6875,276.1875,-0.4404297,-0.6474609,0.1328125,0.2700195,-0.08203125,-0.2041016
1457,39.875,-6.1875,270,-0.4985352,-0.6240234,0.07519531,0.2675781,-0.1054688,-0.2055664
1461,42.4375,-12.5,261.625,-0.5527344,-0.5385742,0.07910156,0.2602539,-0.1318359,-0.2055664
1465,41.8125,-23.8125,262.1875,-0.6030273,-0.4921875,0.05957031,0.2558594,-0.1494141,-0.206543
1469,38.75,-28.0625,267.4375,-0.5024414,-0.4882813,0.1132813,0.2460938,-0.1733398,-0.2055664
1473,33.5,-13.3125,281.8125,-0.3125,-0.2939453,0.2290039,0.234375,-0.1967773,-0.206543
1477,13.625,10.25,297.125,-0.2387695,-0.08398438,0.1787109,0.2270508,-0.2119141,-0.206543
1481,-4.0625,20.5,307.8125,-0.2041016,0.1640625,0.09423828,0.2138672,-0.2329102,-0.2055664
1485,-15,20.4375,299.5,-0.1459961,0.3232422,-0.02050781,0.1948242,-0.2543945,-0.2041016
1489,-15.1875,8.625,278.6875,-0.1264648,0.5488281,-0.09765625,0.1855469,-0.265625,-0.206543
1493,-20.25,-7.9375,252.375,-0.04101563,0.6108398,-0.1245117,0.1665039,-0.2807617,-0.2041016
1497,-17.3125,-29.8125,222.125,0.004882813,0.6264648,-0.04736328,0.1484375,-0.2905273,-0.2094727
1501,-15.4375,-47.8125,202,0.1328125,0.5913086,0.05957031,0.1376953,-0.2983398,-0.2119141
1506,-18.8125,-66,191.75,0.2646484,0.6459961,0.05566406,0.1201172,-0.3041992,-0.2133789
1510,-20.9375,-87.125,165.5,0.4931641,0.9257813,0.1328125,0.1020508,-0.3120117,-0.2163086
1514,-13.5,-94.4375,109.625,0.8183594,1.209473,0.2905273,0.08886719,-0.3120117,-0.2202148
1518,-12.25,-69.8125,49.125,1.027832,1.356934,0.4482422,0.07714844,-0.3129883,-0.2231445
1522,-20.25,-29.5,0.3125,1.016113,1.259766,0.5214844,0.06982422,-0.3129883,-0.2255859
1526,-21.9375,6,-42.6875,0.8071289,1.069336,0.5444336,0.07128906,-0.3120117,-0.2255859
1530,-20.625,30,-79.125,0.5200195,0.9760742,0.5249023,0.07617188,-0.3105469,-0.2285156
1534,-16.875,41.4375,-110.0625,0.2568359,0.7666016,0.5444336,0.08447266,-0.3056641,-0.2299805
1538,-7.6875,50.3125,-129.5625,0.03173828,0.6303711,0.5058594,0.09130859,-0.3032227,-0.2285156
1542,-4.4375,46.875,-137.5,-0.1689453,0.5644531,0.4018555,0.105957,-0.2983398,-0.2285156
1546,-0.9375,36.25,-142.8125,-0.2583008,0.6030273,0.3212891,0.1176758,-0.2919922,-0.2255859
1550,2.75,21.5,-157.8125,-0.2890625,0.6225586,0.2675781,0.1269531,-0.2880859,-0.2255859
1554,5,3.6875,-175.9375,-0.2929688,0.6811523,0.2329102,0.1391602,-0.2832031,-0.2270508
1558,2.625,-8.75,-197.4375,-0.28125,0.5878906,0.2329102,0.1523438,-0.2729492,-0.2255859
1562,3.5,-19.25,-208.5625,-0.3320313,0.4321289,0.2441406,0.1606445,-0.2670898,-0.2231445
1566,4.3125,-30.125,-207.5625,-0.3203125,0.3623047,0.2441406,0.1738281,-0.2568359,-0.2285156
1570,-2.0625,-35.4375,-206.8125,-0.2929688,0.3740234,0.2597656,0.1806641,-0.2431641,-0.2285156
1574,-3.125,-37.3125,-216.625,-0.2348633,0.3583984,0.2866211,0.1879883,-0.2368164,-0.2299805
1578,-0.6875,-36.25,-235.875,-0.2119141,0.3388672,0.2788086,0.1987305,-0.2207031,-0.2324219
1582,-5.1875,-31.6875,-258.125,-0.1689453,0.3120117,0.3095703,0.2080078,-0.203125,-0.2324219
1586,-12.4375,-17.4375,-271.75,-0.1962891,0.05126953,0.3291016,0.2138672,-0.1918945,-0.2338867
1590,-22.125,3.125,-261.75,-0.3510742,-0.2744141,0.3017578,0.2236328,-0.171875,-0.2353516
1594,-33.9375,5.625,-234.6875,-0.5722656,-0.3208008,0.1674805,0.230957,-0.1518555,-0.2353516
1598,-48.5,-5.4375,-221.9375,-0.6264648,-0.2939453,0.1098633,0.2353516,-0.1381836,-0.2353516
1602,-62.625,-16.625,-213.125,-0.6069336,-0.3173828,0.1518555,0.2392578,-0.1166992,-0.237793
1606,-72.6875,-18.125,-219.6875,-0.5874023,-0.581543,0.2788086,0.2402344,-0.09570313,-0.2407227
1610,-61.4375,-17.25,-229.1875,-0.5874023,-0.8027344,0.2788086,0.2426758,-0.08056641,-0.2421875
1614,-49.75,-23.375,-227.75,-0.6884766,-0.7602539,0.2368164,0.2426758,-0.05810547,-0.2421875
1618,-55.875,-37.5,-213.25,-0.6728516,-0.7055664,0.1982422,0.2392578,-0.03710938,-0.2392578
1622,-67.375,-46.0625,-201.5,-0.5683594,-0.6240234,0.1713867,0.237793,-0.02441406,-0.2446289
1626,-81.125,-49.0625,-211.8125,-0.5063477,-0.7407227,0.2480469,0.2319336,-0.003417969,-0.2460938
1630,-75.9375,-53.375,-215.9375,-0.5175781,-0.9038086,0.2519531,0.2236328,0.01757813,-0.2490234
1635,-66.3125,-59.5625,-231.75,-0.4443359,-0.9853516,0.3520508,0.2202148,0.03027344,-0.25
1639,-61.75,-57.375,-229.375,-0.3974609,-1.094238,0.3979492,0.2070313,0.05273438,-0.2543945
1643,-75.25,-46.6875,-200.3125,-0.3588867,-1.012695,0.3867188,0.1962891,0.07128906,-0.2514648
1647,-95.8125,-38.75,-173.4375,-0.3588867,-1.016602,0.3134766,0.1889648,0.08251953,-0.2514648
1651,-101.9375,-40.8125,-162.1875,-0.347168,-0.9311523,0.2133789,0.1806641,0.1010742,-0.25
1655,-101.9375,-48.25,-177.9375,-0.2543945,-0.9194336,0.2480469,0.1723633,0.1152344,-0.2490234
1659,-102.25,-40.625,-196.125,-0.1069336,-1.152344,0.425293,0.1616211,0.1274414,-0.2446289
1663,-102.6875,-13.3125,-190.3125,-0.04492188,-1.29248,0.5556641,0.1499023,0.1459961,-0.2421875
1667,-110.4375,13.5625,-167.625,-0.1572266,-1.393555,0.4980469,0.1376953,0.1601563,-0.2353516
1671,-116.5,21.125,-145.1875,-0.28125,-1.342773,0.3671875,0.1308594,0.1713867,-0.2270508
1675,-106.5625,9.875,-142.125,-0.3354492,-1.323242,0.2675781,0.1235352,0.1826172,-0.2202148
1679,-88.8125,-10,-151.25,-0.2890625,-1.26123,0.2329102,0.1142578,0.1972656,-0.2119141
1683,-74.6875,-19.25,-165,-0.1381836,-1.237793,0.2944336,0.105957,0.2050781,-0.2094727
1687,-73.8125,-9.875,-168.75,-0.05664063,-1.233887,0.3173828,0.09277344,0.2148438,-0.199707
1691,-81,0.1875,-162,-0.1069336,-1.284668,0.2675781,0.08056641,0.2236328,-0.1958008
1695,-79.875,-1.625,-153.0625,-0.1303711,-1.408691,0.2675781,0.07226563,0.2324219,-0.1904297
1699,-74.0625,-2.6875,-146.1875,-0.05664063,-1.385742,0.3056641,0.05957031,0.2397461,-0.1835938
1703,-70.3125,0.5625,-149,0.0009765625,-1.358398,0.3017578,0.04736328,0.2460938,-0.1782227
1707,-62.0625,5.1875,-160.125,-0.03320313,-1.385742,0.2636719,0.03808594,0.25,-0.1728516
1711,-53.125,4.4375,-172,-0.1499023,-1.455566,0.2636719,0.02490234,0.2548828,-0.1674805
1715,-43.875,1.125,-155.4375,-0.2773438,-1.630371,0.3095703,0.01074219,0.2597656,-0.1606445
1719,-35.1875,-5.5,-128.6875,-0.4091797,-1.816895,0.3637695,0.002441406,0.262207,-0.1577148
1723,-22.5,-7.75,-91.5,-0.4790039,-1.785645,0.4287109,-0.0078125,0.2651367,-0.15625
1727,-13.4375,-4.375,-57.9375,-0.5024414,-1.770508,0.4672852,-0.01513672,0.2636719,-0.1538086
1731,-4.9375,-0.9375,-23.1875,-0.5371094,-1.777832,0.4829102,-0.01855469,0.2661133,-0.1538086
1735,6.125,0.9375,8.6875,-0.4868164,-1.750977,0.4672852,-0.02001953,0.2651367,-0.1523438
1739,15.6875,5.3125,42.375,-0.378418,-1.665527,0.4521484,-0.01757813,0.2651367,-0.1538086
1743,20.9375,12.0625,70.625,-0.3046875,-1.560547,0.4404297,-0.01611328,0.2651367,-0.1547852
1747,22.875,22.625,95.9375,-0.2119141,-1.517578,0.4521484,-0.006835938,0.2636719,-0.15625
1751,26.625,35.3125,110.8125,-0.1728516,-1.525391,0.4404297,0.002441406,0.2597656,-0.1616211
1755,31.5625,46.75,124.5625,-0.1806641,-1.576172,0.4404297,0.009277344,0.2597656,-0.1630859
1759,33.4375,54.1875,144.9375,-0.2001953,-1.638184,0.409668,0.02246094,0.2563477,-0.1645508
1764,36.875,57.1875,167.75,-0.2231445,-1.688477,0.355957,0.04052734,0.2539063,-0.168457
1768,40.25,55.375,188,-0.2192383,-1.696289,0.2983398,0.04980469,0.2475586,-0.1713867
1772,47.5,49.5625,202.625,-0.2080078,-1.688477,0.2441406,0.06982422,0.2436523,-0.1738281
1776,51.0625,43.875,214,-0.1884766,-1.618652,0.2402344,0.08886719,0.2324219,-0.1767578
1780,52.875,41.25,217.9375,-0.1459961,-1.576172,0.2866211,0.1010742,0.2260742,-0.1796875
1784,56.9375,44.6875,220.625,-0.1728516,-1.614746,0.2983398,0.1201172,0.2163086,-0.1821289
1788,54.3125,50.8125,234.8125,-0.230957,-1.661621,0.3056641,0.1376953,0.2026367,-0.1875
1792,53.875,56.375,251.75,-0.328125,-1.766602,0.2905273,0.1523438,0.1914063,-0.1875
1796,60.3125,48.625,278.1875,-0.5024414,-1.816895,0.159668,0.1699219,0.1762695,-0.1904297
1800,65.4375,25.3125,290.3125,-0.5214844,-1.80127,0.125,0.1904297,0.15625,-0.1918945
1804,74.9375,9.875,301.3125,-0.4594727,-1.645996,0.09423828,0.203125,0.1401367,-0.1943359
1808,72.1875,-1.9375,311.75,-0.3862305,-1.443848,0.09423828,0.21875,0.1152344,-0.1972656
1812,69.4375,2.9375,314.1875,-0.3242188,-1.397461,0.1289063,0.2329102,0.08984375,-0.2041016
1816,60.5625,6.625,329.1875,-0.3823242,-1.265137,0.09423828,0.2426758,0.06982422,-0.2041016
1820,50.6875,0.5,334.9375,-0.4326172,-1.210938,0.04052734,0.2519531,0.04248047,-0.2080078
1824,66.8125,-22.125,322.5625,-0.5214844,-1.191406,-0.02050781,0.2583008,0.007324219,-0.2094727
1828,81.0625,-42.375,307.125,-0.4711914,-1.032227,-0.01660156,0.2617188,-0.01074219,-0.2133789
1832,86.1875,-52.6875,294.375,-0.4248047,-1.012695,0.07128906,0.2617188,-0.04052734,-0.2177734
1836,89.5625,-48.3125,297.1875,-0.3823242,-0.9736328,0.09814453,0.2592773,-0.07080078,-0.2216797
1840,82.1875,-35.75,316.375,-0.3125,-0.9619141,0.1367188,0.2543945,-0.09179688,-0.2231445
1844,81.25,-25.125,315.0625,-0.3745117,-0.7563477,0.1479492,0.2485352,-0.1245117,-0.2246094
1848,95.5,-30.0625,297.1875,-0.5214844,-0.7563477,-0.009277344,0.2402344,-0.1533203,-0.2255859
1852,103.125,-56,289.9375,-0.5410156,-0.6044922,-0.09375,0.230957,-0.1743164,-0.2270508
1856,102.1875,-69.75,297.1875,-0.2426758,-0.4609375,0.005859375,0.2163086,-0.203125,-0.2255859
1860,102.375,-58.25,291.6875,0.01660156,-0.3134766,0.1132813,0.1987305,-0.2270508,-0.2255859
1864,92.3125,-34.25,287.4375,0.1635742,0.03222656,0.105957,0.1865234,-0.2456055,-0.2231445
1868,75.5,-13.4375,274.625,0.2915039,0.2109375,0.09814453,0.1674805,-0.2670898,-0.2202148
1872,68.4375,10.9375,254.3125,0.4389648,0.3779297,0.09814453,0.1474609,-0.2841797,-0.2163086
1876,45.375,35.625,244,0.4697266,0.6655273,0.02099609,0.1367188,-0.2944336,-0.2119141
1880,21,37.3125,240.5625,0.4155273,0.777832,-0.1591797,0.1210938,-0.3066406,-0.2094727
1884,13.3125,3.9375,215.9375,0.4541016,0.921875,-0.3129883,0.1035156,-0.3168945,-0.2055664
1888,15.25,-41.1875,169.75,0.7333984,1.193848,-0.3051758,0.09375,-0.3217773,-0.2055664
1893,14.1875,-76.0625,112.5,1.016113,1.469727,-0.2397461,0.07714844,-0.328125,-0.2055664
1897,3.4375,-89.9375,48.875,1.209961,1.605469,-0.1362305,0.06640625,-0.328125,-0.2055664
1901,-4.0625,-82.1875,-18.4375,1.237305,1.531738,0.05566406,0.06054688,-0.3305664,-0.2055664
1905,-13.5625,-55.0625,-79.875,1.09375,1.380371,0.2211914,0.05810547,-0.3291016,-0.2094727
1909,-31,-18.8125,-124.875,0.8920898,1.146973,0.375,0.06396484,-0.3266602,-0.2119141
1913,-41.5,18.875,-152.6875,0.5629883,0.8325195,0.3481445,0.07226563,-0.3217773,-0.2133789
1917,-49.625,33.8125,-165.0625,0.2177734,0.6694336,0.2368164,0.08544922,-0.3154297,-0.2177734
1921,-52.875,27.875,-174.4375,-0.002441406,0.5410156,0.144043,0.1010742,-0.3066406,-0.2202148
1925,-48.0625,12.1875,-186.125,-0.1264648,0.5410156,0.1518555,0.1103516,-0.3007813,-0.2216797
1929,-48.3125,-3.5,-209.1875,-0.1728516,0.5371094,0.2211914,0.1259766,-0.2895508,-0.2231445
1933,-43.25,-11.5625,-231.375,-0.1728516,0.3974609,0.3056641,0.1401367,-0.2768555,-0.2299805
1937,-44.875,-8.5625,-247.25,-0.1611328,0.315918,0.4018555,0.1508789,-0.2670898,-0.230957
1941,-51.75,7.125,-240.875,-0.1650391,0.05517578,0.425293,0.1650391,-0.2519531,-0.2353516
1945,-62,16.9375,-207.625,-0.378418,0.0009765625,0.3251953,0.1821289,-0.234375,-0.237793
1949,-80.1875,11.375,-185.125,-0.4443359,0.09814453,0.2558594,0.1879883,-0.2255859,-0.2392578
1953,-78.125,-1.0625,-195.125,-0.4672852,0.05908203,0.2749023,0.1962891,-0.2070313,-0.2407227
1957,-62.5625,-15.875,-223.875,-0.4907227,-0.03759766,0.2905273,0.2055664,-0.1879883,-0.2436523
1961,-53.625,-26.625,-252.5625,-0.4985352,-0.1113281,0.3945313,0.2094727,-0.1757813,-0.2475586
1965,-45.6875,-24.875,-256.3125,-0.5410156,-0.4570313,0.4443359,0.2177734,-0.1557617,-0.2529297
1969,-59,-20.5625,-221.25,-0.5991211,0.1137695,0.4057617,0.2211914,-0.1333008,-0.2529297
1973,-79.75,-14.875,-171.1875,-0.5952148,-0.3793945,0.3789063,0.222168,-0.1196289,-0.2558594
1977,-94.9375,-9.0625,-163.75,-0.5175781,-0.2744141,0.3637695,0.2260742,-0.1020508,-0.2583008
1981,-84.3125,-4.25,-200.0625,-0.4443359,-0.421875,0.4560547,0.2270508,-0.08203125,-0.2583008
1985,-60.875,3,-237.1875,-0.4521484,-0.5,0.4213867,0.2270508,-0.06689453,-0.2568359
1989,-53.125,8.625,-252.0625,-0.5214844,-0.7524414,0.4057617,0.2294922,-0.04833984,-0.2568359
1993,-62.125,10.0625,-216.5625,-0.7036133,-0.9272461,0.3330078,0.2270508,-0.02441406,-0.2568359
1997,-87.0625,5.75,-166.8125,-0.6767578,-0.8496094,0.2983398,0.2260742,-0.01074219,-0.2543945
2001,-105.25,10.625,-135.1875,-0.5410156,-0.6630859,0.2329102,0.2246094,0.007324219,-0.2529297
2005,-115.125,9.25,-139.75,-0.4365234,-0.5698242,0.1713867,0.2236328,0.02392578,-0.2475586
2009,-77.0625,1.0625,-210.25,-0.3320313,-0.6669922,0.2402344,0.2202148,0.03857422,-0.2490234
2013,-41.125,-7.5,-274.375,-0.3745117,-0.8999023,0.2709961,0.2138672,0.05859375,-0.2460938
2017,-45.6875,-0.375,-266.375,-0.4052734,-1.245605,0.340332,0.203125,0.07861328,-0.2436523
2022,-81.9375,13.625,-189.125,-0.5371094,-1.366211,0.3251953,0.1972656,0.09228516,-0.2407227
2026,-115.375,22.4375,-130.0625,-0.4750977,-1.11377,0.2133789,0.1914063,0.1098633,-0.2353516
2030,-113.5625,15.5625,-131.6875,-0.4169922,-1.086426,0.105957,0.1865234,0.1235352,-0.2270508
2034,-58.375,-14.5,-189.0625,-0.4248047,-1.102051,0.03662109,0.1796875,0.1337891,-0.2246094
2038,-28.6875,-53,-239,-0.3862305,-1.008789,0.07128906,0.1689453,0.1499023,-0.2246094
2042,-27.5625,-65.6875,-240.5,-0.1845703,-1.272949,0.2290039,0.1508789,0.1650391,-0.2231445
2046,-51.8125,-50.8125,-200.25,-0.1533203,-1.249512,0.2827148,0.1376953,0.1723633,-0.2231445
2050,-80.8125,-38.25,-169.6875,-0.1108398,-1.366211,0.3056641,0.1235352,0.1850586,-0.2202148
2054,-70.125,-32,-171.5625,-0.1342773,-1.439941,0.3291016,0.109375,0.1972656,-0.2148438
2058,-53.375,-38.5,-186.3125,-0.1650391,-1.436035,0.3481445,0.1010742,0.2060547,-0.2109375
2062,-51.6875,-44.8125,-175.8125,-0.2231445,-1.498535,0.340332,0.08300781,0.2148438,-0.2080078
2066,-55.5625,-54.5625,-148.5,-0.2543945,-1.525391,0.3095703,0.06884766,0.2226563,-0.2041016
2070,-59.5625,-60.8125,-128.4375,-0.2192383,-1.401367,0.3134766,0.05957031,0.2275391,-0.2026367
2074,-64.875,-57.4375,-118.5,-0.1689453,-1.381836,0.3598633,0.04736328,0.2324219,-0.1987305
2078,-59.25,-60.3125,-110.25,-0.2270508,-1.459473,0.3828125,0.03320313,0.2397461,-0.1943359
2082,-43.125,-67.1875,-96.625,-0.1611328,-1.544922,0.4829102,0.02490234,0.2426758,-0.1904297
2086,-32.25,-59.8125,-89.3125,-0.04101563,-1.405273,0.6137695,0.01416016,0.2460938,-0.1865234
2090,-41.4375,-32.3125,-67.75,0.01269531,-1.354492,0.6943359,0.003417969,0.2485352,-0.1835938
2094,-52.125,-2.3125,-38.5,-0.06835938,-1.416504,0.6943359,0.0009765625,0.2509766,-0.1806641
2098,-51.25,17.25,-17.5625,-0.2192383,-1.447754,0.6713867,-0.0009765625,0.2563477,-0.1782227
2102,-36.0625,24.0625,-6.625,-0.3164063,-1.486816,0.6713867,-0.0009765625,0.2587891,-0.1728516
2106,-15.9375,27.0625,-3.3125,-0.347168,-1.471191,0.6713867,0,0.2587891,-0.168457
2110,-4.4375,40.25,10.375,-0.2851563,-1.486816,0.7021484,-0.0009765625,0.2573242,-0.168457
2114,-5.75,63.5625,37.875,-0.3007813,-1.48291,0.675293,0.004394531,0.2563477,-0.168457
2118,-6.8125,82.25,65.875,-0.347168,-1.517578,0.5830078,0.008300781,0.2573242,-0.1674805
2122,-1.75,96.8125,86.625,-0.4091797,-1.548828,0.5058594,0.02001953,0.2563477,-0.1674805
2126,1.875,103.3125,111.8125,-0.4868164,-1.568359,0.3979492,0.03173828,0.2563477,-0.1674805
2130,6.4375,100.375,135.375,-0.5063477,-1.583984,0.3291016,0.04052734,0.2539063,-0.1660156
2134,12.375,98.5625,150.625,-0.4790039,-1.61084,0.3056641,0.05810547,0.2509766,-0.1660156
2138,16.75,96.4375,163.75,-0.4829102,-1.630371,0.3095703,0.07470703,0.2451172,-0.1630859
2142,17.1875,97.5,185,-0.4750977,-1.727539,0.2944336,0.08789063,0.2426758,-0.1660156
2146,17.25,96.6875,213.1875,-0.4868164,-1.848145,0.2480469,0.1079102,0.2324219,-0.1645508
2151,17.3125,86.0625,235.8125,-0.5527344,-1.781738,0.159668,0.1293945,0.2236328,-0.1630859
2155,19.6875,69.625,252.375,-0.5488281,-1.785645,0.08642578,0.1425781,0.2163086,-0.1606445
2159,27,52.625,260.875,-0.5292969,-1.743164,0.05175781,0.1650391,0.2011719,-0.1606445
2163,29.3125,33.5,270.5,-0.5722656,-1.67334,-0.009277344,0.1855469,0.1835938,-0.1606445
2167,36.5625,9.0625,274.375,-0.5683594,-1.580078,-0.07861328,0.1962891,0.1723633,-0.1645508
2171,47.1875,-13.625,267.6875,-0.5214844,-1.45166,-0.08984375,0.215332,0.1499023,-0.168457
2175,54.25,-24.8125,261.375,-0.4555664,-1.370117,-0.05517578,0.2270508,0.1289063,-0.1728516
2179,47.5625,-24.5625,266.6875,-0.4013672,-1.241699,0.005859375,0.2353516,0.1152344,-0.175293
2183,38.125,-16.5625,271.8125,-0.3974609,-1.233887,0.06347656,0.2475586,0.08984375,-0.1782227
2187,38.25,-9.4375,272.375,-0.4750977,-1.29248,0.07519531,0.2568359,0.06640625,-0.1850586
2191,36.375,-18.625,284.8125,-0.5683594,-1.152344,0.005859375,0.2641602,0.04980469,-0.1865234
2195,36.1875,-29.625,283.6875,-0.5175781,-1.078613,0.01708984,0.2709961,0.02490234,-0.1889648
2199,44.1875,-37.375,276.75,-0.4985352,-0.9970703,0.02490234,0.2724609,-0.003417969,-0.1918945
2203,44.0625,-43.375,277.25,-0.4443359,-0.8613281,0.05566406,0.2749023,-0.01953125,-0.1958008
2207,42.3125,-32.125,271.75,-0.3085938,-0.7602539,0.1557617,0.2734375,-0.046875,-0.1987305
2211,36.375,-12.125,273.625,-0.3320313,-0.6899414,0.1826172,0.2724609,-0.07177734,-0.2026367
2215,21.125,-2.8125,285.3125,-0.4633789,-0.5927734,0.04785156,0.2724609,-0.08935547,-0.2026367
2219,19.75,-31.8125,285.3125,-0.6147461,-0.5112305,-0.1054688,0.2675781,-0.1181641,-0.2055664
2223,46.6875,-85.75,257.9375,-0.5874023,-0.4492188,-0.2016602,0.2568359,-0.140625,-0.2109375
2227,77,-128.6875,229.5625,-0.3549805,-0.3520508,-0.1362305,0.2485352,-0.1542969,-0.2133789
2231,87.9375,-134.6875,208,0.01660156,-0.1035156,0.1289063,0.234375,-0.1791992,-0.2216797
2235,72.6875,-89.3125,206.8125,0.2758789,0.03613281,0.355957,0.21875,-0.2016602,-0.2255859
2239,39.8125,-30.25,223.125,0.2724609,0.15625,0.409668,0.2094727,-0.2128906,-0.2285156
2243,12.0625,6.875,231,0.07470703,0.3081055,0.2866211,0.1962891,-0.2294922,-0.2270508
2247,8.625,16.8125,207.625,-0.1186523,0.3081055,0.2094727,0.1855469,-0.2441406,-0.2255859
2251,16.8125,4.8125,177.875,-0.3320313,0.3662109,0.1020508,0.1772461,-0.2529297,-0.2246094
2255,23.3125,-22.875,160,-0.4672852,0.2612305,0.07519531,0.1674805,-0.2631836,-0.2216797
2259,34.75,-50.5,154.6875,-0.4091797,0.2807617,0.1367188,0.1533203,-0.2729492,-0.2231445
2263,28.0625,-48.125,155.0625,-0.1186523,0.4282227,0.3251953,0.1474609,-0.2792969,-0.2231445
2267,12.1875,-19.5,160.625,0.01269531,0.5991211,0.4135742,0.1318359,-0.2895508,-0.2216797
2271,0,3.5625,156.375,-0.05664063,0.7001953,0.355957,0.1210938,-0.296875,-0.2246094
2275,1.875,1.5625,135.75,-0.1459961,0.7626953,0.1982422,0.112793,-0.2993164,-0.2231445
2280,10.5,-26.375,101.1875,-0.1499023,0.840332,0.09814453,0.1020508,-0.3041992,-0.2231445
2284,15.625,-57.125,71.75,0.05908203,0.972168,0.1367188,0.09277344,-0.3081055,-0.2231445
2288,15.8125,-74.25,41.625,0.2758789,1.049805,0.2211914,0.08691406,-0.3095703,-0.2246094
2292,14.0625,-72.375,12.8125,0.5551758,1.108398,0.3637695,0.07958984,-0.3129883,-0.2231445
2296,13.0625,-51.5625,-23.5,0.690918,1.225098,0.4365234,0.07470703,-0.3129883,-0.2255859
2300,7.125,-25.4375,-67.625,0.6791992,1.259766,0.4599609,0.07617188,-0.3105469,-0.2255859
2304,3.625,-2.375,-111.1875,0.5708008,1.131836,0.4599609,0.07861328,-0.3105469,-0.2255859
2308,2.875,13.6875,-148.9375,0.4194336,0.9838867,0.4521484,0.09033203,-0.3066406,-0.2231445
2312,1.375,23.4375,-171.0625,0.2758789,0.8286133,0.3598633,0.09863281,-0.3032227,-0.2231445
2316,-1.75,26.125,-184.0625,0.159668,0.7158203,0.2788086,0.1152344,-0.2983398,-0.2255859
2320,-5.4375,27.375,-196.5625,0.07861328,0.6733398,0.2329102,0.128418,-0.2895508,-0.2231445
2324,-9.8125,28,-215.375,0.01269531,0.5839844,0.2250977,0.1416016,-0.2841797,-0.21875
2328,-11.25,31.0625,-228.4375,-0.03710938,0.4282227,0.1787109,0.1582031,-0.2719727,-0.2231445
2332,-18.0625,32.6875,-235.125,-0.1381836,0.3583984,0.1674805,0.1738281,-0.2592773,-0.21875
2336,-29,37.375,-242.875,-0.2080078,0.1914063,0.2211914,0.1855469,-0.2495117,-0.2216797
2340,-36.0625,45.125,-232.875,-0.3432617,-0.03369141,0.1787109,0.2021484,-0.2319336,-0.21875
2344,-41.125,41,-218.5625,-0.5141602,-0.06445313,0.08642578,0.2128906,-0.2143555,-0.21875
2348,-45.3125,26.875,-216.3125,-0.5644531,-0.05664063,0.06347656,0.2236328,-0.203125,-0.2177734
2352,-36.0625,14.8125,-230.5625,-0.5913086,-0.1889648,0.06738281,0.234375,-0.1845703,-0.21875
2356,-30.75,0.5625,-242.3125,-0.6806641,-0.2084961,0.09814453,0.2426758,-0.1630859,-0.21875
2360,-26.8125,-10.375,-242.875,-0.6923828,-0.4414063,0.125,0.2475586,-0.1494141,-0.21875
2364,-30.125,-15.75,-227.875,-0.6728516,-0.402832,0.1635742,0.25,-0.1269531,-0.2202148
2368,-52.9375,-6.125,-204.9375,-0.5644531,-0.4140625,0.2675781,0.2558594,-0.1069336,-0.2246094
2372,-68.625,6.9375,-182.375,-0.5952148,-0.484375,0.1865234,0.2568359,-0.09326172,-0.2231445
2376,-66.3125,1.6875,-196.875,-0.6264648,-0.4414063,0.2172852,0.2592773,-0.07177734,-0.2231445
2380,-36.4375,-5.125,-246.25,-0.6650391,-0.6821289,0.2480469,0.2592773,-0.05175781,-0.2216797
2384,-21.3125,-11,-263.875,-0.715332,-0.8613281,0.2788086,0.2592773,-0.03710938,-0.2216797
2388,-38.125,-3.8125,-226.375,-0.6923828,-0.9428711,0.3056641,0.2543945,-0.01171875,-0.2231445
2392,-75.75,12.625,-167.125,-0.6455078,-0.8457031,0.2983398,0.2543945,0.006347656,-0.2202148
2396,-102.1875,30.375,-133.1875,-0.5834961,-0.7368164,0.2172852,0.2519531,0.01757813,-0.2148438
2400,-95.5625,24.375,-143.6875,-0.6264648,-0.8027344,0.1289063,0.2485352,0.03271484,-0.2148438
2404,-45.1875,-7.125,-200.75,-0.6767578,-0.7832031,0.04052734,0.2460938,0.05126953,-0.2094727
2409,-22.875,-38,-246.75,-0.5214844,-0.7871094,0.1943359,0.2412109,0.06494141,-0.2094727
2413,-31.375,-29.0625,-254,-0.3354492,-0.9931641,0.3520508,0.2294922,0.08642578,-0.2119141
2417,-58.25,-0.0625,-205.375,-0.3432617,-1.11377,0.3251953,0.21875,0.1064453,-0.2094727
2421,-89.0625,13.5625,-161.5625,-0.3901367,-0.9970703,0.1943359,0.2138672,0.1162109,-0.206543
2425,-93.3125,8.125,-156.1875,-0.378418,-0.9853516,0.08642578,0.2055664,0.1323242,-0.2011719
2429,-66,-9.875,-185.3125,-0.2734375,-1.059082,0.159668,0.1962891,0.1474609,-0.1958008
2433,-38.3125,-12.5625,-226.4375,-0.1342773,-1.11377,0.2675781,0.1889648,0.1577148,-0.1918945
2437,-45.625,7.6875,-229.875,-0.08007813,-1.257324,0.390625,0.1723633,0.1762695,-0.1904297
2441,-67.5625,39.75,-190.6875,-0.1767578,-1.513672,0.3598633,0.1606445,0.1914063,-0.1835938
2445,-85.0625,52.75,-151.9375,-0.3706055,-1.599121,0.2250977,0.1533203,0.1987305,-0.1782227
2449,-74.1875,36.125,-135.0625,-0.5566406,-1.630371,0.07519531,0.1450195,0.2099609,-0.1699219
2453,-45.5,-1.5,-138,-0.5795898,-1.568359,0.001953125,0.1367188,0.2197266,-0.1616211
2457,-22.625,-36.625,-144.0625,-0.4829102,-1.401367,-0.01318359,0.1269531,0.2250977,-0.1606445
2461,-16.0625,-56.1875,-149.6875,-0.3164063,-1.226563,-0.005371094,0.1142578,0.2324219,-0.1591797
2465,-18.75,-63.5,-151.0625,-0.215332,-1.222656,0.05566406,0.1010742,0.2397461,-0.1606445
2469,-22.9375,-65.5,-142.8125,-0.1884766,-1.265137,0.125,0.09130859,0.2426758,-0.1591797
2473,-23.625,-71.5,-133.6875,-0.1728516,-1.331055,0.1787109,0.07617188,0.2485352,-0.1606445
2477,-19.5,-71,-126.1875,-0.1108398,-1.34668,0.2788086,0.06152344,0.2524414,-0.1591797
2481,-15.8125,-64.5625,-123.1875,-0.09912109,-1.342773,0.3364258,0.05224609,0.2548828,-0.1577148
2485,-16.1875,-49.875,-115.1875,-0.1225586,-1.381836,0.3945313,0.04052734,0.2612305,-0.1577148
2489,-18.125,-32.9375,-95.5625,-0.2231445,-1.525391,0.4521484,0.02832031,0.262207,-0.1547852
2493,-18.6875,-17.6875,-60.9375,-0.3862305,-1.61084,0.4868164,0.0234375,0.262207,-0.1547852
2497,-17.5,-7.5,-27.375,-0.4672852,-1.669434,0.5751953,0.01757813,0.2661133,-0.1538086
2501,-11.1875,8.6875,-1.1875,-0.4907227,-1.67334,0.6518555,0.01660156,0.2661133,-0.1508789
2505,-1.8125,27.5,23,-0.5102539,-1.735352,0.6674805,0.01660156,0.2651367,-0.1508789
2509,3.4375,45.5625,54.6875,-0.5644531,-1.739258,0.6098633,0.02001953,0.2661133,-0.1508789
2513,1.8125,57.6875,91.6875,-0.5527344,-1.723633,0.5058594,0.02832031,0.2661133,-0.1508789
2517,4.5625,64.75,121.5625,-0.5292969,-1.708008,0.409668,0.03564453,0.2636719,-0.1484375
2521,6.625,68.3125,142.5625,-0.5371094,-1.599121,0.3056641,0.04980469,0.262207,-0.1494141
2525,8.8125,67.8125,160.375,-0.5214844,-1.630371,0.2558594,0.06542969,0.2563477,-0.1494141
2529,17,62.0625,175.1875,-0.5527344,-1.630371,0.1943359,0.07617188,0.2539063,-0.1494141
2533,26.75,50.25,184.5,-0.5292969,-1.696289,0.1982422,0.09277344,0.2460938,-0.1494141
2538,30.0625,46.5,202.3125,-0.4907227,-1.71582,0.2021484,0.1103516,0.2397461,-0.1538086
2542,25.75,45.0625,225.5,-0.4829102,-1.750977,0.1748047,0.1235352,0.2299805,-0.1523438
2546,26.0625,37.8125,246.25,-0.5141602,-1.758789,0.1171875,0.144043,0.2197266,-0.15625
2550,32.75,22.875,256.75,-0.5141602,-1.692383,0.08251953,0.1640625,0.2050781,-0.15625
2554,41.25,8.0625,257.25,-0.4985352,-1.599121,0.07519531,0.1757813,0.1948242,-0.1591797
2558,51.25,-9,255.75,-0.5292969,-1.556641,0.04443359,0.1938477,0.1762695,-0.1630859
2562,60.25,-21.9375,258.9375,-0.4711914,-1.486816,0.05957031,0.2080078,0.1547852,-0.168457
2566,57.1875,-19.3125,266,-0.3549805,-1.424316,0.140625,0.2202148,0.1401367,-0.1728516
2570,53.6875,-9.9375,273.9375,-0.3862305,-1.34668,0.105957,0.2319336,0.1176758,-0.1782227
2574,49.875,-6,279.5625,-0.4013672,-1.280762,0.1328125,0.2460938,0.09521484,-0.1796875
2578,51.4375,-7.3125,276.0625,-0.5292969,-1.280762,0.02490234,0.2509766,0.07763672,-0.1821289
2582,56.25,-25.125,275.75,-0.5527344,-1.214844,0.03662109,0.2617188,0.05371094,-0.1875
2586,66.9375,-33.6875,268.9375,-0.5102539,-1.265137,0.06347656,0.2651367,0.02636719,-0.1904297
2590,64.5625,-29,282.125,-0.4091797,-1.129395,0.1171875,0.2700195,0.008789063,-0.1918945
2594,47.0625,-12,298.375,-0.347168,-0.9697266,0.1674805,0.2734375,-0.01953125,-0.1972656
2598,39.8125,-0.3125,301.6875,-0.4326172,-0.9580078,0.07910156,0.2724609,-0.04833984,-0.1972656
2602,42.75,-16.6875,301.9375,-0.5834961,-0.8183594,-0.1206055,0.2734375,-0.06835938,-0.199707
2606,47.1875,-48.125,289.0625,-0.5527344,-0.6474609,-0.112793,0.2724609,-0.09570313,-0.2011719
2610,56.25,-69.3125,279.8125,-0.4169922,-0.6357422,-0.05908203,0.2626953,-0.1230469,-0.2080078
2614,59.5625,-69.3125,275.3125,-0.2387695,-0.5112305,0.03662109,0.2543945,-0.1420898,-0.2080078
2618,47.875,-57.9375,284.375,-0.1499023,-0.355957,0.02490234,0.2451172,-0.1679688,-0.2148438
2622,29.5625,-44.0625,289.75,-0.02978516,-0.07617188,0.06347656,0.230957,-0.1933594,-0.2163086
2626,20.6875,-31.1875,272.6875,0.05908203,0.08251953,0.1132813,0.2202148,-0.2055664,-0.2177734
2630,18.5,-16.125,248.625,0.04345703,0.1835938,0.125,0.2045898,-0.2270508,-0.21875
2634,11,-6.3125,233.1875,-0.01806641,0.2651367,0.1171875,0.1928711,-0.2441406,-0.21875
2638,1.625,0.25,224.4375,-0.1186523,0.237793,0.144043,0.1821289,-0.2529297,-0.2202148
2642,-3.8125,0.125,218.1875,-0.1420898,0.3388672,0.1557617,0.1689453,-0.265625,-0.21875
2646,-9.125,3.25,210.5,-0.2348633,0.3041992,0.2211914,0.1547852,-0.2783203,-0.2202148
2650,-11.1875,-5.6875,207,-0.3901367,0.3466797,0.2749023,0.1450195,-0.2832031,-0.2202148
2654,-2.375,-23.4375,196.375,-0.3393555,0.3271484,0.3017578,0.1308594,-0.2929688,-0.2202148
2658,4.1875,-30.8125,188.1875,-0.1264648,0.4438477,0.3710938,0.112793,-0.2993164,-0.2216797
2662,-2,-29.4375,189.75,0.06298828,0.6694336,0.3520508,0.1035156,-0.3056641,-0.2231445
2667,-10.5625,-30.3125,184.9375,0.2294922,0.809082,0.3173828,0.08691406,-0.3095703,-0.2231445
2671,-8.8125,-30.5,158.6875,0.4194336,0.987793,0.3134766,0.07128906,-0.3144531,-0.2231445
2675,-6.625,-28.875,118.9375,0.5512695,1.17041,0.3095703,0.06298828,-0.3168945,-0.2255859
2679,-6.875,-34.25,73.1875,0.5976563,1.232422,0.2290039,0.05224609,-0.3178711,-0.2270508
2683,-9,-42,29.75,0.6948242,1.267578,0.2172852,0.04492188,-0.3193359,-0.2270508
2687,-11.6875,-40.4375,-20.0625,0.7099609,1.306641,0.2749023,0.04248047,-0.3168945,-0.2285156
2691,-7.6875,-33.3125,-74.875,0.6362305,1.154785,0.3598633,0.04248047,-0.3154297,-0.230957
2695,-6.3125,-18.1875,-116.875,0.527832,1.003418,0.4482422,0.04638672,-0.3120117,-0.2285156
2699,-5,1.25,-142.75,0.4350586,0.7705078,0.4633789,0.05322266,-0.3105469,-0.2299805
2703,-6,16,-150.75,0.2875977,0.6845703,0.4057617,0.06542969,-0.3095703,-0.2299805
2707,-8.8125,21.125,-158.8125,0.2255859,0.6694336,0.3598633,0.07861328,-0.3041992,-0.230957
2711,-7.8125,23,-180.4375,0.1635742,0.7119141,0.3212891,0.08691406,-0.3032227,-0.2324219
2715,-6.1875,21.9375,-210.125,0.07470703,0.6342773,0.3095703,0.1035156,-0.2944336,-0.230957
2719,-1.6875,19.1875,-235.4375,-0.03320313,0.4477539,0.3017578,0.1210938,-0.2866211,-0.2299805
2723,2.875,16.5625,-249.875,-0.08398438,0.3271484,0.3134766,0.1318359,-0.2792969,-0.230957
2727,2.25,19.875,-255.0625,-0.1499023,0.2226563,0.2709961,0.1533203,-0.2695313,-0.2299805
2731,-9.4375,22.6875,-246.8125,-0.2543945,0.1679688,0.2866211,0.1689453,-0.2558594,-0.2299805
2735,-24.8125,29.5625,-233.125,-0.3393555,0.04394531,0.2519531,0.1796875,-0.2441406,-0.2299805
2739,-29.25,24.6875,-228.4375,-0.3974609,0.07470703,0.1865234,0.1928711,-0.2304688,-0.2299805
2743,-18.875,13.6875,-258.5625,-0.3706055,0.1601563,0.2211914,0.2080078,-0.2128906,-0.2299805
2747,-9.1875,7.875,-293.25,-0.3666992,-0.01806641,0.2250977,0.2138672,-0.1992188,-0.2270508
2751,-4.8125,11.75,-297.8125,-0.4907227,-0.3520508,0.3017578,0.2285156,-0.1767578,-0.2255859
2755,-20.1875,9.9375,-263.6875,-0.7734375,-0.5966797,0.2480469,0.2392578,-0.1542969,-0.2255859
2759,-37.125,-4.4375,-221.375,-0.8276367,-0.5,0.1367188,0.2402344,-0.1396484,-0.2285156
2763,-49.375,-17.125,-212,-0.6147461,-0.2392578,0.2402344,0.2460938,-0.1196289,-0.2285156
2767,-52.625,-1.1875,-222.3125,-0.378418,-0.3950195,0.3251953,0.25,-0.09960938,-0.2285156
2771,-56.5,17.0625,-226.75,-0.378418,-0.3520508,0.3134766,0.2519531,-0.08544922,-0.2285156
2775,-49.375,32.3125,-256,-0.5214844,-0.7094727,0.3212891,0.2543945,-0.06445313,-0.2270508
2779,-42.375,26.5625,-240.75,-0.831543,-1.012695,0.1904297,0.2568359,-0.03955078,-0.2246094
2783,-60.25,16.5,-203.1875,-0.8432617,-0.9658203,0.2675781,0.2558594,-0.02441406,-0.2216797
2787,-78.125,26.75,-172.5,-0.7851563,-1.047363,0.2709961,0.2558594,-0.001953125,-0.2177734
2791,-88.25,31.5625,-146.8125,-0.7543945,-0.9116211,0.1865234,0.253418,0.01367188,-0.2148438
2796,-73.6875,18.75,-160.625,-0.6572266,-0.7563477,0.1210938,0.253418,0.02490234,-0.2148438
2800,-37.375,-3.75,-219.8125,-0.5683594,-0.6123047,0.03271484,0.2475586,0.04248047,-0.2109375
2804,-27.3125,-20.375,-251.3125,-0.4594727,-0.7680664,0.08642578,0.2402344,0.0625,-0.2080078
2808,-47.125,-5.625,-239.375,-0.3823242,-1.055176,0.2905273,0.2353516,0.07763672,-0.2094727
2812,-78.25,27.625,-190.6875,-0.4907227,-1.323242,0.3291016,0.2246094,0.09863281,-0.206543
2816,-96.375,42.75,-150.5,-0.6494141,-1.319336,0.159668,0.2202148,0.1152344,-0.1972656
2820,-86.5,23.4375,-149,-0.7231445,-1.265137,0.01367188,0.2138672,0.1235352,-0.1928711
2824,-51.1875,-14.3125,-177.6875,-0.6611328,-1.148438,-0.04736328,0.2094727,0.1401367,-0.1875
2828,-35.0625,-47.75,-195.625,-0.4750977,-1.012695,-0.01660156,0.1962891,0.1547852,-0.1865234
2832,-40.5625,-58.1875,-196.25,-0.2119141,-0.9233398,0.02880859,0.1865234,0.1635742,-0.1865234
2836,-60.3125,-43.5625,-194,0.04736328,-0.8686523,0.09423828,0.1699219,0.1762695,-0.1875
2840,-82.375,-20.5625,-196.3125,0.04345703,-0.9697266,0.07128906,0.1557617,0.1923828,-0.1835938
2844,-86.4375,-19.375,-205.625,-0.06835938,-1.199219,0.02490234,0.1459961,0.2050781,-0.1767578
2848,-67.875,-37.375,-223.1875,-0.05664063,-1.428223,0.07519531,0.1308594,0.2172852,-0.1728516
2852,-47.25,-43.75,-234.3125,0.1054688,-1.505859,0.1713867,0.1103516,0.2285156,-0.1674805
2856,-54,-28.75,-224,0.2451172,-1.517578,0.2675781,0.09765625,0.2373047,-0.1674805
2860,-66.4375,-0.75,-211.0625,0.2104492,-1.622559,0.2441406,0.07714844,0.2460938,-0.1616211
2864,-65.1875,15.3125,-196.4375,0.01660156,-1.781738,0.2060547,0.06054688,0.2563477,-0.1538086
2868,-56,22.5625,-186.8125,-0.2001953,-1.882813,0.1982422,0.04980469,0.262207,-0.1494141
2872,-47.625,21.9375,-158.375,-0.4750977,-1.898438,0.2172852,0.03564453,0.2675781,-0.1425781
2876,-43.5625,14,-118.1875,-0.746582,-1.886719,0.3095703,0.02246094,0.2709961,-0.1386719
2880,-33.4375,-3.5625,-72.0625,-0.9555664,-1.964355,0.4560547,0.01513672,0.2739258,-0.1347656
2884,-12.1875,-25.5,-26.8125,-0.9555664,-1.933594,0.625,0.009277344,0.2763672,-0.1303711
2888,4.375,-32.4375,5.4375,-0.7773438,-1.824707,0.8330078,0.006835938,0.2763672,-0.1303711
2892,18.3125,-9.5,31.875,-0.4985352,-1.711914,0.9443359,0.008300781,0.2739258,-0.1303711
2896,15.625,36.1875,59.875,-0.3510742,-1.630371,0.855957,0.01171875,0.2724609,-0.1347656
2900,7.375,84.875,91.5625,-0.378418,-1.665527,0.640625,0.02148438,0.2724609,-0.1347656
2904,-4.25,116.125,129.8125,-0.5449219,-1.669434,0.3212891,0.02832031,0.2724609,-0.1333008
2908,-11.875,118.875,164.1875,-0.6845703,-1.762695,0.09423828,0.04638672,0.2675781,-0.1347656
2912,-1.0625,103.875,190.375,-0.7543945,-1.902344,-0.02050781,0.06640625,0.2651367,-0.1318359
2916,6.9375,80.875,211.75,-0.7504883,-1.917969,-0.06298828,0.07861328,0.2612305,-0.1303711
2920,11.1875,58.0625,237,-0.6884766,-1.949219,-0.04394531,0.1010742,0.2524414,-0.1289063
2925,20.6875,34.5625,255.3125,-0.6225586,-1.964355,-0.06689453,0.1225586,0.2436523,-0.1318359
2929,32.125,11.25,264.875,-0.5102539,-1.894531,-0.02441406,0.1367188,0.2338867,-0.1318359
2933,33.8125,4.5,276.625,-0.4052734,-1.848145,0.03271484,0.1582031,0.2197266,-0.137207
2937,25.625,5.6875,298.25,-0.4248047,-1.83252,0.06738281,0.1821289,0.2026367,-0.1401367
2941,23.75,2.5625,310.75,-0.4790039,-1.855957,0.03271484,0.1938477,0.1875,-0.1416016
2945,31,-11.9375,324.5,-0.5292969,-1.74707,-0.05908203,0.215332,0.1650391,-0.1455078
2949,31.9375,-31.625,328.875,-0.5371094,-1.622559,-0.09765625,0.2329102,0.1386719,-0.1494141
2953,42.5,-54,319.9375,-0.5063477,-1.490723,-0.1245117,0.2436523,0.1201172,-0.1508789
2957,56.5625,-76.4375,303.3125,-0.4404297,-1.471191,-0.1015625,0.2568359,0.09375,-0.1616211
2961,65.9375,-79.75,299,-0.2700195,-1.29248,-0.009277344,0.2641602,0.06640625,-0.168457
2965,61.75,-63.1875,296.375,-0.1767578,-1.167969,0.1020508,0.269043,0.04736328,-0.1767578
2969,57.25,-52.1875,301.625,-0.347168,-1.133301,0.001953125,0.2724609,0.01855469,-0.1835938
2973,60.125,-62.1875,294.1875,-0.378418,-1.016602,-0.01318359,0.2749023,-0.01171875,-0.1889648
2977,71.75,-70.4375,276.8125,-0.3588867,-0.9775391,0.01708984,0.2749023,-0.03076172,-0.1943359
2981,78.4375,-72.375,270.375,-0.3393555,-0.9467773,-0.005371094,0.2734375,-0.05957031,-0.2011719
2985,71.6875,-65.125,274.1875,-0.262207,-0.7988281,0.1020508,0.2675781,-0.08691406,-0.206543
2989,66.6875,-50.1875,281.9375,-0.1845703,-0.7055664,0.1210938,0.2651367,-0.1044922,-0.2094727
2993,62,-36.375,276.625,-0.1420898,-0.5112305,0.09814453,0.2543945,-0.1333008,-0.2133789
2997,63.3125,-29.3125,260.25,-0.1459961,-0.324707,0.08642578,0.2460938,-0.1582031,-0.2133789
3001,60.125,-27.9375,245.6875,-0.2041016,-0.2353516,0.02490234,0.2392578,-0.1743164,-0.2148438
3005,59.9375,-32.75,228.0625,-0.2773438,-0.2353516,0.03662109,0.2285156,-0.1967773,-0.2148438
3009,64,-35.5,222.875,-0.2426758,-0.2124023,0.1098633,0.2163086,-0.2182617,-0.2163086
3013,48.5,-17.9375,230.4375,-0.2080078,-0.1191406,0.2597656,0.2070313,-0.2294922,-0.2148438
3017,34.25,1.3125,244.125,-0.262207,-0.04882813,0.2441406,0.1948242,-0.2480469,-0.2119141
3021,26.4375,6.9375,247,-0.3320313,0.04736328,0.105957,0.1782227,-0.265625,-0.2109375
3025,24.4375,-2.875,237.0625,-0.3164063,0.269043,0.05957031,0.1689453,-0.2729492,-0.2094727
3029,19.5625,-10.125,226.375,-0.2661133,0.3310547,0.08251953,0.1533203,-0.2880859,-0.206543
3033,18.0625,-19.0625,220.25,-0.1806641,0.3388672,0.06347656,0.1367188,-0.3007813,-0.206543
3037,8.8125,-19.125,225.875,0.09033203,0.5097656,0.09423828,0.125,-0.3056641,-0.206543
3041,-10.5625,-19.8125,233.875,0.3886719,0.7817383,0.06347656,0.1044922,-0.3168945,-0.206543
3045,-24.25,-29.375,218.1875,0.6982422,1.034668,0.05957031,0.08447266,-0.3232422,-0.2080078
3049,-21.0625,-52.0625,164.375,1.012207,1.39209,0.07128906,0.07226563,-0.3266602,-0.2109375
3054,-12.625,-64.75,79.5,1.326172,1.636719,0.1674805,0.05810547,-0.3242188,-0.2133789
3058,-8.875,-58.625,-10.1875,1.376465,1.628906,0.2402344,0.04736328,-0.3266602,-0.2119141
3062,-7.875,-46.1875,-86.1875,1.175293,1.333496,0.2905273,0.04980469,-0.3256836,-0.2133789
3066,-12.375,-27.5,-133.875,0.9541016,1.162598,0.3134766,0.0546875,-0.3232422,-0.2177734
3070,-22.4375,-1.625,-164.9375,0.6948242,0.9023438,0.3520508,0.06640625,-0.3193359,-0.21875
3074,-29.5625,23.6875,-182.0625,0.3613281,0.6772461,0.2944336,0.07470703,-0.3154297,-0.21875
3078,-36.5625,36,-185.8125,0.1054688,0.5175781,0.1982422,0.09130859,-0.3081055,-0.2216797
3082,-45.1875,34.4375,-183.75,-0.09130859,0.4946289,0.09033203,0.1079102,-0.2993164,-0.2255859
3086,-48.0625,23.875,-196.875,-0.1689453,0.4907227,0.09033203,0.1186523,-0.2919922,-0.2255859
3090,-42.6875,13.1875,-225.125,-0.1845703,0.4360352,0.1171875,0.1333008,-0.2807617,-0.2255859
3094,-37.5,5.5,-248,-0.2583008,0.2651367,0.1982422,0.1508789,-0.2670898,-0.230957
3098,-38.5625,2.8125,-247,-0.4365234,-0.006347656,0.2060547,0.1606445,-0.2583008,-0.2324219
3102,-51.5625,-0.8125,-220.1875,-0.4521484,-0.09179688,0.2749023,0.1757813,-0.2416992,-0.2353516
3106,-66.125,11.625,-199,-0.3823242,-0.02978516,0.3251953,0.1865234,-0.2246094,-0.2368164
3110,-68.9375,20.1875,-205.625,-0.3393555,0.1098633,0.340332,0.1948242,-0.2143555,-0.2392578
3114,-57.125,26.875,-244.25,-0.4130859,-0.06445313,0.3251953,0.2055664,-0.1958008,-0.2407227
3118,-40.625,18.3125,-256.25,-0.6650391,-0.3173828,0.2480469,0.2177734,-0.1757813,-0.2392578
3122,-45.8125,0.5625,-237.25,-0.765625,-0.402832,0.2675781,0.222168,-0.1621094,-0.2407227
3126,-63.25,4.5,-207.6875,-0.6416016,-0.4140625,0.3637695,0.2285156,-0.140625,-0.2436523
3130,-87.875,22.5,-171.5,-0.6225586,-0.371582,0.3134766,0.2353516,-0.1181641,-0.2421875
3134,-105.5,30.9375,-152.1875,-0.6455078,-0.3676758,0.2709961,0.2368164,-0.1083984,-0.2421875
3138,-78.375,21.25,-190.75,-0.6884766,-0.421875,0.2290039,0.2412109,-0.08837891,-0.2407227
3142,-46.375,1.875,-242.25,-0.7348633,-0.4453125,0.2675781,0.2436523,-0.06689453,-0.2407227
3146,-36.6875,-5.5,-258.9375,-0.7734375,-0.7329102,0.3637695,0.2436523,-0.05175781,-0.2392578
3150,-43,-4.5,-231.25,-0.8085938,-0.9272461,0.3520508,0.2412109,-0.02929688,-0.2392578
3154,-65,1.625,-189,-0.6728516,-0.7485352,0.390625,0.2412109,-0.009277344,-0.2368164
3158,-90.9375,30.6875,-162.0625,-0.4790039,-0.6630859,0.4287109,0.2402344,0.002441406,-0.2407227
3162,-93.0625,54.125,-169.4375,-0.4404297,-0.6201172,0.355957,0.237793,0.02148438,-0.230957
3166,-65.125,53.75,-221.875,-0.5214844,-0.6630859,0.2133789,0.2368164,0.04150391,-0.2255859
3170,-40.5625,29.5625,-258.4375,-0.6264648,-0.9116211,0.1289063,0.234375,0.05615234,-0.2216797
3174,-22.8125,-5.0625,-243.0625,-0.730957,-1.140625,0.02490234,0.2285156,0.07763672,-0.2177734
3178,-37.25,-36.1875,-207.125,-0.5102539,-0.8999023,0.1210938,0.215332,0.09375,-0.21875
3183,-68.5625,-17.0625,-191.1875,-0.1225586,-0.7753906,0.2788086,0.2080078,0.1049805,-0.21875
3187,-87.3125,20.5,-198,-0.08789063,-0.9389648,0.2636719,0.199707,0.1235352,-0.2133789
3191,-85.6875,35.75,-212.125,-0.230957,-1.160156,0.1787109,0.1914063,0.1425781,-0.2094727
3195,-72.125,28.875,-232.1875,-0.2773438,-1.245605,0.144043,0.184082,0.1523438,-0.2041016
3199,-55.3125,13.25,-234.75,-0.3862305,-1.509766,0.09033203,0.1699219,0.1713867,-0.1972656
3203,-49.9375,-16.1875,-210.625,-0.4287109,-1.529297,0.06347656,0.1567383,0.1860352,-0.1943359
3207,-49.9375,-36,-194.4375,-0.2426758,-1.385742,0.08251953,0.1450195,0.1948242,-0.1889648
3211,-55.25,-37.875,-195,-0.09912109,-1.284668,0.105957,0.1293945,0.2060547,-0.1865234
3215,-56.9375,-35.9375,-200.5,-0.1069336,-1.358398,0.1098633,0.112793,0.21875,-0.1835938
3219,-52.5625,-40.875,-205.5,-0.1381836,-1.471191,0.1635742,0.1010742,0.2260742,-0.1796875
3223,-44.125,-43.5,-193,-0.1572266,-1.638184,0.2675781,0.08300781,0.2338867,-0.1782227
3227,-36.5625,-39.5625,-171.5,-0.1962891,-1.809082,0.3364258,0.06640625,0.2426758,-0.1728516
3231,-39.1875,-33.375,-133.5625,-0.3007813,-1.669434,0.3095703,0.05566406,0.2460938,-0.1713867
3235,-43.5625,-27.0625,-107.875,-0.347168,-1.591309,0.2866211,0.04248047,0.2524414,-0.168457
3239,-35.1875,-26.875,-92.625,-0.4326172,-1.580078,0.2866211,0.03320313,0.2563477,-0.1645508
3243,-24.4375,-28.25,-78.4375,-0.4521484,-1.525391,0.3481445,0.02978516,0.2587891,-0.1630859
3247,-16.3125,-24.4375,-62.375,-0.4287109,-1.517578,0.4404297,0.02148438,0.2612305,-0.1606445
3251,-14.4375,-12.75,-36.375,-0.3974609,-1.490723,0.5175781,0.01513672,0.2597656,-0.1591797
3255,-15.75,-2.6875,-8.25,-0.4326172,-1.490723,0.5634766,0.01269531,0.2636719,-0.1577148
3259,-7.875,1.5625,8.5,-0.4248047,-1.505859,0.625,0.01269531,0.2612305,-0.1606445
3263,4.125,13.125,20.5625,-0.3823242,-1.479004,0.7021484,0.01269531,0.2636719,-0.15625
3267,7.3125,29.8125,37.5625,-0.3666992,-1.455566,0.6943359,0.01660156,0.2636719,-0.1577148
3271,11,48.4375,55.375,-0.3549805,-1.459473,0.640625,0.02001953,0.262207,-0.1577148
3275,13.3125,62.125,77.1875,-0.4013672,-1.471191,0.5019531,0.02832031,0.262207,-0.1577148
3279,14.625,65.875,98.25,-0.4404297,-1.486816,0.3867188,0.03564453,0.2587891,-0.1577148
3283,20.5625,65.5,112.75,-0.4555664,-1.517578,0.340332,0.04736328,0.2539063,-0.1606445
3287,26.375,63.4375,126.5,-0.4521484,-1.541016,0.3134766,0.05810547,0.2524414,-0.1616211
3291,32,62.5625,143.8125,-0.4672852,-1.645996,0.2944336,0.06982422,0.2485352,-0.1616211
3295,36.25,62.9375,162.9375,-0.4482422,-1.649902,0.2675781,0.08300781,0.2412109,-0.1660156
3299,36.125,65.125,181.5,-0.4013672,-1.68457,0.2636719,0.09960938,0.2338867,-0.1674805
3303,38.25,65.4375,198.875,-0.4365234,-1.766602,0.2519531,0.1118164,0.2299805,-0.1660156
3307,38.5625,62.5625,217.3125,-0.4790039,-1.80127,0.2133789,0.1308594,0.2172852,-0.1699219
3312,41.625,52.875,233.125,-0.5102539,-1.773926,0.1289063,0.1499023,0.2060547,-0.1699219
3316,47.1875,36.6875,242.8125,-0.5175781,-1.704102,0.05566406,0.1640625,0.1962891,-0.1728516
3320,54.0625,15.125,248.5625,-0.5292969,-1.657715,0.01708984,0.1821289,0.1787109,-0.1738281
3324,62.375,-0.6875,255.125,-0.4482422,-1.564453,0.01708984,0.199707,0.1601563,-0.1767578
3328,63.1875,-10.8125,255.75,-0.378418,-1.401367,0.04052734,0.2070313,0.1459961,-0.1806641
3332,63,-15.625,257.6875,-0.378418,-1.381836,0.07910156,0.2211914,0.1235352,-0.1875
3336,62.8125,-14.875,259.5625,-0.347168,-1.296387,0.09423828,0.2329102,0.1010742,-0.1918945
3340,54.5,-10,263.4375,-0.3432617,-1.1875,0.125,0.2392578,0.08642578,-0.1958008
3344,53.6875,-13.625,268.75,-0.4365234,-1.15625,0.04443359,0.25,0.06396484,-0.1972656
3348,56.125,-24.5,261.125,-0.4365234,-1.070801,0.04785156,0.2543945,0.03759766,-0.2026367
3352,61.5,-29.9375,254.25,-0.4208984,-1.055176,0.07128906,0.2592773,0.02148438,-0.2041016
3356,52.25,-27.4375,263.625,-0.3901367,-0.8881836,0.05957031,0.2626953,-0.001953125,-0.206543
3360,40.9375,-22.5625,265.25,-0.3823242,-0.8105469,0.07128906,0.2626953,-0.02832031,-0.2119141
3364,43.3125,-23.1875,256.8125,-0.4443359,-0.7368164,0.01708984,0.2651367,-0.04296875,-0.2148438
3368,35.4375,-29.8125,257.25,-0.4907227,-0.6552734,0.009765625,0.2617188,-0.06689453,-0.2148438
3372,32.4375,-36.0625,255.5625,-0.4404297,-0.5854492,0.05566406,0.2583008,-0.09179688,-0.21875
3376,37.4375,-33.25,239.5625,-0.3901367,-0.565918,0.1674805,0.2558594,-0.1083984,-0.2216797
3380,27.8125,-21.25,246,-0.4326172,-0.5268555,0.1713867,0.2485352,-0.1308594,-0.2246094
3384,14.5,-12.6875,260,-0.4052734,-0.484375,0.2172852,0.2426758,-0.1518555,-0.2246094
3388,5.4375,0.8125,271.875,-0.4169922,-0.4921875,0.2402344,0.2368164,-0.1655273,-0.2255859
3392,-4.8125,6.875,283.1875,-0.4326172,-0.2861328,0.2519531,0.2270508,-0.1870117,-0.2231445
3396,-10.75,9.5625,283.875,-0.4091797,-0.2626953,0.2329102,0.2138672,-0.2045898,-0.2255859
3400,-10.125,5.75,290.3125,-0.3862305,-0.2241211,0.2250977,0.2045898,-0.2192383,-0.2246094
3404,-6.9375,-6.375,298.8125,-0.2583008,-0.06054688,0.2021484,0.1914063,-0.2358398,-0.2255859
3408,0.9375,-22,285.125,-0.04101563,0.1640625,0.1328125,0.1738281,-0.2529297,-0.2270508
3412,10.75,-48.125,262.6875,0.2104492,0.4711914,0.1328125,0.1591797,-0.2641602,-0.2270508
3416,20.8125,-64.0625,227.25,0.5629883,0.7392578,0.1748047,0.1425781,-0.2783203,-0.2285156
3420,23.375,-63.5625,186.625,0.9736328,1.049805,0.2636719,0.1210938,-0.2880859,-0.2299805
3424,17.875,-38.3125,143.125,1.299316,1.306641,0.3789063,0.1103516,-0.2929688,-0.2285156
3428,-0.5625,0.8125,99.0625,1.337891,1.500488,0.3710938,0.09960938,-0.3007813,-0.2299805
3432,-10.1875,17.75,39.1875,1.082031,1.43457,0.2905273,0.09277344,-0.3007813,-0.2299805
3436,6.5,3.8125,-41.0625,0.7602539,1.302734,0.2402344,0.09375,-0.3017578,-0.2285156
3441,20.625,-7.375,-111.1875,0.6054688,1.131836,0.2905273,0.09863281,-0.3007813,-0.2299805
3445,19.375,-5.625,-150.9375,0.3886719,0.9375,0.3330078,0.1069336,-0.2983398,-0.2285156
3449,12.4375,1.8125,-164.5625,0.159668,0.6616211,0.3330078,0.1152344,-0.2944336,-0.2285156
3453,8.5625,3.125,-163.375,-0.09521484,0.5449219,0.2675781,0.1259766,-0.2880859,-0.2270508
3457,5.1875,-10.4375,-165.625,-0.2231445,0.5800781,0.2172852,0.1391602,-0.2807617,-0.2246094
3461,6.1875,-24.625,-182.1875,-0.2387695,0.5952148,0.2558594,0.1450195,-0.2768555,-0.2255859
3465,8.875,-29.9375,-208.5625,-0.1962891,0.5566406,0.3481445,0.1582031,-0.2705078,-0.2270508
3469,10.5,-21.6875,-230.6875,-0.1499023,0.4243164,0.4404297,0.1674805,-0.2568359,-0.2270508
3473,4.75,-2.6875,-233,-0.1728516,0.2768555,0.4326172,0.1782227,-0.2470703,-0.2270508
3477,-10.0625,19.5,-219.9375,-0.2700195,0.1176758,0.4135742,0.1904297,-0.234375,-0.2285156
3481,-22.3125,28.625,-196.875,-0.4711914,0.03222656,0.2636719,0.2045898,-0.2207031,-0.2270508
3485,-34.375,18.5,-186.5625,-0.5952148,0.06689453,0.2094727,0.2104492,-0.2094727,-0.2255859
3489,-22.9375,1.625,-197.875,-0.5913086,-0.07226563,0.1904297,0.21875,-0.1933594,-0.2255859
3493,-8.0625,-11.875,-224.75,-0.5488281,0.02050781,0.2675781,0.2270508,-0.1782227,-0.2270508
3497,-4.4375,-15.8125,-237.3125,-0.5449219,-0.1616211,0.2368164,0.2329102,-0.1655273,-0.2299805
3501,-13.5,-20.875,-217.5,-0.5913086,-0.1928711,0.1748047,0.2392578,-0.1494141,-0.2285156
3505,-39.625,-25.1875,-189.5625,-0.5683594,-0.1928711,0.159668,0.2412109,-0.1308594,-0.230957
3509,-62.0625,-22.625,-165.9375,-0.4555664,-0.1655273,0.1674805,0.2436523,-0.1196289,-0.2353516
3513,-85.5625,-9.25,-170.625,-0.3354492,-0.1499023,0.3056641,0.2460938,-0.1030273,-0.2353516
3517,-62.5,14.0625,-211.4375,-0.362793,-0.6123047,0.4135742,0.2475586,-0.08203125,-0.2368164
3521,-38.6875,22.625,-239.5625,-0.5795898,-0.5776367,0.2441406,0.2475586,-0.06835938,-0.2353516
3525,-48.625,12.0625,-231.25,-0.8125,-0.7792969,0.140625,0.2485352,-0.04589844,-0.230957
3529,-54.1875,-14.4375,-194.125,-0.8510742,-0.9350586,0.06738281,0.25,-0.02441406,-0.2299805
3533,-66.5625,-24.25,-170.4375,-0.5795898,-0.6669922,0.2060547,0.2475586,-0.01171875,-0.2324219
3537,-87.1875,-5.6875,-166.0625,-0.3862305,-0.6435547,0.2480469,0.2412109,0.004882813,-0.2324219
3541,-84.75,15.3125,-192.3125,-0.347168,-0.7680664,0.3330078,0.2392578,0.02490234,-0.230957
3545,-50.5,25.6875,-246.4375,-0.5292969,-1.074707,0.2636719,0.2353516,0.03857422,-0.2246094
3549,-37.9375,11.125,-242.875,-0.8046875,-1.350586,0.1557617,0.2294922,0.06103516,-0.2246094
3553,-54.125,-13.6875,-192.25,-0.9130859,-1.362305,0.144043,0.2236328,0.07861328,-0.2231445
3557,-64.0625,-27.625,-155.9375,-0.6650391,-1.183594,0.1904297,0.21875,0.09130859,-0.2202148
3561,-74.3125,-18.5625,-145.6875,-0.3862305,-0.9233398,0.2558594,0.2094727,0.1049805,-0.21875
3565,-88.75,11.5625,-154.9375,-0.2348633,-0.9116211,0.3291016,0.203125,0.1186523,-0.2163086
3570,-83,34.125,-174.8125,-0.3393555,-1.040039,0.2519531,0.1972656,0.1298828,-0.2109375
3574,-76.5625,29.875,-189.0625,-0.4443359,-1.102051,0.1479492,0.1889648,0.1459961,-0.2041016
3578,-61.625,11,-189.8125,-0.5292969,-1.327148,0.06738281,0.1796875,0.1625977,-0.1987305
3582,-55.8125,-22.3125,-174.3125,-0.5605469,-1.226563,0.04052734,0.1723633,0.1713867,-0.1958008
3586,-54.375,-45.9375,-171.6875,-0.3666992,-1.129395,0.04785156,0.1591797,0.1850586,-0.1943359
3590,-55.5,-60,-177.5625,-0.2543945,-1.078613,0.02880859,0.144043,0.1962891,-0.1904297
3594,-59.375,-68.4375,-183.4375,-0.1499023,-1.121582,0.05566406,0.1357422,0.2036133,-0.1889648
3598,-60.875,-70.875,-192,-0.08007813,-1.164063,0.09814453,0.1152344,0.2148438,-0.1865234
3602,-62.9375,-72.75,-197.625,0.01660156,-1.315918,0.1787109,0.09863281,0.2250977,-0.1835938
3606,-63.3125,-65.875,-193.4375,0.06298828,-1.408691,0.2597656,0.08544922,0.2324219,-0.1806641
3610,-62.75,-58.75,-187.1875,0.06689453,-1.486816,0.3095703,0.06640625,0.2426758,-0.175293
3614,-57.625,-46.375,-181.6875,0.05908203,-1.556641,0.3442383,0.04882813,0.25,-0.1713867
3618,-58.4375,-30.4375,-175.1875,-0.02197266,-1.475098,0.2983398,0.03564453,0.2539063,-0.1674805
3622,-65.6875,-20.375,-174.3125,-0.1030273,-1.459473,0.2211914,0.02001953,0.2597656,-0.1630859
3626,-55.8125,-10,-169.8125,-0.1923828,-1.739258,0.3671875,0.004394531,0.2636719,-0.1538086
3630,-36.75,-5.125,-143.75,-0.3432617,-1.925781,0.5942383,-0.005859375,0.2661133,-0.1538086
3634,-23.0625,9.8125,-94.125,-0.362793,-1.910156,0.7675781,-0.01757813,0.2700195,-0.1494141
3638,-22,30.75,-38.9375,-0.5371094,-1.770508,0.8095703,-0.02099609,0.2700195,-0.1469727
3642,-20.4375,43.6875,8.9375,-0.6572266,-1.789551,0.8173828,-0.0234375,0.2709961,-0.1455078
3646,-5,43.0625,48.5,-0.7075195,-1.855957,0.7446289,-0.01855469,0.2724609,-0.1425781
3650,19.75,42.375,78.0625,-0.5371094,-1.797363,0.659668,-0.01171875,0.2709961,-0.1455078
3654,33.875,51.6875,101.4375,-0.3901367,-1.67334,0.5483398,-0.004394531,0.2700195,-0.1455078
3658,31,68.0625,131.0625,-0.3046875,-1.622559,0.4326172,0.004394531,0.2675781,-0.1508789
3662,20.9375,85.625,165.75,-0.2929688,-1.653809,0.3291016,0.01904297,0.2636719,-0.1523438
3666,12.5625,93.625,195.6875,-0.3432617,-1.692383,0.2519531,0.03320313,0.2612305,-0.1538086
3670,21.8125,87.5625,210.3125,-0.3974609,-1.754883,0.1904297,0.0546875,0.2548828,-0.1538086
3674,31.4375,71.9375,221.6875,-0.4013672,-1.777832,0.1518555,0.07617188,0.2485352,-0.15625
3678,45.1875,51.5625,229.625,-0.362793,-1.83252,0.1328125,0.09130859,0.2426758,-0.1577148
3682,56.125,36.5625,238.5625,-0.3320313,-1.797363,0.1289063,0.1118164,0.2314453,-0.1616211
3686,58.8125,31.25,252.125,-0.2700195,-1.773926,0.144043,0.1333008,0.21875,-0.1645508
3690,57.4375,29.625,265.625,-0.2734375,-1.719727,0.1674805,0.1459961,0.2099609,-0.168457
3694,54.875,25.75,273.9375,-0.3354492,-1.67334,0.1518555,0.1674805,0.1923828,-0.1713867
3699,58.5625,14.75,280.4375,-0.3935547,-1.599121,0.1020508,0.1865234,0.1713867,-0.175293
3703,65.375,-3.375,278.1875,-0.4013672,-1.513672,0.1020508,0.1972656,0.1586914,-0.175293
3707,77.6875,-17.125,271.1875,-0.347168,-1.401367,0.1132813,0.2177734,0.1337891,-0.1850586
3711,85.875,-25.8125,267.1875,-0.3393555,-1.280762,0.1132813,0.2260742,0.1123047,-0.1918945
3715,84.6875,-23.3125,267.1875,-0.2504883,-1.222656,0.1943359,0.234375,0.09619141,-0.1958008
3719,74.6875,-7.25,271.6875,-0.262207,-1.121582,0.1982422,0.2426758,0.07128906,-0.2011719
3723,66.6875,2.0625,276.375,-0.2890625,-1.062988,0.1787109,0.2519531,0.04394531,-0.206543
3727,65.0625,2.5,272.625,-0.4052734,-0.9619141,0.07910156,0.2568359,0.02734375,-0.2041016
3731,65.875,-10.25,266.6875,-0.4829102,-0.9467773,0.03271484,0.2617188,0.001464844,-0.2055664
3735,73.0625,-29.375,261.4375,-0.5141602,-0.8881836,-0.01318359,0.2641602,-0.02587891,-0.2119141
3739,77.1875,-41.125,255.4375,-0.362793,-0.7250977,0.05957031,0.2651367,-0.04199219,-0.2109375
3743,70.75,-28.9375,252.4375,-0.230957,-0.6318359,0.1635742,0.2617188,-0.06835938,-0.2148438
3747,59.6875,-10.6875,256.4375,-0.2700195,-0.5307617,0.1289063,0.2602539,-0.09423828,-0.2163086
3751,55.25,-3.3125,249.3125,-0.3823242,-0.5,0.1098633,0.2592773,-0.1118164,-0.2177734
3755,49.75,-5.4375,245.6875,-0.4711914,-0.371582,0.07519531,0.2519531,-0.1342773,-0.2177734
3759,51.375,-10,237.8125,-0.4907227,-0.3911133,0.05566406,0.2451172,-0.1567383,-0.2163086
3763,46.8125,-18.6875,236.0625,-0.5952148,-0.2900391,0.04443359,0.2402344,-0.171875,-0.2163086
3767,38,-22.625,247,-0.4946289,-0.2978516,0.105957,0.2285156,-0.1943359,-0.2177734
3771,24.9375,-7.4375,257.5625,-0.3510742,-0.1381836,0.1982422,0.2177734,-0.2128906,-0.2177734
3775,5.125,12.8125,270.3125,-0.3203125,0.01269531,0.1904297,0.2080078,-0.2255859,-0.2148438
3779,-5.875,19.4375,270.5,-0.3354492,0.09814453,0.09814453,0.1948242,-0.2456055,-0.2163086
3783,-8.875,8.25,258.5625,-0.3549805,0.2299805,-0.001464844,0.1806641,-0.2607422,-0.2148438
3787,-11.75,-22,252.4375,-0.3164063,0.2885742,-0.06298828,0.1674805,-0.2680664,-0.2163086
3791,-16.25,-59,245.25,-0.09912109,0.4438477,-0.07080078,0.1499023,-0.2817383,-0.21875
3795,-20.625,-93.8125,233,0.159668,0.5644531,-0.001464844,0.1269531,-0.2919922,-0.2231445
3799,-15,-113.4375,205.1875,0.5161133,0.6264648,0.2094727,0.112793,-0.2983398,-0.2246094
3803,-4.5,-106.8125,166.75,0.8110352,0.8632813,0.3637695,0.09277344,-0.3017578,-0.2299805
3807,-10.625,-85.6875,127.5625,1.000488,1.108398,0.4633789,0.07373047,-0.3056641,-0.2324219
3811,-15.5625,-55,76.8125,1.070313,1.205566,0.5058594,0.06640625,-0.3056641,-0.2353516
3815,-11.6875,-27.375,15.625,1.035645,1.240234,0.4750977,0.05712891,-0.3056641,-0.2368164
3819,-8.375,-9.9375,-44.375,0.8881836,1.232422,0.4135742,0.05712891,-0.3056641,-0.2368164
3823,-1.9375,3.6875,-98.0625,0.7641602,1.081055,0.3789063,0.05810547,-0.3041992,-0.2368164
3828,-4.5,18.5,-139.625,0.5898438,1.038574,0.375,0.06787109,-0.3017578,-0.2368164
3832,-8.375,30.5,-173.4375,0.3959961,0.8481445,0.3520508,0.08056641,-0.2983398,-0.237793
3836,-6.6875,39.375,-200.625,0.1948242,0.6616211,0.3520508,0.09130859,-0.2954102,-0.237793
3840,-3.375,44.4375,-214.0625,-0.01416016,0.4829102,0.2983398,0.1079102,-0.2880859,-0.2368164
3844,-3.8125,39.1875,-216.125,-0.1884766,0.4052734,0.2211914,0.128418,-0.2783203,-0.2324219
3848,-6.375,28.8125,-219.5,-0.2851563,0.4165039,0.2172852,0.1376953,-0.2729492,-0.2353516
3852,-10.4375,24.625,-231.375,-0.3510742,0.2924805,0.2749023,0.1533203,-0.2617188,-0.2353516
3856,-7.75,24.1875,-228,-0.4790039,0.09033203,0.2290039,0.1699219,-0.2495117,-0.2324219
3860,-14.5625,10.875,-209.5,-0.5991211,0.1137695,0.1132813,0.1796875,-0.2382813,-0.2324219
3864,-29.8125,-6.5625,-194,-0.5722656,0.1875,0.125,0.1904297,-0.2246094,-0.2338867
3868,-44.375,-10.25,-186.25,-0.4829102,0.1367188,0.2172852,0.2011719,-0.2104492,-0.2368164
3872,-55.5,-2.75,-187.625,-0.4985352,0.06689453,0.3364258,0.2045898,-0.2006836,-0.237793
3876,-49.875,7.625,-198.625,-0.5756836,-0.2241211,0.3291016,0.2128906,-0.1845703,-0.2392578
3880,-38.1875,4.125,-205.3125,-0.7114258,-0.2241211,0.2905273,0.2202148,-0.1645508,-0.2392578
3884,-41.1875,-5.3125,-204,-0.7114258,-0.2431641,0.2441406,0.2246094,-0.1557617,-0.2407227
3888,-43.9375,-12.9375,-199.6875,-0.6494141,-0.2392578,0.2402344,0.2294922,-0.1367188,-0.2446289
3892,-53.125,-15.1875,-197.5625,-0.5795898,-0.2470703,0.2749023,0.2329102,-0.1166992,-0.2436523
3896,-59.8125,-9.4375,-202.5625,-0.5214844,-0.340332,0.3598633,0.234375,-0.1069336,-0.2460938
3900,-61.0625,3.3125,-207.0625,-0.5834961,-0.6005859,0.3789063,0.2353516,-0.08544922,-0.2475586
3904,-60.25,7.3125,-199.8125,-0.6962891,-0.8574219,0.3017578,0.2392578,-0.06591797,-0.2475586
3908,-62.125,6.375,-188.5,-0.6533203,-0.6860352,0.340332,0.237793,-0.05322266,-0.2460938
3912,-69.6875,11.125,-177.4375,-0.5834961,-0.6396484,0.3291016,0.2392578,-0.03466797,-0.2446289
3916,-75.875,23.25,-182.375,-0.5214844,-0.7133789,0.3979492,0.237793,-0.01464844,-0.2446289
3920,-73.5625,38.375,-184.125,-0.5488281,-0.7832031,0.3637695,0.2353516,-0.003417969,-0.237793
3924,-68.625,40.0625,-191,-0.6416016,-0.9155273,0.2827148,0.2368164,0.01611328,-0.2353516
3928,-53.75,26.75,-192.9375,-0.715332,-0.9428711,0.1748047,0.2353516,0.03515625,-0.230957
3932,-47.25,2.1875,-192.9375,-0.6611328,-0.7719727,0.08642578,0.2319336,0.04736328,-0.2285156
3936,-51.375,-17.9375,-196.25,-0.4907227,-0.6787109,0.07519531,0.2246094,0.06494141,-0.2246094
3940,-56.625,-27.375,-212.9375,-0.3393555,-0.7055664,0.1787109,0.2177734,0.08105469,-0.2255859
3944,-54.1875,-18.875,-232.375,-0.1962891,-0.9428711,0.3095703,0.2104492,0.09521484,-0.2255859
3948,-64.375,4.8125,-230.125,-0.1303711,-1.000977,0.3671875,0.199707,0.1123047,-0.2231445
3952,-82.5625,30,-217.0625,-0.1533203,-1.167969,0.3520508,0.1865234,0.1323242,-0.2177734
3957,-85.4375,41.25,-192.375,-0.2851563,-1.334961,0.2211914,0.1821289,0.1450195,-0.2133789
3961,-84.5625,24.75,-178.0625,-0.4169922,-1.265137,0.08251953,0.1757813,0.1611328,-0.2041016
3965,-75.5625,-3.9375,-182.8125,-0.3588867,-1.203125,0.005859375,0.1640625,0.1762695,-0.1972656
3969,-61,-31.875,-201.375,-0.2387695,-1.164063,-0.01660156,0.1547852,0.1850586,-0.1958008
3973,-53.75,-45.5,-219.25,-0.09912109,-1.129395,0.01367188,0.1376953,0.1987305,-0.1918945
3977,-59,-50,-228.1875,0.004882813,-1.222656,0.06738281,0.1201172,0.2124023,-0.1889648
3981,-66.75,-47.125,-222.1875,0.01269531,-1.362305,0.125,0.105957,0.21875,-0.1875
3985,-68.8125,-50.125,-210.0625,-0.06445313,-1.498535,0.1289063,0.08886719,0.2314453,-0.1806641
3989,-62.75,-63.3125,-209.9375,-0.1069336,-1.614746,0.1787109,0.06884766,0.2412109,-0.1738281
3993,-52,-74.1875,-208.8125,-0.07226563,-1.61084,0.2480469,0.05322266,0.2475586,-0.1728516
3997,-48.3125,-75.8125,-206.125,-0.07226563,-1.564453,0.2866211,0.03320313,0.2539063,-0.168457
4001,-43.5625,-68.0625,-195.25,-0.03320313,-1.766602,0.3710938,0.01269531,0.2573242,-0.1660156
4005,-33.125,-49.1875,-150.8125,-0.2001953,-1.848145,0.4213867,-0.0009765625,0.262207,-0.1630859
4009,-35.0625,-53.875,-103.625,-0.4672852,-1.708008,0.4174805,-0.01513672,0.2651367,-0.1606445
4013,-26.25,-60.4375,-69.6875,-0.347168,-1.735352,0.6020508,-0.0234375,0.2651367,-0.1538086
4017,-12.875,-44.25,-41.1875,-0.1845703,-1.653809,0.8022461,-0.03173828,0.2661133,-0.1538086
4021,-6.4375,-18,-22.375,-0.1806641,-1.509766,0.875,-0.03417969,0.2675781,-0.1508789
4025,-4.9375,8.1875,-5.125,-0.1767578,-1.533203,0.9057617,-0.03417969,0.2675781,-0.1538086
4029,2.8125,32.75,19.5,-0.230957,-1.599121,0.8408203,-0.03662109,0.2675781,-0.1538086
4033,7.3125,49.0625,47.5,-0.2734375,-1.548828,0.7021484,-0.03173828,0.2685547,-0.1538086
4037,10.375,62.25,69.25,-0.2929688,-1.475098,0.5175781,-0.02490234,0.2675781,-0.1538086
4041,14.5,66.4375,85.8125,-0.3203125,-1.517578,0.3979492,-0.01757813,0.2661133,-0.15625
4045,22.75,65.3125,102.3125,-0.3203125,-1.564453,0.3134766,-0.0078125,0.2651367,-0.15625
4049,28.125,66,120.3125,-0.2773438,-1.595215,0.3134766,0.003417969,0.262207,-0.1591797
4053,33.375,71.75,141.375,-0.2583008,-1.681152,0.3291016,0.01416016,0.2612305,-0.1616211
4057,34.9375,77.375,166.5625,-0.246582,-1.727539,0.340332,0.02832031,0.2573242,-0.1645508
4061,36.9375,84.3125,190.5,-0.2119141,-1.758789,0.340332,0.04980469,0.2524414,-0.168457
4065,35.6875,90.75,211.6875,-0.2192383,-1.719727,0.2944336,0.06152344,0.2475586,-0.1674805
4069,31.5,93,231.1875,-0.2192383,-1.731445,0.2368164,0.08300781,0.2412109,-0.1699219
4073,29.375,88.125,244,-0.2348633,-1.743164,0.1943359,0.105957,0.2275391,-0.168457
4077,36.25,80.4375,252.4375,-0.2387695,-1.840332,0.1518555,0.1225586,0.2211914,-0.1713867
4081,39.875,69.25,270.5,-0.296875,-1.785645,0.08251953,0.1450195,0.2084961,-0.1728516
4086,38.625,49.75,284.9375,-0.347168,-1.711914,0.02880859,0.1689453,0.1914063,-0.1738281
4090,48.9375,22.875,286.5625,-0.4013672,-1.64209,-0.001464844,0.1831055,0.1801758,-0.1738281
4094,59.5625,-2.0625,285,-0.3510742,-1.595215,0.02099609,0.2011719,0.1586914,-0.1767578
4098,63.625,-10.5,284.375,-0.2387695,-1.479004,0.1210938,0.21875,0.1362305,-0.1821289
4102,65.4375,-1.8125,284.0625,-0.2231445,-1.455566,0.140625,0.2260742,0.1186523,-0.1850586
4106,62.1875,1.875,293.125,-0.3164063,-1.319336,0.105957,0.2392578,0.09619141,-0.1889648
4110,52.625,2.6875,297.5625,-0.3203125,-1.175781,0.125,0.2509766,0.06884766,-0.1928711
4114,52.75,1.8125,292.25,-0.3164063,-1.15625,0.1787109,0.2568359,0.04980469,-0.1928711
4118,54.8125,1.375,287.625,-0.4404297,-1.094238,0.1098633,0.2651367,0.02148438,-0.1958008
4122,58.625,-13.125,291.375,-0.5063477,-1.086426,0.01708984,0.2675781,-0.003417969,-0.1972656
4126,65.375,-26,280.1875,-0.4946289,-0.9233398,0.04785156,0.2709961,-0.0234375,-0.1987305
4130,70.25,-41.4375,275.1875,-0.5371094,-0.9038086,-0.01318359,0.2724609,-0.05322266,-0.2011719
4134,68.3125,-49.375,280.1875,-0.4907227,-0.8417969,-0.009277344,0.2675781,-0.07958984,-0.2055664
4138,66.5625,-64.9375,290.4375,-0.4985352,-0.6860352,-0.1166992,0.2641602,-0.09814453,-0.2109375
4142,71.4375,-88.0625,281.5625,-0.3974609,-0.5073242,-0.1552734,0.2558594,-0.1269531,-0.2148438
4146,78.125,-102.75,261.4375,-0.296875,-0.3520508,-0.07080078,0.2426758,-0.1542969,-0.2202148
4150,82.9375,-107.6875,236.9375,-0.2661133,-0.2822266,0.009765625,0.234375,-0.171875,-0.2255859
4154,82.0625,-103.1875,221,-0.2734375,-0.2861328,0.09423828,0.2177734,-0.1933594,-0.2299805
4158,75.4375,-89.125,225.9375,-0.2270508,-0.3134766,0.1748047,0.203125,-0.2128906,-0.2338867
4162,70.5625,-68.8125,237.3125,-0.1650391,-0.2783203,0.1826172,0.1914063,-0.2270508,-0.2353516
4166,57.4375,-53.3125,250,-0.1342773,0.02832031,0.1098633,0.1738281,-0.2456055,-0.2324219
4170,42.8125,-45.5625,248.125,-0.05273438,0.2573242,0.09814453,0.1547852,-0.2631836,-0.2324219
4174,41.75,-33.5625,226.8125,0.09375,0.3271484,0.1826172,0.1401367,-0.2719727,-0.2324219
4178,46.4375,-24.375,204.75,0.1367188,0.5019531,0.1904297,0.125,-0.2841797,-0.2299805
4182,44.0625,-22,190.75,0.2451172,0.5488281,0.1557617,0.1069336,-0.2983398,-0.2270508
4186,35.4375,-17.375,185.4375,0.4775391,0.7314453,0.2094727,0.09863281,-0.3032227,-0.2255859
4190,14.125,0.0625,181.6875,0.690918,0.972168,0.2211914,0.08300781,-0.3095703,-0.2231445
4194,-8.1875,15.125,163.5,0.7797852,1.174316,0.2060547,0.07128906,-0.3129883,-0.2231445
4198,-13.9375,18.0625,118.625,0.8261719,1.317871,0.1787109,0.06542969,-0.3178711,-0.2231445
4202,-8.3125,10.6875,51.5,0.8032227,1.442383,0.1557617,0.05566406,-0.3193359,-0.2246094
4206,-4.4375,-1.125,-16.5,0.7490234,1.415039,0.1826172,0.0546875,-0.3178711,-0.2246094
4210,-3.1875,-8.625,-74.6875,0.6635742,1.263672,0.2597656,0.05566406,-0.3168945,-0.2246094
4215,-6.0625,-5.875,-117.8125,0.5395508,1.081055,0.3710938,0.06298828,-0.3154297,-0.2255859
4219,-12.25,10.9375,-143.9375,0.4038086,0.8984375,0.5136719,0.07373047,-0.3120117,-0.2255859
4223,-20.4375,39.375,-156.1875,0.2646484,0.7119141,0.5483398,0.08056641,-0.3081055,-0.2270508
4227,-25.625,59.5,-158.6875,0.07080078,0.5991211,0.4326172,0.09619141,-0.3032227,-0.2270508
4231,-27.4375,61.5,-167.8125,-0.09912109,0.6069336,0.3251953,0.112793,-0.2944336,-0.2285156
4235,-21.625,52.0625,-188.875,-0.1845703,0.5214844,0.2519531,0.1235352,-0.2895508,-0.2270508
4239,-11.4375,38.875,-206.4375,-0.2231445,0.4516602,0.2211914,0.1391602,-0.2792969,-0.2270508
4243,-10.4375,30.6875,-214.8125,-0.2192383,0.3701172,0.2519531,0.1567383,-0.2680664,-0.2270508
4247,-20.3125,30.1875,-212.9375,-0.2734375,0.284668,0.2788086,0.1689453,-0.2607422,-0.2246094
4251,-29.8125,31.25,-208.125,-0.3666992,0.1523438,0.2675781,0.1821289,-0.2480469,-0.2255859
4255,-29.5625,26.3125,-202,-0.4521484,0.04736328,0.1904297,0.1948242,-0.2319336,-0.2246094
4259,-30.25,10.375,-198.5,-0.4946289,0.1333008,0.09423828,0.2021484,-0.2231445,-0.2255859
4263,-34.8125,-8.3125,-208,-0.4521484,0.1523438,0.1098633,0.2128906,-0.2070313,-0.2270508
4267,-32.625,-15.6875,-226.3125,-0.3862305,0.06689453,0.2021484,0.2211914,-0.1879883,-0.2285156
4271,-34.8125,-15.125,-241.25,-0.4287109,-0.09179688,0.2480469,0.2270508,-0.1767578,-0.2299805
4275,-30.9375,-10.875,-246.875,-0.4208984,-0.340332,0.2636719,0.234375,-0.1557617,-0.230957
4279,-31.3125,-8.1875,-235.625,-0.4555664,-0.2978516,0.2021484,0.2412109,-0.1357422,-0.2324219
4283,-50.9375,-7.375,-223.5,-0.4594727,-0.2314453,0.1787109,0.2426758,-0.1206055,-0.2324219
4287,-65.5,-12.5,-216.9375,-0.4711914,-0.3208008,0.1132813,0.2460938,-0.1005859,-0.2368164
4291,-70.6875,-18.75,-230.75,-0.4633789,-0.4609375,0.2329102,0.2485352,-0.07568359,-0.2368164
4295,-64.125,-15.3125,-253.875,-0.4208984,-0.5893555,0.4057617,0.2475586,-0.06298828,-0.2353516
4299,-45.5625,0.0625,-259.0625,-0.5141602,-1.062988,0.4326172,0.2475586,-0.03710938,-0.237793
4303,-61.75,18.625,-227.75,-0.6611328,-1.090332,0.4135742,0.2451172,-0.01464844,-0.2368164
4307,-88,30.875,-173.625,-0.730957,-1.055176,0.2905273,0.2436523,-0.001953125,-0.2353516
4311,-106.1875,31.0625,-149.4375,-0.7192383,-0.9506836,0.2094727,0.2426758,0.01757813,-0.2299805
4315,-88.9375,16.4375,-159.75,-0.7231445,-1.016602,0.1557617,0.2402344,0.03613281,-0.2246094
4319,-41.25,-15.6875,-211,-0.7426758,-1.043945,0.1289063,0.2392578,0.04882813,-0.2216797
4323,-15.875,-40.3125,-241.1875,-0.6147461,-0.9233398,0.2060547,0.2294922,0.06640625,-0.2231445
4327,-32.8125,-34.75,-229.25,-0.4287109,-1.055176,0.3251953,0.2177734,0.08642578,-0.2231445
4331,-65.75,-7.875,-182.0625,-0.4169922,-1.08252,0.3637695,0.2104492,0.09619141,-0.2216797
4335,-92.5625,9.5,-152.75,-0.4555664,-1.136719,0.2827148,0.203125,0.1137695,-0.21875
4339,-87,4.5625,-150.25,-0.5175781,-1.152344,0.1904297,0.1948242,0.1298828,-0.2109375
4344,-61.0625,-22.8125,-172,-0.5488281,-1.102051,0.09423828,0.1914063,0.1386719,-0.2109375
4348,-38.4375,-57.625,-191,-0.4404297,-1.08252,0.07910156,0.1806641,0.1523438,-0.2094727
4352,-26.8125,-83.0625,-198.4375,-0.2734375,-0.9853516,0.09423828,0.1630859,0.1689453,-0.2094727
4356,-37.3125,-90.5625,-197.4375,-0.05273438,-0.8647461,0.125,0.1508789,0.1748047,-0.2109375
4360,-63.375,-76.75,-193.125,0.1367188,-0.8647461,0.1557617,0.1342773,0.1860352,-0.2109375
4364,-82.75,-63.6875,-196.8125,0.140625,-0.9931641,0.140625,0.1152344,0.1987305,-0.2080078
4368,-82.5,-67.9375,-211.625,0.1015625,-1.15625,0.09814453,0.105957,0.2075195,-0.2055664
4372,-71.25,-84,-227,0.1484375,-1.354492,0.140625,0.08300781,0.2197266,-0.2011719
4376,-58.4375,-98.125,-233.875,0.2104492,-1.428223,0.1748047,0.06298828,0.2299805,-0.1958008
4380,-53.875,-103.375,-229.3125,0.2954102,-1.556641,0.2749023,0.04638672,0.2348633,-0.1928711
4384,-56,-95.125,-214.0625,0.3071289,-1.603027,0.3520508,0.02246094,0.2412109,-0.1904297
4388,-59.5,-82.4375,-199,0.2607422,-1.657715,0.4135742,0,0.2475586,-0.1850586
4392,-55.8125,-60.375,-171.0625,0.2412109,-1.824707,0.5634766,-0.01416016,0.2524414,-0.1806641
4396,-54.25,-30.8125,-138.375,0.1210938,-1.727539,0.6210938,-0.02832031,0.2539063,-0.1728516
4400,-58.5625,-4.75,-108.375,0.01269531,-1.681152,0.6518555,-0.04150391,0.2573242,-0.1660156
4404,-56.125,15.25,-76.625,-0.1264648,-1.723633,0.6674805,-0.04736328,0.2563477,-0.1660156
4408,-45.8125,23.0625,-42.625,-0.2734375,-1.700195,0.6865234,-0.05224609,0.2612305,-0.1606445
4412,-33.1875,16.4375,-14.125,-0.3588867,-1.622559,0.7597656,-0.05322266,0.262207,-0.1577148
4416,-18,14.0625,3.9375,-0.2773438,-1.548828,0.8520508,-0.05322266,0.2636719,-0.1591797
4420,-2.875,24.1875,18.625,-0.1689453,-1.548828,0.9174805,-0.05078125,0.2651367,-0.15625
4424,8.8125,42.25,35.375,-0.09521484,-1.498535,0.8173828,-0.04736328,0.2651367,-0.1547852
4428,11.9375,64.1875,51.3125,-0.09130859,-1.408691,0.6557617,-0.04394531,0.2651367,-0.1577148
4432,6,84.375,72.6875,-0.1303711,-1.439941,0.5058594,-0.03662109,0.2636719,-0.1591797
4436,3.4375,96.1875,98.625,-0.2231445,-1.556641,0.3481445,-0.0234375,0.262207,-0.1606445
4440,9.125,91.9375,123.4375,-0.3242188,-1.64209,0.2250977,-0.01757813,0.262207,-0.1606445
4444,20,78.75,144.75,-0.3203125,-1.67334,0.1904297,-0.0009765625,0.2597656,-0.1616211
4448,26.9375,67.1875,164.875,-0.2661133,-1.622559,0.1904297,0.01416016,0.2587891,-0.1645508
4452,30.375,58.9375,180.375,-0.1923828,-1.634277,0.2060547,0.02587891,0.2563477,-0.1660156
4456,38.6875,49.1875,192.5,-0.1147461,-1.677246,0.2329102,0.04394531,0.2524414,-0.1699219
4460,49.5625,45.625,198.6875,-0.06835938,-1.630371,0.2368164,0.06298828,0.2460938,-0.1738281
4464,49.125,48.125,216,-0.01025391,-1.599121,0.2905273,0.07470703,0.2397461,-0.175293
4468,38.6875,62.625,232.0625,0.02832031,-1.556641,0.3173828,0.09521484,0.2299805,-0.1806641
4473,31,75.9375,243.75,-0.04492188,-1.556641,0.3017578,0.1176758,0.21875,-0.1796875
4477,29.4375,77.75,251.1875,-0.1767578,-1.580078,0.2368164,0.1308594,0.2099609,-0.1806641
4481,33.9375,65.75,254.625,-0.2890625,-1.552734,0.1748047,0.1533203,0.1948242,-0.1806641
4485,41.8125,50.375,256.375,-0.3320313,-1.560547,0.1674805,0.1738281,0.1801758,-0.1821289
4489,43.5,36.1875,267.5625,-0.3588867,-1.509766,0.1171875,0.1865234,0.1674805,-0.1835938
4493,46,22.125,279.375,-0.347168,-1.389648,0.08251953,0.2045898,0.1474609,-0.1850586
4497,47.625,10.9375,277.375,-0.3125,-1.22998,0.1020508,0.222168,0.1264648,-0.1875
4501,48.6875,2.4375,269.1875,-0.3085938,-1.129395,0.125,0.2294922,0.1123047,-0.1889648
4505,45,4.5,261.375,-0.2700195,-1.036133,0.1713867,0.2392578,0.08886719,-0.1904297
4509,47.75,6.1875,256.5625,-0.362793,-1.105957,0.140625,0.2509766,0.06494141,-0.1918945
4513,58.875,-4.125,254.1875,-0.4521484,-1.094238,0.09423828,0.2583008,0.04980469,-0.1928711
4517,56.8125,-13.0625,257,-0.4365234,-0.9116211,0.1132813,0.2641602,0.02490234,-0.1958008
4521,51.625,-12.1875,253.375,-0.3549805,-0.8300781,0.1865234,0.2675781,0.002441406,-0.1987305
4525,53.75,-7.75,241.375,-0.4365234,-0.7753906,0.1367188,0.269043,-0.015625,-0.199707
4529,52.125,-13.3125,238.0625,-0.4868164,-0.7172852,0.09033203,0.2709961,-0.03955078,-0.2026367
4533,48.25,-17,244.4375,-0.4633789,-0.6279297,0.05175781,0.2709961,-0.06298828,-0.2041016
4537,49.625,-28.4375,240.4375,-0.4946289,-0.5268555,0.005859375,0.269043,-0.078125,-0.206543
4541,58.4375,-47.75,222.5625,-0.5253906,-0.4492188,-0.009277344,0.2641602,-0.1044922,-0.2080078
4545,64.5,-60.6875,211.6875,-0.4404297,-0.340332,0.05175781,0.2592773,-0.1245117,-0.2109375
4549,57.6875,-55.8125,206.375,-0.3046875,-0.2900391,0.1865234,0.2519531,-0.1381836,-0.2148438
4553,54.0625,-35,203,-0.3007813,-0.2626953,0.2983398,0.2436523,-0.1591797,-0.2148438
4557,43.6875,-5.8125,201.125,-0.362793,-0.2392578,0.3979492,0.2368164,-0.1791992,-0.2177734
4561,30.3125,19.75,216.8125,-0.4711914,-0.2783203,0.3710938,0.2294922,-0.1918945,-0.2163086
4565,18.125,35,239.5,-0.5214844,-0.2353516,0.2827148,0.222168,-0.2080078,-0.2119141
4569,17.5,35.125,246.875,-0.6030273,-0.06835938,0.2060547,0.2138672,-0.2294922,-0.2094727
4573,16.6875,23.25,241.8125,-0.6455078,0.1098633,0.1328125,0.2070313,-0.2382813,-0.2094727
4577,13.9375,7.625,243.0625,-0.5292969,0.07861328,0.07128906,0.1948242,-0.2543945,-0.206543
4581,8.3125,-2.25,256.75,-0.3164063,0.2495117,0.06347656,0.1748047,-0.2705078,-0.2055664
4585,-2.125,-13.8125,263.125,-0.02587891,0.4282227,0.105957,0.1650391,-0.2807617,-0.2055664
4589,-1.6875,-24.75,238.4375,0.1635742,0.7856445,0.1713867,0.1459961,-0.2954102,-0.2080078
4593,8,-47.625,195.0625,0.2104492,0.9023438,0.1479492,0.1269531,-0.3032227,-0.2080078
4597,19.9375,-74.5,149.875,0.3808594,0.9375,0.2094727,0.1176758,-0.3095703,-0.2080078
4602,23.625,-78.5,113.875,0.6171875,1.022949,0.355957,0.1010742,-0.3144531,-0.206543
4606,14.25,-57,90.9375,0.7529297,1.135742,0.4213867,0.08886719,-0.3208008,-0.2094727
4610,1.8125,-23.625,63.6875,0.7641602,1.221191,0.4404297,0.07958984,-0.3208008,-0.2094727
4614,-3.8125,1.3125,24,0.574707,1.275391,0.2905273,0.07617188,-0.3232422,-0.2109375
4618,-3.0625,0,-30.375,0.3574219,1.259766,0.1635742,0.07617188,-0.3242188,-0.2109375
4622,3.6875,-12.0625,-85.9375,0.2490234,1.12793,0.1020508,0.07958984,-0.3208008,-0.2080078
4626,6.25,-22.1875,-123.5625,0.175293,0.9760742,0.1171875,0.08544922,-0.3208008,-0.2094727
4630,3.875,-30.8125,-148.375,0.1367188,0.855957,0.125,0.09521484,-0.3168945,-0.2119141
4634,3,-37.5,-163.3125,0.125,0.7587891,0.09814453,0.1020508,-0.3129883,-0.2109375
4638,-5.0625,-41,-174.3125,0.1518555,0.777832,0.09423828,0.112793,-0.3066406,-0.2148438
4642,-19.75,-37.3125,-190.25,0.1870117,0.7856445,0.125,0.125,-0.2983398,-0.2133789
4646,-28.0625,-27.6875,-215.625,0.175293,0.6147461,0.1674805,0.1318359,-0.2929688,-0.21875
4650,-29.625,-18.625,-240.75,0.08642578,0.5058594,0.1748047,0.1459961,-0.2792969,-0.2202148
4654,-32.5625,-14.6875,-258.9375,-0.006347656,0.300293,0.1865234,0.1616211,-0.265625,-0.2246094
4658,-37.4375,-10.625,-252.875,-0.1225586,0.06689453,0.1479492,0.1713867,-0.2558594,-0.2255859
4662,-58.0625,-6.125,-233.1875,-0.1962891,0.08251953,0.1982422,0.1855469,-0.2382813,-0.2285156
4666,-82.75,5.5625,-219.6875,-0.230957,0.02050781,0.2480469,0.1987305,-0.2182617,-0.2324219
4670,-89.875,18.0625,-226.25,-0.2773438,-0.1694336,0.3212891,0.2045898,-0.2045898,-0.2353516
4674,-63.6875,20.8125,-258.75,-0.4130859,-0.3442383,0.3056641,0.2177734,-0.1845703,-0.2353516
4678,-46.9375,3.9375,-279.625,-0.6494141,-0.3833008,0.1904297,0.2270508,-0.1606445,-0.2368164
4682,-56,-24.125,-264.4375,-0.8164063,-0.9155273,0.1171875,0.230957,-0.1445313,-0.2392578
4686,-69.25,-34.625,-226.625,-0.5756836,-0.6357422,0.2866211,0.2353516,-0.1206055,-0.2392578
4690,-109.8125,-5.1875,-185.3125,-0.3935547,-0.4067383,0.4672852,0.2353516,-0.09960938,-0.2436523
4694,-144.9375,38.125,-164.875,-0.3862305,-0.6435547,0.4672852,0.237793,-0.08300781,-0.2446289
4698,-105.625,48.8125,-195.0625,-0.5834961,-0.8378906,0.3979492,0.2412109,-0.06298828,-0.2407227
4702,-44.375,20.0625,-265.5,-0.8432617,-0.8339844,0.159668,0.2451172,-0.03808594,-0.2368164
4706,-28.9375,-31.1875,-264.375,-0.9750977,-0.9814453,0.07128906,0.2451172,-0.0234375,-0.2368164
4710,-44.875,-69.6875,-216.25,-0.765625,-0.8764648,0.1865234,0.2392578,-0.0004882813,-0.2407227
4714,-89,-49.375,-179,-0.2583008,-0.6162109,0.5483398,0.230957,0.01757813,-0.2421875
4718,-132.6875,18.5625,-155.6875,-0.1186523,-0.7832031,0.5712891,0.2260742,0.03125,-0.2421875
4722,-149.25,65.4375,-145.875,-0.3007813,-0.9389648,0.4057617,0.2246094,0.05273438,-0.2353516
4726,-126.625,67.75,-165.875,-0.5292969,-1.070801,0.1982422,0.222168,0.07373047,-0.2246094
4731,-90.6875,32.9375,-195.5,-0.715332,-1.164063,0.01367188,0.2236328,0.08398438,-0.21875
4735,-62.5625,-26.0625,-200,-0.8198242,-1.226563,-0.08203125,0.2163086,0.1064453,-0.2148438
4739,-60,-69.5,-187.875,-0.5214844,-1.094238,0.05957031,0.203125,0.1201172,-0.2133789
4743,-83,-61.25,-172,-0.2001953,-0.9580078,0.144043,0.1928711,0.1313477,-0.2133789
4747,-113.375,-36.25,-166.375,-0.1381836,-0.9658203,0.1518555,0.1821289,0.1474609,-0.2109375
4751,-112.25,-33.25,-186.75,-0.2504883,-1.214844,0.09033203,0.1699219,0.1635742,-0.206543
4755,-81.1875,-55.5,-218.3125,-0.3046875,-1.29248,0.05175781,0.1591797,0.1748047,-0.2041016
4759,-63.25,-85.25,-239.75,-0.1962891,-1.304199,0.07910156,0.1416016,0.1914063,-0.199707
4763,-64.125,-94.6875,-240.1875,0.05908203,-1.315918,0.1943359,0.1186523,0.2050781,-0.1972656
4767,-81.1875,-75.625,-230.5625,0.2255859,-1.308105,0.2905273,0.1035156,0.2138672,-0.1943359
4771,-96.875,-49,-223.875,0.2915039,-1.471191,0.3330078,0.08203125,0.2260742,-0.1904297
4775,-97.625,-31.3125,-217.875,0.1791992,-1.645996,0.355957,0.06298828,0.2373047,-0.1835938
4779,-84.1875,-20,-216.5,0.125,-1.828613,0.4018555,0.05224609,0.2475586,-0.1767578
4783,-71.375,0.4375,-200.375,0.06689453,-1.867188,0.4750977,0.03320313,0.2524414,-0.1713867
4787,-68.75,25,-173.1875,-0.05664063,-1.83252,0.4790039,0.01513672,0.2597656,-0.1616211
4791,-66.625,48.9375,-136.125,-0.2348633,-1.878906,0.4521484,0.008300781,0.2636719,-0.1591797
4795,-59.5,60.9375,-94.0625,-0.4633789,-1.878906,0.3867188,-0.001953125,0.2685547,-0.1523438
4799,-48.0625,55.1875,-55.9375,-0.6264648,-1.750977,0.3095703,-0.004394531,0.2700195,-0.1469727
4803,-31.3125,36.625,-29.0625,-0.6494141,-1.657715,0.2866211,-0.006835938,0.2709961,-0.144043
4807,-16.3125,15.75,-6.5625,-0.6030273,-1.552734,0.3442383,-0.0078125,0.2739258,-0.1425781
4811,-3.75,2.75,13.4375,-0.5024414,-1.525391,0.4174805,-0.006835938,0.2739258,-0.1416016
4815,6.6875,-1.25,31.125,-0.4013672,-1.521484,0.5288086,-0.006835938,0.2724609,-0.1401367
4819,16.25,6.8125,46.9375,-0.3203125,-1.443848,0.5673828,-0.001953125,0.2709961,-0.1416016
4823,23.125,20.3125,57.9375,-0.2890625,-1.471191,0.5444336,0.002441406,0.2709961,-0.1416016
4827,29.125,37.5625,79.125,-0.2929688,-1.556641,0.4829102,0.006835938,0.2685547,-0.144043
4831,31.25,50.5625,105.375,-0.3354492,-1.618652,0.4174805,0.01513672,0.2675781,-0.1469727
4835,36.3125,60.9375,130.875,-0.3666992,-1.696289,0.3867188,0.02734375,0.2636719,-0.1508789
4839,35.8125,68.75,159.125,-0.3862305,-1.657715,0.3291016,0.03662109,0.2636719,-0.1494141
4843,30.5,70,182.6875,-0.3901367,-1.711914,0.2866211,0.0546875,0.2548828,-0.1538086
4847,39.0625,65.75,199.875,-0.4091797,-1.777832,0.2480469,0.07373047,0.25,-0.15625
4851,44.5625,56.6875,219.1875,-0.3745117,-1.777832,0.2021484,0.08789063,0.2451172,-0.1591797
4855,47.125,50.75,237.0625,-0.3432617,-1.781738,0.1748047,0.1069336,0.2363281,-0.1616211
4860,46.625,46.875,252.9375,-0.3320313,-1.719727,0.1748047,0.1293945,0.2226563,-0.1645508
4864,48.1875,38.75,259.1875,-0.3666992,-1.71582,0.1171875,0.144043,0.2124023,-0.1674805
4868,55.75,27.125,265.0625,-0.3935547,-1.71582,0.09814453,0.1630859,0.1962891,-0.1713867
4872,58.4375,17.3125,270.125,-0.4169922,-1.638184,0.08251953,0.1831055,0.1772461,-0.1713867
4876,59.8125,2.3125,281.1875,-0.4790039,-1.587891,0.03271484,0.1962891,0.1635742,-0.1767578
4880,64.375,-10.625,282.75,-0.378418,-1.48291,0.08251953,0.2104492,0.1425781,-0.1821289
4884,70.8125,-12.875,277.8125,-0.3745117,-1.37793,0.07128906,0.2260742,0.1201172,-0.1850586
4888,72.125,-22.25,278.3125,-0.3974609,-1.249512,0.04052734,0.2319336,0.1035156,-0.1904297
4892,73.0625,-28,275,-0.347168,-1.183594,0.06738281,0.2436523,0.07617188,-0.1928711
4896,71.3125,-20.25,272.4375,-0.296875,-1.08252,0.140625,0.2519531,0.05273438,-0.2011719
4900,65.875,-12.9375,268.75,-0.3510742,-0.9853516,0.125,0.2543945,0.03369141,-0.2026367
4904,69,-13.875,266.1875,-0.4208984,-1.008789,0.05175781,0.2602539,0.008789063,-0.206543
4908,73.625,-25.25,263.5625,-0.4868164,-0.8842773,0.03662109,0.2651367,-0.01806641,-0.2109375
4912,69.625,-32.3125,263,-0.4521484,-0.8183594,0.07128906,0.2651367,-0.03564453,-0.2109375
4916,69.5,-35.75,260.5625,-0.4091797,-0.7602539,0.1132813,0.2617188,-0.06201172,-0.2163086
4920,70.5625,-34.75,252.125,-0.378418,-0.5737305,0.09814453,0.2592773,-0.08935547,-0.2163086
4924,64.75,-37.875,251.4375,-0.362793,-0.5229492,0.03662109,0.2543945,-0.1054688,-0.2216797
4928,62.4375,-37.5,247.0625,-0.2890625,-0.3364258,0.09814453,0.2509766,-0.1308594,-0.2216797
4932,49.6875,-25.1875,239.5,-0.2734375,-0.2431641,0.1557617,0.2402344,-0.1533203,-0.2246094
4936,31.625,-3.6875,241.3125,-0.215332,-0.1733398,0.2905273,0.234375,-0.1669922,-0.2255859
4940,12.4375,34.5625,238.6875,-0.2387695,-0.09179688,0.4365234,0.2270508,-0.1870117,-0.2231445
4944,-5.4375,76.5625,242,-0.3549805,-0.1035156,0.3173828,0.2202148,-0.2045898,-0.21875
4948,-22.6875,103.875,248.8125,-0.4985352,-0.1191406,0.2172852,0.2177734,-0.2158203,-0.2177734
4952,-22.5625,104.25,257.1875,-0.7270508,-0.1152344,0.01708984,0.2080078,-0.2319336,-0.2109375
4956,-23.6875,73.375,253.125,-0.8896484,0.04003906,-0.1206055,0.2011719,-0.2470703,-0.2041016
4960,-14.1875,8.9375,243.125,-0.9868164,-0.04150391,-0.1669922,0.1938477,-0.2583008,-0.2041016
4964,11.6875,-70.125,233.75,-0.8276367,-0.09570313,-0.1401367,0.1772461,-0.2719727,-0.2055664
4968,38.125,-137.5,232.5625,-0.3125,0.05517578,-0.07470703,0.1547852,-0.2841797,-0.2080078
4972,41.0625,-165.5,231.3125,0.3691406,0.4243164,0.07519531,0.1416016,-0.2944336,-0.2119141
4976,21.0625,-141.5,237.5,1.082031,0.8481445,0.3212891,0.1103516,-0.3056641,-0.2148438
4980,-15.5,-76.25,235.8125,1.504395,1.197754,0.4521484,0.08447266,-0.3144531,-0.21875
4984,-29.75,-10.3125,186.375,1.558594,1.489258,0.5175781,0.07128906,-0.3168945,-0.21875
4989,-28.5,36.125,99.5,1.341797,1.640625,0.3330078,0.05810547,-0.3193359,-0.21875
4993,-21.5625,36.625,12.125,0.8613281,1.418945,0.1132813,0.05566406,-0.3178711,-0.2231445
4997,-10.1875,5.625,-56.8125,0.5512695,1.186035,0.07519531,0.05566406,-0.3178711,-0.2231445
5001,-1.5625,-23.0625,-108.25,0.4155273,1.045898,0.2094727,0.06152344,-0.3168945,-0.2231445
5005,0.375,-28.6875,-146.375,0.3188477,0.8828125,0.3789063,0.07128906,-0.3129883,-0.2255859
5009,1.125,-15.625,-167.6875,0.1948242,0.7041016,0.4404297,0.07714844,-0.3095703,-0.2255859
5013,0,-0.75,-173.6875,0.07861328,0.5605469,0.4057617,0.09033203,-0.3056641,-0.2270508
5017,-4.375,8.125,-173.3125,-0.02197266,0.6030273,0.3637695,0.1035156,-0.2993164,-0.2270508
5021,-10.4375,11.3125,-179.625,-0.08398438,0.5878906,0.3095703,0.112793,-0.2954102,-0.2246094
5025,-12,9.25,-188.375,-0.1962891,0.5410156,0.2709961,0.1259766,-0.2866211,-0.2270508
5029,-14.5,1.5,-200.5,-0.2890625,0.4985352,0.2558594,0.1391602,-0.2792969,-0.2285156
5033,-11.8125,-10.875,-213.9375,-0.3085938,0.4321289,0.2250977,0.1508789,-0.2695313,-0.2285156
5037,-12.0625,-24.9375,-226.6875,-0.2890625,0.4321289,0.1865234,0.1616211,-0.2583008,-0.2299805
5041,-14.75,-30.9375,-236.875,-0.1884766,0.3662109,0.2402344,0.1748047,-0.2441406,-0.230957
5045,-25.375,-23.875,-243.625,-0.1689453,0.3232422,0.3330078,0.184082,-0.2358398,-0.2353516
5049,-36.875,-10.1875,-247.4375,-0.1767578,0.1601563,0.3212891,0.1938477,-0.2182617,-0.2353516
5053,-39.625,-3.4375,-247.4375,-0.2773438,-0.002441406,0.2749023,0.2055664,-0.2006836,-0.2392578
5057,-43.875,-7.9375,-242.3125,-0.3745117,-0.08007813,0.1865234,0.2128906,-0.1855469,-0.2392578
5061,-51.9375,-18.8125,-233.625,-0.4443359,-0.1811523,0.140625,0.2202148,-0.1669922,-0.2421875
5065,-58,-27.5625,-226.625,-0.4365234,-0.2124023,0.1826172,0.2236328,-0.1445313,-0.2446289
5069,-63.6875,-29.0625,-240.0625,-0.3935547,-0.2900391,0.2519531,0.2285156,-0.1318359,-0.2460938
5073,-56.5625,-27.25,-261.1875,-0.3588867,-0.4257813,0.3251953,0.230957,-0.1083984,-0.2514648
5077,-54.1875,-16.8125,-276.3125,-0.2734375,-0.4414063,0.355957,0.230957,-0.08203125,-0.2514648
5081,-61.75,-4.875,-263.3125,-0.4091797,-0.7602539,0.2788086,0.230957,-0.06933594,-0.2529297
5085,-79.75,-2.4375,-235.8125,-0.5024414,-0.8535156,0.2788086,0.2319336,-0.04443359,-0.2529297
5089,-94.5625,-1.1875,-213.75,-0.5102539,-0.9038086,0.2749023,0.230957,-0.02197266,-0.2529297
5093,-89.875,-9.3125,-213.5625,-0.5371094,-0.9350586,0.2290039,0.2294922,-0.005859375,-0.25
5097,-75.1875,-23.1875,-242.875,-0.4829102,-0.9155273,0.2675781,0.2236328,0.01611328,-0.25
5101,-69.9375,-19.375,-255.0625,-0.3125,-1.055176,0.3789063,0.2163086,0.03857422,-0.2490234
5105,-88,10.625,-235,-0.1728516,-1.036133,0.4213867,0.2104492,0.05517578,-0.2460938
5109,-126.125,48.5,-196.5625,-0.1650391,-1.047363,0.3481445,0.2055664,0.07763672,-0.2436523
5113,-144.625,71.3125,-162.375,-0.2734375,-1.160156,0.1674805,0.2011719,0.09619141,-0.2324219
5118,-140.875,59.8125,-158.0625,-0.4633789,-1.090332,-0.04736328,0.199707,0.1113281,-0.2246094
5122,-112.9375,18.6875,-186.75,-0.3901367,-1.11377,-0.05126953,0.1948242,0.1289063,-0.2133789
5126,-79.0625,-2.125,-239.8125,-0.05273438,-1.055176,0.1635742,0.1855469,0.1474609,-0.2094727
5130,-90.5625,30.8125,-263,0.2412109,-1.222656,0.4057617,0.1757813,0.1611328,-0.2011719
5134,-115.625,89.6875,-239.375,0.1713867,-1.564453,0.355957,0.1616211,0.1811523,-0.1943359
5138,-124.75,113.125,-206.8125,-0.2504883,-1.777832,0.1171875,0.1499023,0.2001953,-0.1782227
5142,-107.5625,88.6875,-193.375,-0.4555664,-1.855957,0.009765625,0.1425781,0.2099609,-0.1699219
5146,-72.625,55.625,-197.875,-0.4404297,-1.83252,-0.02441406,0.1333008,0.2226563,-0.1577148
5150,-46.125,29.25,-204.4375,-0.362793,-1.677246,-0.04394531,0.1176758,0.2363281,-0.1494141
5154,-40.6875,18.0625,-202.125,-0.3007813,-1.568359,-0.04003906,0.1069336,0.2412109,-0.1484375
5158,-37.75,3.875,-190.3125,-0.3823242,-1.67334,-0.02832031,0.09130859,0.2539063,-0.1416016
5162,-24.625,-18.625,-168.6875,-0.4907227,-1.789551,0.04785156,0.07470703,0.2573242,-0.1357422
5166,-8.3125,-45.625,-144.0625,-0.5527344,-1.731445,0.1132813,0.06787109,0.262207,-0.137207
5170,5.4375,-65.5,-127.5625,-0.4829102,-1.626465,0.1826172,0.05224609,0.2651367,-0.1357422
5174,9.4375,-63.5,-111.0625,-0.3706055,-1.513672,0.3134766,0.0390625,0.2675781,-0.1386719
5178,-0.375,-49.75,-85.25,-0.3823242,-1.533203,0.425293,0.03173828,0.2700195,-0.1386719
5182,-2.3125,-30.6875,-51.125,-0.3706055,-1.669434,0.5522461,0.0234375,0.2700195,-0.1401367
5186,-3.375,-10.0625,-16.3125,-0.4091797,-1.587891,0.5634766,0.01904297,0.2700195,-0.137207
5190,-3.125,6.0625,10.375,-0.4287109,-1.568359,0.5366211,0.01904297,0.2709961,-0.137207
5194,1.25,18.375,32.875,-0.4326172,-1.548828,0.4711914,0.02246094,0.2709961,-0.1386719
5198,7.4375,27.4375,50.125,-0.4365234,-1.498535,0.3828125,0.02587891,0.2709961,-0.137207
5202,14.375,32.75,65.1875,-0.4404297,-1.513672,0.3134766,0.02832031,0.2700195,-0.1386719
5206,19.9375,34.75,83,-0.4907227,-1.533203,0.2402344,0.03417969,0.2661133,-0.1416016
5210,22.3125,32.625,105,-0.5175781,-1.580078,0.1826172,0.04394531,0.2661133,-0.1401367
5214,29.3125,27.875,123.4375,-0.4946289,-1.572266,0.1865234,0.04980469,0.2612305,-0.1425781
5218,36.625,24.625,136.5,-0.4521484,-1.61084,0.2133789,0.06640625,0.2587891,-0.1469727
5222,37.5625,28.125,157.5,-0.3745117,-1.626465,0.2368164,0.07861328,0.2524414,-0.1469727
5226,32.75,35.75,180,-0.3242188,-1.638184,0.2441406,0.08789063,0.2475586,-0.1523438
5230,30.8125,44.3125,199.6875,-0.2700195,-1.649902,0.2480469,0.1044922,0.2397461,-0.1547852
5234,26.125,51.9375,216.6875,-0.2929688,-1.591309,0.1982422,0.1210938,0.2285156,-0.1547852
5238,27.0625,49.5625,228.5,-0.3823242,-1.622559,0.125,0.1357422,0.2226563,-0.15625
5242,33.5,32.375,234.3125,-0.4829102,-1.556641,0.05566406,0.1557617,0.2099609,-0.15625
5247,43.8125,11.875,229.6875,-0.4672852,-1.486816,0.06347656,0.1738281,0.1948242,-0.1606445
5251,47.25,4.3125,231.125,-0.4013672,-1.459473,0.1098633,0.1855469,0.1835938,-0.1630859
5255,42.625,6.5,238.625,-0.3862305,-1.412598,0.125,0.199707,0.1674805,-0.1674805
5259,40,8.5625,247.875,-0.4326172,-1.405273,0.105957,0.215332,0.1499023,-0.1660156
5263,44.3125,0.8125,254.875,-0.4672852,-1.37793,0.08642578,0.2246094,0.1362305,-0.1699219
5267,48.1875,-4.875,251.875,-0.4555664,-1.226563,0.1328125,0.2368164,0.1152344,-0.1738281
5271,48.6875,-3.625,246.625,-0.4868164,-1.241699,0.1289063,0.2475586,0.09228516,-0.1767578
