Packet number,Gyroscope X (deg/s),Gyroscope Y (deg/s),Gyroscope Z (deg/s),Accelerometer X (g),Accelerometer Y (g),Accelerometer Z (g),Magnetometer X (G),Magnetometer Y (G),Magnetometer Z (G)
3,-18.0625,3.25,-50.4375,-0.6147461,0.7705078,0.07519531,0.1152344,-0.3354492,-0.1547852
7,-11.125,-4.375,-37.75,-0.5605469,0.7314453,0.07519531,0.1176758,-0.3344727,-0.1523438
11,-1.75,-0.4375,-34.1875,-0.5141602,0.7353516,0.1328125,0.1210938,-0.3330078,-0.15625
15,3.0625,9.875,-31.9375,-0.5566406,0.7548828,0.1787109,0.1235352,-0.3305664,-0.1577148
19,3.875,11.4375,-23.5625,-0.6533203,0.7392578,0.1289063,0.1269531,-0.3305664,-0.1547852
23,1.8125,2.6875,-10.25,-0.7075195,0.7509766,0.07519531,0.128418,-0.3305664,-0.1547852
27,-3.125,-5.3125,3.25,-0.6611328,0.7739258,0.1098633,0.1269531,-0.3291016,-0.1547852
31,-5.5625,-9.75,8.4375,-0.6416016,0.7666016,0.140625,0.1259766,-0.3291016,-0.1547852
35,-7,-9.3125,21.625,-0.6303711,0.7973633,0.125,0.1259766,-0.3305664,-0.15625
39,-12.375,-8.875,34.5625,-0.6264648,0.7856445,0.1328125,0.125,-0.3305664,-0.15625
43,-11.625,-11.9375,40.5625,-0.5722656,0.7626953,0.140625,0.1210938,-0.3305664,-0.15625
47,-5.125,-11.1875,31.875,-0.4711914,0.7353516,0.140625,0.1166992,-0.3330078,-0.1591797
51,9.9375,-3.875,18.5625,-0.4169922,0.6884766,0.1635742,0.1152344,-0.3330078,-0.1577148
55,26.625,3.4375,10.6875,-0.5292969,0.7666016,0.1865234,0.1142578,-0.3330078,-0.1577148
59,24,-3.0625,17.375,-0.6650391,0.8984375,0.125,0.112793,-0.3369141,-0.15625
63,3.875,-17.75,17.5,-0.6303711,0.9101563,0.2094727,0.1118164,-0.3393555,-0.15625
67,1,-20,19.25,-0.5253906,0.8671875,0.2290039,0.109375,-0.3369141,-0.1547852
71,-1.0625,-15.3125,13.75,-0.5332031,0.7973633,0.2133789,0.1069336,-0.3378906,-0.1547852
75,3.125,-13.625,17.9375,-0.5332031,0.7626953,0.1787109,0.1044922,-0.3369141,-0.1577148
79,11,-12.125,14.875,-0.4829102,0.7470703,0.1748047,0.1044922,-0.3408203,-0.1577148
83,19.4375,-1.875,11.875,-0.4482422,0.777832,0.2021484,0.09960938,-0.3393555,-0.1547852
87,25.75,7.5,18.4375,-0.4829102,0.793457,0.1943359,0.1020508,-0.3432617,-0.1538086
91,28.1875,11.5,17.875,-0.5102539,0.8325195,0.1943359,0.1010742,-0.3417969,-0.1508789
95,24.5625,13.25,13.6875,-0.5527344,0.875,0.1787109,0.09863281,-0.3457031,-0.1484375
99,17.5625,5.5625,12.4375,-0.6030273,0.8520508,0.1557617,0.09960938,-0.3457031,-0.1469727
103,13.875,6,15.1875,-0.5063477,0.8129883,0.159668,0.09765625,-0.3466797,-0.144043
108,15.625,11.375,12.5,-0.4711914,0.7705078,0.1210938,0.09521484,-0.3481445,-0.144043
112,19.625,16.375,9.9375,-0.4790039,0.7626953,0.09423828,0.09521484,-0.3466797,-0.1416016
116,20.125,20.5625,9.25,-0.4868164,0.824707,0.09033203,0.09619141,-0.3505859,-0.1386719
120,15.125,21.25,6,-0.5527344,0.8286133,0.09423828,0.09619141,-0.3491211,-0.137207
124,12.75,16.25,8.4375,-0.5952148,0.8012695,0.1020508,0.09521484,-0.3505859,-0.1357422
128,9.875,11.125,13.0625,-0.5566406,0.8364258,0.08642578,0.09765625,-0.3520508,-0.1333008
132,4.4375,11.9375,14.8125,-0.5371094,0.824707,0.07519531,0.09619141,-0.3520508,-0.1347656
136,0.3125,13.0625,15.375,-0.5332031,0.809082,0.08251953,0.09375,-0.3520508,-0.1303711
140,1.3125,11.625,15.1875,-0.5527344,0.793457,0.09423828,0.09375,-0.3530273,-0.1333008
144,4.4375,4.9375,12.25,-0.5683594,0.809082,0.105957,0.09277344,-0.3530273,-0.1318359
148,8.9375,-0.5,18.1875,-0.6030273,0.8012695,0.125,0.09130859,-0.3544922,-0.1318359
152,16.875,-2.375,33.125,-0.5175781,0.8481445,0.105957,0.08886719,-0.3544922,-0.1318359
156,18.6875,1.9375,37.6875,-0.4633789,0.8984375,0.1171875,0.08691406,-0.3569336,-0.1279297
160,17.625,-1.8125,24.6875,-0.4907227,0.9682617,0.1132813,0.08447266,-0.3579102,-0.1264648
164,17.9375,-9.5,14.3125,-0.5332031,0.9956055,0.1635742,0.08447266,-0.359375,-0.125
168,30.5,-20.375,14.4375,-0.5141602,0.9799805,0.1943359,0.08056641,-0.3579102,-0.1235352
172,45.9375,-23.875,36.4375,-0.5102539,1.081055,0.1635742,0.07861328,-0.3603516,-0.1225586
176,52.75,-27.3125,50.625,-0.3432617,1.306641,0.1748047,0.07470703,-0.3632813,-0.1181641
180,53.0625,-17.8125,59.375,-0.2387695,1.489258,0.1557617,0.07128906,-0.3657227,-0.1157227
184,48.3125,-13.0625,70.5625,-0.3823242,1.644531,0.1020508,0.06298828,-0.3666992,-0.1088867
188,42.625,-17.6875,98.625,-0.4672852,1.726074,0.01367188,0.05810547,-0.3706055,-0.1074219
192,34.125,-15.5,144.25,-0.4248047,1.788086,0.005859375,0.04736328,-0.371582,-0.1035156
196,22.125,-10.5625,171.25,-0.3666992,1.823242,0.03271484,0.03320313,-0.3754883,-0.09912109
200,7,-6.6875,195.375,-0.4521484,1.831055,0.01367188,0.02001953,-0.3754883,-0.1005859
204,-10.5625,-11.5625,219.0625,-0.4248047,1.834961,0.01367188,0,-0.3754883,-0.09765625
208,-29.4375,-7.6875,239.6875,-0.246582,1.799805,0.02880859,-0.02246094,-0.3754883,-0.1020508
212,-36.0625,-3.625,261.0625,-0.2773438,1.664063,0.07128906,-0.03759766,-0.3745117,-0.1044922
216,-31.6875,-2.6875,286.0625,-0.2426758,1.640625,0.09423828,-0.06396484,-0.3666992,-0.105957
220,-30.5,-7,289.75,-0.1728516,1.65625,0.05175781,-0.09033203,-0.3603516,-0.1098633
224,-26.875,-0.0625,289.8125,-0.02587891,1.625,0.09423828,-0.1069336,-0.3530273,-0.1113281
228,-32.5,6.6875,297.75,-0.07226563,1.702637,0.05957031,-0.1342773,-0.3432617,-0.112793
232,-44.6875,14.125,311.8125,-0.05664063,1.578613,0.05175781,-0.1601563,-0.3266602,-0.1166992
237,-29.625,10.5625,319.6875,-0.1767578,1.310547,0.07910156,-0.1772461,-0.3154297,-0.1166992
241,-11.4375,-3.75,322.9375,-0.1806641,1.333496,0.02099609,-0.2006836,-0.2929688,-0.1210938
245,10.6875,-11.875,324.875,-0.01025391,1.333496,0.04443359,-0.2236328,-0.2729492,-0.1210938
249,11.5625,-5.375,332.6875,0.1445313,1.652344,-0.0859375,-0.2387695,-0.2583008,-0.1181641
253,-14.125,23.1875,361.3125,0.2915039,1.702637,-0.1206055,-0.2578125,-0.2294922,-0.1157227
257,-51.9375,52.6875,367,0.2104492,1.570801,-0.1669922,-0.2783203,-0.2006836,-0.1210938
261,-61.5625,59.875,355.8125,-0.002441406,1.150879,-0.1054688,-0.2875977,-0.1767578,-0.1264648
265,-33.6875,44.25,354.8125,-0.1303711,0.8325195,-0.03222656,-0.2998047,-0.1420898,-0.1333008
269,0.6875,27.3125,370.1875,-0.05664063,0.7001953,-0.04003906,-0.3081055,-0.1069336,-0.1357422
273,3.125,25.8125,369.6875,0.06298828,0.7275391,-0.07861328,-0.3125,-0.08447266,-0.1386719
277,-14,31.625,363.5,-0.02978516,0.6225586,-0.06689453,-0.3149414,-0.04589844,-0.1416016
281,-33.5625,41,354.375,-0.01416016,0.3701172,-0.03613281,-0.3125,-0.01318359,-0.144043
285,-54.6875,53.25,328.375,-0.1381836,0.08251953,-0.005371094,-0.3081055,0.01367188,-0.1455078
289,-70.375,56.375,303.625,-0.2929688,-0.3286133,-0.005371094,-0.3017578,0.04736328,-0.1523438
293,-77.1875,53.25,265.25,-0.4555664,-0.04541016,0.03271484,-0.2915039,0.07519531,-0.1538086
297,-58.5,48.9375,243.5,-0.3901367,-1.237793,0.01367188,-0.2841797,0.09228516,-0.1547852
301,-50.8125,63.8125,206.0625,-0.2734375,-1.350586,0.005859375,-0.2700195,0.1162109,-0.15625
305,-73.125,81.6875,125.0625,-0.3510742,-1.315918,-0.04394531,-0.2617188,0.1337891,-0.1616211
309,-92.8125,80.9375,18.9375,-0.3046875,-1.645996,-0.001464844,-0.2553711,0.1411133,-0.1616211
313,-74.4375,68,-74.4375,-0.3320313,-1.754883,0.05566406,-0.2519531,0.1435547,-0.1630859
317,-28.5,34.5625,-130.4375,-0.3432617,-1.61084,0.1328125,-0.253418,0.1386719,-0.1645508
321,24.1875,-8.3125,-162,-0.230957,-1.269043,0.1904297,-0.2592773,0.1323242,-0.1660156
325,63.75,-41.0625,-185.3125,0.08251953,-0.7641602,0.1865234,-0.2675781,0.1162109,-0.1660156
329,72.8125,-52.8125,-196.125,0.3574219,-0.2861328,0.105957,-0.2768555,0.09765625,-0.1630859
333,51,-43,-205.9375,0.6015625,0.01269531,0.05957031,-0.2841797,0.08398438,-0.1616211
337,17.9375,-17.5,-213.4375,0.7373047,0.09814453,0.01708984,-0.2915039,0.0625,-0.1606445
341,-10.6875,9.8125,-220.5625,0.7216797,0.01269531,0.04785156,-0.2973633,0.04248047,-0.1606445
345,-15.625,26.1875,-229.3125,0.6015625,-0.1152344,0.1289063,-0.3007813,0.02880859,-0.1606445
349,2.75,18.0625,-245.6875,0.4155273,-0.1616211,0.2172852,-0.3032227,0.007324219,-0.1630859
353,34.8125,-4.5625,-249.3125,0.3188477,-0.07226563,0.2402344,-0.3056641,-0.01708984,-0.1630859
357,61.4375,-22.125,-243.3125,0.3808594,0.1137695,0.2250977,-0.3056641,-0.03320313,-0.1630859
361,62.8125,-25.3125,-240.125,0.4931641,0.4672852,0.159668,-0.3066406,-0.05957031,-0.1606445
366,47.3125,-14.1875,-227.4375,0.6289063,0.6694336,0.140625,-0.3032227,-0.08300781,-0.1591797
370,11.5625,8.8125,-223.3125,0.6870117,0.8632813,0.1132813,-0.2998047,-0.1005859,-0.1591797
374,-27.625,31.1875,-231.375,0.659668,0.7080078,0.1367188,-0.293457,-0.1206055,-0.1591797
378,-25.4375,44.6875,-232.875,0.4428711,0.3974609,0.2368164,-0.2851563,-0.140625,-0.1660156
382,9.5625,30.125,-231,0.1518555,0.3818359,0.2944336,-0.2807617,-0.1557617,-0.1645508
386,43.8125,2.5,-220.375,0.140625,0.5683594,0.2866211,-0.2700195,-0.1743164,-0.1674805
390,75.5625,-9.1875,-203.3125,0.2915039,0.8828125,0.2866211,-0.2617188,-0.1943359,-0.1660156
394,68.4375,-6.1875,-183.125,0.3769531,1.279297,0.1865234,-0.2543945,-0.2070313,-0.1630859
398,20.4375,14.5625,-181.4375,0.5161133,1.422852,0.1367188,-0.2460938,-0.2255859,-0.1606445
402,-27.4375,38.9375,-191.5,0.4311523,1.182129,0.1098633,-0.2329102,-0.2382813,-0.1616211
406,-42.875,51.25,-209.5,0.1831055,0.7353516,0.1787109,-0.2255859,-0.2456055,-0.1645508
410,4,31.0625,-218.9375,-0.1845703,0.3466797,0.2480469,-0.2080078,-0.2592773,-0.168457
414,81.75,-6.75,-207.0625,-0.347168,0.4594727,0.2749023,-0.1938477,-0.2744141,-0.1699219
418,142.6875,-34.875,-177.0625,-0.1806641,0.9916992,0.1787109,-0.184082,-0.2866211,-0.1616211
422,135.875,-24.6875,-140.75,0.109375,1.733887,0.04785156,-0.1733398,-0.3017578,-0.1494141
426,45.375,1.75,-162.8125,0.2255859,2.067871,-0.07861328,-0.1625977,-0.3120117,-0.1401367
430,-39,44.9375,-200.3125,0.2607422,1.578613,-0.05126953,-0.1518555,-0.3168945,-0.1416016
434,-67.625,74.375,-223.3125,-0.002441406,0.9838867,-0.03613281,-0.1328125,-0.3266602,-0.1455078
438,-28.75,69.875,-218.375,-0.4287109,0.4985352,0.01708984,-0.1113281,-0.3320313,-0.15625
442,48.4375,50.9375,-205.1875,-0.5488281,0.5644531,0.05566406,-0.09863281,-0.3369141,-0.15625
446,83.1875,37.875,-203.1875,-0.5253906,1.135742,0.009765625,-0.078125,-0.3457031,-0.1523438
450,69.875,45.875,-209.6875,-0.4633789,1.559082,0.04443359,-0.05810547,-0.3544922,-0.1455078
454,26.875,58.75,-226.5625,-0.5332031,1.788086,0.09033203,-0.04394531,-0.3579102,-0.1416016
458,-2.5,67.625,-233.75,-0.6376953,1.570801,0.1865234,-0.02099609,-0.3618164,-0.144043
462,4.625,58.25,-220.8125,-0.8549805,1.372559,0.2558594,0.002441406,-0.3632813,-0.1425781
466,37.1875,26.25,-188.0625,-0.9208984,1.341309,0.2749023,0.01660156,-0.3618164,-0.1425781
470,66.6875,-6.5625,-159.6875,-0.7734375,1.461914,0.2368164,0.03320313,-0.3618164,-0.1386719
474,80.125,-31,-135.5625,-0.5410156,1.613281,0.1518555,0.04882813,-0.3642578,-0.1303711
478,78.6875,-40.625,-110.6875,-0.3203125,1.702637,0.05175781,0.0546875,-0.3632813,-0.1279297
482,64.875,-31.8125,-78.6875,-0.09521484,1.722168,0.005859375,0.06396484,-0.3681641,-0.1196289
486,41.125,-9.3125,-49.4375,0.05517578,1.683105,-0.005371094,0.06787109,-0.3666992,-0.1157227
490,13.4375,16.5,-28.75,0.04345703,1.59375,0.02880859,0.06982422,-0.3666992,-0.1157227
495,-12.125,37.125,-20.125,-0.02978516,1.473633,0.125,0.07470703,-0.3657227,-0.1113281
499,-26.0625,44.625,-15.75,-0.1499023,1.298828,0.2250977,0.07714844,-0.3642578,-0.112793
503,-22.1875,37.4375,-12.9375,-0.328125,1.104492,0.3173828,0.07861328,-0.3642578,-0.1157227
507,-3.5625,13.6875,-6.5625,-0.4443359,1.015137,0.3671875,0.07958984,-0.3632813,-0.1166992
511,16.4375,-10.25,0.625,-0.3862305,1.088867,0.3520508,0.08056641,-0.3642578,-0.1142578
515,24.625,-27.25,5.6875,-0.262207,1.263672,0.2827148,0.08203125,-0.3642578,-0.1142578
519,21,-32.125,11.9375,-0.1650391,1.380371,0.1865234,0.07958984,-0.3657227,-0.112793
523,14.6875,-29.25,28.3125,-0.1108398,1.454102,0.09814453,0.07617188,-0.3642578,-0.1098633
527,4.625,-18.3125,52.75,-0.09521484,1.523926,0.04785156,0.07373047,-0.3681641,-0.1098633
531,-6.375,-9.8125,72.8125,-0.1533203,1.512207,0.07519531,0.06787109,-0.3666992,-0.112793
535,-11.875,-11.375,88.6875,-0.2700195,1.458008,0.125,0.06152344,-0.3691406,-0.112793
539,-6.3125,-21.0625,107.875,-0.347168,1.415039,0.159668,0.0546875,-0.3691406,-0.112793
543,-2,-32.0625,129.9375,-0.3510742,1.539551,0.1479492,0.04248047,-0.3730469,-0.112793
547,-0.6875,-34.25,152.8125,-0.2387695,1.535645,0.1518555,0.02832031,-0.3745117,-0.1142578
551,-1.875,-27.875,173.625,-0.1923828,1.628906,0.105957,0.01757813,-0.3745117,-0.1142578
555,-14,-15.9375,184.8125,-0.1767578,1.710449,0.07910156,0,-0.3730469,-0.1142578
559,-32.3125,-4.5,195.4375,-0.1962891,1.722168,0.05566406,-0.02001953,-0.3706055,-0.1166992
563,-51.75,7.8125,197.875,-0.1845703,1.679688,0.06738281,-0.02929688,-0.3691406,-0.1181641
567,-62.25,11.8125,202.1875,-0.2851563,1.617188,0.09423828,-0.04833984,-0.3642578,-0.1225586
571,-54.25,2.75,216.875,-0.362793,1.461914,0.1518555,-0.06738281,-0.359375,-0.1289063
575,-41.5625,-8.0625,231.5625,-0.3046875,1.411133,0.1557617,-0.08203125,-0.3530273,-0.1333008
579,-36.4375,-10.375,238.3125,-0.1923828,1.399902,0.140625,-0.1030273,-0.3442383,-0.1357422
583,-41.9375,-11.3125,237,-0.1728516,1.407715,0.1210938,-0.1235352,-0.3344727,-0.1386719
587,-49.3125,-6.875,237.4375,-0.08789063,1.321777,0.1020508,-0.1367188,-0.3266602,-0.144043
591,-50.6875,-3.8125,239.5,-0.08398438,1.287109,0.105957,-0.1567383,-0.3129883,-0.1455078
595,-55.0625,-4.125,239.375,-0.06054688,1.213379,0.08251953,-0.1757813,-0.2993164,-0.1469727
599,-47.0625,-10,231.75,-0.09521484,1.108398,0.1020508,-0.1875,-0.2905273,-0.1494141
603,-39,-20.125,234.9375,-0.08789063,1.06543,0.08251953,-0.2055664,-0.2729492,-0.1547852
607,-21.3125,-26.4375,239.0625,-0.01025391,0.9995117,0.1132813,-0.222168,-0.2558594,-0.1538086
611,-11.625,-34.5,236.4375,0.01269531,1.143066,0.09033203,-0.2329102,-0.2456055,-0.1523438
615,-7.375,-36,238.1875,0.2138672,1.174316,0.07519531,-0.2470703,-0.2255859,-0.1508789
619,-2.4375,-28.3125,246.875,0.2607422,1.116211,0.05957031,-0.2602539,-0.2070313,-0.1484375
624,12.9375,-31.375,246.875,0.2685547,1.053711,0.02490234,-0.2700195,-0.1933594,-0.1469727
628,19.4375,-33.0625,251.6875,0.3417969,0.9956055,-0.02441406,-0.2827148,-0.1733398,-0.1425781
632,17.25,-20.5,260.8125,0.4853516,0.9604492,-0.07470703,-0.293457,-0.1508789,-0.137207
636,-1.5,-4.875,251.375,0.4155273,0.777832,-0.07861328,-0.2983398,-0.1342773,-0.1386719
640,9.3125,-7.5625,238.8125,0.2490234,0.4399414,-0.04394531,-0.3056641,-0.1118164,-0.137207
644,38.375,-22.6875,233,0.2915039,0.2729492,-0.03613281,-0.3105469,-0.08837891,-0.1347656
648,66.25,-28.9375,234.875,0.4038086,0.2729492,-0.06689453,-0.3149414,-0.07568359,-0.1333008
652,68.9375,-18.375,228.5,0.5976563,0.4282227,-0.05908203,-0.3188477,-0.0546875,-0.1318359
656,45.375,10.3125,222.75,0.6635742,0.5292969,-0.01660156,-0.3188477,-0.03466797,-0.1303711
660,-8.25,50.0625,213.6875,0.659668,0.5722656,0.05957031,-0.3208008,-0.02050781,-0.1303711
664,-64.625,83.125,194.5625,0.4580078,0.2416992,0.1557617,-0.3164063,0.001464844,-0.1357422
668,-88.0625,90.9375,182.5625,0.1445313,-0.2705078,0.2749023,-0.309082,0.02148438,-0.1425781
672,-76.25,71.8125,170.0625,-0.002441406,-0.6821289,0.3330078,-0.3041992,0.03515625,-0.1484375
676,-58.75,47.0625,141.5625,0.08642578,-0.7719727,0.3710938,-0.2983398,0.05371094,-0.1523438
680,-53.5,33.5,114.5,0.2138672,-0.7524414,0.2905273,-0.2949219,0.06982422,-0.1547852
684,-55.875,35.625,92.625,0.3305664,-0.7949219,0.2519531,-0.2890625,0.07763672,-0.15625
688,-52.3125,40.875,74,0.3496094,-0.8959961,0.2172852,-0.2851563,0.08740234,-0.1577148
692,-37,37.8125,54.625,0.2954102,-0.9736328,0.2094727,-0.2817383,0.09619141,-0.1591797
696,-25,23.125,21.9375,0.2216797,-0.8842773,0.1748047,-0.2792969,0.09765625,-0.15625
700,-16.875,3.75,-27.1875,0.3613281,-0.8574219,0.1826172,-0.2783203,0.1010742,-0.1577148
704,0.0625,-10.9375,-64.625,0.4194336,-0.7719727,0.1635742,-0.2783203,0.09765625,-0.1577148
708,18.375,-24.9375,-86.25,0.5087891,-0.5927734,0.1713867,-0.2817383,0.09228516,-0.1606445
712,34.625,-36.25,-92.375,0.609375,-0.3754883,0.1748047,-0.2875977,0.08398438,-0.15625
716,38.25,-40.0625,-92.1875,0.7490234,-0.1459961,0.159668,-0.2900391,0.07519531,-0.1547852
720,22.6875,-30.1875,-90.0625,0.8999023,-0.01806641,0.125,-0.293457,0.06640625,-0.1538086
724,-1.3125,-5.625,-97.3125,0.9658203,-0.03759766,0.125,-0.2983398,0.05859375,-0.1508789
728,-25.125,12.625,-116.375,0.8535156,-0.09570313,0.1289063,-0.2998047,0.04882813,-0.1508789
732,-30.8125,16.25,-132.625,0.7021484,-0.2587891,0.2021484,-0.3007813,0.04248047,-0.1523438
736,-8,1.5625,-141.125,0.578125,-0.3134766,0.2290039,-0.3056641,0.02880859,-0.1538086
740,15.0625,-14.0625,-134.125,0.6210938,-0.2124023,0.2060547,-0.3066406,0.01611328,-0.1523438
744,20,-14.3125,-132.75,0.7177734,-0.01416016,0.1674805,-0.3081055,0.007324219,-0.1508789
748,3.0625,-5.75,-146.6875,0.7412109,0.1098633,0.1635742,-0.3115234,-0.005859375,-0.1494141
753,-24.25,8.25,-166.0625,0.7602539,0.1640625,0.105957,-0.3115234,-0.02197266,-0.1508789
757,-40.25,24.375,-189,0.7255859,0.05517578,0.1518555,-0.3105469,-0.03076172,-0.1494141
761,-34.75,26.1875,-191.0625,0.5161133,0.0009765625,0.1367188,-0.3105469,-0.04833984,-0.1523438
765,-23.0625,28.5,-181.8125,0.5512695,-0.01416016,0.1328125,-0.3056641,-0.06591797,-0.1538086
769,-6,34.0625,-185.875,0.5087891,-0.01806641,0.1289063,-0.3041992,-0.07714844,-0.15625
773,12.4375,28.75,-200.9375,0.3149414,0.1835938,0.159668,-0.3007813,-0.09423828,-0.1616211
777,14,9.375,-231.9375,0.2685547,0.4013672,0.1518555,-0.2949219,-0.1157227,-0.1616211
781,21.5625,3.6875,-241.3125,0.3574219,0.4204102,0.1713867,-0.2900391,-0.1308594,-0.1606445
785,27.8125,10.4375,-216.9375,0.3999023,0.6342773,0.1635742,-0.2827148,-0.1508789,-0.1630859
789,21.0625,29.0625,-195.3125,0.543457,0.8325195,0.1289063,-0.2734375,-0.171875,-0.1645508
793,4.0625,52.875,-200.25,0.3959961,0.9916992,0.1713867,-0.2685547,-0.1831055,-0.1660156
797,-26.125,44.4375,-227.5625,0.1948242,1.084961,0.1367188,-0.2553711,-0.1992188,-0.168457
801,-21.6875,45.375,-220.8125,0.2724609,0.6923828,0.2133789,-0.2412109,-0.2167969,-0.1738281
805,22.1875,41.8125,-199.5,0.1132813,0.6108398,0.2290039,-0.2319336,-0.2270508,-0.175293
809,69.75,26.1875,-180.3125,0.02832031,0.6733398,0.2675781,-0.2197266,-0.2416992,-0.1767578
813,127.875,5.4375,-164.375,-0.08789063,1.092773,0.3056641,-0.2080078,-0.2583008,-0.1728516
817,107.9375,-16.75,-158.625,-0.05664063,2.041016,0.2172852,-0.2006836,-0.2695313,-0.168457
821,29.9375,-10.375,-172.6875,0.4658203,1.982422,0.1748047,-0.1899414,-0.2817383,-0.1606445
825,-18.375,34.4375,-154.75,0.4892578,1.559082,0.144043,-0.1782227,-0.2919922,-0.1591797
829,-33.875,56.1875,-136.0625,0.2412109,1.061523,0.1210938,-0.1699219,-0.2983398,-0.1630859
833,-0.75,59.5,-131.1875,-0.01025391,0.6499023,0.1826172,-0.1557617,-0.3032227,-0.168457
837,41.5625,27.375,-158.6875,-0.2851563,0.7817383,0.2060547,-0.1435547,-0.3095703,-0.168457
841,76.5625,-2.5,-166.125,-0.2080078,1.092773,0.2597656,-0.1328125,-0.3154297,-0.1660156
845,83.75,-9.9375,-153.375,-0.02587891,1.454102,0.2402344,-0.1210938,-0.3266602,-0.1591797
849,57.9375,2.5,-134.75,0.1171875,1.636719,0.1826172,-0.1079102,-0.3344727,-0.1523438
853,26.5,26.1875,-119.625,0.1289063,1.469727,0.159668,-0.1020508,-0.3393555,-0.1494141
857,10.5,28.5625,-125.8125,-0.1186523,1.291016,0.1289063,-0.09033203,-0.3442383,-0.1494141
861,22.0625,18.0625,-130.8125,-0.1689453,1.007324,0.1635742,-0.078125,-0.3491211,-0.1494141
865,45.9375,5.8125,-124.375,-0.1767578,1.022949,0.159668,-0.06982422,-0.3505859,-0.1469727
869,51.1875,4.875,-123.4375,-0.1572266,1.236328,0.1674805,-0.05908203,-0.3554688,-0.1416016
873,35.25,10.3125,-121.75,-0.1499023,1.341309,0.2060547,-0.04736328,-0.3603516,-0.1401367
877,12.4375,16.875,-128.75,-0.1923828,1.356934,0.1982422,-0.04003906,-0.3603516,-0.1386719
882,-8.375,21.9375,-132.9375,-0.2270508,1.271484,0.1328125,-0.02832031,-0.3618164,-0.1357422
886,-12.5,25.5,-123.9375,-0.215332,1.104492,0.105957,-0.01269531,-0.3632813,-0.1386719
890,-6.75,32.4375,-117.0625,-0.2890625,1.057617,0.09814453,-0.005859375,-0.3632813,-0.1357422
894,-1.125,34.25,-112.9375,-0.3007813,1.061523,0.1171875,0.005859375,-0.3603516,-0.1401367
898,-2.1875,36.5625,-112.6875,-0.3862305,1.092773,0.1557617,0.01660156,-0.3632813,-0.137207
902,-6.875,35.5,-114.5,-0.4326172,1.09668,0.1748047,0.02587891,-0.3618164,-0.1386719
906,-9.375,34.0625,-109.625,-0.4326172,1.053711,0.159668,0.03808594,-0.3603516,-0.1416016
910,-10.8125,36.4375,-105.5,-0.4365234,0.9956055,0.125,0.05224609,-0.3603516,-0.1401367
914,-8.4375,40.25,-103,-0.4248047,0.9375,0.1328125,0.05566406,-0.359375,-0.1425781
918,-4.1875,40.375,-104.4375,-0.5410156,0.9956055,0.1713867,0.06787109,-0.3554688,-0.1401367
922,7.1875,26.625,-96.875,-0.6376953,1.007324,0.2480469,0.07861328,-0.3530273,-0.1416016
926,22,6.25,-81.5625,-0.5952148,1.131836,0.2368164,0.08300781,-0.3530273,-0.1386719
930,24.6875,-3.1875,-65.9375,-0.4091797,1.236328,0.1748047,0.09277344,-0.3544922,-0.137207
934,18.125,-1.5,-46.75,-0.3125,1.291016,0.1210938,0.09619141,-0.3505859,-0.1347656
938,6.6875,7.4375,-29.5,-0.2041016,1.325684,0.1210938,0.09960938,-0.3491211,-0.1347656
942,-1.875,11.9375,-18.6875,-0.2700195,1.317871,0.1518555,0.1020508,-0.3505859,-0.1347656
946,-1.375,3.5625,-2.6875,-0.3588867,1.271484,0.2329102,0.1020508,-0.3505859,-0.1318359
950,10.25,-10.1875,19.75,-0.3862305,1.259766,0.2866211,0.1035156,-0.3505859,-0.1347656
954,18.6875,-28.625,37.6875,-0.3862305,1.337402,0.2827148,0.09863281,-0.3520508,-0.1333008
958,32,-44.875,62.3125,-0.3203125,1.388184,0.2675781,0.09375,-0.3530273,-0.1318359
962,42.125,-54.8125,94.25,-0.230957,1.555176,0.2558594,0.09033203,-0.3569336,-0.1279297
966,40.125,-57.1875,121.4375,-0.1381836,1.726074,0.2060547,0.07958984,-0.3603516,-0.1279297
970,27.375,-47.0625,153.0625,-0.09130859,1.838867,0.1865234,0.06542969,-0.3632813,-0.125
974,3.0625,-34.875,171.9375,-0.1342773,1.885254,0.1865234,0.05322266,-0.3681641,-0.1235352
978,-10.1875,-27.3125,197.9375,-0.1884766,1.710449,0.2290039,0.03662109,-0.3691406,-0.1264648
982,-6,-27,222.6875,-0.362793,1.679688,0.2709961,0.01416016,-0.3706055,-0.125
986,-1.875,-34.3125,243.875,-0.3974609,1.683105,0.3056641,0,-0.3691406,-0.1235352
990,-1.9375,-37.5,255.5625,-0.3203125,1.675781,0.2519531,-0.02490234,-0.3666992,-0.1225586
994,-7.8125,-31.0625,261,-0.2348633,1.722168,0.1982422,-0.04980469,-0.3642578,-0.125
998,-19.9375,-23.375,273.4375,-0.2231445,1.745605,0.1943359,-0.06494141,-0.3618164,-0.1264648
1002,-35.75,-17.0625,278.8125,-0.2001953,1.706543,0.1826172,-0.09033203,-0.3520508,-0.1279297
1006,-43.75,-19.75,278.1875,-0.2661133,1.590332,0.1787109,-0.1186523,-0.3408203,-0.1303711
1011,-33.4375,-31.125,286.3125,-0.2080078,1.411133,0.1367188,-0.1352539,-0.3320313,-0.1318359
1015,-16.375,-29.625,305.9375,-0.08789063,1.411133,0.1020508,-0.1601563,-0.3168945,-0.1333008
1019,-14.1875,-19.75,320.625,-0.002441406,1.535645,0.03662109,-0.1865234,-0.3007813,-0.1333008
1023,-33.125,-2.75,322.875,0.07080078,1.59375,-0.009277344,-0.203125,-0.2856445,-0.1318359
1027,-54.3125,17.6875,312.75,0.06689453,1.388184,-0.01660156,-0.222168,-0.2631836,-0.137207
1031,-61.9375,24.5,299.75,-0.08789063,1.166504,0.01708984,-0.2436523,-0.2382813,-0.1416016
1035,-48.625,11.4375,298.75,-0.1962891,0.953125,0.06738281,-0.253418,-0.2231445,-0.144043
1039,-25.625,-10.5,297.6875,-0.05664063,0.809082,0.04443359,-0.2685547,-0.1982422,-0.144043
1043,-6.9375,-18.0625,294.625,0.06689453,0.8051758,0.03271484,-0.2817383,-0.1704102,-0.1469727
1047,-6.3125,-18.5,290.1875,0.2490234,0.90625,-0.01660156,-0.2890625,-0.1533203,-0.144043
1051,-19.6875,-1.0625,277.6875,0.4272461,0.8671875,-0.01660156,-0.2998047,-0.1269531,-0.1416016
1055,-33.75,20.1875,279.5625,0.4155273,0.7739258,-0.04394531,-0.3066406,-0.09814453,-0.1455078
1059,-46.6875,31.5625,271.375,0.3339844,0.5913086,-0.03222656,-0.309082,-0.07958984,-0.144043
1063,-51.125,39.125,267.5625,0.2836914,0.3041992,-0.02050781,-0.3105469,-0.04931641,-0.1484375
1067,-46.75,43.5625,260,0.2177734,0.1835938,0.01367188,-0.309082,-0.02441406,-0.1538086
1071,-48.3125,32.1875,235.5,0.2026367,0.04736328,0.04052734,-0.3081055,-0.005859375,-0.15625
1075,-46.75,28.625,218.25,0.3305664,0.1098633,0.05566406,-0.3017578,0.01757813,-0.1577148
1079,-52.625,30.5625,199.375,0.4580078,0.0009765625,0.125,-0.2998047,0.03857422,-0.1577148
1083,-45.875,27.5625,190.75,0.4233398,-0.08789063,0.1479492,-0.293457,0.05371094,-0.1577148
1087,-29.4375,20.25,194.3125,0.4311523,-0.2509766,0.2211914,-0.2890625,0.07275391,-0.1606445
1091,-15.4375,15.3125,197.9375,0.4428711,-0.2241211,0.2250977,-0.2807617,0.09228516,-0.1616211
1095,-13.375,17.75,188.375,0.5009766,-0.2978516,0.2675781,-0.2758789,0.1025391,-0.1630859
1099,-18.0625,21.875,172.0625,0.4736328,-0.4179688,0.1826172,-0.2651367,0.1186523,-0.1616211
1103,-26.125,37.375,162.4375,0.2993164,-1.032227,0.03271484,-0.2568359,0.1323242,-0.1645508
1107,-31.75,51.9375,126.375,0.3457031,-0.7446289,0.1289063,-0.2509766,0.1425781,-0.1660156
1111,-35.6875,58.0625,89.4375,0.1870117,-0.8535156,0.1367188,-0.2412109,0.1523438,-0.1674805
1115,-25.3125,46.3125,58.3125,-0.01806641,-1.062988,0.1518555,-0.2353516,0.1586914,-0.1713867
1119,-6.875,24.375,27.5,-0.05273438,-1.094238,0.1479492,-0.2304688,0.1625977,-0.1728516
1123,4.125,9.1875,-12.1875,0.03564453,-1.032227,0.159668,-0.2304688,0.1650391,-0.1738281
1127,6.8125,-2.3125,-55.9375,0.05517578,-0.9350586,0.159668,-0.2304688,0.1611328,-0.1738281
1131,10.1875,-13.625,-91.875,0.1289063,-0.8339844,0.1904297,-0.2353516,0.1577148,-0.1738281
1135,11.75,-24.3125,-121.6875,0.2333984,-0.6821289,0.1674805,-0.2402344,0.1489258,-0.1738281
1140,13.6875,-21.5,-131.5625,0.3847656,-0.6083984,0.144043,-0.2470703,0.1401367,-0.1713867
1144,14.6875,-7.75,-138.125,0.4658203,-0.5854492,0.105957,-0.2519531,0.1323242,-0.1713867
1148,12.125,1.1875,-155.6875,0.4194336,-0.5893555,0.1020508,-0.2617188,0.1186523,-0.1728516
1152,18.125,4.8125,-176.9375,0.4350586,-0.5620117,0.1289063,-0.2675781,0.1064453,-0.1728516
1156,17.25,-4.5625,-209.1875,0.3730469,-0.3364258,0.1328125,-0.2709961,0.09375,-0.1713867
1160,25.4375,-12.75,-220.25,0.4892578,-0.2587891,0.1674805,-0.2792969,0.07519531,-0.1738281
1164,42.0625,-6.625,-202.6875,0.5551758,-0.08398438,0.1289063,-0.2875977,0.05371094,-0.1728516
1168,47.25,12.1875,-181.25,0.6362305,0.02441406,0.09423828,-0.2915039,0.04003906,-0.1728516
1172,29.5625,24.875,-205.875,0.5629883,0.2416992,0.1132813,-0.2900391,0.02148438,-0.175293
1176,0.9375,27.75,-261.9375,0.5317383,0.2573242,0.1635742,-0.2949219,0,-0.1767578
1180,1.5,32,-286.375,0.4619141,0.1137695,0.2329102,-0.2958984,-0.01708984,-0.1796875
1184,27.1875,32.1875,-259.375,0.2836914,0.1367188,0.2329102,-0.293457,-0.04296875,-0.1806641
1188,54.1875,38,-211.6875,0.3496094,0.1992188,0.2133789,-0.2915039,-0.06689453,-0.1865234
1192,79.75,43.1875,-193.4375,0.2568359,0.2963867,0.2172852,-0.2875977,-0.08056641,-0.1865234
1196,65.5,20.375,-237.375,0.03173828,0.9335938,0.1904297,-0.2817383,-0.1020508,-0.1904297
1200,24.5,4.25,-297.125,0.2993164,0.8208008,0.2402344,-0.2744141,-0.1293945,-0.1918945
1204,34,12.625,-303.9375,0.190918,0.5800781,0.2368164,-0.2675781,-0.1469727,-0.1875
1208,86.75,-3.4375,-252.5,-0.07226563,0.3232422,0.2250977,-0.2553711,-0.171875,-0.1904297
1212,164.4375,-35,-197.5625,-0.1069336,0.4052734,0.1098633,-0.2470703,-0.1967773,-0.1821289
1216,203.1875,-54.375,-186.875,-0.04882813,1.154785,0.02099609,-0.2426758,-0.2128906,-0.1738281
1220,114.4375,-81.5,-299.375,0.01269531,2.394531,-0.09375,-0.2329102,-0.2382813,-0.1577148
1224,54.0625,-75.3125,-354.8125,0.3110352,1.970703,0.2133789,-0.2172852,-0.2641602,-0.1494141
1228,76.125,-67,-275.625,0.1557617,2.033203,0.1479492,-0.2021484,-0.2807617,-0.1416016
1232,77.625,-34.6875,-165.25,0.5820313,2.137695,0.04443359,-0.1865234,-0.2983398,-0.1333008
1236,34.9375,9.4375,-158.125,0.5629883,1.962891,-0.1552734,-0.1772461,-0.3081055,-0.1289063
1240,-0.1875,42.5625,-179.625,0.3847656,1.578613,-0.1860352,-0.1674805,-0.3154297,-0.1289063
1244,-12.4375,63.3125,-196.75,0.2954102,1.317871,-0.128418,-0.1508789,-0.3242188,-0.1333008
1248,-11.4375,80.0625,-192.8125,0.07470703,1.217285,-0.04736328,-0.1318359,-0.3344727,-0.1357422
1252,-5.5,83,-182.9375,-0.1147461,1.154785,0.04785156,-0.1186523,-0.3378906,-0.1386719
1256,5.6875,79.625,-172.25,-0.230957,1.12793,0.1557617,-0.09960938,-0.3432617,-0.1416016
1260,8.5,67.0625,-172.0625,-0.3823242,1.228516,0.2133789,-0.08056641,-0.3481445,-0.1425781
1264,11.75,46.9375,-175.75,-0.4169922,1.166504,0.2558594,-0.06982422,-0.3520508,-0.1416016
1269,25.3125,25.5,-172.5,-0.4521484,1.158691,0.2597656,-0.05078125,-0.3579102,-0.144043
1273,37.4375,8.375,-160.0625,-0.3164063,1.255859,0.2094727,-0.03417969,-0.359375,-0.1401367
1277,37.5625,7,-147.4375,-0.1728516,1.356934,0.1518555,-0.02587891,-0.3618164,-0.1386719
1281,26,16.5,-137.625,-0.1108398,1.43457,0.1289063,-0.01269531,-0.3657227,-0.1357422
1285,10.6875,26,-128.1875,-0.1499023,1.422852,0.1865234,0.002441406,-0.3657227,-0.1318359
1289,2.8125,30.0625,-112.875,-0.1923828,1.333496,0.2480469,0.01074219,-0.3666992,-0.1333008
1293,2.5,27.0625,-98.9375,-0.2504883,1.259766,0.2402344,0.02148438,-0.3657227,-0.1303711
1297,5.125,24.0625,-86.5625,-0.262207,1.232422,0.2368164,0.03076172,-0.3657227,-0.1318359
1301,6.5,18.1875,-71.25,-0.3164063,1.205566,0.2172852,0.03662109,-0.3642578,-0.1333008
1305,12.8125,11.8125,-58.625,-0.3007813,1.12793,0.2094727,0.04394531,-0.3657227,-0.1333008
1309,18,4.5,-54.1875,-0.2661133,1.197754,0.1826172,0.04882813,-0.3657227,-0.1289063
1313,15.625,-3.3125,-50.75,-0.2231445,1.240234,0.1904297,0.05224609,-0.3632813,-0.1289063
1317,15.875,-9.375,-43.5625,-0.1689453,1.287109,0.1904297,0.05712891,-0.3632813,-0.1264648
1321,18.5,-17.9375,-26.0625,-0.1303711,1.36084,0.1904297,0.05712891,-0.3642578,-0.125
1325,22.0625,-20.25,3.125,0.0009765625,1.481445,0.2211914,0.05957031,-0.3642578,-0.1235352
1329,16.625,-24.3125,31.5,0.02050781,1.679688,0.2211914,0.05957031,-0.3642578,-0.1225586
1333,10.0625,-30.0625,62.4375,0.02050781,1.671875,0.2290039,0.05224609,-0.3657227,-0.1210938
1337,17.9375,-39.5,98.75,-0.02587891,1.59375,0.2172852,0.04882813,-0.3666992,-0.1196289
1341,35.625,-49.8125,134.8125,-0.02978516,1.667969,0.2250977,0.03662109,-0.3691406,-0.1210938
1345,43,-54.1875,170.6875,0.02832031,1.854492,0.2519531,0.02246094,-0.371582,-0.1142578
1349,33.25,-52.5,200.1875,0.07470703,2.025391,0.2441406,0.006835938,-0.371582,-0.112793
1353,13.375,-37.5,224.5625,0.1557617,2.052246,0.2519531,-0.01416016,-0.3730469,-0.1113281
1357,-10.8125,-16,238.5,0.1367188,2.021484,0.2558594,-0.03515625,-0.371582,-0.1088867
1361,-24.0625,-8.25,253.75,-0.03710938,1.799805,0.2749023,-0.05078125,-0.3691406,-0.1088867
1365,-23.6875,-6.9375,270.125,-0.08398438,1.679688,0.2597656,-0.07714844,-0.3632813,-0.112793
1369,-32.9375,-4.625,272.0625,-0.1030273,1.749512,0.2133789,-0.1020508,-0.3544922,-0.1142578
1373,-51.3125,-0.6875,264.375,-0.1030273,1.652344,0.1982422,-0.1176758,-0.3457031,-0.1181641
1377,-63.8125,0.25,262.75,-0.246582,1.652344,0.1982422,-0.1401367,-0.3344727,-0.1235352
1381,-63,-16.25,272.6875,-0.3510742,1.504395,0.1865234,-0.1625977,-0.3178711,-0.1279297
1385,-41.5,-39.25,286.625,-0.3125,1.446289,0.1132813,-0.1772461,-0.3066406,-0.1289063
1389,-22.625,-55.625,299.4375,-0.1030273,1.461914,0.001953125,-0.2021484,-0.2895508,-0.1289063
1393,-18.75,-54.25,304.5625,0.1289063,1.535645,-0.08984375,-0.2246094,-0.2705078,-0.1264648
1398,-32.375,-31.9375,310,0.3417969,1.613281,-0.1860352,-0.237793,-0.2519531,-0.1235352
1402,-51.8125,1.875,321.8125,0.3417969,1.489258,-0.2016602,-0.2578125,-0.2255859,-0.125
1406,-61.8125,21.25,321.75,0.2373047,1.255859,-0.1743164,-0.2744141,-0.1967773,-0.1279297
1410,-57.125,25.1875,319.75,0.125,1.030762,-0.1401367,-0.2841797,-0.1782227,-0.1303711
1414,-46.3125,22.6875,319.625,0.1557617,0.8598633,-0.1166992,-0.293457,-0.1479492,-0.1347656
1418,-46.5,25.25,310.5,0.1831055,0.9375,-0.09765625,-0.3041992,-0.1166992,-0.1386719
1422,-52.125,25.3125,294.6875,0.2412109,0.8168945,-0.07861328,-0.3081055,-0.09570313,-0.1401367
1426,-44.75,36.25,308.875,0.2836914,0.6538086,-0.07080078,-0.3125,-0.06591797,-0.1425781
1430,-37.6875,36.375,305.9375,0.2138672,0.5449219,-0.05908203,-0.3105469,-0.03173828,-0.1494141
1434,-35.875,40.4375,300.4375,0.2490234,0.4013672,-0.04003906,-0.3105469,-0.01318359,-0.1508789
1438,-33.0625,31.875,276.4375,0.1674805,0.1953125,-0.06689453,-0.3066406,0.01757813,-0.1538086
1442,-22.3125,24.4375,261.3125,0.1713867,0.07861328,-0.02050781,-0.2998047,0.04394531,-0.1547852
1446,-15.375,23.8125,252.25,0.2607422,-0.04541016,0.02490234,-0.293457,0.06103516,-0.15625
1450,-11.625,29.125,237.25,0.2875977,-0.1230469,0.03271484,-0.2851563,0.08251953,-0.1591797
1454,-19.75,37.875,218.6875,0.2875977,-0.1499023,0.08251953,-0.2744141,0.1035156,-0.1606445
1458,-30.125,49.5625,194.5625,0.3032227,-0.3637695,0.125,-0.2675781,0.1152344,-0.1616211
1462,-40.1875,62.125,164.5625,0.2836914,0.1835938,0.1713867,-0.2553711,0.1323242,-0.1660156
1466,-34.75,67.9375,153.375,0.1171875,-0.8027344,0.1210938,-0.2446289,0.1474609,-0.1674805
1470,-15.625,52.1875,135.9375,-0.02978516,-0.9736328,0.1367188,-0.237793,0.15625,-0.1699219
1474,-0.3125,42.9375,111.3125,0.109375,-0.9506836,0.1635742,-0.2294922,0.1650391,-0.1713867
1478,0.375,47.9375,78.3125,0.1831055,-0.8764648,0.1713867,-0.21875,0.1738281,-0.1767578
1482,-13.25,58.75,34.9375,0.1987305,-0.8535156,0.1904297,-0.2163086,0.1748047,-0.1782227
1486,-22.625,63.8125,-9.1875,0.09375,-0.9970703,0.2133789,-0.2128906,0.1772461,-0.1806641
1490,-12.25,57.3125,-35.0625,-0.006347656,-1.086426,0.2749023,-0.2089844,0.1762695,-0.1821289
1494,5,32.4375,-59.1875,-0.07617188,-1.008789,0.3134766,-0.2104492,0.1748047,-0.1850586
1498,21.4375,-7.9375,-88.6875,0.0009765625,-0.8803711,0.390625,-0.2138672,0.1713867,-0.1865234
1502,34.0625,-44.1875,-119.5625,0.190918,-0.6748047,0.3789063,-0.2197266,0.1625977,-0.1889648
1506,40.0625,-61.625,-129.9375,0.3769531,-0.5112305,0.3291016,-0.2270508,0.1577148,-0.1865234
1510,39.375,-57.125,-128.9375,0.5395508,-0.4140625,0.2402344,-0.2363281,0.1435547,-0.1850586
1514,31.8125,-35.0625,-122.5,0.6557617,-0.3833008,0.1557617,-0.2460938,0.1337891,-0.1821289
1518,26.125,-11.25,-133.125,0.6289063,-0.3793945,0.1674805,-0.2519531,0.125,-0.1821289
1522,14.75,-6.4375,-164.6875,0.5473633,-0.2626953,0.1713867,-0.2568359,0.1123047,-0.1806641
1527,9.0625,-14.9375,-199.3125,0.5200195,-0.2783203,0.1982422,-0.2661133,0.09765625,-0.1806641
1531,17.375,-24.9375,-205,0.4580078,-0.2587891,0.1713867,-0.2700195,0.08398438,-0.1806641
1535,38.375,-28.6875,-188.1875,0.4853516,-0.2509766,0.1826172,-0.2783203,0.06738281,-0.1806641
1539,57.6875,-30.4375,-175.8125,0.5356445,-0.03369141,0.1748047,-0.2841797,0.04736328,-0.1767578
1543,45.6875,-30,-184.3125,0.6210938,0.3388672,0.1367188,-0.2890625,0.03613281,-0.1782227
1547,16.25,-17.625,-210.625,0.9272461,0.6733398,0.1518555,-0.293457,0.01611328,-0.1738281
1551,-13.4375,14.3125,-227.6875,0.9077148,0.300293,0.140625,-0.2958984,-0.004394531,-0.1767578
1555,-26.6875,42.9375,-233.9375,0.7954102,0.2651367,0.1635742,-0.2983398,-0.01806641,-0.1767578
1559,-22.0625,50.4375,-226.25,0.5239258,0.253418,0.2788086,-0.293457,-0.03710938,-0.1796875
1563,-13.875,33.6875,-229.1875,0.4506836,0.3544922,0.340332,-0.2915039,-0.05566406,-0.1835938
1567,-12.625,20,-242.5625,0.4116211,0.4594727,0.3789063,-0.2890625,-0.06933594,-0.1875
1571,0.1875,3.625,-258.9375,0.3496094,0.3779297,0.3867188,-0.2841797,-0.09179688,-0.1865234
1575,26.3125,-7.375,-239.4375,0.2758789,0.4321289,0.340332,-0.2807617,-0.1142578,-0.1875
1579,53.25,-5.625,-203.4375,0.4077148,0.5253906,0.2983398,-0.2768555,-0.1308594,-0.1865234
1583,69.5625,0.875,-190.125,0.3339844,0.793457,0.2441406,-0.2700195,-0.1508789,-0.1850586
1587,45.3125,-6.375,-213.3125,0.2797852,1.193848,0.2133789,-0.2636719,-0.1694336,-0.1806641
1591,15.8125,-10.25,-258.5625,0.4077148,1.158691,0.2441406,-0.2568359,-0.1821289,-0.1796875
1595,19.6875,-4.5625,-255.0625,0.2915039,0.9916992,0.2788086,-0.2446289,-0.203125,-0.1796875
1599,46.1875,-0.4375,-203.875,0.2529297,0.9257813,0.2636719,-0.2329102,-0.2246094,-0.1782227
1603,68.6875,9.9375,-163.8125,0.2954102,0.921875,0.1826172,-0.2255859,-0.2329102,-0.1738281
1607,70.3125,23.125,-159.4375,0.2216797,1.034668,0.05957031,-0.215332,-0.2480469,-0.1728516
1611,35,33.75,-194.6875,0.175293,1.189941,-0.02832031,-0.203125,-0.2631836,-0.1699219
1615,-1.0625,45.5,-253.125,0.1328125,1.084961,0.04052734,-0.1938477,-0.2705078,-0.1728516
1619,-0.5,47.4375,-274.6875,-0.1069336,0.9760742,0.1367188,-0.1733398,-0.2880859,-0.1738281
1623,35.125,37.4375,-243.6875,-0.230957,0.8828125,0.2060547,-0.1494141,-0.2983398,-0.1767578
1627,67.5625,35.5625,-203.625,-0.2041016,1.088867,0.1557617,-0.1401367,-0.3081055,-0.175293
1631,73.4375,41.5625,-190.6875,-0.1650391,1.174316,0.09033203,-0.1210938,-0.3208008,-0.1728516
1635,65.8125,51.9375,-200.875,-0.230957,1.294922,0.04443359,-0.1030273,-0.3320313,-0.1660156
1639,34.875,58.625,-231.5,-0.3510742,1.454102,0.009765625,-0.08886719,-0.3369141,-0.1645508
1643,19.25,63.1875,-251.25,-0.4091797,1.251953,0.07519531,-0.06640625,-0.3442383,-0.1630859
1647,31.5625,64.25,-244.6875,-0.5410156,1.248047,0.140625,-0.04150391,-0.3491211,-0.1630859
1651,45.5,62.875,-219.5625,-0.5644531,1.442383,0.2133789,-0.0234375,-0.3530273,-0.1591797
1656,41.8125,61.6875,-198.5,-0.5605469,1.617188,0.2558594,-0.003417969,-0.3569336,-0.15625
1660,33.4375,55.9375,-183.875,-0.5175781,1.667969,0.2636719,0.01660156,-0.3569336,-0.1523438
1664,26.5625,46.25,-175.0625,-0.4248047,1.671875,0.2558594,0.03076172,-0.359375,-0.1494141
1668,23,36.625,-156.9375,-0.3393555,1.675781,0.2944336,0.04736328,-0.3579102,-0.1494141
1672,25.75,28,-123.0625,-0.262207,1.621094,0.3520508,0.06298828,-0.3554688,-0.1455078
1676,29.8125,19.25,-78.0625,-0.1728516,1.609375,0.3598633,0.06787109,-0.3569336,-0.1425781
1680,25.4375,21.6875,-45,-0.03710938,1.605469,0.3828125,0.07617188,-0.3554688,-0.1401367
1684,9.875,29.5,-28.9375,0.01269531,1.59375,0.425293,0.07958984,-0.3554688,-0.1401367
1688,-9.8125,35.875,-19.9375,-0.09521484,1.555176,0.4711914,0.08203125,-0.3544922,-0.137207
1692,-25.125,29.625,-9,-0.2001953,1.430664,0.5366211,0.08544922,-0.3530273,-0.1386719
1696,-20.4375,18.125,6.1875,-0.2734375,1.279297,0.5556641,0.08447266,-0.3520508,-0.1386719
1700,-6.875,-2.5625,20.4375,-0.347168,1.263672,0.5019531,0.08691406,-0.3520508,-0.1386719
1704,4.0625,-24.6875,36,-0.2851563,1.321777,0.3789063,0.08447266,-0.3544922,-0.1416016
1708,10.4375,-37.5625,55.0625,-0.1962891,1.384277,0.2675781,0.07861328,-0.3579102,-0.1416016
1712,12.4375,-42.1875,81.125,-0.1264648,1.442383,0.1787109,0.07373047,-0.3554688,-0.1386719
1716,9.5625,-35.8125,106.0625,-0.07617188,1.527832,0.1518555,0.06152344,-0.3569336,-0.1401367
1720,-2.75,-31.4375,123.8125,-0.1728516,1.640625,0.1518555,0.05224609,-0.359375,-0.1416016
1724,-17.625,-31.625,144.625,-0.230957,1.625,0.1943359,0.04492188,-0.359375,-0.1401367
1728,-20.5,-30.9375,165.8125,-0.2734375,1.504395,0.2480469,0.02978516,-0.3618164,-0.1425781
1732,-15.6875,-35.625,185.375,-0.3549805,1.52002,0.2788086,0.01269531,-0.3603516,-0.1455078
1736,-10.25,-41.375,211.375,-0.3354492,1.547363,0.3442383,-0.001953125,-0.3603516,-0.1455078
1740,-4.4375,-45.0625,239.1875,-0.2851563,1.586426,0.3291016,-0.02246094,-0.359375,-0.1469727
1744,-5.3125,-44.0625,253.3125,-0.2119141,1.683105,0.2944336,-0.04492188,-0.3554688,-0.1455078
1748,-18.5625,-41.1875,258.3125,-0.1689453,1.745605,0.2749023,-0.06494141,-0.3530273,-0.1455078
1752,-32.3125,-33,265.4375,-0.1069336,1.714355,0.2675781,-0.08886719,-0.3442383,-0.1455078
1756,-36.8125,-28,272.8125,-0.1030273,1.605469,0.2290039,-0.1137695,-0.3344727,-0.1494141
1760,-33.25,-24.8125,282.375,-0.08007813,1.527832,0.1635742,-0.128418,-0.3256836,-0.1508789
1764,-28.1875,-20.625,291.9375,-0.02978516,1.49707,0.08251953,-0.1542969,-0.3144531,-0.1538086
1768,-38.375,-8.625,281.75,0.1674805,1.640625,0.02490234,-0.1772461,-0.2944336,-0.1538086
1772,-70,14.9375,266.875,0.2568359,1.621094,-0.01660156,-0.1899414,-0.2841797,-0.1547852
1776,-82.25,37.75,266.875,0.125,1.430664,0.04785156,-0.2080078,-0.2631836,-0.1591797
1780,-81.9375,32.8125,280.4375,-0.1147461,1.197754,0.09033203,-0.2236328,-0.2416992,-0.1699219
1785,-56.75,6.9375,298.125,-0.2270508,0.9453125,0.1367188,-0.2329102,-0.2270508,-0.1728516
1789,-27.5,-24.875,297,-0.03320313,0.8984375,0.140625,-0.2470703,-0.203125,-0.1738281
1793,-22.625,-35.875,286.625,0.1791992,0.9604492,0.06347656,-0.2636719,-0.1782227,-0.1728516
1797,-23.9375,-30.3125,274.1875,0.3613281,0.9101563,0.05957031,-0.2724609,-0.1630859,-0.1713867
1801,-28.6875,-15.3125,276.375,0.4194336,0.90625,0.001953125,-0.2841797,-0.1367188,-0.1699219
1805,-27.875,0.25,284.3125,0.4077148,0.8168945,0.001953125,-0.2890625,-0.1083984,-0.1699219
1809,-29.4375,6.0625,277.875,0.3847656,0.6733398,0.02099609,-0.2949219,-0.09179688,-0.168457
1813,-28.25,6.4375,269.6875,0.3339844,0.5527344,0.04785156,-0.2983398,-0.06591797,-0.1713867
1817,-20.4375,5,265.25,0.3730469,0.4243164,0.09423828,-0.2998047,-0.03955078,-0.1728516
1821,-20,7.75,253.75,0.4350586,0.4946289,0.1020508,-0.2973633,-0.02050781,-0.1713867
1825,-23.875,17.8125,252.5,0.5668945,0.4204102,0.1210938,-0.2983398,0.002441406,-0.1738281
1829,-32.3125,37.875,253.9375,0.5356445,0.4516602,0.1132813,-0.2915039,0.02734375,-0.175293
1833,-42.625,42.75,244.75,0.3925781,0.253418,0.144043,-0.2866211,0.04394531,-0.1767578
1837,-39.8125,40.4375,242.8125,0.3149414,-0.01025391,0.1787109,-0.2783203,0.06738281,-0.1796875
1841,-35.25,35.0625,226,0.3110352,-0.09960938,0.1748047,-0.2685547,0.08740234,-0.1796875
1845,-30.1875,23.8125,203.75,0.2294922,-0.1889648,0.1713867,-0.2636719,0.1025391,-0.1806641
1849,-15.5,2.4375,203.875,0.2915039,-0.3095703,0.1865234,-0.2519531,0.1186523,-0.1821289
1853,4.0625,-2.25,211.5,0.4697266,-0.2626953,0.2172852,-0.2426758,0.1362305,-0.1835938
1857,-0.875,4.1875,210.3125,0.5976563,-0.1577148,0.1674805,-0.2363281,0.1459961,-0.1806641
1861,-15.625,28.75,203.8125,0.690918,-0.3095703,0.1748047,-0.2236328,0.1611328,-0.1835938
1865,-32.75,60.8125,185.25,0.559082,-0.4067383,0.1557617,-0.2104492,0.1762695,-0.1835938
1869,-61.4375,85.3125,159.75,0.3496094,-0.6591797,0.1748047,-0.199707,0.1850586,-0.1850586
1873,-67.8125,99.4375,131.125,-0.02978516,-1.040039,0.144043,-0.1865234,0.1972656,-0.1865234
1877,-44.1875,80.6875,107,-0.378418,-1.408691,0.1982422,-0.1723633,0.2050781,-0.1889648
1881,-14.375,51.6875,75.3125,-0.4672852,-1.513672,0.2021484,-0.1650391,0.2124023,-0.1889648
1885,-1.8125,29.125,22.6875,-0.3823242,-1.405273,0.1904297,-0.1582031,0.2163086,-0.1904297
1889,1.6875,14.25,-37.5,-0.230957,-1.265137,0.2211914,-0.1542969,0.2138672,-0.1918945
1893,8.875,-0.375,-87.3125,-0.1342773,-1.070801,0.2944336,-0.1591797,0.2124023,-0.1918945
1897,17.625,-20.1875,-117.375,0.008789063,-0.8183594,0.3789063,-0.1650391,0.2099609,-0.1928711
1901,25.4375,-32.5,-119.875,0.206543,-0.5698242,0.3789063,-0.1748047,0.2011719,-0.1918945
1905,26.875,-30.9375,-108.25,0.4272461,-0.4804688,0.3212891,-0.1831055,0.1948242,-0.1918945
1909,20.375,-19.3125,-113.375,0.5126953,-0.4804688,0.2402344,-0.1875,0.1875,-0.1918945
1914,9.25,-5.875,-136.25,0.5161133,-0.519043,0.1787109,-0.2006836,0.1801758,-0.1918945
1918,0.4375,5.5625,-163,0.4697266,-0.5737305,0.1826172,-0.2055664,0.1713867,-0.1918945
1922,5.6875,7.75,-179.6875,0.3925781,-0.5966797,0.2211914,-0.215332,0.1625977,-0.1928711
1926,21.625,-2.25,-188.3125,0.3188477,-0.5112305,0.2441406,-0.2255859,0.1499023,-0.1928711
1930,40.9375,-18,-181.1875,0.3847656,-0.3637695,0.2944336,-0.2319336,0.1401367,-0.1928711
1934,54.4375,-26.3125,-168.75,0.543457,-0.1928711,0.2709961,-0.2436523,0.125,-0.1958008
1938,51.1875,-15.9375,-165.6875,0.7060547,-0.05664063,0.2519531,-0.2485352,0.1049805,-0.1958008
1942,31.25,3.0625,-184.125,0.7836914,0.06689453,0.2172852,-0.2568359,0.09619141,-0.1928711
1946,12.5625,19.5,-203,0.7412109,-0.006347656,0.2402344,-0.2626953,0.07861328,-0.199707
1950,21.8125,22.375,-198,0.574707,-0.09570313,0.2905273,-0.2675781,0.06103516,-0.199707
1954,51,9.25,-169.1875,0.5009766,-0.1347656,0.3095703,-0.2709961,0.05126953,-0.2026367
1958,72.125,-5.4375,-158.0625,0.5668945,0.1367188,0.2944336,-0.2744141,0.03271484,-0.2026367
1962,48.75,-10.875,-185.6875,0.7451172,0.4052734,0.2250977,-0.2744141,0.01611328,-0.2041016
1966,18.0625,10.4375,-217.625,0.8769531,0.4243164,0.2368164,-0.2792969,0.001464844,-0.2041016
1970,6.125,27.625,-211.9375,0.7373047,0.3544922,0.3364258,-0.2792969,-0.01708984,-0.2026367
1974,31.6875,22.3125,-184.9375,0.559082,0.3193359,0.3979492,-0.2783203,-0.03320313,-0.2080078
1978,58.0625,3.9375,-161.875,0.5512695,0.4321289,0.409668,-0.2768555,-0.04833984,-0.2080078
1982,70.625,-11.75,-150.25,0.6132813,0.5566406,0.3598633,-0.2768555,-0.06591797,-0.2080078
1986,54.1875,-12.75,-168.3125,0.7451172,0.7431641,0.2709961,-0.2758789,-0.08203125,-0.206543
1990,30.25,4.5,-182.625,0.8300781,0.7666016,0.2402344,-0.2734375,-0.09423828,-0.2026367
1994,17.6875,32.125,-176.0625,0.7529297,0.6884766,0.2749023,-0.2675781,-0.1118164,-0.206543
1998,30.5625,33.625,-161.625,0.4853516,0.5175781,0.3173828,-0.2626953,-0.1254883,-0.2080078
2002,63.5,16.125,-142.5625,0.3417969,0.5214844,0.3481445,-0.2592773,-0.1367188,-0.2094727
2006,65.1875,-5.3125,-155.5625,0.3808594,0.7314453,0.2597656,-0.2519531,-0.1518555,-0.206543
2010,57.3125,-0.75,-167.4375,0.5317383,0.8671875,0.2519531,-0.2470703,-0.1679688,-0.2055664
2014,42.9375,12.5,-175.625,0.4892578,0.8984375,0.2441406,-0.2426758,-0.1791992,-0.2011719
2018,45.125,18.8125,-173.125,0.3886719,0.8710938,0.2709961,-0.2329102,-0.1943359,-0.2026367
2022,66.6875,10.5,-150.1875,0.2451172,0.8598633,0.3017578,-0.2255859,-0.2080078,-0.2026367
2026,89.5625,-10.8125,-133.8125,0.1831055,0.9838867,0.2827148,-0.21875,-0.2192383,-0.1987305
2030,77.125,-23.9375,-150.625,0.3886719,1.20166,0.2021484,-0.2138672,-0.2319336,-0.1928711
2034,54.4375,1.625,-152.75,0.5859375,1.221191,0.159668,-0.2045898,-0.2441406,-0.1889648
2038,31.6875,30.6875,-153.75,0.3999023,1.073242,0.144043,-0.199707,-0.2543945,-0.1850586
2043,47.1875,25.625,-149.25,0.07080078,0.7587891,0.2290039,-0.1875,-0.2641602,-0.1865234
2047,82.875,-9.875,-144.0625,-0.08007813,0.9375,0.2519531,-0.1772461,-0.2744141,-0.1821289
2051,87.25,-33.0625,-142.6875,0.1635742,1.275391,0.2250977,-0.1708984,-0.2841797,-0.1782227
2055,67.25,-19.25,-143.6875,0.3652344,1.469727,0.1904297,-0.1616211,-0.296875,-0.1699219
2059,41.75,4.1875,-139.8125,0.3535156,1.395996,0.1674805,-0.1508789,-0.3041992,-0.1660156
2063,35.1875,15.1875,-135.875,0.1557617,1.150879,0.1098633,-0.1435547,-0.3105469,-0.1616211
2067,40.625,14.125,-136.875,0.06298828,1.057617,0.06738281,-0.1328125,-0.3193359,-0.1616211
2071,46.9375,11.3125,-141.5,0.04736328,1.030762,0.04052734,-0.1210938,-0.3266602,-0.1591797
2075,44.625,15.6875,-151.4375,0.03564453,1.158691,0.03662109,-0.112793,-0.3320313,-0.15625
2079,37.3125,20.875,-155.9375,-0.002441406,1.166504,0.04052734,-0.09960938,-0.3393555,-0.1538086
2083,40,29.9375,-152.3125,-0.01416016,1.189941,0.05957031,-0.08300781,-0.3442383,-0.1508789
2087,39.6875,34.625,-148.6875,-0.08398438,1.287109,0.04785156,-0.07470703,-0.3481445,-0.1484375
2091,40.4375,33.8125,-140.75,-0.08789063,1.310547,0.07519531,-0.06152344,-0.3520508,-0.1469727
2095,37.6875,32.375,-138.125,-0.1186523,1.418945,0.09423828,-0.04589844,-0.3569336,-0.144043
2099,28.875,24.4375,-137.5625,-0.1069336,1.454102,0.1367188,-0.03662109,-0.359375,-0.1425781
2103,25.625,19.1875,-123.5,-0.07226563,1.43457,0.1518555,-0.02490234,-0.3632813,-0.1386719
2107,28.625,16.625,-97.25,0.004882813,1.446289,0.1904297,-0.01269531,-0.3632813,-0.1347656
2111,27.25,17.375,-71.5625,0.06298828,1.477539,0.2368164,-0.005859375,-0.3657227,-0.1333008
2115,18.4375,16,-59.4375,0.07470703,1.485352,0.2827148,-0.0009765625,-0.3642578,-0.1347656
2119,10.375,15.8125,-47.6875,0.1328125,1.442383,0.3710938,0.004394531,-0.3666992,-0.1289063
2123,2.5625,15.25,-36.625,0.109375,1.446289,0.4057617,0.009277344,-0.3666992,-0.1303711
2127,-2.0625,8.75,-17.875,0.08251953,1.418945,0.4560547,0.01269531,-0.3666992,-0.1303711
2131,-0.1875,-2.6875,6,0.04345703,1.422852,0.4829102,0.01416016,-0.3657227,-0.1289063
2135,-0.9375,-20.8125,24.5,0.02441406,1.469727,0.409668,0.01269531,-0.3666992,-0.1318359
2139,-0.3125,-34.9375,44.1875,0.09375,1.450195,0.3330078,0.008300781,-0.3681641,-0.1303711
2143,-1.0625,-41.9375,62.875,0.1484375,1.504395,0.2402344,0.002441406,-0.3681641,-0.1318359
2147,-6.125,-41.875,82.3125,0.190918,1.574707,0.1943359,-0.003417969,-0.3657227,-0.1303711
2151,-11.25,-40.1875,104.875,0.1674805,1.59375,0.1904297,-0.01171875,-0.3666992,-0.1318359
2155,-16.4375,-39.8125,122.6875,0.140625,1.664063,0.1943359,-0.02490234,-0.3642578,-0.1333008
2159,-25,-41.875,139.5625,0.1015625,1.667969,0.1982422,-0.03320313,-0.3632813,-0.1333008
2163,-29.4375,-42.5625,155.75,0.1132813,1.652344,0.1865234,-0.04833984,-0.3618164,-0.1347656
2167,-34.75,-37.9375,172.5625,0.1210938,1.640625,0.1787109,-0.06298828,-0.3554688,-0.137207
2172,-40.6875,-30.75,184.0625,0.08642578,1.667969,0.1713867,-0.07568359,-0.3520508,-0.1386719
2176,-48.125,-23.5625,194.125,0.08251953,1.613281,0.1748047,-0.09375,-0.3466797,-0.1416016
2180,-49.125,-22.4375,199.5625,0.05908203,1.543457,0.1865234,-0.1103516,-0.3354492,-0.1469727
2184,-49.3125,-24.6875,203.875,0.04345703,1.531738,0.1787109,-0.1220703,-0.3305664,-0.1469727
2188,-48.875,-29.375,209.1875,0.08251953,1.539551,0.1865234,-0.1401367,-0.3178711,-0.1484375
2192,-51.0625,-30.5625,212.75,0.140625,1.531738,0.1787109,-0.1582031,-0.3066406,-0.1538086
2196,-54.0625,-25.125,224.9375,0.2294922,1.500488,0.125,-0.1723633,-0.2993164,-0.1547852
2200,-60.3125,-10,235.25,0.2607422,1.454102,0.09423828,-0.1875,-0.2832031,-0.1577148
2204,-67.75,-5.4375,232.9375,0.1831055,1.376465,0.07910156,-0.2055664,-0.2670898,-0.1616211
2208,-68.625,-7.4375,229.8125,0.1445313,1.174316,0.07910156,-0.2163086,-0.2543945,-0.1645508
2212,-55.5625,-16.4375,222.75,0.109375,1.026855,0.09814453,-0.2294922,-0.2358398,-0.1674805
2216,-48.6875,-23.6875,221.1875,0.1132813,1.124023,0.07519531,-0.2426758,-0.2182617,-0.1674805
2220,-56.3125,-27,236.9375,0.159668,1.108398,0.02880859,-0.2509766,-0.2045898,-0.168457
2224,-62.875,-9.5625,239.25,0.3652344,0.9492188,0.05957031,-0.2626953,-0.1831055,-0.1699219
2228,-83.8125,8.8125,219.1875,0.2797852,0.9916992,-0.03222656,-0.2724609,-0.1591797,-0.1699219
2232,-99.4375,17.1875,204.125,0.2724609,0.6733398,-0.01318359,-0.2768555,-0.1455078,-0.1738281
2236,-78.6875,18.4375,207,0.1289063,0.3505859,0.06347656,-0.2817383,-0.1206055,-0.175293
2240,-43.6875,-5.0625,208.75,0.03955078,0.3505859,0.09033203,-0.2866211,-0.1005859,-0.1796875
2244,-23.6875,-20.125,210.4375,0.2646484,0.3779297,0.105957,-0.2900391,-0.08544922,-0.1782227
2248,-10.5625,-19.6875,206.75,0.4272461,0.4868164,0.09814453,-0.2924805,-0.06689453,-0.1782227
2252,-14.5625,-10.875,200.625,0.5239258,0.5527344,0.1328125,-0.2949219,-0.04833984,-0.1767578
2256,-15.8125,-5.8125,192.8125,0.5473633,0.5332031,0.1328125,-0.2973633,-0.03564453,-0.1767578
2260,-21.8125,0.75,197.5625,0.5708008,0.4672852,0.1635742,-0.2958984,-0.015625,-0.1767578
2264,-21.5625,5.6875,205.75,0.543457,0.2729492,0.1748047,-0.293457,0.004882813,-0.1767578
2268,-18.875,8.5,205.8125,0.5161133,0.1137695,0.2060547,-0.293457,0.01855469,-0.1782227
2272,-17.9375,8.5625,193.5,0.5087891,-0.02197266,0.2480469,-0.2890625,0.03759766,-0.1767578
2276,-16.5625,5.8125,177.3125,0.5200195,-0.06835938,0.2250977,-0.2851563,0.05615234,-0.1796875
2280,-16.8125,7.375,171.125,0.5048828,-0.1811523,0.2290039,-0.2817383,0.06640625,-0.1782227
2284,-8.5,3.1875,170.875,0.5126953,-0.3017578,0.2558594,-0.2768555,0.08105469,-0.1767578
2288,5.5625,2,173.125,0.574707,-0.340332,0.2441406,-0.2685547,0.09521484,-0.1782227
2292,6.25,4.625,168.25,0.6171875,-0.3989258,0.2133789,-0.2626953,0.1049805,-0.1782227
2296,-2.625,18.0625,156.0625,0.7138672,-0.2431641,0.2329102,-0.2568359,0.1176758,-0.1782227
2301,-19.1875,33.3125,145.1875,0.7138672,-0.3364258,0.1982422,-0.2495117,0.1298828,-0.1796875
2305,-28.1875,51.75,133,0.6362305,-0.503418,0.1982422,-0.2426758,0.1376953,-0.1821289
2309,-30.875,61,114.25,0.527832,-0.6708984,0.2368164,-0.234375,0.1489258,-0.1835938
2313,-29.5,66.25,96.375,0.4311523,-0.6899414,0.2368164,-0.2236328,0.1577148,-0.1875
2317,-36.0625,66.8125,73.5,0.3535156,-0.7407227,0.2172852,-0.2197266,0.1635742,-0.1889648
2321,-37.125,64.625,45.625,0.2568359,-0.8647461,0.2480469,-0.2114258,0.1689453,-0.1904297
2325,-32.4375,50.75,22.5,0.09033203,-0.9428711,0.2558594,-0.206543,0.1738281,-0.1928711
2329,-21.1875,31.5625,0.1875,0.06689453,-1.062988,0.2519531,-0.2045898,0.1748047,-0.1928711
2333,-8.75,16.25,-34.5,0.109375,-1.02832,0.2519531,-0.2021484,0.1762695,-0.1928711
2337,-0.5,-1.75,-71.5625,0.1484375,-0.9311523,0.2597656,-0.2045898,0.1738281,-0.1928711
2341,9.4375,-18.9375,-98.4375,0.2490234,-0.7680664,0.2788086,-0.2080078,0.1699219,-0.1918945
2345,20.0625,-32,-105.875,0.3378906,-0.5966797,0.2709961,-0.2163086,0.1625977,-0.1918945
2349,25.3125,-41.1875,-103.25,0.4619141,-0.4921875,0.2519531,-0.2236328,0.1538086,-0.1904297
2353,26.625,-37.75,-103.875,0.6015625,-0.4453125,0.1982422,-0.2304688,0.1489258,-0.1918945
2357,19.75,-23.3125,-117.3125,0.6635742,-0.3911133,0.1943359,-0.2363281,0.1376953,-0.1889648
2361,12.125,-14.75,-140.3125,0.6015625,-0.402832,0.1982422,-0.2436523,0.1289063,-0.1875
2365,13.8125,-13.75,-156.5,0.5551758,-0.421875,0.2368164,-0.2485352,0.1201172,-0.1875
2369,25.0625,-19.9375,-161.3125,0.5161133,-0.3442383,0.2250977,-0.2553711,0.1064453,-0.1875
2373,32.8125,-20.9375,-151,0.59375,-0.2124023,0.1713867,-0.2651367,0.09228516,-0.1865234
2377,35.125,-7.375,-144.9375,0.7373047,-0.1889648,0.1904297,-0.2685547,0.08251953,-0.1865234
2381,30.4375,6.5,-161.0625,0.7216797,-0.05664063,0.1787109,-0.2734375,0.06884766,-0.1875
2385,14.625,17.25,-187.0625,0.7177734,0.004882813,0.1865234,-0.2792969,0.05273438,-0.1904297
2389,11.125,23.6875,-200.375,0.625,-0.04150391,0.2402344,-0.2792969,0.04150391,-0.1889648
2393,23.1875,19,-197.125,0.5356445,0.01269531,0.2749023,-0.2807617,0.02148438,-0.1928711
2397,47.25,6.6875,-176.875,0.543457,0.1484375,0.2749023,-0.2841797,0.00390625,-0.1928711
2401,66,5.625,-146.1875,0.6479492,0.2807617,0.2441406,-0.2851563,-0.008300781,-0.1958008
2405,57.125,6.0625,-162.1875,0.6401367,0.6069336,0.2133789,-0.2851563,-0.02587891,-0.1972656
2409,32.0625,6.625,-190.125,0.7373047,0.5292969,0.2402344,-0.2851563,-0.04296875,-0.1987305
2413,31.5,15.75,-196.4375,0.6557617,0.5097656,0.2749023,-0.2841797,-0.0546875,-0.1958008
2417,36.9375,14.75,-181.875,0.609375,0.6616211,0.2749023,-0.2792969,-0.07421875,-0.199707
2421,44.3125,25.4375,-144.6875,0.7060547,0.6108398,0.2749023,-0.2768555,-0.09082031,-0.199707
2425,54.9375,36.3125,-128,0.6054688,0.5332031,0.2597656,-0.2734375,-0.1005859,-0.199707
2430,44.6875,27.5,-157.125,0.3959961,0.777832,0.2290039,-0.2685547,-0.1157227,-0.1987305
2434,32.0625,12.9375,-194.1875,0.5126953,0.5332031,0.2983398,-0.2636719,-0.1333008,-0.2026367
2438,48.8125,15.125,-196.6875,0.4272461,0.5913086,0.2944336,-0.2568359,-0.1455078,-0.2026367
2442,57.6875,5.375,-182.6875,0.3378906,0.7275391,0.2788086,-0.2509766,-0.1630859,-0.2026367
2446,79.1875,2,-159.8125,0.3730469,0.6845703,0.3173828,-0.2426758,-0.1806641,-0.2011719
2450,100.625,-3.4375,-143.0625,0.3535156,0.8671875,0.2636719,-0.2402344,-0.1918945,-0.1972656
2454,94.3125,-5.8125,-139.25,0.3769531,1.077148,0.2250977,-0.2329102,-0.2070313,-0.1918945
2458,68.9375,-2.875,-162.75,0.4233398,1.146973,0.1865234,-0.2270508,-0.2207031,-0.1850586
2462,49.875,5.5625,-178.75,0.4194336,1.019043,0.2172852,-0.2197266,-0.2304688,-0.1850586
2466,54.875,10.125,-170.0625,0.2954102,1.01123,0.2290039,-0.2089844,-0.2456055,-0.1835938
2470,67.875,4.75,-152.25,0.2875977,1.09668,0.2402344,-0.1982422,-0.2607422,-0.1806641
2474,71.8125,3.1875,-140.5,0.3188477,1.279297,0.1982422,-0.1923828,-0.2670898,-0.1782227
2478,52.4375,10.0625,-140.1875,0.4116211,1.364746,0.1367188,-0.1831055,-0.2807617,-0.1728516
2482,29.8125,32.25,-149.5625,0.4272461,1.263672,0.1367188,-0.1723633,-0.2895508,-0.1713867
2486,15.0625,43.5,-160.5,0.2104492,1.143066,0.1289063,-0.1625977,-0.2929688,-0.1713867
2490,26.875,32.625,-158.625,0.04345703,0.9492188,0.1713867,-0.1484375,-0.3032227,-0.1713867
2494,54.125,17.5,-146.0625,0.008789063,1.034668,0.1787109,-0.1352539,-0.3105469,-0.1699219
2498,61,8.1875,-136.8125,0.07470703,1.259766,0.1557617,-0.1269531,-0.3178711,-0.1660156
2502,47,13,-137.125,0.1484375,1.411133,0.1635742,-0.1152344,-0.3256836,-0.1645508
2506,25.5625,23.1875,-143.9375,0.1210938,1.372559,0.1479492,-0.1030273,-0.3320313,-0.1606445
2510,15.3125,33.1875,-145.875,0.07470703,1.255859,0.1171875,-0.09619141,-0.3369141,-0.1616211
2514,14.875,35.5625,-142.3125,-0.01416016,1.158691,0.08642578,-0.07958984,-0.3393555,-0.1591797
2518,22.4375,35.8125,-137.1875,-0.04492188,1.116211,0.09423828,-0.06640625,-0.3466797,-0.1606445
2522,26.9375,37.0625,-132.8125,-0.08007813,1.20166,0.1171875,-0.05810547,-0.3466797,-0.1591797
2526,24,37.3125,-126.875,-0.1303711,1.251953,0.1557617,-0.04394531,-0.3520508,-0.15625
2530,25.0625,31.875,-118.3125,-0.1767578,1.209473,0.2172852,-0.03320313,-0.3544922,-0.1547852
2534,27.25,27.25,-109.375,-0.1689453,1.279297,0.2172852,-0.02490234,-0.3554688,-0.1538086
2538,23.5,25.3125,-100.5,-0.09130859,1.345215,0.2060547,-0.01269531,-0.3579102,-0.1494141
2542,15.5625,22.125,-93.25,-0.07226563,1.380371,0.2060547,-0.001953125,-0.359375,-0.1508789
2546,12.25,21.8125,-80.75,-0.01025391,1.364746,0.2441406,0.003417969,-0.3579102,-0.1484375
2550,12.0625,19,-60.3125,-0.03710938,1.407715,0.2866211,0.01074219,-0.3603516,-0.1484375
2554,10.1875,12.5,-39.125,0.008789063,1.450195,0.3442383,0.01513672,-0.359375,-0.1455078
2559,7.0625,7.5,-20.0625,0.02441406,1.508301,0.3979492,0.01904297,-0.359375,-0.1455078
2563,2.4375,-2.625,2.125,0.02441406,1.531738,0.4482422,0.01757813,-0.3603516,-0.1455078
2567,-1.0625,-15.375,21.125,0.02441406,1.555176,0.4672852,0.02001953,-0.359375,-0.1455078
2571,0.1875,-28.0625,49.6875,0.05126953,1.535645,0.4790039,0.01660156,-0.359375,-0.1425781
2575,-0.0625,-36.1875,75.4375,0.08642578,1.578613,0.4521484,0.009277344,-0.359375,-0.1455078
2579,-5,-40.5,95.6875,0.1171875,1.605469,0.4287109,0.0009765625,-0.3603516,-0.1469727
2583,-13.125,-44.5,110.375,0.09375,1.664063,0.3945313,-0.005859375,-0.359375,-0.1469727
2587,-21.5,-50.0625,127.5625,0.09033203,1.636719,0.3520508,-0.01855469,-0.3579102,-0.1469727
2591,-20.5,-51.5,148.4375,0.05517578,1.578613,0.2983398,-0.03417969,-0.3569336,-0.1484375
2595,-15.1875,-53.125,169,0.04345703,1.609375,0.2788086,-0.04248047,-0.3544922,-0.1484375
2599,-18.0625,-53.125,186.875,0.06298828,1.65625,0.2329102,-0.06298828,-0.3520508,-0.1494141
2603,-26.75,-44.6875,200.4375,0.07861328,1.617188,0.1674805,-0.08203125,-0.3466797,-0.1508789
2607,-41.6875,-31.8125,199.625,0.1054688,1.679688,0.125,-0.09375,-0.3408203,-0.1508789
2611,-57.0625,-18.875,198.125,0.06689453,1.605469,0.1210938,-0.1103516,-0.3305664,-0.1538086
2615,-56.875,-16.9375,208.6875,-0.01025391,1.454102,0.1748047,-0.1303711,-0.3208008,-0.1591797
2619,-47.3125,-26.0625,218.625,-0.09130859,1.442383,0.1826172,-0.1411133,-0.3154297,-0.1616211
2623,-32.8125,-45,237.9375,-0.04882813,1.298828,0.1904297,-0.1616211,-0.3007813,-0.1616211
2627,-10.9375,-58.6875,249.3125,0.05908203,1.32959,0.144043,-0.1816406,-0.2866211,-0.1630859
2631,-16.625,-55.4375,252.75,0.2915039,1.450195,0.04443359,-0.1938477,-0.2768555,-0.1591797
2635,-40.125,-26.125,246.125,0.4970703,1.43457,-0.03222656,-0.2138672,-0.2583008,-0.1591797
2639,-66.25,7.125,242.1875,0.4350586,1.302734,-0.05517578,-0.2280273,-0.2407227,-0.1591797
2643,-74.25,22.6875,246.0625,0.2294922,1.045898,-0.02050781,-0.2387695,-0.2280273,-0.1645508
2647,-63.5,13.1875,244.5625,0.1132813,0.8129883,0.03271484,-0.2495117,-0.2070313,-0.1674805
2651,-41.8125,-5.875,238,0.07861328,0.6499023,0.08642578,-0.2626953,-0.1845703,-0.1713867
2655,-20,-21.75,235.3125,0.2255859,0.7314453,0.07519531,-0.2685547,-0.1704102,-0.1699219
2659,-20.9375,-14.375,229.1875,0.4697266,0.8442383,0.02490234,-0.2758789,-0.1494141,-0.168457
2663,-38.5,12.125,225.625,0.559082,0.777832,-0.01660156,-0.2866211,-0.1293945,-0.168457
2667,-51.9375,38.0625,213.6875,0.5126953,0.6420898,-0.001464844,-0.2890625,-0.1132813,-0.1728516
2671,-52.625,49.125,193.0625,0.4038086,0.4790039,0.03271484,-0.2915039,-0.09179688,-0.1767578
2675,-53.75,36.625,181.125,0.1791992,0.5332031,0.08642578,-0.2915039,-0.07324219,-0.1806641
2679,-32.5625,2.0625,192.5625,0.1445313,0.2070313,0.2094727,-0.2924805,-0.05957031,-0.1821289
2683,13.4375,-35.5625,211.25,0.2412109,0.140625,0.1982422,-0.2924805,-0.04199219,-0.1821289
2688,47.5625,-59,224,0.5126953,0.2265625,0.1557617,-0.2958984,-0.02197266,-0.1782227
2692,44.4375,-43,231.375,0.8417969,0.4438477,0.1132813,-0.2973633,-0.009277344,-0.1738281
2696,8.375,-5.6875,214.4375,0.9619141,0.5605469,0.1210938,-0.2958984,0.007324219,-0.1728516
2700,-33.875,29.375,196.6875,0.8496094,0.4907227,0.07910156,-0.293457,0.02734375,-0.1728516
2704,-61.8125,57.5,197.25,0.7060547,0.21875,0.125,-0.2890625,0.04150391,-0.1767578
2708,-63.9375,71.3125,211.875,0.5239258,-0.1381836,0.1328125,-0.2807617,0.0625,-0.1767578
2712,-52.5,79.125,217.375,0.3925781,-0.453125,0.1713867,-0.2709961,0.08251953,-0.1835938
2716,-41.125,80.0625,201.125,0.2104492,-0.7329102,0.05566406,-0.2617188,0.09765625,-0.1865234
2720,-41.25,80.375,164.0625,0.3378906,-0.6005859,0.1865234,-0.2509766,0.1152344,-0.1904297
2724,-45.9375,87.0625,119.875,0.3808594,-0.5893555,0.2172852,-0.2402344,0.1289063,-0.1943359
2728,-66.0625,103.6875,82.25,0.4155273,-0.503418,0.1982422,-0.2319336,0.1347656,-0.1972656
2732,-82.4375,122.8125,54.5,0.3769531,-0.6396484,0.1904297,-0.2236328,0.1435547,-0.2026367
2736,-83.9375,123.5,39.6875,0.08251953,-0.7211914,0.2172852,-0.2138672,0.1538086,-0.2055664
2740,-69.625,88.5,32.5625,-0.09130859,-0.9931641,0.2866211,-0.2089844,0.1586914,-0.2080078
2744,-30.125,45,13.875,-0.1030273,-1.22998,0.3173828,-0.2006836,0.1625977,-0.206543
2748,9.8125,2.5,-12.4375,-0.04101563,-1.117676,0.3291016,-0.2006836,0.1650391,-0.2109375
2752,26,-27.3125,-41.1875,0.1484375,-0.8378906,0.3095703,-0.2021484,0.1611328,-0.2094727
2756,28.4375,-36.3125,-71.875,0.3652344,-0.6977539,0.2944336,-0.2045898,0.15625,-0.2094727
2760,27,-31.25,-94.875,0.4931641,-0.550293,0.3095703,-0.2128906,0.1513672,-0.2080078
2764,21.375,-23.625,-102.3125,0.5087891,-0.402832,0.2749023,-0.2172852,0.1450195,-0.2080078
2768,16.3125,-16.625,-102,0.543457,-0.4335938,0.2905273,-0.222168,0.1362305,-0.206543
2772,22.9375,-15.875,-104.5625,0.5126953,-0.4921875,0.2788086,-0.2304688,0.1298828,-0.2080078
2776,32.875,-17.4375,-108.4375,0.5317383,-0.484375,0.2636719,-0.234375,0.1235352,-0.206543
2780,40.25,-20.9375,-122.75,0.543457,-0.3754883,0.2636719,-0.2402344,0.1113281,-0.2080078
2784,36.125,-20.125,-137.625,0.5820313,-0.2900391,0.2441406,-0.2470703,0.1010742,-0.206543
2788,36.625,-13.375,-145.9375,0.574707,-0.2900391,0.2402344,-0.2495117,0.09130859,-0.206543
2792,39.1875,-5.875,-144.9375,0.559082,-0.2275391,0.2211914,-0.2553711,0.07617188,-0.2080078
2796,42.125,6.1875,-149.1875,0.6054688,-0.2084961,0.2480469,-0.2602539,0.0625,-0.2094727
2800,45.0625,14.125,-163.5625,0.578125,-0.03369141,0.2402344,-0.2636719,0.05273438,-0.2109375
2804,31.625,18.9375,-184.875,0.574707,0.1445313,0.2558594,-0.2661133,0.03759766,-0.2109375
2808,18.75,21.3125,-203.375,0.5473633,0.09423828,0.2558594,-0.2661133,0.02001953,-0.2119141
2812,19.1875,28.3125,-205.6875,0.5048828,0.02832031,0.2519531,-0.2700195,0.007324219,-0.2163086
2817,31,30,-207.375,0.3925781,0.04736328,0.3017578,-0.2685547,-0.01171875,-0.2177734
2821,56.5625,14.3125,-207.25,0.3149414,0.1757813,0.3637695,-0.2675781,-0.03173828,-0.2216797
2825,73.9375,3.5625,-184.5625,0.3730469,0.3935547,0.3251953,-0.2675781,-0.04833984,-0.2202148
2829,77.25,-0.6875,-185.1875,0.4116211,0.4243164,0.340332,-0.2661133,-0.06591797,-0.21875
2833,63.4375,-6.75,-205.25,0.4272461,0.6303711,0.3173828,-0.2636719,-0.08544922,-0.2202148
2837,63.75,-14.3125,-223.875,0.3613281,0.6225586,0.3251953,-0.2617188,-0.09960938,-0.2177734
2841,74.5625,-28.9375,-228.625,0.3110352,0.7817383,0.340332,-0.2578125,-0.1245117,-0.2163086
2845,89.25,-47.4375,-203.5,0.3149414,0.8984375,0.3330078,-0.2543945,-0.1455078,-0.2094727
2849,105.25,-50.375,-165.5,0.5126953,0.9335938,0.2905273,-0.2509766,-0.1591797,-0.2055664
2853,105.5625,-40.25,-148.1875,0.5629883,1.081055,0.1826172,-0.2485352,-0.1767578,-0.1972656
2857,79,-24.875,-157.875,0.5820313,1.189941,0.1479492,-0.2426758,-0.1958008,-0.1904297
2861,58.75,-22.25,-191.75,0.4389648,1.124023,0.2060547,-0.237793,-0.2055664,-0.1889648
2865,64.5625,-37.4375,-197,0.3227539,1.120117,0.2402344,-0.2294922,-0.2231445,-0.1821289
2869,80.5625,-55.75,-172.5,0.3535156,1.186035,0.1865234,-0.2211914,-0.2407227,-0.175293
2873,87.25,-51.9375,-138.375,0.5551758,1.236328,0.144043,-0.2163086,-0.2480469,-0.1713867
2877,79.625,-37.0625,-128.125,0.559082,1.236328,0.07910156,-0.2089844,-0.2607422,-0.1630859
2881,76.25,-26.6875,-122.0625,0.4931641,1.06543,0.06738281,-0.2045898,-0.2719727,-0.1547852
2885,80.5625,-23.75,-123.625,0.3925781,1.038574,0.05566406,-0.1982422,-0.2807617,-0.1508789
2889,76.625,-26.625,-138.25,0.3574219,1.081055,0.001953125,-0.1889648,-0.2895508,-0.1425781
2893,66.6875,-18.1875,-149.1875,0.3925781,1.104492,-0.005371094,-0.1816406,-0.3017578,-0.137207
2897,48.375,-1.25,-155.125,0.3496094,1.178223,-0.01318359,-0.1723633,-0.3095703,-0.1303711
2901,26.5,19.3125,-156.625,0.2607422,1.131836,-0.02441406,-0.1601563,-0.3208008,-0.1303711
2905,24.0625,27.6875,-158.75,0.03173828,0.972168,0.005859375,-0.1474609,-0.3256836,-0.1289063
2909,38.5,12.875,-160.5,-0.1572266,0.9643555,0.02490234,-0.1367188,-0.3344727,-0.1289063
2913,45.9375,-6.5625,-168.0625,-0.1420898,1.182129,0.04052734,-0.1235352,-0.3393555,-0.125
2917,36.25,-12.8125,-179.5625,-0.05273438,1.321777,0.03271484,-0.1069336,-0.3491211,-0.1210938
2921,21.375,-5.9375,-187.375,-0.04492188,1.418945,0.01367188,-0.09716797,-0.3520508,-0.1196289
2925,7.1875,3.75,-181.9375,-0.06835938,1.430664,-0.01660156,-0.08056641,-0.3579102,-0.1166992
2929,-1.375,13.1875,-173.875,-0.1303711,1.407715,-0.06298828,-0.06494141,-0.3642578,-0.1157227
2933,-3.5625,18.5,-165.4375,-0.1342773,1.349121,-0.06689453,-0.05224609,-0.3642578,-0.1181641
2937,-0.8125,22.5,-157.3125,-0.1420898,1.325684,-0.04736328,-0.03662109,-0.3681641,-0.1181641
2941,-1.9375,24.8125,-153.25,-0.1611328,1.388184,0.01367188,-0.02246094,-0.3691406,-0.1181641
2946,-4.8125,26.0625,-143.625,-0.1533203,1.399902,0.05175781,-0.01269531,-0.3681641,-0.1210938
2950,-6.0625,27.25,-122.3125,-0.1650391,1.415039,0.06738281,0.002441406,-0.3706055,-0.1181641
2954,-5.5625,27.4375,-95.4375,-0.1381836,1.368652,0.105957,0.01416016,-0.3706055,-0.1196289
2958,-1.625,27.9375,-70.8125,-0.1030273,1.337402,0.144043,0.02001953,-0.3691406,-0.1196289
2962,-4,28.625,-56.4375,-0.1225586,1.36084,0.1787109,0.02734375,-0.3706055,-0.1210938
2966,-11.875,26.75,-49.625,-0.1225586,1.310547,0.1982422,0.03320313,-0.3691406,-0.1196289
2970,-16.875,27,-42.1875,-0.1186523,1.244141,0.2172852,0.03662109,-0.3681641,-0.1225586
2974,-17.25,24.6875,-30.9375,-0.1611328,1.17041,0.2480469,0.04052734,-0.3681641,-0.1210938
2978,-11.8125,18.9375,-20.1875,-0.1923828,1.17041,0.2788086,0.04394531,-0.3681641,-0.1235352
2982,-6.9375,6,-10.3125,-0.2426758,1.17041,0.2788086,0.04638672,-0.3657227,-0.125
2986,0.3125,-8,-0.3125,-0.2231445,1.221191,0.2636719,0.04736328,-0.3666992,-0.125
2990,2.5625,-21.25,8.25,-0.1689453,1.321777,0.2250977,0.04736328,-0.3666992,-0.1264648
2994,4.8125,-28.875,24.6875,-0.07617188,1.372559,0.1826172,0.04394531,-0.3681641,-0.125
2998,5.5625,-28,53.375,-0.01025391,1.485352,0.1479492,0.04052734,-0.3691406,-0.125
3002,-0.625,-21.1875,84.125,0.03173828,1.590332,0.1289063,0.03320313,-0.3691406,-0.1225586
3006,-15.9375,-11.9375,101.8125,0.04736328,1.675781,0.159668,0.02734375,-0.3666992,-0.1235352
3010,-33.6875,-11.6875,110.25,-0.06835938,1.687012,0.1748047,0.01757813,-0.3666992,-0.1264648
3014,-39.1875,-18.5625,130.5625,-0.1264648,1.605469,0.2021484,0.005859375,-0.3666992,-0.1303711
3018,-27,-25.0625,160.125,-0.1303711,1.543457,0.2597656,-0.003417969,-0.3657227,-0.1318359
3022,-16.0625,-32.5,191.5625,-0.1533203,1.644531,0.2402344,-0.01855469,-0.3642578,-0.1347656
3026,-16.25,-35.3125,216.125,-0.1147461,1.694824,0.1904297,-0.0390625,-0.3618164,-0.1357422
3030,-26.3125,-32.8125,219.3125,-0.06054688,1.714355,0.1518555,-0.05419922,-0.3579102,-0.137207
3034,-38.875,-27.625,214.9375,0.01269531,1.667969,0.125,-0.07470703,-0.3520508,-0.1386719
3038,-44.5,-17.4375,221.875,0.03955078,1.590332,0.105957,-0.09375,-0.3442383,-0.1416016
3042,-44,-11.75,240.25,-0.02978516,1.504395,0.08642578,-0.1079102,-0.3378906,-0.144043
3046,-36.875,-11.875,254.125,-0.02978516,1.395996,0.125,-0.1293945,-0.3266602,-0.1484375
3050,-32.75,-14.375,256.1875,0.04345703,1.407715,0.1020508,-0.1508789,-0.3144531,-0.1508789
3054,-45.375,-8.5625,243.8125,0.1518555,1.477539,0.05957031,-0.1650391,-0.3041992,-0.1508789
3058,-63,6,233.8125,0.2294922,1.36084,0.001953125,-0.1831055,-0.2905273,-0.1538086
3062,-76.25,21.25,234.125,0.1289063,1.20166,-0.005371094,-0.1982422,-0.2729492,-0.1591797
3066,-67,15.3125,233.875,-0.02197266,0.9335938,0.06347656,-0.2080078,-0.2607422,-0.1606445
3070,-47.0625,0,237.8125,0.008789063,0.8984375,0.07910156,-0.222168,-0.2431641,-0.168457
3075,-46.625,-7.6875,225.4375,0.1948242,1.034668,0.05175781,-0.2353516,-0.2246094,-0.1699219
3079,-58.6875,1.25,212.875,0.3188477,1.019043,0.04443359,-0.2436523,-0.2128906,-0.1699219
3083,-67.875,11.1875,200.1875,0.2875977,0.8984375,0.07910156,-0.2543945,-0.1933594,-0.1728516
3087,-63.25,4.9375,194.1875,0.1328125,0.8168945,0.1171875,-0.2626953,-0.171875,-0.1767578
3091,-51.875,-15.3125,204.3125,0.1054688,0.7548828,0.159668,-0.2675781,-0.1621094,-0.1796875
3095,-33.0625,-29.9375,215.5,0.2797852,0.6225586,0.1635742,-0.2758789,-0.1420898,-0.1782227
3099,-23.625,-30.875,215.9375,0.3925781,0.7509766,0.105957,-0.2851563,-0.1220703,-0.175293
3103,-31.1875,-25.3125,205.6875,0.4931641,0.793457,0.09423828,-0.2875977,-0.1054688,-0.175293
3107,-37,-13.25,201,0.5820313,0.7236328,0.06738281,-0.293457,-0.08691406,-0.1738281
3111,-44.6875,4.125,213.5,0.578125,0.6264648,0.04052734,-0.2973633,-0.06591797,-0.1728516
3115,-52.5625,21.6875,217.125,0.5473633,0.3857422,0.05175781,-0.2958984,-0.05078125,-0.175293
3119,-43.25,26.4375,202.875,0.4389648,0.1445313,0.125,-0.2973633,-0.02929688,-0.1767578
3123,-34.8125,22.75,191,0.4155273,0.1254883,0.1674805,-0.2949219,-0.009277344,-0.1806641
3127,-31,18,177.3125,0.4350586,0.07080078,0.1982422,-0.2924805,0.004882813,-0.1796875
3131,-26.75,19.125,174.375,0.4389648,-0.04150391,0.2441406,-0.2900391,0.02001953,-0.1796875
3135,-21.25,20.625,172,0.4541016,-0.1381836,0.2402344,-0.2851563,0.03759766,-0.1835938
3139,-28.5625,32.5625,165,0.5161133,-0.1538086,0.2094727,-0.2817383,0.04980469,-0.1821289
3143,-45.625,44.9375,143.5625,0.4506836,-0.2124023,0.2250977,-0.2768555,0.06396484,-0.1850586
3147,-56.9375,42.1875,113.25,0.3227539,-0.4453125,0.2558594,-0.2685547,0.07861328,-0.1865234
3151,-47.75,24.375,95.5,0.2373047,-0.7329102,0.3520508,-0.2651367,0.08740234,-0.1889648
3155,-28.4375,2.25,81.5,0.2138672,-0.6357422,0.2983398,-0.2626953,0.09521484,-0.1904297
3159,-15.5625,-14.25,73.625,0.3417969,-0.7016602,0.3095703,-0.2592773,0.1010742,-0.1865234
3163,-5.75,-15.875,60.3125,0.4580078,-0.6787109,0.2636719,-0.2578125,0.1088867,-0.1850586
3167,-6.375,-9.4375,37.5625,0.5161133,-0.6201172,0.2290039,-0.2578125,0.1123047,-0.1865234
3171,-17.625,-5.0625,5.6875,0.5200195,-0.5698242,0.1904297,-0.2568359,0.1152344,-0.1806641
3175,-23.375,2.0625,-24.3125,0.5356445,-0.6552734,0.1826172,-0.2553711,0.1152344,-0.1850586
3179,-17.4375,2.4375,-46.5625,0.4389648,-0.6821289,0.1904297,-0.2578125,0.1137695,-0.1835938
3183,-5.1875,-9.4375,-62.6875,0.4506836,-0.6591797,0.1943359,-0.2602539,0.1113281,-0.1806641
3187,12.125,-15.4375,-72.4375,0.5473633,-0.6044922,0.2172852,-0.2602539,0.1074219,-0.1782227
3191,25.9375,-18.875,-78.5625,0.578125,-0.4570313,0.1865234,-0.2661133,0.1000977,-0.1796875
3195,24.3125,-12.5,-80.0625,0.659668,-0.3095703,0.1748047,-0.2700195,0.09228516,-0.1767578
3199,4,1.75,-95.4375,0.6831055,-0.2939453,0.1171875,-0.2709961,0.08740234,-0.1796875
3204,-17.5625,24.875,-118.625,0.6557617,-0.3833008,0.1020508,-0.2758789,0.07763672,-0.1782227
3208,-27.8125,42.25,-147.125,0.5356445,-0.5463867,0.1328125,-0.2783203,0.06884766,-0.1821289
3212,-13.125,39.625,-174.6875,0.3188477,-0.6044922,0.1904297,-0.2792969,0.06005859,-0.1806641
3216,15.4375,20.0625,-187.4375,0.2255859,-0.5268555,0.2441406,-0.2827148,0.04394531,-0.1835938
3220,47.25,-2.375,-188.125,0.2758789,-0.355957,0.2211914,-0.2851563,0.02636719,-0.1865234
3224,70.75,-11.75,-178.125,0.3808594,-0.1381836,0.1748047,-0.2866211,0.01367188,-0.1889648
3228,80.6875,-4.3125,-170.25,0.5551758,0.1679688,0.1826172,-0.2915039,-0.006835938,-0.1875
3232,50.8125,4.6875,-198.0625,0.5512695,0.5952148,0.140625,-0.2890625,-0.02685547,-0.1875
3236,13.625,9.9375,-239,0.6054688,0.5913086,0.1904297,-0.2915039,-0.04052734,-0.1889648
3240,6.0625,18.1875,-247.5,0.543457,0.4711914,0.2480469,-0.2900391,-0.06298828,-0.1875
3244,25.6875,11,-228.625,0.4077148,0.4750977,0.2749023,-0.2851563,-0.08544922,-0.1918945
3248,48,4.8125,-190.3125,0.4311523,0.5175781,0.3056641,-0.2817383,-0.09960938,-0.1889648
3252,83.375,-5.1875,-170.4375,0.4311523,0.6577148,0.3173828,-0.2768555,-0.1196289,-0.1904297
3256,87.25,-16.5,-173.5625,0.4619141,1.197754,0.2636719,-0.2724609,-0.1367188,-0.1865234
3260,36.4375,-23.625,-197.9375,0.6479492,1.384277,0.1635742,-0.2700195,-0.1508789,-0.1806641
3264,12.6875,-1.4375,-203.5,0.7255859,1.015137,0.2290039,-0.2602539,-0.1694336,-0.1796875
3268,16.8125,9.1875,-187.0625,0.4853516,0.840332,0.2021484,-0.2543945,-0.1870117,-0.1806641
3272,42.25,4.625,-165.3125,0.3574219,0.6420898,0.2211914,-0.2485352,-0.1982422,-0.1806641
3276,81.4375,-10.5625,-159.625,0.2646484,0.6733398,0.1904297,-0.2402344,-0.2104492,-0.1782227
3280,103.4375,-29.0625,-166.75,0.2451172,1.030762,0.1518555,-0.2329102,-0.2294922,-0.1728516
3284,89.5,-39.3125,-188.9375,0.3769531,1.314453,0.09423828,-0.2280273,-0.2407227,-0.1660156
3288,64.9375,-29.6875,-208.8125,0.4697266,1.380371,0.08642578,-0.2172852,-0.2558594,-0.1591797
3292,40.9375,-14.9375,-203.125,0.3808594,1.407715,0.07128906,-0.206543,-0.2719727,-0.1538086
3296,24.6875,0,-156.875,0.3691406,1.232422,0.1132813,-0.1962891,-0.2832031,-0.1523438
3300,37.875,8.125,-134.375,0.3032227,1.026855,0.1328125,-0.1855469,-0.2905273,-0.1523438
3304,51.1875,1.3125,-137.625,0.1328125,1.131836,0.09033203,-0.1748047,-0.3007813,-0.1484375
3308,45.875,-10.9375,-148.625,0.1674805,1.275391,0.07910156,-0.168457,-0.3066406,-0.144043
3312,33.5625,-2.375,-150.4375,0.2954102,1.291016,0.105957,-0.1582031,-0.3154297,-0.1416016
3316,12.3125,15.25,-139.6875,0.2646484,1.325684,0.09033203,-0.1450195,-0.3242188,-0.1425781
3320,-12.125,34.125,-129.5,0.2451172,1.217285,0.07910156,-0.1367188,-0.328125,-0.1401367
3324,-28.6875,51.625,-129.8125,0.1713867,1.015137,0.06347656,-0.1245117,-0.3330078,-0.144043
3328,-14.1875,55.4375,-133.9375,-0.04492188,0.7001953,0.09423828,-0.1103516,-0.3369141,-0.1484375
3333,19.1875,35.5625,-143.5625,-0.28125,0.7080078,0.1328125,-0.1010742,-0.3393555,-0.1494141
3337,40.3125,17.5625,-147.25,-0.2661133,0.9604492,0.1748047,-0.08789063,-0.3457031,-0.1469727
3341,33.875,14.375,-146.1875,-0.2348633,1.221191,0.1904297,-0.07324219,-0.3505859,-0.1469727
3345,14.375,16.4375,-143.5625,-0.262207,1.259766,0.1865234,-0.06640625,-0.3520508,-0.1425781
3349,3.6875,20.375,-143.1875,-0.246582,1.154785,0.1367188,-0.05078125,-0.3544922,-0.1401367
3353,5.9375,25.5625,-145.5,-0.3007813,1.069336,0.05175781,-0.03515625,-0.359375,-0.144043
3357,11.5625,26.4375,-152.9375,-0.3203125,1.100586,0.01367188,-0.02685547,-0.359375,-0.1425781
3361,12.4375,30.6875,-154.6875,-0.3164063,1.186035,0.009765625,-0.01269531,-0.3632813,-0.1425781
3365,7.75,39,-149,-0.2929688,1.271484,0.04785156,0.003417969,-0.3632813,-0.1401367
3369,-0.6875,47.25,-144.375,-0.3085938,1.32959,0.09423828,0.01269531,-0.3618164,-0.1401367
3373,-7.875,49.375,-137.5,-0.3935547,1.32959,0.1171875,0.02832031,-0.3603516,-0.1401367
3377,-1.375,40.3125,-121.125,-0.3901367,1.225098,0.1748047,0.04394531,-0.3603516,-0.1401367
3381,12.4375,31.875,-101.0625,-0.362793,1.248047,0.1943359,0.05078125,-0.3579102,-0.1401367
3385,18.8125,24.1875,-81.5,-0.3007813,1.372559,0.2211914,0.05957031,-0.359375,-0.137207
3389,12.0625,19.8125,-58.0625,-0.230957,1.473633,0.2558594,0.06640625,-0.3579102,-0.137207
3393,2.6875,19.625,-38.3125,-0.1303711,1.461914,0.2866211,0.07226563,-0.3569336,-0.137207
3397,-5.875,21.8125,-18.8125,-0.1069336,1.504395,0.3134766,0.07470703,-0.3569336,-0.1347656
3401,-12.8125,20.25,2.25,-0.09130859,1.49707,0.3520508,0.07617188,-0.3569336,-0.1347656
3405,-11.625,14.9375,23.625,-0.1147461,1.477539,0.3979492,0.07714844,-0.3569336,-0.1357422
3409,-6.75,-2.25,40.875,-0.2270508,1.485352,0.4443359,0.07373047,-0.3569336,-0.137207
3413,1.375,-24.125,58.4375,-0.2270508,1.500488,0.4365234,0.06982422,-0.3569336,-0.137207
3417,8.5,-43.0625,83.9375,-0.1845703,1.527832,0.3637695,0.06640625,-0.3569336,-0.1357422
3421,14.8125,-54.1875,111.4375,-0.1264648,1.539551,0.2944336,0.05566406,-0.3603516,-0.137207
3425,20.25,-56.0625,135.0625,-0.01416016,1.570801,0.2675781,0.04248047,-0.3603516,-0.1357422
3429,15.5,-51.9375,150.625,-0.03710938,1.741699,0.2597656,0.03173828,-0.3642578,-0.1357422
3433,0.6875,-50,162.5,-0.04882813,1.772461,0.2368164,0.01513672,-0.3657227,-0.1347656
3437,-10.0625,-43.3125,180.0625,-0.09912109,1.76123,0.2211914,-0.0009765625,-0.3666992,-0.1357422
3441,-16.9375,-39.375,203,-0.1611328,1.745605,0.2329102,-0.01513672,-0.3642578,-0.1357422
3445,-15.6875,-44.625,224.75,-0.246582,1.652344,0.2172852,-0.03515625,-0.3603516,-0.1357422
3449,-7.25,-49.25,241.875,-0.246582,1.632813,0.2094727,-0.05810547,-0.3554688,-0.137207
3453,-9.6875,-53.375,245,-0.2080078,1.737793,0.1826172,-0.07226563,-0.3520508,-0.1347656
3457,-19.5625,-46.5,252.5,-0.05664063,1.710449,0.1289063,-0.09716797,-0.3457031,-0.1347656
3462,-29.9375,-24.8125,268.5625,-0.01025391,1.683105,0.05957031,-0.1220703,-0.3354492,-0.137207
3466,-41.75,-11.8125,280.9375,-0.1030273,1.473633,0.01367188,-0.1376953,-0.328125,-0.1386719
3470,-38.5625,-3.0625,284.625,0.0009765625,1.228516,0.01708984,-0.1601563,-0.3120117,-0.1401367
3474,-48.5,9.875,267.8125,0.07470703,1.263672,-0.01318359,-0.1816406,-0.2944336,-0.144043
3478,-68.5625,18.5,240.25,0.01660156,1.182129,0.01367188,-0.1948242,-0.2841797,-0.1484375
3482,-61.25,5.25,237.1875,-0.1767578,0.9760742,0.08642578,-0.2089844,-0.2670898,-0.1523438
3486,-27.1875,-20.9375,250,-0.1533203,0.9257813,0.1518555,-0.2246094,-0.2495117,-0.15625
3490,-8.125,-36.4375,259.375,0.03564453,1.12793,0.1020508,-0.237793,-0.234375,-0.15625
3494,-6.9375,-35.0625,257.5625,0.2412109,1.221191,0.08251953,-0.253418,-0.2143555,-0.1523438
3498,-22.9375,-16,257.4375,0.3959961,1.317871,-0.009277344,-0.2675781,-0.1943359,-0.1508789
3502,-50.4375,11.9375,256.5625,0.4233398,1.158691,-0.04003906,-0.2744141,-0.1782227,-0.1494141
3506,-59.875,28.8125,247.25,0.2758789,0.9257813,0.04443359,-0.2851563,-0.1533203,-0.1523438
3510,-48.3125,17.0625,243.0625,0.1367188,0.6923828,0.05957031,-0.2900391,-0.1279297,-0.1538086
3514,-27.0625,5.8125,253.625,0.159668,0.5722656,0.07910156,-0.2949219,-0.1118164,-0.1591797
3518,-10.0625,0.375,257.4375,0.2685547,0.4555664,0.1098633,-0.2998047,-0.08837891,-0.1606445
3522,-8.375,5.1875,251,0.3691406,0.4711914,0.04785156,-0.3017578,-0.06445313,-0.1591797
3526,-19.9375,21.75,238.0625,0.4350586,0.3120117,0.07128906,-0.3041992,-0.04833984,-0.1606445
3530,-28.3125,35.3125,222.5,0.3378906,0.1757813,0.1132813,-0.3032227,-0.02587891,-0.1630859
3534,-20.125,27.375,205.75,0.175293,-0.03369141,0.1748047,-0.3007813,-0.005859375,-0.1645508
3538,0.375,0.1875,197.625,0.1328125,-0.1381836,0.2060547,-0.2998047,0.008789063,-0.1645508
3542,24.0625,-28,188.625,0.2758789,-0.2353516,0.1674805,-0.2958984,0.02734375,-0.1674805
3546,42.0625,-42.25,173.75,0.4853516,-0.06835938,0.1328125,-0.293457,0.04248047,-0.1645508
3550,34.375,-37.125,165.625,0.7138672,0.03613281,0.1098633,-0.293457,0.05371094,-0.1616211
3554,22.1875,-15.875,165.5,0.7915039,-0.002441406,0.1367188,-0.2915039,0.06640625,-0.1606445
3558,9.0625,-0.75,160.5,0.7294922,-0.08398438,0.1635742,-0.2851563,0.08007813,-0.1577148
3562,5.125,3.9375,155.25,0.6870117,-0.2900391,0.2250977,-0.2827148,0.08984375,-0.1606445
3566,14,-2.9375,146.375,0.6328125,-0.3754883,0.2866211,-0.2768555,0.1010742,-0.1591797
3570,25.1875,-17.3125,144.8125,0.6479492,-0.4335938,0.2558594,-0.2700195,0.1137695,-0.1606445
3574,31.875,-15.6875,146.1875,0.8183594,-0.3950195,0.2558594,-0.2661133,0.1201172,-0.1616211
3578,16.4375,4.6875,143.125,0.8652344,-0.2900391,0.1904297,-0.2602539,0.1313477,-0.1616211
3582,-10.25,34.6875,126.75,0.8803711,-0.3173828,0.1865234,-0.253418,0.1411133,-0.1606445
3586,-44.5625,64.3125,103.125,0.7021484,-0.3833008,0.2060547,-0.2470703,0.1474609,-0.1616211
3591,-64.3125,73.6875,82.625,0.3925781,-0.7211914,0.2133789,-0.2387695,0.1577148,-0.1660156
3595,-56.6875,67.625,63.1875,0.1557617,-0.9619141,0.2402344,-0.2304688,0.1660156,-0.168457
3599,-44.75,49.9375,37.9375,0.04736328,-1.094238,0.2290039,-0.2280273,0.1699219,-0.1674805
3603,-35.25,37,-1.875,0.05517578,-1.11377,0.1982422,-0.2246094,0.1738281,-0.1699219
3607,-30.8125,24.125,-51.75,0.06298828,-1.047363,0.1943359,-0.2246094,0.1748047,-0.168457
3611,-21.25,7,-90.625,0.05126953,-0.9853516,0.2021484,-0.2270508,0.1738281,-0.168457
3615,-8,-9.875,-118.625,0.1518555,-0.8183594,0.1943359,-0.2294922,0.1660156,-0.1674805
3619,-5,-13.8125,-133.875,0.3417969,-0.6044922,0.1367188,-0.2402344,0.1577148,-0.1674805
3623,-14.9375,-2.9375,-147.4375,0.4428711,-0.484375,0.105957,-0.2470703,0.1513672,-0.1645508
3627,-26,14.1875,-161.6875,0.5048828,-0.503418,0.08251953,-0.2519531,0.1401367,-0.1630859
3631,-23.75,26.5625,-171.875,0.4194336,-0.550293,0.1367188,-0.2602539,0.1274414,-0.1660156
3635,-17.3125,24.4375,-189.5,0.3457031,-0.4570313,0.1826172,-0.2636719,0.1201172,-0.1645508
3639,-11.125,9.75,-215.125,0.3188477,-0.4179688,0.2211914,-0.2724609,0.1049805,-0.1674805
3643,5,-5.5625,-229.3125,0.3574219,-0.3364258,0.2519531,-0.2807617,0.08642578,-0.1660156
3647,19,-18.3125,-226.0625,0.4428711,-0.06835938,0.2094727,-0.2851563,0.06982422,-0.1630859
3651,14.125,-10.1875,-212.4375,0.659668,0.1875,0.1748047,-0.2924805,0.04980469,-0.1645508
3655,0.625,13.875,-209.75,0.8222656,0.203125,0.144043,-0.2973633,0.03027344,-0.1616211
3659,-13,39.25,-215.875,0.7294922,0.284668,0.1210938,-0.2983398,0.01611328,-0.1660156
3663,-27.1875,45.625,-230.25,0.6171875,0.2885742,0.1557617,-0.3007813,-0.004394531,-0.168457
3667,-20.8125,36.25,-250.125,0.4970703,0.140625,0.2329102,-0.2983398,-0.02441406,-0.1713867
3671,17.4375,16.5,-240.8125,0.3613281,0.09814453,0.2944336,-0.2983398,-0.03955078,-0.1738281
3675,54.4375,-4.5,-215.3125,0.4038086,0.4477539,0.2480469,-0.2958984,-0.06445313,-0.1767578
3679,69.3125,-9.8125,-200.75,0.574707,0.7470703,0.2905273,-0.293457,-0.08544922,-0.175293
3683,44.4375,-16.75,-225.6875,0.574707,1.17041,0.1982422,-0.2915039,-0.1005859,-0.1728516
3687,8.5625,-7.8125,-238.9375,0.7836914,1.030762,0.2021484,-0.2875977,-0.1220703,-0.1713867
3691,-2.375,17.625,-234.9375,0.7216797,0.9414063,0.2060547,-0.2807617,-0.1430664,-0.1713867
3695,8.125,25.5625,-202.375,0.4970703,0.7626953,0.2558594,-0.2734375,-0.1567383,-0.1728516
3699,44.5,8.6875,-182.75,0.3613281,0.6962891,0.2597656,-0.2651367,-0.1733398,-0.1738281
3703,64.9375,-8,-177.8125,0.4311523,0.8945313,0.1982422,-0.2578125,-0.1918945,-0.1728516
3707,58.25,-6.5625,-191.9375,0.5708008,1.162598,0.159668,-0.2519531,-0.203125,-0.168457
3711,33.25,8.375,-193.625,0.6171875,1.333496,0.1171875,-0.2426758,-0.2192383,-0.1660156
3715,3.8125,37.5625,-168.4375,0.6557617,1.225098,0.1210938,-0.2319336,-0.234375,-0.1674805
3720,-14.4375,68.1875,-151.3125,0.5708008,1.01123,0.1171875,-0.2236328,-0.2416992,-0.1699219
3724,-16.625,81.0625,-149.8125,0.3339844,0.7197266,0.09033203,-0.2104492,-0.2504883,-0.175293
3728,17.875,70.5625,-157.3125,0.03173828,0.5214844,0.2368164,-0.1962891,-0.2592773,-0.1806641
3732,57.1875,36.3125,-174.8125,-0.1186523,0.9101563,0.2827148,-0.1889648,-0.2680664,-0.1806641
3736,68.5,10.875,-179.9375,0.008789063,1.244141,0.2905273,-0.1748047,-0.2817383,-0.1782227
3740,60.0625,9.25,-168.9375,0.1484375,1.493164,0.2675781,-0.1591797,-0.2944336,-0.175293
3744,36.5625,24.375,-141.0625,0.2646484,1.539551,0.2329102,-0.1533203,-0.3017578,-0.1713867
3748,12.375,42.6875,-128.4375,0.2026367,1.333496,0.1826172,-0.1425781,-0.3095703,-0.1713867
3752,11.6875,45.6875,-126.8125,0.06689453,1.003418,0.1748047,-0.1293945,-0.3144531,-0.1738281
3756,24.9375,37.75,-138.4375,-0.02197266,0.875,0.1713867,-0.1210938,-0.3193359,-0.1738281
3760,35.4375,31.125,-147.9375,-0.05273438,0.9179688,0.1674805,-0.1069336,-0.3256836,-0.1738281
3764,36.9375,33.9375,-150.375,-0.04492188,0.9643555,0.1865234,-0.09375,-0.3320313,-0.1713867
3768,32.75,42.125,-154.25,-0.1069336,1.045898,0.2021484,-0.08300781,-0.3369141,-0.1699219
3772,23,47.8125,-159.1875,-0.2041016,1.092773,0.2172852,-0.06884766,-0.3417969,-0.168457
3776,19.1875,47.625,-164.5625,-0.3007813,1.09668,0.2250977,-0.05322266,-0.3442383,-0.1674805
3780,24,45.875,-163.5,-0.3203125,1.143066,0.2133789,-0.04150391,-0.3481445,-0.1645508
3784,28.1875,45.375,-161.5,-0.3393555,1.240234,0.1904297,-0.02490234,-0.3520508,-0.1616211
3788,26.625,42.0625,-158.375,-0.3354492,1.356934,0.1943359,-0.006835938,-0.3520508,-0.1606445
3792,22.5625,42.9375,-152.5625,-0.3085938,1.442383,0.2329102,0.004394531,-0.3544922,-0.1606445
3796,12,41.25,-136.4375,-0.3862305,1.527832,0.2675781,0.01904297,-0.3554688,-0.1577148
3800,7.125,35.0625,-105.5,-0.2773438,1.426758,0.2788086,0.02978516,-0.3544922,-0.1547852
3804,12.375,32.25,-87.6875,-0.230957,1.430664,0.2788086,0.03662109,-0.3544922,-0.1547852
3808,7.9375,25.5,-74.625,-0.2001953,1.500488,0.2905273,0.04736328,-0.3544922,-0.1538086
3812,2,21.5625,-56.8125,-0.1225586,1.481445,0.3481445,0.05322266,-0.3544922,-0.1538086
3816,0.25,17.625,-34.1875,-0.1650391,1.418945,0.3598633,0.05566406,-0.3530273,-0.1523438
3820,4.4375,10.375,-14.375,-0.1459961,1.368652,0.4057617,0.06054688,-0.3544922,-0.1523438
3824,5.1875,2.125,2,-0.1459961,1.399902,0.4057617,0.06054688,-0.3520508,-0.1508789
3828,2.625,-3.0625,18.9375,-0.1225586,1.407715,0.4287109,0.06054688,-0.3530273,-0.1508789
3832,-1.8125,-12,30.3125,-0.1767578,1.426758,0.4174805,0.05810547,-0.3520508,-0.1538086
3836,-1.25,-24.5625,46.5,-0.1767578,1.36084,0.4213867,0.05712891,-0.3520508,-0.1523438
3840,7.3125,-37.75,66.3125,-0.2080078,1.395996,0.3828125,0.05224609,-0.3544922,-0.1538086
3844,14.1875,-50.1875,89.625,-0.1728516,1.461914,0.355957,0.04150391,-0.3530273,-0.1523438
3849,14.3125,-56.3125,110.25,-0.09912109,1.559082,0.3251953,0.03076172,-0.3569336,-0.1523438
3853,7.125,-55.125,130.25,-0.09130859,1.625,0.2675781,0.0234375,-0.3579102,-0.1523438
3857,-2.5625,-49.625,145.6875,-0.07226563,1.609375,0.2519531,0.006835938,-0.3579102,-0.1508789
3861,-8.9375,-45.4375,160.125,-0.1147461,1.636719,0.2402344,-0.005859375,-0.3579102,-0.1523438
3865,-16.1875,-42.5,178.375,-0.1767578,1.617188,0.2133789,-0.01757813,-0.3569336,-0.1538086
3869,-15.125,-43.5625,194,-0.2270508,1.531738,0.2402344,-0.03515625,-0.3544922,-0.1547852
3873,-5,-49.9375,208,-0.2270508,1.473633,0.2368164,-0.05664063,-0.3491211,-0.1538086
3877,1.1875,-53.75,219.8125,-0.1342773,1.516113,0.1865234,-0.06982422,-0.3481445,-0.1538086
3881,-6.1875,-42.5,227.5625,0.01269531,1.617188,0.144043,-0.09228516,-0.3432617,-0.1508789
3885,-25.625,-26.75,232.3125,0.02050781,1.621094,0.1171875,-0.1152344,-0.3344727,-0.1523438
3889,-42.5,-18.125,231.375,-0.02978516,1.481445,0.1171875,-0.1269531,-0.3256836,-0.1523438
3893,-41.375,-19.5,236.125,-0.04492188,1.306641,0.140625,-0.1474609,-0.3144531,-0.15625
3897,-31,-23.75,240.875,-0.03320313,1.248047,0.1479492,-0.1674805,-0.3017578,-0.1577148
3901,-23.75,-23.25,250.375,0.09033203,1.232422,0.09814453,-0.1791992,-0.2905273,-0.1577148
3905,-31.0625,-9.5625,250.25,0.206543,1.291016,0.09033203,-0.1972656,-0.2744141,-0.15625
3909,-57.4375,4.1875,238.0625,0.2373047,1.275391,0.03662109,-0.2163086,-0.2592773,-0.1606445
3913,-78.375,21.875,225.1875,0.2177734,1.069336,0.07519531,-0.222168,-0.2441406,-0.1630859
3917,-76,18.5625,221.1875,0.02832031,0.8984375,0.105957,-0.237793,-0.2255859,-0.168457
3921,-61.6875,8.5,230.9375,0.05517578,0.7431641,0.1367188,-0.2470703,-0.2055664,-0.1738281
3925,-44.9375,-1.5625,231.25,0.1367188,0.7119141,0.1132813,-0.2543945,-0.1933594,-0.175293
3929,-38.75,-8.75,218.9375,0.2138672,0.7817383,0.1020508,-0.2636719,-0.1733398,-0.1767578
3933,-39.6875,-9.25,210.5,0.3110352,0.7275391,0.1367188,-0.2734375,-0.1518555,-0.1782227
3937,-36.1875,-6.0625,209.5,0.3339844,0.7080078,0.140625,-0.2792969,-0.1396484,-0.1782227
3941,-15,-17.25,217.625,0.2758789,0.5952148,0.1982422,-0.2851563,-0.1181641,-0.1767578
3945,10,-34.75,233.1875,0.2993164,0.5605469,0.2172852,-0.2915039,-0.09716797,-0.1738281
3949,27.125,-51.25,233.5,0.5087891,0.7001953,0.1943359,-0.2949219,-0.08203125,-0.1728516
3953,16.25,-43.0625,228.0625,0.7993164,0.8364258,0.1171875,-0.2983398,-0.06298828,-0.168457
3957,-24.125,-4,226,0.9423828,0.9916992,0.02099609,-0.3032227,-0.04199219,-0.1660156
3961,-72.25,39.0625,224.625,0.8457031,0.7509766,0.01367188,-0.3041992,-0.02685547,-0.1660156
3965,-84.0625,56.8125,235.25,0.5048828,0.3427734,0.07910156,-0.2998047,-0.003417969,-0.1699219
3969,-59.5,45.125,252.4375,0.2915039,-0.002441406,0.1674805,-0.2949219,0.02392578,-0.1738281
3973,-29.75,25.9375,258.6875,0.2915039,-0.2163086,0.1748047,-0.2900391,0.04248047,-0.1738281
3978,-6.125,13.875,248.8125,0.3574219,-0.2861328,0.144043,-0.2817383,0.06494141,-0.175293
3982,0.5,16.1875,234.25,0.3999023,-0.3325195,0.1557617,-0.2734375,0.08642578,-0.1767578
3986,-8.6875,30.5625,219.8125,0.3652344,-0.4570313,0.06347656,-0.2661133,0.1000977,-0.1796875
3990,-22,54.625,203.1875,0.3999023,-0.4140625,0.1479492,-0.2568359,0.1176758,-0.1806641
3994,-35.875,74.75,189.9375,0.2294922,-0.550293,0.159668,-0.2436523,0.1337891,-0.1821289
3998,-44.3125,77,157.9375,0.05126953,-0.8261719,0.1787109,-0.2353516,0.1425781,-0.1865234
4002,-39.75,65.875,110.25,-0.09912109,-1.086426,0.2094727,-0.222168,0.15625,-0.1875
4006,-27.125,45.75,58.875,-0.1728516,-1.253418,0.2211914,-0.215332,0.1635742,-0.1918945
4010,-8.3125,22.1875,7.3125,-0.1845703,-1.323242,0.2402344,-0.2114258,0.1674805,-0.1904297
4014,13.875,1.625,-35.9375,-0.1264648,-1.226563,0.2290039,-0.2104492,0.1674805,-0.1928711
4018,27.0625,-16.3125,-71.75,0.0009765625,-0.9619141,0.2094727,-0.2138672,0.1635742,-0.1928711
4022,36.3125,-31.125,-96,0.1635742,-0.8027344,0.2558594,-0.21875,0.1586914,-0.1943359
4026,48.625,-41.125,-116.3125,0.3071289,-0.6279297,0.2519531,-0.2270508,0.1489258,-0.1928711
4030,51.6875,-50.125,-135,0.4272461,-0.4067383,0.2133789,-0.234375,0.1362305,-0.1928711
4034,46.3125,-48.125,-143.5,0.5473633,-0.3056641,0.1826172,-0.2426758,0.1289063,-0.1928711
4038,43.5625,-40.125,-150.125,0.609375,-0.324707,0.1713867,-0.2509766,0.1152344,-0.1904297
4042,38.4375,-28.75,-157.3125,0.6401367,-0.2470703,0.1210938,-0.2578125,0.1010742,-0.1889648
4046,28.375,-13.375,-170.6875,0.6948242,-0.2431641,0.159668,-0.2636719,0.08984375,-0.1889648
4050,26.1875,-3.0625,-189.375,0.6054688,-0.1459961,0.1635742,-0.2700195,0.07373047,-0.1875
4054,20.625,-2.375,-198.75,0.5859375,-0.04882813,0.1943359,-0.2744141,0.05371094,-0.1875
4058,19.0625,1.3125,-201.6875,0.625,-0.01025391,0.2060547,-0.2807617,0.04394531,-0.1904297
4062,18.75,13.0625,-193.75,0.6557617,0.02832031,0.2060547,-0.2841797,0.02490234,-0.1918945
4066,24.0625,19.375,-194,0.6289063,0.09814453,0.2441406,-0.2851563,0.006347656,-0.1928711
4070,22.8125,25.6875,-189.4375,0.6635742,0.2265625,0.2558594,-0.2851563,-0.005859375,-0.1928711
4074,9.25,35.0625,-192.375,0.659668,0.3623047,0.2749023,-0.2851563,-0.0234375,-0.1972656
4078,-6.0625,37.75,-202.3125,0.5356445,0.2226563,0.2944336,-0.2851563,-0.04199219,-0.1987305
4082,12.0625,28.5625,-211.5625,0.4541016,0.09033203,0.425293,-0.2817383,-0.05175781,-0.2026367
4086,39.75,11.125,-195.125,0.3808594,0.2456055,0.3671875,-0.2758789,-0.07177734,-0.2055664
4090,60.75,6.875,-167.1875,0.5512695,0.3896484,0.375,-0.2734375,-0.08935547,-0.2041016
4094,59,16.4375,-157.125,0.574707,0.7001953,0.2905273,-0.2709961,-0.1020508,-0.2055664
4098,24,26.4375,-179.3125,0.59375,0.8051758,0.2709961,-0.2675781,-0.1181641,-0.2055664
4102,3.0625,23.375,-230.6875,0.4541016,0.7548828,0.3364258,-0.2592773,-0.1357422,-0.2026367
4107,15.125,5.625,-233.1875,0.2954102,0.6459961,0.4057617,-0.253418,-0.1479492,-0.206543
4111,62,-17,-196.9375,0.2685547,0.6381836,0.4560547,-0.2470703,-0.1679688,-0.206543
4115,98.3125,-33.0625,-154.875,0.3535156,0.8867188,0.3330078,-0.2402344,-0.1855469,-0.2011719
4119,93.875,-24.5625,-136.5,0.5820313,1.213379,0.2441406,-0.2353516,-0.1982422,-0.1958008
4123,40.1875,-5.1875,-169.8125,0.644043,1.59375,0.1367188,-0.2319336,-0.2128906,-0.1904297
4127,-22.25,22.1875,-207.5625,0.7021484,1.384277,0.1674805,-0.2211914,-0.2255859,-0.1904297
4131,-32.625,39.8125,-209,0.3925781,1.01123,0.2597656,-0.2114258,-0.2329102,-0.1943359
4135,11.3125,20.0625,-170.9375,0.07470703,0.7197266,0.3291016,-0.1972656,-0.2470703,-0.1972656
4139,62.75,2.875,-131.25,0.1674805,0.8325195,0.2597656,-0.1875,-0.2568359,-0.1972656
4143,73,1.0625,-128.5625,0.2646484,1.146973,0.1826172,-0.1831055,-0.2641602,-0.1943359
4147,45.1875,8.5,-153.9375,0.3032227,1.418945,0.1479492,-0.1733398,-0.2753906,-0.1889648
4151,7.5625,26.0625,-167.4375,0.3149414,1.364746,0.1674805,-0.1601563,-0.2856445,-0.1865234
4155,-15.125,47.625,-174.125,0.2529297,1.236328,0.1557617,-0.1494141,-0.2905273,-0.1904297
4159,-16.875,56.5,-162.8125,0.04345703,0.9838867,0.144043,-0.1367188,-0.296875,-0.1928711
4163,6.25,56.8125,-147.875,-0.01806641,0.8286133,0.1635742,-0.1210938,-0.3041992,-0.1958008
4167,25.875,54.875,-144.75,-0.1069336,0.9140625,0.1479492,-0.1113281,-0.3081055,-0.1972656
4171,27.125,51.0625,-157.25,-0.1767578,0.972168,0.159668,-0.09619141,-0.3129883,-0.1958008
4175,24.75,51.4375,-167.75,-0.2270508,0.9916992,0.2250977,-0.07958984,-0.3193359,-0.1972656
4179,20.625,48.375,-171.4375,-0.3354492,0.9604492,0.2368164,-0.07226563,-0.3242188,-0.1958008
4183,28.625,42.25,-174,-0.4404297,0.8632813,0.2368164,-0.05419922,-0.3291016,-0.1943359
4187,47,32.875,-173.3125,-0.4985352,0.8364258,0.1904297,-0.03662109,-0.3330078,-0.1918945
4191,60.125,26.0625,-175.6875,-0.4790039,0.9604492,0.1713867,-0.02685547,-0.3369141,-0.1889648
4195,62.8125,23.375,-181.3125,-0.5063477,1.077148,0.1367188,-0.0078125,-0.3393555,-0.1835938
4199,59.375,26.375,-186.125,-0.4633789,1.213379,0.1210938,0.006835938,-0.3442383,-0.1782227
4203,48.5,33.875,-186.5,-0.4985352,1.349121,0.1328125,0.01904297,-0.3466797,-0.175293
4207,34.625,41.1875,-180.6875,-0.4594727,1.418945,0.1713867,0.03808594,-0.3457031,-0.1713867
4211,22.5625,50.8125,-169.9375,-0.4130859,1.469727,0.2133789,0.05322266,-0.3457031,-0.168457
4215,12.4375,51.5,-154.125,-0.4711914,1.489258,0.2709961,0.06640625,-0.3457031,-0.1674805
4219,10.5,44.8125,-131.4375,-0.4169922,1.454102,0.3520508,0.07958984,-0.3408203,-0.1660156
4223,13.6875,37.125,-106.3125,-0.3666992,1.461914,0.4482422,0.09277344,-0.3378906,-0.1616211
4227,19.1875,19.1875,-79.1875,-0.3935547,1.461914,0.5327148,0.1010742,-0.3378906,-0.1606445
4231,26.5,4.25,-47.0625,-0.262207,1.489258,0.590332,0.1069336,-0.3344727,-0.1591797
4236,22.0625,-0.9375,-20.75,-0.1689453,1.574707,0.605957,0.109375,-0.3378906,-0.1577148
4240,8.875,-6,-2.875,-0.1845703,1.58252,0.6020508,0.1103516,-0.3393555,-0.1523438
4244,2.4375,-15.3125,16.1875,-0.2001953,1.485352,0.625,0.109375,-0.3393555,-0.1538086
4248,4.6875,-30.75,38,-0.296875,1.46582,0.5522461,0.105957,-0.3393555,-0.1538086
4252,10.8125,-48.3125,62,-0.28125,1.415039,0.4672852,0.1044922,-0.3408203,-0.15625
4256,21.5625,-62.1875,88,-0.2773438,1.430664,0.3598633,0.09521484,-0.3432617,-0.1547852
4260,27.375,-70.25,113.3125,-0.2041016,1.512207,0.2944336,0.08447266,-0.3466797,-0.15625
4264,23.125,-70.5,131.875,-0.2231445,1.632813,0.2749023,0.07617188,-0.3491211,-0.1538086
4268,10.625,-73.6875,149.0625,-0.2734375,1.667969,0.2519531,0.05957031,-0.3530273,-0.1547852
4272,5.5625,-70.1875,172.125,-0.2851563,1.636719,0.2983398,0.04150391,-0.3544922,-0.1547852
4276,1.25,-69.375,200,-0.362793,1.640625,0.2749023,0.03076172,-0.3554688,-0.1547852
4280,3.9375,-68.875,224.5,-0.3549805,1.702637,0.3173828,0.005859375,-0.3569336,-0.1577148
4284,1.9375,-68.5625,241.125,-0.3588867,1.776367,0.3056641,-0.01611328,-0.3569336,-0.1538086
4288,-6.8125,-67.0625,251.9375,-0.328125,1.831055,0.2944336,-0.03173828,-0.3554688,-0.1547852
4292,-19.3125,-56.875,267,-0.2041016,1.834961,0.2636719,-0.05810547,-0.3491211,-0.1547852
4296,-37.8125,-39.0625,278.75,-0.2080078,1.842773,0.2250977,-0.08398438,-0.3442383,-0.15625
4300,-50.3125,-31,287.625,-0.230957,1.660156,0.2441406,-0.1020508,-0.3344727,-0.1577148
4304,-49.8125,-26.875,297.9375,-0.2270508,1.516113,0.2133789,-0.1259766,-0.3232422,-0.1606445
4308,-48.75,-24.125,302.375,-0.1459961,1.418945,0.2094727,-0.1518555,-0.3081055,-0.1645508
4312,-55.875,-20.75,300.6875,-0.1147461,1.372559,0.1557617,-0.168457,-0.2954102,-0.1645508
4316,-53.3125,-20.5,296.5625,-0.1303711,1.205566,0.1787109,-0.1923828,-0.2768555,-0.1660156
4320,-50.75,-27.5,288.125,-0.04882813,1.197754,0.125,-0.2114258,-0.2558594,-0.1674805
4324,-53.25,-19.4375,292.75,0.07080078,1.17041,0.07910156,-0.2255859,-0.2407227,-0.168457
4328,-46.625,-20.4375,291.8125,-0.01025391,1.04248,0.07519531,-0.2402344,-0.2182617,-0.1713867
4332,-38.8125,-21.0625,301.875,0.07861328,1.04248,0.07128906,-0.2568359,-0.1918945,-0.1713867
4336,-36.125,-23.25,291.3125,0.1948242,1.019043,0.009765625,-0.2685547,-0.1743164,-0.1699219
4340,-41.3125,-9.3125,291,0.2915039,1.053711,-0.009277344,-0.2807617,-0.1479492,-0.1699219
4344,-57.3125,7.5,289.5625,0.3378906,0.987793,-0.03613281,-0.2875977,-0.1196289,-0.1699219
4348,-70.125,27.125,284.0625,0.3149414,0.8789063,-0.03222656,-0.2924805,-0.1020508,-0.1728516
4352,-82.75,32.5625,274.6875,0.190918,0.7197266,-0.02832031,-0.293457,-0.07080078,-0.175293
4356,-71.125,19.9375,263.1875,0.125,0.4790039,0.08251953,-0.2949219,-0.04296875,-0.1796875
4360,-38.1875,-3.3125,260.625,0.1210938,0.3818359,0.1518555,-0.2949219,-0.02587891,-0.1821289
4365,-6.75,-23.4375,278.25,0.1791992,0.3544922,0.1713867,-0.2924805,0.001464844,-0.1782227
4369,8.8125,-33.375,285.9375,0.3339844,0.3388672,0.1328125,-0.2915039,0.02734375,-0.1767578
4373,0.8125,-14.1875,288.375,0.4970703,0.4013672,0.09423828,-0.2890625,0.04492188,-0.175293
4377,-35.4375,21.25,283,0.5126953,0.3427734,0.06347656,-0.2792969,0.07128906,-0.1738281
4381,-78.1875,61.625,263.75,0.4233398,0.1254883,0.05566406,-0.2685547,0.09765625,-0.175293
4385,-107.5625,86.375,243,0.1518555,-0.2241211,0.005859375,-0.2617188,0.1162109,-0.1767578
4389,-108.8125,91.625,230.1875,-0.01806641,-0.371582,0.1289063,-0.2460938,0.1386719,-0.1767578
4393,-84.125,77.5625,225.8125,-0.262207,-1.175781,-0.01660156,-0.2304688,0.1611328,-0.1806641
4397,-38.75,60.4375,205.3125,-0.3745117,-1.490723,-0.05126953,-0.2172852,0.1748047,-0.1796875
4401,-4.8125,41.0625,159.625,-0.3706055,-1.606934,-0.1206055,-0.2006836,0.1850586,-0.1821289
4405,17.5,29.3125,93.25,-0.2270508,-1.603027,-0.07861328,-0.1923828,0.1938477,-0.1850586
4409,19.375,36.375,21.375,-0.1381836,-1.319336,-0.009277344,-0.1875,0.1962891,-0.1865234
4413,1,44.0625,-54.125,-0.05664063,-1.11377,0.08642578,-0.1855469,0.1948242,-0.1875
4417,-2.9375,40.0625,-108.5625,-0.04882813,-1.094238,0.2329102,-0.1875,0.1923828,-0.1928711
4421,16.8125,15.1875,-148.125,-0.05273438,-0.9814453,0.3867188,-0.1914063,0.1860352,-0.1918945
4425,43.125,-20.5625,-161.5625,-0.002441406,-0.7641602,0.3789063,-0.203125,0.1762695,-0.1958008
4429,55.1875,-42.625,-159.125,0.1635742,-0.565918,0.3212891,-0.2114258,0.1611328,-0.1943359
4433,56.75,-48.8125,-163,0.3266602,-0.5151367,0.2290039,-0.2211914,0.1523438,-0.1958008
4437,51.75,-39.125,-186.0625,0.4311523,-0.484375,0.1826172,-0.2304688,0.1362305,-0.1928711
4441,40.75,-28.5,-218.3125,0.4038086,-0.387207,0.159668,-0.2426758,0.1210938,-0.1958008
4445,33.4375,-24.8125,-246.9375,0.3457031,-0.3676758,0.1982422,-0.2509766,0.1074219,-0.1943359
4449,44.8125,-30.875,-263,0.2607422,-0.3095703,0.2749023,-0.2617188,0.08496094,-0.1918945
4453,60.1875,-42.625,-261.3125,0.2333984,-0.1616211,0.2402344,-0.2734375,0.06005859,-0.1918945
4457,70.9375,-46.375,-255.75,0.3847656,-0.01025391,0.1982422,-0.2792969,0.04638672,-0.1918945
4461,75.5,-35.5625,-250.3125,0.4775391,0.1757813,0.1748047,-0.2851563,0.01757813,-0.1865234
4465,69.1875,-21.5,-250.125,0.527832,0.4516602,0.2021484,-0.2900391,-0.008300781,-0.1875
4469,43.0625,-15.0625,-265.625,0.5161133,0.8012695,0.1557617,-0.2924805,-0.02685547,-0.1865234
4473,18.625,-8.9375,-275.1875,0.5629883,0.7392578,0.2368164,-0.2900391,-0.05175781,-0.1865234
4477,17.625,-2,-267.125,0.5200195,0.6381836,0.2172852,-0.2890625,-0.07958984,-0.1850586
4481,36.375,10.6875,-222.6875,0.5629883,0.5136719,0.2172852,-0.2866211,-0.09423828,-0.1850586
4485,62.5,23.875,-197.375,0.4814453,0.6845703,0.2402344,-0.2807617,-0.1181641,-0.1865234
4489,65.4375,15.5625,-199.4375,0.3999023,1.026855,0.2329102,-0.2744141,-0.1357422,-0.1850586
4494,40.125,7.25,-218,0.4697266,1.317871,0.2519531,-0.2700195,-0.1508789,-0.1835938
4498,13.25,1.9375,-239.75,0.5239258,1.291016,0.2905273,-0.2602539,-0.1704102,-0.1835938
4502,23.125,3.75,-207.4375,0.5356445,1.053711,0.3251953,-0.2495117,-0.1894531,-0.1821289
4506,57.5,15.8125,-144.1875,0.574707,1.015137,0.3251953,-0.2436523,-0.2016602,-0.1835938
4510,68.5625,28.375,-101.125,0.6015625,1.057617,0.2060547,-0.2353516,-0.2104492,-0.1821289
4514,45.6875,41.9375,-112.25,0.4970703,1.244141,0.1904297,-0.2304688,-0.2246094,-0.1796875
4518,-10,33.4375,-176.875,0.3652344,1.380371,0.1674805,-0.2236328,-0.2294922,-0.1821289
4522,-35.5,28.0625,-216.1875,0.4233398,1.049805,0.3212891,-0.2104492,-0.2431641,-0.1865234
4526,-8.125,28.25,-196,0.2685547,0.8984375,0.3481445,-0.1972656,-0.2543945,-0.1875
4530,28.9375,22.5,-138.875,0.2529297,0.9335938,0.3291016,-0.1875,-0.2607422,-0.1865234
4534,47.6875,30.875,-105.5,0.3925781,1.003418,0.2675781,-0.1772461,-0.2719727,-0.1875
4538,44.375,45.0625,-99.5625,0.3339844,0.9335938,0.159668,-0.1699219,-0.2792969,-0.1875
4542,40.5625,53.375,-107.25,0.159668,0.840332,0.1518555,-0.1640625,-0.2832031,-0.1875
4546,30.4375,43.4375,-138,-0.03320313,0.8867188,0.1518555,-0.1518555,-0.2905273,-0.1850586
4550,30.5625,25.875,-174.5625,-0.02587891,0.7353516,0.2329102,-0.1401367,-0.3007813,-0.1850586
4554,56.875,16.4375,-183.5,-0.1611328,0.8710938,0.2290039,-0.128418,-0.3056641,-0.1835938
4558,74,5.3125,-168.5625,-0.1923828,1.04248,0.2133789,-0.1152344,-0.3168945,-0.1806641
4562,78.875,6.9375,-152.125,-0.1108398,1.17041,0.1865234,-0.1010742,-0.3266602,-0.175293
4566,67.875,15.5,-149.75,-0.1303711,1.267578,0.140625,-0.09228516,-0.3305664,-0.1699219
4570,46,16.0625,-163.25,-0.2426758,1.263672,0.1020508,-0.078125,-0.3378906,-0.1645508
4574,38.75,12.5625,-178.0625,-0.2661133,1.100586,0.1132813,-0.06298828,-0.3457031,-0.1630859
4578,46.6875,10.3125,-184.6875,-0.3666992,1.081055,0.09423828,-0.05224609,-0.3505859,-0.1616211
4582,56.1875,8.5625,-180.9375,-0.3823242,1.162598,0.08251953,-0.03662109,-0.3530273,-0.1547852
4586,58.5,10,-172.875,-0.3666992,1.302734,0.08642578,-0.01855469,-0.3569336,-0.1484375
4590,51.0625,17.375,-164.5,-0.3393555,1.426758,0.1171875,-0.009277344,-0.359375,-0.1484375
4594,31.125,23,-163.25,-0.362793,1.547363,0.1210938,0.008300781,-0.3618164,-0.1425781
4598,7.125,26.875,-164.9375,-0.3203125,1.543457,0.125,0.02246094,-0.3618164,-0.1416016
4602,-7.25,33.5625,-160.4375,-0.2851563,1.446289,0.1289063,0.03564453,-0.3603516,-0.1416016
4606,-8,34.5,-136.875,-0.4013672,1.395996,0.1674805,0.04980469,-0.3603516,-0.1425781
4610,1.5625,27.8125,-99.1875,-0.3432617,1.32959,0.2558594,0.06152344,-0.3579102,-0.1401367
4614,10.8125,25.0625,-73.6875,-0.2773438,1.380371,0.3095703,0.06884766,-0.3554688,-0.1401367
4618,8.6875,17,-57.25,-0.2700195,1.442383,0.3134766,0.07617188,-0.3544922,-0.1401367
4623,3.4375,9.75,-42.4375,-0.2080078,1.384277,0.3637695,0.08056641,-0.3554688,-0.137207
4627,2.4375,6.5,-26.3125,-0.1962891,1.356934,0.3867188,0.08300781,-0.3544922,-0.137207
4631,-0.0625,0.8125,-6.5,-0.2387695,1.380371,0.4057617,0.08544922,-0.3520508,-0.1357422
4635,-3.5,-6,12.4375,-0.246582,1.353027,0.409668,0.08447266,-0.3530273,-0.1386719
4639,-2.9375,-15.125,25.625,-0.262207,1.310547,0.3945313,0.08447266,-0.3520508,-0.1357422
4643,-0.125,-25.3125,41.4375,-0.3007813,1.32959,0.3789063,0.08056641,-0.3544922,-0.137207
4647,1.5,-37,60.1875,-0.3007813,1.321777,0.340332,0.07470703,-0.3554688,-0.1401367
4651,8.625,-46.875,79.1875,-0.3085938,1.349121,0.3134766,0.06982422,-0.3554688,-0.1386719
4655,8.8125,-56.625,98,-0.2543945,1.454102,0.2827148,0.06054688,-0.3579102,-0.1416016
4659,5.5625,-60.625,118,-0.246582,1.52002,0.2480469,0.04882813,-0.3603516,-0.1401367
4663,1.875,-62.5,138.0625,-0.2734375,1.578613,0.2480469,0.04052734,-0.3618164,-0.1386719
4667,-2.875,-68.0625,158.9375,-0.3125,1.586426,0.2329102,0.0234375,-0.3632813,-0.1416016
4671,-0.875,-71.1875,184.5,-0.3125,1.543457,0.2290039,0.005859375,-0.3618164,-0.1401367
4675,9.5625,-74.3125,200.625,-0.3007813,1.508301,0.2519531,-0.006835938,-0.3632813,-0.1401367
4679,17,-85.25,207.6875,-0.3164063,1.543457,0.2133789,-0.02929688,-0.3632813,-0.1401367
4683,23.25,-91.4375,221.625,-0.2270508,1.527832,0.159668,-0.05224609,-0.359375,-0.1357422
4687,30.25,-86.5625,241.9375,-0.09130859,1.543457,0.1289063,-0.06884766,-0.3554688,-0.1318359
4691,34.5,-81.8125,257.5,-0.06054688,1.535645,0.08251953,-0.09472656,-0.3505859,-0.1264648
4695,33.5625,-68.5,267.25,0.125,1.559082,0.07910156,-0.1201172,-0.3417969,-0.1225586
4699,15.6875,-41.25,268.625,0.2177734,1.640625,0.005859375,-0.1367188,-0.3369141,-0.1196289
4703,-16.4375,-15.375,263.75,0.2138672,1.597656,0.02099609,-0.1601563,-0.3232422,-0.1157227
4707,-37.5,11.8125,265.4375,0.2333984,1.39209,0.04785156,-0.1816406,-0.3081055,-0.1181641
4711,-48.25,28.1875,266.3125,0.07080078,1.217285,0.07128906,-0.1962891,-0.296875,-0.1196289
4715,-41.5,19.0625,256.125,-0.07617188,0.956543,0.125,-0.2138672,-0.2807617,-0.1264648
4719,-14.5,-4.875,246.5625,-0.06054688,0.890625,0.1479492,-0.2280273,-0.2607422,-0.1279297
4723,-1.1875,-14.25,249.75,0.1831055,1.104492,0.105957,-0.2412109,-0.2495117,-0.1279297
4727,-8.125,-1.375,255.125,0.3808594,1.228516,0.05957031,-0.2553711,-0.2280273,-0.1279297
4731,-33.1875,19.5,250,0.4428711,1.306641,-0.01660156,-0.2685547,-0.2080078,-0.125
4735,-54.4375,35.4375,245.4375,0.3613281,1.12793,-0.03613281,-0.2768555,-0.1918945,-0.1303711
4739,-54.25,37.625,253.8125,0.2177734,0.8945313,-0.01660156,-0.2851563,-0.1694336,-0.1357422
4743,-36.0625,21.8125,262.375,0.1557617,0.7470703,-0.001464844,-0.2924805,-0.1430664,-0.1416016
4747,-31.6875,11.0625,256.125,0.3339844,0.7817383,-0.05908203,-0.2983398,-0.1269531,-0.1416016
4752,-41.1875,28.375,249.5625,0.559082,0.7666016,-0.06298828,-0.3056641,-0.1020508,-0.1455078
4756,-58.9375,49,245.8125,0.4658203,0.8364258,-0.08203125,-0.3066406,-0.07714844,-0.144043
4760,-80.8125,63.0625,248.4375,0.4697266,0.7353516,-0.04394531,-0.3066406,-0.05810547,-0.1523438
4764,-83.5,71.5,245.3125,0.3925781,0.4438477,0.02099609,-0.3056641,-0.03076172,-0.1577148
4768,-71.75,60.75,236.8125,0.2724609,0.2148438,0.1098633,-0.3017578,-0.005859375,-0.1645508
4772,-53.3125,40.6875,222.875,0.3110352,0.04736328,0.1518555,-0.2998047,0.01269531,-0.1674805
4776,-34.4375,35.0625,215.9375,0.4428711,0.05126953,0.1787109,-0.293457,0.03515625,-0.1699219
4780,-35.125,36.75,212.3125,0.4311523,0.1484375,0.1635742,-0.2875977,0.05517578,-0.1713867
4784,-41.125,38.625,206.3125,0.4428711,-0.02197266,0.2060547,-0.2827148,0.06884766,-0.1738281
4788,-35.375,35.125,193.75,0.4038086,-0.1694336,0.2402344,-0.2734375,0.08886719,-0.1738281
4792,-27.1875,25.75,186.5,0.3574219,-0.2666016,0.2441406,-0.2636719,0.1049805,-0.1767578
4796,-13.3125,12.3125,179.4375,0.3886719,-0.371582,0.2060547,-0.2578125,0.1152344,-0.1782227
4800,4.4375,4,180.75,0.4389648,-0.402832,0.2250977,-0.2485352,0.1298828,-0.1767578
4804,15.9375,8.5625,182.125,0.6171875,-0.4257813,0.2250977,-0.2402344,0.1435547,-0.1767578
4808,4.3125,31.375,168.3125,0.6328125,-0.2978516,0.1748047,-0.2319336,0.1523438,-0.1806641
4812,-24.6875,56.25,142.6875,0.5048828,-0.4335938,0.1865234,-0.2211914,0.1650391,-0.1806641
4816,-34,64.625,114.5625,0.2451172,-0.7792969,0.2519531,-0.2114258,0.1738281,-0.1850586
4820,-20.5625,51.4375,93.3125,0.004882813,-1.000977,0.2788086,-0.2045898,0.1787109,-0.1865234
4824,-2.625,28.3125,70.75,-0.08007813,-1.098145,0.3212891,-0.1972656,0.1884766,-0.1889648
4828,10.5,8.25,40.625,-0.006347656,-1.098145,0.3134766,-0.1923828,0.1899414,-0.1889648
4832,12.3125,0,-1.1875,0.1054688,-1.016602,0.2788086,-0.1899414,0.1914063,-0.1904297
4836,4.375,-0.125,-49.0625,0.206543,-0.8959961,0.2675781,-0.1914063,0.1884766,-0.1918945
4840,0.0625,2.9375,-81.1875,0.2836914,-0.8339844,0.2402344,-0.1962891,0.1850586,-0.1918945
4844,1.25,7.0625,-96.75,0.3574219,-0.6860352,0.2480469,-0.199707,0.1811523,-0.1904297
4848,6,3.8125,-102.5,0.4194336,-0.6123047,0.2558594,-0.2045898,0.1762695,-0.1904297
4852,15.1875,0.4375,-103.4375,0.4697266,-0.6044922,0.2519531,-0.2104492,0.1689453,-0.1928711
4856,22.9375,-0.625,-110.8125,0.5087891,-0.5737305,0.2250977,-0.2138672,0.1625977,-0.1928711
4860,24.625,-1.9375,-130.6875,0.4853516,-0.519043,0.2172852,-0.222168,0.1538086,-0.1943359
4864,22.6875,-9.875,-154.125,0.4233398,-0.4921875,0.2441406,-0.2280273,0.1425781,-0.1958008
4868,29.75,-19.625,-170.5625,0.4350586,-0.4570313,0.2905273,-0.234375,0.1323242,-0.1943359
4872,37.375,-25.5,-171.4375,0.4853516,-0.2666016,0.2597656,-0.2436523,0.1186523,-0.1943359
4876,40,-17.1875,-159.75,0.6713867,-0.1420898,0.2675781,-0.2519531,0.1049805,-0.1928711
4881,34.9375,1.3125,-156.0625,0.7602539,-0.03759766,0.2675781,-0.2568359,0.09375,-0.1943359
4885,22.5625,16.1875,-167.8125,0.7568359,0.04394531,0.2558594,-0.2626953,0.08007813,-0.1972656
4889,9.5625,27.625,-180.1875,0.7138672,-0.02587891,0.2788086,-0.2661133,0.06494141,-0.1987305
4893,11.125,29.1875,-192.5,0.59375,-0.05664063,0.2827148,-0.2685547,0.05273438,-0.2011719
4897,19.8125,24.0625,-184.25,0.5317383,-0.02978516,0.2558594,-0.2724609,0.03613281,-0.2055664
4901,39.25,25.3125,-167.75,0.574707,-0.04150391,0.2827148,-0.2734375,0.01855469,-0.206543
4905,58,22.8125,-159.9375,0.5239258,0.08251953,0.2905273,-0.2744141,0.007324219,-0.2080078
4909,56.25,12.875,-175.875,0.4970703,0.3271484,0.2827148,-0.2758789,-0.006835938,-0.2094727
4913,45.1875,3.625,-204.6875,0.5668945,0.4321289,0.3330078,-0.2744141,-0.02832031,-0.2109375
4917,34.625,4.8125,-214.3125,0.6401367,0.5488281,0.2597656,-0.2758789,-0.04199219,-0.2109375
4921,38.8125,27.5,-179.4375,0.7099609,0.4477539,0.3017578,-0.2734375,-0.06054688,-0.2133789
4925,69.4375,30.75,-148.125,0.4697266,0.3081055,0.3520508,-0.2685547,-0.07958984,-0.2148438
4929,110.25,7.75,-126.625,0.3188477,0.3544922,0.3330078,-0.2661133,-0.09082031,-0.2148438
4933,114.9375,-13.6875,-144.9375,0.4506836,0.8051758,0.2983398,-0.2636719,-0.1069336,-0.2133789
4937,61.875,-15.5625,-202.75,0.6948242,1.32959,0.2519531,-0.2592773,-0.1279297,-0.2080078
4941,12.875,7.75,-220.6875,0.8183594,1.158691,0.3134766,-0.2568359,-0.140625,-0.206543
4945,25.1875,30.75,-172.1875,0.6210938,0.809082,0.4287109,-0.2495117,-0.1582031,-0.2080078
4949,65.9375,19.9375,-129.8125,0.3613281,0.7119141,0.3867188,-0.2402344,-0.171875,-0.2080078
4953,95.75,-3.4375,-113.1875,0.3378906,0.6303711,0.2944336,-0.2402344,-0.1821289,-0.2055664
4957,111.125,-12.3125,-118.8125,0.4233398,0.8208008,0.2329102,-0.2319336,-0.1967773,-0.2026367
4961,75.5625,-9.75,-161.1875,0.527832,1.225098,0.1674805,-0.2270508,-0.2104492,-0.1972656
4965,23.375,11.9375,-202.5625,0.5820313,1.143066,0.1748047,-0.222168,-0.2216797,-0.1943359
4969,6.75,33.375,-196.3125,0.3999023,0.8632813,0.2021484,-0.2089844,-0.234375,-0.1972656
4973,43.4375,35.125,-160.75,0.1635742,0.6733398,0.2827148,-0.1972656,-0.2470703,-0.1958008
4977,78.125,15.125,-142.4375,0.05517578,0.8481445,0.2133789,-0.1875,-0.2558594,-0.1958008
4981,94.0625,2.6875,-137.5625,0.1518555,0.9492188,0.1674805,-0.1816406,-0.2695313,-0.1889648
4985,85.8125,9.0625,-147.625,0.1870117,1.20166,0.125,-0.1699219,-0.2807617,-0.1835938
4989,48.1875,17.5,-179.375,0.1557617,1.267578,0.1171875,-0.1616211,-0.2880859,-0.1806641
4993,30.25,27.5,-198.5,0.004882813,1.01123,0.1713867,-0.1474609,-0.3007813,-0.1806641
4997,40,23.9375,-202.3125,-0.2387695,0.8598633,0.1635742,-0.1318359,-0.3105469,-0.1782227
5001,63.9375,11.25,-193.875,-0.296875,0.9335938,0.1289063,-0.1186523,-0.3154297,-0.175293
5005,81.625,2.875,-184.25,-0.3007813,1.084961,0.07910156,-0.1020508,-0.3256836,-0.1713867
5010,84.25,2,-184,-0.230957,1.317871,0.07128906,-0.08789063,-0.3369141,-0.1660156
5014,67.9375,11.5625,-189.5625,-0.2192383,1.539551,0.02490234,-0.07568359,-0.3417969,-0.1577148
5018,44.3125,21.0625,-195.125,-0.1962891,1.562988,0.009765625,-0.05810547,-0.3481445,-0.1547852
5022,30.25,28.25,-195.5625,-0.2231445,1.500488,0.005859375,-0.04248047,-0.3544922,-0.1508789
5026,30.3125,33.125,-182.375,-0.1884766,1.485352,0.06738281,-0.02685547,-0.3554688,-0.1484375
5030,28.5,38.4375,-156.125,-0.1689453,1.578613,0.1210938,-0.01171875,-0.359375,-0.1484375
5034,23.75,41.8125,-124.4375,-0.1147461,1.570801,0.159668,0.003417969,-0.3603516,-0.144043
5038,19.375,41.375,-103.0625,-0.1108398,1.547363,0.2368164,0.01171875,-0.3618164,-0.144043
5042,16.3125,32.6875,-85.3125,-0.08007813,1.500488,0.3173828,0.0234375,-0.3618164,-0.1425781
5046,16.6875,25.5625,-62.4375,-0.05273438,1.481445,0.3828125,0.03076172,-0.3603516,-0.1416016
5050,14.625,18.5625,-40.125,-0.02587891,1.493164,0.4560547,0.03564453,-0.3632813,-0.1386719
5054,8.1875,12.5,-21.1875,0.03173828,1.469727,0.5136719,0.03808594,-0.3618164,-0.1357422
5058,5.1875,8.8125,-3.5,0.03173828,1.493164,0.605957,0.0390625,-0.3618164,-0.1347656
5062,-1.375,-0.75,11.1875,0.02050781,1.562988,0.6557617,0.04052734,-0.3642578,-0.1357422
5066,-9.625,-16.5625,22.75,-0.04492188,1.625,0.6791992,0.0390625,-0.3618164,-0.137207
5070,-9.3125,-37.375,48.25,-0.03710938,1.570801,0.6210938,0.03417969,-0.3603516,-0.137207
5074,-1.6875,-50.6875,82.375,-0.02197266,1.578613,0.5019531,0.02978516,-0.3632813,-0.1386719
5078,1.5625,-62.1875,109.25,0.01269531,1.628906,0.3828125,0.02001953,-0.3618164,-0.1357422
5082,0.125,-65.3125,133.625,0.07080078,1.675781,0.3056641,0.006835938,-0.3603516,-0.1386719
5086,-5.6875,-61.5,155,0.06298828,1.706543,0.2211914,-0.003417969,-0.3642578,-0.1401367
5090,-17.1875,-53,173,0.04345703,1.733887,0.1748047,-0.02001953,-0.3618164,-0.1386719
5094,-27.125,-46.6875,185.875,-0.02197266,1.660156,0.1367188,-0.0390625,-0.3579102,-0.1416016
5098,-30.75,-43.6875,202.3125,-0.09912109,1.586426,0.1210938,-0.05224609,-0.3544922,-0.1425781
5102,-30.875,-43.3125,214.625,-0.06445313,1.547363,0.105957,-0.07226563,-0.3530273,-0.144043
5106,-34.625,-39.125,219.5625,-0.01416016,1.570801,0.07128906,-0.09130859,-0.3457031,-0.144043
5110,-41.5,-32.4375,224.3125,0.008789063,1.590332,0.04785156,-0.1044922,-0.3378906,-0.1484375
5114,-46.875,-28.6875,227.25,0.004882813,1.55127,0.06738281,-0.1269531,-0.3291016,-0.1494141
5118,-39.625,-33.625,237.25,-0.006347656,1.504395,0.1020508,-0.1474609,-0.3154297,-0.1523438
5122,-37,-32.125,251.6875,0.08251953,1.601563,0.07910156,-0.1601563,-0.3081055,-0.1523438
5126,-43.0625,-24.1875,258.625,0.1713867,1.566895,0.07128906,-0.1806641,-0.2905273,-0.1547852
5130,-49.3125,-14.75,262.375,0.1635742,1.531738,0.04443359,-0.199707,-0.2744141,-0.15625
5134,-57.375,-3.5,267,0.1870117,1.356934,0.03271484,-0.2128906,-0.2617188,-0.15625
5139,-59.375,4.25,265.3125,0.2216797,1.287109,0.04052734,-0.2294922,-0.2407227,-0.1606445
5143,-60.5625,6.9375,269,0.140625,1.088867,0.05957031,-0.2446289,-0.2182617,-0.1645508
5147,-45.3125,-0.875,270.1875,0.07861328,0.9140625,0.140625,-0.253418,-0.203125,-0.1674805
5151,-30.375,-15.0625,266.4375,0.1367188,0.9799805,0.1557617,-0.2661133,-0.1806641,-0.1674805
5155,-27.75,-15.6875,267.375,0.3417969,0.9956055,0.1367188,-0.2758789,-0.1542969,-0.1674805
5159,-30.6875,-2.0625,269.9375,0.3925781,1.007324,0.08251953,-0.2841797,-0.1381836,-0.1674805
5163,-46.25,10.4375,264.9375,0.4428711,0.9760742,0.03271484,-0.2915039,-0.1132813,-0.1674805
5167,-65.4375,35.625,261.25,0.5200195,0.8364258,0.009765625,-0.2949219,-0.08837891,-0.1713867
5171,-81.1875,58.75,264.6875,0.3730469,0.5952148,-0.04394531,-0.2958984,-0.06835938,-0.1728516
5175,-79.9375,66.25,257.25,0.2255859,0.3271484,-0.001464844,-0.2949219,-0.03955078,-0.1796875
5179,-69.5,61.125,252.0625,0.1445313,0.171875,0.04443359,-0.2915039,-0.01171875,-0.1850586
5183,-58,52.8125,246.125,0.1635742,0.05126953,0.03271484,-0.2866211,0.004882813,-0.1875
5187,-44.9375,52.375,237.3125,0.2568359,0.03222656,0.1518555,-0.2807617,0.02734375,-0.1928711
5191,-44.625,48.4375,220.8125,0.2758789,0.1020508,0.1713867,-0.2724609,0.05126953,-0.1943359
5195,-48.5,44.9375,205.6875,0.3417969,0.02832031,0.1982422,-0.2675781,0.06396484,-0.1958008
5199,-47.625,46.25,198.125,0.3613281,-0.1113281,0.2558594,-0.2592773,0.08398438,-0.199707
5203,-41.4375,36.25,183.5,0.2875977,-0.2006836,0.2866211,-0.2495117,0.1010742,-0.199707
5207,-28.4375,17.125,177.875,0.2412109,-0.355957,0.2944336,-0.2436523,0.1123047,-0.2026367
5211,-13.875,2.625,174.875,0.2875977,-0.4492188,0.2827148,-0.2353516,0.1264648,-0.2026367
5215,-5.625,-3.0625,166.9375,0.3847656,-0.5463867,0.2636719,-0.2255859,0.1411133,-0.199707
5219,-4.0625,6.125,153.6875,0.4233398,-0.5698242,0.2172852,-0.2211914,0.1474609,-0.2011719
5223,-11.3125,24.6875,133.5625,0.4389648,-0.6474609,0.2211914,-0.2114258,0.1586914,-0.2011719
5227,-23,45.0625,107.375,0.3574219,-0.7290039,0.2329102,-0.2006836,0.1660156,-0.2011719
5231,-30.5625,51.75,71.75,0.1831055,-0.8920898,0.2368164,-0.1982422,0.1723633,-0.2026367
5235,-22.6875,42.25,40.25,0.06298828,-1.043945,0.3056641,-0.1899414,0.1762695,-0.206543
5239,-8.3125,23.1875,13,0.0009765625,-1.062988,0.3134766,-0.1875,0.1801758,-0.206543
5243,6.625,0.875,-13.375,0.02832031,-1.062988,0.3251953,-0.1865234,0.1787109,-0.206543
5247,15.75,-12.625,-42,0.1484375,-0.9350586,0.3173828,-0.1855469,0.1787109,-0.2041016
5251,19.0625,-20.5,-70.125,0.2490234,-0.8183594,0.3056641,-0.1914063,0.1748047,-0.2055664
5255,19.375,-27.5625,-95.9375,0.2993164,-0.7094727,0.2983398,-0.1972656,0.1689453,-0.206543
5259,21.5625,-35.125,-114.5,0.3730469,-0.6279297,0.2905273,-0.203125,0.1601563,-0.206543
5263,22.9375,-38.6875,-125.8125,0.4155273,-0.5229492,0.2558594,-0.2128906,0.1547852,-0.2041016
5268,23,-38,-132.9375,0.5161133,-0.4765625,0.2402344,-0.21875,0.1474609,-0.2041016
5272,25.3125,-31.0625,-141.625,0.5512695,-0.4453125,0.2558594,-0.2280273,0.1347656,-0.2041016
