Packet number,Gyroscope X (deg/s),Gyroscope Y (deg/s),Gyroscope Z (deg/s),Accelerometer X (g),Accelerometer Y (g),Accelerometer Z (g),Magnetometer X (G),Magnetometer Y (G),Magnetometer Z (G)
3,1.75,-25.3125,26.1875,0.7373047,-0.6123047,0.005859375,-0.1665039,0.2348633,-0.1166992
7,11.1875,-25.25,27.8125,0.7099609,-0.7988281,0.06347656,-0.1640625,0.2363281,-0.1166992
11,19.1875,-9.875,27.9375,0.7529297,-0.7055664,0.02099609,-0.1616211,0.2373047,-0.1166992
15,21.1875,-7.75,23.125,0.6870117,-0.6552734,0.04785156,-0.1625977,0.2363281,-0.1196289
19,16.3125,-10.1875,18.8125,0.6870117,-0.6162109,0.05175781,-0.1616211,0.2387695,-0.1196289
23,10.625,-10.8125,17.5,0.7060547,-0.6513672,0.05566406,-0.1601563,0.2397461,-0.1210938
28,7.9375,-12.3125,15.6875,0.675293,-0.6708984,0.04785156,-0.1591797,0.2397461,-0.1196289
32,4.25,-15.0625,11.875,0.6557617,-0.6123047,0.03662109,-0.1591797,0.2397461,-0.1210938
36,-2.5625,-12.75,4.125,0.6791992,-0.6005859,0.05175781,-0.1567383,0.2397461,-0.1166992
40,-5.125,-10.4375,0.125,0.6635742,-0.6474609,0.04443359,-0.1582031,0.2412109,-0.1196289
44,-2.5625,-5.0625,-0.5625,0.7138672,-0.7094727,0.08251953,-0.1591797,0.2426758,-0.1210938
48,8.125,12.375,-6.5,0.8032227,-0.7172852,0.140625,-0.1582031,0.2397461,-0.1196289
52,13.625,16.5625,-29.75,0.7216797,-0.6630859,0.05957031,-0.1567383,0.2397461,-0.1196289
56,-1.0625,14.875,-37.75,0.6210938,-0.6977539,-0.01318359,-0.1601563,0.2387695,-0.1210938
60,0.5,-0.625,-32.1875,0.4853516,-0.7446289,-0.001464844,-0.1625977,0.2373047,-0.1181641
64,13.3125,-15.0625,-57.25,0.5317383,-0.7016602,-0.1015625,-0.1640625,0.2324219,-0.1225586
68,24.625,-10,-56.8125,0.7602539,-0.6552734,0.07519531,-0.1699219,0.2314453,-0.1210938
72,15.875,-15.625,-16.9375,0.7602539,-0.7133789,0.08642578,-0.1748047,0.2275391,-0.1235352
76,17.0625,-14.0625,1.75,0.8417969,-0.7133789,0.09423828,-0.1748047,0.2285156,-0.1225586
80,10.625,-6.9375,24.5,0.8378906,-0.7172852,0.1132813,-0.1757813,0.2275391,-0.125
84,6.75,0.0625,34.125,0.8339844,-0.7329102,0.1289063,-0.1723633,0.2275391,-0.1264648
88,6.125,5.5625,38.5625,0.7758789,-0.7485352,0.1020508,-0.1699219,0.2314453,-0.1264648
92,6.25,7.9375,36.8125,0.7373047,-0.7133789,0.09814453,-0.1674805,0.2299805,-0.1264648
96,-2.8125,11.125,40.1875,0.7333984,-0.6899414,0.08642578,-0.1650391,0.2314453,-0.1264648
100,-9,10.875,50.5,0.7021484,-0.7290039,0.06347656,-0.1640625,0.2363281,-0.1279297
104,-13.125,16.4375,52.0625,0.6948242,-0.7910156,0.06738281,-0.1557617,0.2363281,-0.1264648
108,-11.4375,14.875,57.5,0.5976563,-0.8613281,0.04785156,-0.1518555,0.2387695,-0.1279297
112,-7.3125,12.0625,58.5,0.6132813,-0.8300781,0.05957031,-0.1474609,0.2412109,-0.1279297
116,-6.0625,12.9375,51.875,0.609375,-0.8496094,0.08251953,-0.1450195,0.2451172,-0.1279297
120,-8.6875,12.3125,57.8125,0.5820313,-0.9116211,0.09033203,-0.1367188,0.2475586,-0.1279297
124,-11.6875,12.0625,56.375,0.6132813,-0.9541016,0.1479492,-0.1352539,0.25,-0.1264648
128,-15.4375,20.6875,61.625,0.6948242,-1.109863,0.2133789,-0.1293945,0.2524414,-0.1264648
132,-18.8125,35.25,76.625,0.6362305,-1.265137,0.2060547,-0.1220703,0.2548828,-0.1235352
136,-23.3125,38.8125,101.1875,0.5200195,-1.463379,0.1713867,-0.1186523,0.2563477,-0.125
140,-18.4375,34.9375,132.5625,0.4775391,-1.723633,0.125,-0.1069336,0.262207,-0.125
144,-8.4375,28.125,166.9375,0.3925781,-1.758789,0.06738281,-0.09228516,0.2636719,-0.125
148,2.4375,20.125,183.0625,0.4311523,-1.805176,0.1171875,-0.08203125,0.2685547,-0.125
152,8.3125,19.375,198.8125,0.4541016,-1.859863,0.1635742,-0.06494141,0.2700195,-0.1264648
157,2.1875,15.625,224.1875,0.4970703,-1.910156,0.1787109,-0.04394531,0.2709961,-0.1264648
161,3.625,15.0625,243.6875,0.574707,-2.053711,0.2402344,-0.03076172,0.2749023,-0.1303711
165,15.625,17.125,262.375,0.559082,-2.12793,0.2558594,-0.005859375,0.2724609,-0.1303711
169,24.25,20.125,280,0.4931641,-2.034668,0.1982422,0.01757813,0.2709961,-0.1357422
173,37.875,11.6875,293.875,0.3730469,-2.049805,0.144043,0.03564453,0.2675781,-0.1347656
177,72.125,3.8125,293.1875,0.3769531,-1.9375,0.1098633,0.06152344,0.2597656,-0.1401367
181,86.5625,4.9375,292.5,0.4467773,-1.645996,0.125,0.08789063,0.25,-0.1484375
185,64.5625,17.875,307.625,0.4775391,-1.432129,0.1479492,0.1035156,0.2412109,-0.1547852
189,43.8125,26.4375,318.375,0.3574219,-1.439941,0.08251953,0.1293945,0.2250977,-0.1591797
193,56.25,15.625,320.125,0.190918,-1.556641,-0.03613281,0.1557617,0.2084961,-0.1630859
197,90,-1.0625,310.4375,0.2255859,-1.455566,-0.08984375,0.1699219,0.1948242,-0.1660156
201,105.5625,-11.3125,307.0625,0.2607422,-1.253418,-0.07470703,0.1914063,0.1723633,-0.1738281
205,115.9375,-14.125,303.5625,0.3613281,-1.171875,-0.02441406,0.2094727,0.1459961,-0.1850586
209,118.9375,-7.4375,298.5625,0.3305664,-1.000977,0.005859375,0.2202148,0.1274414,-0.1875
213,100,2.25,304.9375,0.3652344,-0.8339844,0.05566406,0.234375,0.1000977,-0.1958008
217,80.125,8.3125,318.75,0.2373047,-0.7719727,0.02880859,0.2475586,0.06982422,-0.2011719
221,76.4375,4.875,312.125,0.1713867,-0.7211914,-0.01318359,0.2543945,0.05126953,-0.2041016
225,90.0625,3.6875,298.1875,0.1635742,-0.6977539,0.005859375,0.2626953,0.02148438,-0.2055664
229,98.5625,-0.25,288.6875,0.1132813,-0.6201172,0.03271484,0.2675781,-0.01074219,-0.2080078
233,97.875,5.6875,283.625,0.1367188,-0.5581055,0.06738281,0.2700195,-0.03076172,-0.2094727
237,87.75,11.125,286.5,0.08251953,-0.4067383,0.07519531,0.2709961,-0.06298828,-0.2094727
241,71.8125,13.25,295.125,0.07080078,-0.1967773,0.08251953,0.269043,-0.09179688,-0.2080078
245,53.5625,21.375,293.875,0.05908203,0.0009765625,0.1132813,0.2675781,-0.1132813,-0.206543
249,39.625,19.1875,295.125,-0.09521484,0.1293945,0.03662109,0.2617188,-0.1430664,-0.2055664
253,42.9375,5.5,288.375,-0.1030273,0.1640625,-0.01660156,0.253418,-0.1704102,-0.2011719
257,57.375,-8.5625,268.75,-0.1069336,0.4790039,-0.05517578,0.2485352,-0.1855469,-0.1987305
261,69.875,-31.375,247.6875,-0.1030273,0.7080078,-0.1206055,0.2329102,-0.2104492,-0.199707
265,92.5625,-56.375,211.0625,0.03173828,1.108398,-0.1054688,0.2211914,-0.2319336,-0.1987305
269,86.1875,-67,182,0.159668,1.469727,0.02880859,0.2104492,-0.2441406,-0.1987305
273,45.5,-59.1875,166.375,0.2797852,1.694824,0.2675781,0.1987305,-0.2607422,-0.1958008
277,-0.25,-37.875,151.1875,0.2529297,1.566895,0.4560547,0.184082,-0.2719727,-0.1987305
281,-9.4375,-12.0625,105.1875,0.07861328,1.325684,0.5214844,0.1772461,-0.2768555,-0.2011719
286,-0.125,4.5,43.3125,-0.246582,1.120117,0.4135742,0.1699219,-0.2832031,-0.2011719
290,9.125,5.5625,-4.6875,-0.4594727,0.9101563,0.2788086,0.1674805,-0.2832031,-0.2011719
294,13.1875,-4.3125,-32.3125,-0.5991211,0.7236328,0.1943359,0.1689453,-0.2841797,-0.1987305
298,16.875,-17.25,-53.8125,-0.5913086,0.6381836,0.2172852,0.1713867,-0.2817383,-0.1972656
302,16.6875,-17.4375,-72.1875,-0.4672852,0.7119141,0.2441406,0.1748047,-0.2807617,-0.1987305
306,4.875,-14.25,-84.875,-0.3549805,0.840332,0.2749023,0.1772461,-0.2783203,-0.1987305
310,-6,-6.25,-109.8125,-0.246582,1.01123,0.2983398,0.184082,-0.2719727,-0.199707
314,-12.125,3.375,-146.3125,-0.1420898,1.049805,0.2788086,0.1914063,-0.2641602,-0.2011719
318,-20.5,14.3125,-178.375,-0.04101563,1.019043,0.2636719,0.1987305,-0.2558594,-0.2011719
322,-31.125,24.375,-203.8125,-0.02197266,0.9335938,0.1982422,0.2094727,-0.2431641,-0.2011719
326,-42.5625,27.0625,-220.5625,-0.06054688,0.793457,0.1367188,0.2236328,-0.2270508,-0.2011719
330,-53.75,23.3125,-231.9375,-0.09912109,0.6459961,0.07128906,0.230957,-0.2143555,-0.2011719
334,-60.25,16.125,-245.0625,-0.1147461,0.4868164,0.01367188,0.2426758,-0.1918945,-0.2026367
338,-57.3125,5.25,-255.625,-0.1225586,0.3310547,-0.02050781,0.2519531,-0.1669922,-0.2041016
342,-50.8125,-2.9375,-274.25,-0.1186523,0.2924805,-0.03222656,0.2592773,-0.1508789,-0.2041016
346,-55.25,-16.25,-286.0625,-0.1186523,0.1523438,-0.02050781,0.2641602,-0.1230469,-0.206543
350,-55.875,-21.1875,-293.875,-0.02978516,-0.1113281,0.03271484,0.2666016,-0.09423828,-0.2080078
354,-60.75,-30.75,-281.6875,-0.1923828,-0.4067383,-0.04736328,0.2700195,-0.07714844,-0.2094727
358,-79.5,-59.4375,-241.375,-0.328125,-0.6279297,-0.1245117,0.269043,-0.046875,-0.2119141
362,-59.0625,-68.125,-251.875,0.0009765625,-0.5776367,0.1674805,0.2641602,-0.02197266,-0.21875
366,-34.3125,-64.875,-303.6875,-0.07226563,-0.5307617,0.1635742,0.2583008,-0.005859375,-0.2202148
370,-25.1875,-69.6875,-322.3125,0.01269531,-0.6513672,0.1865234,0.25,0.02148438,-0.2216797
374,-33.6875,-78.375,-306.125,0.07470703,-0.7988281,0.140625,0.2353516,0.04980469,-0.2270508
378,-71.9375,-89.9375,-251,0.05908203,-0.7563477,0.2172852,0.2270508,0.06396484,-0.2285156
382,-116.8125,-74.5,-228,0.3613281,-0.8066406,0.3789063,0.2119141,0.08740234,-0.230957
386,-116,-39.25,-259.4375,0.3769531,-0.9775391,0.4057617,0.1972656,0.1113281,-0.2299805
390,-84.625,-22.875,-320.125,0.2255859,-1.160156,0.3095703,0.1855469,0.1274414,-0.2255859
394,-78.4375,-24.375,-321.625,0.2758789,-1.479004,0.3095703,0.1674805,0.1513672,-0.2202148
398,-91,-37.9375,-250.6875,0.09033203,-1.669434,0.2094727,0.1474609,0.1738281,-0.2163086
402,-113.4375,-60.0625,-198.9375,0.159668,-1.276855,0.1982422,0.1357422,0.1811523,-0.2109375
406,-106.875,-48.0625,-212.1875,0.4736328,-1.300293,0.2827148,0.1201172,0.1987305,-0.206543
410,-56.8125,-38.5625,-278.875,0.3691406,-1.432129,0.2290039,0.1010742,0.2138672,-0.2011719
415,-14.75,-54.25,-306.1875,0.4892578,-1.509766,0.2519531,0.08300781,0.2211914,-0.1987305
419,-25.375,-54.625,-293.5625,0.7333984,-1.222656,0.3828125,0.05712891,0.2299805,-0.1987305
423,-91.25,-33.5625,-250.875,0.9423828,-1.249512,0.4135742,0.03417969,0.2387695,-0.1918945
427,-137.8125,-14.3125,-205.125,0.8652344,-1.572266,0.3291016,0.02001953,0.2436523,-0.1889648
431,-123.5625,-6.3125,-194.6875,0.7875977,-1.855957,0.2788086,0.002441406,0.2548828,-0.1738281
435,-67.9375,-4.1875,-217.9375,0.6635742,-1.848145,0.2211914,-0.01513672,0.2573242,-0.1674805
439,-38.375,-14,-222.5,0.6210938,-1.704102,0.1787109,-0.02929688,0.2587891,-0.1616211
443,-38.4375,-14.625,-200.625,0.6674805,-1.64209,0.1787109,-0.04833984,0.2597656,-0.15625
447,-47.6875,-14.5,-166.1875,0.6015625,-1.68457,0.2094727,-0.06494141,0.2597656,-0.1523438
451,-44.5625,-15.0625,-134.375,0.543457,-1.743164,0.2133789,-0.07470703,0.2587891,-0.1494141
455,-29.1875,-20,-108.875,0.4233398,-1.638184,0.1748047,-0.08544922,0.2573242,-0.144043
459,-0.4375,-32.0625,-102.6875,0.3457031,-1.505859,0.1518555,-0.09619141,0.2563477,-0.1425781
463,32.0625,-48.8125,-101.8125,0.3691406,-1.338867,0.1635742,-0.1044922,0.2563477,-0.1416016
467,41.75,-52.75,-96,0.5239258,-1.05127,0.2709961,-0.1152344,0.2485352,-0.1416016
471,21.9375,-42.4375,-83.6875,0.644043,-0.9155273,0.3710938,-0.1235352,0.2475586,-0.1416016
475,-2.4375,-24.8125,-72.0625,0.7255859,-0.9580078,0.4404297,-0.1293945,0.2436523,-0.1425781
479,-20.1875,-3.875,-57.25,0.6791992,-1.05127,0.3979492,-0.1376953,0.2412109,-0.1416016
483,-32.1875,8.375,-47,0.578125,-1.129395,0.3095703,-0.1391602,0.2397461,-0.137207
487,-36.0625,15.375,-31.8125,0.4892578,-1.304199,0.2519531,-0.1425781,0.2426758,-0.1386719
491,-31.3125,17.3125,-15.5625,0.3999023,-1.428223,0.2021484,-0.1435547,0.2412109,-0.1357422
495,-19.9375,17.9375,1.375,0.3730469,-1.552734,0.2021484,-0.1450195,0.2397461,-0.1318359
499,-9.875,19.5625,21.625,0.3769531,-1.548828,0.2250977,-0.1435547,0.2426758,-0.1303711
503,-9.5,25.1875,43.25,0.4311523,-1.533203,0.2749023,-0.1391602,0.2451172,-0.1347656
507,-10.75,32.5625,67.9375,0.3999023,-1.552734,0.2558594,-0.1342773,0.2475586,-0.1333008
511,-13.8125,34.625,94.625,0.4155273,-1.618652,0.2636719,-0.1303711,0.2475586,-0.1357422
515,-10.5625,40.8125,119.4375,0.4467773,-1.688477,0.2636719,-0.1201172,0.2524414,-0.1357422
519,-7.8125,38.9375,143.1875,0.4077148,-1.711914,0.2402344,-0.1069336,0.2563477,-0.1357422
523,-0.3125,38.3125,166.125,0.5473633,-1.785645,0.2675781,-0.09863281,0.2587891,-0.137207
527,7.75,38.3125,191.5,0.527832,-1.785645,0.2441406,-0.08203125,0.2612305,-0.1357422
531,17.0625,32.8125,211.125,0.5898438,-1.754883,0.2709961,-0.06298828,0.2636719,-0.1401367
535,24.1875,37.375,222.4375,0.6831055,-1.645996,0.3291016,-0.04980469,0.2661133,-0.1425781
539,21.9375,40.625,236.125,0.644043,-1.618652,0.3056641,-0.02685547,0.2675781,-0.1469727
544,21.875,38.75,250.5,0.59375,-1.603027,0.2368164,-0.004394531,0.2651367,-0.1494141
548,29.4375,30.5,258.75,0.5473633,-1.64209,0.1557617,0.01269531,0.2636719,-0.1508789
552,34.9375,21.5625,269.875,0.5126953,-1.606934,0.1020508,0.03564453,0.2587891,-0.1547852
556,38.4375,13,276.75,0.4580078,-1.622559,0.08642578,0.06054688,0.2524414,-0.1577148
560,62.125,4.125,277.0625,0.4580078,-1.692383,0.1328125,0.07617188,0.2460938,-0.1616211
564,87.75,-2.9375,270.25,0.4892578,-1.595215,0.2060547,0.09960938,0.2348633,-0.1674805
568,95.75,3.125,272.5,0.6054688,-1.385742,0.2905273,0.1201172,0.2197266,-0.1796875
572,70.9375,25.375,282.625,0.6132813,-1.152344,0.3251953,0.1333008,0.2084961,-0.1821289
576,43.375,42.9375,293.1875,0.5009766,-1.144531,0.2944336,0.1567383,0.1914063,-0.1875
580,32.0625,54.6875,292.125,0.3417969,-1.249512,0.2060547,0.1772461,0.1723633,-0.1865234
584,42.3125,42.875,294.4375,0.109375,-1.401367,0.05566406,0.1928711,0.1601563,-0.1865234
588,69.6875,21.1875,291.3125,0.04345703,-1.370117,-0.02050781,0.2080078,0.1386719,-0.1875
592,98.5625,4,283.4375,0.09375,-1.207031,-0.02832031,0.2270508,0.1137695,-0.1918945
596,103.4375,-3.75,284.75,0.140625,-0.8881836,-0.009277344,0.234375,0.09619141,-0.1972656
600,77.5,4.125,293.375,0.2026367,-0.7016602,0.06347656,0.2460938,0.06738281,-0.2041016
604,55.75,12.9375,295.25,0.1367188,-0.5307617,0.09423828,0.2568359,0.04003906,-0.206543
608,47.625,16.4375,284.75,0.004882813,-0.5541992,0.05957031,0.2617188,0.02148438,-0.2041016
612,52.1875,12.9375,273.625,-0.07226563,-0.5854492,0.04785156,0.269043,-0.004394531,-0.2055664
616,56,-0.6875,279.8125,-0.1459961,-0.5854492,0.04052734,0.2709961,-0.03173828,-0.206543
620,59.25,-8.0625,277.75,-0.09912109,-0.503418,0.1210938,0.2724609,-0.05078125,-0.2055664
624,59.3125,-2.25,268.75,-0.08789063,-0.2900391,0.2172852,0.2700195,-0.07958984,-0.2080078
628,30.75,13.5,276.625,-0.09521484,-0.2163086,0.2675781,0.2675781,-0.1083984,-0.2080078
632,12.5,18.4375,291.75,-0.2231445,-0.1811523,0.1982422,0.2641602,-0.1230469,-0.206543
636,13,12.125,286.9375,-0.2734375,-0.09960938,0.1713867,0.2592773,-0.1508789,-0.2055664
640,27.5625,-1.6875,275.8125,-0.3203125,0.04003906,0.06347656,0.2509766,-0.1743164,-0.2041016
644,49.25,-26.5625,253.625,-0.2851563,0.284668,0.02880859,0.2436523,-0.1904297,-0.2041016
648,81.3125,-55.1875,213.6875,-0.1069336,0.7392578,-0.1054688,0.230957,-0.2119141,-0.2055664
652,112.9375,-83.9375,169.625,-0.02587891,1.084961,-0.1435547,0.2163086,-0.2319336,-0.2055664
656,120.125,-90.375,114.0625,0.3188477,1.76123,-0.07861328,0.2080078,-0.2441406,-0.206543
660,91.25,-72.625,64,0.5473633,2.23877,0.07128906,0.1962891,-0.2558594,-0.2026367
664,48.4375,-38.9375,5.0625,0.5512695,2.429199,0.1748047,0.1914063,-0.2641602,-0.199707
668,0,-7.125,-56.1875,0.4233398,2.250488,0.2441406,0.1914063,-0.265625,-0.2011719
673,-31.5625,19.625,-116.375,0.2255859,1.664063,0.2788086,0.1948242,-0.2592773,-0.2026367
677,-46.1875,34.0625,-152.5,-0.02587891,1.049805,0.2905273,0.2045898,-0.2470703,-0.2026367
681,-53,38.4375,-164.1875,-0.1845703,0.5800781,0.2788086,0.2104492,-0.2407227,-0.2026367
685,-48.8125,40.6875,-166.9375,-0.3164063,0.300293,0.2094727,0.2236328,-0.2255859,-0.2026367
689,-42.75,35.125,-171.6875,-0.4790039,0.2885742,0.1328125,0.2329102,-0.2094727,-0.2026367
693,-38.875,21.0625,-178.6875,-0.5449219,0.3232422,0.05957031,0.2392578,-0.1982422,-0.2011719
697,-39.4375,5.8125,-186,-0.5683594,0.3232422,0.03662109,0.2475586,-0.1821289,-0.2026367
701,-45.125,-10.125,-191,-0.5605469,0.2226563,0.1020508,0.2543945,-0.1655273,-0.2041016
705,-50.375,-14.1875,-195.1875,-0.4443359,0.03613281,0.1904297,0.2568359,-0.1518555,-0.2041016
709,-49.6875,-7.1875,-197.1875,-0.4555664,-0.1152344,0.2021484,0.2617188,-0.1318359,-0.2080078
713,-47.875,-12.375,-193.75,-0.5527344,-0.1459961,0.1557617,0.2651367,-0.1118164,-0.2080078
717,-42.8125,-25.5625,-192,-0.5605469,-0.2006836,0.1479492,0.2675781,-0.09814453,-0.2080078
721,-31.875,-37.9375,-197.3125,-0.5795898,-0.2202148,0.1289063,0.2675781,-0.07714844,-0.2094727
725,-26.875,-53.6875,-202.5,-0.5488281,-0.2705078,0.1713867,0.2651367,-0.05957031,-0.2177734
729,-12.4375,-56.9375,-216.75,-0.378418,-0.3442383,0.2675781,0.2641602,-0.046875,-0.2202148
733,-17.5625,-53.6875,-225.25,-0.3549805,-0.3173828,0.3330078,0.2592773,-0.02832031,-0.2231445
737,-37.625,-48.1875,-208.5,-0.2851563,-0.4101563,0.3330078,0.2519531,-0.008300781,-0.2270508
741,-55.625,-47.125,-188.375,-0.3432617,-0.46875,0.2749023,0.2485352,0.004882813,-0.2299805
745,-66.9375,-53.4375,-177.6875,-0.3085938,-0.355957,0.3017578,0.2426758,0.02392578,-0.2299805
749,-64.75,-53.0625,-186.0625,-0.1884766,-0.5541992,0.355957,0.2368164,0.04150391,-0.230957
753,-47.625,-40.1875,-226.8125,-0.1225586,-0.6474609,0.4174805,0.230957,0.05517578,-0.2324219
757,-39.625,-34.8125,-242.875,-0.1459961,-0.8959961,0.4018555,0.21875,0.07617188,-0.2338867
761,-45.5,-31.25,-217.375,-0.1030273,-1.059082,0.4018555,0.2070313,0.09375,-0.230957
765,-60.9375,-35.25,-179.4375,-0.2426758,-0.9311523,0.3095703,0.199707,0.1035156,-0.2324219
769,-84.375,-45,-160.6875,-0.2080078,-0.8105469,0.2788086,0.1879883,0.1201172,-0.2324219
773,-87.9375,-45.4375,-158.1875,-0.04492188,-0.9467773,0.2866211,0.1782227,0.1347656,-0.2285156
777,-49.8125,-37.625,-206.4375,-0.01806641,-0.9116211,0.2905273,0.1699219,0.1459961,-0.2255859
781,-26.375,-44.0625,-236.5,0.02832031,-1.055176,0.2597656,0.1533203,0.1601563,-0.2246094
785,-36.25,-46.3125,-216.9375,0.1367188,-1.05127,0.3056641,0.1357422,0.1738281,-0.2270508
789,-74.8125,-45.6875,-175.75,0.1557617,-0.9853516,0.2905273,0.128418,0.1811523,-0.2216797
793,-97,-45.625,-157.9375,0.1674805,-0.9580078,0.1982422,0.1103516,0.1923828,-0.21875
797,-75.875,-48.5625,-181.875,0.2646484,-1.036133,0.1787109,0.09863281,0.2036133,-0.2148438
802,-34.25,-54.3125,-220,0.2724609,-1.160156,0.140625,0.08691406,0.2138672,-0.2119141
806,-7.0625,-68.3125,-231.875,0.3417969,-1.164063,0.1865234,0.06787109,0.21875,-0.2109375
810,-11.6875,-76.125,-214.375,0.4775391,-1.004883,0.2172852,0.04638672,0.2250977,-0.2080078
814,-51.0625,-73.625,-190.9375,0.5898438,-0.8027344,0.2021484,0.03320313,0.2275391,-0.2094727
818,-82.3125,-67.4375,-179.4375,0.6674805,-0.9350586,0.1518555,0.01513672,0.2338867,-0.2041016
822,-81.1875,-64.3125,-186.25,0.7255859,-1.105957,0.1518555,-0.003417969,0.2412109,-0.1958008
826,-48.6875,-65.125,-216.25,0.7099609,-1.210938,0.125,-0.01611328,0.2426758,-0.1928711
830,-26.875,-75.5625,-221.875,0.7915039,-1.214844,0.1557617,-0.0390625,0.2436523,-0.1865234
834,-34.1875,-79.5,-211.1875,0.8574219,-1.125488,0.1713867,-0.06054688,0.2412109,-0.1835938
838,-50.5,-78.4375,-196.125,0.9038086,-1.253418,0.2060547,-0.07324219,0.2412109,-0.1782227
842,-54.0625,-70.625,-184.875,0.9580078,-1.525391,0.3056641,-0.09375,0.2412109,-0.1728516
846,-43.6875,-63.0625,-175.9375,0.8652344,-1.723633,0.4326172,-0.1113281,0.2397461,-0.1660156
850,-29.25,-48.9375,-157.5625,0.7836914,-1.855957,0.5444336,-0.1210938,0.2373047,-0.1616211
854,-32.375,-32.5625,-127.5,0.6328125,-1.886719,0.5830078,-0.1342773,0.2324219,-0.1577148
858,-40.375,-10.6875,-82.125,0.543457,-1.999512,0.6210938,-0.1450195,0.2285156,-0.1508789
862,-42.8125,3.125,-33.75,0.3959961,-1.97998,0.5751953,-0.1484375,0.2314453,-0.1484375
866,-31,7.8125,3.5625,0.3188477,-1.921875,0.4980469,-0.1518555,0.2314453,-0.1484375
870,-6.3125,5,26.9375,0.2797852,-1.719727,0.4287109,-0.1494141,0.2338867,-0.1455078
874,13.75,-0.9375,41.3125,0.3613281,-1.501953,0.4404297,-0.1484375,0.2363281,-0.1455078
878,26.875,0.75,46.75,0.4541016,-1.331055,0.4941406,-0.1459961,0.2348633,-0.1469727
882,26.3125,8.625,54.5,0.5356445,-1.253418,0.5288086,-0.1411133,0.2363281,-0.1508789
886,15.125,24.5,69.4375,0.5976563,-1.272949,0.5830078,-0.1376953,0.2363281,-0.1484375
890,4.375,43.9375,90.4375,0.6132813,-1.358398,0.5483398,-0.1303711,0.2387695,-0.1523438
894,-6.1875,56.4375,114.375,0.5859375,-1.439941,0.4711914,-0.1201172,0.2412109,-0.1547852
898,-11.375,66.25,140.1875,0.5820313,-1.568359,0.4174805,-0.109375,0.2451172,-0.1547852
902,-4.4375,68.875,159.6875,0.5708008,-1.665527,0.3212891,-0.09472656,0.2475586,-0.1577148
906,2.3125,67.6875,181,0.59375,-1.622559,0.2480469,-0.07958984,0.2524414,-0.1606445
910,2.5625,68.875,199.75,0.6870117,-1.505859,0.2441406,-0.06738281,0.2524414,-0.1630859
914,-12.5625,75.1875,216.875,0.6982422,-1.408691,0.2749023,-0.04589844,0.2548828,-0.1630859
918,-23.8125,82.625,229,0.6557617,-1.501953,0.2368164,-0.0234375,0.2573242,-0.1630859
922,-24.4375,80.9375,240.1875,0.527832,-1.564453,0.1787109,-0.0078125,0.2573242,-0.1645508
926,-15.125,76.75,246.1875,0.4814453,-1.661621,0.125,0.01513672,0.2587891,-0.1616211
931,-11.5,68,260.875,0.4155273,-1.618652,0.04785156,0.04150391,0.2563477,-0.1591797
935,-11.6875,55.0625,274.875,0.3457031,-1.576172,-0.009277344,0.05810547,0.2509766,-0.1616211
939,-1.9375,40.6875,276.1875,0.3149414,-1.564453,-0.03613281,0.08300781,0.2460938,-0.1606445
943,9.125,27.8125,276.25,0.2373047,-1.544922,-0.08203125,0.105957,0.2373047,-0.1606445
947,22.125,10.5625,279.1875,0.2138672,-1.552734,-0.05517578,0.1235352,0.2275391,-0.1591797
951,37,-0.75,277.5,0.2294922,-1.366211,0.03662109,0.1425781,0.2148438,-0.1630859
955,47.8125,-0.25,269,0.2451172,-1.412598,0.07128906,0.1640625,0.2001953,-0.1674805
959,56.3125,-0.9375,276.6875,0.2177734,-1.34668,0.09423828,0.1782227,0.1860352,-0.1699219
963,44.5,3.1875,291.1875,0.159668,-1.210938,0.09033203,0.1962891,0.1660156,-0.1728516
967,38.8125,2.6875,290.125,0.08642578,-1.105957,0.07910156,0.215332,0.1450195,-0.1767578
971,44.5625,-0.4375,287.25,-0.04101563,-1.148438,-0.01660156,0.2236328,0.1313477,-0.1782227
975,63.3125,-19.8125,284.875,-0.1186523,-1.062988,-0.04394531,0.2392578,0.1064453,-0.1835938
979,89.8125,-30.9375,276,-0.01416016,-1.047363,-0.02441406,0.25,0.08105469,-0.1889648
983,109.875,-37.75,265,0.0009765625,-0.7792969,0.005859375,0.2543945,0.0625,-0.1928711
987,90.5625,-28.625,271.75,0.1518555,-0.4375,0.1635742,0.2592773,0.03369141,-0.2026367
991,55.25,-7.75,276.25,0.125,-0.2666016,0.2133789,0.2675781,0.006347656,-0.2055664
995,32.1875,4.5625,278.25,-0.01025391,-0.3173828,0.1557617,0.2709961,-0.01171875,-0.206543
999,25.5625,1.125,275.0625,-0.1186523,-0.3134766,0.09814453,0.2724609,-0.03710938,-0.2080078
1003,23.1875,-2.5625,265.5625,-0.1611328,-0.2431641,0.07519531,0.2749023,-0.06445313,-0.2094727
1007,27.125,-9.25,254.875,-0.2387695,-0.2783203,0.05175781,0.2700195,-0.08056641,-0.2080078
1011,34.6875,-16,245.3125,-0.2348633,-0.2509766,0.09814453,0.2675781,-0.1044922,-0.2094727
1015,25.875,-14.125,246.5,-0.1689453,-0.1230469,0.2060547,0.2626953,-0.1279297,-0.2119141
1019,3.375,-2.125,250.3125,-0.1650391,0.1020508,0.3520508,0.2568359,-0.140625,-0.2094727
1023,0.1875,10.8125,233.8125,-0.215332,0.203125,0.3481445,0.2485352,-0.1645508,-0.2094727
1027,14.1875,9.1875,201.0625,-0.2929688,0.3740234,0.2094727,0.2426758,-0.1791992,-0.2094727
1031,45.9375,-11.5,162.375,-0.2080078,0.6264648,0.08251953,0.237793,-0.1918945,-0.2094727
1035,82.0625,-44.3125,128,-0.1728516,1.108398,-0.128418,0.230957,-0.2070313,-0.2055664
1039,107.5625,-81.9375,85.5625,0.02050781,1.58252,-0.1552734,0.2211914,-0.2207031,-0.2094727
1043,108.9375,-103.25,33.125,0.2451172,2.15332,-0.07861328,0.2163086,-0.2294922,-0.206543
1047,85.3125,-98,-37.3125,0.3769531,2.367188,0.1865234,0.2104492,-0.2358398,-0.2080078
1051,44.8125,-59.0625,-110.25,0.4389648,2.021484,0.4633789,0.2080078,-0.234375,-0.2094727
1055,-9.3125,-12.375,-151.3125,0.3227539,1.52002,0.625,0.2119141,-0.2294922,-0.2109375
1060,-59.75,28.1875,-158.25,0.1171875,0.921875,0.5366211,0.21875,-0.2192383,-0.2133789
1064,-80.3125,41.4375,-149.125,-0.2348633,0.4672852,0.2905273,0.2285156,-0.203125,-0.2119141
1068,-64.1875,29.125,-153.25,-0.4594727,0.2299805,0.1098633,0.2329102,-0.1918945,-0.2133789
1072,-31.625,3.6875,-171.9375,-0.5722656,0.2299805,0.01367188,0.2426758,-0.1767578,-0.2163086
1076,-1.25,-22.625,-197.0625,-0.5102539,0.2885742,0.05175781,0.2475586,-0.1606445,-0.2163086
1080,8.875,-34.3125,-224.25,-0.4208984,0.3081055,0.2250977,0.25,-0.1494141,-0.2163086
1084,-2.8125,-24.5,-233.3125,-0.246582,0.15625,0.375,0.253418,-0.1308594,-0.2202148
1088,-29,-11.6875,-223.25,-0.2426758,0.1293945,0.3056641,0.2592773,-0.109375,-0.2202148
1092,-52.0625,-13.3125,-196.5625,-0.4091797,-0.1230469,0.1748047,0.2583008,-0.09716797,-0.2202148
1096,-59,-26.75,-185.0625,-0.4482422,-0.1577148,0.1367188,0.2602539,-0.07568359,-0.2231445
1100,-40.5625,-30.8125,-210.1875,-0.3432617,-0.2861328,0.2441406,0.2602539,-0.05810547,-0.2255859
1104,-15.5625,-26.8125,-249.5625,-0.347168,-0.3598633,0.2709961,0.2568359,-0.04443359,-0.2255859
1108,-26,-30.1875,-254.5,-0.3007813,-0.09179688,0.3212891,0.2519531,-0.02050781,-0.2285156
1112,-48.6875,-21.75,-218.5625,-0.2661133,-0.7016602,0.3251953,0.2485352,0,-0.2299805
1116,-75.625,-27.75,-179.75,-0.4287109,-0.5927734,0.2636719,0.2460938,0.01367188,-0.2299805
1120,-84.5,-29.4375,-172.1875,-0.2929688,-0.7602539,0.3134766,0.2402344,0.03515625,-0.2285156
1124,-60.375,-23.4375,-199.6875,-0.3203125,-0.7250977,0.3330078,0.2329102,0.05126953,-0.2270508
1128,-43.875,-22.5625,-225.3125,-0.2890625,-0.8725586,0.3251953,0.2285156,0.06494141,-0.2285156
1132,-33.3125,-26,-222.625,-0.3203125,-1.012695,0.2675781,0.2202148,0.08496094,-0.2285156
1136,-38.1875,-39.1875,-201.9375,-0.3242188,-1.043945,0.2944336,0.2070313,0.1010742,-0.2255859
1140,-55.3125,-45.0625,-165.5625,-0.230957,-1.078613,0.3520508,0.1987305,0.1113281,-0.2270508
1144,-89.1875,-38.125,-137.5,-0.09521484,-0.9580078,0.4326172,0.1889648,0.1264648,-0.2270508
1148,-92.6875,-12.8125,-150.8125,-0.002441406,-0.9736328,0.4365234,0.1796875,0.1401367,-0.2231445
1152,-73.1875,-1.125,-180.5,-0.1728516,-1.016602,0.2905273,0.1757813,0.1489258,-0.21875
1156,-53.75,-9.75,-198.625,-0.1689453,-1.164063,0.2519531,0.1616211,0.1625977,-0.2163086
1160,-36.875,-21.25,-191,-0.1923828,-1.479004,0.2480469,0.1474609,0.1762695,-0.2109375
1164,-19.6875,-38.8125,-161.3125,-0.1806641,-1.618652,0.2441406,0.1376953,0.1850586,-0.2094727
1168,-18.5,-52.125,-132.5625,-0.1884766,-1.257324,0.2211914,0.1269531,0.1923828,-0.2119141
1172,-31.0625,-55.125,-125.375,-0.01806641,-1.036133,0.2636719,0.1142578,0.2001953,-0.2109375
1176,-32.625,-46.4375,-139.125,0.06298828,-0.9467773,0.2675781,0.1079102,0.2036133,-0.2080078
1180,-27.25,-43.75,-158.5,0.04736328,-0.9233398,0.2021484,0.09375,0.2114258,-0.2055664
1184,-22.4375,-49.875,-163.8125,0.109375,-0.9194336,0.1748047,0.07958984,0.2172852,-0.2080078
1189,-28.6875,-53.8125,-164.375,0.2373047,-0.7719727,0.2021484,0.06982422,0.2197266,-0.2080078
1193,-52.0625,-47.4375,-167.25,0.3959961,-0.7524414,0.2675781,0.05566406,0.2260742,-0.2041016
1197,-70.6875,-30.625,-174.9375,0.4736328,-0.8261719,0.2636719,0.0390625,0.2338867,-0.1987305
1201,-82.3125,-22.4375,-178.875,0.4658203,-1.000977,0.2172852,0.02734375,0.2373047,-0.1958008
1205,-74.5,-21.875,-182.625,0.4736328,-1.214844,0.1787109,0.01171875,0.2436523,-0.1875
1209,-53.6875,-29.1875,-183.375,0.5087891,-1.296387,0.140625,-0.005859375,0.25,-0.1835938
1213,-41.5625,-35.25,-178.1875,0.5629883,-1.233887,0.1171875,-0.01513672,0.25,-0.175293
1217,-37.6875,-38.5,-180.0625,0.6289063,-1.191406,0.1132813,-0.03320313,0.2524414,-0.175293
1221,-36.9375,-36.3125,-181.125,0.644043,-1.233887,0.09814453,-0.04833984,0.2524414,-0.1699219
1225,-28.8125,-40.75,-180.625,0.6401367,-1.370117,0.140625,-0.06054688,0.25,-0.1645508
1229,-12.4375,-42.8125,-175.1875,0.625,-1.475098,0.1748047,-0.07714844,0.2509766,-0.1645508
1233,-1.375,-46.625,-157.125,0.5708008,-1.494629,0.1748047,-0.09472656,0.2460938,-0.1591797
1237,1.3125,-48.3125,-132,0.5356445,-1.475098,0.2172852,-0.1054688,0.2436523,-0.1606445
1241,-1.625,-46.0625,-109.625,0.5200195,-1.467285,0.3134766,-0.1152344,0.2426758,-0.15625
1245,-0.25,-36.25,-88.875,0.559082,-1.509766,0.425293,-0.1259766,0.2387695,-0.15625
1249,-2.3125,-22.4375,-64.0625,0.5551758,-1.467285,0.4633789,-0.1318359,0.2387695,-0.1523438
1253,-9.75,-7.875,-38.5,0.5239258,-1.393555,0.4482422,-0.1367188,0.2348633,-0.1508789
1257,-16.25,1.375,-12.3125,0.4658203,-1.350586,0.4057617,-0.1376953,0.2348633,-0.1508789
1261,-13.6875,2.25,5,0.3886719,-1.334961,0.355957,-0.1376953,0.2348633,-0.1523438
1265,-6.25,3.5625,16.25,0.4038086,-1.331055,0.3867188,-0.1376953,0.2363281,-0.1494141
1269,0.25,7,29.4375,0.4272461,-1.342773,0.4633789,-0.1352539,0.2363281,-0.1508789
1273,0.0625,15.8125,45.25,0.4931641,-1.385742,0.5288086,-0.1352539,0.2373047,-0.1494141
1277,-3.625,31.125,65.125,0.5239258,-1.48291,0.5556641,-0.1293945,0.2397461,-0.1494141
1281,-9.875,45.5625,91.5625,0.4970703,-1.533203,0.5136719,-0.1220703,0.2412109,-0.1523438
1285,-16.4375,55.5625,114.75,0.5239258,-1.583984,0.4868164,-0.1162109,0.2451172,-0.1538086
1289,-17.5,66.8125,133.9375,0.5161133,-1.630371,0.4135742,-0.1020508,0.2475586,-0.1547852
1293,-16.5,68.0625,158.0625,0.5087891,-1.696289,0.3173828,-0.08789063,0.2509766,-0.1547852
1297,-9.6875,63.375,184.5625,0.4775391,-1.71582,0.2172852,-0.078125,0.2563477,-0.1547852
1301,1.25,56.5625,204.125,0.5009766,-1.64209,0.1943359,-0.05810547,0.2573242,-0.1577148
1305,11.3125,51.625,210.5625,0.5048828,-1.505859,0.1748047,-0.03662109,0.2597656,-0.1591797
1309,19.5,49.875,209.5,0.5629883,-1.467285,0.2172852,-0.0234375,0.2587891,-0.1606445
1313,24.125,54.3125,208.0625,0.5473633,-1.494629,0.2329102,-0.004394531,0.2563477,-0.1645508
1318,21.875,54.9375,225.4375,0.5200195,-1.587891,0.1982422,0.01513672,0.2548828,-0.1660156
1322,22.375,51.1875,241.375,0.4350586,-1.599121,0.1479492,0.03173828,0.2524414,-0.1660156
1326,34.3125,40.0625,250.125,0.3535156,-1.696289,0.06738281,0.0546875,0.2475586,-0.1728516
1330,52.25,26.5,254.6875,0.3574219,-1.61084,0.03662109,0.07617188,0.2412109,-0.175293
1334,64.625,20.125,256.8125,0.3305664,-1.447754,-0.01660156,0.09277344,0.2338867,-0.175293
1338,62,11.1875,262.1875,0.3305664,-1.269043,0.02490234,0.112793,0.2197266,-0.1821289
1342,57.1875,12.8125,265.75,0.3305664,-1.15625,0.03662109,0.1318359,0.2075195,-0.1875
1346,50.4375,8.8125,265.5625,0.2373047,-1.012695,0.02490234,0.144043,0.1962891,-0.1889648
1350,56.8125,5.8125,249.375,0.2104492,-1.024414,0.06738281,0.1640625,0.1787109,-0.1958008
1354,64,6.9375,238,0.1948242,-1.047363,0.09423828,0.1796875,0.1635742,-0.1987305
1358,64.8125,3.625,240.375,0.140625,-1.055176,0.1171875,0.1904297,0.1499023,-0.2011719
1362,61.125,6.0625,247.3125,0.109375,-0.9736328,0.1171875,0.203125,0.1298828,-0.2041016
1366,51.0625,6.5625,254.4375,0.06689453,-0.8027344,0.1328125,0.215332,0.1098633,-0.2094727
1370,40.1875,7.1875,255.8125,-0.01025391,-0.7016602,0.140625,0.2236328,0.09765625,-0.2119141
1374,38.6875,7.375,241.4375,-0.07617188,-0.7172852,0.1557617,0.2353516,0.07617188,-0.2133789
1378,47.9375,6,230.5,-0.1884766,-0.7485352,0.09814453,0.2436523,0.05517578,-0.2148438
1382,53.25,-6.6875,235.625,-0.2426758,-0.6977539,0.1020508,0.2485352,0.04003906,-0.2163086
1386,54.8125,-15.4375,240.5625,-0.2270508,-0.6044922,0.1713867,0.2543945,0.01757813,-0.21875
1390,53.6875,-17.8125,242.125,-0.2231445,-0.5151367,0.2250977,0.2568359,-0.004394531,-0.2216797
1394,53.9375,-18.1875,237.75,-0.28125,-0.3911133,0.2094727,0.2583008,-0.02197266,-0.2246094
1398,55.5,-18.875,223.1875,-0.362793,-0.3520508,0.1943359,0.2583008,-0.04443359,-0.2216797
1402,63.75,-24.5,212.8125,-0.4672852,-0.402832,0.159668,0.2583008,-0.06591797,-0.2299805
1406,72.75,-34,213.875,-0.4248047,-0.3676758,0.1557617,0.2558594,-0.08056641,-0.2285156
1410,81.25,-43.3125,212.9375,-0.4013672,-0.1967773,0.2060547,0.2460938,-0.1044922,-0.2324219
1414,100.9375,-49.1875,194.75,-0.3242188,0.004882813,0.2211914,0.2426758,-0.1269531,-0.2353516
1418,121.4375,-52,168.9375,-0.2192383,0.300293,0.2250977,0.2392578,-0.1430664,-0.2338867
1422,126.375,-46.5625,154.5625,-0.06445313,-0.3442383,0.340332,0.2285156,-0.1630859,-0.2338867
1426,95.25,-33.8125,138.0625,0.1367188,1.291016,0.2675781,0.222168,-0.1821289,-0.2324219
1430,53.4375,-18.75,120.5,0.1674805,1.652344,0.1826172,0.2163086,-0.1904297,-0.2324219
1434,24.9375,-11.8125,84.25,0.1328125,1.795898,0.140625,0.2119141,-0.203125,-0.2324219
1438,12.9375,-7.8125,28.3125,0.07080078,1.788086,0.1132813,0.2080078,-0.2080078,-0.2324219
1442,11.75,-6.8125,-38.625,-0.05664063,1.628906,0.1020508,0.2080078,-0.2080078,-0.2324219
1447,10.625,-11.0625,-99.375,-0.1342773,1.337402,0.1674805,0.2094727,-0.2070313,-0.230957
1451,0.3125,-11.8125,-135.8125,-0.2001953,0.9995117,0.2675781,0.2138672,-0.1982422,-0.230957
1455,-17.25,-8.1875,-152.6875,-0.2583008,0.6147461,0.409668,0.21875,-0.1918945,-0.2324219
1459,-28.125,4.8125,-149.8125,-0.2543945,0.253418,0.4560547,0.2246094,-0.1806641,-0.2338867
1463,-37.125,10.0625,-136.9375,-0.4326172,0.1914063,0.3710938,0.2294922,-0.1669922,-0.2353516
1467,-44.1875,1.6875,-129,-0.5292969,0.2265625,0.2675781,0.2329102,-0.1582031,-0.2324219
1471,-36.6875,-7.6875,-142.625,-0.5253906,0.2807617,0.2329102,0.2368164,-0.1445313,-0.2353516
1475,-25.5625,-16.5625,-174.75,-0.5371094,0.2729492,0.2675781,0.2392578,-0.1293945,-0.2353516
1479,-23.6875,-21.8125,-200.4375,-0.4521484,0.140625,0.2983398,0.2392578,-0.1181641,-0.237793
1483,-23.375,-19.5625,-200.5625,-0.3549805,-0.02197266,0.2827148,0.2436523,-0.09960938,-0.2407227
1487,-27.8125,-24.8125,-192.1875,-0.4248047,-0.06445313,0.2060547,0.2451172,-0.08300781,-0.2421875
1491,-33.25,-41.3125,-186,-0.4365234,-0.006347656,0.159668,0.2436523,-0.07177734,-0.2436523
1495,-26.625,-54.8125,-203.125,-0.3974609,-0.1616211,0.2021484,0.2402344,-0.05322266,-0.2475586
1499,-2.625,-64.125,-232.125,-0.3549805,-0.355957,0.2709961,0.2353516,-0.03710938,-0.2514648
1503,16.6875,-67,-248.0625,-0.328125,-0.387207,0.2675781,0.2319336,-0.02441406,-0.2543945
1507,-0.1875,-73.75,-232.5625,-0.3007813,-0.2666016,0.2558594,0.2246094,-0.005859375,-0.2583008
1511,-41.3125,-75.8125,-209.8125,-0.215332,-0.1889648,0.340332,0.215332,0.01025391,-0.2626953
1515,-87.3125,-69.8125,-186,-0.1186523,-0.3442383,0.3710938,0.2119141,0.02246094,-0.2636719
1519,-126.0625,-62.75,-176.125,-0.09521484,-0.5385742,0.4365234,0.199707,0.04248047,-0.2651367
1523,-117.8125,-49.375,-187.8125,0.01660156,-1.066895,0.5249023,0.1904297,0.06396484,-0.2651367
1527,-60.625,-43.25,-211.125,-0.1923828,-1.370117,0.3979492,0.184082,0.07617188,-0.2666016
1531,-14.9375,-65.6875,-212.6875,-0.28125,-1.191406,0.340332,0.1738281,0.09130859,-0.2636719
1535,-20.875,-80.875,-190,-0.08007813,-0.8647461,0.4443359,0.1567383,0.1049805,-0.2651367
1539,-72.6875,-69.625,-161.3125,0.1289063,-0.581543,0.5483398,0.1474609,0.1123047,-0.2651367
1543,-141.4375,-43.9375,-139.5,0.2138672,-0.550293,0.5249023,0.1367188,0.1264648,-0.2636719
1547,-171.6875,-19,-146.375,0.2646484,-0.9467773,0.4633789,0.1269531,0.1435547,-0.2568359
1551,-139.4375,-3.625,-175.5,0.1791992,-1.354492,0.390625,0.1201172,0.1547852,-0.2475586
1555,-82.75,-11.625,-191.375,0.07861328,-1.638184,0.3017578,0.1079102,0.1738281,-0.2407227
1559,-40.1875,-32.25,-174.4375,-0.01806641,-1.389648,0.2172852,0.09521484,0.1826172,-0.2368164
1563,-36,-55.875,-159.5625,0.07470703,-0.9580078,0.2329102,0.08691406,0.1884766,-0.2368164
1567,-64.125,-54,-153.8125,0.3188477,-0.6474609,0.2597656,0.07226563,0.1938477,-0.2353516
1571,-113,-38.9375,-158.3125,0.5087891,-0.6318359,0.3212891,0.05810547,0.2050781,-0.2285156
1576,-139.125,-9.5625,-165.375,0.644043,-0.9970703,0.3212891,0.04980469,0.2114258,-0.2216797
1580,-129.9375,1.8125,-172.5625,0.4541016,-1.272949,0.2060547,0.03662109,0.2226563,-0.2109375
1584,-97.8125,-11.5,-177.875,0.3808594,-1.471191,0.144043,0.02246094,0.2324219,-0.199707
1588,-58.5,-30,-174.1875,0.4077148,-1.447754,0.105957,0.01171875,0.2363281,-0.1972656
1592,-31.3125,-47.375,-175,0.4619141,-1.237793,0.07519531,-0.001953125,0.2426758,-0.1928711
1596,-23.1875,-57.375,-182.3125,0.5356445,-1.043945,0.07128906,-0.02099609,0.2436523,-0.1889648
1600,-31.625,-61.375,-187.625,0.6132813,-1.032227,0.07910156,-0.03173828,0.2436523,-0.1889648
1604,-32.25,-59.9375,-187.625,0.7216797,-1.207031,0.125,-0.05078125,0.2436523,-0.1835938
1608,-19.8125,-63.5,-181.9375,0.6518555,-1.331055,0.144043,-0.06982422,0.2426758,-0.1782227
1612,-2.25,-74.875,-172.1875,0.675293,-1.42041,0.1943359,-0.08203125,0.2412109,-0.175293
1616,14.3125,-79.5,-161.1875,0.690918,-1.401367,0.2788086,-0.09960938,0.2363281,-0.1738281
1620,19.25,-75.9375,-152,0.7255859,-1.300293,0.3710938,-0.1152344,0.2324219,-0.1738281
1624,6.25,-60.25,-134.1875,0.7529297,-1.296387,0.4829102,-0.1259766,0.2285156,-0.1713867
1628,-14.0625,-41,-108.8125,0.7373047,-1.381836,0.5981445,-0.1376953,0.2236328,-0.168457
1632,-30.9375,-16.5625,-80.4375,0.7060547,-1.513672,0.659668,-0.1474609,0.2211914,-0.1660156
1636,-45.8125,8.4375,-45.3125,0.625,-1.599121,0.6484375,-0.1508789,0.2226563,-0.1630859
1640,-52.0625,26.9375,-9.5,0.4931641,-1.661621,0.5830078,-0.1542969,0.2226563,-0.1591797
1644,-49.375,33.9375,20.5,0.4077148,-1.677246,0.5175781,-0.1518555,0.2250977,-0.15625
1648,-41.3125,36.5625,44.9375,0.3613281,-1.700195,0.4941406,-0.1494141,0.2260742,-0.1577148
1652,-26.5625,37.6875,67.3125,0.3808594,-1.727539,0.4790039,-0.1435547,0.2324219,-0.1547852
1656,-10.0625,39.5625,88.9375,0.4658203,-1.723633,0.5175781,-0.1328125,0.2363281,-0.1547852
1660,1.75,49.25,108.6875,0.5317383,-1.669434,0.5634766,-0.1293945,0.2363281,-0.1547852
1664,-6.1875,58.5625,136.625,0.5708008,-1.606934,0.5327148,-0.1186523,0.2412109,-0.1577148
1668,-21.4375,69.5,171.5625,0.6328125,-1.61084,0.4868164,-0.1020508,0.2451172,-0.1577148
1672,-31.6875,75.1875,197.5625,0.59375,-1.61084,0.425293,-0.09033203,0.2475586,-0.1606445
1676,-29.0625,76.375,214.3125,0.59375,-1.661621,0.3481445,-0.06982422,0.2539063,-0.1591797
1680,-18.625,73,225.6875,0.5551758,-1.677246,0.2250977,-0.04833984,0.2563477,-0.1591797
1684,-6.6875,62.75,236.25,0.5126953,-1.681152,0.1328125,-0.03417969,0.2587891,-0.1606445
1688,8.1875,47.5625,245.625,0.4736328,-1.649902,0.07128906,-0.0078125,0.2587891,-0.1606445
1692,24.8125,37.375,248.625,0.4970703,-1.576172,0.05175781,0.01269531,0.2573242,-0.1616211
1696,30.6875,32.5625,248.4375,0.4775391,-1.501953,0.07128906,0.02734375,0.2548828,-0.1645508
1700,30.875,28.125,251.625,0.4272461,-1.525391,0.07128906,0.05322266,0.2475586,-0.1674805
1705,35.4375,26.0625,255.875,0.3886719,-1.529297,0.09423828,0.07226563,0.2412109,-0.1713867
1709,40.8125,16.9375,265.625,0.3032227,-1.606934,0.04443359,0.08886719,0.2363281,-0.1738281
1713,58.8125,4,268.875,0.2797852,-1.548828,0.04443359,0.1103516,0.2250977,-0.1782227
1717,65.875,-0.625,276.25,0.3149414,-1.37793,0.08642578,0.1308594,0.2114258,-0.1835938
1721,66.6875,1.125,276.3125,0.3149414,-1.245605,0.1171875,0.1425781,0.1987305,-0.1865234
1725,69,6.4375,273,0.2333984,-1.133301,0.06738281,0.1630859,0.1801758,-0.1918945
1729,68.125,1.375,268.9375,0.1328125,-1.000977,0.03271484,0.1831055,0.1625977,-0.199707
1733,59.6875,2.3125,265.25,0.1870117,-0.9350586,0.105957,0.1914063,0.1489258,-0.2026367
1737,43.625,12.5625,266.75,0.1171875,-1.000977,0.09814453,0.2070313,0.1274414,-0.2055664
1741,45.875,7.6875,273.5625,0.004882813,-1.098145,0.05566406,0.21875,0.1074219,-0.2080078
1745,56.5625,1.9375,270.125,-0.04101563,-1.000977,0.04785156,0.2285156,0.09228516,-0.206543
1749,69.8125,-4.8125,266.25,-0.08398438,-0.8959961,0.005859375,0.237793,0.06982422,-0.2109375
1753,71.9375,-13.375,267.75,-0.06835938,-0.6977539,0.02880859,0.2460938,0.04394531,-0.2163086
1757,77.6875,-13.6875,250.375,-0.03710938,-0.4765625,0.09033203,0.25,0.02734375,-0.21875
1761,65.625,-6.125,249.875,-0.02587891,-0.2705078,0.125,0.253418,0,-0.2216797
1765,34.75,-1.5625,257.6875,-0.08007813,-0.1577148,0.1557617,0.2592773,-0.0234375,-0.2216797
1769,38.625,-11.75,249.875,-0.2080078,-0.3286133,0.09814453,0.2592773,-0.04052734,-0.2246094
1773,79.6875,-33.75,221.8125,-0.2929688,-0.2978516,0.07910156,0.2568359,-0.06201172,-0.2255859
1777,123.1875,-54.0625,187,-0.2270508,-0.1967773,0.1865234,0.253418,-0.08691406,-0.2285156
1781,142.25,-47.375,170.6875,0.008789063,-0.04541016,0.409668,0.2509766,-0.1020508,-0.230957
1785,104.9375,-9.6875,192.625,0.1328125,0.2070313,0.5869141,0.2460938,-0.1254883,-0.230957
1789,37.3125,26.6875,226.5,-0.002441406,0.4711914,0.5751953,0.2402344,-0.1479492,-0.2299805
1793,-4.8125,45.5625,238.25,-0.2119141,0.4282227,0.3637695,0.2392578,-0.1630859,-0.2255859
1797,10.875,36.625,216.25,-0.3974609,0.4243164,0.125,0.2329102,-0.1791992,-0.2231445
1801,53.4375,6.875,173.375,-0.4594727,0.5722656,-0.05517578,0.2270508,-0.1958008,-0.2216797
1805,93.0625,-33.125,133.5,-0.3901367,0.9023438,-0.1513672,0.2211914,-0.2045898,-0.21875
1809,108.375,-60.4375,93.8125,-0.1264648,1.36084,-0.09765625,0.2119141,-0.2207031,-0.2177734
1813,89.875,-64.0625,50.375,0.04736328,1.869629,0.02099609,0.2055664,-0.2329102,-0.2177734
1817,58.1875,-50.1875,-11.3125,0.08642578,2.001953,0.1020508,0.2011719,-0.2382813,-0.2148438
1821,29.4375,-32.4375,-75.1875,0.03955078,1.694824,0.1943359,0.2011719,-0.2392578,-0.2163086
1825,2.8125,-18.8125,-119.1875,-0.02978516,1.298828,0.2866211,0.2045898,-0.2329102,-0.2163086
1829,-22.875,-2.1875,-137.1875,-0.1069336,0.8984375,0.355957,0.2070313,-0.2280273,-0.2177734
1834,-40.375,6.0625,-138.4375,-0.2734375,0.5991211,0.3134766,0.215332,-0.2167969,-0.21875
1838,-42.6875,2.0625,-141.5625,-0.4521484,0.4243164,0.2060547,0.2211914,-0.2045898,-0.2216797
1842,-28.9375,-14.875,-156.625,-0.5722656,0.3740234,0.105957,0.2270508,-0.1943359,-0.2202148
1846,-5.3125,-39.75,-176.875,-0.5566406,0.3193359,0.08642578,0.2319336,-0.1821289,-0.2246094
1850,18.625,-59,-202.8125,-0.5141602,0.3310547,0.1557617,0.234375,-0.1669922,-0.2270508
1854,24.4375,-67.6875,-221.6875,-0.3393555,0.3466797,0.2944336,0.237793,-0.1582031,-0.2299805
1858,1.4375,-57.5625,-221.0625,-0.2080078,0.3193359,0.425293,0.2392578,-0.1420898,-0.2353516
1862,-33.125,-41.3125,-211.875,-0.2080078,0.21875,0.4057617,0.2412109,-0.1245117,-0.237793
1866,-55.125,-33.5625,-207.125,-0.2661133,0.03613281,0.3212891,0.2402344,-0.1108398,-0.2421875
1870,-62.8125,-37.3125,-207.125,-0.347168,-0.06835938,0.2558594,0.2412109,-0.08837891,-0.2407227
1874,-62.25,-47.375,-213.1875,-0.3203125,-0.1889648,0.2636719,0.2402344,-0.06835938,-0.2446289
1878,-47.8125,-50.5,-226.125,-0.2119141,-0.3056641,0.2944336,0.237793,-0.0546875,-0.2475586
1882,-41.75,-49.6875,-244.4375,-0.2270508,-0.1577148,0.3212891,0.234375,-0.03466797,-0.2529297
1886,-67.6875,-47.3125,-243.8125,-0.09912109,-0.2163086,0.3598633,0.2294922,-0.01171875,-0.2558594
1890,-90.5,-35.875,-231.875,-0.1186523,-0.46875,0.2749023,0.222168,0.00390625,-0.2558594
1894,-86.75,-47.1875,-243.3125,-0.2387695,-0.581543,0.2172852,0.2163086,0.02880859,-0.2558594
1898,-49.6875,-63.8125,-289.875,-0.1381836,-0.8647461,0.2675781,0.2055664,0.05126953,-0.2558594
1902,-14.5625,-81.375,-334.125,-0.1342773,-0.9506836,0.340332,0.1972656,0.06738281,-0.2597656
1906,-14.3125,-84.8125,-315.625,0.3071289,-1.078613,0.5483398,0.1782227,0.08984375,-0.2612305
1910,-62.8125,-45.5,-237.5,0.4658203,-0.8999023,0.6137695,0.1606445,0.1074219,-0.2636719
1914,-135.5,-25.5625,-185.1875,0.1635742,-0.5737305,0.4213867,0.1523438,0.1176758,-0.2597656
1918,-164.375,-27.75,-186.875,0.1054688,-0.9580078,0.2290039,0.1416016,0.1386719,-0.2529297
1922,-92.75,-39.875,-226.3125,0.1054688,-1.338867,0.1674805,0.128418,0.1577148,-0.2460938
1926,-21.875,-65.6875,-264.1875,0.125,-1.385742,0.2558594,0.1152344,0.1674805,-0.2436523
1930,-34.9375,-62.1875,-236.375,0.5473633,-1.047363,0.5522461,0.09521484,0.1772461,-0.2436523
1934,-148.8125,-27.375,-164.3125,0.6479492,-0.6860352,0.6137695,0.07861328,0.1899414,-0.2392578
1938,-243.125,4.625,-124.6875,0.5820313,-0.9038086,0.3710938,0.07128906,0.2011719,-0.2285156
1942,-264.0625,23.0625,-108.0625,0.4467773,-1.21875,0.1557617,0.06396484,0.2197266,-0.2094727
1946,-221.75,23,-117.3125,0.3691406,-1.447754,0.07910156,0.0546875,0.2363281,-0.1889648
1950,-118.3125,17.4375,-171.625,0.4038086,-1.548828,0.07910156,0.05224609,0.2451172,-0.1782227
1954,-51.3125,6.3125,-204.875,0.4155273,-1.144531,0.07910156,0.03417969,0.2524414,-0.168457
1958,-83.0625,10.875,-192.4375,0.675293,-0.6977539,0.09423828,0.01757813,0.2573242,-0.1645508
1963,-152.5625,25.125,-170.5,0.7021484,-0.7988281,-0.001464844,0.008300781,0.2612305,-0.1523438
1967,-173.5625,31.9375,-166.5625,0.7060547,-1.195313,-0.09375,-0.006835938,0.2685547,-0.1386719
1971,-133.4375,29.125,-183.5,0.7915039,-1.556641,-0.02441406,-0.02099609,0.2763672,-0.1225586
1975,-72.9375,37.8125,-208.125,0.8959961,-1.552734,0.03662109,-0.03320313,0.2773438,-0.1181641
1979,-64.875,39.75,-201.5625,0.8535156,-1.241699,-0.01660156,-0.04980469,0.2763672,-0.1088867
1983,-84.375,49.0625,-183.3125,0.9814453,-1.222656,-0.06298828,-0.06738281,0.2773438,-0.1020508
1987,-98,56.125,-166.5625,0.8149414,-1.350586,-0.1362305,-0.078125,0.2773438,-0.09375
1991,-88.9375,55.6875,-157.5,0.8110352,-1.564453,-0.1323242,-0.09033203,0.2763672,-0.08837891
1995,-72.25,55.0625,-140.9375,0.6831055,-1.692383,-0.1899414,-0.1030273,0.2724609,-0.08154297
1999,-54.375,46.25,-119.5625,0.5126953,-1.708008,-0.2670898,-0.1103516,0.2724609,-0.07861328
2003,-36.125,25.0625,-94.4375,0.3339844,-1.692383,-0.3208008,-0.1210938,0.2700195,-0.07324219
2007,-16.9375,1.25,-73.625,0.2797852,-1.653809,-0.2285156,-0.1303711,0.2675781,-0.07177734
2011,4.875,-11.4375,-59.375,0.3691406,-1.626465,-0.08203125,-0.1328125,0.2661133,-0.06933594
2015,17.875,-15.3125,-43.75,0.4194336,-1.494629,0.03271484,-0.1376953,0.2636719,-0.07080078
2019,20.25,-11.5,-26.125,0.4194336,-1.401367,0.09814453,-0.1435547,0.2612305,-0.06933594
2023,18.875,-12.875,-10.3125,0.3999023,-1.374023,0.1210938,-0.1435547,0.2612305,-0.07324219
2027,19.375,-11.875,3.3125,0.3999023,-1.366211,0.1518555,-0.1459961,0.262207,-0.07470703
2031,25.125,-10.1875,10.3125,0.4389648,-1.37793,0.1518555,-0.1425781,0.262207,-0.07470703
2035,26,-6.5,23.625,0.4311523,-1.358398,0.07910156,-0.1450195,0.2612305,-0.07617188
2039,26.25,-7.875,38.5625,0.4155273,-1.412598,-0.005371094,-0.1425781,0.262207,-0.08007813
2043,33.375,-10.75,54.625,0.4428711,-1.505859,-0.06689453,-0.1376953,0.262207,-0.08007813
2047,40.375,-14.875,76.5625,0.4389648,-1.583984,-0.08203125,-0.1342773,0.2651367,-0.08300781
2051,53,-20.75,99.8125,0.4506836,-1.696289,-0.112793,-0.1259766,0.2661133,-0.08837891
2055,56.125,-24.6875,127.8125,0.5898438,-1.560547,-0.05908203,-0.1162109,0.2685547,-0.09082031
2059,28.5,-14.5625,156.25,0.7099609,-1.37793,0.04052734,-0.1103516,0.2675781,-0.09228516
2063,-10,-0.4375,183.25,0.7490234,-1.424316,0.09033203,-0.09375,0.2739258,-0.09521484
2067,-30.75,6.375,206.4375,0.659668,-1.626465,0.04052734,-0.078125,0.2773438,-0.09375
2071,-22.4375,1.6875,222.5625,0.578125,-1.766602,-0.05517578,-0.06298828,0.28125,-0.09375
2075,-0.5,-12.125,230.125,0.5668945,-1.770508,-0.1323242,-0.04248047,0.2851563,-0.09375
2079,21.5625,-18,232.8125,0.6557617,-1.74707,-0.0859375,-0.02099609,0.2836914,-0.09667969
2083,22.5,-21.3125,250.0625,0.6518555,-1.634277,-0.07080078,-0.005859375,0.2836914,-0.09521484
2087,-5.4375,-12.25,277.125,0.7138672,-1.436035,-0.01660156,0.01757813,0.2797852,-0.09912109
2092,-33.375,-10.125,293.5,0.5859375,-1.479004,-0.04394531,0.04394531,0.2773438,-0.1005859
2096,-26.0625,-11.9375,291.5,0.4541016,-1.606934,-0.09375,0.06152344,0.2749023,-0.09912109
2100,0,-26.875,285.3125,0.3339844,-1.591309,-0.1513672,0.08789063,0.2661133,-0.09912109
2104,24.375,-37,273,0.3149414,-1.471191,-0.1708984,0.1103516,0.2563477,-0.1005859
2108,29.6875,-38.0625,278,0.4272461,-1.338867,-0.09375,0.1259766,0.2475586,-0.1035156
2112,2.25,-27.9375,292.5,0.3032227,-1.191406,-0.08203125,0.1508789,0.2348633,-0.1098633
2116,0.3125,-32.875,298.5625,0.1791992,-1.276855,-0.112793,0.1723633,0.2197266,-0.1113281
2120,13.8125,-35.625,281.875,0.159668,-1.140625,-0.06298828,0.1879883,0.2075195,-0.112793
2124,28.875,-33.6875,260.875,0.1445313,-1.1875,-0.04736328,0.2055664,0.1899414,-0.1181641
2128,29.1875,-32.25,262.375,0.04345703,-1.148438,-0.05908203,0.222168,0.1713867,-0.1235352
2132,40.3125,-42.6875,274.6875,-0.04492188,-1.183594,-0.1323242,0.230957,0.15625,-0.125
2136,43.625,-48.8125,280.8125,-0.01416016,-0.9697266,-0.109375,0.2475586,0.1347656,-0.1303711
2140,46.5625,-50.125,277.8125,0.02832031,-0.8881836,-0.04003906,0.2583008,0.1098633,-0.1386719
2144,59.125,-48.3125,261.75,-0.1186523,-0.8066406,-0.1166992,0.2675781,0.09228516,-0.1455078
2148,76.5,-60.25,246,-0.1499023,-0.7680664,-0.1362305,0.2758789,0.06738281,-0.1547852
2152,85.1875,-60.25,239.0625,-0.03320313,-0.6860352,-0.05126953,0.2817383,0.04394531,-0.1606445
2156,75.5625,-57.25,254.8125,-0.09912109,-0.6318359,-0.01318359,0.2817383,0.02392578,-0.1660156
2160,44.125,-47.3125,267.5625,-0.04101563,-0.3793945,0.140625,0.2841797,-0.003417969,-0.175293
2164,21.25,-28.25,273.125,-0.1030273,-0.5385742,0.1865234,0.2866211,-0.03076172,-0.1796875
2168,14.6875,-15.875,266.1875,-0.3164063,-0.6083984,0.08251953,0.2880859,-0.046875,-0.1796875
2172,25.75,-32.0625,276.9375,-0.4633789,-0.7407227,-0.001464844,0.2866211,-0.07177734,-0.1835938
2176,48.0625,-55.0625,292.1875,-0.4594727,-0.7524414,-0.05908203,0.2832031,-0.1020508,-0.1875
2180,75.375,-83.0625,292.3125,-0.3745117,-0.4921875,-0.1166992,0.2758789,-0.1220703,-0.1889648
2184,113.5625,-108.1875,272.6875,-0.2231445,-0.02978516,-0.07861328,0.2626953,-0.1518555,-0.1943359
2188,155,-115.625,220.9375,-0.08398438,0.4399414,-0.1054688,0.2485352,-0.1806641,-0.1987305
2192,183.3125,-117.5625,171.75,0.05517578,0.956543,-0.1513672,0.2402344,-0.1992188,-0.2011719
2196,165.375,-111.75,145.0625,0.3730469,1.58252,-0.02832031,0.2260742,-0.2207031,-0.2011719
2200,102.1875,-80.4375,137.4375,0.5976563,2.037109,0.1020508,0.2138672,-0.2382813,-0.199707
2204,31.625,-53.5,113,0.5009766,2.402344,0.1210938,0.2070313,-0.2480469,-0.2011719
2208,-10.3125,-33.4375,44.875,0.3769531,2.305176,0.1289063,0.1987305,-0.2543945,-0.2011719
2212,-14.5625,-23.625,-44.8125,0.1518555,1.81543,0.144043,0.1948242,-0.2543945,-0.2041016
2216,-8,-27.5625,-112.0625,-0.02978516,1.368652,0.1518555,0.1972656,-0.2504883,-0.206543
2221,-2.0625,-33,-152.875,-0.04492188,0.9492188,0.2133789,0.2011719,-0.2441406,-0.2080078
2225,-7.375,-27.125,-166.125,-0.09912109,0.7817383,0.2441406,0.2119141,-0.2319336,-0.2094727
2229,-38,-16.625,-162.3125,-0.09521484,0.8012695,0.2749023,0.215332,-0.2231445,-0.2133789
2233,-75,-1.75,-157.9375,-0.1342773,0.7197266,0.2250977,0.222168,-0.2119141,-0.2163086
2237,-93.3125,7.75,-168.9375,-0.2119141,0.5605469,0.1865234,0.2294922,-0.1933594,-0.2177734
2241,-84.9375,13.1875,-201.125,-0.2661133,0.3349609,0.144043,0.2329102,-0.1782227,-0.2202148
2245,-66.25,8.25,-228,-0.362793,0.08251953,0.1171875,0.2412109,-0.1567383,-0.2202148
2249,-60.125,-7,-226.5625,-0.4091797,-0.1967773,0.09033203,0.2485352,-0.1333008,-0.2255859
2253,-64.9375,-22.9375,-204.3125,-0.4130859,-0.3208008,0.1210938,0.2509766,-0.1196289,-0.2246094
2257,-78.125,-35.875,-179.1875,-0.4248047,-0.2666016,0.1674805,0.2519531,-0.09960938,-0.2299805
2261,-91.5625,-38.4375,-168.5,-0.3242188,-0.2626953,0.2172852,0.2519531,-0.078125,-0.230957
2265,-80.0625,-24.75,-196.1875,-0.2192383,-0.2626953,0.375,0.2509766,-0.06591797,-0.2324219
2269,-58.0625,-1.6875,-250.0625,-0.2929688,-0.4414063,0.3212891,0.2485352,-0.04296875,-0.2338867
2273,-49.3125,-5.3125,-256,-0.4287109,-0.7094727,0.2402344,0.2485352,-0.01806641,-0.2338867
2277,-45.4375,-28.875,-222.5625,-0.5024414,-1.008789,0.1518555,0.2451172,-0.003417969,-0.2338867
2281,-48.875,-58,-181,-0.5063477,-0.7172852,0.144043,0.2392578,0.01757813,-0.2338867
2285,-68.75,-69.125,-171.0625,-0.2929688,-0.5151367,0.3095703,0.230957,0.03515625,-0.2368164
2289,-69.9375,-49.25,-190.8125,-0.08398438,-0.6123047,0.425293,0.2236328,0.04638672,-0.2392578
2293,-67.75,-28.8125,-218.9375,-0.1650391,-0.6162109,0.3671875,0.2177734,0.06396484,-0.2392578
2297,-57.3125,-25,-242.75,-0.1923828,-0.8261719,0.2636719,0.2055664,0.08496094,-0.237793
2301,-46.6875,-38.8125,-237.9375,-0.2192383,-0.9775391,0.2021484,0.1962891,0.09765625,-0.237793
2305,-61.6875,-51.3125,-208.25,-0.1264648,-0.9467773,0.3173828,0.184082,0.1137695,-0.2368164
2309,-94.4375,-46.625,-178,-0.02197266,-0.9892578,0.3637695,0.1699219,0.1298828,-0.2368164
2313,-115.375,-32.375,-163.25,0.04736328,-1.020508,0.3520508,0.1640625,0.1425781,-0.2324219
2317,-103.875,-14.75,-180.1875,0.1132813,-1.121582,0.3251953,0.1523438,0.1586914,-0.2285156
2321,-71.9375,-10.25,-212.375,-0.01416016,-1.129395,0.1713867,0.1376953,0.1738281,-0.2202148
2325,-42.75,-31.75,-229.5625,-0.07226563,-1.136719,0.04785156,0.128418,0.1801758,-0.21875
2329,-34,-57.625,-223.375,0.03955078,-1.055176,0.105957,0.109375,0.1938477,-0.2163086
2333,-68.25,-57.0625,-199.4375,0.3535156,-0.8999023,0.2675781,0.09277344,0.2036133,-0.2163086
2337,-122.0625,-29.625,-175.5,0.4619141,-0.9775391,0.3017578,0.08056641,0.2114258,-0.2119141
2341,-146.3125,-5.25,-171.25,0.4506836,-1.338867,0.2329102,0.06787109,0.2250977,-0.2026367
2345,-119.0625,0.8125,-186.375,0.3378906,-1.657715,0.1557617,0.05322266,0.2363281,-0.1889648
2350,-70.375,-21.5,-190.3125,0.1518555,-1.785645,0.04443359,0.04394531,0.2426758,-0.1835938
2354,-27.125,-53.8125,-191.5,0.2451172,-1.525391,0.03662109,0.02832031,0.2475586,-0.1767578
2358,-15.125,-66.4375,-193.0625,0.4116211,-1.226563,0.04443359,0.005859375,0.2509766,-0.1767578
2362,-35,-63,-186.625,0.5395508,-1.043945,0.06347656,-0.005859375,0.25,-0.175293
2366,-60.4375,-59.3125,-179.5625,0.5356445,-1.160156,0.05175781,-0.0234375,0.2539063,-0.1699219
2370,-58.6875,-63.3125,-177.1875,0.5317383,-1.385742,0.04443359,-0.04150391,0.2563477,-0.1630859
2374,-36.9375,-73.5,-176.875,0.559082,-1.541016,0.1171875,-0.05322266,0.2573242,-0.1606445
2378,-14.8125,-77.8125,-171.4375,0.6015625,-1.572266,0.2021484,-0.07324219,0.2548828,-0.1538086
2382,-11.6875,-67.25,-155.75,0.6791992,-1.455566,0.3173828,-0.09033203,0.2539063,-0.1508789
2386,-26.5625,-45.75,-133.1875,0.6635742,-1.436035,0.390625,-0.09960938,0.25,-0.1484375
2390,-41.5625,-21.25,-106.25,0.625,-1.541016,0.4365234,-0.1113281,0.25,-0.144043
2394,-46.875,-0.25,-75.875,0.5239258,-1.638184,0.4404297,-0.1210938,0.2485352,-0.1401367
2398,-49.375,16.25,-40.5625,0.4467773,-1.630371,0.3979492,-0.1245117,0.25,-0.1357422
2402,-52.1875,26,-9.25,0.3457031,-1.552734,0.3520508,-0.1259766,0.25,-0.1289063
2406,-49.0625,28.1875,11.375,0.2836914,-1.517578,0.3056641,-0.1259766,0.2509766,-0.1289063
2410,-37.5,27.375,25.1875,0.2607422,-1.490723,0.2983398,-0.1220703,0.2524414,-0.1279297
2414,-22.5625,26.8125,34.625,0.2993164,-1.479004,0.3291016,-0.1201172,0.2548828,-0.1264648
2418,-11.25,30.875,46.0625,0.3032227,-1.405273,0.3637695,-0.1162109,0.2573242,-0.1264648
2422,-11.6875,35.75,58.8125,0.3378906,-1.374023,0.355957,-0.1113281,0.2573242,-0.1279297
2426,-15.875,45.5,75.0625,0.3457031,-1.393555,0.3364258,-0.1044922,0.2597656,-0.125
2430,-21.0625,56.3125,92.875,0.3574219,-1.490723,0.2983398,-0.09619141,0.2636719,-0.125
2434,-22.5,64.875,112.875,0.3032227,-1.587891,0.2368164,-0.08886719,0.2651367,-0.125
2438,-17.6875,68,132.875,0.2724609,-1.645996,0.1787109,-0.07714844,0.2675781,-0.125
2442,-10.875,66.125,148.8125,0.2373047,-1.645996,0.09423828,-0.06152344,0.2700195,-0.1264648
2446,-1.625,59.4375,163.25,0.2333984,-1.681152,0.05957031,-0.05322266,0.2724609,-0.1264648
2450,7.4375,51,177,0.2026367,-1.688477,0.04443359,-0.03417969,0.2739258,-0.1289063
2454,20.8125,43.8125,187.5,0.2104492,-1.739258,0.01708984,-0.01757813,0.2724609,-0.1289063
2458,30.125,38.3125,199.3125,0.2685547,-1.727539,0.02490234,-0.004394531,0.2709961,-0.1333008
2462,34.125,35.875,212.4375,0.2724609,-1.711914,0.03662109,0.01513672,0.2675781,-0.1357422
2466,36.4375,36.1875,221.5,0.2875977,-1.723633,0.05957031,0.03564453,0.2661133,-0.1416016
2470,37.625,34,232.3125,0.2529297,-1.735352,0.02880859,0.04980469,0.2612305,-0.144043
2474,41,28.125,242.5625,0.2294922,-1.770508,0.005859375,0.07226563,0.2563477,-0.1469727
2479,45.4375,21.375,255.25,0.1987305,-1.739258,-0.02441406,0.09375,0.2460938,-0.1508789
2483,53.625,14.6875,261.1875,0.1870117,-1.622559,-0.05126953,0.1103516,0.2387695,-0.1523438
2487,71.375,3.625,254.125,0.09375,-1.572266,-0.09375,0.1308594,0.2260742,-0.1591797
2491,95.5625,-10.25,247.4375,0.08642578,-1.471191,-0.08984375,0.1499023,0.2084961,-0.1674805
2495,99.125,-14.375,249.5625,0.1713867,-1.29248,-0.001464844,0.1606445,0.1972656,-0.1713867
2499,76.125,-4.6875,262.875,0.2294922,-1.133301,0.1171875,0.1796875,0.1801758,-0.1806641
2503,56.75,6.1875,274.8125,0.1557617,-1.199219,0.09423828,0.1962891,0.1625977,-0.1850586
2507,56.6875,4.0625,278.5,0.01269531,-1.171875,0.03271484,0.2080078,0.1459961,-0.1865234
2511,76.75,-6.875,263.3125,-0.06445313,-1.109863,-0.03222656,0.21875,0.1225586,-0.1904297
2515,95.625,-21.5,249.8125,-0.1186523,-1.055176,-0.05908203,0.2319336,0.1010742,-0.1972656
2519,112.25,-32.375,244.5625,-0.05664063,-1.070801,-0.02832031,0.237793,0.08496094,-0.2011719
2523,115.875,-36.875,256.3125,0.004882813,-0.8686523,-0.005371094,0.2426758,0.05859375,-0.2080078
2527,98.75,-33.6875,272.625,0.07080078,-0.5966797,0.04443359,0.2509766,0.02880859,-0.2148438
2531,80.0625,-25.3125,269.5,0.07861328,-0.3481445,0.1210938,0.2519531,0.01513672,-0.2202148
2535,73.125,-16.0625,254.6875,-0.01416016,-0.2978516,0.07910156,0.2583008,-0.015625,-0.2246094
2539,72.5625,-14.875,239.9375,-0.08398438,-0.2705078,0.1518555,0.2583008,-0.03955078,-0.2246094
2543,73.375,-15.8125,239.1875,-0.1381836,-0.402832,0.06347656,0.2568359,-0.05712891,-0.2255859
2547,63.3125,-19,244,-0.1069336,-0.2353516,0.2211914,0.253418,-0.08203125,-0.2285156
2551,42.8125,-3.75,251.0625,-0.1147461,-0.2470703,0.3637695,0.2519531,-0.1054688,-0.2299805
2555,25.8125,12.4375,260.1875,-0.2348633,-0.2978516,0.3520508,0.2475586,-0.1220703,-0.2299805
2559,17.125,14,270.6875,-0.347168,-0.2314453,0.2636719,0.2426758,-0.1445313,-0.2285156
2563,17.6875,7.5625,273.125,-0.3393555,-0.1113281,0.1098633,0.2368164,-0.1655273,-0.2270508
2567,30.8125,-14.875,271.75,-0.3935547,0.07470703,0.005859375,0.2294922,-0.1806641,-0.2255859
2571,47.875,-47,257.3125,-0.262207,0.3271484,-0.09765625,0.2163086,-0.203125,-0.2270508
2575,75.6875,-83.1875,232.375,-0.1264648,0.7080078,-0.1899414,0.2011719,-0.2246094,-0.2255859
2579,86.6875,-112.625,198.75,0.1557617,1.186035,-0.1435547,0.1904297,-0.2382813,-0.2270508
2583,80.5625,-115.375,155.6875,0.4736328,1.702637,-0.08203125,0.1689453,-0.2543945,-0.2299805
2587,60.5625,-104.125,96.25,0.5161133,2.044922,0.05175781,0.1557617,-0.265625,-0.2324219
2591,36.375,-89.0625,17.125,0.5239258,2.219727,0.2211914,0.1474609,-0.2695313,-0.230957
2595,9.0625,-58.625,-65,0.4697266,2.04834,0.355957,0.1425781,-0.2729492,-0.230957
2599,-19.875,-27.25,-128.5,0.3266602,1.628906,0.4018555,0.1450195,-0.2670898,-0.2338867
2603,-44.0625,-4.375,-164.0625,0.1484375,1.131836,0.4599609,0.1508789,-0.2617188,-0.2368164
2608,-57.375,14.8125,-177.125,0.02441406,0.6962891,0.4521484,0.1616211,-0.2504883,-0.2421875
2612,-58.625,24.4375,-176.625,-0.1767578,0.4243164,0.409668,0.1723633,-0.2368164,-0.2421875
2616,-54.4375,21.4375,-175.3125,-0.3164063,0.3662109,0.3671875,0.1796875,-0.2280273,-0.2446289
2620,-49.25,11.75,-184.3125,-0.4130859,0.3779297,0.3637695,0.1889648,-0.2119141,-0.2460938
2624,-45.75,9.0625,-198.5625,-0.3666992,0.3232422,0.4482422,0.2011719,-0.1967773,-0.2460938
2628,-46.375,18.6875,-213.0625,-0.3125,0.21875,0.5136719,0.203125,-0.1845703,-0.2475586
2632,-48,33.125,-218.625,-0.2734375,0.09814453,0.4711914,0.2138672,-0.1669922,-0.2460938
2636,-52.875,38.8125,-211.0625,-0.3354492,0.04736328,0.375,0.2236328,-0.1469727,-0.2475586
2640,-61.4375,35.625,-203.5,-0.3432617,0.0009765625,0.2983398,0.2294922,-0.1333008,-0.2436523
2644,-61.875,29.375,-198,-0.3862305,-0.06445313,0.2441406,0.2368164,-0.1142578,-0.2421875
2648,-62.875,19,-204.75,-0.4208984,-0.08398438,0.2441406,0.2412109,-0.09570313,-0.2446289
2652,-65.25,15.3125,-216.125,-0.3510742,-0.2006836,0.3134766,0.2426758,-0.08056641,-0.2436523
2656,-65.6875,22.8125,-219.9375,-0.2890625,-0.3095703,0.2944336,0.2436523,-0.05810547,-0.2407227
2660,-68.25,22.8125,-214.875,-0.3432617,-0.3095703,0.1904297,0.2460938,-0.03564453,-0.2392578
2664,-76.5,14.0625,-209.5,-0.3823242,-0.3364258,0.140625,0.2451172,-0.02197266,-0.237793
2668,-79.5,-2.375,-204.75,-0.3549805,-0.46875,0.09033203,0.2451172,0,-0.2338867
2672,-78.5,-16.75,-211.5,-0.3432617,-0.4882813,0.140625,0.2402344,0.02148438,-0.2338867
2676,-73.375,-21.25,-226.25,-0.2270508,-0.6435547,0.2211914,0.2368164,0.03515625,-0.2324219
2680,-76,-9.5625,-230.875,-0.08007813,-0.8647461,0.2905273,0.2270508,0.06005859,-0.230957
2684,-86.6875,7.5,-211.875,-0.1186523,-1.000977,0.2329102,0.2202148,0.08007813,-0.2270508
2688,-96,3,-186.125,-0.2734375,-1.032227,0.105957,0.215332,0.09228516,-0.2246094
2692,-86.5,-16.3125,-181.5625,-0.28125,-0.9853516,0.02880859,0.2055664,0.1123047,-0.21875
2696,-66.375,-29.625,-198.0625,-0.1611328,-0.8222656,0.06738281,0.1948242,0.1274414,-0.2148438
2700,-59.375,-28.9375,-230.0625,0.02832031,-0.6860352,0.1904297,0.1855469,0.1401367,-0.2148438
2704,-78.9375,-1.875,-259.8125,0.3266602,-0.8300781,0.3671875,0.1713867,0.1577148,-0.2119141
2708,-111.5625,42.25,-245.625,0.4389648,-1.160156,0.3173828,0.1557617,0.1748047,-0.2055664
2712,-141.3125,62.5625,-203.625,0.175293,-1.358398,0.07910156,0.1474609,0.1884766,-0.1972656
2716,-144.9375,33.125,-163.75,-0.1303711,-1.370117,-0.1782227,0.1357422,0.2060547,-0.1821289
2720,-107.3125,-10.25,-164.125,-0.1186523,-1.331055,-0.2592773,0.125,0.21875,-0.1699219
2724,-50.875,-41.625,-198.25,0.1210938,-1.055176,-0.1552734,0.1166992,0.2260742,-0.1674805
2728,-54.3125,-33.25,-246.5,0.5473633,-0.6860352,0.1557617,0.09765625,0.2363281,-0.1660156
2732,-108.125,14.5625,-258.375,0.8183594,-0.8764648,0.1982422,0.07714844,0.2460938,-0.1591797
2737,-148.6875,51.75,-247.0625,0.7216797,-1.308105,0.04052734,0.06298828,0.2539063,-0.1494141
2741,-136,53.0625,-236.8125,0.5239258,-1.781738,-0.1435547,0.04394531,0.2661133,-0.1333008
2745,-77.875,31.625,-238.1875,0.4116211,-2.026855,-0.2055664,0.0234375,0.2724609,-0.1210938
2749,-15.1875,0.375,-246.375,0.4311523,-1.83252,-0.2128906,0.008300781,0.2763672,-0.1181641
2753,7.5,-16.1875,-250.375,0.5395508,-1.443848,-0.2089844,-0.01416016,0.2773438,-0.1166992
2757,-10.5,-20.1875,-247.625,0.5629883,-1.288574,-0.1938477,-0.03759766,0.2773438,-0.1157227
2761,-22.125,-30.5,-238.625,0.5395508,-1.529297,-0.1362305,-0.05322266,0.2763672,-0.1142578
2765,-9.9375,-40.9375,-226.8125,0.6518555,-1.770508,0.03271484,-0.07714844,0.2724609,-0.1098633
2769,0.6875,-29.75,-193.125,0.7875977,-1.793457,0.1518555,-0.09619141,0.2685547,-0.1074219
2773,-11.4375,-14.8125,-145.8125,0.6171875,-1.64209,0.144043,-0.1079102,0.2661133,-0.1074219
2777,-34.9375,-4.5,-98.6875,0.5512695,-1.606934,0.105957,-0.1186523,0.262207,-0.1035156
2781,-44.0625,1.25,-58.75,0.3959961,-1.64209,0.04443359,-0.1269531,0.2597656,-0.1020508
2785,-32.4375,-4.1875,-35,0.2797852,-1.645996,0.005859375,-0.1303711,0.2612305,-0.09912109
2789,-13.5,-12.4375,-18.625,0.2724609,-1.548828,0.04785156,-0.1328125,0.2587891,-0.09521484
2793,-4.3125,-19.3125,0.125,0.3149414,-1.424316,0.1020508,-0.1328125,0.2597656,-0.09375
2797,-3.6875,-22.3125,16.75,0.3496094,-1.308105,0.1904297,-0.1318359,0.2612305,-0.09082031
2801,-5.5,-17.125,24.875,0.4506836,-1.276855,0.2636719,-0.1342773,0.2597656,-0.08984375
2805,-6.25,-1.625,30.75,0.4697266,-1.280762,0.2905273,-0.1303711,0.262207,-0.08837891
2809,-8.9375,8.9375,36.0625,0.3959961,-1.272949,0.2441406,-0.1269531,0.2636719,-0.08837891
2813,-10.125,16.125,45.5,0.4155273,-1.331055,0.1787109,-0.1245117,0.2661133,-0.09082031
2817,-11.125,20.1875,60.125,0.3999023,-1.342773,0.105957,-0.1201172,0.2675781,-0.09082031
2821,-12.9375,23.625,77.375,0.4194336,-1.405273,0.05566406,-0.1162109,0.2685547,-0.08984375
2825,-11.9375,23.9375,100.75,0.3808594,-1.471191,0.01367188,-0.109375,0.2700195,-0.08984375
2829,-7.875,21.875,121.4375,0.3691406,-1.513672,-0.01660156,-0.09960938,0.2739258,-0.08837891
2833,-0.875,18.25,135.0625,0.3613281,-1.505859,-0.02441406,-0.09033203,0.2749023,-0.08837891
2837,4.0625,17.5,147.5625,0.4155273,-1.517578,-0.02832031,-0.07568359,0.2773438,-0.09228516
2841,0.25,17.5625,168.125,0.4233398,-1.513672,-0.02050781,-0.06152344,0.2797852,-0.09375
2845,-2.6875,16.5,187.4375,0.4272461,-1.501953,-0.03222656,-0.05322266,0.2836914,-0.09228516
2849,0.9375,13.5,200.5625,0.4272461,-1.533203,-0.05517578,-0.03076172,0.2851563,-0.09228516
2853,13.6875,9.125,203.0625,0.3999023,-1.529297,-0.08203125,-0.01416016,0.2822266,-0.09375
2857,28.625,10.4375,196.875,0.4116211,-1.541016,-0.08203125,-0.0009765625,0.28125,-0.09521484
2861,41.4375,13.375,204,0.4116211,-1.649902,-0.112793,0.01904297,0.28125,-0.1005859
2866,48.0625,4.0625,222.5,0.2724609,-1.681152,-0.1401367,0.0390625,0.2763672,-0.105957
2870,53.3125,-5.75,233.625,0.2993164,-1.704102,-0.09375,0.05224609,0.2709961,-0.1098633
2874,61.1875,-2.625,233.5625,0.3071289,-1.71582,-0.09375,0.07226563,0.2661133,-0.1166992
2878,73.5,-7.4375,231.75,0.1557617,-1.696289,-0.1513672,0.09375,0.2573242,-0.1225586
2882,95.375,-17.625,226.875,0.1289063,-1.781738,-0.1899414,0.1079102,0.25,-0.1264648
2886,117.25,-30.3125,229.125,0.09033203,-1.704102,-0.1977539,0.1235352,0.2387695,-0.1386719
2890,129.9375,-38.5,238.125,0.1171875,-1.61084,-0.2016602,0.1425781,0.2211914,-0.1508789
2894,147.5,-48.9375,241.125,0.03564453,-1.412598,-0.1938477,0.1533203,0.2114258,-0.1591797
2898,166.5625,-56.75,226.5625,0.05908203,-1.207031,-0.1552734,0.1674805,0.1899414,-0.1738281
2902,166.25,-43.375,216.3125,0.2568359,-1.040039,0.03662109,0.1782227,0.1689453,-0.1889648
2906,133.375,-16.8125,227.25,0.2294922,-0.9155273,0.1518555,0.1865234,0.1547852,-0.1972656
2910,107.125,1.9375,243.0625,0.1367188,-1.078613,0.09033203,0.2011719,0.1337891,-0.2055664
2914,105.375,3.875,249.8125,-0.01025391,-1.11377,0.06347656,0.2128906,0.1098633,-0.2133789
2918,109,-2.1875,255.5,-0.06445313,-1.121582,-0.005371094,0.2202148,0.09521484,-0.2148438
2922,105.8125,-7.9375,264.875,-0.05273438,-0.9541016,0.03271484,0.2294922,0.06982422,-0.2202148
2926,102.6875,-13.4375,270.4375,-0.04882813,-0.8378906,0.07128906,0.2368164,0.04394531,-0.2255859
2930,98.75,-11.5,272.4375,0.03173828,-0.7368164,0.09033203,0.2451172,0.02392578,-0.2299805
2934,83.5,-0.9375,271.1875,0.07080078,-0.46875,0.2329102,0.2475586,-0.003417969,-0.2299805
2938,52.5,20.5625,275.375,0.06689453,-0.453125,0.2788086,0.25,-0.03076172,-0.2338867
2942,16,35.25,293.9375,-0.05273438,-0.4804688,0.2329102,0.2519531,-0.046875,-0.2324219
2946,-3.3125,32.6875,317.5,-0.1767578,-0.5385742,0.1328125,0.253418,-0.07324219,-0.2299805
2950,2.1875,21.4375,315.125,-0.2583008,-0.4492188,0.1328125,0.2519531,-0.1005859,-0.2270508
2954,13.5625,2.6875,305.125,-0.3085938,-0.4257813,0.1098633,0.2509766,-0.1166992,-0.2285156
2958,37.75,-20.5,295.5625,-0.2119141,-0.355957,0.1557617,0.2426758,-0.1420898,-0.2270508
2962,53.1875,-27.8125,289.625,0.004882813,-0.08007813,0.1865234,0.2319336,-0.1694336,-0.2285156
2966,41.75,-29.5625,291.75,0.05126953,0.3505859,0.3173828,0.222168,-0.1845703,-0.2285156
2970,32.8125,-33.1875,284.25,0.1289063,0.4594727,0.2827148,0.2094727,-0.2070313,-0.2285156
2974,54.875,-42.5625,248,0.2216797,0.7431641,0.2675781,0.1938477,-0.2294922,-0.2285156
2978,90.625,-53.0625,180.9375,0.3886719,1.36084,0.1748047,0.1821289,-0.2416992,-0.2270508
2982,98.5625,-61.0625,113,0.5395508,1.970703,0.105957,0.1689453,-0.2583008,-0.2270508
2986,75.625,-59.9375,54.0625,0.7138672,2.309082,0.1518555,0.1591797,-0.2680664,-0.2255859
2990,34.4375,-41.0625,-4.75,0.7373047,2.440918,0.2368164,0.1547852,-0.2729492,-0.2231445
2995,-2.5625,-16.5,-74.3125,0.5898438,2.130371,0.2983398,0.1547852,-0.2705078,-0.2202148
2999,-20.1875,8.25,-143,0.4428711,1.714355,0.2749023,0.1630859,-0.265625,-0.2246094
3003,-34.8125,24.0625,-192.8125,0.2490234,1.271484,0.2211914,0.1674805,-0.2607422,-0.2246094
3007,-42.875,27.875,-216.75,0.08642578,0.8632813,0.1289063,0.1831055,-0.2456055,-0.2270508
3011,-46.1875,23.5625,-227.1875,-0.03710938,0.6264648,0.08251953,0.1962891,-0.2294922,-0.2255859
3015,-53.5625,19,-235.875,-0.1225586,0.4868164,0.1132813,0.2055664,-0.2167969,-0.2246094
3019,-63.6875,19.5625,-239.75,-0.1533203,0.2573242,0.1479492,0.2163086,-0.1958008,-0.2285156
3023,-68.0625,21.75,-240.9375,-0.215332,0.06298828,0.1132813,0.2294922,-0.1757813,-0.2299805
3027,-66.9375,18.8125,-247.0625,-0.3085938,-0.006347656,0.140625,0.234375,-0.1567383,-0.2299805
3031,-58.5,16.375,-259.5625,-0.2890625,-0.1499023,0.1787109,0.2426758,-0.1357422,-0.230957
3035,-54.9375,18.625,-269.125,-0.2851563,-0.2275391,0.2094727,0.2509766,-0.109375,-0.2299805
3039,-58.1875,18.5,-263.6875,-0.328125,-0.4726563,0.1479492,0.2509766,-0.09179688,-0.2299805
3043,-58.8125,6.375,-241.9375,-0.3823242,-0.4453125,0.140625,0.2543945,-0.06689453,-0.2299805
3047,-57.375,-12.5625,-229.0625,-0.4633789,-0.4257813,0.105957,0.2558594,-0.04199219,-0.2270508
3051,-64.75,-19.1875,-228.4375,-0.2890625,-0.4335938,0.1787109,0.253418,-0.02832031,-0.2270508
3055,-82.875,-8.4375,-225.875,-0.2231445,-0.503418,0.2441406,0.2485352,-0.005859375,-0.2270508
3059,-93.75,6,-231.5625,-0.2041016,-0.7719727,0.2944336,0.2451172,0.02001953,-0.2255859
3063,-79.9375,11.5625,-230.125,-0.3588867,-1.160156,0.144043,0.2451172,0.03613281,-0.2216797
3067,-65.5625,-17.125,-204.5625,-0.5488281,-1.090332,0.03271484,0.2368164,0.05859375,-0.2216797
3071,-65.6875,-42,-199.8125,-0.4013672,-1.024414,0.1557617,0.2319336,0.07763672,-0.2202148
3075,-53.5,-42.5,-205.3125,-0.2080078,-1.160156,0.2480469,0.222168,0.08740234,-0.21875
3079,-50.8125,-30.8125,-212.1875,-0.1533203,-1.094238,0.3212891,0.2119141,0.1074219,-0.21875
3083,-64.4375,-19.1875,-195.75,-0.1845703,-1.105957,0.2368164,0.1972656,0.1225586,-0.2163086
3087,-79.5,-25.25,-167.375,-0.2504883,-1.012695,0.1518555,0.1904297,0.1323242,-0.2148438
3091,-83.3125,-33.8125,-160,-0.1845703,-0.9541016,0.09033203,0.1796875,0.1474609,-0.2080078
3095,-70.625,-42.6875,-176.3125,-0.1108398,-0.8999023,0.09033203,0.1674805,0.1635742,-0.2080078
3099,-53.5625,-40.5625,-216.875,0.07470703,-0.9814453,0.2250977,0.1582031,0.1699219,-0.206543
3103,-53.4375,-25.125,-235.5,0.1557617,-1.210938,0.2866211,0.1425781,0.1826172,-0.2041016
3107,-63,-15.125,-213.0625,0.1870117,-1.397461,0.2250977,0.125,0.1987305,-0.199707
3111,-74.4375,-20.5,-171.25,0.03564453,-1.432129,0.125,0.1152344,0.2075195,-0.1972656
3115,-71.6875,-33.1875,-159.6875,0.03955078,-1.191406,0.08642578,0.1010742,0.2172852,-0.1928711
3119,-65.75,-38.625,-171.1875,0.1713867,-1.016602,0.07910156,0.08544922,0.2250977,-0.1875
3124,-60,-38.875,-188.3125,0.2915039,-0.9736328,0.09423828,0.07861328,0.2314453,-0.1835938
3128,-70.4375,-29,-198.625,0.4541016,-0.9116211,0.1713867,0.06054688,0.2387695,-0.1796875
3132,-93.0625,-10.3125,-202.875,0.543457,-1.02832,0.1674805,0.04394531,0.2475586,-0.1713867
3136,-99.8125,1.3125,-206.6875,0.527832,-1.288574,0.1289063,0.03076172,0.2524414,-0.1660156
3140,-80.25,-3.0625,-201.0625,0.4541016,-1.630371,0.04785156,0.01416016,0.2597656,-0.1577148
3144,-46.0625,-21.4375,-190.9375,0.3808594,-1.735352,-0.009277344,-0.004394531,0.2636719,-0.1508789
3148,-28.25,-38.75,-181.75,0.3847656,-1.521484,-0.03613281,-0.01513672,0.2636719,-0.1469727
3152,-22.5625,-50.0625,-178.9375,0.4194336,-1.475098,-0.04394531,-0.03417969,0.2651367,-0.1416016
3156,-17.25,-55.1875,-169.5625,0.4194336,-1.509766,0.009765625,-0.05078125,0.2661133,-0.1401367
3160,-10.75,-60.0625,-156.25,0.4814453,-1.564453,0.1132813,-0.06396484,0.2636719,-0.1386719
3164,-9.375,-55.125,-134.875,0.5048828,-1.544922,0.2172852,-0.07958984,0.2612305,-0.1386719
3168,-16.125,-43.625,-109.5625,0.5200195,-1.509766,0.3291016,-0.09130859,0.2597656,-0.1333008
3172,-27.625,-25.125,-85.6875,0.4580078,-1.471191,0.3828125,-0.09863281,0.2597656,-0.1318359
3176,-37.5,-5.5625,-65.5625,0.4038086,-1.521484,0.4018555,-0.1044922,0.2587891,-0.1264648
3180,-37.3125,9.875,-45.6875,0.2875977,-1.587891,0.375,-0.1113281,0.2573242,-0.1225586
3184,-30,15.875,-25.5625,0.206543,-1.657715,0.3364258,-0.1137695,0.2587891,-0.1225586
3188,-20.0625,11.5,-0.5,0.140625,-1.688477,0.3095703,-0.1137695,0.2587891,-0.1196289
3192,-8.875,6,20.9375,0.159668,-1.669434,0.3520508,-0.1137695,0.2597656,-0.1196289
3196,-1,10.375,37.8125,0.2294922,-1.626465,0.4135742,-0.112793,0.2597656,-0.1196289
3200,2.4375,20.875,55.4375,0.2915039,-1.614746,0.4365234,-0.1054688,0.262207,-0.1196289
3204,1.375,33.75,76.5,0.3188477,-1.638184,0.4057617,-0.1010742,0.262207,-0.1225586
3208,0,46.75,101.6875,0.3266602,-1.681152,0.3671875,-0.09472656,0.2636719,-0.1210938
3212,-3.125,57.625,128.9375,0.2875977,-1.74707,0.2749023,-0.08300781,0.2661133,-0.1210938
3216,-5.875,60.9375,157.5,0.2607422,-1.820801,0.2133789,-0.06982422,0.2700195,-0.125
3220,-0.125,63.0625,181.5,0.3032227,-1.90625,0.1787109,-0.05908203,0.2685547,-0.125
3224,5.3125,60.1875,202.375,0.2875977,-1.9375,0.1210938,-0.03759766,0.2724609,-0.1279297
3228,17.4375,55.8125,222.3125,0.3652344,-1.991699,0.08251953,-0.01855469,0.2724609,-0.1303711
3232,33.25,46.0625,237.625,0.3071289,-1.949219,0.01367188,-0.003417969,0.2724609,-0.1318359
3236,42.875,32.625,249.5625,0.3769531,-1.863281,0.005859375,0.01904297,0.2685547,-0.1357422
3240,50.5,31.875,258.5,0.4272461,-1.836426,0.04785156,0.04394531,0.2612305,-0.1386719
3244,56.125,27.4375,265.4375,0.3378906,-1.816895,0.005859375,0.05957031,0.2573242,-0.144043
3248,63.625,19.375,274.3125,0.3378906,-1.824707,-0.02832031,0.08447266,0.2485352,-0.1494141
3253,69.5,14,285.875,0.3188477,-1.739258,-0.05517578,0.1069336,0.2373047,-0.1547852
3257,74.9375,4.375,295.125,0.2568359,-1.665527,-0.07080078,0.1225586,0.2275391,-0.1577148
3261,88.625,-6.5,297.1875,0.2177734,-1.560547,-0.08203125,0.1450195,0.2099609,-0.1674805
3265,98.5,-14.3125,292.4375,0.2685547,-1.374023,-0.02050781,0.1665039,0.1899414,-0.175293
3269,103.375,-9.6875,285.1875,0.2724609,-1.284668,-0.03222656,0.1772461,0.1772461,-0.1806641
3273,103.4375,-13.375,281.75,0.1870117,-1.05127,-0.04003906,0.1972656,0.1547852,-0.1889648
3277,93.875,-6.0625,274.875,0.2724609,-1.000977,0.05957031,0.2094727,0.1313477,-0.1972656
3281,80.6875,13.25,276.875,0.2451172,-0.9658203,0.07910156,0.2211914,0.1137695,-0.199707
3285,60.375,15.375,286.4375,0.04345703,-0.9194336,-0.001464844,0.2329102,0.08886719,-0.2041016
3289,62.8125,3.5625,288.5625,-0.02197266,-0.9389648,-0.07080078,0.2436523,0.0625,-0.2055664
3293,73.8125,-7.25,278,-0.05664063,-0.8574219,-0.0859375,0.2509766,0.04638672,-0.206543
3297,88.375,-13.875,263.5625,-0.03710938,-0.8574219,-0.03222656,0.2568359,0.02001953,-0.2109375
3301,98.3125,-18.1875,257.375,-0.1069336,-0.6977539,-0.04736328,0.2592773,-0.006835938,-0.2148438
3305,88.25,-20.0625,260.3125,-0.02587891,-0.5854492,0.04443359,0.2617188,-0.02832031,-0.2163086
3309,65,-12.1875,277.4375,-0.01025391,-0.5151367,0.1367188,0.2641602,-0.05322266,-0.2177734
3313,41.5,-4,290.375,-0.05273438,-0.3793945,0.1943359,0.2602539,-0.08300781,-0.2202148
3317,26.25,5.625,293.8125,-0.07617188,-0.402832,0.1982422,0.2592773,-0.1020508,-0.2202148
3321,18.25,11.875,293.5,-0.1342773,-0.2705078,0.2094727,0.2543945,-0.1279297,-0.2177734
3325,10.5,12.8125,292.5625,-0.2192383,-0.2548828,0.1328125,0.2460938,-0.1533203,-0.2177734
3329,23.5625,-5,291.5,-0.28125,-0.1616211,0.08251953,0.2402344,-0.1694336,-0.2177734
3333,43.0625,-25.1875,279.5,-0.09912109,-0.002441406,0.02099609,0.230957,-0.1943359,-0.21875
3337,58.5625,-41.25,264.3125,0.01660156,0.5214844,0.05957031,0.215332,-0.2167969,-0.2163086
3341,67.625,-51.5625,236.3125,0.2451172,0.9643555,0.001953125,0.2055664,-0.2304688,-0.2163086
3345,60.4375,-53.0625,207.1875,0.4580078,1.559082,0.001953125,0.1879883,-0.2495117,-0.2163086
3349,34.4375,-49.75,167.375,0.574707,2.075684,-0.02050781,0.1723633,-0.2631836,-0.2177734
3353,6.125,-42.0625,110.5,0.6171875,2.309082,0.03271484,0.1665039,-0.2705078,-0.2163086
3357,-12.875,-32.375,30.8125,0.5048828,2.312988,0.105957,0.1557617,-0.2729492,-0.21875
3361,-18.8125,-23.0625,-60.9375,0.3417969,1.900879,0.2368164,0.1547852,-0.2753906,-0.2202148
3365,-18.375,-15.9375,-129.375,0.175293,1.418945,0.3330078,0.1582031,-0.2695313,-0.2231445
3369,-18.875,-9,-169.4375,0.05908203,0.9140625,0.4599609,0.1665039,-0.2617188,-0.2246094
3373,-16.75,0.875,-178.9375,-0.06445313,0.5488281,0.4482422,0.1772461,-0.2495117,-0.2270508
3377,-17.6875,-1.0625,-172.0625,-0.2080078,0.5019531,0.3867188,0.1831055,-0.2431641,-0.2246094
3382,-19.625,-6.3125,-169.125,-0.2270508,0.5761719,0.3442383,0.1928711,-0.2304688,-0.2299805
3386,-22.4375,-11.75,-179.1875,-0.2583008,0.7119141,0.2749023,0.2021484,-0.2182617,-0.230957
3390,-22,-16.0625,-205.875,-0.1845703,0.7158203,0.2827148,0.2080078,-0.2094727,-0.230957
3394,-18.875,-4.75,-247.5,-0.08398438,0.6811523,0.3442383,0.2177734,-0.1943359,-0.2338867
3398,-26.8125,7.5625,-278.5,-0.07226563,0.5175781,0.3330078,0.2270508,-0.1733398,-0.2338867
3402,-37.8125,15.4375,-281,-0.02587891,0.2070313,0.2402344,0.2329102,-0.1557617,-0.230957
3406,-43.75,11.375,-265.5,-0.1381836,0.008789063,0.1635742,0.2426758,-0.1318359,-0.2353516
3410,-51.6875,-1.375,-260.5625,-0.2041016,0.02050781,0.1518555,0.2460938,-0.1083984,-0.2353516
3414,-66.75,-6.625,-268,-0.1650391,-0.1499023,0.2519531,0.2485352,-0.09082031,-0.2324219
3418,-69.9375,-5.625,-262.9375,-0.1264648,-0.4921875,0.2133789,0.2509766,-0.06591797,-0.2353516
3422,-62.0625,-10.0625,-256.0625,-0.2543945,-0.7680664,0.1098633,0.25,-0.03710938,-0.2368164
3426,-49.75,-30.3125,-244.0625,-0.3125,-0.5385742,0.02490234,0.2485352,-0.02197266,-0.2324219
3430,-59.875,-54.9375,-236.8125,-0.262207,-0.5268555,0.09033203,0.2436523,0.001464844,-0.2353516
3434,-68.8125,-61.625,-225,-0.08398438,-0.6162109,0.1367188,0.234375,0.02246094,-0.237793
3438,-85.5,-54.4375,-233.375,0.03955078,-0.5,0.3056641,0.2285156,0.03857422,-0.2392578
3442,-96.375,-27,-251.125,0.1987305,-0.7524414,0.2675781,0.21875,0.0625,-0.2392578
3446,-103.4375,-19.625,-245.625,0.02832031,-0.8496094,0.08642578,0.2070313,0.08496094,-0.2368164
3450,-107.6875,-37.5,-234.125,-0.01025391,-1.008789,-0.01318359,0.2011719,0.09863281,-0.2353516
3454,-99.1875,-54.875,-228.0625,0.1171875,-1.024414,-0.009277344,0.184082,0.1225586,-0.2299805
3458,-118.375,-50.5625,-230.6875,0.3071289,-0.7407227,0.1787109,0.1699219,0.1411133,-0.2299805
3462,-155.0625,-10.4375,-240.375,0.6210938,-1.078613,0.2749023,0.1582031,0.1547852,-0.2231445
3466,-161.5,32.4375,-242,0.3378906,-1.432129,0.001953125,0.1450195,0.1772461,-0.2109375
3470,-152.3125,15.6875,-234.9375,0.1054688,-1.580078,-0.2089844,0.1293945,0.1972656,-0.199707
3474,-120.0625,-11.6875,-238.9375,0.1831055,-1.649902,-0.1938477,0.1176758,0.2075195,-0.1918945
3478,-97,-29,-251.0625,0.3730469,-1.529297,-0.1015625,0.09863281,0.2226563,-0.1850586
3482,-92.8125,-27.8125,-255.8125,0.5161133,-1.580078,-0.02441406,0.07861328,0.2363281,-0.175293
3486,-80.625,-25.625,-255.6875,0.4775391,-1.894531,-0.03613281,0.06396484,0.2426758,-0.168457
3490,-48.5,-43.5625,-253.5,0.3652344,-2.084961,-0.05126953,0.04150391,0.2509766,-0.1645508
3494,-13.25,-68.0625,-246,0.3847656,-2.100586,-0.009277344,0.01904297,0.2573242,-0.1606445
3498,3.125,-83.5625,-228.1875,0.4389648,-1.956543,0.09033203,0.0009765625,0.2587891,-0.1606445
3502,-6.3125,-76.3125,-200.0625,0.5629883,-1.83252,0.2441406,-0.02099609,0.2573242,-0.1591797
3506,-24.125,-54.3125,-165.125,0.5239258,-1.824707,0.355957,-0.04150391,0.2587891,-0.1577148
3511,-39.375,-28.375,-130.8125,0.4814453,-1.812988,0.4560547,-0.05078125,0.2587891,-0.1547852
3515,-53.6875,2.8125,-97.0625,0.3959961,-1.812988,0.4941406,-0.06152344,0.2597656,-0.1508789
3519,-61.125,27.5,-53.0625,0.1987305,-1.968262,0.3867188,-0.06982422,0.2597656,-0.1455078
3523,-61.9375,32.375,-5.75,-0.04882813,-1.953125,0.2480469,-0.06884766,0.2612305,-0.1416016
3527,-48.4375,19.375,23.0625,-0.1650391,-1.852051,0.1518555,-0.06884766,0.2651367,-0.1333008
3531,-21.75,5.4375,32.1875,-0.1225586,-1.739258,0.1826172,-0.06640625,0.2661133,-0.1347656
3535,-2.0625,-0.875,38.3125,-0.02197266,-1.630371,0.2983398,-0.06396484,0.2661133,-0.1333008
3539,5.625,1.9375,50.5,0.09375,-1.626465,0.4018555,-0.05908203,0.2675781,-0.1333008
3543,4.0625,16.5625,70.9375,0.2026367,-1.580078,0.4750977,-0.05566406,0.2685547,-0.1318359
3547,-9.1875,35.75,91.75,0.1987305,-1.572266,0.4750977,-0.04980469,0.2685547,-0.1303711
3551,-21.0625,49.8125,115.0625,0.1870117,-1.677246,0.4287109,-0.03759766,0.2685547,-0.1318359
3555,-23,59.0625,139.3125,0.1557617,-1.766602,0.3442383,-0.02587891,0.2709961,-0.1303711
3559,-16.4375,62.0625,159.0625,0.1015625,-1.777832,0.2402344,-0.01611328,0.2709961,-0.1289063
3563,-11.3125,56.625,174,0.01269531,-1.71582,0.1171875,0,0.2709961,-0.1303711
3567,-8.375,44.125,186.75,-0.04882813,-1.692383,-0.07470703,0.01757813,0.2700195,-0.1318359
3571,6.875,24.625,192.3125,-0.1225586,-1.828613,-0.1054688,0.03173828,0.2700195,-0.1303711
3575,41,-6.5625,201.5,-0.07226563,-1.956543,-0.03222656,0.04882813,0.2651367,-0.1303711
3579,64.5625,-19.75,210.25,0.09765625,-1.739258,0.07519531,0.06542969,0.2597656,-0.137207
3583,69.1875,-18.5625,217.875,0.1870117,-1.580078,0.1210938,0.07958984,0.2524414,-0.144043
3587,63.25,-6.4375,227.6875,0.2451172,-1.455566,0.1557617,0.09521484,0.2436523,-0.1508789
3591,49.75,5.125,241.75,0.1831055,-1.338867,0.144043,0.1142578,0.2324219,-0.15625
3595,41.8125,12.5,251.6875,0.1132813,-1.331055,0.1210938,0.1293945,0.2250977,-0.1577148
3599,49.9375,8.625,248.125,-0.03710938,-1.222656,0.04052734,0.1484375,0.2124023,-0.1591797
3603,69.125,-3,231,-0.1147461,-1.183594,0.01367188,0.1665039,0.1948242,-0.1674805
3607,80.25,-7.9375,223.5,-0.06445313,-1.164063,0.03662109,0.1757813,0.1860352,-0.1699219
3611,82.8125,-12.125,227.75,-0.09521484,-1.047363,0.04785156,0.1889648,0.1674805,-0.1767578
3615,81.9375,-9.1875,225.0625,-0.06835938,-0.9775391,0.04785156,0.2021484,0.1499023,-0.1835938
3619,81.25,-12.5,225.5,-0.1533203,-0.9194336,0.005859375,0.2119141,0.1362305,-0.1865234
3623,72,-13.75,226.75,-0.1303711,-0.8183594,0.1020508,0.2236328,0.1162109,-0.1918945
3627,64.875,-2.9375,222.6875,-0.1225586,-0.8647461,0.125,0.230957,0.09521484,-0.1972656
3631,59.875,5.4375,219.125,-0.2192383,-0.8535156,0.1367188,0.237793,0.08251953,-0.199707
3635,62.5,6.3125,212.125,-0.3745117,-0.9736328,0.009765625,0.2485352,0.0625,-0.199707
3640,72,-10.5625,221.3125,-0.4555664,-0.9619141,-0.06298828,0.253418,0.04248047,-0.2055664
3644,81.8125,-27.5625,223.625,-0.4365234,-0.8222656,-0.05126953,0.2592773,0.02636719,-0.2080078
3648,91.9375,-28.75,205.25,-0.3745117,-0.7988281,0.05566406,0.2602539,0.002441406,-0.2133789
3652,96.8125,-24.3125,205.25,-0.4208984,-0.8027344,0.04443359,0.2617188,-0.01953125,-0.2163086
3656,78.375,-28.6875,226.4375,-0.4013672,-0.6201172,0.06738281,0.2602539,-0.03466797,-0.21875
3660,54.375,-19.375,245.6875,-0.296875,-0.534668,0.144043,0.2617188,-0.05957031,-0.2216797
3664,34.375,-10.8125,262.875,-0.3549805,-0.4257813,0.1748047,0.2592773,-0.08300781,-0.2231445
3668,19.1875,-10.9375,275.875,-0.4169922,-0.4140625,0.159668,0.2558594,-0.1005859,-0.2231445
3672,23,-18.25,279.5,-0.4052734,-0.3911133,0.159668,0.2509766,-0.1245117,-0.2246094
3676,33.875,-27.625,274.3125,-0.3974609,-0.2978516,0.1982422,0.2426758,-0.1479492,-0.2255859
3680,44.375,-39.6875,276.1875,-0.3085938,-0.1850586,0.125,0.2368164,-0.1655273,-0.2246094
3684,53.5625,-54.5,274.375,-0.1108398,0.1875,0.1210938,0.222168,-0.1904297,-0.2299805
3688,44.875,-54.125,267.6875,0.08251953,0.6030273,0.1289063,0.2055664,-0.2119141,-0.2299805
3692,30.3125,-50.875,252.4375,0.2294922,1.053711,0.06347656,0.1962891,-0.2246094,-0.2285156
3696,11.125,-46.625,221.8125,0.3652344,1.458008,0.07519531,0.1806641,-0.2416992,-0.2324219
3700,-9.875,-32.375,171.875,0.4428711,1.78418,0.03271484,0.1640625,-0.2529297,-0.2338867
3704,-36.125,-15.375,114.9375,0.4697266,1.955078,0.06738281,0.1567383,-0.2592773,-0.2353516
3708,-51.4375,-11.625,47.5625,0.2993164,1.69873,0.06738281,0.1499023,-0.2607422,-0.2392578
3712,-32.8125,-23.0625,-23,0.2294922,1.349121,0.1479492,0.1474609,-0.2583008,-0.2436523
3716,-12.5625,-36.25,-83.25,0.125,1.20166,0.2636719,0.1474609,-0.2558594,-0.2446289
3720,-7.5625,-41.875,-123.625,0.1289063,1.057617,0.425293,0.1533203,-0.2519531,-0.2460938
3724,-14.25,-27.6875,-149.25,0.1713867,0.90625,0.5791016,0.1567383,-0.2416992,-0.25
3728,-32.3125,-4.6875,-160.1875,0.09765625,0.824707,0.5981445,0.1606445,-0.2368164,-0.25
3732,-48.8125,13.9375,-172.6875,-0.02197266,0.7314453,0.5712891,0.1713867,-0.2231445,-0.2529297
3736,-48.125,27.75,-190.6875,-0.06835938,0.5527344,0.5058594,0.1796875,-0.2104492,-0.2543945
3740,-42.375,32.5625,-213.5625,-0.2001953,0.5097656,0.4482422,0.1879883,-0.2006836,-0.2543945
3744,-32.4375,29.1875,-238,-0.2270508,0.3623047,0.4018555,0.1987305,-0.1845703,-0.2543945
3748,-21.125,26.8125,-254.125,-0.2041016,0.2338867,0.409668,0.2104492,-0.1645508,-0.2514648
3752,-23.625,26.75,-258.3125,-0.2231445,0.1137695,0.4174805,0.21875,-0.1508789,-0.2514648
3756,-36,25.5625,-250.875,-0.262207,-0.02978516,0.3979492,0.2236328,-0.1293945,-0.25
3760,-44.25,20.4375,-238.6875,-0.3007813,-0.1381836,0.3134766,0.2329102,-0.1083984,-0.2490234
3764,-43.5625,11.625,-236.0625,-0.3203125,-0.09570313,0.2290039,0.2353516,-0.09326172,-0.2475586
3769,-39.5625,2.625,-253.25,-0.3007813,-0.01806641,0.2675781,0.237793,-0.07177734,-0.2490234
3773,-32.5,5.0625,-283.875,-0.2080078,-0.2392578,0.2866211,0.2392578,-0.04833984,-0.2475586
3777,-21.625,5.1875,-290.75,-0.2119141,-0.5112305,0.2597656,0.2392578,-0.03320313,-0.2475586
3781,-25.5625,-7.6875,-264.875,-0.3007813,-0.7988281,0.1557617,0.2353516,-0.009277344,-0.2475586
3785,-38.9375,-27.9375,-233.875,-0.3085938,-0.5737305,0.2021484,0.2319336,0.01123047,-0.2475586
3789,-59.1875,-38.3125,-221.25,-0.1962891,-0.7016602,0.2788086,0.2260742,0.02490234,-0.2460938
3793,-56.875,-35.0625,-219.9375,-0.1264648,-0.8066406,0.3056641,0.21875,0.04638672,-0.2475586
3797,-49.75,-29.3125,-233.1875,-0.1069336,-0.8999023,0.3173828,0.2080078,0.06396484,-0.2460938
3801,-44.125,-25.25,-230.9375,-0.1147461,-0.9194336,0.2558594,0.2011719,0.07763672,-0.2460938
3805,-64,-22.1875,-224.5625,-0.03320313,-0.8920898,0.3867188,0.1904297,0.09521484,-0.2460938
3809,-92.5625,-2.5625,-203.625,0.05517578,-1.140625,0.375,0.1806641,0.1123047,-0.2421875
3813,-108.6875,11.375,-184.875,-0.07226563,-1.199219,0.2827148,0.1748047,0.1264648,-0.2368164
3817,-105.5,7.5625,-192,-0.1108398,-1.257324,0.2250977,0.1640625,0.1450195,-0.2324219
3821,-73.875,6.0625,-208.0625,-0.04101563,-1.354492,0.1674805,0.1533203,0.1601563,-0.2216797
3825,-43.9375,0.8125,-216.875,-0.08007813,-1.171875,0.1098633,0.144043,0.1699219,-0.2216797
3829,-50.5625,-11.9375,-219.4375,-0.01416016,-0.9467773,0.1557617,0.128418,0.1811523,-0.2177734
3833,-68.75,-10.5625,-218.9375,0.2138672,-1.105957,0.2060547,0.1152344,0.1962891,-0.2133789
3837,-71.625,2.0625,-210.1875,0.2104492,-1.308105,0.1904297,0.105957,0.2036133,-0.2094727
3841,-68.25,-5.125,-201.1875,0.07080078,-1.475098,0.105957,0.09130859,0.2138672,-0.2055664
3845,-52.8125,-25.625,-189.5,0.07080078,-1.544922,0.03271484,0.07470703,0.2236328,-0.1987305
3849,-27.8125,-45.6875,-184.8125,0.109375,-1.408691,0.04443359,0.06298828,0.2285156,-0.1958008
3853,-19.5625,-55.75,-185.0625,0.2607422,-1.133301,0.07910156,0.04638672,0.2338867,-0.1958008
3857,-36.625,-53.875,-186.8125,0.3959961,-1.02832,0.1518555,0.02832031,0.2387695,-0.1928711
3861,-51.8125,-44.375,-189.4375,0.4931641,-1.125488,0.2172852,0.01513672,0.2397461,-0.1904297
3865,-50.3125,-35.3125,-191.5,0.4892578,-1.26123,0.2211914,-0.001953125,0.2436523,-0.1865234
3869,-36.875,-37.8125,-189.375,0.4541016,-1.304199,0.2290039,-0.01855469,0.2485352,-0.1796875
3873,-24.9375,-43.375,-183.8125,0.5200195,-1.284668,0.2211914,-0.03076172,0.2475586,-0.1782227
3877,-20.5625,-45.3125,-174.8125,0.5317383,-1.210938,0.1982422,-0.04736328,0.2475586,-0.1738281
3881,-26.125,-46.875,-170.75,0.5356445,-1.148438,0.1713867,-0.06494141,0.2475586,-0.1728516
3885,-32.875,-45.5625,-166.3125,0.6015625,-1.241699,0.2133789,-0.07568359,0.2475586,-0.168457
3889,-29.875,-42.75,-157.125,0.6328125,-1.37793,0.2709961,-0.08886719,0.2451172,-0.1645508
3893,-25.375,-38.25,-143.25,0.6791992,-1.408691,0.3364258,-0.1044922,0.2436523,-0.1616211
3898,-29.5625,-25.75,-126.3125,0.7177734,-1.416504,0.390625,-0.1137695,0.2412109,-0.1577148
3902,-37.625,-11.5,-107.125,0.6132813,-1.455566,0.3710938,-0.1235352,0.2397461,-0.1547852
3906,-40.0625,-3,-86.75,0.4970703,-1.537109,0.3173828,-0.1342773,0.2363281,-0.1508789
3910,-32.0625,0.625,-64.8125,0.4233398,-1.634277,0.2983398,-0.1342773,0.2373047,-0.1494141
3914,-20.0625,1.875,-37.1875,0.3457031,-1.595215,0.2636719,-0.1425781,0.2348633,-0.1469727
3918,-15.1875,-3.1875,-7.5625,0.3378906,-1.498535,0.2636719,-0.1435547,0.2363281,-0.1469727
3922,-8.4375,-4.6875,11.125,0.3999023,-1.416504,0.3134766,-0.1425781,0.2348633,-0.144043
3926,0.875,0.3125,22.625,0.4506836,-1.34668,0.3330078,-0.1425781,0.2363281,-0.1425781
3930,6.1875,8.25,31.375,0.4775391,-1.245605,0.3330078,-0.1401367,0.2397461,-0.144043
3934,0.375,16.9375,42,0.4931641,-1.179688,0.3330078,-0.1376953,0.2387695,-0.144043
3938,-9.3125,29.75,55.0625,0.5048828,-1.265137,0.3598633,-0.1328125,0.2387695,-0.1455078
3942,-18.1875,41.9375,74.8125,0.4736328,-1.385742,0.3481445,-0.128418,0.2412109,-0.1469727
3946,-25.5,51.9375,97.375,0.4697266,-1.517578,0.3520508,-0.1220703,0.2426758,-0.144043
3950,-28.5625,62.875,125.25,0.4580078,-1.645996,0.3330078,-0.112793,0.2485352,-0.1469727
3954,-28.125,70.1875,148.375,0.4970703,-1.74707,0.3017578,-0.09716797,0.2539063,-0.1455078
3958,-27.9375,72.1875,177.0625,0.4580078,-1.777832,0.2021484,-0.08789063,0.2563477,-0.1455078
3962,-24.3125,65.5625,205.4375,0.4467773,-1.809082,0.1748047,-0.06738281,0.2612305,-0.144043
3966,-13.375,59.4375,223.4375,0.4892578,-1.789551,0.1826172,-0.04589844,0.2651367,-0.1455078
3970,-4.75,56.3125,234.875,0.4775391,-1.727539,0.1328125,-0.03076172,0.2661133,-0.1455078
3974,3,48.8125,243.9375,0.4580078,-1.781738,0.125,-0.006835938,0.2675781,-0.1484375
3978,20.0625,38.3125,258.875,0.4233398,-1.910156,0.05175781,0.01660156,0.2636719,-0.1469727
3982,35.6875,20.25,275.375,0.4116211,-1.886719,0.05566406,0.03076172,0.2612305,-0.1494141
3986,49.3125,8.125,289.125,0.4467773,-1.840332,0.07128906,0.05810547,0.2539063,-0.1547852
3990,60.4375,0.875,295.4375,0.4194336,-1.828613,0.06738281,0.08300781,0.2451172,-0.1616211
3994,82.125,-9.125,301,0.3496094,-1.824707,-0.001464844,0.09863281,0.2363281,-0.1645508
3998,100.625,-19.625,306.0625,0.3691406,-1.606934,-0.001464844,0.1210938,0.2197266,-0.1738281
4002,103.0625,-19.5625,308.375,0.4038086,-1.366211,0.03662109,0.1425781,0.2036133,-0.1806641
4006,90,-16.3125,317.1875,0.3535156,-1.105957,0.07519531,0.1547852,0.1860352,-0.1875
4010,73.8125,-10.625,316.375,0.3266602,-1.05127,0.125,0.1757813,0.1660156,-0.1958008
4014,75.75,-4.375,304.375,0.2177734,-1.032227,0.105957,0.1938477,0.1435547,-0.199707
4018,81.5625,-2.875,293.8125,0.159668,-0.8959961,0.1367188,0.2055664,0.1289063,-0.2055664
4022,71.625,-0.9375,295.625,0.1367188,-0.8999023,0.1328125,0.2202148,0.1035156,-0.2094727
4027,66.75,-0.5,306.875,0.08642578,-0.8920898,0.1020508,0.2329102,0.07763672,-0.2133789
4031,67.9375,-5.1875,306.375,0.0009765625,-0.8261719,0.05957031,0.2412109,0.05859375,-0.2163086
4035,74.8125,-13.25,296.9375,-0.07617188,-0.6201172,0.06347656,0.2475586,0.03027344,-0.21875
4039,81.5625,-11.1875,270.25,-0.05273438,-0.5541992,0.125,0.253418,0.001464844,-0.2231445
4043,88.375,-1.8125,258.0625,-0.07226563,-0.5620117,0.1132813,0.2543945,-0.01806641,-0.2246094
4047,71.5,3.25,267.3125,-0.09130859,-0.4648438,0.1982422,0.2568359,-0.04589844,-0.2246094
4051,46.25,17.6875,282.875,-0.08398438,-0.5151367,0.2172852,0.2592773,-0.07080078,-0.2255859
4055,40.9375,17.3125,290.625,-0.2661133,-0.4414063,0.1132813,0.2568359,-0.08691406,-0.2255859
4059,45.9375,-4.3125,291.1875,-0.3935547,-0.371582,-0.02050781,0.253418,-0.1142578,-0.2231445
4063,63,-30.9375,278.375,-0.362793,-0.2666016,-0.04736328,0.2460938,-0.1420898,-0.2246094
4067,84.6875,-48.25,260.5625,-0.2583008,-0.1113281,0.02099609,0.2392578,-0.1606445,-0.2246094
4071,93.875,-42.8125,241.9375,-0.08398438,0.21875,0.1635742,0.2294922,-0.1855469,-0.2270508
4075,76.375,-25.3125,233.75,-0.03320313,0.5410156,0.1328125,0.2128906,-0.2094727,-0.2231445
4079,52.4375,-17,233.0625,-0.006347656,0.7705078,0.06347656,0.2055664,-0.2216797,-0.2231445
4083,38.4375,-23.625,226,-0.006347656,0.9023438,-0.02832031,0.1938477,-0.2382813,-0.2216797
4087,44.125,-51.6875,205.5625,0.07080078,1.077148,-0.1401367,0.1782227,-0.2568359,-0.21875
4091,57.25,-79.4375,174.5625,0.190918,1.283203,-0.128418,0.1674805,-0.265625,-0.2246094
4095,62.5625,-89.6875,118.6875,0.4272461,1.799805,0.02099609,0.1523438,-0.2768555,-0.21875
4099,41.1875,-67.5625,50.875,0.5161133,2.095215,0.1826172,0.1391602,-0.2856445,-0.2231445
4103,10.3125,-35.8125,-20.1875,0.4038086,1.928223,0.3017578,0.1342773,-0.2880859,-0.2216797
4107,-9.0625,-11.5625,-78.9375,0.2529297,1.485352,0.3442383,0.1357422,-0.2856445,-0.2216797
4111,-22.6875,8.1875,-115.1875,0.1132813,1.112305,0.375,0.1425781,-0.2807617,-0.2231445
4115,-38.9375,22.8125,-130.5625,-0.05664063,0.8208008,0.340332,0.1484375,-0.2729492,-0.2255859
4119,-51.3125,25.375,-132.875,-0.1923828,0.5878906,0.2636719,0.1591797,-0.2670898,-0.2255859
4123,-51.75,16.0625,-135.0625,-0.3046875,0.5449219,0.1787109,0.1713867,-0.2568359,-0.2285156
4127,-46.6875,-2,-147.8125,-0.362793,0.6147461,0.1098633,0.1757813,-0.2470703,-0.2270508
4131,-39.125,-22.125,-171.5,-0.3007813,0.6655273,0.07128906,0.184082,-0.2368164,-0.2324219
4135,-30.8125,-35.0625,-206.9375,-0.230957,0.6694336,0.1635742,0.1914063,-0.2216797,-0.2353516
4139,-29.4375,-35.1875,-245.1875,-0.1186523,0.5136719,0.2709961,0.1972656,-0.2104492,-0.2392578
4143,-34.375,-26.375,-257.8125,-0.06445313,0.3081055,0.3134766,0.2070313,-0.1933594,-0.2436523
4147,-51.125,-20.375,-250.4375,-0.08398438,0.1523438,0.3017578,0.2128906,-0.171875,-0.2460938
4151,-73.625,-15.75,-235.5,-0.1186523,0.0009765625,0.2788086,0.21875,-0.1567383,-0.2475586
4156,-86.875,-16.1875,-225.75,-0.1884766,-0.1308594,0.2441406,0.2236328,-0.1342773,-0.2490234
4160,-93.875,-19.25,-223.9375,-0.2504883,-0.1811523,0.2866211,0.2285156,-0.1108398,-0.2529297
4164,-93,-17.625,-239.9375,-0.262207,-0.324707,0.3598633,0.230957,-0.09423828,-0.2558594
4168,-75.5625,-8.75,-267.4375,-0.2426758,-0.5698242,0.4599609,0.230957,-0.06933594,-0.2543945
4172,-56.625,3.3125,-272.5,-0.2543945,-0.7753906,0.3173828,0.2294922,-0.04296875,-0.2568359
4176,-54.1875,-8.875,-244.6875,-0.4829102,-0.7641602,0.2172852,0.2285156,-0.02832031,-0.2568359
4180,-74.0625,-36.6875,-208.3125,-0.4521484,-0.6044922,0.2519531,0.2270508,-0.005859375,-0.2558594
4184,-93.3125,-43.125,-190.4375,-0.2773438,-0.5307617,0.3173828,0.21875,0.01269531,-0.2568359
4188,-97.5625,-34.8125,-203.4375,-0.2041016,-0.4960938,0.3945313,0.2138672,0.02734375,-0.2558594
4192,-84.8125,-22.8125,-236.6875,-0.1381836,-0.5966797,0.3789063,0.2070313,0.04882813,-0.2558594
4196,-70.875,-9.1875,-271.25,-0.07617188,-0.7250977,0.4213867,0.1987305,0.07128906,-0.2514648
4200,-67.125,3.75,-275.1875,-0.01025391,-0.9541016,0.4404297,0.1904297,0.08496094,-0.25
4204,-95,11.625,-246.375,0.04345703,-0.9428711,0.4560547,0.1806641,0.1088867,-0.2446289
4208,-133.375,18.6875,-201.75,-0.04882813,-1.207031,0.3671875,0.1699219,0.1274414,-0.2407227
4212,-139.4375,16,-175.5,-0.1420898,-1.179688,0.2211914,0.1640625,0.1401367,-0.2338867
4216,-120.125,3.125,-185.3125,-0.1728516,-1.11377,0.1367188,0.1533203,0.1586914,-0.2231445
4220,-79.25,-11.0625,-220.75,-0.07617188,-1.086426,0.1132813,0.1416016,0.1762695,-0.2177734
4224,-48.1875,-12,-271.9375,0.1791992,-1.016602,0.3017578,0.1308594,0.1850586,-0.2148438
4228,-57.25,14.6875,-280.3125,0.4467773,-1.15625,0.3671875,0.1118164,0.2001953,-0.2109375
4232,-106.6875,32.3125,-221.625,0.3266602,-1.245605,0.2368164,0.09521484,0.2124023,-0.2026367
4236,-151.4375,23.9375,-166.125,0.1948242,-1.29248,0.07128906,0.08544922,0.2226563,-0.1958008
4240,-139.75,15.1875,-163.9375,0.1831055,-1.374023,-0.03613281,0.07226563,0.2338867,-0.1821289
4244,-78.0625,-5.75,-204.375,0.1674805,-1.455566,-0.09765625,0.06054688,0.2426758,-0.1713867
4248,-7.9375,-28,-244.5,0.3266602,-1.463379,-0.04003906,0.04638672,0.2485352,-0.1674805
4252,25.875,-36.5625,-261.875,0.4580078,-1.385742,0.001953125,0.02490234,0.2524414,-0.1699219
4256,28.4375,-44.875,-239.875,0.5087891,-1.408691,-0.02050781,0,0.2509766,-0.168457
4260,14.75,-65.5625,-209.125,0.4116211,-1.350586,-0.05517578,-0.01416016,0.2524414,-0.1699219
4264,15.375,-88.75,-198.125,0.4658203,-1.424316,0.001953125,-0.03417969,0.2509766,-0.1713867
4268,41.8125,-97.3125,-205.625,0.6401367,-1.494629,0.1557617,-0.05566406,0.2475586,-0.1713867
4272,54.6875,-96.9375,-206.9375,0.644043,-1.362305,0.2788086,-0.06982422,0.2451172,-0.1738281
4276,41.25,-89.0625,-192.5625,0.7875977,-1.327148,0.425293,-0.09130859,0.2387695,-0.175293
4280,16.3125,-68.125,-164.625,0.8149414,-1.331055,0.4980469,-0.1103516,0.2324219,-0.1738281
4285,-7.625,-44.75,-133.3125,0.7719727,-1.385742,0.5249023,-0.1201172,0.2299805,-0.1738281
4289,-28,-16.9375,-91.9375,0.7333984,-1.463379,0.5288086,-0.1303711,0.2236328,-0.1699219
4293,-41.5625,-3.125,-52.375,0.5009766,-1.436035,0.4443359,-0.1376953,0.2236328,-0.1674805
4297,-38.375,-2,-30.0625,0.4506836,-1.416504,0.3364258,-0.1391602,0.2236328,-0.1645508
4301,-20.8125,-2.125,-18,0.3959961,-1.362305,0.2788086,-0.1425781,0.2260742,-0.1606445
4305,-2.3125,-9.5,-11.6875,0.3959961,-1.300293,0.2827148,-0.1450195,0.2260742,-0.1630859
4309,12.1875,-14.0625,-5.25,0.4389648,-1.276855,0.3291016,-0.1459961,0.2250977,-0.1606445
4313,22.375,-10.1875,3.1875,0.5126953,-1.269043,0.425293,-0.1450195,0.2250977,-0.1616211
4317,23.1875,4.8125,19.0625,0.578125,-1.34668,0.5097656,-0.1450195,0.2250977,-0.1606445
4321,12.625,19.8125,55.875,0.5239258,-1.505859,0.5058594,-0.1435547,0.2250977,-0.1645508
4325,4.125,27,107.25,0.4775391,-1.645996,0.4560547,-0.1376953,0.2250977,-0.1660156
4329,8.5,29.3125,144.125,0.4428711,-1.587891,0.4443359,-0.1259766,0.2324219,-0.1660156
4333,18.0625,34,145.1875,0.4736328,-1.467285,0.5175781,-0.1186523,0.2338867,-0.1660156
4337,28.8125,50.8125,140.875,0.5820313,-1.580078,0.5556641,-0.1030273,0.2363281,-0.1713867
4341,25.25,65.25,163.25,0.5898438,-1.645996,0.5483398,-0.09033203,0.2387695,-0.1738281
4345,8.125,74.25,202,0.6479492,-1.653809,0.5327148,-0.07958984,0.2397461,-0.1782227
4349,-4.625,83.625,230.8125,0.659668,-1.688477,0.5019531,-0.05810547,0.2426758,-0.1821289
4353,-3.4375,91.25,243.875,0.609375,-1.824707,0.4560547,-0.03320313,0.2451172,-0.1850586
4357,16.375,90.5625,251.5625,0.543457,-1.925781,0.340332,-0.01757813,0.2451172,-0.1835938
4361,34.125,80.0625,264.6875,0.4194336,-1.933594,0.3017578,0.009277344,0.2436523,-0.1865234
4365,41.9375,65.5625,289.8125,0.4350586,-1.925781,0.2944336,0.03417969,0.2387695,-0.1918945
4369,45.6875,55.5625,314.8125,0.4775391,-1.878906,0.3291016,0.05322266,0.2348633,-0.1918945
4373,41.3125,55.6875,331.5625,0.4658203,-1.688477,0.3598633,0.08056641,0.2236328,-0.1972656
4377,43,55.25,335.5625,0.3457031,-1.61084,0.2519531,0.109375,0.2084961,-0.199707
4381,49.5625,42.9375,336.875,0.2373047,-1.486816,0.1748047,0.1259766,0.2001953,-0.1972656
4385,68.5625,29.8125,331.1875,0.159668,-1.432129,0.09033203,0.1523438,0.1787109,-0.2026367
4389,96.625,11.9375,316.8125,0.07861328,-1.233887,0.02099609,0.1757813,0.1577148,-0.206543
4393,119.75,-1.375,296.625,0.09033203,-1.098145,-0.01318359,0.1855469,0.1435547,-0.2133789
4397,135.375,-14.3125,280.8125,0.03955078,-0.9814453,0.01708984,0.199707,0.1186523,-0.21875
4401,142.5625,-15.8125,270.75,0.1289063,-0.9194336,0.01708984,0.2119141,0.08984375,-0.2285156
4405,128.1875,-11.4375,280.3125,0.1484375,-0.7211914,0.09033203,0.2177734,0.07128906,-0.2338867
4409,102.75,2.6875,290.375,0.1713867,-0.6748047,0.159668,0.2270508,0.04248047,-0.237793
4414,81.8125,14.0625,299.625,0.09375,-0.6552734,0.1289063,0.2329102,0.01269531,-0.2407227
4418,69.375,16.125,304.0625,-0.01806641,-0.5112305,0.105957,0.2392578,-0.004394531,-0.2421875
4422,73.25,12.25,289.4375,-0.09912109,-0.5,0.08251953,0.2426758,-0.03320313,-0.2436523
4426,94.5,0.3125,271.1875,-0.1689453,-0.453125,-0.02050781,0.2451172,-0.06445313,-0.2421875
4430,101.3125,-15.5625,259.375,-0.1611328,-0.2509766,0.01708984,0.2436523,-0.08056641,-0.2407227
4434,97.6875,-17.4375,252.1875,-0.03320313,-0.1499023,0.144043,0.237793,-0.1083984,-0.2421875
4438,84.875,-8.125,252.25,-0.01025391,0.04736328,0.1289063,0.2319336,-0.1333008,-0.2421875
4442,64.8125,-8.5,249.75,-0.09912109,0.21875,0.09423828,0.2270508,-0.1508789,-0.2421875
4446,59.875,-13.5,230.625,-0.1069336,0.3081055,0.09814453,0.2211914,-0.1743164,-0.237793
4450,69.125,-22.125,200.0625,-0.1069336,0.5332031,0.07128906,0.2094727,-0.1933594,-0.237793
4454,73.5,-31.8125,162.9375,-0.1186523,0.7236328,0.140625,0.203125,-0.2045898,-0.2392578
4458,78.4375,-26.6875,123.3125,-0.04882813,0.6264648,0.2519531,0.1928711,-0.2167969,-0.2353516
4462,81.3125,-11.9375,105.375,-0.1108398,0.5449219,0.2827148,0.1855469,-0.2329102,-0.2324219
4466,57.4375,-2.75,114.25,-0.1767578,0.5952148,0.375,0.184082,-0.2392578,-0.2299805
4470,24.8125,17.0625,132.6875,-0.1572266,0.5371094,0.4633789,0.1757813,-0.2480469,-0.2270508
4474,-4.5625,34.3125,149.125,-0.3007813,0.5761719,0.4599609,0.1674805,-0.2583008,-0.2255859
4478,-15.125,38.4375,148.25,-0.4052734,0.6030273,0.4560547,0.1640625,-0.2641602,-0.2255859
4482,-2.5625,40.0625,127.625,-0.4985352,0.5019531,0.3979492,0.1567383,-0.2719727,-0.2246094
4486,13,30.0625,110.5,-0.6650391,0.5175781,0.2788086,0.1508789,-0.2753906,-0.2216797
4490,20.1875,9.9375,105.4375,-0.6611328,0.5527344,0.2290039,0.1459961,-0.2807617,-0.2216797
4494,20,-7.5625,101,-0.5756836,0.6962891,0.1518555,0.1391602,-0.2880859,-0.21875
4498,18.1875,-24.75,89.625,-0.4365234,1.003418,0.07128906,0.1318359,-0.2929688,-0.21875
4502,21.6875,-39.8125,52.3125,-0.3354492,1.186035,0.06347656,0.1269531,-0.2954102,-0.21875
4506,26.5,-42.5,-4,-0.06835938,1.535645,0.07519531,0.1201172,-0.3007813,-0.2163086
4510,16.5,-42.4375,-56.125,-0.02587891,1.531738,0.1210938,0.1210938,-0.2993164,-0.2177734
4514,5.3125,-36.5,-98.375,0.07080078,1.364746,0.2094727,0.1225586,-0.296875,-0.2177734
4518,-9.8125,-16.3125,-126.125,0.1367188,1.189941,0.3095703,0.128418,-0.2919922,-0.2177734
4522,-33.9375,3.625,-138.0625,0.1132813,1.073242,0.2905273,0.1367188,-0.2856445,-0.2202148
4526,-55.3125,16.75,-144.875,0.06298828,0.9682617,0.2133789,0.144043,-0.2792969,-0.2231445
4530,-66.0625,21.6875,-158.8125,0.008789063,0.9101563,0.1328125,0.1567383,-0.2680664,-0.2246094
4534,-69.8125,17.9375,-182,-0.01806641,0.8632813,0.08251953,0.1665039,-0.2568359,-0.2285156
4538,-68.5,9.9375,-212.875,-0.02587891,0.7973633,0.06347656,0.1757813,-0.2456055,-0.2299805
4543,-65.5625,4.75,-244.8125,0.05126953,0.7001953,0.06347656,0.1879883,-0.2270508,-0.2338867
4547,-66.6875,2.1875,-275.9375,0.03955078,0.6303711,0.05566406,0.2021484,-0.2055664,-0.237793
4551,-70.5625,0.1875,-299,0.09765625,0.3974609,0.06738281,0.2080078,-0.1904297,-0.237793
4555,-78,2.5625,-306.8125,0.09033203,0.1484375,0.09814453,0.2211914,-0.1645508,-0.2407227
4559,-89.25,2.625,-299.5,0.03173828,-0.06445313,0.05566406,0.2319336,-0.1342773,-0.2436523
4563,-100.1875,-7.125,-285.125,-0.07617188,-0.1850586,0.01367188,0.2329102,-0.1157227,-0.2436523
4567,-109.6875,-21.1875,-272.5,-0.1069336,-0.2822266,0.05957031,0.237793,-0.08691406,-0.2475586
4571,-129.5625,-21,-262.6875,-0.09521484,-0.4375,0.2558594,0.2368164,-0.05810547,-0.2490234
4575,-146.125,-3.875,-251.25,0.004882813,-0.4570313,0.3979492,0.2368164,-0.03955078,-0.2490234
4579,-139.875,9.5625,-239.5,-0.2001953,-1.032227,0.2675781,0.234375,-0.009277344,-0.2446289
4583,-132.1875,4,-231.25,-0.3242188,-0.9619141,0.2094727,0.2285156,0.01855469,-0.2436523
4587,-135.125,5.3125,-226.0625,-0.1420898,-0.8881836,0.2983398,0.2270508,0.03759766,-0.2392578
4591,-148.4375,23,-227.125,-0.09130859,-0.8842773,0.3134766,0.2211914,0.0625,-0.2338867
4595,-143,33,-239.375,-0.1225586,-1.214844,0.2250977,0.2128906,0.08642578,-0.2246094
4599,-114.125,31,-258.6875,-0.2700195,-1.657715,0.1479492,0.2055664,0.1035156,-0.2202148
4603,-61,5.875,-261.8125,-0.4365234,-1.921875,0.04785156,0.1962891,0.1289063,-0.2119141
4607,-34.875,-27.6875,-239.25,-0.3666992,-1.556641,0.07128906,0.1821289,0.1450195,-0.2094727
4611,-50.25,-44.625,-213.6875,-0.1650391,-1.222656,0.1328125,0.1723633,0.15625,-0.2094727
4615,-59.4375,-44,-207,0.02441406,-1.117676,0.1557617,0.1557617,0.1699219,-0.206543
4619,-65.1875,-34.6875,-217.3125,0.1289063,-0.9389648,0.1748047,0.1401367,0.1826172,-0.2055664
4623,-78.1875,-20.8125,-234.9375,0.2490234,-0.8959961,0.1787109,0.1293945,0.1948242,-0.2026367
4627,-84,-7.4375,-254.8125,0.3613281,-1.043945,0.1635742,0.1118164,0.2060547,-0.1958008
4631,-77.1875,-0.1875,-261.3125,0.3808594,-1.265137,0.08642578,0.09130859,0.2197266,-0.1904297
4635,-60.5625,-16.375,-258.6875,0.3188477,-1.397461,0.01708984,0.07861328,0.2275391,-0.1835938
4639,-36.6875,-41.5,-259.625,0.3999023,-1.401367,0.01367188,0.05810547,0.2373047,-0.1806641
4643,-19.5625,-53,-268.625,0.5200195,-1.315918,0.04052734,0.03417969,0.2451172,-0.1796875
4647,-15.3125,-57.25,-282.5,0.578125,-1.226563,0.07519531,0.01660156,0.2475586,-0.1782227
4651,-16.75,-64.375,-300.3125,0.6635742,-1.342773,0.1132813,-0.01025391,0.2485352,-0.1767578
4655,0,-61.625,-283.5625,0.8378906,-1.719727,0.1787109,-0.0390625,0.25,-0.1728516
4659,13.9375,-63.125,-244.375,0.7836914,-1.773926,0.2441406,-0.05566406,0.2475586,-0.1728516
4663,5.125,-64.4375,-191.8125,0.7333984,-1.568359,0.2866211,-0.078125,0.2426758,-0.1713867
4667,-21.4375,-58.0625,-153.1875,0.6557617,-1.381836,0.3095703,-0.09472656,0.2387695,-0.168457
4672,-39.1875,-43.6875,-134.6875,0.6674805,-1.455566,0.3481445,-0.1044922,0.2397461,-0.168457
4676,-36.3125,-26.4375,-113.4375,0.6054688,-1.544922,0.340332,-0.1186523,0.2363281,-0.1616211
4680,-25.625,-13.0625,-85.9375,0.6054688,-1.505859,0.3364258,-0.1269531,0.2363281,-0.1577148
4684,-24.125,-10.1875,-57.875,0.4506836,-1.334961,0.2402344,-0.1318359,0.2363281,-0.1547852
4688,-26,-15.5,-36.4375,0.4506836,-1.257324,0.2133789,-0.1342773,0.2324219,-0.1538086
4692,-22,-18.8125,-24.5,0.4350586,-1.199219,0.2021484,-0.1376953,0.2348633,-0.1508789
4696,-15,-22.1875,-21.6875,0.4506836,-1.133301,0.2250977,-0.1411133,0.2348633,-0.1494141
4700,-10.3125,-21.9375,-21.8125,0.4970703,-1.08252,0.2749023,-0.1425781,0.2338867,-0.1469727
4704,-9.375,-15.25,-17.6875,0.5629883,-1.070801,0.3173828,-0.1450195,0.2324219,-0.1469727
4708,-13.75,-7.0625,-10.5,0.5820313,-1.024414,0.3364258,-0.1450195,0.2348633,-0.1425781
4712,-18.6875,-0.625,-3.6875,0.5820313,-1.036133,0.3095703,-0.1474609,0.2348633,-0.1425781
4716,-17.1875,3.625,2.375,0.5317383,-1.047363,0.2558594,-0.1474609,0.2338867,-0.1386719
4720,-11.875,1.9375,4.0625,0.4892578,-1.024414,0.2094727,-0.1484375,0.2348633,-0.1401367
4724,-4.4375,-1.875,3.875,0.4970703,-1.02832,0.2021484,-0.1484375,0.2348633,-0.137207
4728,3.6875,-4.1875,8.625,0.5161133,-1.020508,0.2060547,-0.1484375,0.2373047,-0.137207
4732,9.5,-6.625,11.9375,0.5317383,-0.9580078,0.2133789,-0.1474609,0.2373047,-0.1386719
4736,11.75,-2.375,13.6875,0.625,-0.9155273,0.2290039,-0.1459961,0.2373047,-0.1386719
4740,10.75,4.75,19.8125,0.6171875,-0.8881836,0.2133789,-0.1450195,0.2363281,-0.1416016
4744,6.125,7.5,23,0.59375,-0.8144531,0.1748047,-0.1435547,0.2363281,-0.1401367
4748,2.6875,10,19.25,0.5976563,-0.7910156,0.144043,-0.1401367,0.2397461,-0.1425781
4752,1.875,12.5,16.3125,0.6054688,-0.8183594,0.105957,-0.1401367,0.2387695,-0.1401367
4756,2.9375,12.25,18.125,0.574707,-0.8183594,0.06347656,-0.1391602,0.2373047,-0.144043
4760,4.1875,9.5,19.875,0.5898438,-0.8066406,0.04443359,-0.1367188,0.2397461,-0.1455078
4764,5.9375,9.1875,22.4375,0.5898438,-0.7832031,0.03271484,-0.1342773,0.2397461,-0.1455078
4768,5.9375,7.5,20.625,0.574707,-0.7446289,0.02490234,-0.1328125,0.2397461,-0.1455078
