Packet number,Gyroscope X (deg/s),Gyroscope Y (deg/s),Gyroscope Z (deg/s),Accelerometer X (g),Accelerometer Y (g),Accelerometer Z (g),Magnetometer X (G),Magnetometer Y (G),Magnetometer Z (G)
0,2.875,0,1.4375,0.9970703,0.1176758,0.03662109,-0.3173828,-0.003417969,-0.1196289
4,1.5625,1.3125,2,0.9970703,0.105957,0.04443359,-0.3173828,-0.004394531,-0.1210938
8,1.0625,3.4375,1.625,0.9853516,0.09814453,0.03662109,-0.3173828,-0.003417969,-0.1225586
12,0.875,2.6875,0.9375,0.9462891,0.09814453,0.04443359,-0.3188477,-0.004394531,-0.1225586
16,1.0625,-0.8125,-1.25,0.9462891,0.08642578,0.03662109,-0.3188477,-0.003417969,-0.1235352
20,1.5,-3.25,-2.5,0.9697266,0.09423828,0.03271484,-0.3188477,-0.003417969,-0.1196289
24,1.75,-2.8125,-1.75,1.008301,0.1020508,0.02490234,-0.3198242,-0.005859375,-0.1235352
28,1.875,-0.125,0.1875,1.027832,0.1020508,0.02490234,-0.3188477,-0.004394531,-0.1225586
32,1.6875,3.1875,0.4375,1.004395,0.09423828,0.03271484,-0.3188477,-0.005859375,-0.1225586
36,1.5625,4.125,0.5,0.9697266,0.09814453,0.04785156,-0.3198242,-0.004394531,-0.125
40,1.3125,3.375,0,0.9462891,0.08642578,0.05957031,-0.3188477,-0.004394531,-0.1235352
44,0.6875,2.3125,-0.875,0.9311523,0.07861328,0.07128906,-0.3164063,-0.003417969,-0.1225586
48,0.875,0.3125,-0.1875,0.9077148,0.06298828,0.07519531,-0.3188477,-0.004394531,-0.125
52,2.0625,2.3125,1.1875,0.9077148,0.01660156,0.06738281,-0.3198242,-0.004394531,-0.1235352
56,4.0625,7.625,-1.375,0.8769531,0.04003906,0.07519531,-0.3173828,-0.003417969,-0.1235352
60,4.3125,15.25,-4.5625,0.8803711,0.01660156,0.09814453,-0.3173828,-0.006835938,-0.125
64,1.5625,31.5625,-5,0.8378906,0.04736328,0.09423828,-0.3164063,-0.005859375,-0.1279297
68,-1.75,50.5,-6.5,0.7529297,-0.006347656,0.1132813,-0.3164063,-0.006835938,-0.1303711
72,-1.8125,67.8125,-15,0.6210938,-0.01806641,0.1210938,-0.3115234,-0.005859375,-0.1357422
76,-3.8125,75.5,-25.8125,0.4428711,0.0009765625,0.105957,-0.3105469,-0.008300781,-0.1401367
80,-4.0625,60.9375,-39.625,0.1987305,0.0009765625,0.1132813,-0.309082,-0.01074219,-0.1455078
84,2.6875,19,-51.6875,0.004882813,-0.02197266,0.09423828,-0.3066406,-0.01708984,-0.1523438
88,13.1875,-24.3125,-61.8125,0.1328125,0.02832031,0.07128906,-0.3056641,-0.02050781,-0.1508789
92,18.875,-46.125,-71.9375,0.3730469,0.21875,0.09814453,-0.3115234,-0.02441406,-0.1484375
96,12.75,-42.6875,-86.875,0.6518555,0.3193359,0.09814453,-0.3105469,-0.03320313,-0.144043
100,6.75,-15.6875,-99.4375,0.8535156,0.3935547,0.1210938,-0.3125,-0.04052734,-0.1401367
104,-1.8125,15.5625,-110.75,0.8261719,0.4594727,0.105957,-0.3105469,-0.04931641,-0.1416016
108,-2.5,15.5625,-112.125,0.6015625,0.4204102,0.09814453,-0.309082,-0.05957031,-0.1425781
112,7.625,-20.625,-99.0625,0.4194336,0.4243164,0.06738281,-0.3081055,-0.06933594,-0.1425781
116,17,-62,-93.6875,0.5473633,0.5253906,0.06347656,-0.309082,-0.07421875,-0.1401367
121,17.375,-64.375,-105.5,0.7719727,0.5527344,0.04443359,-0.3081055,-0.08447266,-0.1347656
125,-0.5625,-32.3125,-131.5625,1.012207,0.7080078,0.05175781,-0.3081055,-0.09814453,-0.1289063
129,-2.6875,5.3125,-148.4375,0.8535156,0.6381836,0.02490234,-0.3056641,-0.1054688,-0.1279297
133,-1.75,-8.6875,-147.75,0.4350586,0.7431641,-0.001464844,-0.3041992,-0.1206055,-0.1303711
137,0.875,-68.375,-132.625,0.2875977,0.7705078,-0.03222656,-0.3007813,-0.1333008,-0.125
141,3.4375,-114.875,-132.125,0.6210938,0.9453125,-0.04003906,-0.3007813,-0.1420898,-0.1196289
145,-16.0625,-105.25,-153.125,1.043457,1.143066,-0.05517578,-0.2998047,-0.1518555,-0.1074219
149,-35.75,-55.5,-170.75,1.248535,1.053711,-0.06298828,-0.2949219,-0.1669922,-0.09912109
153,-34.9375,-9.4375,-172.875,1.085938,0.8867188,-0.1054688,-0.293457,-0.1767578,-0.1005859
157,-22.1875,10.3125,-165.875,0.9116211,0.8598633,-0.1630859,-0.2851563,-0.1918945,-0.09912109
161,-11.4375,14.6875,-158.3125,0.7568359,0.9257813,-0.2016602,-0.2783203,-0.2045898,-0.1035156
165,-5.875,11.9375,-162.75,0.6674805,0.9916992,-0.1743164,-0.2724609,-0.2143555,-0.1035156
169,-2.625,6.75,-170.125,0.6328125,1.04248,-0.1743164,-0.2636719,-0.2280273,-0.105957
173,2,-0.125,-174.625,0.6635742,1.038574,-0.1669922,-0.2553711,-0.2441406,-0.1044922
177,8.5,-0.8125,-176.625,0.7719727,1.069336,-0.1669922,-0.2460938,-0.2519531,-0.1035156
181,12.3125,1.875,-171.4375,0.7680664,1.131836,-0.1513672,-0.234375,-0.2670898,-0.1044922
185,12.4375,-8.6875,-156,0.7333984,1.146973,-0.109375,-0.2246094,-0.2783203,-0.1044922
189,13.1875,-27.375,-142.4375,0.7177734,1.197754,-0.1015625,-0.2172852,-0.2866211,-0.1020508
193,4.75,-48.6875,-130.6875,0.7641602,1.263672,-0.112793,-0.2080078,-0.2954102,-0.1005859
197,-4.375,-70.6875,-113.3125,0.8457031,1.17041,-0.128418,-0.2006836,-0.3017578,-0.09521484
201,-4.3125,-81.875,-95.125,1.02002,1.084961,-0.1552734,-0.1972656,-0.3081055,-0.09375
205,-3.5,-73.25,-69.5,1.237305,1.003418,-0.1435547,-0.1914063,-0.3129883,-0.08984375
209,3.0625,-54.5625,-39.25,1.260254,0.8984375,-0.0859375,-0.1875,-0.3208008,-0.08691406
213,10.9375,-38.75,-13.8125,1.179199,0.9257813,-0.01660156,-0.1889648,-0.3208008,-0.08691406
217,8.25,-30.125,1.5625,1.082031,0.987793,0.03271484,-0.1889648,-0.3208008,-0.08447266
221,5.375,-24.875,12.75,1.02002,0.9453125,0.08642578,-0.1914063,-0.3217773,-0.08007813
225,2.75,-24.9375,25.8125,0.9462891,0.9916992,0.09033203,-0.1923828,-0.3193359,-0.08007813
229,-3.125,-26.375,40.625,1.000488,0.9643555,0.1171875,-0.1948242,-0.3168945,-0.07763672
233,-4.9375,-18.3125,57.9375,1.089844,0.9643555,0.1020508,-0.1982422,-0.3154297,-0.07470703
237,-7.5,-2.5,75.3125,1.186523,0.9799805,0.08642578,-0.2021484,-0.3120117,-0.07861328
241,-12.5,14.3125,89.5625,1.268066,1.030762,0.07128906,-0.2080078,-0.3066406,-0.07470703
245,-12.25,26.3125,106.5,1.318359,1.073242,0.05957031,-0.215332,-0.2983398,-0.07861328
250,-13.1875,25.625,136.8125,1.306641,1.213379,0.02099609,-0.21875,-0.2929688,-0.08007813
254,-15.375,3.4375,175.5,1.175293,1.283203,-0.009277344,-0.2304688,-0.2817383,-0.08154297
258,-14.9375,-24.9375,213.6875,1.229492,1.306641,-0.01318359,-0.2402344,-0.2670898,-0.08154297
262,-11,-33.3125,240.1875,1.395996,1.271484,-0.005371094,-0.253418,-0.2543945,-0.07861328
266,-9.1875,-24.9375,243.75,1.492676,1.333496,-0.06689453,-0.2675781,-0.2358398,-0.07470703
270,-11.125,-4.8125,247.375,1.582031,1.337402,-0.128418,-0.2807617,-0.2128906,-0.07617188
274,-6.4375,17.625,260.375,1.550781,1.291016,-0.1743164,-0.2890625,-0.1982422,-0.07763672
278,-2.75,27.3125,271.875,1.48877,1.395996,-0.1860352,-0.3007813,-0.1757813,-0.07763672
282,-2.375,38.5,283.4375,1.516113,1.294922,-0.2089844,-0.3105469,-0.1469727,-0.08154297
286,4.3125,57.375,292.0625,1.512207,1.240234,-0.1899414,-0.3139648,-0.1293945,-0.08154297
290,7.9375,76.0625,294.1875,1.384277,1.189941,-0.1782227,-0.3208008,-0.09814453,-0.09082031
294,3.75,76.625,294.25,1.147949,1.174316,-0.1782227,-0.3222656,-0.07080078,-0.09912109
298,6.75,38.375,308.5625,1.016113,1.045898,-0.1435547,-0.3222656,-0.05078125,-0.1020508
302,8.125,1.6875,327.875,1.194336,1.038574,-0.1362305,-0.3222656,-0.01708984,-0.1044922
306,6.8125,8,330.5625,1.484863,0.9414063,-0.1206055,-0.3198242,0.01123047,-0.1044922
310,12.875,42.1875,326.9375,1.543457,0.7973633,-0.1401367,-0.3164063,0.03515625,-0.105957
314,22.8125,57.5,324.3125,1.364746,0.8481445,-0.2016602,-0.3081055,0.06494141,-0.112793
318,22.75,46.625,327.0625,1.516113,0.9995117,-0.2207031,-0.293457,0.09375,-0.1196289
322,8.0625,65.75,328.4375,1.926758,0.9995117,-0.2705078,-0.2851563,0.1137695,-0.1225586
326,17.0625,117,355.5,1.926758,0.6303711,-0.3129883,-0.2651367,0.1386719,-0.1279297
330,43.1875,168.6875,402.875,1.550781,0.5952148,-0.378418,-0.2412109,0.1689453,-0.1425781
334,55.0625,191.8125,431.375,0.659668,0.7626953,-0.3632813,-0.2197266,0.1875,-0.1547852
338,38.875,168.8125,420.375,-0.3320313,0.9296875,-0.3051758,-0.1831055,0.2114258,-0.1699219
342,9.625,103.75,383.6875,-0.8818359,0.6962891,-0.2514648,-0.1435547,0.2275391,-0.1796875
346,-0.6875,23.125,352.1875,-1.013672,0.284668,-0.1782227,-0.1220703,0.2387695,-0.1796875
350,14.0625,-34.9375,335.875,-0.847168,0.07080078,-0.1054688,-0.09228516,0.25,-0.1835938
354,30.375,-40.375,316.9375,-0.5102539,0.04394531,0.03271484,-0.06640625,0.2563477,-0.1850586
358,43.5,6.5625,282.875,-0.3510742,-0.02587891,0.1020508,-0.04980469,0.2573242,-0.1875
362,59.125,69.6875,237.8125,-0.3393555,-0.1113281,0.140625,-0.0234375,0.2563477,-0.1928711
366,60.4375,121.8125,180.9375,-0.7075195,-0.01025391,0.1943359,-0.0009765625,0.2524414,-0.1987305
373,18.375,52.5625,87.6875,-1.389648,-0.2626953,0.2749023,0.02832031,0.2460938,-0.2041016
378,4.875,-9.5,51.75,-1.187988,-0.371582,0.3017578,0.03662109,0.2451172,-0.2055664
382,-3.9375,-39.125,9.4375,-0.878418,-0.4570313,0.2827148,0.03808594,0.2451172,-0.2055664
386,-6.375,-39.625,-30.8125,-0.6069336,-0.5073242,0.2866211,0.03662109,0.2436523,-0.2055664
390,-8.4375,-24.5,-68.875,-0.4091797,-0.5112305,0.3095703,0.03076172,0.2460938,-0.2026367
394,-9.0625,-9.0625,-107.75,-0.3242188,-0.503418,0.3134766,0.02490234,0.2475586,-0.2055664
398,-13.6875,-2.625,-132.5,-0.2851563,-0.503418,0.3251953,0.01416016,0.25,-0.2011719
402,-16.25,-10.25,-149.75,-0.2661133,-0.5,0.3330078,0.002441406,0.2509766,-0.2011719
406,-21.875,-24,-161.3125,-0.215332,-0.46875,0.3134766,-0.0078125,0.2524414,-0.2011719
410,-25.3125,-41.5625,-167,-0.08789063,-0.503418,0.2983398,-0.02490234,0.2509766,-0.199707
414,-25.125,-47.6875,-173.5625,0.1171875,-0.5112305,0.2636719,-0.04150391,0.2539063,-0.1958008
418,-23.125,-32.375,-176.5625,0.3339844,-0.5151367,0.2480469,-0.05322266,0.2509766,-0.1928711
422,-19.375,-6.0625,-191.1875,0.3457031,-0.4726563,0.2441406,-0.06884766,0.2509766,-0.1904297
426,-17.25,7.1875,-207.3125,0.2529297,-0.4570313,0.2172852,-0.08642578,0.2460938,-0.1875
430,-12.875,-2.0625,-215.625,0.1635742,-0.4067383,0.2094727,-0.09716797,0.2436523,-0.1875
434,-10.75,-31.6875,-216.0625,0.2104492,-0.3364258,0.2060547,-0.1162109,0.2373047,-0.1835938
438,-7.875,-49.75,-202.1875,0.5200195,-0.3481445,0.1635742,-0.1367188,0.2324219,-0.1821289
442,5.5,-29.5,-191.0625,0.7993164,-0.4453125,0.1132813,-0.1484375,0.2260742,-0.1806641
446,18.6875,28.25,-206.25,0.8803711,-0.3017578,0.1171875,-0.1625977,0.2163086,-0.1782227
450,14.875,66.9375,-242.25,0.4736328,-0.2509766,0.09814453,-0.1772461,0.2050781,-0.1835938
454,25.9375,40.75,-254.4375,0.1948242,-0.2124023,0.125,-0.184082,0.1948242,-0.1875
458,29.875,-16.75,-239.125,0.2104492,-0.01416016,0.140625,-0.2021484,0.1772461,-0.1889648
462,34.5625,-64.8125,-210.9375,0.6518555,-0.02978516,0.1020508,-0.2163086,0.1611328,-0.1875
466,47,-57.75,-197.6875,1.16748,0.1293945,0.2060547,-0.2270508,0.1523438,-0.1865234
470,30.8125,-9.625,-225.625,1.500488,0.3662109,0.2368164,-0.237793,0.1337891,-0.1850586
474,21.1875,28.875,-235.9375,1.318359,0.1333008,0.2441406,-0.2495117,0.1137695,-0.1850586
478,30.875,23.8125,-227.6875,1.027832,0.121582,0.2172852,-0.2543945,0.1025391,-0.1889648
482,38.875,-6.625,-196.1875,0.8417969,0.105957,0.2021484,-0.2602539,0.08251953,-0.1904297
486,50.9375,-39.875,-174.3125,0.9077148,0.1757813,0.1787109,-0.2700195,0.06640625,-0.1904297
490,51.6875,-46.6875,-170.625,1.089844,0.3623047,0.2133789,-0.2734375,0.05517578,-0.1875
494,31.75,-24.75,-206.625,1.326172,0.6186523,0.2597656,-0.2807617,0.03613281,-0.1865234
498,20.625,-2.75,-223.3125,1.248535,0.3818359,0.2290039,-0.2851563,0.01757813,-0.1865234
502,31.3125,-12.1875,-204.625,1.055176,0.4086914,0.1943359,-0.2851563,0.002441406,-0.1865234
507,39.75,-42.1875,-166.9375,0.9931641,0.4360352,0.1943359,-0.2875977,-0.015625,-0.1835938
511,44.8125,-57.875,-144.1875,0.9970703,0.4750977,0.1674805,-0.2915039,-0.03076172,-0.1796875
515,45.5625,-50.0625,-146.1875,1.031738,0.5605469,0.1748047,-0.293457,-0.04199219,-0.1767578
519,37.125,-26.375,-175.0625,0.8999023,0.5761719,0.1289063,-0.2949219,-0.05957031,-0.1713867
523,43.5,-22.625,-188.6875,0.6557617,0.5097656,0.09033203,-0.293457,-0.07714844,-0.168457
527,53.8125,-34,-187.5,0.559082,0.6264648,0.04052734,-0.293457,-0.08935547,-0.1699219
531,65.25,-48.9375,-182.0625,0.5356445,0.6845703,0.001953125,-0.2915039,-0.1083984,-0.1616211
535,78.75,-57.1875,-185.375,0.5976563,0.875,-0.02050781,-0.2890625,-0.1279297,-0.1577148
539,77,-47.8125,-214.1875,0.7177734,1.193848,-0.001464844,-0.2875977,-0.1420898,-0.1508789
543,63.75,-31.0625,-251.75,0.8261719,1.32959,-0.005371094,-0.2827148,-0.1655273,-0.144043
547,63.75,-19.25,-267.8125,0.9736328,1.36084,0.01708984,-0.2724609,-0.1904297,-0.1401367
551,61.75,-3.75,-256.625,1.105469,1.364746,0.04443359,-0.2636719,-0.2070313,-0.1386719
555,62.0625,-0.3125,-234,1.206055,1.469727,0.05175781,-0.2519531,-0.2294922,-0.1357422
559,54.5625,-18.3125,-195.0625,1.233398,1.450195,0.1020508,-0.2387695,-0.2480469,-0.1318359
563,40.0625,-46,-152.8125,1.341797,1.364746,0.1787109,-0.234375,-0.2568359,-0.1264648
567,20.625,-65.75,-111.375,1.516113,1.251953,0.1982422,-0.2255859,-0.2695313,-0.1210938
571,1.25,-72.9375,-71,1.566406,1.026855,0.140625,-0.222168,-0.2768555,-0.1166992
575,0,-65.25,-29.75,1.585938,0.8129883,0.09033203,-0.2197266,-0.2792969,-0.112793
579,7.3125,-39.5,2.8125,1.516113,0.6811523,0.05175781,-0.2197266,-0.2817383,-0.1113281
583,17.4375,-11.0625,17.75,1.302734,0.6616211,0.06347656,-0.222168,-0.2807617,-0.105957
587,21.25,2,23.1875,1.039551,0.7001953,0.1171875,-0.2236328,-0.2792969,-0.105957
591,18.0625,-2.5,28.1875,0.8769531,0.7666016,0.1904297,-0.2255859,-0.2783203,-0.105957
595,8.6875,-13.9375,28.125,0.8378906,0.7856445,0.2597656,-0.2255859,-0.2783203,-0.1020508
599,-4,-26.375,31.75,0.9077148,0.793457,0.2480469,-0.2280273,-0.2768555,-0.1020508
603,-9.9375,-36.8125,44.6875,1.039551,0.7275391,0.2519531,-0.2329102,-0.2744141,-0.1005859
607,-11.75,-36.625,62.5625,1.252441,0.7509766,0.2172852,-0.2363281,-0.2695313,-0.09765625
611,-11.8125,-20.8125,86.6875,1.411621,0.7705078,0.2060547,-0.2412109,-0.265625,-0.09667969
615,-13.0625,-4.875,108.625,1.403809,0.8208008,0.2021484,-0.2460938,-0.2583008,-0.09521484
619,-20.75,-1.9375,123.8125,1.337891,0.9140625,0.2133789,-0.2543945,-0.2504883,-0.09667969
623,-31.4375,-11.5625,144.1875,1.302734,0.9492188,0.1826172,-0.2602539,-0.2392578,-0.09765625
627,-39.5625,-27,175.25,1.357422,1.003418,0.1557617,-0.2685547,-0.2270508,-0.09765625
631,-40.875,-33.3125,204.4375,1.473633,0.9682617,0.125,-0.2768555,-0.2094727,-0.09667969
636,-40.0625,-24.8125,221.6875,1.550781,0.9799805,0.07128906,-0.2841797,-0.1958008,-0.09667969
640,-41.1875,-16,229.875,1.52002,0.9799805,-0.001464844,-0.2958984,-0.1743164,-0.09521484
644,-34.375,0.75,236.125,1.624512,0.8671875,-0.02441406,-0.3041992,-0.1533203,-0.09521484
648,-26.0625,26.1875,238.125,1.666992,0.8984375,-0.06689453,-0.309082,-0.1367188,-0.09765625
652,-19.1875,41.3125,246.4375,1.644043,0.9101563,-0.0859375,-0.3149414,-0.1118164,-0.1005859
656,-18.875,39.0625,261.75,1.678711,0.9995117,-0.1206055,-0.3173828,-0.08544922,-0.1035156
660,-19.625,32.875,286.5625,1.706055,1.003418,-0.128418,-0.3188477,-0.06835938,-0.1088867
664,-16.8125,20.8125,312.0625,1.674805,0.8481445,-0.1513672,-0.3198242,-0.03808594,-0.1088867
668,-5.6875,28.25,324.375,1.740723,0.7548828,-0.1323242,-0.3208008,-0.008300781,-0.1113281
672,2.4375,64.625,319,1.756348,0.6499023,-0.1362305,-0.3164063,0.01367188,-0.1157227
676,9.8125,95.625,308.125,1.535645,0.6147461,-0.1435547,-0.3081055,0.04492188,-0.1210938
680,10.25,100.875,309.25,1.376465,0.6811523,-0.1015625,-0.2983398,0.07373047,-0.1318359
684,2.875,87.25,323.25,1.22168,0.6420898,-0.08984375,-0.2875977,0.08984375,-0.1386719
688,1.5,75.4375,335.375,1.13623,0.4946289,-0.1245117,-0.2709961,0.1201172,-0.1455078
692,7.75,75.5625,330.5625,1.124512,0.4399414,-0.09765625,-0.2519531,0.1450195,-0.1523438
696,8.3125,90.5625,314.875,1.05127,0.4086914,-0.1166992,-0.237793,0.1586914,-0.1577148
700,14.5625,100.6875,306.9375,0.9038086,0.2573242,-0.1591797,-0.2163086,0.1835938,-0.1660156
704,26.5625,110.5625,302.8125,0.7099609,0.253418,-0.1669922,-0.1914063,0.1987305,-0.1738281
708,30.0625,116.9375,292.625,0.578125,0.2148438,-0.1899414,-0.1748047,0.2075195,-0.1796875
712,38.75,127.25,285,0.3652344,0.1523438,-0.1708984,-0.1459961,0.2211914,-0.1875
716,38.1875,127.25,265.0625,0.1054688,0.21875,-0.1513672,-0.1186523,0.2285156,-0.1972656
720,31.125,120.25,245.5,0.02441406,0.1293945,-0.109375,-0.09960938,0.2338867,-0.2026367
724,30.0625,108.1875,227.5625,-0.1186523,0.02441406,-0.005371094,-0.07226563,0.2387695,-0.2080078
728,22.4375,84.3125,211.125,-0.1767578,-0.02587891,0.04443359,-0.05078125,0.2387695,-0.2119141
732,15.5625,59.5,201.0625,-0.1499023,-0.1113281,0.1020508,-0.03662109,0.2397461,-0.2148438
736,15.6875,40.4375,201.25,-0.1186523,-0.2744141,0.1210938,-0.01611328,0.2387695,-0.2163086
740,20.1875,37.875,186.9375,-0.06054688,-0.1269531,0.1904297,0.002441406,0.2373047,-0.21875
744,22.3125,42.75,169.625,-0.1845703,-0.371582,0.1787109,0.01513672,0.2348633,-0.21875
748,22.5,46.375,141.3125,-0.3046875,-0.3950195,0.2060547,0.03076172,0.2338867,-0.2246094
752,21.9375,46.875,118.6875,-0.4130859,-0.4179688,0.2329102,0.04492188,0.2285156,-0.2246094
756,22.5,41.75,96.0625,-0.4711914,-0.421875,0.2788086,0.05078125,0.2260742,-0.2255859
760,20.375,37.625,74.625,-0.5488281,-0.4414063,0.3134766,0.06054688,0.2236328,-0.2270508
765,15.75,29.625,46.1875,-0.6147461,-0.4648438,0.3637695,0.06884766,0.2197266,-0.2270508
769,7.5625,16.1875,15.0625,-0.6611328,-0.4609375,0.3979492,0.07226563,0.21875,-0.2270508
773,-2.8125,-0.5625,-6.875,-0.6416016,-0.4804688,0.4018555,0.07373047,0.21875,-0.2270508
777,-5.25,-13.1875,-23.6875,-0.5795898,-0.5424805,0.4057617,0.07373047,0.21875,-0.2285156
781,-7.6875,-19.6875,-43.0625,-0.4985352,-0.5424805,0.4174805,0.06787109,0.2197266,-0.2270508
785,-10.625,-21.125,-66.9375,-0.3974609,-0.6044922,0.4135742,0.06640625,0.2211914,-0.2246094
789,-12.5,-23.375,-87.25,-0.3125,-0.6123047,0.4135742,0.05810547,0.2250977,-0.2255859
793,-15.375,-31.125,-97.1875,-0.2387695,-0.6552734,0.4018555,0.05078125,0.2260742,-0.2255859
797,-17.6875,-40,-100.125,-0.1264648,-0.6591797,0.3789063,0.04248047,0.2285156,-0.2246094
801,-17.0625,-43.25,-97.9375,-0.05273438,-0.7329102,0.3481445,0.03076172,0.2314453,-0.2246094
805,-10.125,-43.6875,-101.75,0.01269531,-0.7602539,0.3481445,0.0234375,0.2338867,-0.2231445
809,-6.75,-36.875,-112.3125,0.09375,-0.7094727,0.3330078,0.01171875,0.2363281,-0.2216797
813,-8.5625,-24.4375,-127.875,0.08642578,-0.6748047,0.340332,0.0009765625,0.2373047,-0.2231445
817,-10.9375,-25,-142.625,0.07080078,-0.6474609,0.3481445,-0.006835938,0.2363281,-0.2216797
821,-12.25,-29.25,-142.5,0.09765625,-0.6474609,0.3056641,-0.02001953,0.2373047,-0.2202148
825,-7.3125,-34.125,-140.1875,0.1328125,-0.6748047,0.2827148,-0.03417969,0.2373047,-0.2163086
829,0.0625,-28.125,-138.625,0.1791992,-0.6435547,0.2558594,-0.04394531,0.2363281,-0.21875
833,7.9375,-19,-147.125,0.1445313,-0.6240234,0.2441406,-0.05664063,0.2363281,-0.2163086
837,10.5625,-8.375,-170.375,0.175293,-0.5151367,0.2441406,-0.06982422,0.2324219,-0.2177734
841,9.3125,-2.3125,-198.3125,0.206543,-0.4882813,0.2480469,-0.07714844,0.2285156,-0.2163086
845,11.75,0.3125,-211.875,0.3227539,-0.4726563,0.2368164,-0.09716797,0.2226563,-0.2177734
849,16.375,-2.3125,-219.875,0.4619141,-0.4101563,0.2788086,-0.112793,0.2163086,-0.21875
853,19.5,-0.25,-216.6875,0.7021484,-0.3989258,0.2905273,-0.1220703,0.2114258,-0.2163086
857,25.5625,7.125,-210.625,0.8183594,-0.387207,0.3251953,-0.1391602,0.2001953,-0.21875
861,31.8125,23.5,-205.4375,0.8999023,-0.387207,0.3291016,-0.1518555,0.1899414,-0.2216797
865,36.125,48.3125,-211.3125,0.7333984,-0.3442383,0.3212891,-0.1591797,0.1801758,-0.2216797
869,33.25,32.5625,-230.0625,0.5473633,-0.1616211,0.425293,-0.1699219,0.1699219,-0.2285156
873,20.875,-16,-218.4375,0.6132813,-0.01806641,0.4907227,-0.1831055,0.1538086,-0.2299805
877,12.5,-59.5,-190.1875,0.9541016,-0.04150391,0.4672852,-0.1914063,0.1435547,-0.2270508
881,18.8125,-62.4375,-153.9375,1.202148,-0.1577148,0.4750977,-0.203125,0.1347656,-0.2246094
885,26.9375,-43.8125,-135.3125,1.279785,-0.1035156,0.4287109,-0.2138672,0.1235352,-0.2202148
889,32.0625,-8.25,-131.875,1.244629,-0.1381836,0.409668,-0.2197266,0.1152344,-0.2231445
894,32.5,11.9375,-149.5625,1.023926,-0.02587891,0.425293,-0.2255859,0.1035156,-0.2231445
898,26.3125,13.125,-147.5,0.8339844,-0.02197266,0.3945313,-0.2304688,0.09228516,-0.2255859
902,27,-19.75,-148.0625,0.6401367,0.02832031,0.4213867,-0.234375,0.08398438,-0.2255859
906,22.5,-55.1875,-132.125,0.8149414,0.1176758,0.3789063,-0.2402344,0.07373047,-0.2255859
910,25.875,-62.6875,-114.25,0.9853516,0.0009765625,0.3481445,-0.2470703,0.06103516,-0.21875
914,36.5625,-49,-108.8125,1.043457,0.02441406,0.3056641,-0.253418,0.05371094,-0.21875
918,37.9375,-21,-116.5,0.9970703,0.1293945,0.2827148,-0.2568359,0.04248047,-0.2148438
922,39.0625,1.75,-135.4375,0.7915039,0.08251953,0.2329102,-0.2626953,0.03125,-0.2163086
926,45.625,1.8125,-151.0625,0.59375,0.1523438,0.2021484,-0.2617188,0.02392578,-0.2148438
930,47.75,-28.25,-154.75,0.5551758,0.3466797,0.2480469,-0.2651367,0.007324219,-0.2163086
934,51.8125,-67.5,-133.625,0.7529297,0.4907227,0.2597656,-0.2685547,-0.008300781,-0.2133789
938,49.25,-89.875,-116.8125,0.9892578,0.4790039,0.2866211,-0.2724609,-0.015625,-0.2094727
942,47.375,-79.625,-109.75,1.171387,0.5214844,0.2441406,-0.2783203,-0.02929688,-0.2011719
946,42.9375,-55.8125,-115.375,1.163574,0.5292969,0.2329102,-0.2841797,-0.04052734,-0.1958008
950,41.5,-31.6875,-126.6875,1.039551,0.4750977,0.1713867,-0.2841797,-0.04931641,-0.1889648
954,45.9375,-23.8125,-133.5,0.8535156,0.4711914,0.140625,-0.2841797,-0.06201172,-0.1918945
958,48.125,-33.4375,-132.875,0.7060547,0.5683594,0.1367188,-0.2841797,-0.07568359,-0.1865234
962,47.8125,-66.9375,-127.25,0.7021484,0.6420898,0.1826172,-0.2841797,-0.08544922,-0.1850586
966,41.125,-90.375,-118.1875,0.9038086,0.7705078,0.2060547,-0.2866211,-0.09960938,-0.175293
970,32,-89.3125,-113.1875,1.089844,0.7392578,0.1787109,-0.2890625,-0.1108398,-0.168457
974,32.625,-66.0625,-113.875,1.155762,0.7001953,0.1787109,-0.2890625,-0.1206055,-0.1616211
978,29.5625,-43.6875,-118.6875,1.039551,0.7080078,0.1098633,-0.2900391,-0.1293945,-0.1547852
982,34.75,-36.0625,-120.1875,0.9155273,0.6577148,0.07910156,-0.2875977,-0.1430664,-0.1523438
986,40.8125,-35.1875,-117.9375,0.8959961,0.6538086,0.05957031,-0.2875977,-0.1508789,-0.1484375
990,51.0625,-29.125,-118.5,0.9580078,0.6811523,0.04052734,-0.2827148,-0.1645508,-0.144043
994,55.875,-17.5625,-120.5,1.008301,0.7431641,0.06738281,-0.2792969,-0.1743164,-0.1401367
998,57.3125,-7,-123.3125,1.059082,0.7895508,0.07519531,-0.2758789,-0.1845703,-0.137207
1002,58.3125,5.3125,-121,1.109375,0.8598633,0.1210938,-0.2709961,-0.1967773,-0.1357422
1006,54.5,11.625,-111.25,1.097656,0.8789063,0.140625,-0.2651367,-0.2080078,-0.1333008
1010,52.8125,6.5625,-93.5,1.047363,0.8828125,0.1557617,-0.2626953,-0.2143555,-0.1303711
1014,47.875,-5,-77.125,1.070313,0.8828125,0.2250977,-0.2553711,-0.2255859,-0.1303711
1018,37.0625,-12.0625,-67.375,1.117188,0.890625,0.2519531,-0.2553711,-0.2329102,-0.125
1023,20.9375,-16.125,-57.0625,1.163574,0.8632813,0.2944336,-0.2519531,-0.2368164,-0.125
1027,8.875,-23.8125,-36.9375,1.241211,0.7739258,0.3251953,-0.2485352,-0.2407227,-0.1196289
1031,2.0625,-29.1875,-8.4375,1.299316,0.7587891,0.3442383,-0.2485352,-0.2416992,-0.1196289
1035,-5.375,-29.4375,19.625,1.341797,0.7236328,0.3442383,-0.2485352,-0.2431641,-0.1181641
1039,-9.875,-28.125,42.625,1.337891,0.7080078,0.3520508,-0.2543945,-0.2416992,-0.1166992
1043,-18.625,-27.25,62.3125,1.322266,0.7509766,0.3330078,-0.2568359,-0.2392578,-0.1157227
1047,-30.75,-32.4375,77.9375,1.306641,0.7817383,0.3330078,-0.2602539,-0.2319336,-0.112793
1051,-43.125,-40,94.75,1.326172,0.7587891,0.3017578,-0.2651367,-0.2255859,-0.1142578
1055,-51.4375,-45.75,116,1.399902,0.7626953,0.2597656,-0.2700195,-0.2158203,-0.1098633
1059,-55.8125,-46.375,138.5,1.531738,0.7587891,0.2329102,-0.2768555,-0.2055664,-0.1098633
1063,-60.25,-39.3125,160.4375,1.601563,0.7817383,0.1748047,-0.2851563,-0.1918945,-0.1088867
1067,-60,-27.5625,181.0625,1.644043,0.7587891,0.125,-0.2924805,-0.1757813,-0.1088867
1071,-52.625,-8.9375,201.375,1.663574,0.7392578,0.07519531,-0.2983398,-0.1606445,-0.1088867
1075,-44,11.75,214.75,1.608887,0.7509766,0.04052734,-0.3056641,-0.140625,-0.105957
1079,-39.5,25.75,218.4375,1.531738,0.7666016,0.02490234,-0.3115234,-0.1181641,-0.1142578
1083,-37.9375,33.1875,224.625,1.484863,0.7158203,0.01708984,-0.3115234,-0.1044922,-0.1166992
1087,-33.4375,40.0625,231.1875,1.48877,0.7080078,0.009765625,-0.3149414,-0.08056641,-0.1166992
1091,-33,54,234.25,1.477539,0.6538086,-0.001464844,-0.3164063,-0.05712891,-0.1235352
1095,-27.8125,70.25,232.75,1.484863,0.5952148,0.01708984,-0.3139648,-0.04052734,-0.1279297
1099,-31.1875,81.6875,227.625,1.353516,0.6733398,0.009765625,-0.3115234,-0.01806641,-0.1347656
1103,-39.75,62.375,240.375,1.132324,0.5761719,0.03662109,-0.3081055,0.00390625,-0.1425781
1107,-38.125,37.125,255.875,1.132324,0.4438477,0.05566406,-0.3041992,0.02148438,-0.144043
1111,-36.375,44.3125,255.125,1.268066,0.4125977,0.02880859,-0.2983398,0.04638672,-0.1469727
1115,-29.875,64.4375,245.5,1.237305,0.3544922,0.03662109,-0.2890625,0.06982422,-0.1508789
1119,-29.5625,79.5,239.5,1.117188,0.3857422,0.001953125,-0.2827148,0.08642578,-0.1538086
1123,-31,77.125,231.9375,0.9580078,0.3701172,0.03271484,-0.2685547,0.1074219,-0.1606445
1127,-35,60.5625,238.375,0.9077148,0.3193359,0.01708984,-0.2568359,0.125,-0.1660156
1131,-31.5625,45.4375,251.625,0.8457031,0.1953125,-0.02441406,-0.2460938,0.1401367,-0.1660156
1135,-23.375,40.6875,246.8125,0.9389648,0.1875,-0.005371094,-0.2304688,0.1601563,-0.1699219
1139,-17.125,60.5,237.75,1.047363,0.105957,-0.01660156,-0.215332,0.1772461,-0.1713867
1143,-3.75,88.375,226.5625,0.9272461,0.04736328,-0.03222656,-0.2021484,0.1884766,-0.1738281
1147,-0.1875,102.4375,215.5625,0.659668,0.1176758,-0.02050781,-0.1816406,0.2001953,-0.1782227
1152,-3.6875,85.5625,212.625,0.3613281,0.05908203,0.03271484,-0.1625977,0.2124023,-0.1850586
1156,-6.8125,53.6875,214.25,0.2490234,-0.006347656,0.07910156,-0.1474609,0.21875,-0.1875
1160,-10.625,30.9375,208.8125,0.3808594,-0.06835938,0.105957,-0.1318359,0.2260742,-0.1889648
1164,-12.3125,31.1875,198.1875,0.4580078,-0.1928711,0.1020508,-0.112793,0.2338867,-0.1918945
1168,-7.4375,38.6875,183.6875,0.4970703,-0.2705078,0.144043,-0.1010742,0.2412109,-0.1904297
1172,-6.25,44.9375,170.9375,0.5317383,-0.3056641,0.1557617,-0.08544922,0.2451172,-0.1904297
1176,-6.3125,42.125,178.8125,0.4970703,-0.503418,0.1787109,-0.06884766,0.2485352,-0.1928711
1180,-3.5625,24.6875,189.1875,0.4467773,-0.4179688,0.2441406,-0.05664063,0.2509766,-0.1928711
1184,-13.375,2.4375,200.0625,0.3925781,-0.484375,0.2866211,-0.03759766,0.2524414,-0.1928711
1188,-14.5625,0.6875,200.625,0.609375,-0.6630859,0.2827148,-0.01855469,0.2563477,-0.1928711
1192,-3,34.4375,195.9375,0.559082,-0.7524414,0.1826172,-0.0078125,0.2563477,-0.1889648
1196,22.125,69.375,195.0625,0.2177734,-0.7680664,0.1713867,0.01074219,0.2563477,-0.1928711
1200,35.75,84.625,190.0625,-0.2119141,-0.550293,0.2060547,0.03173828,0.2524414,-0.1958008
1204,39.9375,76.25,184.3125,-0.4985352,-0.46875,0.2636719,0.04638672,0.2460938,-0.1958008
1208,32.0625,58.25,165.875,-0.7890625,-0.3442383,0.3251953,0.06542969,0.2412109,-0.1972656
1212,11.9375,31.8125,143.25,-0.9438477,-0.3364258,0.3212891,0.08056641,0.2363281,-0.2011719
1216,8.25,11.9375,129.375,-0.8549805,-0.5151367,0.2905273,0.08886719,0.2324219,-0.1987305
1220,20.8125,18.3125,105.75,-0.7695313,-0.5385742,0.2402344,0.09960938,0.2285156,-0.2011719
1224,23.625,40.625,59.0625,-0.8237305,-0.4648438,0.2250977,0.1079102,0.2250977,-0.2041016
1228,20.875,53.6875,0.625,-0.9907227,-0.4960938,0.1674805,0.1142578,0.2211914,-0.2026367
1232,19.8125,42.3125,-40.875,-1.048828,-0.4804688,0.2021484,0.1142578,0.2211914,-0.2041016
1236,6.375,10.3125,-65,-0.9907227,-0.4101563,0.2290039,0.112793,0.2211914,-0.2026367
1240,-11.8125,-26.8125,-86.8125,-0.765625,-0.4492188,0.2905273,0.109375,0.2250977,-0.2026367
1244,-28.25,-49.9375,-98.6875,-0.4404297,-0.4960938,0.2329102,0.09960938,0.2285156,-0.2011719
1248,-25.8125,-52.0625,-97.1875,-0.2231445,-0.6630859,0.1865234,0.08886719,0.2324219,-0.2011719
1252,-10.25,-34.0625,-105.0625,-0.1459961,-0.7016602,0.1557617,0.08056641,0.2363281,-0.2026367
1256,3.1875,-13,-125.875,-0.2734375,-0.6630859,0.159668,0.07128906,0.2412109,-0.2011719
1260,2,-19.8125,-160.3125,-0.2773438,-0.5385742,0.2944336,0.05566406,0.2426758,-0.2026367
1264,-14.875,-41.5,-172.0625,-0.1030273,-0.4726563,0.3056641,0.04736328,0.2436523,-0.2011719
1268,-24.875,-58.3125,-160.3125,0.1171875,-0.5776367,0.2558594,0.02978516,0.2485352,-0.199707
1272,-14.375,-54.125,-146.375,0.2490234,-0.7133789,0.2133789,0.01269531,0.2524414,-0.1972656
1276,4.375,-30.625,-152.125,0.1987305,-0.6938477,0.1826172,0.003417969,0.2524414,-0.1987305
1281,14.25,-5.3125,-179.9375,0.08642578,-0.5854492,0.2094727,-0.01171875,0.2509766,-0.1987305
1285,13.6875,-3.6875,-212.9375,-0.09130859,-0.484375,0.2250977,-0.02929688,0.2509766,-0.199707
1289,9.25,-24.375,-223.3125,0.09375,-0.421875,0.2172852,-0.04003906,0.2485352,-0.1987305
1293,10.75,-41.25,-208.5,0.2993164,-0.4375,0.2133789,-0.06298828,0.2451172,-0.1987305
1297,21.75,-43.25,-193.25,0.4389648,-0.4921875,0.1982422,-0.08056641,0.2412109,-0.1987305
1301,31.3125,-52.8125,-184.5,0.2685547,-0.402832,0.2094727,-0.09228516,0.2373047,-0.1987305
1305,28.25,-76,-188.5625,0.2758789,-0.2509766,0.2480469,-0.1113281,0.2285156,-0.1987305
1309,11.3125,-69.6875,-208.6875,0.6518555,-0.1889648,0.2133789,-0.1318359,0.2197266,-0.1972656
1313,12.625,-45.0625,-221.6875,0.8535156,-0.340332,0.2709961,-0.1435547,0.2163086,-0.1943359
1317,20.8125,-43.6875,-213.4375,0.8769531,-0.2705078,0.2519531,-0.1616211,0.2050781,-0.1943359
1321,23.6875,-50.6875,-191.375,0.9155273,-0.2392578,0.3251953,-0.1791992,0.1923828,-0.1943359
1325,22.625,-61.25,-175.1875,0.9038086,-0.1381836,0.375,-0.1875,0.1850586,-0.1904297
1329,15.6875,-42.375,-178.5,1.121094,-0.1152344,0.3520508,-0.2021484,0.1723633,-0.1875
1333,17.6875,-13.9375,-191.75,1.043457,-0.1347656,0.2905273,-0.2138672,0.1601563,-0.1889648
1337,15.5625,-5.8125,-205.3125,0.8417969,-0.02197266,0.2519531,-0.222168,0.1513672,-0.1865234
1341,8.25,-46.625,-196.3125,0.675293,0.05126953,0.2172852,-0.2363281,0.1362305,-0.1865234
1345,0.625,-103,-166.3125,1.074219,0.1523438,0.1904297,-0.2460938,0.1225586,-0.1821289
1349,1.875,-100.75,-149.125,1.640137,0.04736328,0.1635742,-0.2553711,0.1152344,-0.1738281
1353,11.375,-36.25,-157.875,1.856934,0.008789063,0.1479492,-0.2636719,0.1035156,-0.1699219
1357,25.5625,28.625,-175.6875,1.477539,-0.02587891,0.1171875,-0.2709961,0.08984375,-0.1699219
1361,39,28.875,-173.125,0.9116211,0.03222656,0.140625,-0.2734375,0.07861328,-0.1713867
1365,35.6875,-34.4375,-149.75,0.5551758,0.2612305,0.140625,-0.2783203,0.06103516,-0.1738281
1369,25,-95.4375,-126.1875,0.8417969,0.2651367,0.140625,-0.2841797,0.04882813,-0.1660156
1373,26.5,-103.625,-115.5625,1.237305,0.2416992,0.1328125,-0.2900391,0.04150391,-0.1645508
1377,27.375,-54.25,-130.5,1.558594,0.3271484,0.1479492,-0.2983398,0.03027344,-0.15625
1381,30.5,13.5,-159.9375,1.461914,0.2299805,0.1020508,-0.2998047,0.01513672,-0.1538086
1385,50.5,52.5625,-168.375,1.128418,0.1875,0.05175781,-0.3007813,0.004882813,-0.1577148
1389,61.0625,41,-166.125,0.6328125,0.3388672,-0.001464844,-0.2998047,-0.01464844,-0.1630859
1393,60.4375,2.0625,-165.5,0.5200195,0.4750977,0.02490234,-0.2983398,-0.03173828,-0.1645508
1397,55.125,-26.8125,-166.625,0.6635742,0.6030273,0.07910156,-0.2998047,-0.04296875,-0.1630859
1401,51.6875,-30.4375,-179.6875,0.7915039,0.6616211,0.09814453,-0.2973633,-0.06201172,-0.1616211
1405,50.8125,-24.3125,-181.625,0.8300781,0.7001953,0.105957,-0.2998047,-0.08056641,-0.1547852
1410,57.5,-23.625,-179.5625,0.7954102,0.7314453,0.08642578,-0.2983398,-0.09423828,-0.15625
1414,57.5,-30.9375,-186,0.7373047,0.8828125,0.02490234,-0.2958984,-0.1118164,-0.1538086
1418,50,-45.6875,-194.125,0.8032227,0.9335938,0.04052734,-0.2915039,-0.1333008,-0.1469727
1422,43.5625,-53,-197.375,0.9619141,1.007324,0.05175781,-0.2875977,-0.1479492,-0.1416016
1426,36.6875,-58.5625,-188.0625,1.074219,1.007324,0.05957031,-0.2827148,-0.1655273,-0.1347656
1430,35.4375,-63.3125,-167.25,1.206055,0.972168,0.09033203,-0.2783203,-0.1821289,-0.1303711
1434,32.125,-62.25,-147.875,1.337891,0.9799805,0.1289063,-0.2758789,-0.1918945,-0.1264648
1438,21.625,-61.4375,-131.8125,1.372559,0.9492188,0.1674805,-0.2724609,-0.2055664,-0.1196289
1442,12.375,-60.375,-109.3125,1.484863,0.8325195,0.2329102,-0.2700195,-0.2182617,-0.112793
1446,7.6875,-52.25,-77.9375,1.589844,0.7353516,0.2480469,-0.2651367,-0.2231445,-0.1098633
1450,6.4375,-39.3125,-44.625,1.578125,0.6577148,0.2597656,-0.2636719,-0.2294922,-0.1044922
1454,8.25,-23.9375,-22.3125,1.543457,0.5952148,0.2827148,-0.2626953,-0.2304688,-0.1020508
1458,5.6875,-7.75,-13.3125,1.458008,0.6538086,0.3017578,-0.2626953,-0.2329102,-0.1005859
1462,0.5625,-0.375,0,1.368652,0.6381836,0.3442383,-0.2617188,-0.234375,-0.09765625
1466,-6.3125,-6.875,20.8125,1.314453,0.6733398,0.3330078,-0.2636719,-0.2319336,-0.1005859
1470,-13.875,-17.375,46.625,1.42334,0.6733398,0.3520508,-0.2636719,-0.2294922,-0.09912109
1474,-24.5625,-18.25,71.625,1.550781,0.7080078,0.340332,-0.2661133,-0.2270508,-0.09765625
1478,-31.5,-13.6875,100,1.620605,0.6577148,0.2636719,-0.2709961,-0.2207031,-0.09765625
1482,-32.0625,-5.4375,128.875,1.663574,0.6811523,0.1865234,-0.2744141,-0.2128906,-0.09912109
1486,-31.6875,4.625,154.8125,1.647949,0.7197266,0.1557617,-0.2827148,-0.1992188,-0.1005859
1490,-31.5625,9.4375,181.75,1.570313,0.8012695,0.1098633,-0.2900391,-0.1831055,-0.1005859
1494,-35.25,3.25,201.4375,1.531738,0.8325195,0.1020508,-0.2949219,-0.1704102,-0.1044922
1498,-41.8125,-3.125,218.8125,1.655762,0.9101563,0.05566406,-0.3017578,-0.1508789,-0.105957
1502,-42.5,-5.25,246.75,1.814453,0.8442383,0.05175781,-0.309082,-0.1279297,-0.105957
1506,-38.25,2.3125,277.25,1.853027,0.8984375,0.04785156,-0.3125,-0.1108398,-0.105957
1510,-34.75,10.875,301.8125,1.802734,0.7895508,0.04443359,-0.3173828,-0.08056641,-0.1088867
1514,-27.0625,21.25,313,1.768066,0.7666016,-0.01318359,-0.3188477,-0.04931641,-0.1088867
1518,-20.1875,43.1875,314,1.760254,0.7739258,-0.04736328,-0.3198242,-0.02685547,-0.1113281
1522,-8.4375,74.1875,310.1875,1.674805,0.6733398,-0.08203125,-0.3164063,0.004882813,-0.1142578
1526,-3,90.375,304.5625,1.42334,0.7548828,-0.09765625,-0.3066406,0.03369141,-0.1235352
1530,-9.375,81.0625,304.0625,1.256348,0.7548828,-0.05126953,-0.3017578,0.05126953,-0.1289063
1534,-23.5,63.6875,304.8125,1.244629,0.7197266,-0.05908203,-0.2915039,0.08007813,-0.1357422
1539,-26.5625,61.875,299.625,1.275879,0.5800781,-0.04736328,-0.2768555,0.1088867,-0.1416016
1543,-33.75,70.125,286.1875,1.248535,0.5722656,-0.08984375,-0.2661133,0.1225586,-0.144043
1547,-34.375,82.25,270.4375,1.186523,0.4477539,-0.07080078,-0.2485352,0.1459961,-0.1484375
1551,-36.1875,94.9375,252.5625,1.012207,0.3974609,-0.109375,-0.2329102,0.1674805,-0.1538086
1555,-36.6875,93.4375,243,0.8535156,0.3740234,-0.05908203,-0.222168,0.1811523,-0.15625
1559,-39.6875,58.9375,261.125,0.7412109,0.2729492,-0.06298828,-0.2006836,0.1987305,-0.1616211
1563,-27.875,42.625,282.9375,0.8339844,0.1523438,-0.04394531,-0.1806641,0.2148438,-0.1606445
1567,-19.0625,55.75,273.125,0.7875977,0.1757813,-0.05517578,-0.1640625,0.2250977,-0.1591797
1571,-11,67.0625,265.375,0.675293,0.07080078,-0.06689453,-0.1411133,0.2387695,-0.1630859
1575,-2.5,82.6875,250.625,0.5161133,0.07861328,-0.07470703,-0.1162109,0.25,-0.1660156
1579,-0.625,81.3125,243.3125,0.125,0.02441406,-0.03222656,-0.1010742,0.2548828,-0.1674805
1583,-3.1875,51.875,240.8125,-0.1108398,0.008789063,0.03271484,-0.07226563,0.2597656,-0.1713867
1587,-12.75,18.25,228.8125,-0.1533203,-0.09960938,0.05957031,-0.05078125,0.2651367,-0.1699219
1591,-7.625,3.625,221.6875,0.004882813,-0.2587891,0.08642578,-0.03759766,0.2661133,-0.1713867
1595,-2.75,14.375,203.75,-0.006347656,-0.3754883,0.1098633,-0.01757813,0.2685547,-0.1728516
1599,4.25,30.375,186.375,-0.03710938,-0.4067383,0.09814453,0.002441406,0.2661133,-0.1728516
1603,15.75,39.5,170.75,-0.1767578,-0.5,0.125,0.01416016,0.2661133,-0.1713867
1607,24.4375,55.3125,141.6875,-0.2661133,-0.4765625,0.159668,0.02978516,0.2612305,-0.1738281
1611,25.125,78.25,100.1875,-0.4521484,-0.5151367,0.1826172,0.04638672,0.2612305,-0.1782227
1615,24.3125,70.9375,80.0625,-0.7504883,-0.4726563,0.2709961,0.05224609,0.2587891,-0.1767578
1619,17.125,49.9375,65.625,-0.9399414,-0.4414063,0.3979492,0.06298828,0.2548828,-0.1782227
1623,5.8125,29.125,44.0625,-0.8588867,-0.5112305,0.3945313,0.06884766,0.2524414,-0.1767578
1627,3.25,25,25,-0.796875,-0.565918,0.3710938,0.07373047,0.2539063,-0.1782227
1631,-3.1875,23.375,-6.875,-0.8198242,-0.5581055,0.2944336,0.07617188,0.2539063,-0.1782227
1635,-9.75,15,-39.5,-0.8549805,-0.6240234,0.1904297,0.07470703,0.2548828,-0.1767578
1639,-14.875,1.6875,-72.75,-0.7734375,-0.6240234,0.1557617,0.07128906,0.2563477,-0.1767578
1643,-18.8125,-14,-95.375,-0.6069336,-0.6748047,0.1328125,0.06396484,0.2587891,-0.1738281
1647,-16,-24.875,-101.4375,-0.3901367,-0.6899414,0.09814453,0.05566406,0.2597656,-0.1738281
1651,-7.25,-25.8125,-101.75,-0.2543945,-0.7641602,0.08251953,0.04980469,0.2612305,-0.1728516
1655,3.0625,-10.0625,-121.1875,-0.1845703,-0.7250977,0.06738281,0.03808594,0.2636719,-0.1713867
1659,11.25,3.875,-144.5,-0.2348633,-0.6787109,0.07128906,0.02587891,0.2651367,-0.1728516
1663,14.9375,5.75,-166.125,-0.3164063,-0.6044922,0.1132813,0.01660156,0.2661133,-0.1738281
1668,14.3125,-6.625,-180.8125,-0.2583008,-0.534668,0.1328125,0,0.2636719,-0.1713867
1672,18.125,-22.125,-180.3125,-0.1147461,-0.5307617,0.1328125,-0.01513672,0.2661133,-0.1738281
1676,25.1875,-34.875,-175.8125,0.03173828,-0.4960938,0.1557617,-0.02832031,0.2661133,-0.1738281
1680,25.25,-39.625,-186.8125,0.1948242,-0.4257813,0.1635742,-0.04492188,0.2612305,-0.175293
1684,26.4375,-34.8125,-194,0.2993164,-0.4257813,0.1518555,-0.06298828,0.2587891,-0.1796875
1688,30.75,-23.25,-208.9375,0.3188477,-0.4140625,0.1171875,-0.07714844,0.2548828,-0.1782227
1692,42.3125,-12.1875,-212.875,0.2993164,-0.4492188,0.07519531,-0.09472656,0.2475586,-0.1806641
1696,53.5625,-20,-218.125,0.2797852,-0.2978516,0.1557617,-0.1152344,0.2397461,-0.1835938
1700,49.9375,-45.1875,-218.875,0.5161133,-0.1035156,0.2290039,-0.1259766,0.2324219,-0.1850586
1704,39.125,-49.6875,-220.375,0.7836914,-0.08398438,0.2636719,-0.1484375,0.2197266,-0.1865234
1708,37.0625,-40.8125,-223.625,0.8574219,-0.1152344,0.2788086,-0.1650391,0.2084961,-0.1865234
1712,43.75,-31.5625,-209.75,0.9462891,-0.1733398,0.2402344,-0.1772461,0.1972656,-0.1865234
1716,57.3125,-20.875,-195,0.9658203,-0.1113281,0.2675781,-0.1923828,0.1850586,-0.1875
1720,52,-20.8125,-210.3125,0.9462891,0.1523438,0.3330078,-0.2055664,0.1713867,-0.1889648
1724,30.375,-32.0625,-218.4375,0.9233398,0.1098633,0.2597656,-0.215332,0.1586914,-0.1918945
1728,34.3125,-46.125,-211.5,0.9038086,0.01269531,0.2290039,-0.2280273,0.1450195,-0.1875
1732,37.375,-46.8125,-205.25,0.9462891,0.02441406,0.1479492,-0.2402344,0.1264648,-0.1865234
1736,55.5625,-43,-196.5625,0.9155273,0.03222656,0.1904297,-0.2470703,0.1123047,-0.1850586
1740,56.6875,-43.8125,-203.3125,1.047363,0.4516602,0.2675781,-0.2592773,0.09619141,-0.1850586
1744,29.6875,-59.25,-228,1.117188,0.5410156,0.2749023,-0.2675781,0.07519531,-0.1835938
1748,15.5625,-85.5625,-206.1875,1.229492,0.4399414,0.2905273,-0.2744141,0.0625,-0.1782227
1752,14.75,-94.75,-182.625,1.43457,0.3583984,0.2094727,-0.2866211,0.04492188,-0.1713867
1756,23.625,-63.75,-169.8125,1.516113,0.2416992,0.1132813,-0.2915039,0.03125,-0.1645508
1760,39.875,-13.8125,-185.25,1.368652,0.2651367,0.06738281,-0.2958984,0.01855469,-0.1616211
1764,44.25,12.0625,-214,1.105469,0.4125977,0.01708984,-0.2983398,0,-0.1630859
1768,46.375,-7.875,-219.625,0.9194336,0.5644531,0.03662109,-0.2983398,-0.02441406,-0.1630859
1772,40.625,-55.1875,-203.875,0.9272461,0.7392578,0.09033203,-0.2998047,-0.03564453,-0.1630859
1776,32.875,-81.375,-191.25,1.163574,0.7973633,0.1904297,-0.3032227,-0.05810547,-0.1547852
1780,21.1875,-80.125,-174,1.248535,0.8481445,0.2290039,-0.3066406,-0.07714844,-0.1469727
1784,11.75,-69.25,-168.75,1.109375,0.7666016,0.1982422,-0.3032227,-0.08691406,-0.1425781
1788,4.1875,-68.5,-176.9375,0.9389648,0.7236328,0.105957,-0.3041992,-0.1030273,-0.1347656
1792,0,-75.625,-180.625,0.8803711,0.6655273,0.005859375,-0.3032227,-0.1220703,-0.1289063
1797,5.8125,-70,-179.0625,1.016113,0.6186523,-0.005371094,-0.3032227,-0.1318359,-0.1264648
1801,18.5625,-44.3125,-177.4375,1.124512,0.6342773,0.04052734,-0.2983398,-0.1479492,-0.1181641
1805,28.25,-8.125,-176.625,1.159668,0.7353516,0.09033203,-0.2924805,-0.1655273,-0.1157227
1809,34.0625,17.1875,-176.9375,1.0625,0.8442383,0.125,-0.2875977,-0.1782227,-0.112793
1813,34.6875,29.375,-179.75,1.016113,0.9296875,0.1518555,-0.2817383,-0.1958008,-0.1157227
1817,30.875,31.125,-176.3125,0.9892578,0.9760742,0.125,-0.2700195,-0.2119141,-0.112793
1821,28.9375,22.6875,-162.0625,1.035645,0.972168,0.1289063,-0.2636719,-0.2216797,-0.1166992
1825,29.75,15.125,-142.125,1.113281,0.9414063,0.1289063,-0.2543945,-0.2358398,-0.1181641
1829,31.875,15.5625,-119.875,1.237305,0.9492188,0.1557617,-0.2460938,-0.2470703,-0.1157227
1833,26.25,20.75,-89.125,1.244629,0.921875,0.1557617,-0.2412109,-0.2558594,-0.112793
1837,28.5,20.9375,-65.375,1.179199,0.8364258,0.2094727,-0.2363281,-0.2607422,-0.1157227
1841,22.25,16.9375,-43.125,1.105469,0.90625,0.2250977,-0.2329102,-0.265625,-0.1142578
1845,16.6875,16.625,-24.25,1.089844,0.8481445,0.2944336,-0.2280273,-0.2680664,-0.1157227
1849,11.1875,18.8125,-4.875,1.05127,0.8442383,0.2983398,-0.2280273,-0.2705078,-0.1142578
1853,10,21.1875,6.4375,0.9970703,0.8129883,0.3017578,-0.2280273,-0.2695313,-0.1142578
1857,3.1875,15.3125,17.6875,0.9814453,0.8325195,0.2827148,-0.2270508,-0.2695313,-0.1157227
1861,-1.25,0,37.5625,1.027832,0.840332,0.3056641,-0.2270508,-0.2670898,-0.1181641
1865,-10.5625,-18.9375,60.875,1.163574,0.921875,0.2944336,-0.2319336,-0.2641602,-0.1142578
1869,-19.4375,-33.375,91,1.275879,0.956543,0.2597656,-0.2353516,-0.2607422,-0.112793
1873,-27.3125,-47.125,122.5625,1.39209,0.9916992,0.2402344,-0.2412109,-0.2529297,-0.1142578
1877,-29.125,-56.75,165,1.523926,1.030762,0.1826172,-0.253418,-0.2392578,-0.1113281
1881,-27.5,-53.625,200.75,1.663574,1.061523,0.125,-0.2602539,-0.2304688,-0.1088867
1885,-22.375,-37.4375,228.6875,1.713867,1.146973,0.1098633,-0.2724609,-0.2119141,-0.1074219
1889,-23.5625,-17.0625,245.25,1.674805,1.225098,0.09033203,-0.2827148,-0.1904297,-0.105957
1893,-16.3125,-8.3125,268.75,1.612793,1.135742,0.07519531,-0.2915039,-0.1743164,-0.105957
1897,-6.8125,6.625,290.625,1.72168,1.197754,0.05175781,-0.3032227,-0.1494141,-0.105957
1901,-2.875,39.25,304.4375,1.73291,1.213379,0.05566406,-0.3105469,-0.1196289,-0.1074219
1905,-7.5,63.5625,307.875,1.469727,1.178223,0.02099609,-0.3149414,-0.09960938,-0.1113281
1909,-11.0625,66.6875,301.9375,1.252441,1.038574,0.02880859,-0.3173828,-0.07080078,-0.1181641
1913,-17,59.3125,295.75,1.144043,0.9335938,0.01708984,-0.3164063,-0.04052734,-0.1225586
1917,-19.75,58.0625,299.125,1.19043,0.7705078,0.005859375,-0.3164063,-0.02050781,-0.1279297
1921,-18.625,59.3125,301.25,1.117188,0.6655273,-0.005371094,-0.3115234,0.008789063,-0.1318359
1926,-14.3125,65.75,300.25,1.179199,0.6577148,0.01367188,-0.3041992,0.04003906,-0.1386719
1930,-20.125,94.4375,282.125,1.268066,0.6459961,-0.04003906,-0.2973633,0.05517578,-0.1425781
1934,-17.375,114.75,281.5,1.055176,0.4868164,-0.05517578,-0.2841797,0.08007813,-0.1523438
1938,-13.5625,103.8125,280.6875,0.8613281,0.5136719,-0.04736328,-0.2700195,0.1064453,-0.1616211
1942,-21.375,83.3125,284.125,0.7451172,0.4946289,-0.02050781,-0.2602539,0.1210938,-0.1660156
1946,-23.25,63.3125,279.9375,0.7177734,0.3466797,0.01708984,-0.2426758,0.1435547,-0.1699219
1950,-24.9375,54.0625,275,0.8652344,0.2963867,-0.02441406,-0.2246094,0.1660156,-0.175293
1954,-18.625,63.375,272.125,0.8261719,0.1601563,-0.01660156,-0.2128906,0.1772461,-0.1767578
1958,-12,73.25,256.25,0.8222656,0.140625,-0.009277344,-0.1899414,0.1938477,-0.1796875
1962,-10.875,76.125,253,0.6982422,0.1640625,0.01367188,-0.168457,0.2099609,-0.1835938
1966,-14.375,58,263.5,0.5512695,0.09814453,0.04785156,-0.1533203,0.2197266,-0.1865234
1970,-16.0625,29.5625,267.875,0.578125,0.02832031,0.1132813,-0.1318359,0.2299805,-0.1875
1974,-15.5625,13.8125,282.125,0.6171875,-0.1035156,0.08251953,-0.1079102,0.2397461,-0.1865234
1978,-1.125,19.375,293.9375,0.5668945,-0.2163086,0.105957,-0.09228516,0.2475586,-0.1875
1982,5.8125,37.875,280.25,0.4580078,-0.1889648,0.07910156,-0.06738281,0.2539063,-0.1889648
1986,13.5625,63.6875,268.4375,0.2646484,-0.2587891,0.05957031,-0.0390625,0.2539063,-0.1904297
1990,23.25,75.3125,258.8125,-0.05273438,-0.2084961,0.06738281,-0.02246094,0.2563477,-0.1918945
1994,36.8125,71.75,259,-0.3242188,-0.3754883,0.05566406,0.004394531,0.2524414,-0.1943359
1998,55.625,59.8125,255.3125,-0.6030273,-0.3134766,0.07128906,0.03173828,0.2485352,-0.1987305
2002,59.4375,60.6875,226.75,-0.8125,-0.2163086,0.1713867,0.04736328,0.2436523,-0.2026367
2006,52.125,72.375,166.6875,-1.029297,-0.1811523,0.2675781,0.06884766,0.2363281,-0.206543
2010,41.375,72.5625,99.625,-1.296875,-0.2163086,0.2944336,0.08300781,0.2275391,-0.2080078
2014,27.3125,47.4375,49.4375,-1.486328,-0.1850586,0.3251953,0.09130859,0.2260742,-0.2109375
2018,9.125,8.625,11,-1.424316,-0.2275391,0.340332,0.09619141,0.2226563,-0.2109375
2022,-7.875,-17.9375,-34.6875,-1.195801,-0.3017578,0.3056641,0.09619141,0.2236328,-0.2119141
2026,-23.75,-37.625,-81.4375,-0.9672852,-0.3950195,0.2636719,0.09277344,0.2250977,-0.2119141
2030,-32.6875,-52.3125,-114.75,-0.6689453,-0.4570313,0.2329102,0.08300781,0.2299805,-0.206543
2034,-34.1875,-55.8125,-130.6875,-0.3549805,-0.550293,0.1865234,0.06982422,0.2363281,-0.2080078
2038,-26.1875,-41.75,-144.375,-0.1962891,-0.6396484,0.144043,0.05957031,0.2387695,-0.206543
2042,-10.4375,-17.875,-165.125,-0.1459961,-0.6396484,0.1367188,0.04980469,0.2426758,-0.2055664
2046,-2,-1.5,-191.9375,-0.2851563,-0.550293,0.1518555,0.02978516,0.2460938,-0.2026367
2050,-0.875,-11.875,-216.1875,-0.378418,-0.453125,0.1943359,0.01757813,0.2475586,-0.2026367
2055,-8.4375,-43.3125,-226.8125,-0.2734375,-0.3598633,0.1982422,-0.001953125,0.2509766,-0.2041016
2059,-12.9375,-73.5,-210.25,-0.03320313,-0.3793945,0.1943359,-0.0234375,0.25,-0.2011719
2063,-11.375,-86.4375,-201.4375,0.1948242,-0.4140625,0.1748047,-0.03515625,0.2485352,-0.199707
2067,-5.6875,-68.75,-214.6875,0.5629883,-0.3911133,0.1982422,-0.06054688,0.2460938,-0.1972656
2071,1.0625,-18.0625,-237.375,0.7680664,-0.4067383,0.1826172,-0.08056641,0.2436523,-0.1958008
2075,15.625,24.5625,-247.125,0.659668,-0.4570313,0.1557617,-0.09619141,0.2387695,-0.1958008
2079,37.0625,31.75,-233.0625,0.4311523,-0.4414063,0.1098633,-0.112793,0.2299805,-0.1958008
2083,57,9.5625,-209.1875,0.2177734,-0.3833008,0.09033203,-0.1269531,0.2211914,-0.199707
2087,73.6875,-23.6875,-191.375,0.2104492,-0.2705078,0.08642578,-0.1401367,0.2124023,-0.2041016
2091,73.5625,-15.8125,-216.375,0.4506836,0.08251953,0.2480469,-0.1542969,0.1972656,-0.2080078
2095,47.5625,-3.375,-280.625,0.6054688,0.1137695,0.2636719,-0.1708984,0.1826172,-0.2119141
2099,56.1875,-8.8125,-266.125,0.7797852,0.06689453,0.3212891,-0.1831055,0.1713867,-0.2119141
2103,64.25,-29.3125,-229.9375,0.8378906,0.1796875,0.3291016,-0.1982422,0.1523438,-0.2133789
2107,66.125,-65.9375,-192,0.6674805,0.269043,0.3056641,-0.2128906,0.1323242,-0.2133789
2111,39.3125,-111.3125,-211.375,0.6948242,0.6186523,0.375,-0.2211914,0.1225586,-0.2119141
2115,-6.5625,-150.375,-235.3125,1.248535,0.6186523,0.2866211,-0.237793,0.1074219,-0.2055664
2119,-8.8125,-132.5625,-214.3125,1.907715,0.2651367,0.2211914,-0.2543945,0.08984375,-0.1943359
2123,18.5,-71.6875,-179.9375,2.058594,0.05908203,0.1557617,-0.2617188,0.08007813,-0.1865234
2127,52.375,-23.125,-155.75,1.59375,-0.02197266,0.02490234,-0.2724609,0.0625,-0.1835938
2131,82.3125,-17.3125,-139.8125,1.128418,0.1445313,0.1132813,-0.2768555,0.04882813,-0.1835938
2135,70,-31.6875,-162.5625,0.8999023,0.5175781,0.159668,-0.2817383,0.03515625,-0.1821289
2139,44.875,-56.25,-181.3125,1.02002,0.4516602,0.2133789,-0.2851563,0.02001953,-0.1796875
2143,43.375,-73.0625,-166.3125,1.186523,0.4790039,0.2402344,-0.2900391,0.001464844,-0.175293
2147,41.9375,-70.0625,-152.8125,1.376465,0.5371094,0.2290039,-0.2924805,-0.009277344,-0.1728516
2151,39.25,-42.8125,-158.5625,1.446289,0.5839844,0.2368164,-0.2973633,-0.02441406,-0.1660156
2155,33.5,-20.5625,-176.5625,1.271973,0.5214844,0.1635742,-0.2998047,-0.04199219,-0.1630859
2159,34.75,-19.8125,-178.75,1.09375,0.5566406,0.1171875,-0.2998047,-0.0546875,-0.1616211
2163,32.0625,-37.6875,-173.125,0.9423828,0.6030273,0.125,-0.2983398,-0.07177734,-0.1606445
2167,22.625,-61.0625,-174.4375,0.8691406,0.7158203,0.1171875,-0.2983398,-0.08837891,-0.15625
2171,11.9375,-77.5625,-177,0.8999023,0.7666016,0.144043,-0.2998047,-0.09814453,-0.1494141
2175,4.1875,-86.875,-180.6875,0.9389648,0.793457,0.1098633,-0.2973633,-0.1166992,-0.1416016
2179,-0.625,-87.125,-185.0625,1.004395,0.8208008,0.08642578,-0.2973633,-0.1318359,-0.1347656
2184,-4.6875,-86.75,-179.3125,1.047363,0.8208008,0.009765625,-0.2949219,-0.1445313,-0.1289063
2188,-0.3125,-80.875,-168.9375,1.132324,0.7392578,-0.009277344,-0.2924805,-0.1591797,-0.1210938
2192,7,-66.4375,-162.0625,1.268066,0.7470703,-0.03613281,-0.2890625,-0.1757813,-0.1142578
2196,16.875,-38.8125,-150.4375,1.399902,0.6884766,-0.01660156,-0.2851563,-0.1870117,-0.105957
2200,23.875,-5.3125,-141.75,1.384277,0.7895508,0.02490234,-0.2792969,-0.1992188,-0.1088867
2204,24.5,13.625,-128.8125,1.287598,0.7587891,0.08251953,-0.2744141,-0.2104492,-0.1044922
2208,25.625,16.1875,-106.6875,1.202148,0.7705078,0.125,-0.2685547,-0.2182617,-0.105957
2212,24.0625,7.25,-84.625,1.101563,0.7817383,0.1787109,-0.2626953,-0.2294922,-0.105957
2216,16.375,-6.8125,-65.9375,1.105469,0.855957,0.2368164,-0.2578125,-0.2358398,-0.105957
2220,3.6875,-12.8125,-44.4375,1.179199,0.7739258,0.2636719,-0.2578125,-0.2368164,-0.105957
2224,3.1875,-6.875,-30.6875,1.244629,0.6923828,0.2709961,-0.2543945,-0.2416992,-0.1020508
2228,-0.25,1.75,-18.1875,1.237305,0.7236328,0.2709961,-0.253418,-0.2431641,-0.1035156
2232,-6.375,0.8125,-0.375,1.186523,0.6962891,0.2749023,-0.253418,-0.2431641,-0.1035156
2236,-8.625,-9.125,21.75,1.229492,0.7314453,0.2558594,-0.253418,-0.2441406,-0.1035156
2240,-19,-23.0625,48.4375,1.287598,0.809082,0.2211914,-0.2568359,-0.2416992,-0.1035156
2244,-27.625,-29.4375,71.5,1.380371,0.7817383,0.1982422,-0.2578125,-0.2382813,-0.1005859
2248,-32.625,-34.25,98.1875,1.42334,0.7973633,0.159668,-0.2636719,-0.2319336,-0.1020508
2252,-35,-40.8125,129.4375,1.527832,0.777832,0.1367188,-0.2700195,-0.2207031,-0.1020508
2256,-34.4375,-42.3125,164.5,1.582031,0.8051758,0.125,-0.2758789,-0.2119141,-0.09912109
2260,-32.1875,-35.5625,189.625,1.655762,0.8364258,0.1132813,-0.2827148,-0.1958008,-0.09667969
2264,-29.5625,-13.125,204.25,1.655762,0.90625,0.09423828,-0.293457,-0.1782227,-0.09521484
2268,-29.6875,7.1875,212.5625,1.585938,0.9140625,0.09423828,-0.2983398,-0.1645508,-0.09667969
2272,-30.0625,12.5625,223.3125,1.477539,0.8945313,0.04052734,-0.3056641,-0.140625,-0.09912109
2276,-23.875,3.625,245.4375,1.454102,0.8168945,-0.005371094,-0.3125,-0.1196289,-0.1005859
2280,-17.25,-1.875,265.75,1.550781,0.8051758,-0.05126953,-0.3173828,-0.1020508,-0.1005859
2284,-9.5625,14.625,271.5625,1.678711,0.7856445,-0.05126953,-0.3198242,-0.07568359,-0.1005859
2288,-5.3125,49.5625,261.3125,1.686523,0.7392578,-0.0859375,-0.3222656,-0.04833984,-0.1044922
2292,3.25,78.125,256,1.535645,0.6962891,-0.1166992,-0.3208008,-0.03076172,-0.1088867
2296,1.9375,85.875,261.375,1.353516,0.7973633,-0.1362305,-0.3188477,-0.004394531,-0.1166992
2300,-2.625,76.375,271.0625,1.121094,0.6811523,-0.1474609,-0.3115234,0.02001953,-0.1264648
2304,-2.375,59.5625,266.9375,1.039551,0.6264648,-0.1435547,-0.3041992,0.03613281,-0.1289063
2308,-6.4375,48,262.1875,1.047363,0.5878906,-0.112793,-0.2983398,0.06103516,-0.1347656
2313,-8.625,29.5625,262.1875,0.9619141,0.4946289,-0.128418,-0.2875977,0.08642578,-0.1401367
2317,-6.5,11.25,263,1.027832,0.4672852,-0.08984375,-0.2817383,0.1025391,-0.137207
2321,-8,2.75,262.375,1.22168,0.4204102,-0.07470703,-0.2700195,0.1225586,-0.1416016
2325,1.125,17.9375,273.5625,1.318359,0.284668,-0.08984375,-0.2568359,0.1459961,-0.1386719
2329,12.25,39.5625,274.0625,1.179199,0.2768555,-0.02441406,-0.2460938,0.1586914,-0.1416016
2333,10.125,54.1875,261.875,1.008301,0.2807617,-0.03613281,-0.2319336,0.1787109,-0.1469727
2337,11.125,69.8125,253.5,0.8261719,0.1796875,0.01367188,-0.2089844,0.1962891,-0.1523438
2341,10.625,78.6875,241.5625,0.5200195,0.1176758,0.005859375,-0.1982422,0.2075195,-0.1547852
2345,11.4375,59.3125,237.6875,0.3071289,0.08251953,0.01708984,-0.1782227,0.21875,-0.1606445
2349,4.875,24.8125,236.8125,0.1791992,0.07470703,0.04785156,-0.1591797,0.2275391,-0.1630859
2353,2.6875,-3.625,239.25,0.2373047,-0.1035156,0.05566406,-0.1425781,0.2363281,-0.1660156
2357,6.875,-11.6875,227.375,0.2758789,-0.1694336,0.06347656,-0.1269531,0.2475586,-0.1660156
2361,11.9375,-8.25,211.1875,0.3457031,-0.2666016,0.04785156,-0.1054688,0.2524414,-0.168457
2365,23.1875,13.8125,201.8125,0.3808594,-0.3325195,0.07519531,-0.09472656,0.2563477,-0.168457
2369,30.75,36.625,185.5,0.2607422,-0.3208008,0.1674805,-0.078125,0.2597656,-0.1713867
2373,29.375,38.75,177,0.09375,-0.3134766,0.1826172,-0.05810547,0.2612305,-0.1767578
2377,29.25,30.375,177.0625,0.05126953,-0.421875,0.2211914,-0.04589844,0.2597656,-0.1767578
2381,35.75,40.9375,172.0625,0.03955078,-0.5151367,0.2211914,-0.02685547,0.2612305,-0.1806641
2385,37.5,45.625,153.3125,-0.2387695,-0.4960938,0.2060547,-0.01171875,0.2597656,-0.1865234
2389,34.625,30.1875,138.375,-0.3935547,-0.534668,0.2441406,-0.001953125,0.2573242,-0.1889648
2393,34.6875,14.5625,130.875,-0.3549805,-0.6005859,0.2983398,0.01074219,0.2573242,-0.1875
2397,39.625,20,116.9375,-0.2890625,-0.6083984,0.3251953,0.0234375,0.2539063,-0.1943359
2401,38.5,45.5625,83.5625,-0.328125,-0.5854492,0.390625,0.02978516,0.25,-0.1972656
2405,31.3125,61.125,40.4375,-0.5527344,-0.5541992,0.390625,0.04052734,0.2460938,-0.199707
2409,21.875,57.5625,2.1875,-0.6806641,-0.6201172,0.3979492,0.04394531,0.2451172,-0.2011719
2413,14.625,46.625,-20.125,-0.7504883,-0.6123047,0.3481445,0.04736328,0.2451172,-0.199707
2417,7.125,27.875,-36.125,-0.8164063,-0.5854492,0.3520508,0.04736328,0.2460938,-0.2026367
2421,-1.125,4.125,-54.5,-0.730957,-0.6044922,0.3330078,0.04248047,0.2460938,-0.2011719
2425,-9.6875,-13.5,-78.8125,-0.5488281,-0.6240234,0.3291016,0.04052734,0.2451172,-0.2011719
2429,-16.4375,-24.75,-99.1875,-0.3242188,-0.6474609,0.3364258,0.03320313,0.2485352,-0.199707
2433,-21.1875,-26.625,-108.8125,-0.1728516,-0.6552734,0.2749023,0.02246094,0.25,-0.1987305
2437,-17,-14.5625,-114.8125,-0.1147461,-0.7055664,0.2172852,0.01513672,0.2524414,-0.1987305
2442,-6.8125,-0.75,-128.5625,-0.1420898,-0.7055664,0.2290039,0.003417969,0.2539063,-0.1972656
2446,-4.5,3.4375,-147.5625,-0.1459961,-0.5927734,0.2250977,-0.006835938,0.2548828,-0.1928711
2450,-8.3125,-2.1875,-163.125,-0.1186523,-0.5698242,0.2402344,-0.01611328,0.2539063,-0.1943359
2454,-14.5625,-20.5625,-176.25,-0.09130859,-0.503418,0.2441406,-0.03173828,0.2539063,-0.1943359
2458,-17.1875,-42.375,-172.875,0.1132813,-0.5151367,0.2250977,-0.04736328,0.2539063,-0.1918945
2462,-14,-44.5,-166.5625,0.3071289,-0.5854492,0.1787109,-0.06054688,0.2524414,-0.1889648
2466,-0.25,-23.3125,-170.3125,0.4116211,-0.581543,0.1826172,-0.07714844,0.25,-0.1889648
2470,6.125,10.1875,-194.375,0.3959961,-0.453125,0.1943359,-0.09130859,0.2460938,-0.1865234
2474,4.6875,28.25,-225.3125,0.2724609,-0.3950195,0.1787109,-0.1030273,0.2412109,-0.1865234
2478,7.6875,17.9375,-232.375,0.1674805,-0.3481445,0.1787109,-0.1210938,0.2324219,-0.1875
2482,11.8125,-19.375,-224.5625,0.2294922,-0.2626953,0.1865234,-0.1411133,0.2236328,-0.1889648
2486,17.125,-47.75,-205.125,0.4931641,-0.1928711,0.1713867,-0.1494141,0.21875,-0.1875
2490,13.4375,-33.25,-216.1875,0.7138672,-0.08398438,0.1826172,-0.1665039,0.2060547,-0.1865234
2494,10.9375,-9.6875,-250,0.6401367,-0.1035156,0.1674805,-0.1855469,0.1938477,-0.1850586
2498,12.625,-6.5625,-274.4375,0.5356445,0.06689453,0.2094727,-0.1972656,0.1835938,-0.1850586
2502,-0.25,-46.1875,-288.875,0.578125,0.3623047,0.2094727,-0.215332,0.1660156,-0.1850586
2506,1.125,-84.0625,-242.5625,0.8881836,-0.01416016,0.2788086,-0.2329102,0.1474609,-0.1796875
2510,16.3125,-85.0625,-214.0625,1.105469,0.1835938,0.1635742,-0.2436523,0.1347656,-0.1767578
2514,16.625,-60.125,-217.125,1.213867,0.300293,0.1367188,-0.2568359,0.1186523,-0.1699219
2518,16.4375,-41.4375,-229.1875,1.151855,0.3271484,0.159668,-0.2685547,0.1000977,-0.1660156
2522,17.6875,-50.0625,-215.1875,1.19043,0.3466797,0.1289063,-0.2744141,0.08740234,-0.1645508
2526,27.875,-63.1875,-176.25,1.198242,0.2768555,0.07910156,-0.2851563,0.06640625,-0.1606445
2530,38.3125,-76.6875,-147.6875,1.144043,0.3081055,0.03271484,-0.2924805,0.05273438,-0.15625
2534,40.6875,-73.375,-145.9375,1.202148,0.4516602,0.06738281,-0.2983398,0.04248047,-0.1494141
2538,23.8125,-47.1875,-180.5,1.291504,0.5800781,0.07910156,-0.3017578,0.02734375,-0.1469727
2542,18.5625,-18.5,-200.375,1.206055,0.3544922,0.04443359,-0.3066406,0.008789063,-0.144043
2546,33.0625,-3.9375,-196.5625,1.163574,0.4321289,0.03662109,-0.309082,-0.003417969,-0.1416016
2550,41.375,-10.375,-172.0625,1.043457,0.4594727,0.01708984,-0.3105469,-0.0234375,-0.1416016
2554,58.5,-37.875,-141.5625,0.8999023,0.4790039,-0.009277344,-0.3105469,-0.04199219,-0.1416016
2558,60.6875,-55,-139.375,1.023926,0.7705078,0.02099609,-0.3115234,-0.05175781,-0.1357422
2562,33.9375,-35.6875,-176.5625,1.179199,0.8710938,0.01367188,-0.3115234,-0.06689453,-0.1333008
2566,33.875,-13.8125,-187.9375,1.163574,0.6147461,0.01708984,-0.309082,-0.08691406,-0.1264648
2571,50.1875,-2,-171.3125,1.097656,0.6499023,-0.03222656,-0.309082,-0.09960938,-0.1264648
2575,67.8125,3.875,-155.1875,1.000488,0.6499023,-0.05908203,-0.3041992,-0.1142578,-0.1264648
2579,80.1875,0.25,-149.8125,0.9116211,0.8364258,-0.06298828,-0.3007813,-0.1333008,-0.1235352
2583,71.75,4.6875,-172.625,1.012207,1.116211,0.05175781,-0.2973633,-0.1455078,-0.1235352
2587,40.8125,7.25,-204.0625,1.113281,1.084961,0.04443359,-0.2915039,-0.1630859,-0.1181641
2591,44.5,-7.9375,-175.1875,1.333984,0.921875,0.105957,-0.2827148,-0.1821289,-0.1196289
2595,44.9375,-17.875,-133.8125,1.554688,0.9995117,0.144043,-0.2807617,-0.1933594,-0.1157227
2599,31.4375,-18.375,-104.25,1.713867,0.9375,0.1865234,-0.2734375,-0.2080078,-0.112793
2603,18.75,-22,-71.875,1.849121,0.7509766,0.1904297,-0.2709961,-0.2158203,-0.1098633
2607,15.625,-21.75,-35.3125,1.946289,0.5913086,0.2211914,-0.2700195,-0.2182617,-0.105957
2611,18.0625,-9.125,1.625,1.954102,0.5371094,0.2905273,-0.2685547,-0.2216797,-0.105957
2615,16.3125,1.1875,35.8125,1.818359,0.5644531,0.3710938,-0.2700195,-0.2192383,-0.1020508
2619,9.8125,4.25,63.9375,1.640137,0.5800781,0.4404297,-0.2700195,-0.2167969,-0.1035156
2623,-4,1.125,79.625,1.477539,0.6381836,0.4521484,-0.2744141,-0.2104492,-0.1035156
2627,-18.9375,-11.125,94.9375,1.337891,0.6538086,0.4174805,-0.2783203,-0.203125,-0.1035156
2631,-33.4375,-29.375,113.375,1.322266,0.6616211,0.3291016,-0.2807617,-0.1967773,-0.1035156
2635,-43.25,-40.875,131.1875,1.403809,0.6459961,0.2402344,-0.2875977,-0.1870117,-0.1005859
2639,-46.6875,-39.4375,146.0625,1.52002,0.6225586,0.1635742,-0.2949219,-0.1733398,-0.1005859
2643,-43.75,-28.4375,161.125,1.616699,0.6069336,0.09423828,-0.2973633,-0.1606445,-0.09912109
2647,-40.375,-13,173,1.651855,0.6499023,0.02490234,-0.3056641,-0.1455078,-0.09765625
2651,-34.75,6.125,187.8125,1.682617,0.6499023,-0.009277344,-0.3105469,-0.1254883,-0.09765625
2655,-26.375,22.5,203.125,1.597656,0.6884766,-0.02050781,-0.3139648,-0.1132813,-0.1020508
2659,-22.875,29,214,1.500488,0.7509766,-0.03222656,-0.3164063,-0.09326172,-0.1035156
2663,-21.6875,33.5,223.125,1.469727,0.7548828,-0.03613281,-0.3188477,-0.07080078,-0.105957
2667,-20.5,39.4375,228.125,1.477539,0.7431641,-0.04003906,-0.3188477,-0.05566406,-0.1088867
2671,-22.875,48,234.75,1.496582,0.7587891,-0.07080078,-0.3188477,-0.03173828,-0.1142578
2675,-18.8125,59.875,240.375,1.484863,0.6420898,-0.08984375,-0.3164063,-0.008300781,-0.1196289
2679,-13.875,73.9375,240.0625,1.450195,0.6655273,-0.1054688,-0.3125,0.008789063,-0.1225586
2683,-16.625,83.3125,241.1875,1.29541,0.6186523,-0.1401367,-0.3081055,0.03271484,-0.1303711
2687,-11.375,72.4375,251.875,1.202148,0.4477539,-0.1474609,-0.3007813,0.05371094,-0.137207
2691,1.25,71.4375,259.3125,1.275879,0.4594727,-0.1054688,-0.2915039,0.06884766,-0.144043
2695,-4.5,82.1875,239.3125,1.287598,0.4829102,-0.109375,-0.2807617,0.09130859,-0.1484375
2700,4.125,90.5625,243.4375,1.337891,0.3041992,-0.1015625,-0.2675781,0.1113281,-0.1547852
2704,12.75,98.6875,257.5625,1.217773,0.3388672,-0.07470703,-0.2568359,0.1235352,-0.1616211
2708,9.3125,96.9375,263.375,0.9462891,0.3779297,-0.02441406,-0.2426758,0.1411133,-0.1699219
2712,1,86.625,254.5625,0.8149414,0.2807617,0.03271484,-0.2236328,0.1601563,-0.1782227
2716,-5.6875,78.5625,243.3125,0.7758789,0.2299805,0.06347656,-0.2114258,0.1723633,-0.1806641
2720,-10.375,82.6875,237.875,0.7490234,0.15625,0.07519531,-0.1938477,0.1875,-0.1850586
2724,-13.3125,82.4375,225.3125,0.6401367,0.07861328,0.07128906,-0.1723633,0.2011719,-0.1889648
2728,-12.9375,68.25,241.6875,0.4853516,0.04736328,0.07910156,-0.1582031,0.2084961,-0.1918945
2732,-10.5625,49.25,252.6875,0.4272461,0.01269531,0.144043,-0.1391602,0.2211914,-0.1958008
2736,-15.3125,47.4375,236.3125,0.3110352,-0.05273438,0.1479492,-0.1152344,0.2299805,-0.1987305
2740,-17.0625,45.1875,216.125,0.2294922,-0.1152344,0.1518555,-0.1020508,0.2363281,-0.1987305
2744,-9.625,47.5,215.375,0.1015625,-0.2392578,0.125,-0.07958984,0.2436523,-0.1987305
2748,-1.375,45.3125,206.5625,-0.04101563,-0.1459961,0.06738281,-0.06152344,0.2460938,-0.199707
2752,4.4375,48.75,189.1875,-0.2231445,-0.3017578,0.06738281,-0.04833984,0.2485352,-0.1987305
2756,5.5,40.625,164.0625,-0.347168,-0.3676758,0.1171875,-0.03076172,0.25,-0.2011719
2760,6.625,23.0625,143.875,-0.3862305,-0.4101563,0.1328125,-0.01416016,0.25,-0.2026367
2764,10.9375,-0.25,139.375,-0.3823242,-0.534668,0.1635742,-0.004394531,0.25,-0.2026367
2768,20,-20.125,142.25,-0.2583008,-0.5854492,0.2094727,0.005859375,0.2475586,-0.2041016
2772,25.875,-5.5,123.5,-0.1186523,-0.550293,0.2944336,0.01904297,0.2436523,-0.206543
2776,24.5625,31.1875,77.8125,-0.230957,-0.6083984,0.2983398,0.0234375,0.2451172,-0.2080078
2780,30,61.0625,35.5625,-0.3666992,-0.5893555,0.340332,0.02978516,0.2412109,-0.2109375
2784,28.3125,67.625,13.0625,-0.6650391,-0.5698242,0.3481445,0.03662109,0.2412109,-0.2119141
2788,23.4375,48.4375,-6.4375,-0.8706055,-0.5776367,0.3330078,0.04052734,0.2387695,-0.2133789
2792,15.375,17.75,-27.8125,-0.9326172,-0.5463867,0.3520508,0.0390625,0.2373047,-0.2133789
2796,3.4375,-14.4375,-55.375,-0.8198242,-0.503418,0.3945313,0.04052734,0.2373047,-0.2133789
2800,-11.25,-37.0625,-86.6875,-0.6069336,-0.5151367,0.4057617,0.03320313,0.2373047,-0.2133789
2804,-19.75,-47.9375,-103.1875,-0.2543945,-0.5776367,0.3520508,0.02490234,0.2397461,-0.2133789
2808,-14.5,-39.0625,-100.8125,-0.01025391,-0.7055664,0.2983398,0.01269531,0.2436523,-0.2133789
2812,1.4375,-17.875,-106.9375,0.02050781,-0.7446289,0.2675781,0.006835938,0.2451172,-0.2094727
2816,6.4375,-1.25,-126.0625,-0.04492188,-0.6240234,0.2709961,-0.004394531,0.2426758,-0.2119141
2820,3.875,-2.3125,-149.125,-0.04492188,-0.6005859,0.2905273,-0.01611328,0.2451172,-0.2119141
2824,1.4375,-9.75,-156.4375,0.05517578,-0.5893555,0.2827148,-0.0234375,0.2426758,-0.2109375
2829,5.125,-20.25,-151.4375,0.1171875,-0.6201172,0.2749023,-0.03759766,0.2397461,-0.2119141
2833,10.875,-25.8125,-147.25,0.1713867,-0.5854492,0.2519531,-0.05322266,0.2387695,-0.2109375
2837,14.3125,-28,-155.75,0.2255859,-0.5385742,0.2675781,-0.06152344,0.2373047,-0.2109375
2841,13.125,-20.4375,-171.0625,0.3339844,-0.4375,0.2709961,-0.07568359,0.2314453,-0.2109375
2845,12.5,-14.5,-183.8125,0.4233398,-0.46875,0.2788086,-0.09033203,0.2260742,-0.2109375
2849,20.9375,-17.5,-174,0.4233398,-0.46875,0.2558594,-0.1020508,0.2236328,-0.2119141
2853,29.4375,-27.9375,-158.9375,0.3808594,-0.4609375,0.2329102,-0.1152344,0.2172852,-0.2133789
2857,40.25,-38.125,-152.75,0.3613281,-0.387207,0.2480469,-0.1293945,0.2084961,-0.2133789
2861,30.5625,-34.0625,-180.8125,0.4658203,-0.09570313,0.3251953,-0.1376953,0.2036133,-0.2148438
2865,14.25,-37.4375,-210.5625,0.59375,-0.1733398,0.2905273,-0.1508789,0.1938477,-0.2133789
2869,21.9375,-31.5625,-199.8125,0.8183594,-0.2163086,0.2441406,-0.168457,0.1835938,-0.2133789
2873,36.6875,-27.4375,-177.3125,0.7602539,-0.2509766,0.2290039,-0.1782227,0.1762695,-0.2119141
2877,48.5,-43.5625,-165.75,0.574707,-0.07226563,0.2675781,-0.1899414,0.1625977,-0.2133789
2881,24.4375,-63.75,-197.125,0.59375,0.2651367,0.3017578,-0.203125,0.1499023,-0.2133789
2885,6.875,-83.8125,-216,0.7836914,0.1020508,0.2675781,-0.2114258,0.1411133,-0.2094727
2889,6.0625,-83.25,-214.6875,1.124512,0.1293945,0.2133789,-0.2270508,0.1264648,-0.2055664
2893,18.875,-65.0625,-186.6875,1.291504,0.07861328,0.2211914,-0.2412109,0.1123047,-0.1987305
2897,33.1875,-61.3125,-162.625,1.05127,0.04736328,0.1748047,-0.2470703,0.1000977,-0.1972656
2901,31.5,-68.0625,-167.8125,1.078125,0.4321289,0.2094727,-0.2578125,0.08642578,-0.1918945
2905,5.4375,-73.75,-191.1875,0.9462891,0.3388672,0.1635742,-0.2661133,0.07275391,-0.1850586
2909,7.625,-92.375,-194.875,0.9389648,0.284668,0.144043,-0.2724609,0.05859375,-0.1806641
2913,4.5625,-97.25,-186.25,1.275879,0.300293,0.06347656,-0.2827148,0.04394531,-0.1738281
2917,22.3125,-67.625,-163.25,1.426758,0.2148438,0.04785156,-0.2900391,0.02880859,-0.1660156
2921,41.375,-31.5625,-162.375,1.244629,0.2729492,0.02880859,-0.2958984,0.01757813,-0.1645508
2925,41.9375,-11.125,-190.625,1.012207,0.4790039,0.04052734,-0.2983398,0.001464844,-0.1630859
2929,33.8125,-26.6875,-201.3125,0.8920898,0.5449219,0.05957031,-0.3007813,-0.01953125,-0.1591797
2933,30.3125,-64.75,-185,0.9194336,0.6108398,0.05957031,-0.3017578,-0.03076172,-0.1591797
2937,28,-78.375,-167.6875,1.19043,0.6303711,0.06347656,-0.3041992,-0.05175781,-0.1523438
2941,32,-54.5,-165.75,1.364746,0.5952148,0.05957031,-0.3066406,-0.06591797,-0.1455078
2945,38.3125,-15.125,-174.125,1.271973,0.6303711,0.04052734,-0.3066406,-0.078125,-0.1416016
2949,46.8125,12.0625,-191,1.074219,0.6264648,-0.005371094,-0.3032227,-0.09570313,-0.1416016
2953,53,17.125,-202.8125,0.8691406,0.6962891,-0.04736328,-0.2983398,-0.1166992,-0.1416016
2958,55.125,3.0625,-201.1875,0.7758789,0.7895508,-0.02832031,-0.2924805,-0.1308594,-0.1416016
2962,62.25,-13.8125,-188.6875,0.8496094,0.8520508,0.01708984,-0.2890625,-0.1508789,-0.1386719
2966,65.25,-20.25,-181.875,0.9814453,0.953125,0.07128906,-0.2827148,-0.1704102,-0.1347656
2970,64.125,-17.1875,-178.4375,1.059082,1.053711,0.1328125,-0.2768555,-0.1831055,-0.1318359
2974,51.875,-15.8125,-176.4375,1.09375,1.166504,0.1748047,-0.2709961,-0.2006836,-0.1289063
2978,34.6875,-19.5625,-168.1875,1.121094,1.120117,0.1865234,-0.2626953,-0.2158203,-0.1225586
2982,24.0625,-30.8125,-152.5625,1.217773,0.9838867,0.1943359,-0.2592773,-0.2255859,-0.1225586
2986,19.3125,-40.9375,-121.4375,1.29541,0.8710938,0.2021484,-0.2509766,-0.2392578,-0.1196289
2990,16,-43.375,-92,1.492676,0.8481445,0.3017578,-0.2460938,-0.2470703,-0.1142578
2994,9,-28.75,-66.375,1.608887,0.8442383,0.390625,-0.2436523,-0.2529297,-0.1113281
2998,-0.8125,-18.25,-36.875,1.527832,0.7392578,0.409668,-0.2412109,-0.2583008,-0.1074219
3002,-2.5625,-15.125,-5.0625,1.46582,0.7001953,0.4213867,-0.2412109,-0.2592773,-0.1088867
3006,-9.0625,-10.625,20.375,1.368652,0.7353516,0.3979492,-0.2412109,-0.2583008,-0.1074219
3010,-16.875,-8.375,38.25,1.225586,0.7353516,0.3251953,-0.2426758,-0.2558594,-0.1074219
3014,-23.25,-13.9375,54.5625,1.13623,0.7548828,0.2290039,-0.2446289,-0.2519531,-0.1088867
3018,-30.6875,-21.375,68.6875,1.101563,0.777832,0.1518555,-0.2485352,-0.2480469,-0.1088867
3022,-34.5625,-27.3125,83.9375,1.121094,0.7666016,0.09033203,-0.2543945,-0.2431641,-0.1088867
3026,-36.6875,-30.4375,97.875,1.206055,0.7705078,0.07128906,-0.2602539,-0.2329102,-0.1088867
3030,-40.3125,-29.25,115.8125,1.326172,0.7856445,0.05957031,-0.2626953,-0.2255859,-0.1074219
3034,-39.25,-23.8125,139.6875,1.430664,0.824707,0.07910156,-0.2700195,-0.2158203,-0.1074219
3038,-40.8125,-14.3125,159.25,1.454102,0.8632813,0.06738281,-0.2783203,-0.2016602,-0.1074219
3042,-37.5,-5.625,180.5625,1.46582,0.8828125,0.07910156,-0.2827148,-0.1918945,-0.1074219
3046,-36.375,-2.0625,200.375,1.411621,0.9492188,0.06738281,-0.2915039,-0.1733398,-0.1098633
3050,-36,-4,219.25,1.403809,0.9414063,0.07128906,-0.2998047,-0.1518555,-0.1113281
3054,-33.625,-5,235.8125,1.496582,0.9335938,0.05957031,-0.3041992,-0.1381836,-0.1113281
3058,-33.1875,3.8125,244.9375,1.566406,0.8984375,0.05957031,-0.309082,-0.1132813,-0.1113281
3062,-29.25,22.8125,252.0625,1.694336,0.8364258,0.02880859,-0.3149414,-0.08837891,-0.112793
3066,-18.875,45.875,265.625,1.717773,0.7666016,0.02490234,-0.3164063,-0.07080078,-0.1157227
3070,-12,57.625,279.3125,1.589844,0.8012695,0.001953125,-0.3164063,-0.04443359,-0.1210938
3074,-13.5,54.625,286.5,1.430664,0.7739258,-0.005371094,-0.3139648,-0.01806641,-0.1279297
3078,-16.4375,48,289.6875,1.357422,0.6772461,-0.001464844,-0.3125,0.002441406,-0.1289063
3082,-15.5625,42.625,293.9375,1.252441,0.5527344,0.02490234,-0.3081055,0.02880859,-0.1333008
3087,-15.1875,31.125,298.5625,1.16748,0.4750977,-0.001464844,-0.2998047,0.05761719,-0.1386719
3091,-13.625,34.9375,290.5,1.209961,0.3974609,-0.02832031,-0.2915039,0.07617188,-0.137207
3095,-11.0625,52.3125,281,1.117188,0.3349609,-0.05517578,-0.2792969,0.1025391,-0.1416016
3099,-13.75,51.5,271.25,0.8535156,0.3271484,-0.09765625,-0.2651367,0.1264648,-0.1455078
3103,-16.9375,32.8125,260.75,0.8339844,0.2924805,-0.05517578,-0.2578125,0.1401367,-0.1469727
3107,-18.5625,35.5,248.3125,0.9116211,0.1914063,-0.05126953,-0.2412109,0.1601563,-0.1484375
3111,-7.5625,47.1875,247.6875,0.9389648,0.04394531,-0.08203125,-0.2246094,0.1801758,-0.1523438
3115,4.1875,62.625,247.0625,0.8691406,0.1445313,-0.05908203,-0.2138672,0.1899414,-0.1547852
3119,1.4375,65.875,239.8125,0.7602539,0.05517578,-0.09765625,-0.1923828,0.2050781,-0.1606445
3123,11.625,66.6875,241.25,0.7333984,0.008789063,-0.04394531,-0.1723633,0.2172852,-0.1630859
3127,11.125,72.4375,239,0.625,0.04394531,0.005859375,-0.1591797,0.2250977,-0.1660156
3131,8,56.0625,238.8125,0.4311523,-0.02978516,0.02490234,-0.1367188,0.2338867,-0.1699219
3135,8.5625,40,241.3125,0.3652344,-0.08789063,0.05566406,-0.1152344,0.2451172,-0.1738281
3139,5.875,34.4375,229.125,0.4428711,-0.1347656,0.07519531,-0.1020508,0.2485352,-0.1767578
3143,7.25,50.9375,220.625,0.5009766,-0.2275391,0.06347656,-0.078125,0.2548828,-0.1767578
3147,16.9375,72.75,214.4375,0.4077148,-0.3364258,0.07519531,-0.05908203,0.2587891,-0.1821289
3151,28.1875,95.75,204.0625,0.2758789,-0.3286133,0.07128906,-0.04492188,0.2563477,-0.1835938
3155,33.6875,106.1875,196.375,-0.05273438,-0.2978516,0.1557617,-0.02099609,0.2563477,-0.1865234
3159,36.1875,94.0625,190.6875,-0.2387695,-0.2939453,0.1904297,0.0009765625,0.2563477,-0.1928711
3163,26.1875,81.25,169.5625,-0.5449219,-0.2783203,0.2329102,0.01757813,0.2548828,-0.1958008
3167,18.25,68.625,137.1875,-0.6728516,-0.4257813,0.2441406,0.03417969,0.2509766,-0.1943359
3171,20.8125,63.75,103.3125,-0.7578125,-0.402832,0.2558594,0.04638672,0.2460938,-0.1958008
3175,16.25,56.8125,76.25,-0.9208984,-0.3911133,0.2636719,0.0546875,0.2460938,-0.1958008
3179,11.625,42.5625,43.0625,-1.075684,-0.4492188,0.2402344,0.06542969,0.2451172,-0.1958008
3183,8.8125,24.5625,3.375,-1.067871,-0.4648438,0.2172852,0.06787109,0.2412109,-0.1972656
3187,4.375,10.625,-35.5625,-1.017578,-0.4765625,0.2060547,0.06982422,0.2426758,-0.1972656
3191,-2,-4.375,-72.875,-0.9326172,-0.4804688,0.1943359,0.06542969,0.2426758,-0.199707
3195,-9.0625,-21.9375,-103.5,-0.78125,-0.4921875,0.1943359,0.05810547,0.2460938,-0.1987305
3199,-15.0625,-38.25,-123.9375,-0.5644531,-0.519043,0.1674805,0.05078125,0.2475586,-0.1972656
3203,-11.5,-46,-134.875,-0.362793,-0.5927734,0.1479492,0.03808594,0.2509766,-0.1972656
3207,-3.9375,-49.0625,-139.875,-0.246582,-0.5776367,0.1518555,0.02246094,0.2509766,-0.1928711
3211,-1.875,-49.3125,-152,-0.1030273,-0.519043,0.1826172,0.01269531,0.2539063,-0.1943359
3216,-4.625,-37.75,-176.1875,0.0009765625,-0.5151367,0.1865234,-0.004394531,0.2539063,-0.1958008
3220,-4.125,-23.75,-198.8125,0.140625,-0.5151367,0.1635742,-0.02099609,0.2563477,-0.1918945
3224,4.8125,-16.3125,-200.6875,0.1132813,-0.550293,0.1674805,-0.03515625,0.2524414,-0.1928711
3228,15.5625,-32.8125,-195.875,0.07080078,-0.4765625,0.1674805,-0.05224609,0.2524414,-0.1918945
3232,19.6875,-50.0625,-188.75,0.190918,-0.3637695,0.1982422,-0.06982422,0.2475586,-0.1918945
3236,11.25,-53.125,-202.6875,0.2875977,-0.2666016,0.1982422,-0.08398438,0.2436523,-0.1928711
3240,6.625,-48.0625,-224.625,0.4853516,-0.3056641,0.1826172,-0.1044922,0.2387695,-0.1918945
3244,10.0625,-32,-237,0.625,-0.2666016,0.159668,-0.1245117,0.2299805,-0.1904297
3248,19.625,-20.3125,-233.8125,0.6635742,-0.3208008,0.1289063,-0.1376953,0.2236328,-0.1889648
3252,37.1875,-19.5,-220.75,0.5087891,-0.2353516,0.1367188,-0.1567383,0.2124023,-0.1918945
3256,36.75,-52.625,-217.8125,0.2758789,-0.006347656,0.1826172,-0.1733398,0.1972656,-0.1904297
3260,22.375,-106.3125,-217.875,0.4194336,0.1484375,0.1826172,-0.1855469,0.1875,-0.1889648
3264,1.75,-127.625,-227.25,0.8769531,0.2495117,0.1865234,-0.2045898,0.1762695,-0.1850586
3268,-2.75,-112.4375,-233.5625,1.481445,0.2807617,0.1479492,-0.2246094,0.1625977,-0.175293
3272,6.6875,-61.25,-213.625,1.492676,0.03222656,0.1171875,-0.2353516,0.1499023,-0.1699219
3276,26.75,-30.625,-206.375,1.175293,0.008789063,0.1098633,-0.2495117,0.1347656,-0.1660156
3280,32.75,-32.375,-206.9375,0.8339844,0.2495117,0.125,-0.2617188,0.1176758,-0.1660156
3284,10.875,-77.0625,-227.5625,0.6870117,0.4790039,0.1171875,-0.2675781,0.1049805,-0.1630859
3288,-9.875,-124.0625,-230,1.012207,0.4399414,0.08642578,-0.2792969,0.08398438,-0.1577148
3292,-8.25,-126.5625,-204.875,1.535645,0.3271484,0.03271484,-0.2924805,0.06640625,-0.144043
3296,4.625,-83.6875,-188,1.644043,0.3041992,0.009765625,-0.2998047,0.05517578,-0.1347656
3300,16.4375,-30.4375,-190.125,1.473633,0.237793,-0.01660156,-0.3041992,0.03857422,-0.1303711
3304,29.25,7.75,-207.625,1.0625,0.3232422,-0.04003906,-0.3105469,0.01855469,-0.1303711
3308,29,-0.1875,-226.4375,0.7060547,0.4985352,-0.04394531,-0.3125,0.002441406,-0.1303711
3312,22.3125,-45.3125,-232.875,0.5126953,0.6108398,-0.05126953,-0.3139648,-0.02050781,-0.1289063
3316,16.625,-97.375,-232.75,0.690918,0.7626953,-0.03613281,-0.3164063,-0.04199219,-0.1225586
3320,9.5625,-111.25,-226.375,1.206055,0.840332,-0.01318359,-0.3188477,-0.05712891,-0.112793
3324,10.9375,-67,-215.4375,1.651855,0.8364258,0.01708984,-0.3188477,-0.07958984,-0.105957
3328,20.125,0.1875,-210.5,1.585938,0.8325195,0.009765625,-0.3149414,-0.1005859,-0.1020508
3332,24.625,33.375,-220.8125,1.198242,0.8710938,-0.109375,-0.3125,-0.1157227,-0.1005859
3336,35.5,30.9375,-224.25,1.008301,0.8481445,-0.1323242,-0.3056641,-0.1357422,-0.1035156
3340,41.5625,17.3125,-219.375,1.035645,0.9916992,-0.1015625,-0.2973633,-0.1582031,-0.105957
3345,43.25,12.25,-204.625,1.16748,1.026855,-0.009277344,-0.293457,-0.1743164,-0.1044922
3349,45.125,13.5,-190.3125,1.225586,1.061523,0.09423828,-0.2841797,-0.1943359,-0.105957
3353,40.0625,11.0625,-167.0625,1.206055,1.124023,0.1132813,-0.2758789,-0.2119141,-0.1035156
3357,28,2.6875,-147.125,1.213867,1.030762,0.1020508,-0.2675781,-0.2207031,-0.1035156
3361,23.5,-1.25,-133.375,1.275879,0.9179688,0.08251953,-0.2617188,-0.234375,-0.1020508
3365,21.9375,-2.9375,-119.875,1.291504,0.8208008,0.08642578,-0.2543945,-0.2441406,-0.1020508
3369,23.1875,-3.75,-94.75,1.376465,0.7856445,0.159668,-0.2495117,-0.2504883,-0.1005859
3373,19.3125,-3.9375,-60.25,1.42334,0.8442383,0.2441406,-0.2446289,-0.2607422,-0.09765625
3377,12,-7.0625,-23.25,1.426758,0.7973633,0.2827148,-0.2426758,-0.2641602,-0.09765625
3381,4.8125,-9.875,0,1.454102,0.793457,0.2983398,-0.2426758,-0.2631836,-0.09521484
3385,-5.75,-7.25,18.5,1.481445,0.8129883,0.2944336,-0.2412109,-0.2631836,-0.09521484
3389,-12.5,-5.4375,42.8125,1.469727,0.7509766,0.2827148,-0.2436523,-0.2607422,-0.09667969
3393,-18,-13.6875,70.8125,1.407715,0.8051758,0.2480469,-0.2470703,-0.2583008,-0.09375
3397,-30.25,-32.125,100.3125,1.442383,0.8286133,0.2172852,-0.2519531,-0.2504883,-0.09667969
3401,-38.9375,-47.8125,132.6875,1.5625,0.8325195,0.159668,-0.2592773,-0.2416992,-0.09375
3405,-44.1875,-53.125,161.75,1.616699,0.8208008,0.09423828,-0.2661133,-0.2329102,-0.09082031
3409,-41.8125,-49.375,187.5625,1.670898,0.8129883,0.04785156,-0.2758789,-0.2167969,-0.08984375
3413,-36.0625,-41.6875,212.5625,1.686523,0.890625,0.02490234,-0.2866211,-0.1982422,-0.08837891
3417,-28.4375,-33.375,242.375,1.73291,0.9335938,0.001953125,-0.2924805,-0.1845703,-0.08544922
3421,-21.25,-20.375,265.3125,1.729004,0.9604492,-0.04003906,-0.3032227,-0.1591797,-0.08447266
3425,-13.0625,2,275.5,1.736816,0.9760742,-0.06298828,-0.3139648,-0.1333008,-0.08447266
3429,-6.5625,27.625,279.8125,1.640137,0.9604492,-0.08984375,-0.3188477,-0.1142578,-0.08447266
3433,1.5625,48.0625,283,1.523926,0.90625,-0.1245117,-0.3208008,-0.08691406,-0.08691406
3437,11,69.3125,282.75,1.419434,0.8598633,-0.128418,-0.324707,-0.05957031,-0.09375
3441,15.4375,92.5625,275.125,1.283691,0.840332,-0.1401367,-0.324707,-0.03955078,-0.09912109
3445,15,109.4375,265.9375,1.198242,0.7817383,-0.1669922,-0.3208008,-0.01318359,-0.1044922
3449,19.75,113.3125,265.0625,0.9541016,0.7275391,-0.1245117,-0.3139648,0.01025391,-0.1196289
3453,12.1875,94.6875,259.1875,0.8691406,0.8325195,-0.07470703,-0.309082,0.02880859,-0.1279297
3457,-5.125,77.1875,244,0.8071289,0.7666016,-0.02050781,-0.3007813,0.05126953,-0.1333008
3461,-15.6875,53.6875,238.6875,0.8071289,0.5952148,-0.01318359,-0.293457,0.07275391,-0.1425781
3465,-19.1875,43.9375,233.625,0.9389648,0.5019531,-0.01660156,-0.2841797,0.08642578,-0.1455078
3469,-21.5,43.75,230.1875,1.066406,0.4204102,-0.03222656,-0.2744141,0.1088867,-0.1455078
3474,-22.5625,56.4375,230.5625,1.105469,0.3896484,-0.04394531,-0.2636719,0.1274414,-0.1508789
3478,-21.5625,53.8125,236.875,1.047363,0.2768555,-0.04394531,-0.253418,0.1411133,-0.1538086
3482,-17.1875,41.4375,250.8125,0.9350586,0.1953125,-0.06689453,-0.237793,0.1577148,-0.15625
3486,-15.5625,32.5,259.625,0.8417969,0.140625,-0.05908203,-0.2236328,0.1772461,-0.1591797
3490,-16.5,25.625,248.375,0.8574219,0.09423828,-0.02441406,-0.2114258,0.1884766,-0.1606445
3494,-12.375,36.875,244.9375,0.8881836,-0.08789063,-0.05517578,-0.1923828,0.2060547,-0.1591797
3498,1.25,63.6875,236.0625,0.8730469,-0.1191406,-0.05126953,-0.1748047,0.21875,-0.1630859
3502,16.75,88.875,241.5,0.7060547,-0.2124023,-0.05126953,-0.1601563,0.2260742,-0.1660156
3506,34.0625,97.9375,246.6875,0.4194336,-0.2084961,-0.02832031,-0.1342773,0.2363281,-0.1738281
3510,37.375,90.5625,234.0625,0.159668,-0.1616211,0.02099609,-0.112793,0.2426758,-0.1796875
3514,31.875,88.0625,213.5625,-0.006347656,-0.2045898,0.1020508,-0.09472656,0.2460938,-0.1850586
3518,22.375,80.0625,177.4375,-0.1225586,-0.1538086,0.105957,-0.07568359,0.25,-0.1889648
3522,21.9375,79.25,149.1875,-0.1303711,-0.3208008,0.1787109,-0.05566406,0.2509766,-0.1928711
3526,19.3125,80.9375,135.75,-0.1459961,-0.3637695,0.2021484,-0.04394531,0.2509766,-0.1943359
3530,24.1875,79.0625,134.4375,-0.3354492,-0.4257813,0.2368164,-0.02685547,0.2524414,-0.199707
3534,26.25,70.0625,123.25,-0.5175781,-0.4335938,0.2597656,-0.01171875,0.25,-0.2011719
3538,19.6875,58.625,92.6875,-0.715332,-0.4140625,0.2827148,-0.005859375,0.25,-0.2011719
3542,9.25,43.5625,49.875,-0.8354492,-0.453125,0.2827148,0.005859375,0.2485352,-0.2041016
3546,-0.4375,26.4375,8.625,-0.8510742,-0.4335938,0.2866211,0.009277344,0.2475586,-0.2055664
3550,-9.0625,5.25,-18.3125,-0.8164063,-0.453125,0.2749023,0.01171875,0.2475586,-0.2041016
3554,-11.5,-12.5,-37.9375,-0.7270508,-0.4960938,0.2441406,0.009277344,0.2475586,-0.2026367
3558,-9.375,-24.5,-57.25,-0.5722656,-0.550293,0.2133789,0.004394531,0.25,-0.2011719
3562,-4.5625,-28.375,-79.875,-0.4248047,-0.5268555,0.2060547,-0.0009765625,0.2509766,-0.2026367
3566,-6,-25.0625,-110,-0.3007813,-0.4960938,0.2060547,-0.009277344,0.25,-0.2011719
3570,-10.875,-20.125,-142.375,-0.2504883,-0.4726563,0.1943359,-0.02001953,0.2485352,-0.2026367
3574,-10.3125,-24.375,-162.3125,-0.1611328,-0.4960938,0.1826172,-0.03076172,0.2509766,-0.199707
3578,-3.9375,-34.0625,-165.125,-0.04492188,-0.4882813,0.1826172,-0.04394531,0.2485352,-0.1972656
3582,3,-46.1875,-164.4375,0.08251953,-0.4726563,0.2060547,-0.06152344,0.2485352,-0.1972656
3586,3.1875,-52,-172,0.2255859,-0.3520508,0.1865234,-0.07324219,0.2460938,-0.1958008
3590,-1.375,-48.5,-180.8125,0.3574219,-0.3637695,0.2021484,-0.09033203,0.2426758,-0.1958008
3594,2.8125,-38.0625,-195.9375,0.3925781,-0.4101563,0.1635742,-0.1054688,0.2363281,-0.1943359
3598,10.3125,-27.5,-209.3125,0.527832,-0.3481445,0.144043,-0.1186523,0.2299805,-0.1928711
3603,23.75,-13.0625,-200.875,0.6831055,-0.402832,0.125,-0.1391602,0.2226563,-0.1928711
3607,42.375,-5,-193.5625,0.5708008,-0.2900391,0.1674805,-0.1518555,0.2124023,-0.1928711
3611,37.25,-8.6875,-206.1875,0.4931641,-0.1152344,0.1674805,-0.1616211,0.2036133,-0.1943359
3615,34.5,-19.3125,-218.8125,0.4116211,-0.1347656,0.1674805,-0.1757813,0.1914063,-0.1958008
3619,33.625,-39.9375,-230.875,0.5200195,0.02050781,0.1826172,-0.1938477,0.1772461,-0.1972656
3623,27.1875,-64.5625,-226.3125,0.8149414,0.105957,0.1982422,-0.2045898,0.1660156,-0.1943359
3627,32.9375,-88.9375,-190.5,0.9931641,0.1020508,0.1518555,-0.2197266,0.1499023,-0.1928711
3631,32.5,-94.3125,-167.375,1.194336,0.1333008,0.2021484,-0.234375,0.1376953,-0.1865234
3635,29.125,-70.5625,-180.5625,1.182617,0.1367188,0.1635742,-0.2426758,0.1298828,-0.1835938
3639,24.5,-58.3125,-207.5625,1.059082,0.1835938,0.1557617,-0.253418,0.1123047,-0.1796875
3643,25,-66.9375,-206.8125,1.074219,0.1914063,0.1713867,-0.2651367,0.09521484,-0.175293
3647,26.3125,-79.625,-191.125,1.260254,0.2651367,0.1210938,-0.2724609,0.08398438,-0.1728516
3651,33.75,-86.125,-165.375,1.302734,0.21875,0.1210938,-0.2817383,0.06640625,-0.1660156
3655,41.25,-80,-148.6875,1.291504,0.2109375,0.06738281,-0.2915039,0.05273438,-0.1591797
3659,45.25,-42.8125,-168.625,1.29541,0.3388672,0.09423828,-0.293457,0.04248047,-0.1577148
3663,41.125,2.0625,-210,1.105469,0.3310547,0.06738281,-0.2998047,0.02148438,-0.1547852
3667,51.9375,21.3125,-227.625,0.7797852,0.3505859,0.05175781,-0.3017578,0,-0.15625
3671,54.125,-13.8125,-225.3125,0.4077148,0.5488281,0.03662109,-0.3017578,-0.015625,-0.1577148
3675,44.75,-78.1875,-213.75,0.5859375,0.7548828,0.03662109,-0.3017578,-0.03808594,-0.1547852
3679,37.8125,-107.1875,-196.125,1.097656,0.7739258,0.04785156,-0.3066406,-0.05957031,-0.1455078
3683,39,-89.25,-188.8125,1.450195,0.840332,0.05957031,-0.3081055,-0.07177734,-0.137207
3687,33.75,-42.875,-203.3125,1.512207,0.9257813,0.03271484,-0.3081055,-0.09179688,-0.1303711
3691,36,-6,-217.875,1.314453,0.824707,-0.009277344,-0.3056641,-0.1142578,-0.1264648
3695,44.3125,2.25,-215.4375,1.082031,0.875,-0.07080078,-0.3041992,-0.1254883,-0.1264648
3699,45.0625,-14.1875,-202.0625,0.9892578,0.921875,-0.109375,-0.2949219,-0.1494141,-0.125
3703,48.5,-32.5,-188.875,1.101563,0.9335938,-0.05126953,-0.2900391,-0.1694336,-0.1181641
3707,47.8125,-35.5,-176.75,1.29541,0.9760742,0.01367188,-0.2851563,-0.1806641,-0.1166992
3711,44.125,-23.3125,-164.8125,1.450195,1.022949,0.105957,-0.2792969,-0.1982422,-0.1142578
3715,33.375,-9.0625,-151.25,1.43457,0.9838867,0.1289063,-0.2734375,-0.2143555,-0.1098633
3719,27.1875,-9.0625,-123.8125,1.353516,0.8867188,0.1367188,-0.2661133,-0.2216797,-0.1088867
3723,25.5,-19.1875,-83.875,1.326172,0.7973633,0.1479492,-0.2617188,-0.2329102,-0.105957
3727,25.1875,-21.8125,-54,1.357422,0.7705078,0.2060547,-0.2592773,-0.2392578,-0.1020508
3732,20.25,-16.75,-34.9375,1.306641,0.7856445,0.2480469,-0.2553711,-0.2416992,-0.09912109
3736,13.625,-13.5625,-20.5,1.244629,0.7856445,0.3056641,-0.2553711,-0.2441406,-0.09912109
3740,3.625,-14.5,-6.8125,1.179199,0.7895508,0.3291016,-0.2543945,-0.2456055,-0.09521484
3744,-5.3125,-20.875,12.875,1.186523,0.7509766,0.355957,-0.2553711,-0.2456055,-0.09521484
3748,-12.375,-23.5,30.5625,1.26416,0.7353516,0.3364258,-0.2578125,-0.2456055,-0.09521484
3752,-19.8125,-20.5,48.5625,1.318359,0.7236328,0.3134766,-0.2578125,-0.2407227,-0.09228516
3756,-25.25,-14.5,63.9375,1.337891,0.7236328,0.2749023,-0.2617188,-0.2368164,-0.09375
3760,-32.75,-7.625,78.625,1.39209,0.7739258,0.2368164,-0.2651367,-0.2319336,-0.09521484
3764,-41,-6.75,100.75,1.39209,0.777832,0.1865234,-0.2709961,-0.2231445,-0.09521484
3768,-47.6875,-12.4375,124.125,1.42334,0.8442383,0.1479492,-0.2758789,-0.2167969,-0.09667969
3772,-52.3125,-20.4375,153.5,1.477539,0.8286133,0.1289063,-0.2807617,-0.2045898,-0.09667969
3776,-52.375,-24.75,181.5625,1.48877,0.8286133,0.07128906,-0.2915039,-0.1870117,-0.09667969
3780,-51.4375,-14.8125,198.25,1.5625,0.8520508,0.04443359,-0.2973633,-0.1743164,-0.09667969
3784,-47.875,7.1875,205.6875,1.558594,0.7470703,0.001953125,-0.3041992,-0.1533203,-0.09765625
3788,-38.1875,34.6875,201.625,1.574219,0.6845703,-0.04003906,-0.309082,-0.1333008,-0.1020508
3792,-27.8125,67.125,199.5,1.550781,0.7041016,-0.07861328,-0.3125,-0.1206055,-0.1044922
3796,-22.5,81.5,206.0625,1.380371,0.7119141,-0.07470703,-0.3139648,-0.09960938,-0.1113281
3800,-16.1875,83.9375,215.75,1.384277,0.7080078,-0.04003906,-0.3164063,-0.078125,-0.1181641
3804,-16.8125,95.625,214.0625,1.388184,0.7666016,0.009765625,-0.3125,-0.06591797,-0.1279297
3808,-24.375,104.5,209,1.283691,0.8051758,0.07128906,-0.3115234,-0.04443359,-0.1357422
3812,-39,85.1875,210.9375,1.082031,0.7895508,0.105957,-0.3081055,-0.02197266,-0.144043
3816,-49.625,58.5625,227.5625,1.089844,0.6772461,0.1098633,-0.3066406,-0.008300781,-0.1508789
3820,-49.9375,39.125,244.0625,1.144043,0.5683594,0.1098633,-0.3007813,0.01367188,-0.1547852
3824,-49.625,35.25,248.3125,1.171387,0.5449219,0.1020508,-0.293457,0.03857422,-0.1577148
3828,-53,38,246.8125,1.163574,0.4790039,0.08642578,-0.2924805,0.05615234,-0.1591797
3832,-53.375,43.625,238.4375,1.171387,0.4086914,0.05175781,-0.2817383,0.08105469,-0.1591797
3836,-48.1875,54.25,237.375,1.159668,0.2924805,-0.005371094,-0.2709961,0.1025391,-0.1645508
3840,-39.375,47.625,244.0625,0.9814453,0.2768555,0.005859375,-0.2626953,0.1162109,-0.1645508
3844,-38.5,28.0625,255.6875,1.023926,0.2612305,0.001953125,-0.2485352,0.1362305,-0.1674805
3848,-28.9375,35.8125,261.8125,1.117188,0.1293945,0.01367188,-0.2329102,0.1586914,-0.1674805
3852,-16.125,72.1875,248.5,1.105469,0.06689453,-0.02832031,-0.222168,0.1723633,-0.1660156
3856,0.8125,121.75,231.5625,0.8920898,-0.01806641,-0.05517578,-0.203125,0.1884766,-0.1728516
3861,14.5625,154.625,216.3125,0.5820313,0.01660156,-0.08203125,-0.1816406,0.1987305,-0.1806641
3865,12.625,152.375,192,0.2490234,0.1098633,-0.01318359,-0.1650391,0.2060547,-0.1889648
3869,-2.4375,118.875,186.5,0.06689453,0.04736328,0.01367188,-0.1474609,0.2138672,-0.1987305
3873,-7.875,72.3125,191.6875,0.01269531,-0.07617188,0.09033203,-0.1259766,0.2226563,-0.199707
3877,-14.125,36.4375,182.125,0.125,-0.1381836,0.1674805,-0.1137695,0.2275391,-0.2041016
3881,-17.8125,22.125,176.125,0.4194336,-0.2163086,0.1943359,-0.09863281,0.2338867,-0.2026367
3885,-11.875,32.9375,175.125,0.5395508,-0.3754883,0.2021484,-0.08203125,0.2373047,-0.2026367
3889,-4.1875,59.1875,163.4375,0.5512695,-0.3134766,0.1865234,-0.06982422,0.2412109,-0.2041016
3893,-0.4375,80.3125,147.75,0.3227539,-0.402832,0.2021484,-0.05322266,0.2436523,-0.2055664
3897,-1.875,74.75,144.9375,0.05517578,-0.4101563,0.2709961,-0.03759766,0.2436523,-0.2055664
3901,-9.125,49.6875,142.5,-0.1572266,-0.4179688,0.2983398,-0.02685547,0.2460938,-0.2080078
3905,-20.875,17.9375,133.375,-0.230957,-0.4414063,0.355957,-0.01269531,0.2475586,-0.206543
3909,-26,3.625,126.0625,-0.2119141,-0.5581055,0.3251953,-0.0009765625,0.2485352,-0.2026367
3913,-19.75,10.1875,109.0625,-0.262207,-0.6591797,0.2709961,0.006835938,0.25,-0.2026367
3917,-6.3125,29.125,87.125,-0.3432617,-0.6630859,0.2368164,0.01513672,0.25,-0.2011719
3921,4.1875,46.1875,55.8125,-0.5410156,-0.6591797,0.2021484,0.0234375,0.2485352,-0.2011719
3925,9.875,50.875,21.9375,-0.7231445,-0.6435547,0.1865234,0.02734375,0.2485352,-0.2026367
3929,9.6875,36.625,-8.4375,-0.8354492,-0.581543,0.1787109,0.03173828,0.2460938,-0.2026367
3933,5.9375,9.625,-30.1875,-0.8549805,-0.5737305,0.1865234,0.03076172,0.2460938,-0.2026367
3937,4.75,-21.1875,-47.0625,-0.7617188,-0.5776367,0.1865234,0.02978516,0.2475586,-0.2011719
3941,4.125,-40.5625,-69.875,-0.5991211,-0.5463867,0.2094727,0.0234375,0.2475586,-0.2026367
3945,1.3125,-46.5,-95.625,-0.4013672,-0.5424805,0.1943359,0.01416016,0.2475586,-0.2026367
3949,6.125,-40.5,-117.5,-0.262207,-0.581543,0.1635742,0.005859375,0.2475586,-0.2041016
3953,15.25,-29.5,-139.4375,-0.1962891,-0.5581055,0.1557617,-0.0078125,0.2485352,-0.2055664
3957,20.8125,-22.125,-162.5,-0.1884766,-0.4882813,0.159668,-0.02099609,0.2485352,-0.2055664
3961,21.75,-31.1875,-178.25,-0.1923828,-0.4179688,0.1674805,-0.02929688,0.2460938,-0.2055664
3965,22.1875,-54.6875,-184,-0.09130859,-0.3676758,0.1787109,-0.04833984,0.2426758,-0.2080078
3969,20.5,-75.6875,-183,0.08642578,-0.3325195,0.1982422,-0.06738281,0.2387695,-0.2080078
3973,24.125,-89.0625,-181,0.2915039,-0.340332,0.2021484,-0.078125,0.2363281,-0.2055664
3977,27.8125,-82.5625,-181.6875,0.5239258,-0.2744141,0.1826172,-0.09863281,0.2314453,-0.206543
3981,31.8125,-64.4375,-194.625,0.659668,-0.2744141,0.2094727,-0.1176758,0.2226563,-0.206543
3985,37.1875,-36.5625,-206.625,0.7529297,-0.2275391,0.2021484,-0.1293945,0.2163086,-0.2055664
3990,39.4375,-16.9375,-226.0625,0.690918,-0.1811523,0.2172852,-0.1474609,0.2036133,-0.2055664
3994,41.125,-18.8125,-229.875,0.559082,-0.1035156,0.2172852,-0.1625977,0.1923828,-0.2080078
3998,42.5,-50.0625,-219.4375,0.5512695,-0.05664063,0.1982422,-0.1757813,0.1826172,-0.2080078
4002,48.3125,-79.875,-192.375,0.7138672,-0.03369141,0.2021484,-0.1914063,0.1674805,-0.2109375
4006,56.6875,-91,-173.25,0.9194336,-0.02587891,0.1518555,-0.206543,0.1547852,-0.2041016
4010,67.3125,-72.0625,-172.125,1.047363,0.07080078,0.1826172,-0.2172852,0.1450195,-0.2026367
4014,66.1875,-35.25,-202.4375,0.9580078,0.1601563,0.1748047,-0.2280273,0.1289063,-0.2026367
4018,58.75,-31.125,-244.75,0.8999023,0.4086914,0.2636719,-0.237793,0.1088867,-0.2026367
4022,36.375,-70,-246,0.9233398,0.8286133,0.2827148,-0.2460938,0.09521484,-0.2011719
4026,21.125,-129.0625,-203.8125,1.035645,0.4243164,0.1904297,-0.2602539,0.07617188,-0.1972656
4030,33.125,-146.1875,-157.625,1.29541,0.2070313,0.1210938,-0.2734375,0.06005859,-0.1850586
4034,43.875,-115.9375,-158.875,1.415527,0.300293,0.05566406,-0.2792969,0.04980469,-0.1767578
4038,48,-55,-188.8125,1.39209,0.3232422,0.03662109,-0.2890625,0.03515625,-0.1699219
4042,58.3125,0.0625,-220.3125,1.140137,0.2924805,0.02490234,-0.2949219,0.01123047,-0.1674805
4046,69.4375,6.5,-237.8125,0.7797852,0.4555664,0.04785156,-0.2949219,-0.001953125,-0.168457
4050,61.9375,-51.875,-226.0625,0.5629883,0.6884766,0.03271484,-0.2958984,-0.02587891,-0.168457
4054,53.8125,-116.3125,-195.3125,0.7836914,0.7001953,0.04785156,-0.2998047,-0.04931641,-0.1606445
4058,53.25,-130.625,-180.5625,1.19043,0.7353516,0.04443359,-0.3017578,-0.06298828,-0.1523438
4062,55.9375,-88.875,-185.625,1.446289,0.7509766,0.08251953,-0.3056641,-0.08300781,-0.1401367
4066,59.6875,-22.0625,-210.4375,1.388184,0.8208008,0.07910156,-0.3056641,-0.1020508,-0.1347656
4070,59.9375,25.625,-241.3125,1.078125,0.8598633,0.009765625,-0.3032227,-0.1181641,-0.1333008
4074,63.3125,29.5625,-253.875,0.7680664,0.90625,-0.04736328,-0.2949219,-0.1430664,-0.1347656
4078,69.625,-5.5625,-249.8125,0.6791992,0.9682617,-0.03613281,-0.2866211,-0.1694336,-0.1333008
4082,70.875,-34.375,-242.125,0.9931641,1.174316,0.02490234,-0.2792969,-0.1831055,-0.1289063
4086,65.8125,-21.375,-240.5,1.446289,1.275391,0.2094727,-0.2685547,-0.2094727,-0.1264648
4090,56.625,17.0625,-231.375,1.601563,1.349121,0.3134766,-0.2553711,-0.2304688,-0.1196289
4094,39,36.6875,-199.25,1.446289,1.306641,0.3212891,-0.2470703,-0.2416992,-0.1210938
4098,23.375,12.9375,-151.125,1.209961,1.154785,0.2597656,-0.2353516,-0.2592773,-0.1210938
4102,21.625,-25.75,-97.5625,1.29541,0.921875,0.2827148,-0.2270508,-0.2705078,-0.1210938
4106,17.625,-39,-60.3125,1.504395,0.9604492,0.3330078,-0.2255859,-0.2729492,-0.1181641
4110,4.5,-36.6875,-29.6875,1.578125,0.9179688,0.409668,-0.2211914,-0.2783203,-0.1142578
4114,-1.9375,-31.1875,4,1.546875,0.8208008,0.4443359,-0.2236328,-0.2792969,-0.1098633
4119,-6.25,-23.8125,39,1.481445,0.8671875,0.4633789,-0.2236328,-0.2753906,-0.1098633
4123,-16.1875,-19.625,67.4375,1.333984,0.8632813,0.4482422,-0.2270508,-0.2744141,-0.105957
4127,-21.9375,-27.5625,87,1.194336,0.8442383,0.3945313,-0.2329102,-0.2670898,-0.1088867
4131,-31.1875,-39.1875,104.8125,1.16748,0.890625,0.340332,-0.237793,-0.2631836,-0.1074219
4135,-39.6875,-49.1875,123,1.186523,0.890625,0.2788086,-0.2436523,-0.2543945,-0.1044922
4139,-47.6875,-56.25,140.9375,1.252441,0.9257813,0.2133789,-0.2553711,-0.2416992,-0.105957
4143,-54.125,-56.875,161.8125,1.353516,0.9140625,0.1518555,-0.2626953,-0.2319336,-0.1035156
4147,-53.3125,-52.25,181.4375,1.364746,0.9023438,0.07519531,-0.2724609,-0.2182617,-0.1020508
4151,-47.9375,-45.375,197.25,1.395996,0.90625,0.02490234,-0.2807617,-0.1992188,-0.1005859
4155,-45.5,-33.5,205.0625,1.419434,0.9375,-0.02441406,-0.2890625,-0.1870117,-0.09765625
4159,-39.875,-23.0625,212.875,1.39209,0.9023438,-0.07470703,-0.2983398,-0.1669922,-0.09765625
4163,-32.4375,-12.6875,224.4375,1.426758,0.9257813,-0.09375,-0.3041992,-0.1445313,-0.09765625
4167,-25.625,1.3125,235.75,1.454102,0.9453125,-0.07470703,-0.3115234,-0.1279297,-0.09667969
4171,-25.3125,18.4375,238.5,1.419434,0.953125,-0.1054688,-0.3173828,-0.1069336,-0.09912109
4175,-18.5,28.125,240.0625,1.299316,0.8598633,-0.1015625,-0.3208008,-0.08056641,-0.1020508
4179,-16.3125,29,235.3125,1.241211,0.8442383,-0.109375,-0.3198242,-0.06591797,-0.1044922
4183,-11.625,34.5625,237.25,1.194336,0.7080078,-0.1054688,-0.3222656,-0.04199219,-0.1044922
4187,-5.375,41.125,243.125,1.124512,0.6342773,-0.1054688,-0.3198242,-0.015625,-0.1098633
4191,-0.9375,45.625,237.4375,0.9931641,0.5839844,-0.08203125,-0.3173828,0,-0.1113281
4195,-1.625,43.4375,227.4375,0.8378906,0.5097656,-0.07080078,-0.3139648,0.02148438,-0.1166992
4199,-0.6875,25.6875,220.125,0.7641602,0.4555664,-0.04394531,-0.3081055,0.04394531,-0.1210938
4203,-1.625,17.25,213.1875,0.8339844,0.4243164,-0.02050781,-0.3041992,0.05615234,-0.1225586
4207,-2.5625,17.5625,209.9375,0.9155273,0.3466797,-0.02832031,-0.2973633,0.07617188,-0.1235352
4211,2.625,36.8125,208.8125,1.05127,0.3193359,-0.005371094,-0.2900391,0.09375,-0.125
4215,0.125,63.5,189.0625,1.004395,0.3193359,-0.02832031,-0.2851563,0.1049805,-0.1303711
4219,-4.8125,78.5,174.1875,0.8769531,0.284668,-0.02832031,-0.2734375,0.1225586,-0.1357422
4223,-9.875,72.1875,172.6875,0.7602539,0.1835938,-0.02832031,-0.2636719,0.1362305,-0.1425781
4227,-3.4375,58.8125,182.625,0.7412109,0.04003906,-0.009277344,-0.2568359,0.1459961,-0.144043
4231,-3.6875,55.1875,187.125,0.8457031,0.1523438,0.01367188,-0.2446289,0.1601563,-0.1494141
4235,-7.5625,60.8125,183.4375,0.8842773,-0.02197266,0.05175781,-0.2304688,0.1738281,-0.1547852
4239,0,71.4375,181.6875,0.8881836,-0.1191406,0.05957031,-0.2197266,0.1826172,-0.1577148
4243,5.0625,82.5625,181.3125,0.7177734,-0.1420898,0.05957031,-0.2045898,0.1948242,-0.1630859
4248,6.625,76.75,180.5,0.5708008,-0.1538086,0.08642578,-0.1889648,0.2036133,-0.168457
4252,2.5,60.25,183.0625,0.4506836,-0.2045898,0.1132813,-0.1782227,0.2114258,-0.1699219
4256,2.5625,48.875,180.375,0.3808594,-0.3173828,0.1367188,-0.1616211,0.2211914,-0.1713867
4260,2.9375,44,169.625,0.4155273,-0.340332,0.144043,-0.1459961,0.2275391,-0.1767578
4264,3.5625,49.5,164.6875,0.3339844,-0.4296875,0.1982422,-0.1391602,0.2314453,-0.1782227
4268,7.625,59.8125,151.6875,0.2568359,-0.4453125,0.1787109,-0.1210938,0.2387695,-0.1821289
4272,10.4375,72.5,138.5,0.09033203,-0.5,0.1943359,-0.1069336,0.2426758,-0.1850586
4276,11.75,74.0625,126.5,-0.1572266,-0.5151367,0.1865234,-0.09619141,0.2451172,-0.1875
4280,13.3125,62.5,109.25,-0.3706055,-0.5463867,0.2250977,-0.08203125,0.2460938,-0.1889648
4284,9,50.625,86.3125,-0.4633789,-0.5424805,0.2402344,-0.07128906,0.2460938,-0.1928711
4288,4.0625,35.625,57.9375,-0.5566406,-0.534668,0.2709961,-0.06396484,0.25,-0.1918945
4292,-4.125,8.625,32.25,-0.6225586,-0.5541992,0.2709961,-0.05908203,0.25,-0.1943359
4296,-5.25,-11.625,9.3125,-0.5141602,-0.6044922,0.2597656,-0.05664063,0.2509766,-0.1943359
4300,-5.875,-12.1875,-18.25,-0.3706055,-0.6083984,0.2290039,-0.05664063,0.25,-0.1928711
4304,-2.5625,-1.1875,-47.625,-0.2851563,-0.6162109,0.2060547,-0.05908203,0.2509766,-0.1943359
4308,-1.0625,3.8125,-80.4375,-0.2773438,-0.5776367,0.1904297,-0.06298828,0.25,-0.1918945
4312,-0.375,-0.1875,-107.25,-0.2348633,-0.5268555,0.2094727,-0.07128906,0.2475586,-0.1928711
4316,-5.375,-11.9375,-128.5625,-0.1923828,-0.5112305,0.1904297,-0.07958984,0.2451172,-0.1918945
4320,-2.625,-30.6875,-143.3125,-0.09521484,-0.503418,0.1787109,-0.09130859,0.2426758,-0.1904297
4324,-2.375,-46.5625,-155.5625,0.06689453,-0.4414063,0.1635742,-0.1020508,0.2397461,-0.1875
4328,-1,-51.3125,-156.625,0.2836914,-0.4492188,0.144043,-0.1176758,0.2338867,-0.1889648
4332,10,-43.3125,-152.625,0.4350586,-0.4765625,0.1171875,-0.1318359,0.2299805,-0.1835938
4336,17.3125,-21.4375,-165.125,0.4775391,-0.3598633,0.1328125,-0.1411133,0.2250977,-0.1850586
4340,18.3125,-1.6875,-190.875,0.4853516,-0.3286133,0.1479492,-0.1557617,0.2172852,-0.1850586
4344,22.875,1.625,-212.6875,0.3691406,-0.2509766,0.1748047,-0.168457,0.2050781,-0.1875
4348,20.9375,-19.875,-222,0.4038086,-0.1308594,0.1787109,-0.1806641,0.1972656,-0.1889648
4352,18.25,-46.875,-208.5625,0.4541016,-0.1381836,0.140625,-0.1948242,0.1835938,-0.1865234
4356,27.375,-66.25,-186.25,0.574707,-0.1577148,0.1210938,-0.2104492,0.1699219,-0.1835938
4360,39.3125,-68.8125,-176.375,0.7373047,-0.08789063,0.105957,-0.2197266,0.1611328,-0.1835938
4364,38.875,-45.0625,-193.625,0.8417969,0.15625,0.1367188,-0.234375,0.1474609,-0.1806641
4368,25.6875,-21.5,-227.3125,0.8496094,0.2148438,0.1132813,-0.2446289,0.1298828,-0.1782227
4372,30.25,-17.5,-240.1875,0.7915039,0.1445313,0.09423828,-0.2519531,0.1176758,-0.1767578
4377,34.875,-31.75,-229.1875,0.7412109,0.2265625,0.08642578,-0.2626953,0.09765625,-0.1767578
4381,42.9375,-57.25,-212.625,0.8032227,0.2963867,0.06738281,-0.2734375,0.07763672,-0.1738281
4385,52.25,-65.25,-191.375,0.9389648,0.3120117,0.04785156,-0.2807617,0.06494141,-0.1738281
4389,60.6875,-52,-195.8125,1.121094,0.4711914,0.07128906,-0.2875977,0.04638672,-0.168457
4393,49,-1.6875,-220.9375,1.171387,0.6577148,0.06347656,-0.2924805,0.02392578,-0.1674805
4397,46.1875,34.5625,-247.4375,0.7993164,0.4399414,0.03662109,-0.293457,0.008789063,-0.1660156
4401,64.25,5,-252.1875,0.3496094,0.5371094,-0.009277344,-0.2958984,-0.01708984,-0.1728516
4405,71.4375,-75.8125,-231.125,0.2875977,0.7739258,-0.03222656,-0.2973633,-0.04199219,-0.168457
4409,72.625,-150.875,-202.8125,0.574707,0.9140625,-0.05908203,-0.2998047,-0.05712891,-0.1630859
4413,72.6875,-179.5,-182.25,1.105469,1.108398,-0.02050781,-0.3056641,-0.078125,-0.1455078
4417,52.375,-138.625,-201.125,1.527832,1.349121,0.005859375,-0.3081055,-0.09960938,-0.1303711
4421,28.5,-61.8125,-239.375,1.698242,1.302734,0.06738281,-0.3066406,-0.1118164,-0.1210938
4425,21.6875,3.1875,-256.9375,1.508301,1.17041,0.001953125,-0.3032227,-0.1367188,-0.1166992
4429,29.9375,14.9375,-243,1.244629,1.104492,-0.04394531,-0.2924805,-0.1606445,-0.1181641
4433,39.75,0,-220.0625,1.252441,1.088867,-0.06298828,-0.2875977,-0.1767578,-0.1166992
4437,46.8125,-1.75,-201.25,1.438477,1.104492,0.005859375,-0.2783203,-0.1982422,-0.112793
4441,47.125,13.125,-182.0625,1.574219,1.131836,0.1210938,-0.2685547,-0.2158203,-0.112793
4445,42.5625,33.375,-158.0625,1.585938,1.108398,0.2519531,-0.2626953,-0.2255859,-0.1113281
4449,36.75,49.25,-132.9375,1.496582,1.057617,0.3134766,-0.253418,-0.2392578,-0.112793
4453,29.5625,44.75,-107.125,1.198242,0.9916992,0.3056641,-0.2436523,-0.2504883,-0.1157227
4457,23.8125,10.5,-78.6875,1.078125,0.8984375,0.3520508,-0.2387695,-0.2558594,-0.1166992
4461,15.25,-20.8125,-50.6875,1.198242,0.9257813,0.4213867,-0.2353516,-0.2607422,-0.112793
4465,0.5625,-32.5625,-25.4375,1.384277,0.90625,0.4672852,-0.2329102,-0.265625,-0.1113281
4469,-13.375,-30.0625,-4.375,1.442383,0.8671875,0.4287109,-0.234375,-0.2670898,-0.112793
4473,-22.0625,-30.0625,22.125,1.442383,0.777832,0.3598633,-0.2329102,-0.2670898,-0.1098633
4477,-24.75,-30.0625,47.8125,1.469727,0.7666016,0.2944336,-0.237793,-0.2631836,-0.1088867
4481,-27.9375,-26.1875,73.1875,1.484863,0.7973633,0.2597656,-0.2402344,-0.2583008,-0.1074219
4485,-31.75,-20.5,95.625,1.454102,0.8598633,0.2402344,-0.2460938,-0.2519531,-0.1088867
4489,-37.875,-19.0625,116.5,1.376465,0.9023438,0.2172852,-0.253418,-0.2407227,-0.1098633
4493,-45.8125,-23.25,136.3125,1.341797,0.9492188,0.1943359,-0.2568359,-0.2358398,-0.1098633
4497,-50.6875,-27.1875,157.125,1.337891,0.9375,0.1674805,-0.2675781,-0.2216797,-0.1098633
4501,-49.4375,-25.5625,177.4375,1.384277,0.9375,0.1367188,-0.2758789,-0.2070313,-0.1098633
4506,-46.0625,-19.75,196.75,1.376465,0.9257813,0.1020508,-0.2807617,-0.1958008,-0.1113281
4510,-44.125,-13.9375,204.625,1.341797,0.9916992,0.03662109,-0.2900391,-0.1767578,-0.112793
4514,-44.0625,-4.3125,209.5,1.388184,0.953125,0.03662109,-0.2973633,-0.1542969,-0.1113281
4518,-43,16.9375,216.875,1.415527,0.9604492,0.009765625,-0.3032227,-0.1420898,-0.112793
4522,-40.5625,34.75,218.8125,1.283691,0.8945313,-0.001464844,-0.309082,-0.1196289,-0.1157227
4526,-38.5,39.875,222.4375,1.179199,0.8710938,-0.005371094,-0.3125,-0.09716797,-0.1196289
4530,-37.625,37.4375,225.0625,1.109375,0.824707,-0.005371094,-0.3139648,-0.08056641,-0.1225586
4534,-37.1875,40.9375,223.1875,1.140137,0.7817383,0.01367188,-0.3149414,-0.05810547,-0.1289063
4538,-37.75,49.8125,219.125,1.117188,0.7353516,0.02099609,-0.3139648,-0.03466797,-0.1318359
4542,-39.375,49.4375,221.375,1.02002,0.6962891,0.01367188,-0.3125,-0.02050781,-0.1347656
4546,-39.4375,40.125,225,0.9853516,0.5952148,0.01367188,-0.309082,0.001464844,-0.137207
4550,-35.625,40.9375,226.9375,1.05127,0.5449219,-0.001464844,-0.3041992,0.02392578,-0.1416016
4554,-33.5625,44.6875,222.0625,1.000488,0.5019531,0.02490234,-0.3032227,0.03857422,-0.1455078
4558,-34.25,48.1875,212.3125,1.008301,0.4204102,0.01708984,-0.2949219,0.06103516,-0.1494141
4562,-30.6875,53.625,209.5625,1.012207,0.3583984,0.01367188,-0.2841797,0.08105469,-0.1523438
4566,-28.8125,50.0625,212.25,0.8959961,0.3232422,0.009765625,-0.2783203,0.09521484,-0.1547852
4570,-27.5625,41.125,217.3125,0.8730469,0.2885742,0.02099609,-0.2685547,0.1123047,-0.15625
4574,-25.75,32.9375,216.9375,0.8999023,0.1914063,0.02490234,-0.2553711,0.1298828,-0.1577148
4578,-23.3125,31.625,209.5625,0.9350586,0.1445313,0.02099609,-0.2495117,0.1425781,-0.1606445
4582,-19.875,37.3125,205.9375,1.008301,0.07861328,0.01708984,-0.2363281,0.1601563,-0.1606445
4586,-14.6875,55.75,202.5,1.089844,0.004882813,-0.001464844,-0.222168,0.1748047,-0.1630859
4590,-5.625,76.6875,211.25,0.9892578,-0.05664063,-0.01318359,-0.2128906,0.1850586,-0.1645508
4594,-1.6875,81.6875,216.0625,0.7568359,-0.04541016,0.005859375,-0.1948242,0.1972656,-0.1713867
4598,-4.5,60.4375,211.25,0.4736328,-0.07226563,0.05566406,-0.1757813,0.2075195,-0.1767578
4602,-7.875,25.8125,210.9375,0.4155273,-0.1347656,0.1289063,-0.1650391,0.2163086,-0.1782227
4606,-15.1875,6.0625,208.75,0.5161133,-0.1459961,0.1674805,-0.1474609,0.2275391,-0.1782227
4610,-15.0625,6.5625,202.6875,0.5356445,-0.3364258,0.1865234,-0.1303711,0.2363281,-0.1767578
4614,-4,27.1875,200.8125,0.6328125,-0.371582,0.2094727,-0.1201172,0.2426758,-0.1782227
4618,1.5625,68.6875,194.25,0.5161133,-0.453125,0.1557617,-0.1010742,0.2475586,-0.1782227
4622,0.8125,111,176.75,0.3071289,-0.2939453,0.2021484,-0.08203125,0.2509766,-0.1821289
4626,-3.0625,126.0625,164.8125,-0.1186523,-0.355957,0.2060547,-0.06884766,0.2563477,-0.1850586
4630,-5.9375,99.6875,155.1875,-0.5488281,-0.387207,0.2060547,-0.04736328,0.2573242,-0.1865234
4635,-13.3125,52.875,139.125,-0.8046875,-0.46875,0.2172852,-0.02929688,0.2587891,-0.1875
4639,-17.4375,13.75,110.875,-0.8237305,-0.550293,0.2368164,-0.02001953,0.2573242,-0.1865234
4643,-18.8125,-9.4375,79.375,-0.715332,-0.5698242,0.2402344,-0.01025391,0.2612305,-0.1850586
4647,-19.5625,-13.375,54.0625,-0.6069336,-0.6435547,0.2133789,-0.006835938,0.2612305,-0.1821289
4651,-11.6875,-5.3125,25.125,-0.4946289,-0.7094727,0.2021484,-0.004394531,0.262207,-0.1835938
4655,-4.875,13.4375,-4.0625,-0.4130859,-0.7016602,0.159668,-0.0009765625,0.2636719,-0.1796875
4659,0.1875,26.1875,-31.4375,-0.4907227,-0.7016602,0.1289063,-0.0009765625,0.262207,-0.1806641
4663,6,23.8125,-59.375,-0.5410156,-0.7094727,0.1171875,-0.003417969,0.262207,-0.1782227
4667,7.3125,7.9375,-88.4375,-0.5371094,-0.6474609,0.125,-0.0078125,0.262207,-0.1806641
4671,4.5625,-13.125,-111.5625,-0.4482422,-0.6123047,0.1132813,-0.01757813,0.262207,-0.1806641
4675,7.4375,-27.75,-123.5625,-0.3242188,-0.6201172,0.1132813,-0.0234375,0.262207,-0.1821289
4679,10.75,-30.875,-136.8125,-0.2001953,-0.5966797,0.09814453,-0.0390625,0.262207,-0.1835938
4683,19.1875,-21.5,-154,-0.1069336,-0.5541992,0.1132813,-0.05322266,0.2612305,-0.1821289
4687,19.5625,-13.9375,-185.1875,-0.1030273,-0.4453125,0.140625,-0.06298828,0.2563477,-0.1835938
4691,19,-16.1875,-212,-0.04101563,-0.371582,0.1674805,-0.07958984,0.2524414,-0.1850586
4695,16.3125,-32,-223.6875,-0.002441406,-0.3173828,0.1713867,-0.09863281,0.2451172,-0.1865234
4699,19.625,-55.75,-215.4375,0.1557617,-0.2900391,0.1635742,-0.112793,0.2397461,-0.1835938
4703,25.625,-69.9375,-203.125,0.3339844,-0.2744141,0.1635742,-0.1318359,0.2324219,-0.1850586
4707,33.4375,-66.25,-198.3125,0.543457,-0.1967773,0.1674805,-0.1518555,0.2211914,-0.1806641
4711,30.9375,-42.1875,-213,0.6635742,-0.04150391,0.2021484,-0.1625977,0.2148438,-0.1850586
4715,22.5,-15,-240.9375,0.7216797,0.008789063,0.1943359,-0.1816406,0.2011719,-0.1835938
4719,19.4375,-5.4375,-258.1875,0.5356445,-0.02197266,0.2060547,-0.1982422,0.1850586,-0.1821289
4723,25.5625,-47.375,-255.3125,0.5126953,0.1020508,0.2094727,-0.2089844,0.1723633,-0.1821289
4727,28.8125,-95.0625,-214.875,0.7490234,0.1098633,0.1518555,-0.2270508,0.1547852,-0.1782227
4731,44.5625,-120.25,-179.125,0.9931641,0.05517578,0.125,-0.2436523,0.1401367,-0.1728516
4735,42.875,-90.9375,-176.4375,1.318359,0.3623047,0.140625,-0.253418,0.1298828,-0.1674805
4739,15.625,-24.5,-228.3125,1.411621,0.4477539,0.1635742,-0.2651367,0.1152344,-0.1616211
4743,9.9375,23.5625,-257.875,1.16748,0.1875,0.125,-0.2744141,0.09375,-0.1645508
4747,26.5625,11.625,-250.5625,0.7875977,0.2338867,0.1210938,-0.2807617,0.07763672,-0.1645508
4751,37.125,-43.75,-218.6875,0.7255859,0.3779297,0.09423828,-0.2841797,0.05615234,-0.1645508
4755,46.5,-85.1875,-180.8125,0.8999023,0.3662109,0.06738281,-0.293457,0.03515625,-0.1616211
4759,58.25,-88.9375,-169.75,1.163574,0.4985352,0.05957031,-0.2973633,0.02392578,-0.1547852
4764,48.0625,-50.875,-186.3125,1.237305,0.6655273,0.05566406,-0.3056641,0.004882813,-0.1484375
4768,41.5,-25.9375,-217.75,1.113281,0.6577148,0.05957031,-0.3081055,-0.01464844,-0.1416016
4772,40.125,-25.6875,-223.0625,0.9970703,0.6694336,0.02880859,-0.309082,-0.03173828,-0.144043
4776,47,-41.5625,-208.875,0.9155273,0.6845703,0.01708984,-0.309082,-0.0546875,-0.1401367
4780,51.0625,-56.125,-194.0625,0.9077148,0.7353516,-0.001464844,-0.3081055,-0.07421875,-0.1357422
4784,54.4375,-56.375,-188.5625,1.004395,0.809082,-0.01660156,-0.3105469,-0.08837891,-0.1333008
4788,54.9375,-31.9375,-200.375,1.097656,0.9296875,0.04052734,-0.3081055,-0.1069336,-0.1279297
4792,46,1.4375,-233.3125,1.004395,1.100586,0.07128906,-0.3032227,-0.1308594,-0.1235352
4796,29.6875,-8.5,-256.6875,0.7797852,1.236328,0.05566406,-0.2983398,-0.1469727,-0.1235352
4800,14.25,-55.9375,-252.25,0.7836914,1.255859,0.01367188,-0.2900391,-0.1704102,-0.1210938
4804,10.5625,-100,-227.5625,1.140137,1.275391,0.03662109,-0.2817383,-0.1918945,-0.112793
4808,9.1875,-97,-197.125,1.628418,1.240234,0.06347656,-0.2768555,-0.2045898,-0.105957
4812,8.5,-45.0625,-174.9375,1.942383,1.13916,0.04785156,-0.2724609,-0.2216797,-0.09912109
4816,12.375,28.5,-158.9375,1.961914,0.9760742,0.009765625,-0.2602539,-0.2368164,-0.09521484
4820,21.75,89.1875,-142.375,1.740723,0.8598633,-0.01318359,-0.2553711,-0.2441406,-0.1005859
4824,34.9375,112.1875,-111.1875,1.481445,0.7739258,0.05566406,-0.2436523,-0.2543945,-0.1044922
4828,45.25,103.5625,-67.5625,1.322266,0.890625,0.2441406,-0.2353516,-0.2631836,-0.112793
4832,39.125,81.0625,-21.375,1.233398,1.01123,0.425293,-0.2294922,-0.2670898,-0.1098633
4836,24.6875,49,18.125,1.140137,1.057617,0.4941406,-0.2255859,-0.2719727,-0.1157227
4840,9.125,16.1875,46.625,1.113281,1.06543,0.5327148,-0.2270508,-0.2680664,-0.1181641
4844,-6.875,-16.3125,70.25,1.179199,1.015137,0.5327148,-0.2294922,-0.2670898,-0.1166992
4848,-16.9375,-38.8125,104.875,1.287598,1.034668,0.5097656,-0.2353516,-0.2607422,-0.1157227
4852,-25.875,-46.5625,134.75,1.349609,1.057617,0.4672852,-0.2426758,-0.2504883,-0.112793
4856,-34.6875,-44.5625,151.25,1.357422,1.081055,0.4018555,-0.2495117,-0.2416992,-0.112793
4860,-42.3125,-39.5625,161.4375,1.330078,1.092773,0.340332,-0.2602539,-0.2294922,-0.112793
4864,-44.5,-37.375,172.0625,1.306641,1.045898,0.2709961,-0.2709961,-0.2128906,-0.1113281
4868,-47.5625,-36.3125,185.875,1.279785,1.088867,0.2094727,-0.2783203,-0.203125,-0.1098633
4872,-52.1875,-32.5,199.4375,1.287598,1.077148,0.1557617,-0.2866211,-0.1845703,-0.1098633
4876,-52.625,-28.5625,214.0625,1.287598,0.972168,0.105957,-0.2973633,-0.1630859,-0.1088867
4880,-53.75,-19,214.75,1.318359,1.01123,0.07128906,-0.3017578,-0.1479492,-0.1074219
4884,-60.0625,-7.75,209.6875,1.345703,0.9257813,0.02099609,-0.3081055,-0.1269531,-0.1098633
4888,-52.75,6.375,213.875,1.399902,0.7739258,-0.02050781,-0.3125,-0.1030273,-0.1088867
4893,-42.625,19.6875,227.75,1.345703,0.7666016,-0.06298828,-0.3173828,-0.09082031,-0.1113281
4897,-34.4375,20.875,245.4375,1.279785,0.7353516,-0.07470703,-0.3198242,-0.06689453,-0.112793
4901,-28.6875,29.3125,248.6875,1.233398,0.7509766,-0.05517578,-0.3198242,-0.03955078,-0.1166992
4905,-30,39.375,241.25,1.198242,0.6694336,-0.09765625,-0.3188477,-0.02441406,-0.1166992
4909,-22.5625,59.9375,238.8125,1.128418,0.5136719,-0.08984375,-0.3164063,0.001464844,-0.1210938
4913,-15.0625,70.1875,232.0625,0.9501953,0.5019531,-0.05908203,-0.3115234,0.02392578,-0.1279297
4917,-15.875,66.625,225.875,0.8457031,0.5253906,-0.04394531,-0.3056641,0.03857422,-0.1333008
4921,-17.6875,57.375,228.5,0.7680664,0.4516602,-0.02441406,-0.2983398,0.06103516,-0.1386719
4925,-17.5,42.3125,222.0625,0.7138672,0.4204102,-0.001464844,-0.2900391,0.08105469,-0.1416016
4929,-23.9375,30.8125,206.5,0.7451172,0.3896484,-0.005371094,-0.2851563,0.09521484,-0.1425781
4933,-23.6875,22.6875,191.25,0.7993164,0.269043,0.01367188,-0.2734375,0.1123047,-0.1469727
4937,-18.1875,12.625,189.3125,0.9501953,0.237793,-0.001464844,-0.2651367,0.1289063,-0.1455078
4941,-12.25,6.8125,210.625,1.023926,0.1796875,-0.005371094,-0.2568359,0.1386719,-0.1469727
4945,-4.4375,8.75,235.8125,1.132324,0.1992188,0.009765625,-0.2485352,0.1586914,-0.1484375
4949,-2.75,36.6875,238.125,1.194336,0.140625,0.009765625,-0.2319336,0.1762695,-0.1508789
4953,-4.5625,88,224.8125,1.074219,0.07861328,-0.02832031,-0.2211914,0.1850586,-0.1523438
4957,-7.4375,125.625,212.0625,0.7602539,0.04736328,-0.02832031,-0.2045898,0.2026367,-0.1606445
4961,-7.0625,130.875,218.125,0.4736328,-0.01416016,-0.02832031,-0.1791992,0.2124023,-0.1660156
4965,-4,103.75,235.4375,0.125,-0.1152344,-0.01318359,-0.1674805,0.2226563,-0.1699219
4969,0.75,59.625,244.375,-0.06835938,-0.1420898,0.06738281,-0.1435547,0.2314453,-0.175293
4973,-4,20.4375,227,-0.1962891,-0.2124023,0.1098633,-0.1210938,0.2426758,-0.1782227
4977,-5.75,-6.8125,201.625,-0.1650391,-0.3676758,0.159668,-0.1103516,0.2475586,-0.1767578
4981,1.25,-13.9375,179.5,-0.1030273,-0.453125,0.1787109,-0.09375,0.2524414,-0.1767578
4985,6.125,6.625,160.375,-0.06835938,-0.4414063,0.2094727,-0.07958984,0.2548828,-0.1782227
4989,5.75,31.8125,132.3125,-0.2773438,-0.5,0.2329102,-0.06982422,0.2587891,-0.1782227
4993,7.4375,40.5625,107.25,-0.5488281,-0.5581055,0.2250977,-0.05664063,0.2587891,-0.1796875
4997,10.625,31.375,76.875,-0.7387695,-0.5424805,0.2597656,-0.04833984,0.2612305,-0.1806641
5001,3.3125,13.1875,34.4375,-0.8549805,-0.534668,0.2709961,-0.04248047,0.2597656,-0.1821289
5005,-1.5,-1.875,-9.875,-0.8198242,-0.581543,0.3017578,-0.0390625,0.2612305,-0.1806641
5009,-6.8125,-9.9375,-57.4375,-0.7114258,-0.5581055,0.2944336,-0.04248047,0.2597656,-0.1821289
5013,-12,-14.6875,-89,-0.5488281,-0.550293,0.2827148,-0.04589844,0.2597656,-0.1806641
5017,-12.3125,-16.9375,-114.25,-0.3935547,-0.6005859,0.2480469,-0.05664063,0.2597656,-0.1796875
5022,-6.875,-18.8125,-137.0625,-0.2348633,-0.5966797,0.2133789,-0.06738281,0.2587891,-0.1767578
5026,-2.1875,-17.8125,-155,-0.05273438,-0.5541992,0.2021484,-0.07714844,0.2563477,-0.1767578
5030,-1.25,-16.4375,-172.9375,0.03564453,-0.4921875,0.1982422,-0.09130859,0.2524414,-0.1767578
5034,1.5625,-20.9375,-185.8125,0.1328125,-0.4882813,0.1787109,-0.109375,0.2475586,-0.1767578
5038,4.125,-29.125,-191.3125,0.2451172,-0.3754883,0.1557617,-0.1176758,0.2436523,-0.1738281
5042,5.0625,-34.125,-181.5625,0.4311523,-0.4296875,0.140625,-0.1367188,0.2363281,-0.1728516
5046,19.125,-29,-175.4375,0.578125,-0.4492188,0.125,-0.1518555,0.2275391,-0.1713867
5050,23,-7.0625,-185.9375,0.6713867,-0.1655273,0.1982422,-0.1640625,0.2211914,-0.1728516
5054,7.375,13.9375,-203.125,0.659668,-0.2509766,0.140625,-0.1757813,0.2114258,-0.175293
5058,23.9375,24.875,-207.9375,0.5395508,-0.402832,0.159668,-0.1889648,0.1987305,-0.175293
5062,34.8125,10,-204,0.5473633,-0.1616211,0.1479492,-0.199707,0.1899414,-0.1767578
5066,39.875,-8.8125,-178.1875,0.6132813,-0.2045898,0.144043,-0.2104492,0.1748047,-0.1796875
5070,60.3125,-31.8125,-158.6875,0.6401367,-0.1733398,0.1367188,-0.2211914,0.1625977,-0.1806641
5074,60.875,-45.9375,-164.6875,0.8613281,0.1601563,0.2329102,-0.2294922,0.1523438,-0.1821289
5078,31.125,-26.25,-196.75,0.9931641,0.2768555,0.1289063,-0.2387695,0.1362305,-0.1782227
5082,19.25,-1.6875,-222.9375,0.9580078,0.01660156,0.1635742,-0.2509766,0.1201172,-0.1767578
5086,32.75,8.125,-212.375,0.7602539,0.0009765625,0.105957,-0.2578125,0.1074219,-0.1796875
5090,51.625,-16.4375,-198.0625,0.5976563,0.04003906,0.140625,-0.2651367,0.08984375,-0.1821289
5094,66.3125,-65.75,-178.3125,0.659668,0.237793,0.1289063,-0.2724609,0.07128906,-0.1806641
5098,61.25,-90.0625,-168.9375,1.070313,0.7001953,0.2021484,-0.2783203,0.05761719,-0.1782227
5102,19.25,-60.5,-198.8125,1.241211,0.7236328,0.140625,-0.2851563,0.04150391,-0.1728516
5106,18.0625,-24.3125,-215.625,1.105469,0.3271484,0.1210938,-0.293457,0.02246094,-0.1660156
5110,38.125,-12.4375,-217.3125,0.8769531,0.3896484,0.05566406,-0.2958984,0.01025391,-0.1674805
5114,50.9375,-32.125,-210.875,0.7294922,0.5332031,0.03271484,-0.2973633,-0.01318359,-0.1660156
5118,59.3125,-63.9375,-192.125,0.690918,0.6264648,-0.001464844,-0.3007813,-0.03466797,-0.1616211
5122,62.0625,-92.4375,-187.375,0.8183594,0.8442383,-0.01318359,-0.3017578,-0.04833984,-0.15625
5126,49.3125,-89.625,-186.875,1.035645,0.9335938,-0.02050781,-0.3056641,-0.06689453,-0.1484375
5130,50.6875,-72.6875,-188.5,1.085938,0.809082,-0.02050781,-0.3066406,-0.08691406,-0.1386719
5134,63.375,-47.625,-194.5625,1.109375,0.8442383,-0.04003906,-0.3056641,-0.1005859,-0.1347656
5138,72.25,-15.8125,-206.25,1.082031,0.9799805,-0.05126953,-0.3041992,-0.1206055,-0.1289063
5142,73.25,0.4375,-220.6875,0.8959961,1.174316,0.009765625,-0.2973633,-0.1445313,-0.1264648
5146,55.9375,-9,-238.0625,0.8110352,1.399902,0.03662109,-0.2915039,-0.1591797,-0.125
5151,41.25,-31.6875,-247.9375,1.000488,1.294922,0.144043,-0.2827148,-0.1831055,-0.1210938
5155,43.3125,-37.8125,-238.5625,1.341797,1.395996,0.1943359,-0.2724609,-0.2055664,-0.1157227
5159,29.9375,-24.1875,-200.4375,1.523926,1.418945,0.2021484,-0.2661133,-0.2192383,-0.112793
5163,22.9375,-6.9375,-160.75,1.473633,1.189941,0.1210938,-0.2553711,-0.2358398,-0.1098633
5167,25.25,2,-132.4375,1.357422,1.01123,0.05957031,-0.2470703,-0.2495117,-0.1088867
5171,27.3125,11.8125,-110.6875,1.322266,0.9414063,0.07128906,-0.2426758,-0.2558594,-0.1088867
5175,32.3125,23.375,-89.6875,1.209961,0.8481445,0.1674805,-0.2353516,-0.265625,-0.1088867
5179,38.3125,29.9375,-65.1875,1.066406,0.9023438,0.2368164,-0.2280273,-0.2719727,-0.1074219
5183,32.875,28.0625,-48.125,0.9389648,0.953125,0.3095703,-0.2270508,-0.2753906,-0.105957
5187,22.4375,16.0625,-36.9375,0.8574219,0.9414063,0.3442383,-0.2246094,-0.2792969,-0.105957
5191,11.125,-3.4375,-28.625,0.8300781,0.9492188,0.3671875,-0.2211914,-0.2817383,-0.105957
5195,-1.375,-23.875,-11.5625,0.9931641,0.921875,0.375,-0.21875,-0.2832031,-0.105957
5199,-10.5,-35.3125,12.375,1.128418,0.9296875,0.3330078,-0.2197266,-0.2832031,-0.1020508
5203,-21.625,-45.5625,38.5,1.233398,0.9492188,0.2441406,-0.222168,-0.2807617,-0.1035156
5207,-27.4375,-54.0625,71.8125,1.376465,0.9140625,0.1904297,-0.2255859,-0.2792969,-0.09912109
5211,-30.75,-58.25,102.625,1.500488,0.9682617,0.1635742,-0.2319336,-0.2705078,-0.09912109
5215,-38.1875,-56.25,133.125,1.597656,1.007324,0.125,-0.2412109,-0.2607422,-0.09667969
5219,-38.9375,-52.25,169.8125,1.620605,0.9838867,0.08642578,-0.2485352,-0.2543945,-0.09521484
5223,-32.875,-48.25,202.25,1.640137,0.9995117,0.06738281,-0.2592773,-0.2392578,-0.09228516
5227,-27.3125,-39.625,229.4375,1.686523,1.073242,0.04052734,-0.2734375,-0.2192383,-0.08837891
5231,-21.75,-16.5,248.5625,1.744629,1.120117,0.05566406,-0.2817383,-0.2055664,-0.08984375
5235,-24.125,22.9375,243.375,1.729004,1.143066,0.009765625,-0.2915039,-0.1831055,-0.08837891
5239,-21.6875,60.875,234.9375,1.585938,0.9956055,-0.03222656,-0.3007813,-0.1582031,-0.09521484
5243,-15.125,80.9375,244.875,1.388184,1.007324,-0.05908203,-0.3056641,-0.1445313,-0.09765625
5247,-12.75,82.6875,257.1875,1.186523,0.8984375,-0.02832031,-0.3105469,-0.1196289,-0.105957
5251,-7.625,86.6875,257.875,1.147949,0.8168945,-0.02441406,-0.3139648,-0.09423828,-0.1157227
5255,-14.375,100.25,233.875,1.059082,0.8984375,-0.009277344,-0.3125,-0.078125,-0.1210938
5259,-24.4375,94.25,215.3125,0.9814453,0.8168945,0.02099609,-0.3125,-0.0546875,-0.1318359
5263,-29.125,69.75,219.3125,0.9389648,0.8129883,0.05175781,-0.309082,-0.03564453,-0.1401367
5267,-33.5,45.375,240.3125,1.113281,0.855957,0.07910156,-0.3081055,-0.02050781,-0.144043
5271,-37.3125,42.125,266.3125,1.202148,0.7548828,0.02880859,-0.3041992,0.004882813,-0.1455078
5275,-30.3125,57.625,261.5,1.175293,0.6772461,0.005859375,-0.2983398,0.03027344,-0.1523438
