Packet number,Gyroscope X (deg/s),Gyroscope Y (deg/s),Gyroscope Z (deg/s),Accelerometer X (g),Accelerometer Y (g),Accelerometer Z (g),Magnetometer X (G),Magnetometer Y (G),Magnetometer Z (G)
0,2.1875,-3.3125,4.5,0.9853516,0.171875,0.02099609,-0.2998047,-0.140625,-0.1181641
4,3.25,-3.375,4.25,0.9970703,0.171875,0.009765625,-0.3017578,-0.140625,-0.1181641
8,2.75,-2.8125,5.0625,0.9970703,0.171875,0.02099609,-0.3007813,-0.1420898,-0.1166992
12,1.0625,-2.25,5.6875,1.000488,0.1835938,0.02099609,-0.3032227,-0.140625,-0.1166992
16,-0.875,-0.6875,5.125,0.9970703,0.1757813,0.01367188,-0.3007813,-0.1396484,-0.1166992
20,-2.3125,0.125,5.1875,1.000488,0.15625,0.02099609,-0.3007813,-0.1420898,-0.1166992
24,-2.4375,0.5625,5.375,0.9931641,0.1293945,0.009765625,-0.3017578,-0.1381836,-0.1157227
28,-1.3125,1.1875,5.8125,0.9931641,0.1137695,-0.001464844,-0.3032227,-0.1381836,-0.1166992
32,0.9375,1.3125,6.375,0.9853516,0.1020508,-0.005371094,-0.3017578,-0.1381836,-0.1181641
36,3,1.5625,7.625,0.9931641,0.09814453,-0.01660156,-0.3032227,-0.1381836,-0.1166992
40,3.375,2.25,8.8125,1.000488,0.1020508,-0.01660156,-0.3041992,-0.1367188,-0.1181641
44,2.8125,2.25,10.3125,0.9853516,0.09814453,-0.03613281,-0.3041992,-0.1357422,-0.1181641
48,2.1875,2.375,13.75,0.9931641,0.09033203,-0.02832031,-0.3017578,-0.1357422,-0.1181641
52,1.8125,1.4375,14.125,0.9853516,0.09814453,-0.05517578,-0.3041992,-0.1333008,-0.1196289
57,0.8125,1.4375,14.375,0.9892578,0.1176758,-0.05126953,-0.3066406,-0.1318359,-0.1181641
61,-1.0625,1.6875,14.875,0.9853516,0.1176758,-0.05908203,-0.3056641,-0.1279297,-0.1196289
65,-2.9375,-0.4375,16.4375,0.9580078,0.1020508,-0.06298828,-0.3066406,-0.1269531,-0.1196289
69,-1.5625,-1.1875,16.9375,0.9736328,0.08642578,-0.0859375,-0.3066406,-0.1269531,-0.1196289
73,3.375,-4.0625,19.6875,0.9931641,0.1640625,-0.03222656,-0.3081055,-0.1254883,-0.1196289
77,7.5625,-3,19.3125,1.055176,0.3740234,0.03271484,-0.3066406,-0.1230469,-0.1196289
81,3.25,2.3125,2.375,1.078125,0.5878906,0.03271484,-0.3081055,-0.1220703,-0.1181641
85,-13.5625,7.0625,-12.0625,1.101563,0.7739258,0.04052734,-0.3081055,-0.1230469,-0.1166992
89,-31.0625,11.6875,-22.8125,1.078125,0.7236328,0.05175781,-0.3056641,-0.1245117,-0.1210938
93,-24.5625,9.625,-30.75,1.059082,0.7392578,0.03271484,-0.3066406,-0.1254883,-0.1210938
97,-9.6875,6,-48.6875,1.027832,0.824707,0.04052734,-0.3032227,-0.1308594,-0.1210938
101,8.8125,6.375,-65.1875,1.078125,0.8442383,0.05957031,-0.2998047,-0.1342773,-0.1225586
105,33.125,6.875,-77.875,1.140137,0.9414063,0.02099609,-0.2998047,-0.1396484,-0.1225586
109,49,8.875,-94.5625,1.206055,1.189941,-0.005371094,-0.293457,-0.1518555,-0.1210938
113,42.3125,11.0625,-112.3125,1.186523,1.337402,-0.04003906,-0.2915039,-0.1630859,-0.1157227
117,16.5625,10.125,-122.625,1.194336,1.415039,-0.07080078,-0.2851563,-0.171875,-0.1166992
121,-15,5.875,-126.125,1.206055,1.39209,-0.1206055,-0.2817383,-0.1821289,-0.1157227
125,-43.875,0.75,-128.125,1.241211,1.337402,-0.1435547,-0.2744141,-0.1943359,-0.1196289
129,-65.4375,-0.6875,-132.4375,1.310547,1.275391,-0.1401367,-0.2700195,-0.1992188,-0.1210938
133,-82.6875,0.375,-136.1875,1.372559,1.197754,-0.1166992,-0.2636719,-0.2094727,-0.1235352
137,-95.4375,3.4375,-142.3125,1.42334,1.154785,-0.09375,-0.2578125,-0.2182617,-0.1279297
141,-101.5,6,-147.8125,1.46582,1.049805,-0.05908203,-0.253418,-0.2231445,-0.1333008
145,-97.5,7.9375,-153.5625,1.535645,0.9760742,-0.01660156,-0.2436523,-0.2304688,-0.1386719
149,-85.625,12.25,-160.625,1.570313,0.9453125,0.01708984,-0.2363281,-0.2416992,-0.144043
153,-74.75,16.125,-170.9375,1.585938,0.956543,0.03271484,-0.2304688,-0.2470703,-0.1484375
157,-73.6875,23.1875,-179.25,1.597656,0.9375,0.04052734,-0.2211914,-0.2568359,-0.1523438
161,-71.625,28.75,-181.6875,1.508301,0.8286133,0.02099609,-0.2080078,-0.2670898,-0.1630859
165,-60.6875,26.4375,-177.375,1.438477,0.8012695,0.009765625,-0.1982422,-0.2744141,-0.1660156
169,-50.6875,22.4375,-178.8125,1.438477,0.8598633,0.009765625,-0.1855469,-0.2841797,-0.1728516
173,-42,20.8125,-180.8125,1.442383,0.9492188,0.03662109,-0.1733398,-0.2919922,-0.1738281
177,-44.3125,15.4375,-189.5,1.380371,1.04248,0.06738281,-0.1625977,-0.2993164,-0.1782227
181,-51.375,11.1875,-191.6875,1.380371,1.015137,0.1098633,-0.1450195,-0.3095703,-0.1821289
186,-51.9375,10.1875,-190.0625,1.349609,0.9296875,0.1518555,-0.128418,-0.3154297,-0.1865234
190,-42.75,13.5,-194.6875,1.380371,0.8710938,0.1748047,-0.1176758,-0.3178711,-0.1889648
194,-28.875,18.25,-196.625,1.357422,0.840332,0.1865234,-0.1010742,-0.3256836,-0.1943359
198,-22.5,19.6875,-195.1875,1.252441,0.8945313,0.1674805,-0.08056641,-0.3330078,-0.1972656
202,-26.1875,18.125,-189.75,1.171387,0.8867188,0.1943359,-0.06982422,-0.3330078,-0.1987305
206,-32.8125,18.5,-178.75,1.13623,0.8867188,0.1865234,-0.05322266,-0.3378906,-0.2011719
210,-37.125,24.25,-178,1.128418,0.921875,0.2021484,-0.03515625,-0.3378906,-0.2026367
214,-46.75,28.0625,-181.625,1.082031,0.9375,0.1865234,-0.02099609,-0.3393555,-0.206543
218,-59.6875,30.75,-186.25,1.035645,0.8520508,0.1865234,-0.004394531,-0.3354492,-0.2109375
222,-69.5,38.625,-187.8125,0.9931641,0.6845703,0.1904297,0.01513672,-0.3330078,-0.2177734
226,-73.125,44.625,-180.875,0.8881836,0.5566406,0.1748047,0.02734375,-0.3291016,-0.2202148
230,-76.9375,47.8125,-172.5,0.8339844,0.4672852,0.1518555,0.04638672,-0.3232422,-0.2270508
234,-79,51.8125,-158.75,0.7021484,0.3896484,0.1518555,0.06542969,-0.3129883,-0.2324219
238,-78.5625,52.125,-150.125,0.574707,0.3427734,0.08251953,0.07470703,-0.3105469,-0.2368164
242,-78,47.5,-145.5625,0.4697266,0.2963867,0.05957031,0.09033203,-0.2983398,-0.2407227
246,-84.1875,46.9375,-144.3125,0.4350586,0.2148438,0.05175781,0.1035156,-0.2895508,-0.2460938
250,-90.8125,50.625,-136.4375,0.3417969,0.06298828,0.05957031,0.1142578,-0.2807617,-0.2514648
254,-84.1875,50.4375,-123.5625,0.1791992,-0.1538086,0.02880859,0.1269531,-0.2670898,-0.2543945
258,-62.375,47.625,-116.5,0.03955078,-0.2939453,-0.001464844,0.1376953,-0.2558594,-0.2583008
262,-45.6875,41.8125,-110.5625,-0.03710938,-0.1347656,0.04052734,0.1459961,-0.2495117,-0.2558594
266,-33.5,36.75,-91.6875,-0.1225586,-0.3754883,0.005859375,0.1557617,-0.2407227,-0.2597656
270,-29.375,33.25,-74.6875,-0.2231445,-0.4101563,-0.009277344,0.1630859,-0.2358398,-0.2583008
274,-21.5625,26.875,-58.6875,-0.3354492,-0.4726563,-0.01318359,0.1665039,-0.2304688,-0.2597656
278,-10.25,16.0625,-40.75,-0.3666992,-0.4492188,-0.009277344,0.1713867,-0.2255859,-0.2583008
282,1.1875,10.25,-28.5625,-0.3588867,-0.3950195,0.03271484,0.1738281,-0.2231445,-0.2558594
286,11.875,6.9375,-21.0625,-0.3974609,-0.3598633,0.05175781,0.1748047,-0.2207031,-0.2558594
290,17.75,0.875,-12.5625,-0.3901367,-0.3056641,0.07910156,0.1782227,-0.2231445,-0.2558594
294,15.25,-2.75,-0.1875,-0.3510742,-0.2587891,0.1020508,0.1757813,-0.2231445,-0.2543945
298,10,-3.625,13.4375,-0.3393555,-0.2548828,0.1210938,0.1772461,-0.2231445,-0.2529297
302,8.625,-7.9375,29.125,-0.3588867,-0.3056641,0.105957,0.1757813,-0.2255859,-0.2543945
306,17.4375,-11.625,42.6875,-0.3549805,-0.3364258,0.08642578,0.1738281,-0.2280273,-0.2543945
310,33.75,-17.5625,53.1875,-0.3320313,-0.3208008,0.09814453,0.1699219,-0.2304688,-0.2543945
315,51.1875,-20.375,62.3125,-0.2543945,-0.2392578,0.1328125,0.1665039,-0.2368164,-0.2543945
319,65.5625,-20.25,70.875,-0.2192383,-0.1499023,0.1635742,0.1606445,-0.2456055,-0.25
323,73.6875,-21.4375,81.25,-0.1767578,-0.02587891,0.1713867,0.1582031,-0.2495117,-0.2475586
327,75.125,-24.5625,91.6875,-0.07617188,0.09033203,0.1674805,0.1508789,-0.2617188,-0.2446289
331,69.6875,-26,102.625,0.01660156,0.1875,0.1674805,0.1416016,-0.2705078,-0.2436523
335,58.5,-24.25,112.625,0.1132813,0.2456055,0.1865234,0.1357422,-0.2768555,-0.2392578
339,44.875,-24.25,125.1875,0.1635742,0.3081055,0.2021484,0.1259766,-0.2866211,-0.2353516
343,30,-18.5625,133.625,0.2607422,0.3583984,0.2290039,0.112793,-0.2929688,-0.2338867
347,13.9375,-14.8125,142.25,0.2954102,0.3857422,0.2060547,0.105957,-0.2993164,-0.2324219
351,0.25,-14.8125,152.1875,0.3188477,0.3583984,0.1635742,0.09375,-0.3066406,-0.230957
355,1,-19,159.4375,0.3999023,0.2924805,0.1557617,0.08056641,-0.3081055,-0.230957
359,11,-22.25,162.75,0.4892578,0.2807617,0.1674805,0.07128906,-0.3144531,-0.230957
363,22,-24.5,165.625,0.5859375,0.3081055,0.1865234,0.05566406,-0.3178711,-0.230957
367,30.125,-23.6875,171.375,0.6635742,0.3310547,0.1826172,0.04150391,-0.3232422,-0.2299805
371,43.875,-24.1875,182.75,0.6982422,0.3544922,0.1713867,0.02832031,-0.3232422,-0.2270508
375,61.0625,-27.5625,188.125,0.8110352,0.4750977,0.1479492,0.01074219,-0.328125,-0.2231445
379,66.5,-29.5625,190.125,0.9658203,0.6420898,0.1518555,-0.006835938,-0.3330078,-0.2148438
383,55.375,-26.75,192.6875,1.078125,0.7817383,0.1479492,-0.01855469,-0.3330078,-0.2148438
387,40.8125,-24.3125,196.3125,1.09375,0.7817383,0.1674805,-0.03759766,-0.3330078,-0.2080078
391,36.25,-25.6875,198.3125,1.09375,0.7119141,0.1479492,-0.05810547,-0.3320313,-0.2055664
395,43.1875,-29.125,200.125,1.163574,0.6811523,0.1328125,-0.06884766,-0.3291016,-0.199707
399,49.875,-30.5625,199.0625,1.260254,0.7587891,0.09814453,-0.08886719,-0.3242188,-0.199707
403,51.4375,-32.75,201.875,1.314453,0.7666016,0.1098633,-0.1079102,-0.3232422,-0.1943359
407,56.4375,-31.25,201.0625,1.388184,0.7856445,0.07910156,-0.1201172,-0.3168945,-0.1889648
411,65.25,-32.625,200.875,1.430664,0.809082,0.04785156,-0.1391602,-0.3066406,-0.1821289
415,73.3125,-34.25,195.625,1.492676,0.9140625,0.02099609,-0.1567383,-0.3017578,-0.1767578
419,74.6875,-32.75,188.75,1.527832,1.003418,-0.01660156,-0.1674805,-0.296875,-0.1699219
423,63.25,-33.6875,183.4375,1.492676,1.084961,-0.03222656,-0.184082,-0.2895508,-0.1645508
427,43.1875,-35.0625,181.375,1.426758,1.049805,-0.03222656,-0.1972656,-0.2768555,-0.1591797
431,32.125,-38.9375,186.75,1.419434,0.9414063,-0.04736328,-0.206543,-0.2705078,-0.1547852
435,30.0625,-46.25,188.5625,1.442383,0.921875,-0.09765625,-0.222168,-0.2592773,-0.1508789
439,33,-56.125,186.25,1.535645,0.8984375,-0.09765625,-0.2329102,-0.2441406,-0.1455078
444,39.625,-58.1875,181.5625,1.624512,0.9799805,-0.07470703,-0.2412109,-0.2358398,-0.1416016
448,37,-54.75,164.75,1.628418,1.120117,-0.03613281,-0.2543945,-0.2231445,-0.1347656
452,13.9375,-50,152.875,1.535645,1.12793,-0.02441406,-0.2636719,-0.2128906,-0.1279297
456,-15.3125,-50.8125,155.4375,1.500488,0.9257813,0.04052734,-0.2685547,-0.203125,-0.1264648
460,-29.0625,-48.9375,168.5625,1.473633,0.7392578,0.04785156,-0.2783203,-0.1870117,-0.1225586
464,-3,-48.875,173.3125,1.481445,0.6342773,0.005859375,-0.2851563,-0.171875,-0.1181641
468,44.5625,-49.375,156.125,1.508301,0.7666016,-0.005371094,-0.2924805,-0.1630859,-0.1157227
472,71.6875,-41.25,129.4375,1.527832,0.9760742,0.01367188,-0.2983398,-0.1479492,-0.1098633
476,77.1875,-28.0625,108.875,1.458008,0.9760742,0.009765625,-0.3041992,-0.1381836,-0.105957
480,79.875,-21.6875,100.625,1.337891,0.8208008,-0.03222656,-0.3081055,-0.1357422,-0.105957
484,102.1875,-17.4375,115.8125,1.380371,0.6616211,-0.02441406,-0.3149414,-0.1279297,-0.1020508
488,141.625,-5.1875,147.75,1.388184,1.283203,-0.001464844,-0.3198242,-0.1196289,-0.1035156
492,3.125,44.1875,49.4375,1.938477,5.584473,0.2597656,-0.3271484,-0.1142578,-0.1044922
496,-110.25,26.8125,48.5625,1.132324,2.208008,-0.09375,-0.3271484,-0.1083984,-0.1074219
500,-142.9375,26.375,45.125,0.9736328,1.314453,-0.309082,-0.324707,-0.09960938,-0.112793
504,-174.4375,-0.5,48.75,0.8881836,0.9838867,-0.2246094,-0.3232422,-0.09179688,-0.112793
508,-146.875,-9.3125,5.5625,1.16748,0.8520508,-0.06689453,-0.3232422,-0.08300781,-0.1142578
512,-93.1875,2.3125,-58.5,1.357422,0.8012695,0.06347656,-0.3222656,-0.08203125,-0.1113281
516,-48.8125,13,-107.875,1.419434,0.9179688,0.07910156,-0.3164063,-0.08447266,-0.1113281
520,-37.9375,11.875,-134.1875,1.454102,0.9995117,0.09033203,-0.3164063,-0.09570313,-0.1113281
524,-50.0625,12.3125,-136.375,1.620605,1.04248,0.1367188,-0.3115234,-0.1083984,-0.112793
528,-73.5,18.6875,-120.4375,1.713867,1.077148,0.1904297,-0.3056641,-0.1157227,-0.112793
532,-91.375,27.3125,-111.1875,1.775879,1.154785,0.1904297,-0.3032227,-0.1220703,-0.1166992
536,-92.5,37.9375,-122,1.880371,1.178223,0.2172852,-0.3007813,-0.1308594,-0.1210938
540,-71.375,55.6875,-154.5625,1.96582,1.154785,0.1865234,-0.2958984,-0.1367188,-0.125
544,-48.75,72.125,-187.8125,1.930664,1.178223,0.09814453,-0.2915039,-0.1494141,-0.1303711
548,-40.9375,76.0625,-209.125,1.89209,1.135742,0.01367188,-0.2827148,-0.1645508,-0.1416016
552,-41,77.6875,-208.5625,1.954102,1.100586,-0.03613281,-0.2758789,-0.1782227,-0.1469727
556,-52.125,73.3125,-203.75,1.942383,1.178223,-0.06298828,-0.2636719,-0.1982422,-0.1547852
560,-70.6875,72.8125,-207.875,2.000488,1.193848,-0.06689453,-0.2519531,-0.2094727,-0.1630859
564,-78.6875,80.125,-222.25,1.969238,1.073242,-0.09765625,-0.2436523,-0.2192383,-0.168457
568,-76.125,80.0625,-236.5625,1.86084,0.956543,-0.128418,-0.2270508,-0.2358398,-0.1806641
573,-76.9375,74.5,-243.75,1.89209,0.875,-0.1362305,-0.2104492,-0.2495117,-0.1889648
577,-92.1875,68.5625,-237.75,1.93457,0.7705078,-0.1015625,-0.1972656,-0.2592773,-0.1958008
581,-113.125,70.875,-220.625,1.884277,0.5722656,-0.04003906,-0.1757813,-0.2695313,-0.2080078
585,-118.0625,76.5625,-203.25,1.768066,0.3857422,-0.02832031,-0.1557617,-0.2753906,-0.21875
589,-93.6875,77.8125,-205.75,1.624512,0.1953125,-0.01318359,-0.1425781,-0.2768555,-0.2255859
593,-44.9375,73.1875,-217.5625,1.504395,0.05126953,0.005859375,-0.1220703,-0.2807617,-0.2368164
597,-0.5625,62.5,-221.875,1.330078,0.1992188,0.05175781,-0.1010742,-0.2895508,-0.2407227
601,8.625,54.0625,-224.4375,1.268066,0.4282227,0.06347656,-0.08789063,-0.2929688,-0.2407227
605,-5.3125,49.625,-216.0625,1.287598,0.5019531,0.1098633,-0.06494141,-0.3007813,-0.2421875
609,-33.5,53.3125,-210.6875,1.275879,0.4672852,0.1367188,-0.04492188,-0.3041992,-0.2436523
613,-53.125,60.375,-198.5625,1.175293,0.3466797,0.1328125,-0.03173828,-0.3066406,-0.2475586
617,-66,61.4375,-190.125,0.9814453,0.2729492,0.1098633,-0.01025391,-0.3041992,-0.2529297
621,-67.625,59.1875,-186.4375,0.9155273,0.1679688,0.1132813,0.008300781,-0.2983398,-0.2597656
625,-61.875,56.875,-185.75,0.7875977,0.06689453,0.09423828,0.02148438,-0.2954102,-0.2636719
629,-62.75,48.1875,-173.5625,0.578125,0.04736328,0.02490234,0.04052734,-0.2866211,-0.2666016
633,-69.875,47.125,-159.8125,0.4814453,0.01660156,0.001953125,0.05712891,-0.2783203,-0.2705078
637,-75.6875,53.125,-148.4375,0.3808594,-0.09960938,-0.02050781,0.06640625,-0.2729492,-0.2749023
641,-66.8125,53.6875,-136.9375,0.2529297,-0.2392578,-0.06689453,0.08203125,-0.2617188,-0.2802734
645,-46.625,48.1875,-121.9375,0.109375,-0.340332,-0.04736328,0.09375,-0.2543945,-0.2827148
649,-33.1875,40.125,-101.25,0.03173828,-0.3833008,0.03662109,0.09960938,-0.2470703,-0.2817383
653,-25.625,35.8125,-82.8125,-0.06835938,-0.4414063,0.04052734,0.1118164,-0.2431641,-0.2817383
657,-17,32.6875,-64.75,-0.1459961,-0.5112305,0.03271484,0.1201172,-0.2382813,-0.2827148
661,-5.5,29.9375,-52.9375,-0.2387695,-0.519043,-0.009277344,0.1210938,-0.2329102,-0.2827148
665,5.5625,22.3125,-45.625,-0.3164063,-0.4921875,-0.02050781,0.1269531,-0.2304688,-0.2802734
669,15.4375,13.75,-36.6875,-0.3901367,-0.5307617,-0.02441406,0.128418,-0.2329102,-0.2788086
673,24.875,4.0625,-25.1875,-0.4287109,-0.5229492,-0.01318359,0.1333008,-0.2329102,-0.2802734
677,33.4375,-7.375,-10.75,-0.4091797,-0.484375,0.02490234,0.1342773,-0.2329102,-0.2758789
681,34.8125,-16.375,5.625,-0.3432617,-0.4179688,0.03662109,0.1342773,-0.2368164,-0.2749023
685,30.1875,-23.1875,25.6875,-0.262207,-0.387207,0.06347656,0.1333008,-0.2382813,-0.2758789
689,26.25,-22.125,41.625,-0.1420898,-0.3442383,0.1328125,0.128418,-0.2416992,-0.2749023
693,29,-16.5625,49.9375,-0.09521484,-0.340332,0.1479492,0.1259766,-0.2456055,-0.2734375
697,40.6875,-16.125,56.625,-0.1264648,-0.3637695,0.1210938,0.1210938,-0.2480469,-0.2719727
702,56.0625,-21.4375,65.25,-0.08007813,-0.3325195,0.1289063,0.1152344,-0.2568359,-0.2705078
706,67.125,-23,79.9375,0.03173828,-0.2744141,0.1635742,0.1118164,-0.2641602,-0.2666016
710,73.9375,-21.75,99.3125,0.1210938,-0.2241211,0.1635742,0.105957,-0.2695313,-0.2666016
714,81.875,-20.875,118.9375,0.1635742,-0.1191406,0.1479492,0.09521484,-0.2792969,-0.2597656
718,93.25,-20.75,128.875,0.3613281,-0.006347656,0.1557617,0.08544922,-0.2880859,-0.2529297
722,105.125,-15.3125,132.25,0.4311523,0.105957,0.1289063,0.07861328,-0.2954102,-0.2475586
726,110.75,-15.9375,137,0.4892578,0.2070313,0.1132813,0.06640625,-0.3066406,-0.2407227
730,106.5625,-14.375,146.1875,0.6171875,0.284668,0.1098633,0.05224609,-0.3168945,-0.2324219
734,94.8125,-8.5,163.125,0.6674805,0.3041992,0.1098633,0.04248047,-0.3232422,-0.2270508
738,83.25,-6.875,183.4375,0.7060547,0.3779297,0.05566406,0.02832031,-0.3305664,-0.21875
742,70,-8.25,198.375,0.8261719,0.4829102,0.02099609,0.01074219,-0.3378906,-0.2119141
746,54.375,-10,211.75,0.9619141,0.5991211,-0.01660156,-0.001953125,-0.3393555,-0.2080078
750,39.6875,-10,214.25,1.113281,0.6655273,-0.005371094,-0.02246094,-0.3432617,-0.199707
754,21.625,-8.4375,215.625,1.163574,0.7041016,0.009765625,-0.04248047,-0.3408203,-0.199707
758,8.75,-11.25,220.6875,1.182617,0.5605469,0.005859375,-0.05419922,-0.3393555,-0.1972656
762,17.5625,-18.6875,228.3125,1.213867,0.4399414,-0.04003906,-0.07714844,-0.3344727,-0.1972656
766,50.625,-28.1875,232.3125,1.353516,0.3818359,-0.04736328,-0.09716797,-0.328125,-0.1918945
770,90.1875,-29.0625,223.75,1.508301,0.6499023,-0.1245117,-0.112793,-0.3217773,-0.1875
774,104.125,-27.5625,204.5,1.59375,0.9375,-0.128418,-0.1318359,-0.3208008,-0.1796875
778,77.1875,-20.75,191.3125,1.578125,1.104492,-0.1435547,-0.1508789,-0.3144531,-0.1699219
782,31.25,-24.1875,196.5,1.492676,0.921875,-0.1591797,-0.1616211,-0.3066406,-0.168457
786,9,-36.5625,223.5625,1.539551,0.6147461,-0.1245117,-0.1782227,-0.2954102,-0.1645508
790,31.3125,-51.8125,246.0625,1.644043,0.5644531,-0.1669922,-0.1982422,-0.2792969,-0.1616211
794,69.375,-58.5,233.5,1.694336,0.7973633,-0.1669922,-0.2128906,-0.2695313,-0.15625
798,75.3125,-56,186.4375,1.856934,1.287109,-0.1513672,-0.2280273,-0.2558594,-0.1484375
802,54.25,-50.5,161.5625,1.736816,1.034668,-0.09765625,-0.2387695,-0.2431641,-0.1401367
806,41.625,-59.5,172.6875,1.632324,0.7001953,-0.1054688,-0.2470703,-0.2368164,-0.137207
810,62.4375,-67.0625,196.4375,1.822266,0.5214844,0.001953125,-0.2592773,-0.2216797,-0.1264648
814,109.5625,-51.4375,199.3125,1.973145,0.7973633,0.01367188,-0.2709961,-0.2094727,-0.1181641
818,145.9375,-28.25,178.5,2.035156,1.333496,-0.04394531,-0.2768555,-0.2006836,-0.1113281
822,138.3125,-7.3125,134.125,1.791016,1.675781,-0.1401367,-0.2866211,-0.1879883,-0.1035156
826,81.625,-6.75,119.8125,1.52002,1.664063,-0.1552734,-0.2890625,-0.1821289,-0.09765625
831,20.5,-11.6875,144.625,1.512207,1.317871,-0.01318359,-0.2924805,-0.1743164,-0.09375
835,6,-3.8125,168.875,1.430664,1.166504,-0.03613281,-0.2998047,-0.1606445,-0.09521484
839,30.4375,-7.1875,162.75,1.337891,1.225098,-0.07080078,-0.3056641,-0.1455078,-0.09667969
843,75.1875,-5.4375,126.375,1.419434,1.353027,-0.04736328,-0.309082,-0.1342773,-0.09667969
847,118.8125,5.75,74,1.326172,1.442383,-0.08203125,-0.3125,-0.1254883,-0.09765625
851,140.5625,12.4375,33.5625,1.198242,1.547363,-0.1323242,-0.3164063,-0.1245117,-0.09765625
855,123.6875,16.8125,7.8125,1.225586,2.23877,-0.1362305,-0.3173828,-0.1230469,-0.09912109
859,75.75,24.1875,-23,1.202148,2.168945,-0.1782227,-0.3188477,-0.1269531,-0.1020508
863,79.8125,16.875,-25.375,1.151855,1.652344,-0.2397461,-0.3149414,-0.1293945,-0.1020508
867,27,13.9375,-47,1.109375,2.11084,-0.2514648,-0.3149414,-0.1333008,-0.1005859
871,-38,7.5,-72.1875,1.16748,1.873535,-0.2167969,-0.3105469,-0.1381836,-0.09667969
875,-82.25,7.875,-81.875,1.299316,1.547363,-0.2016602,-0.3081055,-0.1420898,-0.09375
879,-109.5,8.4375,-92,1.302734,1.310547,-0.2363281,-0.3032227,-0.1469727,-0.09521484
883,-120.5,6,-100.8125,1.39209,1.120117,-0.2055664,-0.3017578,-0.1542969,-0.09765625
887,-116.6875,11.3125,-112.125,1.477539,0.9799805,-0.1743164,-0.2973633,-0.1591797,-0.1020508
891,-104.875,15.1875,-125.5625,1.516113,0.956543,-0.1591797,-0.293457,-0.1669922,-0.1044922
895,-91.1875,19.6875,-143,1.578125,1.015137,-0.1474609,-0.2890625,-0.1767578,-0.1074219
899,-87.875,22.5,-160.375,1.640137,1.081055,-0.1552734,-0.2792969,-0.1870117,-0.112793
903,-94.375,26.25,-174.4375,1.709961,1.116211,-0.1362305,-0.2768555,-0.1933594,-0.1181641
907,-106.1875,32.125,-183,1.736816,1.034668,-0.1630859,-0.2685547,-0.2070313,-0.1235352
911,-116.4375,34.0625,-182.8125,1.674805,0.9604492,-0.1860352,-0.2578125,-0.2207031,-0.1347656
915,-126.9375,35.25,-180.125,1.694336,0.8984375,-0.1860352,-0.2509766,-0.2255859,-0.1401367
919,-134.625,37.625,-181.0625,1.698242,0.8481445,-0.1362305,-0.2412109,-0.2358398,-0.1508789
923,-127.875,45.4375,-188.1875,1.702148,0.7119141,-0.09375,-0.2294922,-0.2441406,-0.1616211
927,-111.6875,47.0625,-199,1.59375,0.6459961,-0.04736328,-0.2197266,-0.2519531,-0.1699219
931,-97.75,45.9375,-201.9375,1.558594,0.5839844,0.001953125,-0.2045898,-0.2617188,-0.1782227
935,-81.875,44.375,-198.9375,1.535645,0.5527344,0.03662109,-0.1889648,-0.2695313,-0.1865234
939,-62.0625,43.4375,-197.0625,1.496582,0.5605469,0.09033203,-0.1782227,-0.2783203,-0.1918945
943,-49.6875,45.6875,-198.0625,1.492676,0.6538086,0.1171875,-0.1616211,-0.2856445,-0.1972656
947,-52.875,48.25,-194.75,1.446289,0.7236328,0.1328125,-0.1450195,-0.2929688,-0.2041016
951,-59.875,51.625,-192.1875,1.395996,0.6845703,0.1289063,-0.1303711,-0.2983398,-0.2094727
955,-57.5,50.5,-190.875,1.268066,0.6186523,0.140625,-0.112793,-0.3056641,-0.2133789
960,-44.9375,47.625,-193.875,1.209961,0.5952148,0.1328125,-0.09472656,-0.3081055,-0.2202148
964,-40.375,47.5625,-191.8125,1.186523,0.6577148,0.159668,-0.08300781,-0.3105469,-0.2231445
968,-46.1875,49,-184.5625,1.089844,0.7275391,0.1328125,-0.06298828,-0.3129883,-0.2270508
972,-60.75,47.875,-182.0625,0.9814453,0.7509766,0.105957,-0.04394531,-0.3154297,-0.2338867
976,-72.4375,47.5625,-178.8125,0.8920898,0.7236328,0.07128906,-0.03320313,-0.3129883,-0.2368164
980,-87.3125,44.375,-174.125,0.7490234,0.6577148,0.03271484,-0.01513672,-0.3081055,-0.2446289
984,-97.6875,36.625,-170.5625,0.6479492,0.5371094,0.009765625,0.003417969,-0.3032227,-0.2529297
988,-95.0625,26.5625,-160.625,0.6210938,0.3505859,0.04052734,0.01269531,-0.2983398,-0.2568359
992,-82.625,19.8125,-151.5,0.6362305,0.2148438,0.1367188,0.02832031,-0.2919922,-0.2626953
996,-77.8125,22.5625,-140.25,0.6171875,0.203125,0.1748047,0.04052734,-0.2841797,-0.2705078
1000,-87.3125,26.0625,-124.8125,0.5395508,0.1523438,0.1674805,0.04882813,-0.2792969,-0.2749023
1004,-97,33.9375,-111,0.4697266,0.06689453,0.1674805,0.06054688,-0.2695313,-0.2817383
1008,-95.0625,40.375,-97.875,0.3691406,-0.1113281,0.140625,0.07128906,-0.2583008,-0.2871094
1012,-76.5625,45.375,-89.5625,0.2490234,-0.2548828,0.125,0.07714844,-0.2519531,-0.2885742
1016,-53.4375,47.25,-86.1875,0.1132813,-0.2822266,0.1098633,0.08691406,-0.2431641,-0.2939453
1020,-37.375,43.3125,-82.25,0.03173828,-0.2822266,0.1020508,0.09521484,-0.2358398,-0.2939453
1024,-31.25,38.625,-75.125,-0.01025391,-0.2783203,0.07910156,0.09960938,-0.2304688,-0.2949219
1028,-29.5,35.3125,-61.5625,-0.08007813,-0.3950195,0.08251953,0.109375,-0.2270508,-0.2949219
1032,-21.1875,32.625,-44.0625,-0.1108398,-0.4804688,0.1020508,0.1142578,-0.2231445,-0.2963867
1036,-6.875,32.375,-30.1875,-0.1650391,-0.5463867,0.07519531,0.1176758,-0.2207031,-0.2924805
1040,9.6875,29.3125,-16.4375,-0.246582,-0.5424805,0.03662109,0.1225586,-0.2182617,-0.2939453
1044,22.1875,23.25,-4.125,-0.2231445,-0.4726563,0.02880859,0.1235352,-0.2192383,-0.2939453
1048,28.4375,22.5,5.25,-0.1728516,-0.3950195,0.05957031,0.1235352,-0.2207031,-0.2895508
1052,36.0625,23.625,12.5625,-0.2041016,-0.371582,0.02880859,0.1269531,-0.2246094,-0.2895508
1056,48.375,17.75,19.125,-0.262207,-0.2978516,-0.05126953,0.1269531,-0.2294922,-0.2871094
1060,60.625,8.125,22.125,-0.2348633,-0.2202148,-0.04736328,0.1259766,-0.2329102,-0.2817383
1064,73.9375,-0.8125,32.25,-0.1884766,-0.2202148,-0.06689453,0.1269531,-0.2382813,-0.2788086
1068,84.625,-12.0625,48.3125,-0.08789063,-0.1381836,-0.04003906,0.125,-0.2480469,-0.2734375
1072,86.4375,-19.375,65.4375,0.04736328,-0.02978516,0.02880859,0.1225586,-0.2543945,-0.2705078
1076,81.125,-19,80,0.1484375,0.07080078,0.09033203,0.1152344,-0.2631836,-0.2680664
1080,73.3125,-14,92.75,0.206543,0.1679688,0.125,0.1079102,-0.2729492,-0.2597656
1084,72.75,-11.9375,104.9375,0.175293,0.1953125,0.06738281,0.1035156,-0.2783203,-0.2597656
1089,77,-20.0625,114.8125,0.2104492,0.284668,0.04443359,0.09277344,-0.2880859,-0.2529297
1093,74.9375,-27.0625,124.5625,0.3266602,0.4086914,0.06347656,0.08300781,-0.2954102,-0.25
1097,64.75,-30.5,137.6875,0.4389648,0.4790039,0.06738281,0.07226563,-0.3017578,-0.2460938
1101,60.4375,-31.3125,145.25,0.5048828,0.4516602,0.07910156,0.06152344,-0.3095703,-0.2407227
1105,65.75,-33.75,150.75,0.543457,0.4672852,0.06738281,0.04492188,-0.3154297,-0.2368164
1109,62.25,-37.75,158.6875,0.6479492,0.5761719,0.1020508,0.03564453,-0.3178711,-0.2324219
1113,47.4375,-37.375,169.75,0.6948242,0.6811523,0.1171875,0.01904297,-0.3242188,-0.2255859
1117,22.125,-42.3125,177.4375,0.7216797,0.777832,0.08251953,0,-0.3256836,-0.2246094
1121,1.25,-52.6875,179.25,0.7993164,0.6655273,0.04785156,-0.01025391,-0.328125,-0.2231445
1125,14.0625,-63.9375,187.9375,0.8803711,0.3740234,0.06738281,-0.02929688,-0.3232422,-0.2216797
1129,55.5625,-73.9375,196.3125,0.9970703,0.3041992,0.1210938,-0.04980469,-0.3208008,-0.21875
1133,94,-74.8125,203.0625,1.229492,0.5371094,0.1557617,-0.06494141,-0.3232422,-0.2148438
1137,98.1875,-62.75,198.6875,1.407715,0.956543,0.1635742,-0.08886719,-0.3232422,-0.2041016
1141,62.9375,-49.625,191.625,1.395996,1.240234,0.1210938,-0.1069336,-0.3217773,-0.1972656
1145,23.375,-50.625,187,1.22168,0.9956055,0.02880859,-0.1201172,-0.3154297,-0.1928711
1149,30.125,-62.6875,191.25,1.241211,0.5644531,0.02880859,-0.1401367,-0.3081055,-0.1889648
1153,78.625,-69.5,192.625,1.454102,0.3740234,0.05175781,-0.1582031,-0.2993164,-0.1821289
1157,134.125,-62.8125,191.625,1.659668,0.6030273,0.05566406,-0.1708984,-0.2944336,-0.1738281
1161,147.25,-47.125,184.125,1.725586,1.077148,0.06347656,-0.1875,-0.2880859,-0.1606445
1165,109.5,-31.1875,172.5,1.655762,1.458008,-0.02832031,-0.2021484,-0.2817383,-0.1494141
1169,49.0625,-31.1875,168.375,1.477539,1.283203,-0.07080078,-0.2080078,-0.2753906,-0.1425781
1173,24.625,-37.1875,179.5,1.458008,0.9140625,-0.07080078,-0.2246094,-0.265625,-0.137207
1177,33.8125,-46.3125,185.75,1.48877,0.7470703,-0.06689453,-0.2353516,-0.2504883,-0.1357422
1181,61.25,-46.3125,179,1.640137,0.7509766,-0.03222656,-0.2426758,-0.2407227,-0.1289063
1185,83.5,-35.625,164.625,1.698242,0.9101563,-0.03222656,-0.2553711,-0.2294922,-0.1210938
1189,90.6875,-26.25,143.25,1.608887,1.092773,-0.07861328,-0.2626953,-0.2192383,-0.1142578
1193,88.9375,-20.9375,116.625,1.531738,1.069336,-0.08203125,-0.2661133,-0.2143555,-0.1098633
1197,86.6875,-20.625,107.3125,1.446289,0.9643555,-0.07080078,-0.2734375,-0.2080078,-0.1044922
1201,87.5,-16.25,111.5,1.496582,0.9682617,-0.02441406,-0.2783203,-0.2016602,-0.09765625
1205,87.8125,-7.125,107.8125,1.48877,1.186035,0.001953125,-0.2827148,-0.1967773,-0.09521484
1209,65.4375,-2.375,90.3125,1.42334,1.411133,0.05566406,-0.2890625,-0.1879883,-0.09082031
1213,31.875,9.875,83.8125,1.399902,1.349121,0.07128906,-0.2900391,-0.1831055,-0.09228516
1218,13.9375,17,87.3125,1.279785,1.150879,0.07910156,-0.293457,-0.1791992,-0.09082031
1222,27.25,24.0625,99.25,1.22168,1.019043,0.144043,-0.2983398,-0.1704102,-0.09765625
1226,26.8125,50.25,90.375,0.625,2.973145,0.1098633,-0.3017578,-0.1621094,-0.09912109
1230,-92.6875,2.625,64.5625,0.9814453,3.979492,-0.4555664,-0.3041992,-0.1557617,-0.1035156
1234,-22.875,22.1875,-51.1875,1.13623,2.157227,-0.1899414,-0.3066406,-0.1494141,-0.1088867
1238,23.4375,56.5625,-147.1875,0.8535156,1.291016,-0.1669922,-0.3017578,-0.1582031,-0.1088867
1242,39,26.625,-105,0.659668,1.084961,-0.08203125,-0.2949219,-0.1679688,-0.1113281
1246,0.0625,3.375,-74.0625,0.9077148,1.753418,-0.07080078,-0.2915039,-0.1743164,-0.1088867
1250,-61.5625,1.0625,-96.375,1.124512,1.869629,-0.0859375,-0.2866211,-0.1831055,-0.105957
1254,-107.6875,3.5625,-109.875,1.244629,1.523926,-0.05126953,-0.2841797,-0.1870117,-0.1088867
1258,-124.5,8,-114.5,1.260254,1.36084,-0.08203125,-0.2768555,-0.1933594,-0.112793
1262,-125.6875,9.625,-125.875,1.384277,1.271484,0.001953125,-0.2734375,-0.1992188,-0.1181641
1266,-124.75,19.375,-144.375,1.481445,1.209473,0.05957031,-0.2700195,-0.203125,-0.1235352
1270,-124,27.625,-146.375,1.512207,1.092773,0.105957,-0.2626953,-0.2128906,-0.1303711
1274,-111.875,35.5625,-143.6875,1.531738,1.026855,0.1367188,-0.253418,-0.2182617,-0.1386719
1278,-85.625,44.8125,-152.875,1.550781,1.045898,0.1367188,-0.2470703,-0.2246094,-0.1455078
1282,-60.75,51.75,-174.5625,1.597656,1.131836,0.1328125,-0.237793,-0.2329102,-0.1538086
1286,-57.3125,58.4375,-188.8125,1.59375,1.209473,0.1289063,-0.2270508,-0.2456055,-0.1616211
1290,-67.125,55.9375,-187,1.523926,1.186035,0.1289063,-0.2172852,-0.2519531,-0.1674805
1294,-74.1875,55,-184.1875,1.516113,1.158691,0.1210938,-0.2021484,-0.2631836,-0.1767578
1298,-66.3125,55.3125,-191.5,1.531738,1.030762,0.140625,-0.1889648,-0.2719727,-0.1821289
1302,-53.0625,58.25,-198.5625,1.582031,0.9682617,0.2060547,-0.1772461,-0.2807617,-0.1875
1306,-42.4375,66.875,-207.4375,1.605469,0.9682617,0.2329102,-0.1601563,-0.2880859,-0.1958008
1310,-38.8125,69.375,-215.125,1.550781,0.8984375,0.2211914,-0.1401367,-0.296875,-0.2011719
1314,-36.5625,67.8125,-213.5625,1.52002,0.8520508,0.2329102,-0.1259766,-0.3041992,-0.2055664
1318,-35.6875,66.3125,-211.125,1.496582,0.8325195,0.2788086,-0.1044922,-0.3095703,-0.2080078
1322,-32.4375,75.0625,-210.1875,1.43457,0.855957,0.3330078,-0.08203125,-0.3168945,-0.2133789
1326,-38.5625,78.25,-212.3125,1.233398,0.9643555,0.2211914,-0.06738281,-0.3193359,-0.2163086
1330,-49.3125,70.75,-213.25,1.047363,0.9375,0.1020508,-0.04394531,-0.3217773,-0.2216797
1334,-54.6875,62.6875,-215.0625,0.9116211,0.7739258,0.04443359,-0.02099609,-0.3217773,-0.2255859
1338,-51.1875,52.8125,-212.0625,0.8222656,0.6147461,0.001953125,-0.004394531,-0.3208008,-0.2299805
1342,-51.125,40.6875,-194.25,0.7333984,0.5644531,-0.005371094,0.01416016,-0.3193359,-0.2338867
1347,-51.875,32.25,-176.625,0.644043,0.4516602,-0.03222656,0.03173828,-0.3129883,-0.2407227
1351,-43.8125,22,-154.75,0.5200195,0.3232422,-0.05908203,0.04248047,-0.3066406,-0.2407227
1355,-28.75,9.6875,-142.5,0.4931641,0.3349609,0.009765625,0.05712891,-0.3056641,-0.2436523
1359,-11.125,5.25,-137.4375,0.5126953,0.4165039,0.06347656,0.06982422,-0.3017578,-0.2460938
1363,-0.5625,6,-144.3125,0.5239258,0.5683594,0.09423828,0.07617188,-0.2983398,-0.2475586
1367,-5.3125,7.1875,-151.3125,0.4389648,0.6147461,0.06738281,0.09033203,-0.2929688,-0.2460938
1371,-20.625,0.3125,-143.625,0.4194336,0.4985352,0.125,0.1010742,-0.2880859,-0.2475586
1375,-27.375,2.6875,-132.3125,0.4619141,0.3857422,0.1713867,0.109375,-0.2856445,-0.2490234
1379,-30.4375,10.25,-129.4375,0.4736328,0.4125977,0.2368164,0.1186523,-0.2768555,-0.2514648
1383,-38.1875,22,-135.125,0.4580078,0.3896484,0.2368164,0.1293945,-0.2695313,-0.2543945
1387,-49.375,29.25,-135,0.3417969,0.21875,0.2094727,0.1376953,-0.2631836,-0.2558594
1391,-62.3125,32.3125,-121.5625,0.2490234,-0.02587891,0.1557617,0.1450195,-0.2543945,-0.2568359
1395,-64.0625,34.9375,-103.5625,0.09375,-0.2900391,0.1210938,0.1557617,-0.2416992,-0.2568359
1399,-48,35.1875,-81.3125,-0.08398438,-0.9931641,-0.04736328,0.1630859,-0.2358398,-0.2612305
1403,-11.3125,29.3125,-70.875,-0.1962891,-0.6630859,0.07128906,0.1674805,-0.2280273,-0.2612305
1407,19.8125,21.6875,-56.125,-0.1806641,-0.6162109,0.1289063,0.1748047,-0.2231445,-0.2583008
1411,37.125,23.125,-40.1875,-0.1108398,-0.4765625,0.144043,0.1757813,-0.2246094,-0.2568359
1415,42.5,22.9375,-24.1875,-0.1499023,-0.3950195,0.1132813,0.1821289,-0.2246094,-0.2543945
1419,42.0625,19.875,-6.25,-0.1806641,-0.371582,0.09423828,0.1831055,-0.2255859,-0.25
1423,38.75,15.9375,12.0625,-0.2661133,-0.3364258,0.06347656,0.1831055,-0.2270508,-0.2475586
1427,33.875,9.0625,29.6875,-0.296875,-0.3056641,0.04052734,0.184082,-0.2319336,-0.2436523
1431,30.4375,1.8125,47.75,-0.2543945,-0.2548828,0.01708984,0.1831055,-0.2368164,-0.2436523
1435,34.5,-1.75,60.0625,-0.2348633,-0.2509766,0.02099609,0.1796875,-0.2392578,-0.2421875
1439,49.3125,-9,69.875,-0.1962891,-0.2314453,0.04785156,0.1757813,-0.2456055,-0.2392578
1443,64.0625,-13.9375,81.3125,-0.1186523,-0.1308594,0.105957,0.1699219,-0.2558594,-0.2368164
1447,68.75,-15.0625,91.4375,-0.02197266,0.04736328,0.1367188,0.1665039,-0.2607422,-0.2324219
1451,62.875,-9.4375,96.875,0.09033203,0.2148438,0.1635742,0.1591797,-0.2719727,-0.230957
1455,54.375,-5.6875,103.0625,0.07861328,0.1992188,0.1367188,0.1533203,-0.2807617,-0.2270508
1459,56.25,-7.4375,112.0625,0.1171875,0.1953125,0.09814453,0.1474609,-0.2841797,-0.2231445
1463,58.3125,-10.625,120.875,0.1948242,0.237793,0.105957,0.1391602,-0.2954102,-0.2202148
1467,53.1875,-10.8125,129.8125,0.3227539,0.3081055,0.1328125,0.1259766,-0.3041992,-0.2163086
1471,43.3125,-6.1875,141.1875,0.4350586,0.3310547,0.1518555,0.1201172,-0.3105469,-0.2119141
1476,41.1875,-3.1875,154.375,0.4311523,0.3120117,0.1289063,0.1079102,-0.3193359,-0.2094727
1480,47.375,-3.375,163.9375,0.4506836,0.3662109,0.07910156,0.09277344,-0.3266602,-0.206543
1484,48.375,-7.75,173.375,0.4970703,0.5136719,0.05175781,0.08447266,-0.3330078,-0.2026367
1488,34.375,-9.8125,180.9375,0.6210938,0.6538086,0.07519531,0.06787109,-0.3393555,-0.199707
1492,22.75,-14.625,189.8125,0.6791992,0.5878906,0.1171875,0.04882813,-0.3417969,-0.1972656
1496,31.5625,-17.3125,192.5,0.8339844,0.5839844,0.1713867,0.03808594,-0.3442383,-0.1958008
1500,46.6875,-10.9375,191,0.9658203,0.6694336,0.2094727,0.01904297,-0.3466797,-0.1904297
1504,43.6875,-4.4375,194.6875,0.9892578,0.8364258,0.1674805,0,-0.3505859,-0.1875
1508,21.9375,-5.875,200,1.027832,0.972168,0.1171875,-0.01269531,-0.3505859,-0.1865234
1512,2,-11.375,206.9375,1.039551,0.855957,0.09423828,-0.03173828,-0.3491211,-0.1835938
1516,-11.75,-19.625,219.4375,1.085938,0.7392578,0.1171875,-0.05224609,-0.3442383,-0.1850586
1520,-4.1875,-27.6875,237.1875,1.179199,0.5449219,0.1210938,-0.06738281,-0.3393555,-0.1865234
1524,26.75,-30.5625,247.0625,1.330078,0.5683594,0.08251953,-0.09033203,-0.3344727,-0.1850586
1528,61.5625,-28.125,239.625,1.473633,0.8481445,0.01708984,-0.1137695,-0.3256836,-0.1806641
1532,78.75,-26.5625,217.5625,1.430664,1.150879,-0.04003906,-0.1259766,-0.3208008,-0.175293
1536,72.6875,-32.1875,202.4375,1.388184,1.182129,-0.04394531,-0.1459961,-0.3154297,-0.1674805
1540,55.6875,-39.4375,207.8125,1.484863,0.9956055,0.01708984,-0.1640625,-0.3056641,-0.1616211
1544,59.5,-43.25,225.8125,1.550781,0.8286133,0.009765625,-0.1757813,-0.2983398,-0.1577148
1548,90.4375,-45.6875,233.75,1.651855,0.9604492,-0.01660156,-0.1948242,-0.2856445,-0.1494141
1552,117.375,-40.5625,213.0625,1.651855,1.345215,-0.07861328,-0.2128906,-0.2744141,-0.1401367
1556,112,-31.875,184.25,1.597656,1.621094,-0.112793,-0.2197266,-0.265625,-0.1303711
1560,73.0625,-27,175,1.430664,1.597656,-0.1362305,-0.2353516,-0.2558594,-0.1235352
1564,35.875,-38.9375,175.25,1.287598,1.341309,-0.1899414,-0.2436523,-0.2456055,-0.1157227
1568,46.125,-48.4375,169.875,1.318359,1.030762,-0.1401367,-0.253418,-0.2368164,-0.1142578
1572,83.75,-53.875,152.9375,1.384277,1.038574,-0.1015625,-0.2617188,-0.2231445,-0.105957
1576,100.4375,-41.6875,123.4375,1.523926,1.337402,0.001953125,-0.2700195,-0.2143555,-0.09765625
1580,81.1875,-22,107.625,1.450195,1.469727,0.02490234,-0.2758789,-0.2104492,-0.09375
1584,57.6875,-13.625,112.125,1.345703,1.426758,-0.01660156,-0.2827148,-0.203125,-0.08984375
1588,62.5625,-2.3125,108.125,1.357422,1.411133,-0.05517578,-0.2890625,-0.1958008,-0.08837891
1592,98.375,13.8125,82.5625,1.213867,1.438477,-0.1708984,-0.293457,-0.1894531,-0.08837891
1596,141.25,23.5625,55.4375,1.059082,1.780273,-0.394043,-0.2983398,-0.1855469,-0.08544922
1600,86.625,21.5625,38.1875,0.8183594,3.88623,-0.5400391,-0.3032227,-0.1879883,-0.08544922
1605,-11.8125,11.1875,-6.6875,1.035645,2.922852,-0.5976563,-0.3032227,-0.1845703,-0.08544922
1609,-17,8.5,-77.125,0.7875977,2.122559,-0.5551758,-0.2998047,-0.1845703,-0.08984375
1613,-21.5,-12.1875,-105.875,0.8920898,1.753418,-0.4438477,-0.2949219,-0.1943359,-0.08544922
1617,-74.375,-16.8125,-86.25,1.082031,1.76123,-0.3554688,-0.2900391,-0.1982422,-0.08300781
1621,-110.75,-19.5,-76.6875,1.031738,1.547363,-0.3974609,-0.2841797,-0.203125,-0.08544922
1625,-110.25,-25.6875,-95.5625,1.089844,1.473633,-0.3745117,-0.2792969,-0.2094727,-0.08300781
1629,-104.9375,-24.125,-121.25,1.283691,1.52002,-0.2900391,-0.2768555,-0.2128906,-0.08691406
1633,-109.375,-19.5625,-136.9375,1.333984,1.52002,-0.2246094,-0.2700195,-0.2192383,-0.08837891
1637,-108.0625,-14.6875,-148,1.430664,1.438477,-0.2089844,-0.2626953,-0.2294922,-0.09521484
1641,-95,-8.9375,-160.25,1.546875,1.438477,-0.1591797,-0.2578125,-0.234375,-0.09667969
1645,-78.5625,1,-178.4375,1.647949,1.426758,-0.1245117,-0.2495117,-0.2480469,-0.1020508
1649,-60.5,9.6875,-193.9375,1.651855,1.376465,-0.08984375,-0.237793,-0.2592773,-0.1074219
1653,-46.625,14.8125,-205.1875,1.729004,1.422852,-0.04736328,-0.2304688,-0.2680664,-0.1098633
1657,-35.5,22.3125,-216.3125,1.779785,1.376465,-0.03222656,-0.2172852,-0.2841797,-0.112793
1661,-18.6875,31.0625,-227.375,1.73291,1.298828,-0.1015625,-0.199707,-0.296875,-0.1166992
1665,1.4375,31.3125,-239.5625,1.620605,1.244141,-0.2055664,-0.1875,-0.3081055,-0.1210938
1669,11.625,22,-245.25,1.527832,1.240234,-0.2705078,-0.1674805,-0.3232422,-0.1196289
1673,11.9375,7.875,-246.625,1.508301,1.20166,-0.2939453,-0.1459961,-0.3393555,-0.1225586
1677,11.1875,-2,-244,1.484863,1.09668,-0.2744141,-0.1318359,-0.3466797,-0.1196289
1681,9.125,-9.9375,-240.4375,1.500488,1.13916,-0.2324219,-0.1079102,-0.3569336,-0.1166992
1685,-5.9375,-14.5625,-243.125,1.484863,1.154785,-0.1860352,-0.08398438,-0.3691406,-0.1157227
1689,-23.8125,-17.0625,-241.1875,1.438477,0.987793,-0.1743164,-0.06884766,-0.371582,-0.1157227
1693,-35.0625,-21.125,-233.1875,1.364746,0.7817383,-0.1782227,-0.04394531,-0.3754883,-0.1196289
1697,-37.6875,-24.3125,-224.375,1.26416,0.6264648,-0.1552734,-0.02099609,-0.3779297,-0.1210938
1701,-39.5,-25.5625,-216.75,1.179199,0.4829102,-0.1245117,-0.0078125,-0.3779297,-0.1235352
1705,-48.3125,-27.4375,-203.5625,1.059082,0.3818359,-0.1166992,0.01269531,-0.3779297,-0.1279297
1709,-60,-29.5625,-185.5625,0.9233398,0.2456055,-0.08984375,0.03320313,-0.3754883,-0.1347656
1713,-69.875,-29.625,-162.5625,0.8457031,0.1176758,-0.03613281,0.04394531,-0.371582,-0.1401367
1717,-80.875,-25.25,-138.0625,0.7451172,0.03222656,0.005859375,0.05957031,-0.3681641,-0.1469727
1721,-80.6875,-20.375,-114.125,0.6289063,-0.1074219,0.07128906,0.07226563,-0.3618164,-0.15625
1725,-65.8125,-15.125,-102.9375,0.5317383,-0.1230469,0.08642578,0.07714844,-0.359375,-0.1606445
1729,-45.6875,-10.25,-104.25,0.4272461,-0.08789063,0.1098633,0.08789063,-0.3520508,-0.168457
1734,-35.25,-11.8125,-105.375,0.3457031,-0.04150391,0.1132813,0.09619141,-0.3481445,-0.1713867
1738,-37.875,-12.8125,-96.9375,0.2993164,0.0009765625,0.1479492,0.1020508,-0.3432617,-0.1738281
1742,-48.5625,-10.8125,-80.75,0.2294922,-0.04882813,0.1748047,0.1103516,-0.3408203,-0.1796875
1746,-56,-4.375,-64.25,0.159668,-0.1191406,0.1674805,0.1176758,-0.3330078,-0.1821289
1750,-56.0625,-0.9375,-50.625,0.05517578,-0.1850586,0.1479492,0.1201172,-0.328125,-0.1865234
1754,-50.4375,2.25,-41.0625,0.0009765625,-0.2275391,0.1210938,0.1269531,-0.3242188,-0.1889648
1758,-40.3125,5.5625,-33.5,-0.07617188,-0.2163086,0.125,0.1269531,-0.3193359,-0.1958008
1762,-25,4.1875,-23.9375,-0.1420898,-0.2939453,0.1020508,0.1308594,-0.3178711,-0.1987305
1766,-11.3125,2.625,-10.125,-0.1767578,-0.2783203,0.105957,0.1333008,-0.3168945,-0.1987305
1770,-3.6875,2.0625,4.9375,-0.1650391,-0.2241211,0.1020508,0.1318359,-0.3154297,-0.1987305
1774,5.8125,1.875,17.0625,-0.1689453,-0.2045898,0.07519531,0.1318359,-0.3154297,-0.1987305
1778,15.3125,0.125,27.0625,-0.1499023,-0.1269531,0.06738281,0.1293945,-0.3168945,-0.1958008
1782,21.3125,-1,38.1875,-0.1225586,-0.05273438,0.06738281,0.128418,-0.3178711,-0.1958008
1786,26.125,-2.9375,49.75,-0.1303711,-0.01416016,0.07519531,0.1259766,-0.3217773,-0.1958008
1790,36,-5.4375,61.4375,-0.09912109,0.01660156,0.08642578,0.1201172,-0.3256836,-0.1928711
1794,47.625,-6.25,72,-0.05664063,0.105957,0.07519531,0.1176758,-0.3320313,-0.1904297
1798,55.125,-7.1875,81.5625,0.01660156,0.203125,0.07519531,0.1103516,-0.3320313,-0.1875
1802,56.375,-8.125,88.0625,0.1015625,0.3583984,0.04785156,0.1035156,-0.3393555,-0.1806641
1806,53.9375,-7,91.125,0.206543,0.3779297,0.08642578,0.09375,-0.3457031,-0.1767578
1810,49.1875,-1.375,97.875,0.2607422,0.4052734,0.1171875,0.08886719,-0.3481445,-0.1728516
1814,41.5625,3.25,110.3125,0.2875977,0.4438477,0.1289063,0.07861328,-0.3530273,-0.1699219
1818,34.6875,7.875,124.8125,0.3188477,0.4985352,0.08642578,0.06787109,-0.3579102,-0.1645508
1822,27.1875,10.3125,134.5625,0.4233398,0.5952148,0.04785156,0.05810547,-0.359375,-0.1606445
1826,13.25,13.3125,139.6875,0.4814453,0.6962891,0.02490234,0.04638672,-0.3632813,-0.1591797
1830,-1.375,14.25,141.0625,0.4658203,0.6733398,-0.02050781,0.03320313,-0.3642578,-0.1591797
1834,-4.1875,12.3125,143.25,0.4931641,0.5683594,-0.02441406,0.0234375,-0.3657227,-0.1591797
1838,-2.125,8.375,146.875,0.5473633,0.5566406,-0.03613281,0.01074219,-0.3657227,-0.1606445
1842,2.0625,2.5,150.9375,0.609375,0.5136719,-0.05908203,-0.004394531,-0.3642578,-0.1577148
1846,5.375,-2,154.125,0.7021484,0.5449219,-0.07470703,-0.01416016,-0.3657227,-0.1577148
1850,3.0625,-6.3125,159.25,0.7836914,0.5566406,-0.07861328,-0.02929688,-0.3642578,-0.15625
1854,2.9375,-10.9375,168.5,0.8183594,0.5253906,-0.06298828,-0.04736328,-0.3618164,-0.1577148
1858,14.0625,-16.25,175.1875,0.8574219,0.4711914,-0.05908203,-0.05664063,-0.3579102,-0.1577148
1863,30.1875,-23.9375,182.875,0.9736328,0.4907227,-0.08203125,-0.07714844,-0.3544922,-0.15625
1867,41.1875,-26.4375,187.375,1.117188,0.6147461,-0.07861328,-0.09228516,-0.3520508,-0.1508789
1871,38.125,-24.25,189.625,1.209961,0.7817383,-0.0859375,-0.1069336,-0.3481445,-0.1455078
1875,29.3125,-21.0625,186.5,1.209961,0.8364258,-0.1401367,-0.1269531,-0.3408203,-0.1455078
1879,19.9375,-27.0625,189.5625,1.202148,0.840332,-0.1591797,-0.1450195,-0.3320313,-0.1416016
1883,8.625,-32.75,192.0625,1.248535,0.8828125,-0.1591797,-0.1567383,-0.3242188,-0.1416016
1887,0.0625,-44.4375,195.5625,1.275879,0.793457,-0.1899414,-0.1748047,-0.3129883,-0.137207
1891,11.4375,-53.75,196,1.376465,0.6616211,-0.1206055,-0.1914063,-0.2993164,-0.1357422
1895,30.5625,-56.4375,197.75,1.492676,0.6342773,-0.07470703,-0.203125,-0.2919922,-0.1289063
1899,56.4375,-54.0625,198.25,1.640137,0.7509766,-0.05517578,-0.2172852,-0.2783203,-0.125
1903,70.125,-46.5625,187.9375,1.644043,0.9604492,-0.05908203,-0.2319336,-0.265625,-0.1142578
1907,68.6875,-41.125,181.75,1.640137,1.135742,-0.09375,-0.2402344,-0.2543945,-0.1098633
1911,56.75,-37.0625,174,1.597656,1.158691,-0.1015625,-0.2519531,-0.2441406,-0.1044922
1915,50.375,-37.25,169.0625,1.578125,1.003418,-0.02441406,-0.2626953,-0.2319336,-0.09765625
1919,61.375,-33.375,166.75,1.640137,0.824707,0.005859375,-0.2675781,-0.2231445,-0.09521484
1923,90.5625,-26.4375,166.5625,1.666992,0.7431641,0.07519531,-0.2783203,-0.2104492,-0.08837891
1927,119.625,-10.375,171.8125,1.709961,0.8481445,0.09033203,-0.2851563,-0.1967773,-0.08154297
1931,141.375,7.4375,182.625,1.597656,1.04248,-0.01318359,-0.2890625,-0.1894531,-0.07861328
1935,144.3125,22.1875,192.375,1.616699,1.251953,-0.001464844,-0.2973633,-0.1757813,-0.07470703
1939,121.9375,70.5625,204.25,1.950195,1.590332,0.09814453,-0.3081055,-0.1621094,-0.07177734
1943,91.3125,135.3125,208,1.849121,1.765137,-0.1245117,-0.309082,-0.1508789,-0.07861328
1947,18.6875,115.6875,147.9375,0.8920898,4.935547,-1.001465,-0.3139648,-0.1318359,-0.09228516
1951,-43.8125,28.1875,-3.375,0.9970703,2.942383,-0.809082,-0.3164063,-0.1230469,-0.1035156
1955,7.4375,17.5,-40.6875,1.516113,2.005859,-0.4746094,-0.3164063,-0.1220703,-0.1044922
1959,-29.1875,39.0625,-51.4375,1.163574,1.834961,-0.4746094,-0.3139648,-0.1254883,-0.1098633
1963,-81.75,13.0625,-65.125,0.9775391,1.749512,-0.4863281,-0.3105469,-0.1279297,-0.1088867
1967,-114.625,-2.125,-79.125,1.322266,1.543457,-0.3745117,-0.309082,-0.1293945,-0.1088867
1971,-136.4375,1.5,-95.625,1.395996,1.39209,-0.2978516,-0.3041992,-0.1342773,-0.1088867
1975,-147.25,4.25,-109.625,1.504395,1.353027,-0.3012695,-0.3032227,-0.1381836,-0.112793
1979,-150.0625,6,-135.6875,1.543457,1.259766,-0.2705078,-0.2983398,-0.1445313,-0.1166992
1983,-137.4375,9.4375,-164,1.601563,1.077148,-0.2246094,-0.293457,-0.1533203,-0.1210938
1987,-112.75,10.4375,-179.375,1.644043,0.90625,-0.1591797,-0.2900391,-0.1621094,-0.1235352
1992,-75.875,13.5,-181.25,1.651855,0.8520508,-0.1362305,-0.2841797,-0.1704102,-0.1264648
1996,-36.6875,14.125,-186.75,1.663574,0.9838867,-0.128418,-0.2768555,-0.1845703,-0.1303711
2000,-7.1875,11.4375,-202.75,1.686523,1.143066,-0.1401367,-0.2675781,-0.2006836,-0.1347656
2004,0.3125,8.1875,-222.375,1.791016,1.287109,-0.1552734,-0.2626953,-0.2143555,-0.1347656
2008,-11.0625,6.8125,-238.875,1.895996,1.317871,-0.1513672,-0.2495117,-0.2329102,-0.1347656
2012,-36,5.25,-247.6875,1.938477,1.217285,-0.1474609,-0.237793,-0.2519531,-0.137207
2016,-61.6875,2.375,-244.75,1.996582,1.015137,-0.1245117,-0.2270508,-0.2641602,-0.1386719
2020,-72.25,6.5,-232.75,2.012207,0.7817383,-0.07080078,-0.2114258,-0.2792969,-0.1425781
2024,-67.625,15.625,-228.3125,1.911133,0.6342773,-0.03613281,-0.1948242,-0.2929688,-0.1494141
2028,-45.5,21.5,-223.875,1.787598,0.5253906,-0.02832031,-0.1806641,-0.3041992,-0.1538086
2032,-17.25,21.875,-222.75,1.632324,0.5292969,-0.02441406,-0.1625977,-0.3154297,-0.15625
2036,6.0625,19.625,-220.625,1.477539,0.6147461,0.01367188,-0.1411133,-0.3266602,-0.1606445
2040,33.5625,14.625,-219.875,1.380371,0.6108398,-0.001464844,-0.1269531,-0.3369141,-0.1591797
2044,65.9375,5.25,-221.5,1.291504,0.7158203,-0.03222656,-0.1079102,-0.3466797,-0.15625
2048,81,-2.1875,-227.5,1.29541,0.9453125,-0.05517578,-0.08544922,-0.3579102,-0.1494141
2052,61.6875,-8,-234.4375,1.271973,1.150879,-0.09765625,-0.06884766,-0.3632813,-0.1455078
2056,15.5,-16.25,-232.125,1.209961,1.228516,-0.1166992,-0.04833984,-0.3706055,-0.1401367
2060,-38.8125,-19.3125,-229.125,1.213867,1.077148,-0.128418,-0.0234375,-0.3730469,-0.1425781
2064,-77.1875,-16.375,-230.375,1.144043,0.8129883,-0.1323242,-0.009277344,-0.3745117,-0.1425781
2068,-102.6875,-18.0625,-225.5625,1.027832,0.4633789,-0.1401367,0.01269531,-0.3706055,-0.1547852
2072,-113.875,-24.9375,-208.4375,0.9619141,0.1367188,-0.1054688,0.03417969,-0.3642578,-0.1645508
2076,-121.5625,-20.375,-186.875,0.9233398,-0.09570313,-0.03613281,0.04492188,-0.3569336,-0.1713867
2080,-127.875,-7.9375,-165.1875,0.7797852,-0.2509766,-0.03222656,0.06152344,-0.3491211,-0.1835938
2084,-121.25,2.5,-149.1875,0.5898438,-0.4375,-0.02050781,0.07861328,-0.3369141,-0.1958008
2088,-105.1875,11.125,-140.1875,0.3999023,-0.3017578,0.01367188,0.08691406,-0.3320313,-0.2011719
2092,-84.625,11.625,-124.9375,0.175293,-0.484375,-0.005371094,0.09863281,-0.3217773,-0.2094727
2096,-71.625,7.125,-111.875,0.08251953,-0.4921875,-0.005371094,0.1079102,-0.3105469,-0.21875
2100,-61.5625,3.4375,-98.8125,0.008789063,-0.519043,0.005859375,0.1166992,-0.3066406,-0.2216797
2104,-56.3125,-0.25,-79.5,-0.1030273,-0.565918,0.06738281,0.1225586,-0.296875,-0.2255859
2108,-54.25,-0.75,-56.25,-0.09130859,-0.5698242,0.140625,0.1269531,-0.2895508,-0.230957
2112,-48.0625,6.125,-39.5,-0.1264648,-0.5737305,0.1713867,0.1308594,-0.2866211,-0.2324219
2116,-39.375,11.625,-25.6875,-0.2001953,-0.534668,0.1635742,0.1342773,-0.2832031,-0.2338867
2121,-28.375,11,-14.25,-0.28125,-0.5229492,0.1328125,0.1357422,-0.2792969,-0.237793
2125,-17.3125,7.875,0.5625,-0.2661133,-0.5463867,0.125,0.1367188,-0.2783203,-0.237793
2129,-7.1875,2.375,19.4375,-0.2661133,-0.5424805,0.1289063,0.1357422,-0.2753906,-0.237793
2133,0.3125,-0.125,38.0625,-0.2504883,-0.519043,0.1328125,0.1357422,-0.2783203,-0.237793
2137,10.6875,-0.875,53.4375,-0.1962891,-0.4921875,0.144043,0.1318359,-0.2792969,-0.2368164
2141,26.5,1.1875,65.3125,-0.1572266,-0.4453125,0.140625,0.128418,-0.2817383,-0.2368164
2145,41.1875,-0.3125,76.3125,-0.08398438,-0.3598633,0.1098633,0.1235352,-0.2880859,-0.2324219
2149,46.5625,-1.625,88.9375,0.03955078,-0.2431641,0.1328125,0.1186523,-0.2944336,-0.2324219
2153,41.875,1.5625,99.8125,0.1210938,-0.1420898,0.09814453,0.112793,-0.3007813,-0.2299805
2157,37.0625,4.3125,110.0625,0.2026367,-0.1381836,0.05566406,0.105957,-0.3056641,-0.2270508
2161,34.4375,8,119.25,0.1791992,-0.1230469,-0.01660156,0.09863281,-0.3120117,-0.2231445
2165,29.9375,1.6875,136.125,0.175293,-0.1308594,-0.1401367,0.08789063,-0.3168945,-0.2202148
2169,29.8125,-13.6875,164.125,0.206543,-0.1381836,-0.2167969,0.07617188,-0.3242188,-0.2177734
2173,38.75,-33.6875,192.1875,0.3959961,-0.03759766,-0.2285156,0.06542969,-0.3291016,-0.2148438
2177,51.6875,-49.75,204.375,0.5976563,0.2070313,-0.1708984,0.04638672,-0.3330078,-0.2119141
2181,63.5,-52.25,191.6875,0.8691406,0.3857422,-0.07470703,0.02490234,-0.3393555,-0.2080078
2185,68.0625,-45.5,180.5,0.9311523,0.4907227,-0.01318359,0.01171875,-0.3432617,-0.2055664
2189,54.25,-47.0625,180.875,0.9658203,0.5332031,-0.05126953,-0.0078125,-0.3457031,-0.1987305
2193,31.75,-53.75,203.5625,1.097656,0.4790039,-0.03613281,-0.02685547,-0.3481445,-0.1928711
2197,12.4375,-57.5,235.5,1.163574,0.5371094,-0.02050781,-0.04492188,-0.3457031,-0.1875
2201,-4.6875,-58.5625,250.75,1.368652,0.6923828,-0.04736328,-0.06982422,-0.3393555,-0.1889648
2205,9.75,-48.9375,230.25,1.512207,0.5058594,-0.01318359,-0.09375,-0.3330078,-0.1865234
2209,55.3125,-41.3125,205.75,1.461914,0.3193359,-0.07861328,-0.109375,-0.328125,-0.1850586
2213,108.5625,-52.9375,201.9375,1.566406,0.3232422,-0.1362305,-0.1303711,-0.3232422,-0.175293
2217,139.4375,-52.5,204.5,1.787598,0.6186523,-0.08984375,-0.1484375,-0.3193359,-0.1616211
2221,130.875,-39.875,217.4375,1.895996,0.9414063,-0.09765625,-0.1640625,-0.3144531,-0.1538086
2225,108.9375,-27.9375,220.5625,1.888184,1.17041,-0.1708984,-0.184082,-0.3056641,-0.1425781
2229,85.3125,-25.5,215.6875,1.868652,1.209473,-0.2436523,-0.2021484,-0.2944336,-0.1347656
2233,68.0625,-26.1875,209.4375,1.876465,1.073242,-0.2167969,-0.2138672,-0.2832031,-0.1318359
2237,71.1875,-25.5,205,1.802734,0.840332,-0.2285156,-0.2294922,-0.2705078,-0.1235352
2241,101.875,-26.4375,211.1875,1.915039,0.6884766,-0.2167969,-0.2426758,-0.2529297,-0.1157227
2245,138.5,-19,209.25,1.96582,0.9101563,-0.2744141,-0.2519531,-0.2456055,-0.1098633
2250,148.5625,-11,201.0625,1.942383,1.189941,-0.34375,-0.2617188,-0.2319336,-0.09912109
2254,131.5,-9.5,195.1875,1.946289,1.380371,-0.3515625,-0.2724609,-0.2192383,-0.09082031
2258,112.5625,-0.0625,183.375,1.922852,1.430664,-0.3051758,-0.2768555,-0.2094727,-0.08691406
2262,100.125,12.75,168.3125,1.806641,1.380371,-0.2861328,-0.2841797,-0.1967773,-0.08300781
2266,107.1875,26.4375,162.125,1.72168,1.353027,-0.3862305,-0.2924805,-0.1831055,-0.08007813
2270,121.625,33,147.1875,1.527832,1.438477,-0.5244141,-0.2958984,-0.1757813,-0.07861328
2274,132.9375,33.25,136.375,1.419434,1.485352,-0.5629883,-0.3032227,-0.1655273,-0.08007813
2278,151.0625,34.1875,129.75,1.403809,1.547363,-0.5170898,-0.3081055,-0.1557617,-0.08007813
2282,170.5,41.1875,130.25,1.376465,2.15332,-0.628418,-0.3105469,-0.1508789,-0.08154297
2286,-68.625,43.5,68.9375,1.546875,6.408203,-0.5092773,-0.3164063,-0.1430664,-0.08544922
2290,-87.125,38.8125,6.5625,1.121094,2.495605,-0.7709961,-0.3149414,-0.1396484,-0.09228516
2294,-55.4375,23.125,-54,0.7099609,1.58252,-0.809082,-0.3149414,-0.1381836,-0.09375
2298,-40.25,-22.5,-68.5625,0.7641602,1.422852,-0.5708008,-0.3115234,-0.1420898,-0.09375
2302,-57.1875,-30.3125,-75.5625,1.237305,1.617188,-0.3862305,-0.3081055,-0.1479492,-0.08837891
2306,-97.625,-17.875,-87.0625,1.306641,1.706543,-0.3051758,-0.3081055,-0.1508789,-0.08837891
2310,-131.4375,-17.25,-104.375,1.43457,1.621094,-0.2939453,-0.3007813,-0.1582031,-0.08544922
2314,-143,-9.75,-130.875,1.608887,1.504395,-0.2397461,-0.2983398,-0.1630859,-0.09082031
2318,-136.625,-0.125,-157.4375,1.686523,1.310547,-0.1743164,-0.2949219,-0.171875,-0.09521484
2322,-114.75,10.75,-176.125,1.783691,1.100586,-0.1206055,-0.2890625,-0.1821289,-0.09765625
2326,-78.5,20.625,-185.5,1.729004,1.003418,-0.1323242,-0.2817383,-0.1958008,-0.1044922
2330,-48.4375,21.875,-190.6875,1.709961,1.135742,-0.1630859,-0.2758789,-0.2055664,-0.105957
2334,-30.8125,23.6875,-199.625,1.72168,1.248047,-0.2016602,-0.2651367,-0.2207031,-0.112793
2338,-16.625,23.8125,-214.5,1.686523,1.356934,-0.2705078,-0.2553711,-0.2368164,-0.1157227
2342,-8.5625,15.5,-238.625,1.686523,1.384277,-0.324707,-0.2460938,-0.2480469,-0.1157227
2346,-10.25,5.125,-252.75,1.748535,1.356934,-0.3129883,-0.234375,-0.2680664,-0.1166992
2350,-25.375,-3.875,-257.3125,1.818359,1.317871,-0.3286133,-0.215332,-0.2856445,-0.1181641
2354,-46.8125,-10.125,-249.75,1.837891,1.213379,-0.309082,-0.203125,-0.3007813,-0.1181641
2358,-65.5625,-16.25,-241.375,1.779785,1.09668,-0.2939453,-0.1831055,-0.3168945,-0.1235352
2362,-76.8125,-21.125,-236.0625,1.740723,0.9799805,-0.2397461,-0.1640625,-0.3291016,-0.1279297
2366,-80.5,-22.6875,-230.6875,1.694336,0.7856445,-0.1708984,-0.1508789,-0.3369141,-0.1318359
2370,-55.8125,-19.375,-226.1875,1.670898,0.5449219,-0.109375,-0.1293945,-0.3442383,-0.1386719
2374,-3.8125,-12.6875,-231.375,1.616699,0.4013672,-0.04394531,-0.1079102,-0.3530273,-0.1416016
2379,42.4375,-10.8125,-227.4375,1.48877,0.6342773,-0.06689453,-0.09375,-0.3579102,-0.1386719
2383,40.6875,-17.5625,-228.125,1.42334,0.9956055,-0.05908203,-0.07226563,-0.3666992,-0.1333008
2387,0.9375,-16.375,-223.625,1.39209,1.09668,-0.08203125,-0.04833984,-0.3730469,-0.1333008
2391,-44.5,-13.9375,-217.875,1.333984,0.972168,-0.08984375,-0.03417969,-0.3754883,-0.1333008
2395,-74.8125,-10.8125,-213.875,1.252441,0.824707,-0.1245117,-0.01171875,-0.3754883,-0.1386719
2399,-102.1875,-8.625,-212.9375,1.155762,0.6733398,-0.1323242,0.01074219,-0.371582,-0.1484375
2403,-121.4375,-2.6875,-204.6875,0.9970703,0.4204102,-0.1513672,0.02246094,-0.3681641,-0.1538086
2407,-131,-3.5,-196.25,0.8535156,0.2299805,-0.1821289,0.04394531,-0.3603516,-0.168457
2411,-137.125,-4.9375,-187.875,0.7719727,0.04736328,-0.1708984,0.06298828,-0.3520508,-0.1806641
2415,-145.5625,-5.6875,-172.5625,0.6674805,-0.07617188,-0.1552734,0.07373047,-0.3432617,-0.1889648
2419,-154.5,-3.125,-150.1875,0.5161133,-0.2353516,-0.1362305,0.08789063,-0.3320313,-0.2041016
2423,-151.625,-2.9375,-126,0.3266602,-0.4257813,-0.1669922,0.09960938,-0.3178711,-0.2177734
2427,-136.5625,-4.625,-110.8125,0.09375,-0.8261719,-0.2939453,0.1069336,-0.3095703,-0.2255859
2431,-111.1875,-9,-111.3125,0.05908203,-0.5541992,-0.1362305,0.1152344,-0.2944336,-0.2353516
2435,-90.625,-13.1875,-106.6875,-0.06054688,-0.5854492,-0.07861328,0.1225586,-0.2817383,-0.2436523
2439,-74.0625,-16.375,-96.5,-0.1420898,-0.6357422,0.009765625,0.1269531,-0.2753906,-0.2475586
2443,-54.5,-18.5625,-76.6875,-0.1186523,-0.7055664,0.04785156,0.1308594,-0.2680664,-0.2514648
2447,-32.0625,-21.25,-51.0625,-0.1225586,-0.7094727,0.105957,0.1333008,-0.2607422,-0.2568359
2451,-15.3125,-20.25,-25.5,-0.1533203,-0.6201172,0.1635742,0.1342773,-0.2568359,-0.2558594
2455,-5.5625,-16.9375,-3.5,-0.1611328,-0.5151367,0.1904297,0.1357422,-0.2558594,-0.2583008
2459,2.3125,-13.9375,10,-0.1767578,-0.4296875,0.2133789,0.1342773,-0.2558594,-0.2597656
2463,9.25,-8.375,19.1875,-0.1728516,-0.387207,0.2172852,0.1333008,-0.2568359,-0.2583008
2467,16,-5.375,32.625,-0.1884766,-0.3637695,0.2172852,0.1293945,-0.2568359,-0.2583008
2471,27.4375,-4.5,47.3125,-0.1923828,-0.3481445,0.1982422,0.1269531,-0.2607422,-0.2597656
2475,44.5625,-6.3125,63.3125,-0.1533203,-0.3208008,0.1943359,0.1259766,-0.2641602,-0.2568359
2479,64.75,-7.8125,72.75,-0.06835938,-0.1928711,0.1713867,0.1201172,-0.2719727,-0.2529297
2483,80.25,-7.75,71.125,-0.01416016,-0.05273438,0.140625,0.112793,-0.2792969,-0.2490234
2487,82.0625,-7.4375,69.125,0.07861328,0.06298828,0.1674805,0.109375,-0.2866211,-0.2446289
2491,68.1875,-0.4375,76.125,0.1171875,0.04394531,0.1826172,0.105957,-0.2929688,-0.2407227
2495,54.375,2,98.5625,0.1132813,-0.03369141,0.1713867,0.09863281,-0.3032227,-0.2353516
2499,44.0625,-2.0625,127.5,0.1328125,-0.03369141,0.1171875,0.09130859,-0.3056641,-0.2338867
2503,39.625,-8.9375,149.25,0.2568359,0.05126953,0.06738281,0.08203125,-0.3120117,-0.2299805
2508,48.875,-12.875,158.5,0.3652344,0.1293945,0.02490234,0.06982422,-0.3208008,-0.2270508
2512,60.625,-17.0625,155.1875,0.4970703,0.3271484,0.04052734,0.05957031,-0.3242188,-0.2231445
2516,55.125,-15.875,147.75,0.6015625,0.5214844,0.01708984,0.04638672,-0.3305664,-0.2177734
2520,30.5,-14.375,157,0.6870117,0.6186523,0.03271484,0.02978516,-0.3369141,-0.2133789
2524,4.5625,-14.25,177.5625,0.659668,0.6186523,0.01708984,0.01757813,-0.3369141,-0.2119141
2528,-9.1875,-20.9375,189.0625,0.7099609,0.6108398,-0.02441406,0.0009765625,-0.3369141,-0.2109375
2532,-8,-25,187.0625,0.8457031,0.6616211,-0.005371094,-0.01611328,-0.3369141,-0.2080078
2536,1.4375,-25.8125,183.875,0.9311523,0.6225586,0.009765625,-0.03076172,-0.3354492,-0.2109375
2540,17.5625,-28.9375,186.8125,0.9619141,0.6264648,0.005859375,-0.04736328,-0.3330078,-0.2094727
2544,25.625,-32.875,188.4375,1.05127,0.7119141,-0.001464844,-0.06494141,-0.3320313,-0.2055664
2548,27.6875,-35.0625,191.125,1.159668,0.7895508,0.001953125,-0.07958984,-0.3266602,-0.206543
2552,32.5625,-38.1875,189.9375,1.19043,0.824707,0.001953125,-0.09863281,-0.3242188,-0.199707
2556,41.125,-43.1875,185.25,1.256348,0.8828125,-0.01660156,-0.1176758,-0.3168945,-0.1958008
2560,42,-46.6875,189.125,1.330078,0.890625,-0.005371094,-0.1293945,-0.3154297,-0.1918945
2564,35.8125,-49.5,199.375,1.407715,0.8828125,-0.02050781,-0.1484375,-0.3056641,-0.1875
2568,32.75,-52.125,204.8125,1.48877,0.875,0.01708984,-0.1674805,-0.296875,-0.1821289
2572,39.25,-53.25,198.5625,1.527832,0.8129883,-0.04003906,-0.1791992,-0.2895508,-0.1796875
2576,63.75,-56.625,193.4375,1.578125,0.7353516,-0.04003906,-0.1962891,-0.2768555,-0.1699219
2580,88.6875,-54.75,188.1875,1.698242,0.777832,-0.01318359,-0.2138672,-0.2641602,-0.1645508
2584,100.25,-46,185.6875,1.771973,0.875,-0.03222656,-0.2236328,-0.2583008,-0.1577148
2588,98.875,-37.5625,185.375,1.748535,0.972168,-0.1054688,-0.2363281,-0.2480469,-0.1469727
2592,85.3125,-34.625,183.1875,1.686523,1.022949,-0.1552734,-0.2460938,-0.2368164,-0.1386719
2596,75.25,-34.125,186.875,1.570313,0.8867188,-0.1513672,-0.2543945,-0.2280273,-0.1303711
2600,87.5625,-39.8125,186.8125,1.539551,0.8168945,-0.1899414,-0.2636719,-0.2143555,-0.1279297
2604,107.9375,-43,182.4375,1.678711,0.953125,-0.09375,-0.2734375,-0.2016602,-0.1157227
2608,118.1875,-32.1875,170.4375,1.779785,1.209473,-0.05517578,-0.2792969,-0.1918945,-0.1113281
2612,96.1875,-16.3125,159.5625,1.666992,1.415039,-0.06298828,-0.2851563,-0.1806641,-0.105957
2616,63.5625,-8.625,159.375,1.531738,1.259766,-0.06689453,-0.2915039,-0.1704102,-0.1035156
2620,53.6875,-6.875,168.75,1.438477,1.09668,-0.1054688,-0.2973633,-0.1621094,-0.1005859
2624,81.6875,-9,172.1875,1.388184,1.146973,-0.08984375,-0.3032227,-0.1479492,-0.09765625
2628,127.8125,-5.5625,141.625,1.395996,1.469727,-0.1552734,-0.3105469,-0.1357422,-0.09667969
2632,189.1875,11.5625,79.0625,1.419434,1.706543,-0.1977539,-0.3115234,-0.1318359,-0.09667969
2637,203.5625,34.125,43.5625,1.085938,3.32666,-0.2436523,-0.3115234,-0.1293945,-0.09375
2641,14.1875,14.3125,18.375,1.140137,4.554688,-0.628418,-0.3139648,-0.1293945,-0.09375
2645,-29.5,19.8125,-49.125,0.9814453,2.50293,-0.4707031,-0.3139648,-0.1293945,-0.09521484
2649,-46.1875,8.75,-92.0625,0.7836914,1.753418,-0.4399414,-0.3105469,-0.1333008,-0.09375
2653,-63.375,-12.5,-82.8125,1.05127,1.58252,-0.2939453,-0.309082,-0.1396484,-0.09667969
2657,-86.0625,-8.6875,-89.3125,1.171387,1.52002,-0.2631836,-0.3066406,-0.1430664,-0.09521484
2661,-91,-15.6875,-106.6875,1.233398,1.380371,-0.2324219,-0.3017578,-0.1508789,-0.09375
2665,-85.6875,-13.75,-132.0625,1.450195,1.32959,-0.1323242,-0.3007813,-0.1567383,-0.09667969
2669,-83.5,-4.75,-146.8125,1.597656,1.259766,-0.07470703,-0.2958984,-0.1645508,-0.09667969
2673,-86.4375,5.5,-156.125,1.628418,1.267578,-0.05126953,-0.2924805,-0.1757813,-0.1005859
2677,-92.625,12.75,-163.6875,1.670898,1.221191,-0.04003906,-0.2841797,-0.1879883,-0.1044922
2681,-95,21.0625,-165.875,1.73291,1.213379,-0.01660156,-0.2817383,-0.1958008,-0.1074219
2685,-98.25,31.125,-171,1.791016,1.217285,0.04785156,-0.2734375,-0.2080078,-0.112793
2689,-94.3125,44.5625,-179.8125,1.833984,1.182129,0.06347656,-0.2626953,-0.2192383,-0.1235352
2693,-91.875,51.0625,-190.375,1.798828,1.17041,0.07910156,-0.2553711,-0.2270508,-0.1279297
2697,-102.125,59.4375,-197.375,1.89209,1.17041,0.05566406,-0.2460938,-0.2392578,-0.137207
2701,-115.1875,72.4375,-197.5625,1.86084,1.034668,-0.02050781,-0.2319336,-0.2519531,-0.1484375
2705,-116.375,78,-192.4375,1.616699,0.8598633,-0.112793,-0.2211914,-0.2592773,-0.1591797
2709,-92.8125,70.5625,-184.5625,1.268066,0.6923828,-0.1782227,-0.206543,-0.2695313,-0.1699219
2713,-44.375,52.0625,-196.0625,1.128418,0.7275391,-0.2631836,-0.1889648,-0.2807617,-0.1796875
2717,-6,24.5625,-216.1875,1.244629,0.9682617,-0.2592773,-0.1772461,-0.2866211,-0.1821289
2721,0.125,9.3125,-238.0625,1.504395,1.166504,-0.1708984,-0.1591797,-0.3017578,-0.1821289
2725,-20.5,5.5625,-243.625,1.612793,1.092773,-0.08984375,-0.1401367,-0.3154297,-0.1835938
2729,-41.8125,7.0625,-233.0625,1.597656,0.921875,-0.08984375,-0.1220703,-0.3232422,-0.1850586
2733,-54.1875,9.3125,-222.1875,1.516113,0.7705078,-0.08984375,-0.1020508,-0.328125,-0.1918945
2737,-64.1875,12.3125,-216.875,1.426758,0.7001953,-0.1206055,-0.08300781,-0.3320313,-0.1958008
2741,-82.75,14.1875,-209,1.302734,0.5952148,-0.1552734,-0.06982422,-0.3344727,-0.1987305
2745,-110.125,11.125,-192.5,1.198242,0.4750977,-0.128418,-0.04980469,-0.3344727,-0.2080078
2749,-135.4375,15.5625,-169.5,1.132324,0.269043,-0.128418,-0.03417969,-0.328125,-0.2177734
2753,-140.5625,23.5,-154.1875,0.9038086,0.01269531,-0.128418,-0.0234375,-0.3242188,-0.2285156
2757,-125.625,25.6875,-142.0625,0.7255859,-0.1772461,-0.1362305,-0.01025391,-0.3168945,-0.2407227
2761,-100.75,24.875,-130.5625,0.6210938,-0.2900391,-0.0859375,0.005859375,-0.3095703,-0.2490234
2766,-77.9375,22,-119,0.5087891,-0.2626953,-0.04736328,0.01416016,-0.3017578,-0.2543945
2770,-58.875,20.5,-109.375,0.4853516,-0.2314453,0.03271484,0.02490234,-0.296875,-0.2612305
2774,-42.1875,25.375,-100.3125,0.4389648,-0.1928711,0.1132813,0.03320313,-0.2905273,-0.2636719
2778,-32.625,34.3125,-89.6875,0.3808594,-0.08007813,0.1713867,0.04052734,-0.2895508,-0.2636719
2782,-33.8125,43.4375,-83.8125,0.2758789,-0.006347656,0.1557617,0.04980469,-0.2856445,-0.269043
2786,-36.875,45.3125,-79.8125,0.2216797,0.01269531,0.1557617,0.06054688,-0.2817383,-0.2719727
2790,-35.5,50.5,-79.1875,0.1557617,-0.02587891,0.140625,0.06787109,-0.2783203,-0.2705078
2794,-29.0625,51.3125,-78.6875,0.02050781,-0.09179688,0.1098633,0.07470703,-0.2719727,-0.2734375
2798,-22.9375,46.625,-70.0625,-0.06054688,-0.2045898,0.08251953,0.08447266,-0.2680664,-0.2719727
2802,-21.3125,40.5,-45.9375,-0.1650391,-0.2783203,0.05566406,0.08886719,-0.2641602,-0.2719727
2806,-15.1875,35.3125,-24.875,-0.2041016,-0.4067383,0.05175781,0.09619141,-0.2631836,-0.2734375
2810,1.1875,25.25,-5,-0.246582,-0.4609375,-0.001464844,0.09960938,-0.2631836,-0.2749023
2814,19.9375,12.5,10,-0.2348633,-0.4140625,-0.03613281,0.1010742,-0.2617188,-0.2734375
2818,33.875,0.0625,25.4375,-0.1650391,-0.3325195,0.02490234,0.1010742,-0.265625,-0.2719727
2822,45.5,-1.6875,36.1875,-0.09912109,-0.2548828,0.07519531,0.09863281,-0.2680664,-0.269043
2826,55.3125,-6.875,47.0625,-0.1030273,-0.2045898,0.05957031,0.09619141,-0.2719727,-0.2651367
2830,63.3125,-14,60.5625,-0.01806641,-0.1347656,0.08642578,0.09277344,-0.2783203,-0.2612305
2834,68,-15.6875,74.75,0.06689453,-0.08007813,0.1171875,0.08691406,-0.2841797,-0.2583008
2838,71.9375,-15.75,89.0625,0.1557617,0.02050781,0.140625,0.08203125,-0.2880859,-0.2543945
2842,75.9375,-11.4375,94.4375,0.2607422,0.1484375,0.1674805,0.07373047,-0.2993164,-0.25
2846,77.1875,-2.375,95.25,0.2836914,0.2573242,0.1674805,0.06542969,-0.3056641,-0.2436523
2850,74.4375,-0.9375,97.375,0.2685547,0.2573242,0.08642578,0.06152344,-0.3105469,-0.2392578
2854,66.375,-4.5625,105.3125,0.2993164,0.3427734,0.05175781,0.05078125,-0.3168945,-0.2324219
2858,55.75,-8.625,118.8125,0.3652344,0.3310547,0.04785156,0.04248047,-0.3232422,-0.2255859
2862,52.25,-11,133.875,0.4389648,0.3310547,0.04052734,0.03320313,-0.3266602,-0.2255859
2866,61.4375,-14,143.1875,0.4619141,0.3466797,0.02490234,0.02148438,-0.3305664,-0.2202148
2870,75.9375,-17.1875,148.25,0.5629883,0.4633789,0.02099609,0.006835938,-0.3344727,-0.2133789
2874,81.8125,-17.5,149.9375,0.5668945,0.6147461,-0.005371094,-0.001953125,-0.3378906,-0.2094727
2878,79.5625,-20.125,147.375,0.6557617,0.7197266,-0.02441406,-0.01757813,-0.3432617,-0.2026367
2882,76.3125,-21.5,145.5,0.8032227,0.6923828,-0.01318359,-0.03320313,-0.3442383,-0.1928711
2886,77.9375,-24.375,155.5,0.8959961,0.6538086,-0.01318359,-0.04248047,-0.3457031,-0.1889648
2890,74.125,-29.625,174.125,1.000488,0.7236328,0.009765625,-0.06054688,-0.3466797,-0.1796875
2895,66.3125,-27.875,190.375,1.124512,0.8129883,0.009765625,-0.078125,-0.3457031,-0.175293
2899,58.0625,-24.875,196.8125,1.159668,0.9257813,-0.005371094,-0.09033203,-0.3417969,-0.1699219
2903,48.0625,-19.9375,189.75,1.229492,1.038574,-0.02832031,-0.1103516,-0.3408203,-0.1645508
2907,44.875,-15.0625,175.5625,1.209961,0.956543,-0.0859375,-0.1293945,-0.3344727,-0.1606445
2911,47.9375,-17,171,1.237305,0.7817383,-0.1245117,-0.1391602,-0.328125,-0.1591797
2915,56.9375,-17.5,177.5,1.330078,0.7041016,-0.1323242,-0.1557617,-0.3217773,-0.1523438
2919,60.5625,-16.4375,191.6875,1.411621,0.7431641,-0.1474609,-0.1699219,-0.3129883,-0.1455078
2923,63,-13.8125,201.5625,1.426758,0.8867188,-0.1708984,-0.184082,-0.3066406,-0.1416016
2927,63.0625,-11.125,193.1875,1.450195,1.053711,-0.2167969,-0.199707,-0.2954102,-0.137207
2931,54.1875,-11.125,176.1875,1.399902,1.09668,-0.2592773,-0.2128906,-0.2832031,-0.1333008
2935,45.625,-15.6875,169.8125,1.376465,0.9023438,-0.2553711,-0.222168,-0.2744141,-0.1289063
2939,41.75,-22.25,179.1875,1.399902,0.7314453,-0.2128906,-0.2319336,-0.2617188,-0.125
2943,47.875,-26.5625,193.6875,1.438477,0.7158203,-0.1708984,-0.2436523,-0.2480469,-0.1181641
2947,54.4375,-27.25,196.125,1.473633,0.8286133,-0.1513672,-0.2509766,-0.2392578,-0.1166992
2951,56.3125,-24.5,194.125,1.473633,0.875,-0.109375,-0.2626953,-0.2255859,-0.1113281
2955,53.1875,-21,190.0625,1.450195,0.875,-0.07861328,-0.2724609,-0.2104492,-0.1044922
2959,63.1875,-17.4375,181.25,1.43457,0.7275391,-0.03613281,-0.2783203,-0.1992188,-0.1044922
2963,96.0625,-15.5,176.3125,1.496582,0.6225586,-0.02832031,-0.2841797,-0.1855469,-0.09912109
2967,142.875,-15.25,170.4375,1.605469,0.8364258,-0.06298828,-0.293457,-0.1743164,-0.09228516
2971,164.25,-7.875,148,1.725586,1.291016,-0.04736328,-0.2973633,-0.1694336,-0.08691406
2975,134.3125,15,132.125,1.729004,1.667969,-0.005371094,-0.3041992,-0.1582031,-0.08447266
2979,90.75,34.4375,130.0625,1.492676,1.718262,-0.03222656,-0.3066406,-0.1494141,-0.08154297
2983,78.1875,34.5,124.625,1.209961,1.733887,-0.2397461,-0.3105469,-0.1430664,-0.08447266
2987,62,30.125,68.4375,0.9501953,3.295898,-0.4594727,-0.3149414,-0.1342773,-0.08691406
2991,-40.4375,4.4375,5.3125,1.144043,3.361816,-0.5629883,-0.3173828,-0.1279297,-0.08544922
2995,-8.25,16.25,-26.6875,1.082031,1.955078,-0.5976563,-0.3188477,-0.1279297,-0.08984375
2999,-7.0625,6.1875,-57.6875,0.8183594,1.753418,-0.4936523,-0.3164063,-0.1333008,-0.09082031
3003,-34.5625,-19.875,-63.375,1.074219,1.877441,-0.4321289,-0.3139648,-0.1342773,-0.08837891
3007,-69.6875,-16.75,-81.1875,1.349609,1.95166,-0.3325195,-0.3115234,-0.140625,-0.08837891
3011,-113.0625,-7.9375,-103.5,1.42334,1.842773,-0.3286133,-0.3081055,-0.1469727,-0.08691406
3015,-131.6875,-4.875,-130.375,1.454102,1.58252,-0.3554688,-0.3041992,-0.1533203,-0.09082031
3019,-134.9375,-5.0625,-147.1875,1.574219,1.275391,-0.3051758,-0.3007813,-0.1606445,-0.09375
3024,-116.9375,1.3125,-153.6875,1.686523,1.112305,-0.2783203,-0.2958984,-0.1694336,-0.09765625
3028,-99.5625,7.25,-161.125,1.740723,1.162598,-0.2207031,-0.2900391,-0.1791992,-0.09912109
3032,-76.1875,13.9375,-179.875,1.837891,1.186035,-0.1743164,-0.2851563,-0.1879883,-0.1020508
3036,-52.8125,19.75,-204.3125,1.853027,1.279297,-0.1743164,-0.2783203,-0.2006836,-0.1074219
3040,-51,19.6875,-218.4375,1.958008,1.403809,-0.1245117,-0.2675781,-0.2192383,-0.1113281
3044,-72.625,23.8125,-223.5,2.042969,1.469727,-0.07080078,-0.2592773,-0.2319336,-0.1157227
3048,-102.5625,34.5625,-228.9375,2.101074,1.364746,-0.06689453,-0.2460938,-0.2470703,-0.1210938
3052,-117,45.9375,-234.625,2.023926,1.100586,-0.09765625,-0.2319336,-0.2641602,-0.1333008
3056,-104.875,53.6875,-239.8125,1.93457,0.8481445,-0.1474609,-0.2197266,-0.2729492,-0.1401367
3060,-82.5,55.375,-247.9375,1.833984,0.7353516,-0.1708984,-0.2006836,-0.2866211,-0.1523438
3064,-62.375,53.0625,-255.5,1.713867,0.6962891,-0.1782227,-0.1806641,-0.3032227,-0.1591797
3068,-58.5,45.8125,-255.125,1.640137,0.6577148,-0.1782227,-0.1650391,-0.3105469,-0.1645508
3072,-61.0625,37.125,-244.0625,1.574219,0.6186523,-0.1743164,-0.1401367,-0.3217773,-0.1713867
3076,-63.25,25.6875,-238.5,1.516113,0.6108398,-0.1323242,-0.1186523,-0.3291016,-0.1782227
3080,-65,23.125,-235.1875,1.504395,0.5878906,-0.05517578,-0.1010742,-0.3344727,-0.1806641
3084,-71.875,27.6875,-231.375,1.442383,0.5527344,-0.04736328,-0.07714844,-0.3378906,-0.1889648
3088,-83.9375,29.9375,-223.9375,1.345703,0.4985352,-0.07470703,-0.05566406,-0.3393555,-0.1972656
3092,-98.5625,27.4375,-217.625,1.213867,0.4282227,-0.09765625,-0.04248047,-0.3393555,-0.2011719
3096,-105.125,23.625,-209,1.124512,0.2612305,-0.05126953,-0.02001953,-0.3354492,-0.2119141
3100,-103.6875,24.9375,-201.8125,1.047363,0.140625,-0.001464844,0,-0.3305664,-0.2216797
3104,-98.5,26.5,-191.1875,0.9541016,0.04003906,0.04785156,0.01171875,-0.3256836,-0.2270508
3108,-91.6875,31.625,-176.75,0.8769531,-0.06445313,0.1210938,0.03076172,-0.3193359,-0.2353516
3112,-79.0625,42.625,-164.5,0.7451172,-0.1733398,0.159668,0.04736328,-0.3095703,-0.2407227
3116,-63.125,49,-154.1875,0.5356445,-0.2275391,0.1367188,0.05957031,-0.3056641,-0.2446289
3120,-47.125,51.5625,-146.25,0.3652344,-0.3056641,0.1098633,0.07373047,-0.296875,-0.2490234
3124,-26.1875,53.5625,-131.125,0.2529297,-0.387207,0.05957031,0.08886719,-0.2905273,-0.2490234
3128,-7.5,49.625,-113.625,0.125,-0.421875,0.04443359,0.09863281,-0.2866211,-0.2514648
3132,4.625,43.3125,-90.125,0.01660156,-0.3754883,0.02099609,0.1118164,-0.2832031,-0.25
3136,8.875,38.8125,-69.5,-0.07226563,-0.3325195,-0.001464844,0.1186523,-0.2807617,-0.2490234
3140,7.0625,28.8125,-52.875,-0.1728516,-0.3056641,-0.05908203,0.1210938,-0.2792969,-0.2460938
3144,0.875,17.4375,-33.625,-0.1728516,-0.3056641,-0.01660156,0.1269531,-0.2753906,-0.2460938
3148,-3.75,13,-14.0625,-0.1611328,-0.3173828,0.02099609,0.1318359,-0.2753906,-0.2460938
3153,2.3125,10.8125,0.6875,-0.1845703,-0.3833008,0.04052734,0.1308594,-0.2744141,-0.2475586
3157,18.375,9,10.5625,-0.2080078,-0.387207,0.02099609,0.1333008,-0.2753906,-0.2446289
3161,28.8125,3.6875,24.5,-0.2192383,-0.3056641,-0.01318359,0.1342773,-0.2792969,-0.2421875
3165,31,-3.125,34.5,-0.1689453,-0.2084961,-0.01318359,0.1308594,-0.2807617,-0.2392578
3169,30.4375,-9.125,45.8125,-0.1264648,-0.2045898,0.009765625,0.1269531,-0.2856445,-0.2392578
3173,30.0625,-11.5,60.875,-0.04492188,-0.1616211,0.05957031,0.1210938,-0.2866211,-0.237793
3177,33.0625,-11.875,73.8125,-0.02197266,-0.1152344,0.05566406,0.1201172,-0.2919922,-0.2368164
3181,39.125,-16.375,85.875,0.01269531,-0.05664063,0.05175781,0.112793,-0.296875,-0.2338867
3185,46.375,-20.5,97.6875,0.109375,0.008789063,0.06738281,0.1035156,-0.3007813,-0.2299805
3189,48.875,-21.8125,109.6875,0.1987305,0.1254883,0.06347656,0.09765625,-0.3081055,-0.2299805
3193,47.3125,-20.75,119.125,0.3496094,0.2148438,0.1132813,0.08691406,-0.3129883,-0.2246094
3197,48.25,-12.875,123.5625,0.3886719,0.2612305,0.125,0.07617188,-0.3217773,-0.2216797
3201,51.75,-7.75,126.9375,0.3652344,0.2573242,0.09423828,0.06884766,-0.3256836,-0.21875
3205,62.25,-8.1875,134.875,0.3808594,0.269043,0.05957031,0.0546875,-0.3305664,-0.2119141
3209,72.3125,-13.25,145.25,0.4350586,0.3388672,0.02099609,0.04248047,-0.3369141,-0.2109375
3213,73.4375,-18.25,159.5625,0.59375,0.4868164,0.001953125,0.03417969,-0.3408203,-0.2041016
3217,60.625,-18.4375,168.1875,0.7758789,0.6772461,0.03271484,0.01757813,-0.3457031,-0.1958008
3221,42.1875,-13.625,171.875,0.8574219,0.7431641,0.06347656,0.0009765625,-0.3491211,-0.1928711
3225,27.8125,-10.125,175,0.8881836,0.7158203,0.04785156,-0.01025391,-0.3491211,-0.1904297
3229,23.3125,-9.9375,178.125,0.9116211,0.6381836,0.03662109,-0.02929688,-0.3466797,-0.1889648
3233,27.875,-12.75,184.25,0.9541016,0.5839844,-0.001464844,-0.04589844,-0.3466797,-0.1850586
3237,37.5625,-15.25,187.375,1.070313,0.6381836,-0.001464844,-0.05810547,-0.3457031,-0.1821289
3241,47.1875,-13.0625,183.3125,1.140137,0.6733398,0.02099609,-0.078125,-0.3417969,-0.1782227
3245,57.375,-10.25,178.125,1.225586,0.7236328,0.03662109,-0.09228516,-0.3378906,-0.1728516
3249,65.75,-4.4375,180.6875,1.233398,0.7548828,0.01367188,-0.1044922,-0.3369141,-0.1713867
3253,73.4375,-8.25,185.5625,1.237305,0.840332,-0.06689453,-0.1220703,-0.3330078,-0.1630859
3257,70.9375,-16.3125,188.3125,1.361328,0.8945313,-0.05908203,-0.1391602,-0.328125,-0.15625
3261,66,-14.5625,190,1.527832,0.7856445,-0.05908203,-0.1518555,-0.3232422,-0.1547852
3265,67.5625,-10.8125,197.375,1.527832,0.7236328,-0.07861328,-0.1674805,-0.3144531,-0.1494141
3269,75.9375,-11.6875,214.5625,1.52002,0.7587891,-0.1206055,-0.1855469,-0.3032227,-0.1416016
3273,84.5,-17.1875,217.6875,1.500488,0.9414063,-0.1938477,-0.1948242,-0.2944336,-0.137207
3277,94.5,-22.875,204.625,1.59375,0.9257813,-0.2089844,-0.2104492,-0.2817383,-0.1303711
3282,108.1875,-20.75,194.25,1.644043,0.8208008,-0.2324219,-0.2246094,-0.2719727,-0.1210938
3286,128.3125,-20.4375,189.625,1.632324,0.8012695,-0.2592773,-0.2329102,-0.2641602,-0.112793
3290,147.125,-18.9375,189.6875,1.605469,0.8598633,-0.3359375,-0.2436523,-0.2504883,-0.1044922
3294,152,-24.875,193,1.442383,1.092773,-0.4707031,-0.2553711,-0.2416992,-0.09228516
3298,129.6875,-42.125,203.75,1.248535,1.291016,-0.6401367,-0.2602539,-0.2304688,-0.08544922
3302,82.5625,-70.4375,220.5,1.225586,1.376465,-0.6708984,-0.2758789,-0.2182617,-0.07617188
3306,40.6875,-83.375,226.875,1.558594,1.337402,-0.4594727,-0.2866211,-0.1982422,-0.06542969
3310,30,-60.0625,199.3125,1.756348,1.267578,-0.2397461,-0.2949219,-0.1855469,-0.05957031
3314,64.3125,-35.1875,178.9375,1.655762,1.049805,-0.1552734,-0.3041992,-0.1694336,-0.05566406
3318,111.8125,-19.5625,168.9375,1.42334,1.430664,-0.2705078,-0.3125,-0.1542969,-0.05029297
3322,-2.6875,-21.3125,194,1.186523,7.95459,-0.07861328,-0.3198242,-0.1479492,-0.04736328
3326,-176.875,22.375,40.0625,1.500488,3.089844,-0.609375,-0.3208008,-0.1367188,-0.05273438
3330,-46.625,54.6875,-43.75,1.202148,1.776367,-0.59375,-0.3208008,-0.1318359,-0.05957031
3334,31.75,41.125,-119.125,0.7719727,1.298828,-0.5629883,-0.3188477,-0.1367188,-0.06103516
3338,3,0,-101.4375,1.124512,1.928223,-0.3325195,-0.3149414,-0.1479492,-0.06103516
3342,-98.0625,15.0625,-92,1.326172,2.157227,-0.2705078,-0.3115234,-0.1542969,-0.06396484
3346,-178.5625,16.125,-91.0625,1.29541,1.865723,-0.3398438,-0.3081055,-0.1582031,-0.06542969
3350,-190.4375,16,-119,1.395996,1.485352,-0.3051758,-0.3017578,-0.1645508,-0.07324219
3354,-162.9375,21.4375,-150.1875,1.516113,1.193848,-0.2285156,-0.2983398,-0.1704102,-0.08300781
3358,-117.3125,31.1875,-179.0625,1.616699,1.057617,-0.1552734,-0.293457,-0.1782227,-0.08300781
3362,-86.375,37.125,-183.875,1.666992,1.166504,-0.1323242,-0.2841797,-0.1933594,-0.09667969
3366,-80.1875,41.0625,-180.875,1.678711,1.395996,-0.1513672,-0.2758789,-0.2070313,-0.1035156
3370,-81.875,44.9375,-190.9375,1.787598,1.508301,-0.1938477,-0.2685547,-0.2167969,-0.1074219
3374,-79.25,51.75,-217.9375,1.837891,1.481445,-0.2324219,-0.2592773,-0.2319336,-0.112793
3378,-71.1875,56.125,-241.125,1.841797,1.337402,-0.2475586,-0.2460938,-0.2470703,-0.1235352
3382,-64.375,57.625,-252.125,1.841797,1.205566,-0.2705078,-0.2329102,-0.2583008,-0.1289063
3386,-71.1875,52.3125,-246.25,1.845703,1.116211,-0.2822266,-0.215332,-0.2768555,-0.1386719
3390,-80.625,48.75,-238.875,1.802734,1.003418,-0.2363281,-0.1972656,-0.2905273,-0.1455078
3394,-80.125,47.625,-238,1.752441,0.8710938,-0.2631836,-0.184082,-0.3007813,-0.1508789
3398,-75.5,43.9375,-240.3125,1.694336,0.824707,-0.1860352,-0.1616211,-0.3120117,-0.1606445
3402,-74.0625,44.8125,-242.5625,1.644043,0.8012695,-0.1591797,-0.1401367,-0.3232422,-0.1713867
3406,-73.1875,40.625,-238.5,1.52002,0.7353516,-0.1054688,-0.1235352,-0.3266602,-0.1738281
3411,-59.5625,39.25,-235.625,1.450195,0.5527344,-0.05517578,-0.09960938,-0.3330078,-0.1806641
3415,-33.625,41.4375,-232.3125,1.357422,0.6342773,-0.04003906,-0.07714844,-0.3378906,-0.1850586
3419,-27.5625,42.5625,-246.125,1.341797,0.956543,-0.04736328,-0.06396484,-0.3417969,-0.1889648
3423,-45.25,40.375,-258.3125,1.256348,0.987793,-0.06689453,-0.03515625,-0.3442383,-0.1928711
3427,-67.0625,29,-252,1.074219,0.8325195,-0.08984375,-0.01025391,-0.3442383,-0.1987305
3431,-68.9375,19.0625,-240.125,0.9501953,0.6499023,-0.07861328,0.005859375,-0.3417969,-0.2011719
3435,-66.6875,11,-231.25,0.8842773,0.6811523,-0.1054688,0.02832031,-0.3378906,-0.2080078
3439,-86.5625,0.4375,-218.625,0.8613281,0.7353516,-0.1435547,0.04882813,-0.3305664,-0.2148438
3443,-112.8125,-0.3125,-211.6875,0.8457031,0.6420898,-0.1323242,0.06298828,-0.3242188,-0.2216797
3447,-118.0625,5.9375,-226.625,0.8339844,0.4790039,-0.1323242,0.08056641,-0.3120117,-0.230957
3451,-111.4375,7.625,-237.625,0.7412109,0.2338867,-0.09375,0.09960938,-0.2954102,-0.2407227
3455,-99.125,9.9375,-225.0625,0.6210938,-0.1655273,-0.02832031,0.112793,-0.2841797,-0.2475586
3459,-80.9375,11.375,-191.875,0.4038086,-0.519043,0.02880859,0.128418,-0.2695313,-0.2529297
3463,-61.375,9.8125,-155.375,0.206543,-0.8144531,-0.001464844,0.1416016,-0.2583008,-0.2568359
3467,-31.4375,1,-123.625,0.07861328,-0.7988281,-0.01318359,0.1474609,-0.2495117,-0.2583008
3471,-7.875,-4.25,-94.8125,0.1015625,-0.7133789,0.09423828,0.1547852,-0.2407227,-0.2612305
3475,-0.5625,1.75,-69.625,0.140625,-0.5463867,0.1518555,0.1591797,-0.234375,-0.2626953
3479,-7.25,10.5,-45.9375,0.109375,-0.4570313,0.1865234,0.1616211,-0.2329102,-0.2597656
3483,-10.4375,16.125,-24.625,-0.01806641,-0.5073242,0.1289063,0.1665039,-0.2294922,-0.2568359
3487,-3.625,11.4375,-7.25,-0.1108398,-0.5268555,0.08251953,0.1674805,-0.2280273,-0.2612305
3491,11.8125,4.0625,3,-0.1459961,-0.5385742,0.09814453,0.1665039,-0.2280273,-0.2597656
3495,23.375,0.375,16.75,-0.08789063,-0.4960938,0.1289063,0.1689453,-0.2294922,-0.2597656
3499,25.1875,1,33.625,-0.03710938,-0.3793945,0.1748047,0.1674805,-0.234375,-0.2583008
3503,19.4375,3.5,45.875,-0.02197266,-0.2861328,0.1748047,0.1640625,-0.234375,-0.2568359
3507,16.125,5.4375,57.75,-0.04101563,-0.3208008,0.1367188,0.1630859,-0.2416992,-0.2543945
3511,23.5,3.625,69,-0.04882813,-0.3442383,0.09033203,0.1606445,-0.2456055,-0.2529297
3515,38.875,0.375,80.75,-0.04492188,-0.3637695,0.06738281,0.1567383,-0.2495117,-0.2529297
3519,54.9375,-3.9375,95.8125,0.01269531,-0.2744141,0.07519531,0.1523438,-0.2568359,-0.2514648
3523,62.5625,-4.75,110.125,0.1289063,-0.1269531,0.1132813,0.144043,-0.2680664,-0.2460938
3527,62.875,-0.5,125.3125,0.206543,0.01660156,0.1132813,0.1376953,-0.2744141,-0.2436523
3531,63.6875,-1.75,139.75,0.2026367,0.1137695,0.1132813,0.1308594,-0.2832031,-0.2392578
3535,68.1875,-7.5625,151.125,0.2836914,0.237793,0.08251953,0.1176758,-0.2929688,-0.2353516
3540,72.3125,-6.5625,155.125,0.4155273,0.3896484,0.09033203,0.109375,-0.3007813,-0.2270508
3544,66.0625,-2.125,160.125,0.5551758,0.5605469,0.09033203,0.09765625,-0.3095703,-0.2246094
3548,50.5625,2.1875,166.0625,0.6171875,0.6420898,0.05957031,0.08447266,-0.3208008,-0.2216797
3552,43.4375,2.5,173.0625,0.5820313,0.6499023,0.005859375,0.07373047,-0.3256836,-0.2148438
3556,40.75,-4.25,172.75,0.559082,0.7119141,-0.03613281,0.05810547,-0.3330078,-0.2109375
3560,35.125,-14.0625,169.875,0.6401367,0.7119141,-0.04394531,0.04248047,-0.3354492,-0.2094727
3564,31.125,-17.75,175,0.7797852,0.5605469,-0.03222656,0.03076172,-0.3369141,-0.2080078
3568,43.375,-18.1875,188.375,0.8920898,0.4013672,-0.02832031,0.01513672,-0.3417969,-0.2055664
3572,70.3125,-18.4375,202.375,0.9619141,0.4360352,-0.02832031,-0.004394531,-0.3432617,-0.199707
3576,92.125,-19.0625,215.6875,1.0625,0.6694336,-0.08984375,-0.01855469,-0.3466797,-0.1943359
3580,95.6875,-20.5,219.625,1.117188,0.953125,-0.1474609,-0.04003906,-0.3466797,-0.1865234
3584,94,-25.4375,219.4375,1.155762,1.049805,-0.1552734,-0.06298828,-0.3491211,-0.1767578
3588,90.1875,-25.1875,211.1875,1.291504,1.053711,-0.1401367,-0.07714844,-0.3457031,-0.1728516
3592,92,-23.0625,211.25,1.376465,0.890625,-0.109375,-0.09472656,-0.3432617,-0.1630859
3596,102,-20.375,226.75,1.492676,0.8012695,-0.1362305,-0.1201172,-0.3378906,-0.1538086
3600,123.5625,-17.0625,239.0625,1.554688,0.9335938,-0.2246094,-0.1328125,-0.3344727,-0.1455078
3604,131,-19.1875,228.75,1.578125,1.263672,-0.2705078,-0.1567383,-0.3256836,-0.1347656
3608,113,-15.3125,216,1.612793,1.372559,-0.2397461,-0.1757813,-0.3178711,-0.125
3612,91.4375,-13.5,213.25,1.550781,1.240234,-0.2631836,-0.1855469,-0.3095703,-0.1166992
3616,81.5,-16.625,222.4375,1.585938,1.17041,-0.3208008,-0.2045898,-0.2983398,-0.1088867
3620,75.1875,-19.5,230.8125,1.612793,1.178223,-0.3515625,-0.2197266,-0.2832031,-0.1035156
3624,72.125,-25.125,239.8125,1.531738,1.213379,-0.4169922,-0.2304688,-0.2719727,-0.09521484
3628,63.3125,-44.875,238.5,1.450195,1.314453,-0.4208984,-0.2446289,-0.2568359,-0.08984375
3632,49.9375,-50.75,227.1875,1.605469,1.388184,-0.2978516,-0.2602539,-0.2382813,-0.08300781
3636,45.25,-36.3125,209.5625,1.63623,1.418945,-0.2363281,-0.2661133,-0.2255859,-0.08007813
3640,46.875,-29.625,195.4375,1.42334,1.450195,-0.2670898,-0.2817383,-0.2104492,-0.07324219
3644,42.375,-29.25,199.9375,1.345703,1.58252,-0.2900391,-0.2890625,-0.1958008,-0.07080078
3648,37,-34.0625,209.4375,1.271973,1.65625,-0.2939453,-0.2973633,-0.1821289,-0.06640625
3652,60.125,-37.625,217.8125,1.388184,1.702637,-0.2285156,-0.3056641,-0.1645508,-0.06396484
3656,116.6875,-18.625,184.25,1.620605,2.137695,-0.09765625,-0.3139648,-0.1445313,-0.05712891
3660,164.625,31.1875,110.125,1.59375,2.724609,-0.2397461,-0.3173828,-0.1367188,-0.05419922
3664,158.6875,42.375,17.9375,1.043457,3.318848,-0.6323242,-0.3208008,-0.1308594,-0.05419922
3669,75.375,12.8125,-67.5625,0.8769531,3.524902,-0.7285156,-0.3208008,-0.1342773,-0.05419922
3673,-54.5625,-7.3125,-115.625,1.124512,3.09375,-0.5361328,-0.3188477,-0.1396484,-0.05273438
3677,-181.6875,-0.125,-114.375,1.39209,2.378906,-0.4707031,-0.3125,-0.1494141,-0.05419922
3681,-256.8125,5.0625,-82.25,1.39209,1.586426,-0.4824219,-0.309082,-0.1557617,-0.0625
3685,-251.25,5,-75.6875,1.508301,1.193848,-0.3515625,-0.3081055,-0.1557617,-0.06640625
3689,-183.0625,16.875,-116,1.702148,1.057617,-0.1474609,-0.3007813,-0.1591797,-0.07470703
3693,-109.5,35.125,-165.25,1.833984,1.244141,0.02099609,-0.2973633,-0.1669922,-0.08300781
3697,-85.875,49.625,-192.875,1.930664,1.562988,0.09423828,-0.293457,-0.1782227,-0.08691406
3701,-104.25,68.75,-197.875,2.074219,1.718262,0.08642578,-0.2851563,-0.1933594,-0.09667969
3705,-128.8125,86.1875,-197.1875,2.132324,1.69873,-0.04394531,-0.2734375,-0.2070313,-0.1074219
3709,-130.5625,93.4375,-221.375,2.101074,1.586426,-0.2128906,-0.2661133,-0.2182617,-0.1166992
3713,-118.9375,96.75,-251.25,2.163086,1.368652,-0.2514648,-0.2519531,-0.2329102,-0.1333008
3717,-116.8125,103.5625,-266.8125,2.101074,1.259766,-0.3359375,-0.2363281,-0.2504883,-0.1484375
3721,-119.875,97.625,-268,2.000488,1.069336,-0.3666992,-0.2211914,-0.2607422,-0.15625
3725,-117.4375,88.625,-256.0625,1.946289,0.8945313,-0.3554688,-0.1972656,-0.2768555,-0.1713867
3729,-104.375,77.75,-248.875,1.783691,0.7817383,-0.3515625,-0.1757813,-0.2866211,-0.1835938
3733,-81.625,64.625,-251,1.72168,0.7314453,-0.2900391,-0.1591797,-0.2929688,-0.1918945
3737,-63,59.875,-261.9375,1.72168,0.7548828,-0.2128906,-0.1342773,-0.3017578,-0.199707
3741,-56.3125,60.0625,-269.9375,1.632324,0.7197266,-0.1669922,-0.1103516,-0.3144531,-0.206543
3745,-60.75,54.5625,-263.75,1.543457,0.6342773,-0.1552734,-0.09375,-0.3168945,-0.2094727
3749,-67.5,48.8125,-247.75,1.481445,0.5097656,-0.128418,-0.06738281,-0.3193359,-0.21875
3753,-70.5,43.25,-232.625,1.372559,0.4633789,-0.1015625,-0.04394531,-0.3217773,-0.2270508
3757,-71.875,39.9375,-220.375,1.291504,0.4243164,-0.07080078,-0.02832031,-0.3208008,-0.2299805
3761,-79.0625,40,-210.75,1.144043,0.4321289,-0.05126953,-0.006835938,-0.3178711,-0.2368164
3765,-91.1875,36.1875,-202.375,0.9619141,0.3701172,-0.04736328,0.01269531,-0.3105469,-0.2421875
3769,-101,29.8125,-192.625,0.8691406,0.203125,-0.03222656,0.02490234,-0.3066406,-0.25
3773,-102.1875,26.25,-172.8125,0.7641602,-0.04150391,0.01708984,0.04394531,-0.2983398,-0.2568359
3777,-96.0625,21.25,-140.5625,0.5898438,-0.2392578,0.03662109,0.05810547,-0.2856445,-0.2666016
3781,-85,11.3125,-108.375,0.3808594,-0.4296875,0.03271484,0.06640625,-0.2817383,-0.2680664
3785,-71.875,1.875,-81.3125,0.3886719,-0.6977539,-0.02441406,0.07373047,-0.2705078,-0.2734375
3789,-40.9375,11.4375,-78.125,0.5009766,-0.421875,0.1635742,0.07958984,-0.2631836,-0.2773438
3793,-13.9375,26.4375,-88.625,0.3574219,-0.340332,0.144043,0.08544922,-0.2592773,-0.2773438
3798,1.125,30.75,-93.125,0.2255859,-0.2861328,0.1674805,0.09130859,-0.2558594,-0.2788086
3802,3.0625,35.625,-83.875,0.1132813,-0.2822266,0.1171875,0.1010742,-0.2529297,-0.2758789
3806,3.125,35,-67.1875,-0.01806641,-0.3442383,0.07128906,0.1044922,-0.2519531,-0.2758789
3810,7.625,31.0625,-49.6875,-0.09912109,-0.324707,0.05957031,0.112793,-0.2495117,-0.2749023
3814,13.5,22.8125,-38.25,-0.1884766,-0.2900391,0.03662109,0.1176758,-0.2480469,-0.2749023
3818,16.1875,16.1875,-28.875,-0.2041016,-0.2587891,0.06347656,0.1225586,-0.2480469,-0.2749023
3822,14.1875,11.375,-16.1875,-0.2426758,-0.2431641,0.05175781,0.1235352,-0.2480469,-0.2705078
3826,11.625,6.75,-3.1875,-0.2270508,-0.2548828,0.02490234,0.125,-0.2480469,-0.269043
3830,12.5625,2,9.25,-0.2583008,-0.2744141,0.009765625,0.1235352,-0.2519531,-0.2705078
3834,14.5625,-3.5625,19.9375,-0.2583008,-0.2939453,0.04052734,0.1259766,-0.2529297,-0.269043
3838,21.125,-6.875,30.375,-0.230957,-0.3442383,0.05957031,0.1225586,-0.2543945,-0.269043
3842,34.125,-12.3125,41.9375,-0.1650391,-0.3793945,0.06347656,0.1201172,-0.2558594,-0.2680664
3846,52.9375,-16.6875,55.6875,-0.09521484,-0.3598633,0.05957031,0.1166992,-0.2641602,-0.2666016
3850,71.1875,-21.0625,70.1875,-0.02978516,-0.2587891,0.06738281,0.1103516,-0.2680664,-0.2636719
3854,81.9375,-22.9375,85.9375,0.09765625,-0.07226563,0.1098633,0.1079102,-0.2744141,-0.2583008
3858,82.375,-18.0625,97.4375,0.1054688,0.1176758,0.125,0.09765625,-0.2841797,-0.2543945
3862,77.9375,-17.125,104.1875,0.1328125,0.2416992,0.1098633,0.08886719,-0.2929688,-0.2475586
3866,80.0625,-17.1875,106.375,0.2255859,0.3081055,0.08251953,0.08300781,-0.2993164,-0.2446289
3870,81.6875,-18.125,111.8125,0.2607422,0.3466797,0.07128906,0.07373047,-0.3095703,-0.237793
3874,75.6875,-22.9375,125.9375,0.3339844,0.4438477,0.09033203,0.06152344,-0.3154297,-0.2324219
3878,63.625,-24.25,140,0.4697266,0.5175781,0.1210938,0.05322266,-0.3232422,-0.2285156
3882,53.9375,-21.75,149.5,0.5898438,0.5566406,0.1674805,0.0390625,-0.3266602,-0.2231445
3886,47.125,-16.0625,154.5,0.6557617,0.5878906,0.1787109,0.02587891,-0.3305664,-0.21875
3890,43.1875,-14.25,158.6875,0.6674805,0.5800781,0.1367188,0.01513672,-0.3330078,-0.2148438
3894,45.75,-13.5625,161,0.7529297,0.5488281,0.09814453,-0.001953125,-0.3369141,-0.2119141
3898,57.4375,-13.875,163.25,0.8071289,0.4946289,0.07910156,-0.01611328,-0.3393555,-0.2080078
3902,71.5625,-15,169.25,0.8730469,0.4868164,0.05566406,-0.02832031,-0.3432617,-0.2041016
3906,84.3125,-12.3125,174.3125,0.9736328,0.5683594,0.07128906,-0.04394531,-0.3432617,-0.1972656
3910,87.8125,-6.5,176.5625,1.085938,0.7236328,0.05566406,-0.05908203,-0.3417969,-0.1889648
3914,83.5,-2.0625,175.375,1.163574,0.7973633,0.04785156,-0.06982422,-0.3432617,-0.1806641
3918,83.125,3.125,172.9375,1.163574,0.7470703,0.01367188,-0.09033203,-0.3432617,-0.1738281
3922,86.4375,5.25,178.1875,1.182617,0.7626953,-0.06689453,-0.1030273,-0.3408203,-0.1699219
3927,81.75,4.0625,183.875,1.241211,0.8520508,-0.1166992,-0.1162109,-0.3378906,-0.1616211
3931,64.375,1.4375,191.75,1.279785,0.987793,-0.1743164,-0.1318359,-0.3320313,-0.15625
3935,41.0625,-2.0625,192.5625,1.310547,0.9838867,-0.1782227,-0.1474609,-0.3256836,-0.1523438
3939,20.125,-7.1875,195.375,1.287598,0.8598633,-0.1474609,-0.1591797,-0.3168945,-0.1494141
3943,10.625,-17.375,209.5,1.330078,0.6499023,-0.1630859,-0.1748047,-0.3066406,-0.1494141
3947,29.125,-29.5,217.3125,1.384277,0.7041016,-0.2246094,-0.1923828,-0.2919922,-0.1455078
3951,52.4375,-41.75,202.6875,1.512207,0.9296875,-0.2128906,-0.2045898,-0.2841797,-0.1416016
3955,55.6875,-35.625,173.875,1.574219,1.108398,-0.1860352,-0.21875,-0.2705078,-0.137207
3959,43.1875,-34.25,161.9375,1.46582,0.9799805,-0.1782227,-0.2304688,-0.2583008,-0.1303711
3963,41.0625,-40.5,171.8125,1.407715,0.890625,-0.2055664,-0.2402344,-0.2519531,-0.1264648
3967,44.6875,-47.8125,181.75,1.399902,0.90625,-0.2207031,-0.2495117,-0.2382813,-0.1181641
3971,55.1875,-54.9375,184.25,1.426758,0.9257813,-0.2285156,-0.2602539,-0.2246094,-0.1098633
3975,76.5,-56,176.875,1.484863,0.921875,-0.2089844,-0.2685547,-0.2143555,-0.1088867
3979,106.0625,-53,156.6875,1.546875,0.972168,-0.1474609,-0.2758789,-0.2045898,-0.1005859
3983,139.5625,-38,142.9375,1.605469,1.100586,-0.109375,-0.2851563,-0.1943359,-0.09228516
3987,156.6875,-22.8125,128.875,1.543457,1.388184,-0.1513672,-0.2890625,-0.1870117,-0.08447266
3991,150.9375,-8.6875,118.4375,1.523926,1.562988,-0.1435547,-0.2949219,-0.1782227,-0.07763672
3995,128.375,14.5,128.9375,1.496582,1.531738,-0.128418,-0.3007813,-0.171875,-0.07177734
3999,107.1875,40.875,163.875,1.500488,1.489258,-0.128418,-0.3056641,-0.1630859,-0.07080078
4003,93.5,57.3125,189.875,1.388184,1.733887,-0.2939453,-0.3115234,-0.1479492,-0.07324219
4007,83.75,37,153.375,1.147949,2.347656,-0.4169922,-0.3173828,-0.1318359,-0.07763672
4011,48.4375,21.125,65.125,1.140137,2.751953,-0.4169922,-0.3208008,-0.1254883,-0.08007813
4015,-7.4375,17.3125,-23.4375,1.128418,2.650879,-0.3632813,-0.3208008,-0.1206055,-0.08154297
4019,-62.625,18.6875,-78.625,1.217773,2.157227,-0.2939453,-0.3188477,-0.1254883,-0.08007813
4023,-111.125,18.375,-87.875,1.275879,1.722168,-0.2553711,-0.3149414,-0.1308594,-0.08447266
4027,-149.8125,16.625,-78.4375,1.279785,1.39209,-0.2436523,-0.3115234,-0.1342773,-0.08837891
4031,-174.6875,12.5625,-68.125,1.376465,1.228516,-0.1977539,-0.309082,-0.1381836,-0.08984375
4035,-163.8125,14.125,-75.125,1.535645,1.092773,-0.1206055,-0.3066406,-0.1396484,-0.09375
4039,-128.4375,26.125,-107.375,1.616699,1.217285,-0.07470703,-0.3017578,-0.1445313,-0.09912109
4043,-104.75,35.5,-147.5625,1.663574,1.356934,-0.0859375,-0.2983398,-0.1533203,-0.105957
4047,-104.0625,41.0625,-169,1.736816,1.388184,-0.1054688,-0.2924805,-0.1606445,-0.1113281
4051,-108.9375,49.125,-169.75,1.802734,1.248047,-0.1552734,-0.2866211,-0.171875,-0.1196289
4056,-105.5625,52.6875,-166.125,1.814453,1.197754,-0.1821289,-0.2792969,-0.1855469,-0.1279297
4060,-94.5625,59.875,-175.5625,1.903809,1.213379,-0.1782227,-0.2724609,-0.1918945,-0.1318359
4064,-79.0625,70.625,-197.3125,1.876465,1.17041,-0.2324219,-0.2626953,-0.203125,-0.1455078
4068,-58.875,73.625,-222.25,1.814453,1.084961,-0.2670898,-0.2519531,-0.2192383,-0.1523438
4072,-47.1875,66.9375,-236.9375,1.713867,1.022949,-0.3168945,-0.2426758,-0.2319336,-0.15625
4076,-45.875,52.375,-236.5,1.659668,0.9916992,-0.2939453,-0.2255859,-0.2480469,-0.1660156
4080,-53.1875,38.5625,-233.5,1.597656,0.9799805,-0.2978516,-0.2080078,-0.2641602,-0.1713867
4084,-48.0625,20.1875,-234.6875,1.59375,0.8286133,-0.2553711,-0.1972656,-0.2729492,-0.1767578
4088,-25.625,5.5625,-239.5625,1.670898,0.7626953,-0.2055664,-0.1791992,-0.2866211,-0.1796875
4092,-9.375,-7.5625,-247.1875,1.709961,0.855957,-0.112793,-0.1616211,-0.2993164,-0.1806641
4096,-16.875,-11.875,-249.625,1.822266,0.921875,0.02490234,-0.1474609,-0.3105469,-0.1806641
4100,-42.1875,-6.3125,-243.5625,1.884277,0.8984375,0.07910156,-0.128418,-0.3217773,-0.1821289
4104,-66.4375,5.5625,-236.0625,1.814453,0.7587891,0.09814453,-0.1069336,-0.3305664,-0.1865234
4108,-81.0625,15.4375,-229.9375,1.694336,0.6381836,0.07128906,-0.09228516,-0.3320313,-0.1918945
4112,-89.4375,21.25,-225.375,1.582031,0.5527344,0.04443359,-0.06982422,-0.3344727,-0.199707
4116,-99.25,27.5625,-223.375,1.46582,0.4790039,0.05957031,-0.04980469,-0.3354492,-0.2094727
4120,-109.375,34.1875,-219.75,1.380371,0.3466797,0.08251953,-0.03417969,-0.3305664,-0.2148438
4124,-120.3125,43.125,-212.9375,1.275879,0.21875,0.07128906,-0.01171875,-0.328125,-0.2255859
4128,-129.9375,53.375,-199.625,1.163574,0.04394531,0.02880859,0.009277344,-0.3193359,-0.2368164
4132,-133.5625,62.875,-180.6875,0.8652344,-0.1191406,-0.01318359,0.02246094,-0.3129883,-0.2436523
4136,-126.25,63.6875,-163.5625,0.6362305,-0.2783203,-0.07080078,0.04150391,-0.3007813,-0.2514648
4140,-97.8125,57.5,-153.625,0.4350586,-0.4726563,-0.1015625,0.05957031,-0.2895508,-0.2626953
4144,-63.875,48.875,-145.5625,0.2607422,-0.6162109,-0.1401367,0.06982422,-0.2817383,-0.2651367
4148,-33.25,43.5625,-133.6875,0.2177734,-0.534668,-0.02441406,0.08300781,-0.2729492,-0.2680664
4152,-18.375,41,-110.5,0.1367188,-0.5,0.01367188,0.09375,-0.2680664,-0.269043
4156,-14.5,41.6875,-89.9375,0.03564453,-0.4296875,-0.02832031,0.1035156,-0.265625,-0.269043
4160,-16.5,39.375,-75.875,-0.1147461,-0.4101563,-0.05908203,0.1118164,-0.2617188,-0.2680664
4164,-18.5625,32.4375,-60.5625,-0.2426758,-0.4414063,-0.07080078,0.1166992,-0.2568359,-0.2705078
4168,-17.3125,22.1875,-44.125,-0.3085938,-0.4765625,-0.05908203,0.1235352,-0.2558594,-0.269043
4172,-9.1875,11.25,-27.5625,-0.3354492,-0.5151367,-0.04736328,0.1259766,-0.2504883,-0.269043
4176,2.875,2.0625,-10.8125,-0.347168,-0.5268555,-0.01660156,0.1308594,-0.2504883,-0.2680664
4180,11.6875,-4.9375,7.625,-0.3046875,-0.4492188,0.01367188,0.1293945,-0.2495117,-0.2680664
4185,14.75,-8.75,24.875,-0.2890625,-0.3481445,0.07128906,0.1269531,-0.2504883,-0.2680664
4189,14.25,-13.625,36.25,-0.28125,-0.2861328,0.08642578,0.125,-0.2529297,-0.2666016
4193,17,-17.875,46,-0.1962891,-0.2470703,0.1289063,0.1210938,-0.2558594,-0.269043
4197,25.5,-16.75,52.5625,-0.1459961,-0.2392578,0.1518555,0.1166992,-0.2607422,-0.2651367
4201,43.0625,-18.9375,58.875,-0.1806641,-0.2392578,0.1132813,0.112793,-0.2631836,-0.2636719
4205,65.875,-26,70.25,-0.1533203,-0.1733398,0.1132813,0.1079102,-0.2680664,-0.2636719
4209,78.9375,-32.5625,81.875,-0.03320313,-0.02197266,0.125,0.1010742,-0.2753906,-0.2583008
4213,80.1875,-34.0625,89.5625,0.109375,0.07861328,0.1904297,0.09277344,-0.2856445,-0.2558594
4217,76.3125,-27.5625,95.3125,0.2685547,0.1333008,0.2519531,0.08691406,-0.2919922,-0.2529297
4221,73.5625,-14.625,99.375,0.3378906,0.171875,0.2788086,0.07861328,-0.2993164,-0.2460938
4225,71.8125,-7.75,110.6875,0.3071289,0.2070313,0.2329102,0.06787109,-0.3081055,-0.2407227
4229,69.6875,-10.9375,131.125,0.3339844,0.2573242,0.159668,0.06152344,-0.3129883,-0.2368164
4233,67.25,-15.1875,147.75,0.4311523,0.3427734,0.144043,0.05078125,-0.3208008,-0.230957
4237,61.3125,-13.375,155.0625,0.5668945,0.4321289,0.140625,0.03564453,-0.3256836,-0.2246094
4241,54.125,-9.5625,152.5,0.6015625,0.4907227,0.1328125,0.0234375,-0.328125,-0.2202148
4245,50.25,-7,148,0.690918,0.4321289,0.07128906,0.01171875,-0.3330078,-0.2177734
4249,57.6875,-9.3125,155.6875,0.7641602,0.2885742,0.04052734,-0.003417969,-0.3378906,-0.2119141
4253,80.1875,-10.9375,167.125,0.8378906,0.2456055,0.001953125,-0.01171875,-0.3378906,-0.206543
4257,96.3125,-13.125,178.875,0.8730469,0.3544922,-0.02050781,-0.03076172,-0.3417969,-0.2011719
4261,102.375,-13.3125,190.4375,0.9970703,0.5136719,-0.03613281,-0.04736328,-0.3442383,-0.1918945
4265,100.875,-7.4375,190.8125,1.144043,0.6459961,-0.06298828,-0.05908203,-0.3432617,-0.1835938
4269,98.25,-4.3125,186.9375,1.217773,0.6962891,-0.1166992,-0.078125,-0.3457031,-0.1728516
4273,95.9375,-2.4375,184.25,1.322266,0.7587891,-0.128418,-0.09472656,-0.3417969,-0.1660156
4277,87.625,0.375,185.375,1.353516,0.8129883,-0.1782227,-0.1054688,-0.3417969,-0.1606445
4281,78.125,1,192.875,1.403809,0.777832,-0.2246094,-0.1235352,-0.3369141,-0.1538086
4285,73.375,1.125,204.25,1.43457,0.8286133,-0.2631836,-0.1411133,-0.3305664,-0.1455078
4289,60.5,-2.375,204.8125,1.42334,0.9375,-0.309082,-0.1533203,-0.3242188,-0.1425781
4293,38.6875,-8.6875,203.75,1.46582,0.9643555,-0.3398438,-0.1708984,-0.3178711,-0.137207
4297,27.1875,-17.0625,201.5,1.48877,0.8012695,-0.3476563,-0.1889648,-0.3041992,-0.1357422
4301,40.1875,-26.25,200.9375,1.496582,0.6499023,-0.3515625,-0.1972656,-0.2954102,-0.1333008
4305,61.9375,-37,202.9375,1.539551,0.7041016,-0.3476563,-0.215332,-0.2807617,-0.1279297
4309,66.6875,-41.25,199.0625,1.620605,0.8984375,-0.3208008,-0.2280273,-0.2680664,-0.1196289
4314,53.9375,-42.4375,197.625,1.651855,0.9956055,-0.3168945,-0.237793,-0.2592773,-0.1166992
4318,35.875,-47.3125,197.375,1.624512,0.9257813,-0.3398438,-0.2509766,-0.2431641,-0.1088867
4322,26.6875,-56.75,207.3125,1.644043,0.8442383,-0.3168945,-0.2636719,-0.2280273,-0.1044922
4326,29,-65.5625,216.3125,1.644043,0.956543,-0.2861328,-0.2709961,-0.2143555,-0.09912109
4330,21.3125,-70.375,209.875,1.644043,1.12793,-0.2246094,-0.2817383,-0.1967773,-0.09228516
4334,8.0625,-67.75,202.3125,1.644043,1.112305,-0.1435547,-0.293457,-0.1791992,-0.08691406
4338,-1.75,-63.6875,199.8125,1.620605,1.007324,-0.128418,-0.2983398,-0.1669922,-0.08300781
4342,1,-63.625,203.125,1.612793,0.9023438,-0.05126953,-0.3066406,-0.1494141,-0.07324219
4346,35.9375,-56.125,211.1875,1.678711,1.015137,-0.01660156,-0.3164063,-0.1293945,-0.07080078
4350,91.3125,-49.125,185.4375,1.640137,1.52002,-0.05517578,-0.3208008,-0.1181641,-0.06787109
4354,142.8125,-34.25,115.4375,1.760254,2.013672,-0.02441406,-0.328125,-0.1030273,-0.0625
4358,57.3125,41.625,-19.4375,2.86084,7.177246,1.132813,-0.3271484,-0.1005859,-0.05859375
4362,-62.3125,52.5,-25.25,1.089844,2.541992,-0.3632813,-0.3271484,-0.1030273,-0.06542969
4366,-42,17.5625,-24.5625,1.244629,1.881348,-0.4555664,-0.3256836,-0.1030273,-0.06933594
4370,-51,20.9375,-50.25,1.330078,2.204102,-0.378418,-0.3256836,-0.1044922,-0.06933594
4374,-97,17.3125,-96,1.399902,2.234863,-0.3554688,-0.3208008,-0.1108398,-0.07080078
4378,-160.75,24.9375,-110.9375,1.601563,2.013672,-0.309082,-0.3188477,-0.1157227,-0.07617188
4382,-210.3125,30.0625,-120.625,1.628418,1.737793,-0.3359375,-0.3149414,-0.1245117,-0.08154297
4386,-228.8125,31.875,-132.625,1.694336,1.403809,-0.2900391,-0.3105469,-0.1269531,-0.08447266
4390,-222.375,36.625,-147,1.853027,1.104492,-0.1669922,-0.3081055,-0.1342773,-0.09521484
4394,-189.25,51.1875,-161.4375,2.016113,0.8481445,-0.06298828,-0.3032227,-0.1430664,-0.1035156
4398,-140.75,69.3125,-181.0625,2.093262,0.8168945,0.001953125,-0.2998047,-0.1494141,-0.1113281
4402,-101.0625,81.9375,-201,2.124512,0.9682617,0.03662109,-0.2915039,-0.1621094,-0.1210938
4406,-82.375,96.6875,-219,2.166992,1.104492,-0.01660156,-0.2827148,-0.1791992,-0.1347656
4410,-87.75,109.375,-229,2.151367,1.143066,-0.08203125,-0.2744141,-0.1904297,-0.1416016
4414,-95.25,111.6875,-231.4375,2.070313,1.026855,-0.1821289,-0.2592773,-0.2104492,-0.1547852
4418,-88.25,108.875,-237.9375,1.977051,0.8671875,-0.2436523,-0.2426758,-0.2255859,-0.168457
4422,-72.4375,103.6875,-244.125,1.922852,0.7548828,-0.2861328,-0.2304688,-0.2382813,-0.1767578
4426,-55.75,96.9375,-254.0625,1.856934,0.6655273,-0.2822266,-0.2104492,-0.2519531,-0.1875
4430,-48.25,89.8125,-253.875,1.76416,0.6069336,-0.2631836,-0.1875,-0.2670898,-0.1987305
4434,-49.875,77.125,-247.4375,1.644043,0.6381836,-0.2363281,-0.1723633,-0.2744141,-0.2041016
