Packet number,Gyroscope X (deg/s),Gyroscope Y (deg/s),Gyroscope Z (deg/s),Accelerometer X (g),Accelerometer Y (g),Accelerometer Z (g),Magnetometer X (G),Magnetometer Y (G),Magnetometer Z (G)
1,-12.4375,-9.375,1.75,-0.4013672,-0.8881836,-0.04003906,0.1499023,0.2573242,-0.1225586
5,-9.875,-3.3125,3.375,-0.3823242,-0.9272461,-0.01660156,0.1533203,0.2587891,-0.125
10,-4.1875,4.3125,5.1875,-0.378418,-0.9580078,0.01367188,0.1547852,0.2597656,-0.1225586
14,2.5625,11.0625,6.875,-0.3974609,-0.9580078,0.02490234,0.1547852,0.2587891,-0.1225586
18,7.75,13.875,7.9375,-0.4404297,-0.9350586,0.01367188,0.1533203,0.2573242,-0.1225586
22,10,12.1875,8.6875,-0.4672852,-0.8959961,-0.01660156,0.1533203,0.2587891,-0.1196289
26,8.8125,9.25,10.5,-0.4750977,-0.8803711,-0.02050781,0.1547852,0.2587891,-0.1210938
30,7.25,5.5625,11.0625,-0.4521484,-0.8764648,-0.06298828,0.1557617,0.2539063,-0.1196289
34,3.4375,2.4375,8.625,-0.4208984,-0.8764648,-0.09765625,0.1547852,0.2548828,-0.1196289
38,-0.375,-1,5.4375,-0.362793,-0.9155273,-0.09375,0.1547852,0.2563477,-0.1196289
42,-2.75,-2,4.25,-0.28125,-0.9931641,-0.04736328,0.1533203,0.2548828,-0.1181641
46,-1.375,-6.375,-2.0625,-0.2192383,-1.125488,-0.01318359,0.1533203,0.2548828,-0.1166992
50,7.0625,-7.25,-18.9375,-0.1459961,-1.257324,-0.02832031,0.1484375,0.2539063,-0.1196289
54,11.375,-10.125,-38.4375,-0.1030273,-1.300293,-0.06298828,0.1416016,0.2573242,-0.1181641
58,11.6875,-18.875,-60.6875,-0.02197266,-1.334961,-0.1435547,0.1333008,0.2597656,-0.1196289
62,4.5625,-23.125,-81.9375,0.08251953,-1.366211,-0.1899414,0.1201172,0.2612305,-0.1181641
66,-8.5,-30.75,-94.3125,0.1635742,-1.408691,-0.2089844,0.09863281,0.2661133,-0.1196289
70,-19.875,-41.5,-101.625,0.3149414,-1.533203,-0.2631836,0.08691406,0.2685547,-0.1166992
74,-28.875,-37.75,-111.125,0.59375,-1.750977,-0.2363281,0.06396484,0.2749023,-0.1157227
78,-16.75,-16.3125,-124,0.7758789,-2.015137,-0.2324219,0.04394531,0.2797852,-0.1074219
82,9.0625,20.25,-136.75,0.9155273,-2.104492,-0.2861328,0.03320313,0.2797852,-0.105957
86,26.0625,58.0625,-145.75,0.8803711,-2.081055,-0.3823242,0.01416016,0.2836914,-0.1044922
90,32.1875,88.9375,-154.125,0.7294922,-2.069336,-0.4321289,-0.0009765625,0.2836914,-0.105957
94,33.125,100.25,-162.75,0.4892578,-2.061523,-0.4667969,-0.01025391,0.2836914,-0.1044922
98,28.0625,91.4375,-177.75,0.3457031,-2.022949,-0.4824219,-0.02587891,0.2836914,-0.1098633
102,17.0625,80.1875,-196.5625,0.2724609,-2.034668,-0.4321289,-0.04003906,0.2836914,-0.1088867
106,11,74.75,-208.5,0.2255859,-2.081055,-0.394043,-0.04980469,0.2836914,-0.1113281
110,11.875,83.625,-212.3125,0.1870117,-2.135742,-0.3554688,-0.06982422,0.2797852,-0.1142578
114,15.5625,97.8125,-206.5,0.08642578,-2.251953,-0.309082,-0.08642578,0.2788086,-0.1166992
118,21.875,110.1875,-208.125,0.06689453,-2.236328,-0.2939453,-0.09863281,0.2763672,-0.1196289
122,24.9375,114.625,-221.25,-0.02587891,-2.225098,-0.2553711,-0.112793,0.2709961,-0.1235352
126,26.6875,108.3125,-234,-0.1689453,-2.221191,-0.1860352,-0.1303711,0.2612305,-0.1289063
130,22.25,88.25,-240.625,-0.2270508,-2.116211,-0.1015625,-0.1435547,0.2563477,-0.1318359
134,23.8125,78.875,-242.9375,-0.09130859,-2.178223,0.02490234,-0.1650391,0.2451172,-0.1347656
139,44,91.0625,-237.375,-0.04492188,-2.221191,0.06738281,-0.1816406,0.2324219,-0.1401367
143,69.0625,109.25,-231.25,-0.08007813,-2.061523,0.03271484,-0.1923828,0.2226563,-0.1469727
147,84.125,114.0625,-226.1875,-0.1884766,-1.863281,-0.04394531,-0.2055664,0.2050781,-0.1591797
151,89.0625,110.0625,-219.9375,-0.2426758,-1.708008,-0.07080078,-0.21875,0.1875,-0.1699219
155,91.5625,106.8125,-216.0625,-0.2543945,-1.595215,-0.08984375,-0.2246094,0.1713867,-0.1782227
159,98.375,98.625,-218.375,-0.2734375,-1.471191,-0.09765625,-0.2319336,0.1499023,-0.1918945
163,101.1875,91.375,-220.875,-0.2661133,-1.265137,-0.07080078,-0.2402344,0.1274414,-0.2055664
167,105.125,94.75,-217.4375,-0.28125,-1.164063,-0.02050781,-0.2426758,0.1137695,-0.2109375
171,114.25,99.75,-204.8125,-0.3549805,-1.024414,-0.001464844,-0.2470703,0.08886719,-0.2246094
175,119.875,101.625,-190.625,-0.4248047,-0.8222656,-0.02832031,-0.2470703,0.06494141,-0.2353516
179,115.9375,96.5,-178.5625,-0.5214844,-0.6083984,-0.04003906,-0.2470703,0.04980469,-0.2421875
183,112.4375,86.5625,-166.25,-0.5605469,-0.4648438,-0.02441406,-0.2436523,0.02636719,-0.2529297
187,107,76.4375,-146.1875,-0.6923828,-0.1889648,-0.03613281,-0.2402344,0.004882813,-0.2612305
191,97.25,60.625,-124.5625,-0.7504883,0.02832031,-0.04003906,-0.237793,-0.005859375,-0.2666016
195,84.0625,42.25,-102.125,-0.7617188,0.2148438,-0.06298828,-0.234375,-0.02441406,-0.2719727
199,71.5625,23.5,-88.75,-0.6923828,0.5019531,-0.07861328,-0.2304688,-0.03808594,-0.2749023
203,48.5625,10.1875,-70.875,-0.6767578,0.6108398,-0.1474609,-0.2304688,-0.046875,-0.2719727
207,22.25,-6.625,-57.4375,-0.7426758,0.7080078,-0.1782227,-0.2280273,-0.0546875,-0.2734375
211,-1.9375,-24.375,-38,-0.7387695,0.7509766,-0.1401367,-0.2270508,-0.05957031,-0.2719727
215,-18.9375,-38.125,-15.3125,-0.6767578,0.7041016,-0.07861328,-0.2294922,-0.06054688,-0.2705078
219,-24.9375,-43.25,6.9375,-0.5644531,0.6264648,-0.02441406,-0.2329102,-0.05957031,-0.269043
223,-23.9375,-41.5625,27.5625,-0.4672852,0.5527344,-0.009277344,-0.2363281,-0.05566406,-0.2651367
227,-21.5625,-34.8125,47.25,-0.4091797,0.4829102,-0.02832031,-0.2387695,-0.05175781,-0.2636719
231,-22,-23.9375,66.5,-0.3320313,0.4516602,-0.04394531,-0.2436523,-0.046875,-0.2626953
235,-26.1875,-8.3125,85.75,-0.347168,0.3232422,-0.05908203,-0.2446289,-0.03808594,-0.2597656
239,-28.5,4.9375,108.6875,-0.4130859,0.21875,-0.04003906,-0.2446289,-0.03173828,-0.2597656
243,-31.3125,8.75,126.375,-0.4711914,0.1484375,-0.04394531,-0.2436523,-0.02050781,-0.2612305
247,-35.375,8.8125,141.5,-0.4985352,0.03613281,-0.02832031,-0.2426758,-0.009277344,-0.2612305
251,-36.5,10.625,158.9375,-0.5141602,-0.1308594,0.001953125,-0.2402344,0,-0.2612305
255,-37.5625,10.5,178.75,-0.5175781,-0.3481445,-0.009277344,-0.2387695,0.01611328,-0.2612305
259,-43.8125,4.875,195.4375,-0.4208984,-0.4882813,0.005859375,-0.2329102,0.03515625,-0.2612305
263,-53.0625,-2.0625,200.1875,-0.2543945,-0.6435547,0.009765625,-0.2304688,0.04736328,-0.2583008
268,-47.3125,7.6875,196.75,-0.06054688,-0.9428711,0.105957,-0.2246094,0.06494141,-0.2583008
272,-32.4375,29.25,203.875,0.0009765625,-0.9892578,0.1557617,-0.2163086,0.08398438,-0.2583008
276,-26.125,53.375,212.9375,0.04345703,-0.9697266,0.1982422,-0.2089844,0.09521484,-0.2583008
280,-33.125,64.0625,225.125,-0.1069336,-0.8999023,0.1171875,-0.1948242,0.1088867,-0.2612305
284,-70.5625,39.0625,223.0625,-0.2504883,-0.8183594,0.02880859,-0.1782227,0.1264648,-0.2626953
288,-113.5,-5.1875,205.6875,-0.28125,-1.144531,0.03662109,-0.1723633,0.1386719,-0.2583008
292,-128.25,-30.5,193.6875,-0.1689453,-1.630371,0.1132813,-0.1591797,0.15625,-0.2514648
296,-116.4375,-23.8125,191.6875,0.05517578,-1.852051,0.2250977,-0.1484375,0.1748047,-0.2421875
300,-107.75,2.6875,199.375,0.09375,-1.67334,0.2519531,-0.1411133,0.1860352,-0.2392578
304,-122.3125,8.6875,209.5625,-0.1108398,-1.665527,0.2021484,-0.1269531,0.2001953,-0.2324219
308,-141.625,-13.0625,209.375,-0.2504883,-1.852051,0.2133789,-0.1103516,0.2148438,-0.2246094
312,-152,-49.0625,196.125,-0.230957,-2.092773,0.2480469,-0.09960938,0.2260742,-0.2148438
316,-138.3125,-71,181.5625,0.03173828,-2.310547,0.3095703,-0.08398438,0.2387695,-0.2041016
320,-104.75,-52.0625,169,0.2373047,-2.240234,0.3671875,-0.07128906,0.2485352,-0.1928711
324,-83.0625,-22.625,173.375,0.04736328,-1.9375,0.2636719,-0.06396484,0.2539063,-0.1835938
328,-88.5625,-18.5625,186.5625,-0.2734375,-1.723633,0.125,-0.04736328,0.2587891,-0.1782227
332,-112.125,-47.875,191.9375,-0.4711914,-1.704102,0.03271484,-0.03173828,0.2636719,-0.168457
336,-130.5,-93.1875,183.375,-0.362793,-1.836426,-0.009277344,-0.02490234,0.2685547,-0.1630859
340,-130.1875,-112.625,167.375,-0.1533203,-1.991699,0.02099609,-0.01025391,0.2709961,-0.1508789
344,-102.0625,-100.8125,160.4375,0.05908203,-2.166504,0.09033203,-0.0009765625,0.2763672,-0.1416016
348,-59.375,-65.625,159.0625,0.1713867,-2.077148,0.07910156,0.008300781,0.2763672,-0.1347656
352,-37.3125,-29.9375,157.375,0.1328125,-1.781738,-0.02832031,0.02001953,0.2773438,-0.1303711
356,-40.375,-16.75,157.375,-0.02978516,-1.591309,-0.128418,0.03173828,0.2739258,-0.1289063
360,-50.75,-21.375,151,-0.1069336,-1.498535,-0.1669922,0.04248047,0.2739258,-0.1279297
364,-61.4375,-27.6875,150.5,-0.1459961,-1.490723,-0.1552734,0.05566406,0.2739258,-0.1235352
368,-64.8125,-33.9375,156.75,-0.1611328,-1.603027,-0.1206055,0.06982422,0.2700195,-0.1210938
372,-52.25,-44.8125,166.4375,-0.1108398,-1.731445,-0.0859375,0.08203125,0.2685547,-0.1196289
376,-26.1875,-48.625,174.1875,0.0009765625,-1.793457,-0.05517578,0.09765625,0.2651367,-0.1210938
380,0.6875,-38.75,181,0.07080078,-1.743164,-0.06689453,0.1166992,0.2597656,-0.1289063
384,13.5625,-22.125,186.6875,0.140625,-1.67334,-0.05517578,0.1318359,0.2524414,-0.137207
388,-13.75,-21.0625,172,0.3339844,-1.48291,-0.1821289,0.1523438,0.2436523,-0.15625
392,-68.5,-72.375,62.4375,1.283691,-2.407715,0.1210938,0.1665039,0.2387695,-0.175293
397,0.75,16.1875,-14.0625,1.364746,-2.95166,0.355957,0.1674805,0.2412109,-0.1796875
401,50.125,23.9375,-53.1875,0.4506836,-1.97998,0.03662109,0.1640625,0.2412109,-0.175293
405,32.9375,7.1875,-71.375,0.2216797,-1.657715,-0.06298828,0.1591797,0.2412109,-0.1630859
409,11.125,-3.875,-85,0.2836914,-1.875,-0.009277344,0.1523438,0.2436523,-0.1547852
413,25.625,7.375,-104.3125,0.3999023,-2.045898,0.08642578,0.1376953,0.2475586,-0.1416016
417,41.875,31.9375,-121,0.4506836,-2.12793,0.1171875,0.1225586,0.2509766,-0.1347656
421,56.4375,51.375,-143.75,0.3266602,-2.186035,0.1171875,0.1142578,0.2539063,-0.1303711
425,63.8125,58.5,-161.875,0.09375,-2.248047,0.1557617,0.09960938,0.2587891,-0.1289063
429,72.625,47.875,-175.625,-0.1147461,-2.349121,0.140625,0.08691406,0.2612305,-0.1333008
433,80.1875,30.5625,-188.6875,-0.1728516,-2.458008,0.1328125,0.07617188,0.262207,-0.1347656
437,89.4375,19.8125,-205.25,-0.1611328,-2.500488,0.08642578,0.06054688,0.2661133,-0.1401367
441,93.8125,15.5,-224.5625,-0.1611328,-2.458008,-0.001464844,0.04150391,0.2661133,-0.1469727
445,94.5,17.0625,-240.375,-0.2001953,-2.473633,-0.0859375,0.02832031,0.2685547,-0.1494141
449,92.3125,20.375,-252,-0.2851563,-2.418945,-0.1591797,0.009277344,0.2675781,-0.1606445
453,87,17.8125,-259.25,-0.2929688,-2.283203,-0.1591797,-0.01416016,0.2675781,-0.1674805
457,73.875,2.75,-261.3125,-0.3125,-2.146973,-0.2207031,-0.03076172,0.262207,-0.1699219
461,49.0625,-6.5625,-266.4375,-0.215332,-2.143066,-0.2167969,-0.05322266,0.2597656,-0.175293
465,38.0625,2.125,-272.875,-0.1499023,-2.32959,-0.1630859,-0.07958984,0.2548828,-0.1796875
469,48.875,32.5,-275.4375,-0.1689453,-2.438477,-0.04003906,-0.09619141,0.25,-0.1821289
473,67.125,56.8125,-277.5625,-0.3007813,-2.321777,-0.06689453,-0.1176758,0.2426758,-0.1850586
477,78.875,69.875,-283.375,-0.5141602,-2.174316,-0.1054688,-0.1391602,0.2260742,-0.1918945
481,86.1875,71.125,-284.9375,-0.7036133,-2.061523,-0.1245117,-0.1518555,0.2172852,-0.1972656
485,97.8125,70.125,-281.6875,-0.7929688,-1.871094,-0.1245117,-0.1708984,0.1987305,-0.2080078
489,108.6875,73.125,-273.25,-0.8276367,-1.583984,-0.1591797,-0.1855469,0.1748047,-0.2177734
493,110.25,73.5625,-260.8125,-0.9013672,-1.280762,-0.1899414,-0.1948242,0.1611328,-0.2246094
497,99.9375,61.875,-245.4375,-0.9868164,-0.9775391,-0.2055664,-0.2045898,0.1362305,-0.2353516
501,83,43.9375,-227.625,-0.9829102,-0.7563477,-0.1782227,-0.2128906,0.1152344,-0.2436523
505,69.8125,32.9375,-203.3125,-0.8974609,-0.5854492,-0.1015625,-0.2172852,0.1010742,-0.2475586
509,63.9375,28.4375,-178.75,-0.847168,-0.4257813,-0.08984375,-0.222168,0.08251953,-0.2543945
513,60,22.1875,-156.0625,-0.862793,-0.2587891,-0.09765625,-0.2280273,0.06396484,-0.2558594
517,55.3125,6.75,-138.4375,-0.8588867,-0.06054688,-0.112793,-0.2294922,0.05371094,-0.2568359
521,47,-5.5625,-118.5625,-0.7617188,0.1137695,-0.112793,-0.2319336,0.04150391,-0.2612305
526,36.1875,-7.875,-96.9375,-0.6108398,0.1796875,-0.07470703,-0.2353516,0.02880859,-0.2626953
530,28.1875,-5.125,-84,-0.5102539,0.284668,-0.08984375,-0.237793,0.02148438,-0.2597656
534,22.25,-0.875,-73.875,-0.4130859,0.4086914,-0.001464844,-0.237793,0.01367188,-0.2597656
538,19.6875,4.3125,-59.5,-0.4013672,0.3857422,0.03662109,-0.2402344,0.006347656,-0.2612305
542,21.6875,7.8125,-42.3125,-0.3823242,0.4282227,0.03662109,-0.2387695,0,-0.2626953
546,21.5625,11.5,-24.6875,-0.3706055,0.4868164,0.01367188,-0.2387695,-0.0004882813,-0.2626953
550,17.25,15,-6.125,-0.3393555,0.5566406,0.01708984,-0.2402344,-0.004394531,-0.2626953
554,10.3125,20.5,16.4375,-0.3203125,0.5253906,0.05957031,-0.237793,-0.006835938,-0.2636719
558,6.5,22.1875,35.6875,-0.3242188,0.4946289,0.1020508,-0.2353516,-0.005859375,-0.2680664
562,3.6875,19.9375,47.9375,-0.3432617,0.3935547,0.159668,-0.234375,-0.003417969,-0.269043
566,2,13.5625,59,-0.3588867,0.315918,0.1635742,-0.2319336,0,-0.269043
570,-7,3.8125,72,-0.378418,0.2885742,0.1210938,-0.2304688,0.00390625,-0.2719727
574,-23.9375,-6.625,86.9375,-0.3901367,0.2265625,0.1132813,-0.2304688,0.01123047,-0.269043
578,-38.125,-14.25,98.25,-0.3549805,0.1098633,0.159668,-0.2280273,0.01757813,-0.2680664
582,-42,-20.375,108.8125,-0.4052734,-0.04150391,0.1904297,-0.2294922,0.02734375,-0.2666016
586,-37.5,-23.6875,126.5,-0.4208984,-0.2353516,0.2402344,-0.2280273,0.04150391,-0.2636719
590,-25.125,-13.875,153,-0.3823242,-0.4648438,0.2402344,-0.2270508,0.04882813,-0.2636719
594,-21.0625,-7.75,176.1875,-0.3974609,-0.4414063,0.08251953,-0.2236328,0.06103516,-0.2597656
598,-46.25,-25.25,183.0625,-0.4711914,-0.5112305,-0.1054688,-0.2172852,0.07763672,-0.2583008
602,-74.875,-48.8125,182.0625,-0.3125,-0.5698242,-0.0859375,-0.215332,0.08886719,-0.2568359
606,-91.75,-53.8125,179.25,-0.08007813,-0.8574219,0.01708984,-0.2114258,0.1088867,-0.2475586
610,-85.625,-36.125,180.8125,0.04736328,-1.164063,0.125,-0.206543,0.1264648,-0.2407227
614,-69,-7.375,190.875,0.02832031,-1.233887,0.1367188,-0.2006836,0.1376953,-0.237793
618,-67.625,6.75,197.5,-0.1225586,-1.160156,0.07519531,-0.1899414,0.1523438,-0.2338867
622,-77.9375,5.1875,202.25,-0.215332,-1.191406,0.06738281,-0.1757813,0.1689453,-0.230957
626,-88,-2.0625,207.875,-0.2504883,-1.323242,0.02099609,-0.1674805,0.1801758,-0.2270508
630,-96.5625,-10,209.5,-0.2080078,-1.48291,-0.005371094,-0.1518555,0.1962891,-0.21875
634,-103.3125,-14.9375,207.75,-0.2001953,-1.606934,-0.05517578,-0.1367188,0.2114258,-0.2119141
638,-108.8125,-19.125,200.25,-0.1845703,-1.622559,-0.05126953,-0.1259766,0.21875,-0.2094727
642,-122,-30.625,194.4375,-0.2661133,-1.665527,-0.04394531,-0.1103516,0.2324219,-0.199707
646,-131.9375,-49.4375,189.4375,-0.2734375,-1.80127,-0.02832031,-0.09472656,0.2460938,-0.1904297
650,-131.6875,-60.1875,184.125,-0.2192383,-1.9375,-0.02441406,-0.08544922,0.2524414,-0.1821289
655,-121.875,-60.9375,181.5,-0.2387695,-2.057617,-0.02832031,-0.07226563,0.2612305,-0.168457
659,-104.6875,-53.75,184.6875,-0.1884766,-2.081055,-0.01318359,-0.05664063,0.2675781,-0.1591797
663,-84.8125,-34.4375,189.5625,-0.1689453,-2.034668,-0.005371094,-0.04589844,0.2709961,-0.1547852
667,-70.4375,-14.1875,195.25,-0.2543945,-1.941406,-0.04003906,-0.03076172,0.2739258,-0.144043
671,-69.125,-6,202.5625,-0.3935547,-1.820801,-0.128418,-0.01269531,0.2763672,-0.1386719
675,-78,-8.4375,200.6875,-0.4750977,-1.731445,-0.1821289,0,0.2773438,-0.1357422
679,-87.75,-18.875,197.3125,-0.5874023,-1.793457,-0.1708984,0.01904297,0.2773438,-0.1289063
683,-87.5625,-42.375,187.6875,-0.5371094,-1.852051,-0.1743164,0.03564453,0.2773438,-0.1210938
687,-86.4375,-62.625,178.375,-0.3706055,-1.836426,-0.2285156,0.04492188,0.2773438,-0.1157227
691,-96.8125,-78,167.9375,-0.2119141,-1.762695,-0.2631836,0.06054688,0.2749023,-0.1113281
695,-108.9375,-92.75,156.5,-0.09912109,-1.855957,-0.2744141,0.07226563,0.2739258,-0.1074219
699,-107.625,-111,147.6875,0.1171875,-2.09668,-0.2475586,0.08203125,0.2724609,-0.1035156
703,-86.1875,-114.3125,120.875,0.4931641,-2.255859,-0.2285156,0.09521484,0.2724609,-0.1035156
707,-67.6875,-114.625,82.25,0.7797852,-2.240234,-0.324707,0.105957,0.2724609,-0.1088867
711,-60.625,-111.5,48.75,1.043457,-2.403809,-0.3168945,0.109375,0.2749023,-0.1166992
715,-42.9375,-103.375,48.6875,1.620605,-3.037109,-0.2475586,0.1118164,0.28125,-0.1289063
719,24.5625,-15.875,27.75,2.585449,-3.553711,-0.02441406,0.109375,0.2836914,-0.1386719
723,69.1875,29.5,-79.0625,1.674805,-2.562988,-0.4321289,0.109375,0.28125,-0.1386719
727,64.25,44.125,-156.875,1.271973,-2.279297,-0.2514648,0.1020508,0.2773438,-0.1303711
731,83.5625,91,-146.0625,0.8339844,-2.458008,-0.09765625,0.08544922,0.2763672,-0.1210938
735,102.8125,118.5,-117.625,0.5898438,-2.182129,-0.1708984,0.08056641,0.2763672,-0.1157227
739,90.5625,125.125,-111,0.3999023,-2.007324,-0.2475586,0.06982422,0.2763672,-0.1157227
743,57.5625,94.25,-136.5625,0.1557617,-1.995605,-0.2670898,0.05957031,0.2724609,-0.1181641
747,36.25,55.375,-179,0.06298828,-2.255859,-0.09375,0.05566406,0.2749023,-0.1157227
751,48.875,38.9375,-209.375,0.1015625,-2.539551,0.05175781,0.03564453,0.2788086,-0.1181641
755,74.3125,49.9375,-220.8125,0.04345703,-2.570801,0.05566406,0.01904297,0.2788086,-0.1225586
759,85.5625,61.9375,-220.125,-0.1303711,-2.469727,-0.05126953,0.006835938,0.2788086,-0.125
763,90.875,63.9375,-228.25,-0.2583008,-2.376465,-0.1054688,-0.01171875,0.2797852,-0.1347656
767,95.5,62.3125,-239.9375,-0.3935547,-2.376465,-0.07470703,-0.02832031,0.2773438,-0.1425781
771,109.625,58.9375,-247,-0.4946289,-2.508301,-0.009277344,-0.04394531,0.2739258,-0.1494141
775,132.3125,51.125,-254.3125,-0.4365234,-2.380371,-0.03613281,-0.06494141,0.2661133,-0.1606445
779,141.8125,56,-262.9375,-0.3666992,-2.213379,-0.06298828,-0.08642578,0.2563477,-0.1713867
784,143.5,53.875,-273.8125,-0.4594727,-2.108398,-0.1513672,-0.1020508,0.2485352,-0.1796875
788,143.375,52.25,-284.6875,-0.4208984,-1.999512,-0.1474609,-0.1235352,0.2338867,-0.1918945
792,145.125,66.1875,-284.9375,-0.4633789,-1.933594,-0.08203125,-0.1425781,0.2138672,-0.206543
796,151.0625,68.875,-275.125,-0.6147461,-1.719727,-0.09375,-0.1567383,0.2011719,-0.2133789
800,144.9375,52.875,-265.125,-0.6962891,-1.424316,-0.1513672,-0.1708984,0.1772461,-0.2255859
804,123.25,32.375,-253.5625,-0.6767578,-1.1875,-0.1860352,-0.1855469,0.1547852,-0.2338867
808,98.8125,17.1875,-242.4375,-0.5756836,-1.024414,-0.1435547,-0.1948242,0.1386719,-0.2421875
812,83.875,14.4375,-225.125,-0.4829102,-0.9233398,-0.1166992,-0.2055664,0.1176758,-0.2475586
816,70.875,22.375,-202.25,-0.4287109,-0.7641602,-0.05908203,-0.2138672,0.09765625,-0.2514648
820,60.5,26.25,-175.0625,-0.4482422,-0.6240234,-0.04736328,-0.21875,0.08398438,-0.2543945
824,46.5,18.875,-157.6875,-0.4790039,-0.5229492,-0.05126953,-0.222168,0.06884766,-0.2568359
828,34.5625,8.1875,-146.375,-0.3862305,-0.4492188,-0.04736328,-0.2280273,0.05517578,-0.2597656
832,25.25,7.75,-140.5,-0.2270508,-0.3095703,-0.03613281,-0.2304688,0.04638672,-0.2612305
836,18.6875,21.125,-128.5,-0.1689453,-0.2431641,-0.03222656,-0.2304688,0.03369141,-0.2626953
840,13.625,38.8125,-104.9375,-0.1845703,-0.1269531,-0.06689453,-0.2304688,0.02148438,-0.2651367
844,6.9375,48.3125,-78.375,-0.2426758,-0.02978516,-0.08203125,-0.2319336,0.01757813,-0.2680664
848,5.625,41.1875,-76.875,-0.2929688,-0.04541016,0.001953125,-0.2280273,0.01025391,-0.2705078
852,17.8125,21.125,-86.0625,-0.2773438,-0.01416016,0.05175781,-0.2280273,0.002441406,-0.2734375
856,21.6875,16.3125,-76.8125,-0.230957,0.09814453,0.1020508,-0.2280273,-0.001953125,-0.2749023
860,13.4375,18.625,-56,-0.28125,0.2651367,0.105957,-0.2270508,-0.008300781,-0.2758789
864,0.8125,12.5,-33.1875,-0.3393555,0.4125977,0.1289063,-0.2246094,-0.01318359,-0.2758789
868,-15.4375,0.125,-3.1875,-0.3823242,0.3701172,0.1171875,-0.2246094,-0.01464844,-0.2773438
872,-28.375,-13.1875,13.1875,-0.3007813,0.3310547,0.1479492,-0.2255859,-0.01318359,-0.2788086
876,-31.4375,-20.75,17.5,-0.2080078,0.2226563,0.2094727,-0.2255859,-0.008300781,-0.2749023
880,-24.1875,-24,20,-0.1499023,0.15625,0.2133789,-0.2255859,-0.004394531,-0.2719727
884,-19.3125,-23.625,28.125,-0.1381836,0.1914063,0.1748047,-0.2280273,-0.003417969,-0.2734375
888,-26,-25.6875,41.8125,-0.1611328,0.2456055,0.1289063,-0.2304688,0.002441406,-0.2705078
892,-39.9375,-34.6875,58.8125,-0.1728516,0.2299805,0.105957,-0.2319336,0.007324219,-0.269043
896,-57.5,-43.0625,74.375,-0.1108398,0.1333008,0.125,-0.2329102,0.01611328,-0.2651367
900,-66.3125,-45.8125,88.6875,-0.03710938,-0.04541016,0.1865234,-0.2353516,0.02490234,-0.2612305
904,-63.4375,-44.8125,96.9375,-0.01416016,-0.2587891,0.2290039,-0.2353516,0.03369141,-0.2583008
908,-51.1875,-43.9375,100.5,-0.02978516,-0.4257813,0.2675781,-0.2387695,0.04736328,-0.2529297
913,-39.875,-42.125,107.3125,-0.02978516,-0.453125,0.2788086,-0.237793,0.05761719,-0.2475586
917,-47.75,-47.5625,113.4375,-0.09521484,-0.5581055,0.2133789,-0.2363281,0.06640625,-0.2446289
921,-54.625,-58.6875,131.9375,-0.02587891,-0.5385742,0.2133789,-0.2363281,0.07763672,-0.2407227
925,-51.1875,-53.625,146,0.03955078,-0.7988281,0.2402344,-0.2363281,0.09375,-0.2338867
929,-30.5625,-40.1875,151.625,0.07080078,-0.9697266,0.2519531,-0.2353516,0.1025391,-0.2285156
933,-9.875,-30.4375,148.4375,0.01660156,-0.8574219,0.2021484,-0.2280273,0.1152344,-0.2255859
937,-14.125,-35.875,145.125,-0.1069336,-0.6787109,0.09033203,-0.2255859,0.1274414,-0.2246094
941,-37.0625,-50.875,149.25,-0.2231445,-0.6938477,0.05957031,-0.222168,0.1337891,-0.2202148
945,-51.5625,-63.5625,164.9375,-0.2041016,-0.9194336,0.05957031,-0.215332,0.1474609,-0.2148438
949,-49.6875,-60.3125,181.125,-0.1069336,-1.133301,0.09423828,-0.2089844,0.1625977,-0.2080078
953,-37.5,-52.5,190.125,0.01660156,-1.214844,0.105957,-0.203125,0.1723633,-0.2041016
957,-28.6875,-42.25,188.5625,0.02050781,-1.175781,0.03662109,-0.1914063,0.1860352,-0.2011719
961,-37.4375,-34.9375,189.0625,-0.1030273,-1.11377,-0.02832031,-0.1831055,0.1972656,-0.1958008
965,-54.75,-41.1875,194.0625,-0.2851563,-1.167969,-0.109375,-0.1733398,0.2075195,-0.1904297
969,-75.5,-59.875,203.9375,-0.3354492,-1.26123,-0.1552734,-0.1591797,0.21875,-0.1865234
973,-89.8125,-78.6875,210.875,-0.2080078,-1.459473,-0.1513672,-0.1474609,0.2324219,-0.1767578
977,-88.9375,-84.5625,213.6875,0.05126953,-1.595215,-0.1821289,-0.1352539,0.2397461,-0.168457
981,-81.125,-60.25,202.6875,0.2451172,-1.692383,-0.1401367,-0.1220703,0.2524414,-0.1606445
985,-63.9375,-20.75,195,0.1557617,-1.704102,-0.1245117,-0.1030273,0.2587891,-0.1538086
989,-59,-1.375,200.25,-0.1264648,-1.622559,-0.2128906,-0.09375,0.2636719,-0.1508789
993,-71.75,0.25,207.375,-0.2851563,-1.564453,-0.2900391,-0.07470703,0.2700195,-0.1455078
997,-97.125,-19.5625,209.5,-0.3432617,-1.681152,-0.359375,-0.05566406,0.2763672,-0.1401367
1001,-106.5,-31.875,198.4375,-0.1069336,-1.871094,-0.2744141,-0.04150391,0.2797852,-0.1333008
1005,-92.3125,-22.75,184.75,0.04736328,-1.999512,-0.1821289,-0.0234375,0.2836914,-0.1235352
1009,-64.5625,6.25,174.875,0.07470703,-1.960449,-0.109375,-0.0078125,0.2861328,-0.1166992
1013,-52.4375,30.5625,177.5625,-0.1225586,-1.781738,-0.1513672,0.003417969,0.2836914,-0.112793
1017,-59.875,37.1875,185.0625,-0.3393555,-1.727539,-0.1860352,0.02246094,0.2836914,-0.1088867
1021,-76.875,14.875,196.5625,-0.4633789,-1.848145,-0.1743164,0.0390625,0.2822266,-0.1044922
1025,-83,-17.875,196.5,-0.3007813,-1.999512,-0.07080078,0.05078125,0.2797852,-0.09765625
1029,-69.875,-39.75,181.8125,-0.08398438,-2.154785,0.009765625,0.06982422,0.2773438,-0.09375
1033,-52.75,-42.125,157.0625,0.1557617,-2.116211,0.08251953,0.08447266,0.2749023,-0.08984375
1037,-42.4375,-42.0625,133.125,0.175293,-2.06543,0.06347656,0.09277344,0.2724609,-0.09082031
1042,-38.875,-67.5,113.8125,0.03173828,-2.077148,0.02099609,0.1044922,0.2739258,-0.09228516
1046,-39.1875,-122.5625,103.6875,0.07080078,-2.158691,-0.08203125,0.1152344,0.2700195,-0.09765625
1050,-57.75,-173.5625,68.875,0.5859375,-2.01123,-0.3012695,0.1186523,0.2709961,-0.1074219
1054,-93.75,-184.9375,1.4375,1.194336,-2.053711,-0.3286133,0.1201172,0.2739258,-0.1142578
1058,-85.75,-157,-67.9375,1.508301,-2.368652,-0.2475586,0.1118164,0.2788086,-0.1142578
1062,-36.375,-85.6875,-107.9375,1.539551,-2.547363,-0.1591797,0.1035156,0.2822266,-0.1113281
1066,24.3125,8.75,-112.75,1.283691,-2.562988,-0.07470703,0.09521484,0.2836914,-0.105957
1070,82.75,89.25,-102.4375,0.8574219,-2.46582,-0.1474609,0.08691406,0.2797852,-0.1005859
1074,119.75,129.25,-97.25,0.4658203,-2.271484,-0.2822266,0.08203125,0.2763672,-0.09912109
1078,124,130.5,-111.0625,0.1713867,-2.049805,-0.378418,0.07617188,0.2773438,-0.1020508
1082,106.25,103.9375,-141.9375,-0.02978516,-1.991699,-0.3823242,0.06298828,0.2763672,-0.1074219
1086,91.125,75.5625,-171.375,-0.06445313,-2.104492,-0.2900391,0.05810547,0.2773438,-0.1098633
1090,93.4375,62.1875,-190.0625,-0.05273438,-2.283203,-0.2246094,0.04394531,0.2763672,-0.1166992
1094,99.6875,62.5,-204.1875,-0.02197266,-2.279297,-0.2744141,0.02734375,0.2788086,-0.1225586
1098,93.625,66.75,-224.375,-0.1342773,-2.232422,-0.3398438,0.01513672,0.2773438,-0.1289063
1102,86.5625,60.5,-235.8125,-0.3242188,-2.255859,-0.3359375,-0.003417969,0.2763672,-0.1386719
1106,81.5625,51.5,-241.1875,-0.3510742,-2.193848,-0.2900391,-0.02246094,0.2749023,-0.144043
1110,76.625,49.6875,-251.9375,-0.3354492,-2.104492,-0.2553711,-0.03662109,0.2749023,-0.1484375
1114,80.5625,53.9375,-260.125,-0.3706055,-2.049805,-0.1938477,-0.05908203,0.2700195,-0.15625
1118,87.8125,63.0625,-256.4375,-0.4248047,-1.949219,-0.1630859,-0.07958984,0.2636719,-0.1616211
1122,90.4375,67.4375,-240.8125,-0.5141602,-1.789551,-0.1708984,-0.09375,0.2573242,-0.1699219
1126,76.1875,59.375,-232.25,-0.5449219,-1.556641,-0.1899414,-0.112793,0.2475586,-0.1767578
1130,54.3125,46.3125,-230.625,-0.5410156,-1.475098,-0.1401367,-0.1293945,0.2363281,-0.1850586
1134,45.1875,39.875,-231.5625,-0.4672852,-1.541016,-0.05517578,-0.1425781,0.2285156,-0.1865234
1138,54.25,45.6875,-231.25,-0.4091797,-1.606934,0.009765625,-0.1601563,0.2172852,-0.1918945
1142,70.4375,59.9375,-223.625,-0.3974609,-1.517578,0.05566406,-0.1733398,0.2011719,-0.1972656
1146,86.6875,69.75,-215.125,-0.4633789,-1.370117,0.03662109,-0.184082,0.1899414,-0.2041016
1150,90.4375,65.5625,-204.75,-0.5292969,-1.144531,-0.02441406,-0.1938477,0.1748047,-0.2133789
1154,81.8125,53.1875,-196.8125,-0.4790039,-0.9541016,-0.009277344,-0.203125,0.1538086,-0.2216797
1158,74.25,45.3125,-188.9375,-0.4169922,-0.8764648,0.001953125,-0.206543,0.1411133,-0.2270508
1162,74.5,47.375,-174.6875,-0.3354492,-0.8496094,0.04785156,-0.215332,0.1235352,-0.2324219
1166,81.125,57,-154.875,-0.246582,-0.7641602,0.06738281,-0.2197266,0.1098633,-0.2407227
1171,85.75,64.3125,-135.3125,-0.2001953,-0.6044922,0.04443359,-0.222168,0.09765625,-0.2446289
1175,79.6875,64.5625,-123.375,-0.2119141,-0.3793945,-0.02832031,-0.2236328,0.08105469,-0.2543945
1179,61.75,65,-119.1875,-0.215332,-0.1347656,-0.05517578,-0.222168,0.06640625,-0.2597656
1183,40.25,63.5,-101.5625,-0.3706055,0.02832031,-0.02050781,-0.2211914,0.05761719,-0.2651367
1187,22.4375,49.3125,-76.5,-0.5141602,0.09423828,0.009765625,-0.2197266,0.04882813,-0.269043
1191,9.6875,17.5,-61.5625,-0.5756836,0.171875,0.02490234,-0.21875,0.04150391,-0.2719727
1195,4.4375,-19.5625,-63.125,-0.4868164,0.3081055,0.07910156,-0.21875,0.03759766,-0.2749023
1199,4,-48.875,-60.4375,-0.3935547,0.2265625,0.09423828,-0.2236328,0.03369141,-0.2705078
1203,-4,-60.875,-55.625,-0.1962891,0.3310547,0.07128906,-0.2294922,0.03027344,-0.2680664
1207,-22.9375,-52.9375,-43.875,-0.07617188,0.3623047,0.06347656,-0.2319336,0.02636719,-0.2651367
1211,-35.625,-40.875,-26.125,-0.09912109,0.284668,0.09033203,-0.2353516,0.02734375,-0.2612305
1215,-34.1875,-28.6875,-1.8125,-0.1342773,0.1757813,0.1367188,-0.237793,0.02734375,-0.2568359
1219,-23.0625,-15.0625,21.875,-0.1186523,0.1293945,0.1826172,-0.2402344,0.03027344,-0.2558594
1223,-10.9375,-4.75,38.625,-0.1264648,0.1137695,0.1982422,-0.2402344,0.03369141,-0.2558594
1227,-2.0625,1,51.25,-0.1533203,0.1333008,0.1674805,-0.2402344,0.03759766,-0.2558594
1231,-2,-0.125,60.0625,-0.1962891,0.1835938,0.1171875,-0.2387695,0.04150391,-0.2543945
1235,-14.25,-11.6875,69.1875,-0.2661133,0.1953125,0.04052734,-0.237793,0.04638672,-0.2543945
1239,-35.0625,-23.3125,78.125,-0.2348633,0.1523438,0.07128906,-0.2353516,0.05273438,-0.2514648
1243,-50.9375,-31.5,90.0625,-0.2192383,0.02441406,0.09814453,-0.2363281,0.05859375,-0.25
1247,-60.125,-38.625,103.75,-0.2080078,-0.1152344,0.1171875,-0.234375,0.06982422,-0.2436523
1251,-62.875,-46.125,112.4375,-0.2192383,-0.2900391,0.144043,-0.2363281,0.08496094,-0.2407227
1255,-60.875,-52.875,122.875,-0.1962891,-0.4101563,0.1132813,-0.234375,0.09130859,-0.2368164
1259,-61.1875,-53,138.125,-0.1533203,-0.5307617,0.09814453,-0.2329102,0.1064453,-0.2285156
1263,-64.375,-52,149.875,-0.1381836,-0.6669922,0.07128906,-0.2304688,0.1210938,-0.2231445
1267,-61.6875,-49.75,156.125,-0.09521484,-0.8222656,0.06738281,-0.2255859,0.1298828,-0.2163086
1271,-48.125,-43.3125,150.9375,-0.09130859,-0.9467773,0.06738281,-0.2197266,0.1474609,-0.2133789
1275,-36.5625,-34.125,148.75,-0.1572266,-0.9194336,0.06347656,-0.2128906,0.1586914,-0.2080078
1279,-34.8125,-27.125,158,-0.246582,-0.8842773,0.03271484,-0.2080078,0.1689453,-0.2041016
1283,-41.4375,-25.4375,177.0625,-0.3164063,-0.9697266,-0.01318359,-0.1982422,0.1772461,-0.2011719
1287,-46.4375,-25.1875,196.625,-0.3125,-1.148438,-0.07080078,-0.1875,0.1938477,-0.1958008
1291,-47,-23.25,205,-0.1923828,-1.257324,-0.1206055,-0.1791992,0.2011719,-0.1928711
1295,-48.4375,-11.3125,198.875,-0.08007813,-1.288574,-0.1015625,-0.1650391,0.2148438,-0.1875
1300,-47.125,0.3125,189.25,-0.1572266,-1.319336,-0.08203125,-0.1474609,0.2260742,-0.1850586
1304,-52,4.8125,191.625,-0.2543945,-1.29248,-0.1015625,-0.1376953,0.2338867,-0.1850586
1308,-73.0625,1.25,200.4375,-0.4208984,-1.315918,-0.1630859,-0.1201172,0.2426758,-0.1806641
1312,-99.5625,-17.6875,207.4375,-0.4946289,-1.471191,-0.1860352,-0.1030273,0.2524414,-0.1738281
1316,-113,-35.9375,209.375,-0.4013672,-1.688477,-0.1782227,-0.09033203,0.2597656,-0.1699219
1320,-116.0625,-41.5,206.4375,-0.262207,-1.805176,-0.1669922,-0.07226563,0.2685547,-0.1591797
1324,-113.3125,-33.5,201.125,-0.2119141,-1.871094,-0.1362305,-0.05322266,0.2749023,-0.1484375
1328,-112.25,-27.8125,197.6875,-0.3164063,-1.878906,-0.1821289,-0.04150391,0.2788086,-0.1425781
1332,-117.875,-32.9375,195.5,-0.3393555,-1.9375,-0.2285156,-0.0234375,0.2836914,-0.1303711
1336,-121.125,-41.9375,183.3125,-0.3393555,-1.987793,-0.2553711,-0.004394531,0.2851563,-0.1181641
1340,-115.5625,-43.4375,171.375,-0.2661133,-1.991699,-0.2246094,0.003417969,0.2861328,-0.1142578
1344,-105.375,-36,171.3125,-0.296875,-2.022949,-0.1977539,0.01757813,0.2861328,-0.1035156
1348,-95.625,-32.9375,177.25,-0.2583008,-2.022949,-0.2324219,0.03564453,0.2861328,-0.09521484
1352,-92.0625,-36.875,178.375,-0.1533203,-1.995605,-0.2631836,0.04394531,0.2851563,-0.08837891
1356,-87.875,-44.3125,171.1875,-0.006347656,-2.081055,-0.2553711,0.06152344,0.28125,-0.08300781
1360,-78.5625,-48.875,160,0.1484375,-2.150879,-0.2089844,0.07470703,0.2797852,-0.07763672
1364,-64.0625,-48.625,143.5625,0.2836914,-2.178223,-0.1708984,0.08544922,0.2788086,-0.07324219
1368,-55.3125,-53.375,130.0625,0.3925781,-2.221191,-0.2246094,0.09765625,0.2773438,-0.07470703
1372,-51.1875,-65.3125,108.5625,0.5395508,-2.236328,-0.2514648,0.1103516,0.2773438,-0.07617188
1376,-47.125,-81.6875,85.9375,0.6713867,-2.232422,-0.3476563,0.1186523,0.2788086,-0.07861328
1380,-55.25,-105.75,59.625,0.8378906,-2.255859,-0.4130859,0.1259766,0.2788086,-0.08154297
1384,-51.4375,-106,13.5625,1.244629,-2.356934,-0.4013672,0.1259766,0.2788086,-0.08447266
1388,-21,-57.0625,-46.6875,1.411621,-2.458008,-0.2324219,0.1235352,0.28125,-0.08447266
1392,27.0625,11.5625,-87.0625,1.202148,-2.372559,-0.1362305,0.1176758,0.2788086,-0.08154297
1396,69.3125,69.625,-101.1875,0.7568359,-2.271484,-0.1552734,0.1079102,0.2788086,-0.07861328
1400,96.3125,98.4375,-97.25,0.3110352,-2.154785,-0.2436523,0.1035156,0.2763672,-0.07763672
1404,99,95.0625,-99.6875,0.06689453,-2.038574,-0.3208008,0.09521484,0.2763672,-0.08007813
1408,90.125,67.0625,-125.875,-0.01806641,-2.049805,-0.309082,0.08544922,0.2773438,-0.08154297
1412,83.875,39.4375,-158,0.09033203,-2.120117,-0.2939453,0.07861328,0.2797852,-0.08544922
1416,77.3125,31.5625,-187.125,0.159668,-2.209473,-0.3012695,0.06298828,0.2797852,-0.09082031
1420,72.125,28.4375,-207.625,0.1171875,-2.255859,-0.3666992,0.04394531,0.2822266,-0.09521484
1424,64.6875,29.3125,-216.5625,0.1132813,-2.279297,-0.4321289,0.03320313,0.2836914,-0.09912109
1429,55.875,34.4375,-226.5625,0.1132813,-2.275391,-0.4863281,0.01171875,0.2875977,-0.1044922
1433,51.1875,43.4375,-242,0.05517578,-2.356934,-0.4477539,-0.006835938,0.2875977,-0.1088867
1437,56,55.375,-257.125,-0.08007813,-2.399902,-0.4091797,-0.02246094,0.2875977,-0.112793
1441,65.125,66.1875,-261.875,-0.2041016,-2.415039,-0.4013672,-0.04736328,0.2885742,-0.1166992
1445,77.1875,81.6875,-265.875,-0.2661133,-2.403809,-0.34375,-0.07128906,0.2822266,-0.1235352
1449,92.5,95.9375,-266,-0.3901367,-2.294922,-0.3359375,-0.08642578,0.2773438,-0.1289063
1453,100.1875,95.6875,-267.0625,-0.5410156,-2.049805,-0.3745117,-0.109375,0.2685547,-0.1401367
1457,92.6875,80.25,-269.5,-0.6455078,-1.855957,-0.3398438,-0.1318359,0.2548828,-0.1523438
1461,83.9375,66.875,-264.125,-0.6728516,-1.820801,-0.2514648,-0.1459961,0.2460938,-0.1606445
1465,86,69.375,-251.0625,-0.6342773,-1.762695,-0.112793,-0.1665039,0.2314453,-0.1645508
1469,101,78.625,-234.25,-0.6728516,-1.638184,-0.03222656,-0.1816406,0.2138672,-0.175293
1473,112.1875,77.125,-216.75,-0.7734375,-1.463379,-0.04394531,-0.1899414,0.2001953,-0.1821289
1477,111.9375,60.1875,-206.25,-0.796875,-1.191406,-0.03613281,-0.2021484,0.1811523,-0.1943359
1481,104.375,39.875,-203.25,-0.7617188,-1.000977,-0.04003906,-0.2114258,0.1611328,-0.206543
1485,98.625,28.625,-195.0625,-0.6650391,-0.8417969,-0.02050781,-0.2197266,0.1474609,-0.2080078
1489,92.8125,29.3125,-179.75,-0.5722656,-0.6435547,-0.02832031,-0.2280273,0.1289063,-0.2177734
1493,87.625,31.25,-165.875,-0.5102539,-0.4726563,-0.09765625,-0.2353516,0.1113281,-0.2231445
1497,80,33.125,-152.1875,-0.4868164,-0.3056641,-0.1015625,-0.237793,0.09619141,-0.2270508
1501,68.6875,31.75,-135.0625,-0.4829102,-0.1074219,-0.1166992,-0.2412109,0.08007813,-0.2338867
1505,53.875,22.0625,-121.9375,-0.4711914,0.08251953,-0.1166992,-0.2460938,0.06738281,-0.2392578
1509,36.5625,9.375,-103.3125,-0.4555664,0.1445313,-0.09765625,-0.2470703,0.05761719,-0.2407227
1513,22.75,2.1875,-80.5,-0.3745117,0.2338867,-0.03222656,-0.2485352,0.04882813,-0.2392578
1517,15.25,-0.0625,-61.125,-0.3432617,0.1796875,-0.01318359,-0.2519531,0.04150391,-0.2421875
1521,14.4375,-1.5625,-48.8125,-0.262207,0.2109375,0.04443359,-0.2495117,0.03759766,-0.2436523
1525,13.3125,-0.5,-40.0625,-0.2270508,0.21875,0.05175781,-0.2519531,0.03369141,-0.2421875
1529,13.0625,-0.6875,-32.75,-0.1923828,0.253418,0.08251953,-0.253418,0.02636719,-0.2421875
1533,13.25,1.125,-20.125,-0.1533203,0.2768555,0.09814453,-0.2519531,0.02392578,-0.2421875
1537,5.625,9.3125,-2.5625,-0.1767578,0.3466797,0.07519531,-0.253418,0.02392578,-0.2421875
1541,-4.3125,13.375,18.0625,-0.262207,0.3388672,0.07128906,-0.253418,0.02392578,-0.2436523
1545,-10.6875,7.75,38.0625,-0.328125,0.2924805,0.1020508,-0.2519531,0.02636719,-0.2436523
1549,-10.8125,-4.8125,49,-0.3007813,0.2338867,0.1132813,-0.2495117,0.03027344,-0.2436523
1553,-10.3125,-17.8125,58.5,-0.28125,0.203125,0.1171875,-0.2495117,0.03515625,-0.2436523
1558,-13.6875,-30.6875,73.9375,-0.262207,0.1835938,0.09033203,-0.2495117,0.03759766,-0.2407227
1562,-24.625,-44.6875,92.625,-0.3085938,0.05517578,0.09423828,-0.2519531,0.04638672,-0.2368164
1566,-30.4375,-63.5625,109.625,-0.3320313,-0.1308594,0.09033203,-0.253418,0.05761719,-0.2338867
1570,-27.375,-73.875,125.0625,-0.2734375,-0.3208008,0.1479492,-0.253418,0.06640625,-0.2299805
1574,-19.625,-70.625,140.0625,-0.1845703,-0.402832,0.140625,-0.253418,0.07763672,-0.2216797
1578,-26.8125,-55.125,148.5,-0.08007813,-0.3520508,0.1210938,-0.253418,0.08984375,-0.2177734
1582,-38.125,-43.125,149.4375,-0.1225586,-0.421875,0.1020508,-0.2495117,0.09863281,-0.2133789
1586,-41.3125,-37.4375,153.375,-0.2080078,-0.6083984,0.140625,-0.2460938,0.1137695,-0.2109375
1590,-31.25,-32.3125,167,-0.3007813,-0.7792969,0.140625,-0.2402344,0.1298828,-0.2041016
1594,-17.9375,-27.375,182.3125,-0.3588867,-0.8999023,0.08251953,-0.234375,0.1376953,-0.2011719
1598,-11.6875,-18.3125,197.875,-0.3745117,-0.9389648,0.02880859,-0.2246094,0.1513672,-0.199707
1602,-19.9375,-11.75,207.8125,-0.4052734,-0.8535156,-0.08203125,-0.2138672,0.1674805,-0.1987305
1606,-45.625,-22.5,211,-0.5102539,-0.8417969,-0.1474609,-0.2055664,0.1748047,-0.1958008
1610,-70.0625,-41.375,216.1875,-0.5605469,-1.016602,-0.1630859,-0.1914063,0.1914063,-0.1928711
1614,-82.375,-55.1875,221.5,-0.5566406,-1.272949,-0.1206055,-0.1782227,0.2075195,-0.1850586
1618,-80.875,-60.375,230.0625,-0.4946289,-1.556641,-0.07861328,-0.1699219,0.2172852,-0.1796875
1622,-62.0625,-45.0625,236.3125,-0.3588867,-1.727539,0.02490234,-0.1518555,0.2324219,-0.1728516
1626,-50.75,-14.875,243.75,-0.4443359,-1.770508,0.04052734,-0.1303711,0.2451172,-0.1674805
1630,-57.375,-12.8125,259.3125,-0.6767578,-1.83252,0.02099609,-0.1186523,0.2524414,-0.1630859
1634,-65.3125,-36.875,256.75,-0.6494141,-1.953125,0.009765625,-0.09472656,0.262207,-0.1591797
1638,-62.4375,-53.0625,236.875,-0.4633789,-2.124023,0.06347656,-0.07470703,0.2675781,-0.1523438
1642,-37.5625,-37.5,220.5,-0.2929688,-2.221191,0.1171875,-0.06152344,0.2700195,-0.1494141
1646,-13.5625,-2.375,225.125,-0.3242188,-2.158691,0.04443359,-0.04003906,0.2724609,-0.1484375
1650,-18.5625,17.0625,243.25,-0.5141602,-1.949219,-0.1166992,-0.01757813,0.2724609,-0.1469727
1654,-53,8.625,255.0625,-0.6069336,-1.828613,-0.2670898,-0.004394531,0.2709961,-0.144043
1658,-98.375,-21.625,251.5625,-0.5722656,-2.01123,-0.3325195,0.01904297,0.2724609,-0.1401367
1662,-118.6875,-56.0625,229.4375,-0.246582,-2.314453,-0.2783203,0.04052734,0.2724609,-0.1333008
1666,-105.9375,-58.875,199.3125,0.2177734,-2.489258,-0.1630859,0.05078125,0.2709961,-0.1264648
1670,-76.6875,-24.625,186.125,0.5087891,-2.504395,-0.06689453,0.06982422,0.2675781,-0.1225586
1674,-55.4375,7.625,183.8125,0.4580078,-2.395996,-0.03222656,0.09033203,0.2636719,-0.1235352
1678,-52.5,4.5,181.125,0.3959961,-2.302734,-0.112793,0.1044922,0.2597656,-0.1279297
1682,-75.75,-35.0625,176.625,0.3149414,-2.341309,-0.3168945,0.1293945,0.25,-0.137207
1687,-126.6875,-135.4375,202,0.9814453,-3.266113,-0.59375,0.1523438,0.2436523,-0.1660156
1691,-35.6875,-108.1875,64,2.620605,-3.946289,-0.4936523,0.1582031,0.2426758,-0.1865234
1695,-47.625,-69.125,-43.4375,1.384277,-2.112305,-0.2631836,0.1508789,0.2426758,-0.1835938
1699,-26.1875,-31,-154.3125,0.9116211,-2.306641,-0.1938477,0.1391602,0.2509766,-0.1591797
1703,18.25,25.3125,-159.0625,0.527832,-2.291016,0.02490234,0.128418,0.2548828,-0.1386719
1707,68.6875,76.5,-127.6875,0.1328125,-2.081055,-0.02441406,0.109375,0.2636719,-0.1181641
1711,85.4375,92.5625,-90.9375,-0.1499023,-1.797363,-0.2055664,0.09863281,0.2661133,-0.1142578
1715,55.3125,59.375,-84.4375,-0.2387695,-1.505859,-0.3901367,0.09375,0.2661133,-0.1113281
1719,-6.75,-0.8125,-122.875,-0.1611328,-1.509766,-0.4628906,0.08544922,0.2685547,-0.1098633
1723,-61.9375,-56.25,-180.5,-0.006347656,-1.929688,-0.4399414,0.06982422,0.2749023,-0.105957
1727,-82.375,-79.9375,-232.5625,0.2255859,-2.306641,-0.4248047,0.05712891,0.2773438,-0.1005859
1731,-67.5,-48.875,-260,0.3925781,-2.625,-0.3286133,0.03320313,0.2851563,-0.09375
1735,-27.5,16,-255.0625,0.2412109,-2.811523,-0.324707,0.005859375,0.2900391,-0.08544922
1739,16.625,77,-233.875,0.008789063,-2.702637,-0.4013672,-0.0078125,0.2900391,-0.08544922
1743,42.6875,120,-228.5,-0.215332,-2.446289,-0.4785156,-0.02832031,0.2924805,-0.08691406
1747,53.0625,135.8125,-233.125,-0.4404297,-2.341309,-0.4936523,-0.04589844,0.2910156,-0.09228516
1751,54.5625,134.1875,-245.0625,-0.6342773,-2.20166,-0.4707031,-0.06152344,0.2885742,-0.09667969
1755,48.75,115.6875,-254.3125,-0.7231445,-2.131836,-0.4208984,-0.08203125,0.2861328,-0.1035156
1759,47.75,108.5625,-258.3125,-0.6303711,-2.053711,-0.3012695,-0.1054688,0.2788086,-0.1098633
1763,56.6875,114.375,-255.8125,-0.6264648,-2.007324,-0.2363281,-0.1210938,0.2749023,-0.112793
1767,72.0625,128.5625,-247.0625,-0.6806641,-1.910156,-0.1743164,-0.1401367,0.2636719,-0.1235352
1771,88.375,138.5,-235.125,-0.7851563,-1.766602,-0.1743164,-0.1582031,0.2485352,-0.1303711
1775,99.4375,136.3125,-224.5625,-0.862793,-1.529297,-0.1401367,-0.1699219,0.2397461,-0.1416016
1779,106.0625,123.1875,-214.125,-0.8745117,-1.327148,-0.1166992,-0.1816406,0.2226563,-0.15625
1783,110.3125,108.6875,-207.125,-0.8085938,-1.117676,-0.07470703,-0.1948242,0.2075195,-0.1713867
1787,111.25,96.5,-198.625,-0.7543945,-0.8535156,-0.04736328,-0.199707,0.1938477,-0.1796875
1791,98.4375,77.3125,-185.9375,-0.8007813,-0.5966797,-0.07470703,-0.2104492,0.1748047,-0.1928711
1795,72.0625,51.125,-168.4375,-0.7929688,-0.4570313,-0.03222656,-0.2172852,0.1577148,-0.2011719
1799,51.875,31.75,-152.4375,-0.7231445,-0.484375,0.07128906,-0.222168,0.1474609,-0.206543
1803,56.1875,16.9375,-143.0625,-0.6303711,-0.5776367,0.1904297,-0.2294922,0.1347656,-0.2109375
1807,79.75,10.0625,-138.1875,-0.4555664,-0.4453125,0.2250977,-0.2353516,0.1201172,-0.2133789
1811,89.75,12.3125,-137.6875,-0.4287109,-0.1811523,0.1674805,-0.2412109,0.1098633,-0.2177734
1816,78.4375,6.1875,-131.75,-0.5063477,0.04003906,0.04785156,-0.2446289,0.09228516,-0.2246094
1820,51.4375,-7,-109.75,-0.5332031,0.2148438,0.02490234,-0.2495117,0.07861328,-0.2255859
1824,32.625,-14.6875,-71.0625,-0.4868164,-0.4453125,0.1098633,-0.253418,0.07275391,-0.2255859
1828,20.875,-17.25,-50.5,-0.362793,0.2573242,0.04052734,-0.2553711,0.06396484,-0.2255859
1832,19,-21.75,-32.8125,-0.2929688,0.2963867,0.05566406,-0.2568359,0.06005859,-0.2255859
1836,15.9375,-26.4375,-20.8125,-0.215332,0.3041992,0.05175781,-0.2592773,0.05615234,-0.2246094
1840,12.3125,-29.9375,-8.5625,-0.1499023,0.269043,0.03271484,-0.2626953,0.05517578,-0.2231445
1844,5.8125,-28.9375,2.5625,-0.03710938,0.2924805,0.001953125,-0.2651367,0.05517578,-0.21875
1848,-5.875,-18.875,11.875,0.004882813,0.2416992,0.02099609,-0.2636719,0.05517578,-0.21875
1852,-9.5625,-9.25,24.25,-0.02197266,0.1640625,0.05957031,-0.2661133,0.05517578,-0.21875
1856,-4.8125,-2.75,39.5,-0.04882813,0.1445313,0.07128906,-0.2651367,0.05761719,-0.2177734
1860,-6,1.125,55.125,-0.09130859,0.1953125,0.04785156,-0.2636719,0.05859375,-0.2163086
1864,-17.625,-4.625,70.625,-0.1767578,0.1992188,0.01708984,-0.2626953,0.06640625,-0.21875
1868,-35.8125,-21.125,83.4375,-0.1962891,0.1293945,-0.001464844,-0.2617188,0.07617188,-0.2148438
1872,-54.8125,-36.1875,93.1875,-0.1342773,0.0009765625,0.009765625,-0.2592773,0.08251953,-0.2080078
1876,-69,-45.6875,99.8125,-0.1030273,-0.1772461,0.05957031,-0.2578125,0.09375,-0.206543
1880,-67.625,-49.8125,107.125,-0.06054688,-0.3833008,0.1020508,-0.2568359,0.1049805,-0.199707
1884,-55.8125,-45.3125,120.25,-0.06054688,-0.534668,0.1020508,-0.2568359,0.1152344,-0.1928711
1888,-48.6875,-36.9375,129.375,-0.09912109,-0.6123047,0.02880859,-0.253418,0.125,-0.1889648
1892,-49.25,-26.6875,137.375,-0.09130859,-0.581543,0.08642578,-0.2470703,0.1401367,-0.1850586
1896,-46,-17.8125,144.125,-0.1264648,-0.6591797,0.09033203,-0.2412109,0.1489258,-0.1796875
1900,-44.6875,-16.1875,154.5,-0.2543945,-0.7524414,0.03662109,-0.2329102,0.1625977,-0.1767578
1904,-50.5,-25.8125,165.375,-0.3046875,-0.7949219,-0.009277344,-0.2236328,0.1748047,-0.175293
1908,-56.375,-37.25,171.8125,-0.3164063,-0.9541016,-0.03222656,-0.215332,0.1835938,-0.1699219
1912,-57.0625,-41.9375,173.9375,-0.2583008,-1.074707,-0.05126953,-0.2055664,0.1987305,-0.1645508
1916,-53.9375,-38.4375,178.3125,-0.3007813,-1.183594,-0.08203125,-0.1948242,0.2138672,-0.1591797
1920,-53,-39.0625,186.25,-0.3242188,-1.199219,-0.128418,-0.1865234,0.2172852,-0.1547852
1924,-57.4375,-43.5625,191.375,-0.3320313,-1.237793,-0.1938477,-0.1723633,0.2324219,-0.1494141
1928,-59.625,-45.75,199.5625,-0.3164063,-1.370117,-0.2207031,-0.1542969,0.2426758,-0.1416016
1932,-57.875,-35.6875,211.375,-0.246582,-1.509766,-0.2089844,-0.1459961,0.25,-0.1386719
1936,-46.6875,-10.5,217.125,-0.2851563,-1.692383,-0.1552734,-0.1269531,0.2597656,-0.1333008
1940,-37,5.5,219.25,-0.4169922,-1.677246,-0.1938477,-0.1069336,0.2685547,-0.1303711
1945,-40.8125,8.1875,221.5625,-0.5449219,-1.653809,-0.2397461,-0.09228516,0.2739258,-0.1289063
1949,-51.125,-3.5,218.6875,-0.5952148,-1.711914,-0.2822266,-0.07226563,0.2773438,-0.125
1953,-48.9375,-6.75,208.3125,-0.5141602,-1.773926,-0.2436523,-0.05078125,0.2822266,-0.1225586
1957,-46.75,1.875,207.875,-0.5756836,-1.719727,-0.2744141,-0.03759766,0.2836914,-0.1225586
1961,-59.25,3.125,213.1875,-0.6767578,-1.657715,-0.3325195,-0.01611328,0.2851563,-0.1181641
1965,-81.8125,-12.625,219.8125,-0.746582,-1.770508,-0.359375,0.002441406,0.2836914,-0.1113281
1969,-91.3125,-28.75,221.625,-0.5605469,-1.968262,-0.2783203,0.01757813,0.2836914,-0.1074219
1973,-78.5625,-25.625,210.0625,-0.3666992,-2.09668,-0.2128906,0.03808594,0.2836914,-0.09912109
1977,-64.75,-13.1875,192,-0.3242188,-1.964355,-0.2363281,0.05566406,0.2797852,-0.09521484
1981,-74.5,-12.625,184.875,-0.4594727,-1.820801,-0.2939453,0.06787109,0.2773438,-0.09082031
1985,-102.25,-41.3125,188,-0.4482422,-1.824707,-0.3012695,0.08789063,0.2749023,-0.08691406
1989,-132.8125,-92.75,177.8125,-0.1767578,-2.073242,-0.324707,0.1079102,0.2709961,-0.08691406
1993,-151.875,-158.4375,139.625,0.2138672,-2.341309,-0.4863281,0.125,0.2700195,-0.08837891
1997,-200.5625,-258.5625,153.4375,0.6982422,-3.176758,-1.063477,0.1459961,0.2763672,-0.1098633
2001,-125.6875,-230.75,126.75,4.984375,-7.504883,-0.06689453,0.1591797,0.2875977,-0.1455078
2005,-14.3125,-57.5625,-92.9375,2.872559,-3.200195,-0.6899414,0.1533203,0.2910156,-0.1484375
2009,61.4375,39.125,-232.625,1.5625,-2.858398,-0.6132813,0.1416016,0.2875977,-0.1225586
2013,137,125.4375,-181.9375,0.5009766,-2.714355,-0.3745117,0.1201172,0.28125,-0.09521484
2017,168.8125,200.9375,-98.875,0.2177734,-2.12793,-0.359375,0.105957,0.28125,-0.08837891
2021,170.3125,214.8125,-68.625,-0.09912109,-1.820801,-0.4785156,0.09277344,0.2749023,-0.08691406
2025,142.75,173.3125,-85.0625,-0.328125,-1.773926,-0.5551758,0.08886719,0.2739258,-0.08984375
2029,103.375,104.0625,-124.3125,-0.347168,-1.953125,-0.4555664,0.08300781,0.2739258,-0.09667969
2033,86.5625,59,-178.25,-0.07617188,-2.135742,-0.3051758,0.07128906,0.2739258,-0.09912109
2037,86.5,49,-211.8125,-0.06445313,-2.298828,-0.2475586,0.0546875,0.2788086,-0.1035156
2041,94.8125,45.125,-226.875,-0.215332,-2.368652,-0.3129883,0.04248047,0.2773438,-0.1098633
2045,97.875,40.125,-237.9375,-0.3125,-2.244141,-0.394043,0.02246094,0.28125,-0.1181641
2049,93.4375,39,-245,-0.3588867,-2.131836,-0.4594727,0.0009765625,0.2797852,-0.1264648
2053,87,44.5,-246.375,-0.4208984,-2.108398,-0.394043,-0.01269531,0.2797852,-0.1318359
2057,87.75,52.4375,-243.125,-0.4790039,-2.108398,-0.359375,-0.03662109,0.2773438,-0.137207
2061,90.4375,58.3125,-239.3125,-0.5175781,-2.038574,-0.3012695,-0.05566406,0.2739258,-0.1469727
2065,91.375,61.5625,-240.5,-0.5371094,-1.925781,-0.2861328,-0.06738281,0.2700195,-0.1523438
2069,87.875,59.1875,-244.0625,-0.5722656,-1.793457,-0.2822266,-0.09033203,0.262207,-0.1606445
2074,78.1875,49.3125,-240.125,-0.6186523,-1.71582,-0.3012695,-0.1103516,0.2524414,-0.168457
2078,64.3125,41.75,-231.0625,-0.5410156,-1.583984,-0.2363281,-0.1235352,0.2460938,-0.1738281
2082,55,42.25,-219.3125,-0.4985352,-1.521484,-0.2016602,-0.1401367,0.2363281,-0.1796875
2086,48.625,44.375,-206.8125,-0.4907227,-1.471191,-0.1435547,-0.1591797,0.2226563,-0.1835938
2090,47.4375,41.1875,-199.75,-0.4594727,-1.42041,-0.07861328,-0.1665039,0.2148438,-0.1875
2094,52.6875,36.125,-204.8125,-0.4521484,-1.408691,-0.03613281,-0.1806641,0.2026367,-0.1928711
2098,59.8125,30.375,-208.5,-0.3935547,-1.334961,0.02099609,-0.1938477,0.1875,-0.199707
2102,71.5,38.0625,-208.25,-0.296875,-1.257324,0.07519531,-0.2021484,0.1762695,-0.199707
2106,95,57.3125,-204.4375,-0.3164063,-1.226563,0.1098633,-0.2138672,0.1547852,-0.2094727
2110,122.6875,76.1875,-195.75,-0.3666992,-1.008789,0.06738281,-0.2197266,0.1362305,-0.21875
2114,140.875,83.5625,-187.8125,-0.4711914,-0.6748047,-0.04003906,-0.2246094,0.1210938,-0.2270508
2118,137.6875,78.625,-178.4375,-0.6069336,-0.2705078,-0.1474609,-0.2270508,0.09765625,-0.2392578
2122,106.9375,57.5,-157,-0.715332,0.1484375,-0.1821289,-0.2294922,0.07861328,-0.25
2126,67.25,30.25,-110.8125,-0.7426758,-0.3833008,-0.05517578,-0.2280273,0.06640625,-0.2529297
2130,19.625,9.25,-87.4375,-0.6611328,0.3427734,0.009765625,-0.2329102,0.05517578,-0.2583008
2134,-6.375,-4.875,-62.75,-0.5527344,0.2885742,0.09814453,-0.2329102,0.04638672,-0.2568359
2138,-17,-17.1875,-46.9375,-0.4594727,0.2456055,0.140625,-0.2353516,0.04248047,-0.2583008
2142,-11.6875,-30.6875,-43.25,-0.362793,0.203125,0.1367188,-0.2387695,0.04248047,-0.2558594
2146,-3.4375,-31.5625,-38,-0.2348633,0.1914063,0.1943359,-0.2412109,0.03759766,-0.2529297
2150,0.5,-23.125,-25,-0.2119141,0.1953125,0.2250977,-0.2426758,0.03759766,-0.2514648
2154,0.4375,-16.25,-8.5,-0.2080078,0.2148438,0.2021484,-0.2446289,0.03515625,-0.2475586
2158,-3.3125,-12.375,5.3125,-0.230957,0.2070313,0.2172852,-0.2460938,0.03515625,-0.2475586
2162,-0.875,-15.375,16.25,-0.246582,0.2109375,0.2133789,-0.2460938,0.03613281,-0.2475586
2166,2.8125,-17.8125,25.5625,-0.215332,0.2456055,0.1635742,-0.2470703,0.03759766,-0.2475586
2170,2.5625,-16.5,39.875,-0.2231445,0.2729492,0.1132813,-0.2495117,0.03759766,-0.2446289
2174,-6.1875,-17.5625,59.625,-0.2661133,0.2885742,0.05566406,-0.2485352,0.04150391,-0.2436523
2178,-21.75,-24.125,80.625,-0.2851563,0.2612305,0.001953125,-0.2485352,0.04882813,-0.2407227
2182,-40.625,-31.875,96.375,-0.2543945,0.1523438,0.02490234,-0.2460938,0.05761719,-0.2392578
2186,-51,-38.75,108.75,-0.2543945,-0.04150391,0.04443359,-0.2470703,0.06494141,-0.2368164
2190,-55.3125,-44.4375,119.1875,-0.2270508,-0.1694336,0.06347656,-0.2460938,0.07763672,-0.230957
2194,-55.1875,-51.5,125.75,-0.2041016,-0.2626953,0.03662109,-0.2446289,0.09130859,-0.2255859
2198,-60,-56,135.8125,-0.1728516,-0.3676758,-0.01318359,-0.2412109,0.09863281,-0.2202148
2203,-66.5625,-52.75,151.875,-0.1225586,-0.5112305,-0.01660156,-0.2402344,0.1152344,-0.2148438
2207,-66.6875,-45.8125,170.25,-0.1030273,-0.7368164,-0.03222656,-0.234375,0.1313477,-0.2055664
2211,-58.9375,-31.8125,187,-0.03710938,-0.8027344,0.02099609,-0.2294922,0.1425781,-0.2041016
2215,-45.8125,-14.8125,198.6875,-0.06835938,-0.9619141,0.01367188,-0.2211914,0.1586914,-0.1987305
2219,-38.0625,-9.3125,196.5,-0.2001953,-0.9658203,-0.07861328,-0.2089844,0.1738281,-0.1958008
2223,-46.9375,-18.25,189.8125,-0.3203125,-0.9970703,-0.1743164,-0.2006836,0.1850586,-0.1918945
2227,-66.375,-33.4375,188.4375,-0.347168,-1.012695,-0.1782227,-0.1899414,0.1987305,-0.1875
2231,-78.1875,-43.5,191.3125,-0.2734375,-1.148438,-0.1401367,-0.1772461,0.2114258,-0.1782227
2235,-74.375,-38.75,195.125,-0.2583008,-1.358398,-0.1245117,-0.1650391,0.2211914,-0.1767578
2239,-67.25,-29.3125,202.25,-0.2583008,-1.412598,-0.1782227,-0.1494141,0.2338867,-0.168457
2243,-68.1875,-20,209.25,-0.3320313,-1.443848,-0.2207031,-0.1352539,0.2451172,-0.1660156
2247,-79.6875,-22.9375,211.875,-0.4482422,-1.486816,-0.2592773,-0.1220703,0.2509766,-0.1606445
2251,-89.4375,-34.1875,212.875,-0.4443359,-1.638184,-0.2705078,-0.1044922,0.2597656,-0.1538086
2255,-90,-34.0625,212.125,-0.3706055,-1.762695,-0.2324219,-0.08398438,0.2709961,-0.144043
2259,-77.1875,-23.0625,208.75,-0.3549805,-1.867188,-0.2246094,-0.07128906,0.2749023,-0.1386719
2263,-62,-6.3125,206.0625,-0.4326172,-1.844238,-0.2167969,-0.05224609,0.2788086,-0.1318359
2267,-59.5625,2.625,211.6875,-0.5756836,-1.758789,-0.2514648,-0.03173828,0.28125,-0.1289063
2271,-75.125,-2.1875,217.5625,-0.7348633,-1.711914,-0.3325195,-0.01611328,0.2836914,-0.125
2275,-99.4375,-30.125,213.6875,-0.7695313,-1.805176,-0.3745117,0.002441406,0.2836914,-0.1181641
2279,-104.75,-49.4375,210.4375,-0.5292969,-2.034668,-0.2670898,0.02001953,0.2836914,-0.1098633
2283,-84.3125,-40.4375,207.4375,-0.2387695,-2.197754,-0.1552734,0.03417969,0.2851563,-0.1035156
2287,-52.75,-12.3125,197,-0.1459961,-2.17041,-0.109375,0.05078125,0.28125,-0.09912109
2291,-42.5625,1,174.1875,-0.1767578,-1.886719,-0.2285156,0.06982422,0.2788086,-0.09521484
2295,-65.125,-14.125,141.9375,-0.2504883,-1.700195,-0.3051758,0.07958984,0.2763672,-0.09375
2299,-103.4375,-53.6875,129.375,-0.2543945,-1.789551,-0.3398438,0.09277344,0.2739258,-0.09082031
2303,-131.6875,-102.0625,122.75,0.05908203,-2.088867,-0.3208008,0.1044922,0.2739258,-0.08837891
2307,-136.8125,-140.875,115.875,0.4541016,-2.485352,-0.3666992,0.112793,0.2739258,-0.08837891
2311,-138.5,-169.9375,121.25,1.085938,-3.145508,-0.5668945,0.1186523,0.2788086,-0.09521484
2315,46.1875,-0.375,101.9375,4.360352,-5.138672,0.4521484,0.1235352,0.28125,-0.1020508
2319,96.5625,64.875,1.3125,1.926758,-2.928223,-0.6552734,0.1269531,0.2763672,-0.1044922
2323,64.4375,64.125,-142.6875,1.175293,-1.97998,-0.5014648,0.128418,0.2724609,-0.09912109
2327,74.6875,69.6875,-175.8125,0.3378906,-2.415039,-0.1899414,0.1166992,0.2739258,-0.09375
2332,106.625,89.6875,-137.5625,0.09375,-2.32959,-0.09375,0.1079102,0.2739258,-0.08984375
2336,116.625,102.6875,-96.625,0.03173828,-2.084961,-0.1977539,0.09619141,0.2724609,-0.09228516
2340,103.5,94.9375,-94.875,0.140625,-2.049805,-0.309082,0.08886719,0.2724609,-0.09521484
2344,85.4375,73.25,-122.0625,0.125,-2.205566,-0.3515625,0.08447266,0.2739258,-0.09667969
2348,76.5625,56.3125,-162.0625,0.2607422,-2.489258,-0.2397461,0.07470703,0.2739258,-0.1005859
2352,103.4375,60.875,-206.75,0.2836914,-2.795898,-0.2055664,0.05957031,0.2773438,-0.1074219
2356,138.4375,78.4375,-225.9375,0.1635742,-2.795898,-0.3359375,0.04736328,0.2788086,-0.112793
2360,139.0625,87.4375,-233,-0.1459961,-2.586426,-0.4785156,0.03076172,0.2797852,-0.1235352
2364,122.3125,80.3125,-242.25,-0.3588867,-2.543457,-0.4477539,0.01171875,0.2797852,-0.1347656
2368,115.1875,64.0625,-255.6875,-0.4868164,-2.566895,-0.3862305,-0.001953125,0.2773438,-0.1416016
2372,116,56.5625,-267.6875,-0.5527344,-2.504395,-0.3168945,-0.02490234,0.2749023,-0.1523438
2376,115.9375,52.375,-278.0625,-0.7270508,-2.418945,-0.2631836,-0.04833984,0.2709961,-0.1616211
2380,113.25,42.5,-284.9375,-0.8818359,-2.255859,-0.2939453,-0.06396484,0.2651367,-0.168457
2384,99.4375,24.25,-287.6875,-0.9633789,-2.030762,-0.2744141,-0.08886719,0.2563477,-0.1796875
2388,87.75,12.1875,-284.625,-0.8974609,-1.929688,-0.2055664,-0.1162109,0.2426758,-0.1865234
2392,90.75,17.8125,-275.375,-0.8007813,-1.83252,-0.1362305,-0.1303711,0.2324219,-0.1889648
2396,101.375,39.375,-260.1875,-0.7387695,-1.727539,-0.05517578,-0.1533203,0.2172852,-0.1972656
2400,117.875,61.3125,-245.75,-0.7695313,-1.560547,-0.02832031,-0.1708984,0.1972656,-0.2080078
2404,133.3125,72.4375,-233.6875,-0.8818359,-1.342773,-0.07861328,-0.1772461,0.1835938,-0.2163086
2408,134.625,64.5,-225.75,-0.9985352,-0.9658203,-0.1362305,-0.1914063,0.1625977,-0.2285156
2412,120.75,43.3125,-222.0625,-1.009766,-0.6591797,-0.1630859,-0.2006836,0.1401367,-0.2407227
2416,100.625,25.375,-209.3125,-1.001953,-0.4335938,-0.1474609,-0.2055664,0.1235352,-0.2407227
2420,87.0625,16.6875,-182.875,-0.9672852,-0.2470703,-0.112793,-0.2138672,0.1025391,-0.2514648
2424,83.1875,17.0625,-144.25,-0.9013672,-0.01806641,-0.1435547,-0.2197266,0.08642578,-0.2543945
2428,80.5,19.625,-112.4375,-0.8085938,0.3041992,-0.2128906,-0.2197266,0.07373047,-0.2583008
2432,68.25,15.25,-81.9375,-0.7543945,0.6884766,-0.2397461,-0.2211914,0.06103516,-0.2612305
2436,29.0625,1.4375,-53.9375,-0.7543945,0.6923828,-0.2744141,-0.2246094,0.05126953,-0.2636719
2440,-15.6875,-20.9375,-35.5625,-0.6806641,0.6884766,-0.2055664,-0.2255859,0.04736328,-0.2636719
2444,-44.4375,-41.625,-27.1875,-0.5371094,0.5175781,-0.109375,-0.2280273,0.04882813,-0.2612305
2448,-45.5,-48.875,-22,-0.3588867,0.3896484,0.005859375,-0.2319336,0.04882813,-0.2558594
2452,-33.6875,-41,-14.4375,-0.262207,0.3041992,0.08251953,-0.2329102,0.05126953,-0.2529297
2456,-18.6875,-27,-4.75,-0.246582,0.2651367,0.09423828,-0.237793,0.05126953,-0.25
2461,-5.0625,-16.3125,8.75,-0.2700195,0.2651367,0.08642578,-0.2387695,0.05273438,-0.2490234
2465,2.1875,-5.5625,29.625,-0.2661133,0.284668,0.07910156,-0.2402344,0.05517578,-0.2475586
2469,3.9375,9.6875,56,-0.2773438,0.2924805,0.07910156,-0.2402344,0.05761719,-0.25
2473,1.375,17.5625,78.75,-0.3354492,0.284668,0.04052734,-0.2353516,0.06103516,-0.2490234
2477,-8.125,10.4375,93.25,-0.4052734,0.2729492,0.005859375,-0.234375,0.06494141,-0.2514648
2481,-19.8125,-6.9375,99,-0.4404297,0.171875,0.009765625,-0.2304688,0.07373047,-0.2490234
2485,-32,-22.9375,106.9375,-0.4169922,0.04003906,0.009765625,-0.2280273,0.08251953,-0.2475586
2489,-39.8125,-26.4375,122.625,-0.3901367,-0.1347656,0.03271484,-0.2280273,0.09130859,-0.2460938
2493,-42.6875,-22.8125,141.5625,-0.4326172,-0.2744141,0.04785156,-0.2236328,0.1025391,-0.2407227
2497,-44.6875,-21.1875,161.625,-0.4594727,-0.4140625,0.05175781,-0.2172852,0.1176758,-0.237793
2501,-39.75,-22.375,176.125,-0.4482422,-0.5776367,0.04785156,-0.2138672,0.125,-0.2368164
2505,-42.0625,-24.375,182.6875,-0.4790039,-0.6435547,-0.06689453,-0.203125,0.1411133,-0.230957
2509,-56,-30.3125,183.75,-0.5332031,-0.6474609,-0.09375,-0.1972656,0.1547852,-0.2285156
2513,-70.875,-38.125,191.375,-0.5952148,-0.8027344,-0.1206055,-0.1889648,0.1650391,-0.2255859
2517,-79.1875,-39.125,209.125,-0.6108398,-0.9970703,-0.07861328,-0.1806641,0.1811523,-0.2148438
2521,-76.9375,-27.6875,234.125,-0.6030273,-1.167969,-0.0859375,-0.1674805,0.1972656,-0.2080078
2525,-76.5625,-11.1875,255.5,-0.6069336,-1.210938,-0.128418,-0.1533203,0.2084961,-0.2055664
2529,-79,0.9375,270.625,-0.6962891,-1.323242,-0.1669922,-0.1352539,0.2236328,-0.2011719
2533,-82.5,12.75,287.9375,-0.6923828,-1.401367,-0.1552734,-0.1113281,0.2373047,-0.1958008
2537,-91.9375,23.3125,294.8125,-0.7890625,-1.338867,-0.2167969,-0.09228516,0.2451172,-0.1918945
2541,-128.875,8.5625,295.75,-1.063965,-1.308105,-0.3554688,-0.06494141,0.2563477,-0.1835938
2545,-178.5,-38.8125,285.375,-1.327637,-1.68457,-0.4936523,-0.03759766,0.2661133,-0.1713867
2549,-202.8125,-96.4375,268.625,-1.203613,-2.232422,-0.4975586,-0.02246094,0.2724609,-0.1606445
2553,-192.875,-113.6875,259.9375,-0.7387695,-2.621094,-0.3974609,-0.0009765625,0.2788086,-0.1425781
2557,-156.6875,-92.6875,254.5,-0.347168,-2.831055,-0.3554688,0.02001953,0.2788086,-0.1279297
2561,-115.625,-51.9375,236.125,-0.1147461,-2.632813,-0.394043,0.03173828,0.28125,-0.1196289
2565,-95.5,-23.625,216.375,-0.3823242,-2.461914,-0.4746094,0.05224609,0.2788086,-0.1098633
2569,-90.625,-26.0625,207.375,-0.4907227,-2.403809,-0.5209961,0.07226563,0.2739258,-0.1044922
2573,-87.0625,-28,197,-0.3510742,-2.36084,-0.4091797,0.08544922,0.2724609,-0.09912109
2577,-76.5625,-22.6875,184.3125,-0.2734375,-2.259766,-0.3398438,0.09960938,0.2661133,-0.09375
2581,-79.0625,-32.375,168.5,-0.3745117,-2.057617,-0.3823242,0.1186523,0.2612305,-0.09082031
2585,-101.25,-65.4375,149.1875,-0.4013672,-1.964355,-0.3666992,0.128418,0.2563477,-0.08837891
2590,-119.875,-113.9375,140.6875,-0.3432617,-2.225098,-0.3325195,0.1450195,0.2548828,-0.09082031
2594,-101.5,-148,142.375,0.1870117,-2.613281,-0.3012695,0.1606445,0.2524414,-0.1020508
2598,-65.4375,-129.8125,134.4375,0.7993164,-2.780273,-0.3398438,0.1699219,0.2539063,-0.1166992
2602,46.875,-47.1875,4.5,2.977051,-4.73877,0.3789063,0.1757813,0.2587891,-0.1401367
2606,109.375,68.75,14.625,1.442383,-2.966797,-0.378418,0.1723633,0.2548828,-0.1469727
2610,91.6875,88.25,-13.8125,0.7641602,-2.108398,-0.5439453,0.1782227,0.2475586,-0.1416016
2614,80.875,88.875,-82.375,0.4892578,-2.255859,-0.2939453,0.1772461,0.2412109,-0.1235352
2618,105.1875,87.1875,-130.875,0.190918,-2.240234,-0.2475586,0.1665039,0.2426758,-0.1113281
2622,111.5,87.375,-144.5625,-0.05273438,-2.092773,-0.2055664,0.1557617,0.2451172,-0.105957
2626,95.5625,85,-141.125,-0.262207,-2.015137,-0.2089844,0.1401367,0.2475586,-0.1044922
2630,72.4375,59.125,-151.6875,-0.4052734,-2.030762,-0.2397461,0.1308594,0.2509766,-0.1044922
2634,53.3125,24.75,-175.875,-0.3862305,-2.135742,-0.1782227,0.1210938,0.2539063,-0.1044922
2638,46,4.5625,-198.25,-0.2734375,-2.39209,-0.1323242,0.1069336,0.2587891,-0.1088867
2642,59.3125,5.3125,-223.5625,-0.1381836,-2.566895,-0.1206055,0.08789063,0.2661133,-0.1088867
2646,81.25,26.0625,-245.375,-0.08398438,-2.578613,-0.1630859,0.07617188,0.2709961,-0.1142578
2650,97.75,54,-262.75,-0.3085938,-2.55127,-0.2207031,0.05322266,0.2763672,-0.1210938
2654,106.8125,63,-263.5625,-0.5722656,-2.438477,-0.2978516,0.03320313,0.2797852,-0.1264648
2658,103.3125,59.4375,-259.875,-0.7504883,-2.294922,-0.2631836,0.01660156,0.2797852,-0.1333008
2662,102.1875,47.4375,-263.375,-0.831543,-2.248047,-0.2324219,-0.005859375,0.28125,-0.1425781
2666,109.4375,38.625,-273.3125,-0.8198242,-2.221191,-0.1899414,-0.03173828,0.2797852,-0.1508789
2670,119,34.875,-280.0625,-0.8125,-2.09668,-0.1938477,-0.04833984,0.2739258,-0.1591797
2674,120.0625,34.6875,-279.3125,-0.7734375,-1.90625,-0.2285156,-0.07226563,0.2651367,-0.168457
2678,111.4375,32.5,-270.5,-0.765625,-1.83252,-0.2363281,-0.09863281,0.2539063,-0.1796875
2682,105.9375,30.75,-261.5625,-0.6923828,-1.704102,-0.2016602,-0.112793,0.2460938,-0.1850586
2686,102.625,25.8125,-247.5,-0.6030273,-1.606934,-0.2055664,-0.1342773,0.2299805,-0.1928711
2690,98.3125,25.75,-238.3125,-0.4555664,-1.498535,-0.1899414,-0.1518555,0.2124023,-0.2041016
2694,93.75,28.4375,-240.375,-0.4130859,-1.385742,-0.1938477,-0.1625977,0.2036133,-0.2055664
2698,87.5625,32.625,-249.8125,-0.4443359,-1.22998,-0.1743164,-0.1791992,0.1835938,-0.2163086
2702,81.625,41.875,-247.9375,-0.5102539,-1.140625,-0.109375,-0.1923828,0.1635742,-0.2231445
2706,79.5,55.625,-231.4375,-0.6069336,-1.000977,-0.02050781,-0.2006836,0.1513672,-0.2270508
2710,84,70.375,-197.1875,-0.7075195,-0.8300781,0.02099609,-0.2114258,0.1298828,-0.2353516
2714,89.25,79.8125,-156.25,-0.8164063,-0.5737305,-0.01318359,-0.215332,0.1123047,-0.2460938
2719,86.25,68.25,-128.4375,-0.9672852,-0.1655273,-0.07080078,-0.2163086,0.1010742,-0.2490234
2723,65.3125,34.625,-108.6875,-1.029297,0.105957,-0.1362305,-0.215332,0.08740234,-0.2568359
2727,37.3125,-6,-96.4375,-0.9555664,0.2768555,-0.1513672,-0.21875,0.07519531,-0.2612305
2731,15.3125,-38.625,-88.6875,-0.7387695,0.4125977,-0.1054688,-0.2211914,0.06884766,-0.2612305
2735,-7.125,-50.9375,-75.0625,-0.5756836,0.4711914,-0.1015625,-0.2280273,0.06103516,-0.2583008
2739,-25,-48.5625,-53.4375,-0.4287109,0.5175781,-0.04394531,-0.234375,0.05615234,-0.2543945
2743,-35.4375,-39.9375,-32.25,-0.362793,0.4946289,-0.05126953,-0.234375,0.05517578,-0.25
2747,-37.9375,-27.3125,-13,-0.262207,0.5253906,-0.02050781,-0.2387695,0.05761719,-0.2475586
2751,-38.8125,-12.9375,3.625,-0.2851563,0.4594727,0.03271484,-0.2402344,0.05761719,-0.2460938
2755,-33.5625,-10.1875,12.8125,-0.328125,0.4086914,0.08642578,-0.2402344,0.06103516,-0.2421875
2759,-20.75,-15.5625,15.4375,-0.3046875,0.3818359,0.1328125,-0.2412109,0.06494141,-0.2436523
2763,-7.125,-13.25,26,-0.2661133,0.3779297,0.1479492,-0.2426758,0.06738281,-0.2436523
2767,0.0625,-5.625,46.75,-0.3320313,0.3740234,0.09423828,-0.2412109,0.06982422,-0.2392578
2771,-3.5,-4,72,-0.378418,0.3857422,0.04785156,-0.2402344,0.07519531,-0.237793
2775,-16.625,-6.5625,95.9375,-0.4208984,0.3193359,0.005859375,-0.237793,0.08007813,-0.2392578
2779,-32.8125,-15.5,113.3125,-0.4672852,0.2070313,-0.009277344,-0.2363281,0.08740234,-0.2353516
2783,-45.5625,-28.75,123.5625,-0.4868164,0.04736328,-0.001464844,-0.234375,0.09765625,-0.2338867
2787,-52.25,-41.1875,127.8125,-0.4829102,-0.08789063,0.001953125,-0.2304688,0.1098633,-0.2285156
2791,-55.9375,-50.375,135,-0.4868164,-0.1772461,-0.005371094,-0.2280273,0.1201172,-0.2255859
2795,-63.875,-58.375,150.5,-0.5332031,-0.2822266,-0.04394531,-0.2236328,0.1337891,-0.2202148
2799,-77.75,-64.3125,175.8125,-0.6108398,-0.4414063,-0.112793,-0.21875,0.1489258,-0.2109375
2803,-94.9375,-70.125,209.875,-0.730957,-1.191406,-0.1362305,-0.2128906,0.1611328,-0.206543
2807,-84.625,-70.4375,216.375,-0.5253906,-1.012695,0.03271484,-0.2055664,0.1801758,-0.1943359
2811,-51.4375,-59.5,215,-0.5024414,-1.214844,0.05566406,-0.1938477,0.1987305,-0.1865234
2815,-28.0625,-45.75,227.125,-0.5913086,-1.245605,-0.01660156,-0.1831055,0.2099609,-0.1821289
2819,-25.25,-30.25,250.375,-0.6689453,-1.300293,-0.05517578,-0.168457,0.2211914,-0.1796875
2823,-22.75,-14.6875,274.625,-0.7192383,-1.381836,-0.1015625,-0.1474609,0.2363281,-0.175293
2827,-19,-1.875,286.5625,-0.7426758,-1.479004,-0.09375,-0.1318359,0.2436523,-0.1738281
2831,-17.5625,-1.9375,280.25,-0.8276367,-1.467285,-0.2016602,-0.1044922,0.2539063,-0.1728516
2835,-39.5625,-14.0625,266.75,-0.8935547,-1.436035,-0.2900391,-0.08056641,0.2597656,-0.1728516
2839,-77.1875,-34.875,252.6875,-0.9516602,-1.513672,-0.3823242,-0.06494141,0.2636719,-0.1713867
2843,-99,-46.8125,242.8125,-0.8896484,-1.777832,-0.34375,-0.04394531,0.2739258,-0.1630859
2848,-95.5,-36.3125,237.75,-0.847168,-1.910156,-0.2705078,-0.02099609,0.2749023,-0.1538086
2852,-91.875,-23.875,241.9375,-0.9711914,-1.964355,-0.3012695,-0.005859375,0.2763672,-0.1494141
2856,-101.5,-24.25,255.8125,-0.9555664,-2.081055,-0.3208008,0.01513672,0.2773438,-0.1416016
2860,-117,-30.875,261.1875,-0.7890625,-2.197754,-0.3745117,0.0390625,0.2763672,-0.1347656
2864,-121.3125,-32.75,234.8125,-0.5102539,-2.415039,-0.309082,0.05224609,0.2724609,-0.1264648
2868,-85.25,-11.5625,194.5625,-0.2929688,-2.559082,-0.2128906,0.07128906,0.2709961,-0.1181641
2872,-45.4375,29.5625,174,-0.2543945,-2.485352,-0.1899414,0.08886719,0.2661133,-0.1113281
2876,-32.4375,64.625,175.4375,-0.2348633,-2.458008,-0.1821289,0.09863281,0.2612305,-0.1113281
2880,-41.6875,69.9375,151.875,-0.1533203,-2.259766,-0.2592773,0.1186523,0.2573242,-0.1088867
2884,-89.3125,20.5625,90.1875,-0.3393555,-2.217285,-0.4208984,0.1293945,0.2539063,-0.105957
2888,-182.125,-120.75,83,-0.2929688,-2.523926,-0.6821289,0.1376953,0.2524414,-0.1035156
2892,-279.6875,-292.25,94.4375,0.7993164,-3.309082,-0.9248047,0.1416016,0.2587891,-0.1088867
2896,-151.1875,-223,95.625,5.240234,-7.707031,0.9711914,0.1357422,0.2675781,-0.112793
2900,80.25,-4.1875,-103.375,3.155273,-3.93457,-0.9438477,0.1293945,0.2685547,-0.112793
2904,73.0625,84.375,-189.625,1.969238,-2.78418,-0.8515625,0.1210938,0.2685547,-0.105957
2908,115.3125,161,-197,0.8999023,-2.947754,-0.6245117,0.1118164,0.2685547,-0.09375
2912,158,194.1875,-150.125,0.3110352,-2.481445,-0.5014648,0.1020508,0.2685547,-0.09375
2916,135.25,194.25,-128.5,0.04736328,-2.135742,-0.394043,0.09277344,0.2709961,-0.09521484
2920,97.9375,152.375,-160.6875,-0.230957,-2.158691,-0.2592773,0.08447266,0.2709961,-0.09912109
2924,76.0625,91.4375,-205,-0.3974609,-2.407715,-0.04003906,0.07714844,0.2739258,-0.1020508
2928,80.4375,45.875,-244.3125,-0.3823242,-2.636719,0.09423828,0.06054688,0.2788086,-0.105957
2932,105.125,33,-258.8125,-0.328125,-2.72998,0.05175781,0.03808594,0.2822266,-0.1098633
2936,120.1875,44.8125,-257.6875,-0.3862305,-2.531738,-0.0859375,0.02246094,0.2836914,-0.1166992
2940,122.375,57.75,-255.6875,-0.4946289,-2.380371,-0.1821289,0.0009765625,0.2836914,-0.1303711
2944,118.6875,62.6875,-255.5625,-0.6147461,-2.221191,-0.309082,-0.02246094,0.2822266,-0.1401367
2948,106,67.875,-249.0625,-0.6611328,-2.166504,-0.2475586,-0.03662109,0.2797852,-0.1455078
2952,113.375,72.9375,-251.1875,-0.7114258,-2.255859,-0.1708984,-0.05810547,0.2749023,-0.15625
2956,138.625,75.875,-253.3125,-0.7387695,-2.182129,-0.1899414,-0.08056641,0.2651367,-0.168457
2960,152.3125,77.9375,-251.75,-0.730957,-1.925781,-0.2089844,-0.09375,0.2573242,-0.1767578
2964,147.9375,69.125,-251.5625,-0.8276367,-1.727539,-0.2744141,-0.1137695,0.2412109,-0.1918945
2968,133.3125,46,-250.4375,-0.9287109,-1.505859,-0.2363281,-0.1318359,0.2260742,-0.2055664
2972,120.625,23.3125,-241.1875,-0.862793,-1.416504,-0.1591797,-0.1435547,0.2114258,-0.2109375
2977,119.125,19.8125,-230.75,-0.7075195,-1.319336,-0.1054688,-0.1591797,0.1923828,-0.2202148
2981,123.4375,33.1875,-223,-0.5991211,-1.152344,-0.109375,-0.1748047,0.1738281,-0.2270508
2985,129.6875,47.1875,-210.8125,-0.6264648,-0.9736328,-0.128418,-0.1816406,0.1601563,-0.2368164
2989,129.875,53.5,-189.75,-0.7075195,-0.6708984,-0.1669922,-0.1914063,0.1376953,-0.2475586
2993,111.9375,45.6875,-160.375,-0.8164063,-0.324707,-0.2089844,-0.1962891,0.1176758,-0.2568359
2997,80.3125,30,-125,-0.7734375,-0.05664063,-0.2167969,-0.199707,0.1064453,-0.2626953
3001,49.5,18.625,-100.3125,-0.6416016,0.09423828,-0.2167969,-0.2021484,0.09375,-0.2651367
3005,35.1875,13.3125,-73.4375,-0.6303711,-0.1655273,-0.1899414,-0.206543,0.08398438,-0.2680664
3009,19.6875,11.8125,-66.0625,-0.4985352,0.05126953,-0.08203125,-0.2055664,0.07861328,-0.269043
3013,20.5625,0.25,-65.625,-0.4946289,0.05126953,-0.05126953,-0.206543,0.07275391,-0.2705078
3017,24.3125,-12.5,-59.375,-0.4521484,0.09033203,0.01367188,-0.2114258,0.06640625,-0.2719727
3021,27.375,-17.4375,-40.375,-0.3935547,0.1367188,0.02880859,-0.2128906,0.06494141,-0.2705078
3025,26.8125,-14.8125,-14.9375,-0.2890625,0.237793,0.01367188,-0.2138672,0.05761719,-0.269043
3029,20.3125,-10.625,6,-0.2001953,0.284668,-0.03613281,-0.2163086,0.05517578,-0.2666016
3033,6.0625,-6.375,14.4375,-0.09912109,0.300293,-0.03613281,-0.215332,0.05371094,-0.269043
3037,-2.5625,-8.5,15.25,-0.09521484,0.203125,-0.001464844,-0.2163086,0.05615234,-0.2705078
3041,-4.8125,-14,15.625,-0.04882813,0.1601563,0.04443359,-0.2163086,0.05761719,-0.269043
3045,-10.0625,-16.9375,20.1875,-0.06054688,0.1333008,0.04785156,-0.2163086,0.05761719,-0.2680664
3049,-19.9375,-21.3125,36,-0.08789063,0.09033203,0.04052734,-0.2172852,0.0625,-0.2680664
3053,-35.5625,-24.75,53.375,-0.05664063,0.09423828,0.05957031,-0.21875,0.06640625,-0.2651367
3057,-49.8125,-26.1875,71.75,-0.02197266,0.01660156,0.1098633,-0.2172852,0.07128906,-0.2626953
3061,-57,-28.625,83.1875,0.01660156,-0.1074219,0.1328125,-0.2172852,0.08007813,-0.2583008
3065,-58.25,-35.1875,84,0.02832031,-0.2202148,0.1367188,-0.2172852,0.09130859,-0.2543945
3069,-61.75,-43.9375,79,0.03955078,-0.2470703,0.1098633,-0.215332,0.09619141,-0.2514648
3073,-70.375,-48.0625,80.1875,0.03955078,-0.3481445,0.125,-0.215332,0.1088867,-0.2460938
3077,-69.875,-45.4375,92.4375,0.05517578,-0.4648438,0.1713867,-0.215332,0.1201172,-0.2392578
3081,-66.75,-35.375,115.5625,-0.01806641,-0.9428711,0.1787109,-0.2138672,0.1264648,-0.2324219
3085,-60.5,-25.375,128.6875,0.03173828,-0.5776367,0.2021484,-0.2080078,0.1386719,-0.2299805
3089,-58.9375,-22.125,140.3125,-0.06054688,-0.6708984,0.1557617,-0.2045898,0.1499023,-0.2231445
3093,-58.125,-31.75,140.875,-0.1186523,-0.7407227,0.09814453,-0.199707,0.1611328,-0.21875
3097,-64.875,-46.125,135.5625,-0.1069336,-0.7641602,0.06738281,-0.1914063,0.1723633,-0.2163086
3101,-73.375,-55.5,131.5625,-0.07226563,-0.8300781,0.07910156,-0.1855469,0.1850586,-0.2080078
3106,-74.875,-55.6875,133.5,-0.05664063,-0.9038086,0.09814453,-0.184082,0.1938477,-0.2011719
3110,-73.5625,-52.8125,141.9375,-0.1459961,-0.9428711,0.06738281,-0.1757813,0.2050781,-0.1928711
3114,-80.3125,-59.3125,152.3125,-0.246582,-0.9428711,0.03662109,-0.1674805,0.2163086,-0.1865234
3118,-89.875,-75.625,159.9375,-0.2661133,-1.086426,-0.02832031,-0.1616211,0.2250977,-0.1806641
3122,-92.5625,-89,165.0625,-0.1499023,-1.272949,-0.07080078,-0.1518555,0.2373047,-0.168457
3126,-83.75,-76.4375,163.625,0.0009765625,-1.405273,-0.02441406,-0.1401367,0.2485352,-0.1577148
3130,-64.1875,-47.75,162.625,-0.04101563,-1.498535,-0.01660156,-0.1318359,0.2563477,-0.1547852
3134,-42,-17.875,170.75,-0.1884766,-1.529297,-0.001464844,-0.1162109,0.262207,-0.1484375
3138,-27.4375,-2.75,190.5,-0.3510742,-1.486816,-0.07470703,-0.1020508,0.2700195,-0.1455078
3142,-29.0625,2.9375,207.5,-0.3510742,-1.436035,-0.09765625,-0.08789063,0.2709961,-0.144043
3146,-29.6875,4.5,201.8125,-0.3007813,-1.529297,-0.1245117,-0.06738281,0.2763672,-0.1425781
3150,-22.3125,4.8125,183.375,-0.3510742,-1.552734,-0.1743164,-0.04980469,0.28125,-0.1386719
3154,-24,1,171.5,-0.4365234,-1.439941,-0.2324219,-0.03759766,0.2822266,-0.1416016
3158,-33.5,-3.3125,167.3125,-0.4985352,-1.416504,-0.2363281,-0.02001953,0.2797852,-0.137207
3162,-41.625,-7.3125,172.875,-0.5952148,-1.443848,-0.2128906,-0.004394531,0.2797852,-0.1357422
3166,-52.8125,-18,186.5625,-0.6186523,-1.501953,-0.2553711,0.006835938,0.2797852,-0.1318359
3170,-69.6875,-29.5,187.9375,-0.5141602,-1.537109,-0.2900391,0.02246094,0.2788086,-0.1279297
3174,-76.25,-35.125,178.375,-0.4169922,-1.727539,-0.2861328,0.03808594,0.2773438,-0.1225586
3178,-71.1875,-29.25,167.4375,-0.3510742,-1.762695,-0.2670898,0.04882813,0.2763672,-0.1181641
3182,-78.625,-31.6875,160.625,-0.3666992,-1.653809,-0.3476563,0.06396484,0.2749023,-0.112793
3186,-99.125,-43.9375,150.125,-0.2773438,-1.638184,-0.3515625,0.07470703,0.2709961,-0.1074219
3190,-110.625,-54.25,141.0625,-0.2041016,-1.758789,-0.309082,0.08447266,0.2709961,-0.1035156
3194,-108.8125,-58.5625,135.1875,-0.04101563,-1.886719,-0.2397461,0.09765625,0.2700195,-0.09667969
3198,-95.8125,-53.3125,122.875,0.1791992,-1.929688,-0.2016602,0.109375,0.2685547,-0.09375
3202,-79.5,-37.3125,108,0.2490234,-1.910156,-0.109375,0.1186523,0.2661133,-0.09228516
3206,-77.6875,-36.0625,107.5,0.1328125,-1.987793,-0.1054688,0.1318359,0.2685547,-0.09667969
3210,-90.1875,-63.8125,109.5625,0.2373047,-2.166504,-0.07861328,0.1450195,0.2709961,-0.1005859
3214,-90.375,-101.75,97.25,0.7993164,-2.854492,-0.06689453,0.1533203,0.2749023,-0.105957
3218,-2.75,-77.8125,-7.125,1.659668,-3.386719,0.03662109,0.1582031,0.2763672,-0.1142578
3222,44.625,-51.375,-43.5625,1.000488,-2.46582,-0.1591797,0.1547852,0.2749023,-0.1210938
3226,71.75,15.8125,-75.3125,0.9501953,-2.197754,-0.04394531,0.1533203,0.2709961,-0.1166992
3230,99,65.8125,-82.375,0.3769531,-2.209473,-0.09375,0.1474609,0.2675781,-0.1113281
3235,133.25,84.3125,-83.375,0.1484375,-1.999512,-0.1782227,0.1357422,0.262207,-0.1044922
3239,132.6875,91.25,-82.9375,-0.006347656,-1.80127,-0.2363281,0.128418,0.2612305,-0.1044922
3243,121.375,77.5625,-103.5,-0.1342773,-1.793457,-0.2670898,0.1186523,0.2587891,-0.1074219
3247,118.1875,56.6875,-134.1875,-0.1962891,-1.863281,-0.2207031,0.1069336,0.2597656,-0.112793
3251,120.625,49.4375,-153.1875,-0.1499023,-1.968262,-0.1591797,0.09863281,0.2597656,-0.1181641
3255,131.25,56.75,-163.5,-0.1611328,-2.038574,-0.1669922,0.08789063,0.262207,-0.125
3259,141.25,64.125,-167.9375,-0.2504883,-2.026855,-0.1938477,0.07373047,0.262207,-0.1347656
3263,139.5625,54.625,-175.5,-0.3666992,-1.898438,-0.2514648,0.06542969,0.2636719,-0.1401367
3267,123,29.0625,-187.125,-0.3935547,-1.83252,-0.2861328,0.05078125,0.2636719,-0.1508789
3271,98.5625,3.125,-204.5625,-0.328125,-1.812988,-0.2592773,0.03564453,0.262207,-0.1606445
3275,81.0625,-8.6875,-218.5625,-0.1650391,-1.894531,-0.2089844,0.0234375,0.262207,-0.1660156
3279,68.4375,-2.0625,-221.625,-0.06445313,-1.921875,-0.1899414,0.0009765625,0.262207,-0.1713867
3283,50.0625,6.625,-227.9375,-0.1225586,-1.886719,-0.2055664,-0.01757813,0.2612305,-0.175293
3287,23.9375,-1.3125,-236.125,-0.2504883,-1.859863,-0.2397461,-0.03076172,0.2612305,-0.1806641
3291,-2.375,-15,-245.75,-0.262207,-1.949219,-0.2055664,-0.05566406,0.262207,-0.1806641
3295,-9.8125,-10.4375,-252.4375,-0.1845703,-2.092773,-0.07470703,-0.07568359,0.2573242,-0.1782227
3299,6.5,15.625,-253.5625,-0.2231445,-2.158691,0.04443359,-0.09375,0.2539063,-0.1782227
3303,23.875,38.625,-244.5625,-0.4130859,-2.053711,0.009765625,-0.1137695,0.2460938,-0.1767578
3307,32.875,53.5,-235.9375,-0.5488281,-1.914063,0.03662109,-0.1328125,0.2363281,-0.1806641
3311,44.125,58.6875,-232.1875,-0.6611328,-1.754883,0.08251953,-0.1474609,0.2314453,-0.1850586
3315,59.3125,59.3125,-233.125,-0.7270508,-1.541016,0.1132813,-0.1650391,0.2172852,-0.1904297
3319,71.0625,61.25,-221.625,-0.7929688,-1.342773,0.1328125,-0.1782227,0.2026367,-0.1972656
3323,83.375,63.25,-202.1875,-0.8549805,-1.140625,0.1171875,-0.1865234,0.1899414,-0.2011719
3327,93,63,-177.625,-0.847168,-0.8803711,0.05566406,-0.1962891,0.1738281,-0.2119141
3331,93.0625,55.125,-153.9375,-0.862793,-0.5966797,-0.02832031,-0.203125,0.15625,-0.2202148
3335,84.125,39.5,-134.3125,-0.796875,-0.3520508,-0.07861328,-0.2055664,0.1474609,-0.2270508
3339,70,24.1875,-120,-0.6767578,-0.2202148,-0.07470703,-0.2089844,0.1323242,-0.2338867
3343,58.875,11.5,-112.5625,-0.5991211,-0.1733398,0.02490234,-0.2163086,0.1186523,-0.2392578
3347,55.875,-6.25,-114.75,-0.5332031,-0.1308594,0.06738281,-0.21875,0.1123047,-0.237793
3351,56.75,-23.625,-114.9375,-0.4404297,-0.07226563,0.1132813,-0.2246094,0.09863281,-0.2421875
3355,52.125,-38,-110.25,-0.3393555,-0.006347656,0.125,-0.2319336,0.08740234,-0.2407227
3359,40.8125,-44,-101.8125,-0.1650391,0.07470703,0.09423828,-0.2353516,0.07861328,-0.2421875
3364,32.625,-36.3125,-92.5,-0.08007813,0.09814453,0.105957,-0.2426758,0.06884766,-0.2392578
3368,37,-24.3125,-77.8125,-0.04492188,0.1098633,0.1210938,-0.2485352,0.06005859,-0.237793
3372,44.9375,-9.9375,-61.6875,-0.06835938,0.2148438,0.105957,-0.2495117,0.05273438,-0.237793
3376,49.25,0,-43.9375,-0.1108398,0.2495117,0.09423828,-0.2509766,0.04492188,-0.237793
3380,43.6875,2.8125,-24.5625,-0.1884766,0.3974609,0.009765625,-0.2509766,0.04150391,-0.2392578
3384,29.5,-2.9375,-8,-0.215332,0.5058594,-0.05517578,-0.253418,0.03613281,-0.2407227
3388,10.125,-12,7.75,-0.2119141,0.5488281,-0.05908203,-0.2519531,0.03369141,-0.2421875
3392,-10.625,-15.6875,26.75,-0.2001953,0.4985352,-0.05126953,-0.253418,0.03515625,-0.2392578
3396,-29.3125,-16.75,49.3125,-0.230957,0.3974609,-0.02832031,-0.2519531,0.03759766,-0.2392578
3400,-41,-22.125,72.8125,-0.2270508,0.2924805,-0.005371094,-0.2543945,0.04394531,-0.2353516
3404,-47.75,-27.8125,90.125,-0.2348633,0.121582,0.005859375,-0.2553711,0.05761719,-0.230957
3408,-47.625,-33.625,102.6875,-0.1650391,-0.01025391,0.04785156,-0.2519531,0.06103516,-0.230957
3412,-46.375,-33.625,111,-0.1186523,-0.06445313,0.02880859,-0.2509766,0.07519531,-0.2270508
3416,-51.75,-35.4375,120.25,-0.1611328,-0.1269531,-0.02832031,-0.2495117,0.08740234,-0.2216797
3420,-60.9375,-41.125,134.25,-0.1650391,-0.2353516,-0.04736328,-0.2485352,0.09619141,-0.21875
3424,-62.75,-40.75,147.25,-0.1381836,-0.4179688,0.005859375,-0.2436523,0.1113281,-0.2109375
3428,-54.625,-36.25,155.4375,-0.1499023,-0.6860352,0.02490234,-0.2402344,0.1235352,-0.206543
3432,-45,-30.0625,163.75,-0.1728516,-0.5620117,0.009765625,-0.2353516,0.1347656,-0.2041016
3436,-37.6875,-17.6875,175.75,-0.2270508,-0.6821289,0.01708984,-0.2270508,0.1513672,-0.1987305
3440,-30.75,2.25,193.125,-0.3085938,-0.7680664,0.02880859,-0.2172852,0.1650391,-0.1943359
3444,-26,13.125,212,-0.4672852,-0.8183594,-0.02832031,-0.206543,0.1772461,-0.1972656
3448,-35.9375,3.875,229,-0.5834961,-0.8881836,-0.1206055,-0.1914063,0.1899414,-0.1943359
3452,-52.125,-12.75,229.25,-0.5332031,-1.016602,-0.1323242,-0.1757813,0.2050781,-0.1918945
3456,-61.9375,-30.875,217.6875,-0.5332031,-1.164063,-0.1552734,-0.1665039,0.2148438,-0.1889648
3460,-65.125,-42.5,205.0625,-0.5102539,-1.284668,-0.1591797,-0.1494141,0.2275391,-0.1835938
3464,-66,-43.5625,199.9375,-0.5371094,-1.397461,-0.1782227,-0.1342773,0.2397461,-0.1767578
3468,-66.5625,-37.8125,214.0625,-0.5991211,-1.517578,-0.2167969,-0.1245117,0.2451172,-0.1699219
3472,-79.3125,-36.5,240.0625,-0.6030273,-1.634277,-0.2553711,-0.1030273,0.2539063,-0.1660156
3476,-91.4375,-36,246.875,-0.4907227,-1.816895,-0.2631836,-0.08203125,0.2636719,-0.1606445
3480,-88.0625,-25.125,235.1875,-0.3901367,-2.01123,-0.2089844,-0.06884766,0.2700195,-0.15625
3484,-70.625,-8.8125,216.5625,-0.4052734,-2.003418,-0.1977539,-0.04736328,0.2763672,-0.1469727
3488,-70.125,-5.125,207.25,-0.5834961,-1.867188,-0.2475586,-0.02685547,0.2788086,-0.1416016
3493,-90.1875,-16.3125,209,-0.7114258,-1.828613,-0.3286133,-0.01269531,0.2788086,-0.137207
3497,-119.8125,-38.5625,211.75,-0.6962891,-1.921875,-0.3666992,0.005859375,0.28125,-0.1289063
3501,-134.8125,-55.1875,204.25,-0.5874023,-2.081055,-0.2861328,0.0234375,0.2822266,-0.1157227
3505,-122.625,-66,189.4375,-0.4482422,-2.213379,-0.2207031,0.03320313,0.2822266,-0.1098633
3509,-97.1875,-52,177.3125,-0.3354492,-2.150879,-0.1206055,0.04980469,0.28125,-0.1005859
3513,-79.875,-35.1875,188.625,-0.4208984,-2.166504,-0.1552734,0.06640625,0.2773438,-0.09521484
3517,-78.4375,-31,198.1875,-0.2929688,-2.100586,-0.2089844,0.07714844,0.2749023,-0.09228516
3521,-81,-28.3125,186.8125,-0.1962891,-2.124023,-0.1782227,0.09521484,0.2700195,-0.08691406
3525,-72.375,-29.125,166.875,-0.1303711,-2.182129,-0.1323242,0.1118164,0.2661133,-0.08544922
3529,-55.75,-30.5,153.375,-0.08007813,-2.236328,-0.07080078,0.1225586,0.2636719,-0.08447266
3533,-41.0625,-38.375,142.125,0.008789063,-2.232422,-0.07080078,0.1376953,0.2597656,-0.08984375
3537,-31.75,-48.25,130.4375,0.109375,-2.182129,-0.1206055,0.1533203,0.2587891,-0.09912109
3541,-40.25,-74.8125,137.3125,0.9350586,-2.823242,-0.1860352,0.1630859,0.2573242,-0.1088867
3545,51.1875,-40.3125,-52.3125,1.69043,-3.646973,-0.2861328,0.1665039,0.2587891,-0.1289063
3549,32.1875,-19.8125,-22.875,0.659668,-2.337402,-0.1938477,0.1591797,0.2587891,-0.1303711
3553,46.125,-0.25,-16.625,0.5708008,-1.964355,-0.4360352,0.1591797,0.2563477,-0.1289063
3557,41.5,32.0625,-51.6875,0.6635742,-1.770508,-0.1435547,0.1616211,0.2524414,-0.1196289
3561,54.8125,40.3125,-90.0625,0.2993164,-2.057617,-0.2553711,0.1533203,0.2509766,-0.1088867
3565,72.375,44.0625,-110.875,0.3613281,-2.057617,-0.1552734,0.144043,0.2524414,-0.1044922
3569,80.5,69.375,-135,0.2758789,-2.019043,-0.2167969,0.1308594,0.2539063,-0.1005859
3573,76.375,74.25,-162.0625,-0.05273438,-1.933594,-0.2670898,0.1201172,0.2587891,-0.1020508
3577,58.625,55.4375,-184.25,-0.3823242,-1.917969,-0.3051758,0.1079102,0.2597656,-0.1035156
3581,37.125,25.3125,-194.6875,-0.5024414,-2.04248,-0.2246094,0.09277344,0.2675781,-0.1020508
3585,34.125,9.0625,-199.8125,-0.347168,-2.228516,-0.1513672,0.07470703,0.2724609,-0.1044922
3589,46.1875,21,-209.8125,-0.2080078,-2.306641,-0.1362305,0.06396484,0.2739258,-0.105957
3593,59.6875,34.9375,-216.4375,-0.2700195,-2.259766,-0.2207031,0.04638672,0.2788086,-0.1088867
3597,62.1875,38.9375,-227.4375,-0.3862305,-2.150879,-0.2939453,0.02587891,0.2822266,-0.1142578
3601,59.375,38.5625,-239.3125,-0.4404297,-2.124023,-0.2939453,0.01171875,0.2822266,-0.1181641
3605,61.1875,42.375,-246.125,-0.5102539,-2.174316,-0.2861328,-0.0078125,0.2836914,-0.1225586
3609,69.8125,51.6875,-242.6875,-0.5913086,-2.158691,-0.2363281,-0.03076172,0.2836914,-0.1279297
3613,79.875,57.375,-240.5,-0.6455078,-2.057617,-0.1899414,-0.04736328,0.2822266,-0.1333008
3617,87.1875,54.375,-235.5625,-0.6767578,-1.953125,-0.1899414,-0.06738281,0.2788086,-0.1386719
3622,89.6875,52.0625,-235.375,-0.6303711,-1.875,-0.1743164,-0.08886719,0.2700195,-0.1469727
3626,93.4375,49.875,-237.375,-0.6303711,-1.773926,-0.1899414,-0.1030273,0.2651367,-0.1538086
3630,97.5,46.1875,-234.5625,-0.6303711,-1.739258,-0.1591797,-0.1235352,0.2524414,-0.1616211
3634,107.5625,53.6875,-228.3125,-0.5253906,-1.661621,-0.109375,-0.1425781,0.2397461,-0.1728516
3638,123.125,63.1875,-215.0625,-0.5644531,-1.599121,-0.1206055,-0.1518555,0.2314453,-0.1782227
3642,134.6875,66.375,-203.6875,-0.5253906,-1.312012,-0.1513672,-0.1674805,0.2124023,-0.1918945
3646,127.5,55.1875,-191.6875,-0.5644531,-1.078613,-0.2246094,-0.1806641,0.1938477,-0.2011719
3650,113.625,48.8125,-190,-0.5175781,-0.9506836,-0.1821289,-0.1855469,0.1826172,-0.2094727
3654,103.5,48.1875,-186.25,-0.5332031,-0.8803711,-0.112793,-0.1948242,0.1660156,-0.2202148
3658,107,53.9375,-175.3125,-0.5214844,-0.7563477,-0.009277344,-0.203125,0.1459961,-0.2299805
3662,110.4375,55.6875,-157.25,-0.5644531,-0.6357422,-0.02441406,-0.2080078,0.1337891,-0.2338867
3666,113.9375,50.375,-153.75,-0.5332031,-0.453125,0.001953125,-0.2114258,0.1152344,-0.2407227
3670,115.9375,46.4375,-141.5625,-0.5371094,-0.2202148,-0.04736328,-0.215332,0.09619141,-0.25
3674,103.6875,39.875,-114.875,-0.5527344,0.0009765625,-0.1015625,-0.2172852,0.08496094,-0.2568359
3678,74.9375,27.875,-88.4375,-0.4946289,0.1914063,-0.1362305,-0.21875,0.06982422,-0.2636719
3682,49.375,15.375,-79.125,-0.3823242,0.3310547,-0.04003906,-0.21875,0.05859375,-0.2680664
3686,37.1875,0,-72.5625,-0.378418,0.2456055,-0.04394531,-0.2211914,0.05273438,-0.2680664
3690,34.9375,-15.375,-71.125,-0.2929688,0.3583984,-0.06298828,-0.222168,0.04492188,-0.2666016
3694,23.0625,-21.1875,-66.3125,-0.2734375,0.5175781,-0.06689453,-0.2255859,0.03613281,-0.269043
3698,0,-27.375,-43,-0.3510742,0.5800781,-0.07861328,-0.2270508,0.03369141,-0.2680664
3702,-23.125,-33.9375,-9.375,-0.3320313,0.5253906,-0.05517578,-0.2304688,0.03027344,-0.2666016
3706,-36.875,-40.5,15.5,-0.2543945,0.4282227,-0.02441406,-0.2329102,0.03515625,-0.2636719
3710,-38.25,-42.625,26.5,-0.1264648,0.315918,0.02490234,-0.234375,0.03759766,-0.2583008
3714,-29.125,-37.6875,29,-0.04101563,0.2338867,0.06347656,-0.2363281,0.04150391,-0.2568359
3718,-23.9375,-27.375,37.4375,-0.05664063,0.2612305,0.04443359,-0.237793,0.04492188,-0.2543945
3722,-32.6875,-24.25,45.5625,-0.1381836,0.2768555,-0.01318359,-0.2387695,0.04980469,-0.2490234
3726,-46.4375,-29.9375,57.75,-0.1767578,0.237793,-0.05126953,-0.2387695,0.05615234,-0.2475586
3730,-62.9375,-31.625,76.5,-0.2080078,0.1445313,-0.03613281,-0.2387695,0.06494141,-0.2446289
3734,-74,-34.0625,92.4375,-0.230957,0.02050781,-0.02832031,-0.2387695,0.07373047,-0.2421875
3738,-80.5,-35.125,103.375,-0.2583008,-0.1420898,0.02490234,-0.2387695,0.08642578,-0.2353516
3742,-75.25,-35.625,111.375,-0.296875,-0.324707,0.06738281,-0.2353516,0.1000977,-0.2270508
3746,-58.0625,-33.3125,122.375,-0.2890625,-0.46875,0.1328125,-0.2353516,0.1088867,-0.2246094
3751,-46.6875,-30.875,134.5,-0.3125,-0.324707,0.09033203,-0.2304688,0.1225586,-0.2216797
3755,-51.8125,-38.875,150.5625,-0.4013672,-0.4453125,-0.02050781,-0.2255859,0.1337891,-0.2163086
3759,-71,-50.5,160.0625,-0.3901367,-0.519043,-0.06298828,-0.2211914,0.1450195,-0.2133789
3763,-81.25,-61.0625,161.9375,-0.4443359,-0.7524414,-0.05908203,-0.2138672,0.1601563,-0.2055664
3767,-75.25,-65.0625,166.0625,-0.4711914,-0.9775391,-0.04003906,-0.2089844,0.1762695,-0.1958008
3771,-61.5625,-58.875,177.6875,-0.4946289,-1.140625,-0.01318359,-0.203125,0.1860352,-0.1904297
3775,-46.75,-47.125,197.5625,-0.4750977,-1.210938,-0.01660156,-0.1938477,0.2001953,-0.1835938
3779,-36.5625,-31.75,220.625,-0.4287109,-1.272949,-0.06298828,-0.1782227,0.2114258,-0.1796875
3783,-35.3125,-18.4375,246.625,-0.4443359,-1.342773,-0.1708984,-0.1674805,0.2226563,-0.175293
3787,-52.3125,-20.75,255.0625,-0.4750977,-1.34668,-0.2436523,-0.1484375,0.2348633,-0.1738281
3791,-75.0625,-31.375,233.5625,-0.4287109,-1.447754,-0.1860352,-0.1259766,0.2460938,-0.1699219
3795,-79.3125,-33.6875,207.4375,-0.5683594,-1.622559,-0.1245117,-0.1137695,0.2539063,-0.1616211
3799,-74.6875,-33.9375,209.6875,-0.7578125,-1.708008,-0.07080078,-0.09472656,0.2651367,-0.15625
3803,-80.1875,-41.8125,243.8125,-0.8510742,-1.852051,-0.1630859,-0.07714844,0.2700195,-0.1508789
3807,-96.5,-53.125,267.6875,-0.6303711,-1.983887,-0.2475586,-0.06152344,0.2763672,-0.1455078
3811,-100.1875,-50.875,258.3125,-0.3706055,-2.197754,-0.2285156,-0.0390625,0.2788086,-0.1357422
3815,-76.8125,-32,223.9375,-0.1147461,-2.306641,-0.1591797,-0.01513672,0.2822266,-0.1279297
3819,-41.125,6.8125,199.625,-0.1499023,-2.267578,-0.1015625,-0.001953125,0.2836914,-0.125
3823,-25.3125,39.6875,209.3125,-0.3862305,-2.154785,-0.1474609,0.01660156,0.2822266,-0.1210938
3827,-31.875,48.6875,227.4375,-0.4555664,-2.069336,-0.1708984,0.03662109,0.2788086,-0.1196289
3831,-48.875,42.875,228.4375,-0.4013672,-2.116211,-0.109375,0.05322266,0.2749023,-0.1157227
3835,-63.4375,16,202.3125,-0.2929688,-2.259766,0.005859375,0.07470703,0.2700195,-0.112793
3839,-68.75,-19.6875,157.4375,-0.09130859,-2.477539,0.1674805,0.09033203,0.2675781,-0.1088867
3843,-59.625,-47,126.125,0.190918,-2.687012,0.2983398,0.09960938,0.2651367,-0.1088867
3847,-32.1875,-59.875,116.5625,0.4892578,-2.838867,0.2558594,0.1103516,0.2612305,-0.1098633
3851,-18.25,-76.8125,113.625,0.8149414,-2.733887,-0.01660156,0.1225586,0.2587891,-0.1166992
3855,-35.5625,-97.3125,91.625,1.287598,-2.687012,-0.3051758,0.1293945,0.2524414,-0.1225586
3859,-47.3125,-103.5625,46.5,1.616699,-2.92041,-0.3051758,0.1333008,0.2524414,-0.1289063
3863,-12,-76.9375,-10.1875,1.841797,-3.165039,-0.1782227,0.1308594,0.2539063,-0.1303711
3867,46.3125,2.0625,-70.125,1.783691,-3.11084,0.009765625,0.1259766,0.2524414,-0.1279297
3871,106.4375,89.4375,-114.625,1.268066,-2.998047,0.1171875,0.1186523,0.2563477,-0.1235352
3875,154.625,140.9375,-129.5,0.5200195,-2.858398,0.03662109,0.1103516,0.2548828,-0.125
3880,174.0625,139.75,-138.25,0.01660156,-2.481445,-0.109375,0.1044922,0.2548828,-0.1279297
3884,140.4375,94.875,-166.1875,-0.3354492,-1.968262,-0.2363281,0.09765625,0.2548828,-0.1347656
3888,72.3125,25.0625,-203.875,-0.4365234,-1.820801,-0.1743164,0.08300781,0.2563477,-0.1401367
3892,27.6875,-17.0625,-231.625,-0.2661133,-2.13916,-0.001464844,0.07226563,0.2597656,-0.144043
3896,28.5625,-11.8125,-245.5,-0.1767578,-2.489258,0.1557617,0.05078125,0.2661133,-0.1455078
3900,55.3125,10.6875,-248.8125,-0.246582,-2.59375,0.159668,0.02978516,0.2709961,-0.1484375
3904,75.9375,28,-247.6875,-0.3862305,-2.477539,0.03271484,0.01513672,0.2724609,-0.1508789
3908,76.25,29.125,-254.3125,-0.5605469,-2.302734,-0.09375,-0.0078125,0.2724609,-0.1577148
3912,70,23.6875,-265.375,-0.6186523,-2.221191,-0.08984375,-0.02929688,0.2724609,-0.1630859
3916,65.5,19,-268.8125,-0.7231445,-2.143066,-0.08203125,-0.04589844,0.2675781,-0.1660156
3920,61.375,14.5625,-266.375,-0.7114258,-2.003418,-0.07861328,-0.07128906,0.2597656,-0.1713867
3924,54.9375,14.0625,-263.3125,-0.7617188,-1.878906,-0.07470703,-0.09472656,0.2539063,-0.1767578
3928,46.5625,8,-250.1875,-0.8276367,-1.785645,-0.09765625,-0.1103516,0.2485352,-0.1806641
3932,40.625,7.625,-229.8125,-0.7695313,-1.67334,-0.109375,-0.1318359,0.2387695,-0.1806641
3936,38.9375,20.4375,-213.5,-0.6689453,-1.541016,-0.06689453,-0.1494141,0.2250977,-0.1850586
3940,44.9375,35.0625,-192.625,-0.7192383,-1.428223,-0.06298828,-0.1616211,0.2197266,-0.1875
3944,53.8125,38,-188.6875,-0.7192383,-1.245605,-0.05126953,-0.1748047,0.2075195,-0.1928711
3948,63.625,40.0625,-189,-0.7114258,-1.078613,-0.05517578,-0.1855469,0.1938477,-0.1972656
3952,74.6875,44.0625,-187.5,-0.6689453,-0.9155273,-0.04736328,-0.1948242,0.1850586,-0.2011719
3956,86.25,52.6875,-181.3125,-0.5913086,-0.7094727,-0.03613281,-0.2055664,0.1660156,-0.2109375
3960,95.3125,60.875,-173.125,-0.6572266,-0.5698242,-0.0859375,-0.2104492,0.1499023,-0.2202148
3964,96.9375,62.375,-154.8125,-0.6767578,-0.3989258,-0.08984375,-0.215332,0.1362305,-0.2231445
3968,93.4375,61.4375,-134.25,-0.6455078,-0.2006836,-0.07080078,-0.2211914,0.1201172,-0.2338867
3972,86.0625,54.4375,-116.0625,-0.6225586,0.0009765625,-0.05908203,-0.2211914,0.1049805,-0.2436523
3976,71.9375,41.625,-104.25,-0.5795898,0.1757813,-0.05517578,-0.2211914,0.09521484,-0.2446289
3980,61.6875,22,-88.125,-0.7617188,-0.3017578,-0.07470703,-0.2236328,0.08251953,-0.2543945
3984,40,2.0625,-84.4375,-0.4907227,0.3232422,-0.03613281,-0.2255859,0.07275391,-0.2558594
3988,31.375,-12.375,-68.5,-0.3901367,0.3232422,0.001953125,-0.2280273,0.06738281,-0.2543945
3992,27.3125,-15.375,-48.125,-0.28125,0.3232422,-0.001464844,-0.2319336,0.05859375,-0.2568359
3996,20.8125,-10.1875,-27.625,-0.2080078,0.3935547,0.005859375,-0.2304688,0.05517578,-0.2543945
4000,13.25,-5.4375,-11.4375,-0.1767578,0.4516602,-0.02050781,-0.2329102,0.05126953,-0.2558594
4004,2.6875,-5.375,1.9375,-0.1689453,0.5097656,-0.03613281,-0.234375,0.05371094,-0.2514648
4009,-8,-9.9375,14.875,-0.1689453,0.5097656,-0.05517578,-0.2353516,0.05273438,-0.2529297
4013,-21.5,-13.1875,33.375,-0.1767578,0.4321289,-0.05517578,-0.2353516,0.05273438,-0.2529297
4017,-32.875,-13.9375,54.0625,-0.1459961,0.3740234,-0.02050781,-0.2319336,0.05859375,-0.2514648
4021,-39.8125,-11.875,72.8125,-0.1342773,0.2885742,0.001953125,-0.2353516,0.06640625,-0.25
4025,-43,-11.0625,88.375,-0.1459961,0.1835938,0.04052734,-0.2304688,0.07373047,-0.25
4029,-41.9375,-13.3125,100.6875,-0.1650391,0.09423828,0.05566406,-0.2304688,0.08105469,-0.2446289
4033,-43.8125,-15.6875,111.125,-0.2041016,-0.01806641,0.04785156,-0.2270508,0.09228516,-0.2436523
4037,-50.875,-19.125,126.5,-0.2387695,-0.1074219,0.03662109,-0.2246094,0.09863281,-0.2421875
4041,-67.75,-21.125,139.75,-0.2426758,-0.1538086,0.05175781,-0.2197266,0.1137695,-0.2368164
4045,-81.875,-32.5,143.3125,-0.2929688,-0.2978516,0.07128906,-0.2138672,0.1298828,-0.230957
4049,-81.8125,-45.75,143.6875,-0.2851563,-0.4765625,0.07128906,-0.2128906,0.1411133,-0.2231445
4053,-80.625,-51.125,140.9375,-0.2773438,-0.7407227,0.08642578,-0.2055664,0.1547852,-0.2202148
4057,-69.875,-47.75,143.3125,-0.2773438,-0.7329102,0.08642578,-0.2006836,0.1689453,-0.2119141
4061,-61.6875,-35.4375,157.9375,-0.3354492,-0.8613281,0.06347656,-0.1962891,0.1772461,-0.2080078
4065,-48.5625,-19.25,182.4375,-0.3320313,-0.9467773,0.1020508,-0.1865234,0.1884766,-0.2011719
4069,-35.9375,0.125,199.5,-0.328125,-0.8999023,0.09423828,-0.1733398,0.2026367,-0.1987305
4073,-34.1875,6.0625,207.875,-0.4672852,-0.8764648,0.001953125,-0.1625977,0.2114258,-0.1972656
4077,-45.5625,-5.1875,204.625,-0.5527344,-0.8725586,-0.06689453,-0.1450195,0.2226563,-0.1943359
4081,-64,-21.125,198.125,-0.6376953,-0.9580078,-0.1362305,-0.1303711,0.2338867,-0.1889648
4085,-80.25,-29.9375,197.5625,-0.7231445,-1.129395,-0.1860352,-0.1176758,0.2387695,-0.1875
4089,-94.125,-34.5625,204,-0.8276367,-1.319336,-0.2363281,-0.1030273,0.25,-0.1806641
4093,-101.25,-33.5,216.25,-0.8935547,-1.517578,-0.1821289,-0.08642578,0.2597656,-0.1713867
4097,-101.875,-36.5,229.375,-0.9169922,-1.696289,-0.09765625,-0.07226563,0.2651367,-0.1645508
4101,-91.625,-48.125,233.625,-0.9013672,-1.917969,-0.0859375,-0.05224609,0.2724609,-0.1577148
4105,-78,-54,230.625,-0.7387695,-2.045898,-0.03222656,-0.02929688,0.2763672,-0.1494141
4109,-65.5625,-34.4375,214.4375,-0.5874023,-2.045898,0.01708984,-0.01757813,0.2763672,-0.1455078
4113,-56,-22.9375,206.25,-0.8125,-2.088867,-0.05908203,-0.0009765625,0.2773438,-0.1401367
4117,-55.25,-28.8125,220.4375,-0.8007813,-2.09668,-0.1821289,0.01904297,0.2773438,-0.1357422
4121,-57.75,-23.125,230.6875,-0.6264648,-2.073242,-0.2055664,0.03417969,0.2763672,-0.1333008
4125,-53.5625,-11.0625,227,-0.5253906,-2.049805,-0.2167969,0.05322266,0.2709961,-0.1289063
4129,-49.0625,-4.0625,213.6875,-0.4208984,-1.945313,-0.2363281,0.07226563,0.2661133,-0.1225586
4133,-59.6875,-3.8125,191.5625,-0.3320313,-1.812988,-0.2939453,0.08447266,0.2636719,-0.1235352
4138,-78.75,-8.375,167.25,-0.4130859,-1.773926,-0.2822266,0.1010742,0.2587891,-0.1210938
4142,-111.25,-37.5,167.75,-0.5063477,-1.921875,-0.34375,0.1176758,0.2539063,-0.1157227
4146,-136.3125,-62.9375,160.5625,-0.3007813,-2.131836,-0.2475586,0.1269531,0.2509766,-0.1142578
4150,-149.0625,-91.4375,148.1875,-0.08398438,-2.418945,-0.2324219,0.1459961,0.2509766,-0.1166992
4154,-145.75,-113.5625,126,0.2724609,-2.671875,-0.2475586,0.1650391,0.2475586,-0.1303711
4158,-116.375,-115.75,100.125,4.778809,-6.347168,0.6328125,0.1713867,0.2539063,-0.1508789
4162,82.1875,16.5625,-32.875,1.372559,-3.965332,-0.4785156,0.1650391,0.262207,-0.175293
4166,50.125,12.3125,-39,0.7836914,-2.092773,-0.4248047,0.1650391,0.2548828,-0.1699219
4170,29.9375,32.125,-66,0.4970703,-2.263672,-0.2324219,0.1674805,0.25,-0.1547852
4174,39.1875,16.3125,-92.125,0.1674805,-2.244141,-0.2246094,0.1616211,0.2485352,-0.1333008
4178,32.75,-2.0625,-113.1875,0.2412109,-2.232422,-0.2397461,0.144043,0.25,-0.1157227
4182,30.125,5.8125,-136.1875,0.3613281,-2.380371,-0.1630859,0.1318359,0.2524414,-0.1113281
4186,49.4375,20.75,-170.875,0.2294922,-2.512207,-0.2363281,0.1166992,0.2573242,-0.1044922
4190,63.9375,27.875,-201.75,0.008789063,-2.407715,-0.3129883,0.09765625,0.2636719,-0.1044922
4194,68.3125,36.625,-218.25,-0.1689453,-2.403809,-0.3325195,0.08544922,0.2685547,-0.1088867
4198,77.3125,48.875,-221.25,-0.2734375,-2.415039,-0.3325195,0.06640625,0.2739258,-0.1098633
4202,91.4375,68.25,-223.5625,-0.3354492,-2.403809,-0.3129883,0.04882813,0.2763672,-0.1142578
4206,106.5625,88.8125,-230.9375,-0.4985352,-2.353027,-0.3012695,0.03564453,0.2788086,-0.1196289
4210,119.75,97.0625,-241.6875,-0.6806641,-2.267578,-0.3129883,0.01757813,0.2797852,-0.1303711
4214,120.75,88.9375,-253.5,-0.8666992,-2.084961,-0.3129883,-0.0009765625,0.2797852,-0.1416016
4218,110.375,74.125,-258.625,-0.9555664,-1.941406,-0.3168945,-0.01855469,0.2773438,-0.1484375
4222,94.375,59.0625,-259.3125,-0.9477539,-1.855957,-0.2246094,-0.03759766,0.2724609,-0.1577148
4226,91.0625,52.875,-255.8125,-0.9091797,-1.83252,-0.1323242,-0.06054688,0.2661133,-0.1645508
4230,95.4375,54.875,-244.3125,-0.8857422,-1.750977,-0.1206055,-0.07470703,0.262207,-0.1699219
4234,99.3125,60.375,-231,-0.8085938,-1.580078,-0.1166992,-0.09472656,0.2524414,-0.1796875
4238,97.375,64.6875,-222.125,-0.78125,-1.424316,-0.09375,-0.1113281,0.2426758,-0.1889648
4242,93.5,65,-218.0625,-0.78125,-1.272949,-0.07470703,-0.1220703,0.2338867,-0.1928711
4246,88.375,63.75,-213.1875,-0.8164063,-1.183594,-0.02441406,-0.1367188,0.2211914,-0.2041016
4250,89.4375,59,-198.1875,-0.8085938,-1.133301,0.001953125,-0.1494141,0.2075195,-0.2119141
4254,95.6875,64.875,-184.875,-0.699707,-1.02832,0.07128906,-0.1567383,0.1972656,-0.21875
4258,105.5625,73.6875,-179.875,-0.6416016,-0.8725586,0.02099609,-0.1650391,0.1811523,-0.2285156
4262,107.75,70.8125,-183.1875,-0.6611328,-0.7133789,0.01367188,-0.1723633,0.1625977,-0.2392578
4267,106.6875,50.0625,-187.5,-0.7075195,-0.5737305,-0.03613281,-0.1782227,0.1513672,-0.2460938
4271,104.6875,25.0625,-180.375,-0.6650391,-0.453125,-0.04394531,-0.1855469,0.1337891,-0.2543945
4275,102.0625,13.6875,-159.125,-0.5102539,-0.3095703,-0.04394531,-0.1938477,0.1152344,-0.2612305
4279,96.375,19.625,-129.5,-0.4130859,-0.1230469,-0.01660156,-0.1972656,0.1035156,-0.2626953
4283,84.5625,20.5,-97.1875,-0.4555664,0.01269531,-0.04736328,-0.199707,0.08984375,-0.2705078
4287,66.75,10.3125,-76.625,-0.3823242,0.1875,-0.07080078,-0.203125,0.07861328,-0.2719727
4291,55.3125,0.8125,-63.875,-0.3901367,-0.46875,0.03662109,-0.2045898,0.06884766,-0.2734375
4295,37.25,-8.8125,-72.8125,-0.2890625,0.2885742,-0.04003906,-0.2080078,0.0625,-0.2758789
4299,25.8125,-15.9375,-70.9375,-0.2851563,0.3818359,-0.01660156,-0.2104492,0.05371094,-0.2749023
4303,11.1875,-21.3125,-57.6875,-0.3393555,0.4125977,-0.009277344,-0.2114258,0.04882813,-0.2749023
4307,-5.625,-28.25,-29.9375,-0.3706055,0.4868164,-0.04394531,-0.2138672,0.04394531,-0.2734375
4311,-24.25,-35.5,-4.4375,-0.3125,0.5527344,-0.05126953,-0.2172852,0.04492188,-0.2705078
4315,-42.5625,-39.5,14.875,-0.2851563,0.5175781,-0.03613281,-0.2197266,0.04736328,-0.2705078
4319,-55,-40.1875,33.3125,-0.2700195,0.4165039,-0.005371094,-0.2211914,0.05126953,-0.2651367
4323,-62.0625,-41.3125,49.375,-0.2543945,0.3271484,0.005859375,-0.2236328,0.06103516,-0.2597656
4327,-67.375,-44.25,61.5625,-0.2543945,0.2338867,0.02099609,-0.2246094,0.06738281,-0.2583008
4331,-69.1875,-47.625,74.25,-0.262207,0.09423828,0.05175781,-0.2270508,0.07763672,-0.2543945
4335,-68.1875,-51.875,89.4375,-0.262207,-0.02197266,0.02490234,-0.2280273,0.08642578,-0.2446289
4339,-67.6875,-50.875,103.3125,-0.1884766,-0.08789063,0.04443359,-0.2255859,0.09521484,-0.2421875
4343,-63.875,-45.3125,116.75,-0.1728516,-0.1967773,0.05957031,-0.2246094,0.1088867,-0.2353516
4347,-60.4375,-42.5,128.4375,-0.1767578,-0.2587891,0.06738281,-0.2236328,0.1210938,-0.230957
4351,-62.5,-41.375,136,-0.1689453,-0.3134766,0.02880859,-0.2197266,0.1298828,-0.2255859
4355,-71.75,-43.5625,139.875,-0.215332,-0.4570313,-0.001464844,-0.215332,0.1435547,-0.21875
4359,-80.8125,-52.8125,142.25,-0.3085938,-0.6748047,-0.04736328,-0.2104492,0.1577148,-0.2119141
4363,-82.8125,-58.375,144.875,-0.2700195,-0.7446289,-0.01318359,-0.2055664,0.1674805,-0.2041016
4367,-78.375,-54.6875,154.1875,-0.2929688,-0.8959961,0.01367188,-0.199707,0.1826172,-0.1958008
4371,-70.9375,-49.9375,168,-0.3242188,-0.9931641,0.009765625,-0.1923828,0.1948242,-0.1904297
4375,-64.8125,-47.3125,180.0625,-0.328125,-1.074707,-0.005371094,-0.184082,0.2050781,-0.1850586
4379,-62.8125,-44.5,192,-0.3203125,-1.160156,-0.05126953,-0.1708984,0.2172852,-0.1767578
4383,-63.125,-41.0625,200.6875,-0.328125,-1.26123,-0.08984375,-0.1542969,0.2299805,-0.1728516
4387,-59.6875,-39.8125,200.5,-0.3393555,-1.354492,-0.07861328,-0.1484375,0.2373047,-0.168457
4391,-56.0625,-42.5,192.125,-0.4521484,-1.366211,-0.1401367,-0.1342773,0.25,-0.1606445
4396,-65.6875,-55.125,192.8125,-0.5488281,-1.405273,-0.2167969,-0.1152344,0.2573242,-0.1538086
4400,-73.8125,-62.625,201.25,-0.4946289,-1.583984,-0.2397461,-0.1054688,0.262207,-0.1484375
4404,-65.1875,-50.0625,207.125,-0.3823242,-1.68457,-0.1708984,-0.08886719,0.2700195,-0.144043
4408,-47.5,-28.3125,206.625,-0.4672852,-1.696289,-0.1821289,-0.07226563,0.2773438,-0.1401367
4412,-43.0625,-26.125,209.5,-0.6108398,-1.61084,-0.2670898,-0.06054688,0.2788086,-0.1357422
4416,-56.625,-33.6875,218.3125,-0.5834961,-1.67334,-0.324707,-0.0390625,0.28125,-0.1318359
4420,-70.9375,-32.875,217.875,-0.3935547,-1.770508,-0.3051758,-0.01757813,0.2836914,-0.1264648
4424,-70.8125,-18.375,200.125,-0.3706055,-1.812988,-0.2514648,-0.005859375,0.2822266,-0.1225586
4428,-64.9375,-8.6875,185.8125,-0.5644531,-1.71582,-0.2553711,0.01171875,0.2822266,-0.1181641
4432,-75.125,-15.5625,192.3125,-0.7695313,-1.688477,-0.34375,0.03076172,0.2797852,-0.112793
4436,-101.6875,-32.4375,213.3125,-0.6689453,-1.789551,-0.359375,0.04150391,0.28125,-0.1074219
4440,-115.8125,-38.5,214.625,-0.4521484,-1.991699,-0.3012695,0.06298828,0.2773438,-0.09765625
4444,-104,-38.375,194.1875,-0.296875,-2.197754,-0.2128906,0.08203125,0.2739258,-0.09228516
4448,-80.625,-36.4375,163.5,-0.1845703,-2.209473,-0.1821289,0.09277344,0.2709961,-0.08691406
4452,-69.9375,-32.5625,152.6875,-0.1069336,-2.217285,-0.1630859,0.1069336,0.2675781,-0.08447266
4456,-61.0625,-30.0625,158.4375,0.04736328,-2.353027,-0.1401367,0.1235352,0.262207,-0.08691406
4460,-44.8125,-27.875,149.75,0.2216797,-2.422852,-0.1401367,0.1376953,0.2597656,-0.09228516
4464,-34.625,-42.1875,118.5625,0.3613281,-2.422852,-0.2285156,0.1533203,0.2587891,-0.1074219
4468,-43.1875,-79.8125,77.875,0.5473633,-2.547363,-0.3398438,0.1650391,0.2573242,-0.1264648
4472,-26.1875,-98,-2.4375,1.605469,-3.180664,-0.2167969,0.1674805,0.2587891,-0.1425781
4476,5.4375,-66.5,-50.9375,1.09375,-2.749512,-0.3012695,0.1606445,0.2612305,-0.1494141
4480,28.125,-22.625,-67.1875,1.089844,-2.539551,-0.3706055,0.1547852,0.2587891,-0.137207
4484,57.5625,41.875,-93.375,0.8535156,-2.52002,-0.2861328,0.1508789,0.2563477,-0.125
4488,95.8125,75.125,-105.6875,0.4311523,-2.555176,-0.3359375,0.1391602,0.2563477,-0.105957
4492,121.25,88.375,-120.0625,0.2216797,-2.364746,-0.4169922,0.1259766,0.2587891,-0.1005859
4496,122.375,90.75,-143.5625,0.01269531,-2.213379,-0.4360352,0.1176758,0.2597656,-0.09912109
4500,113.625,81.5,-164.875,-0.1767578,-2.197754,-0.4052734,0.1044922,0.262207,-0.1020508
4504,113.25,76.625,-187.75,-0.2851563,-2.205566,-0.3632813,0.08886719,0.2661133,-0.1088867
4508,112.75,70.5,-205.375,-0.4482422,-2.189941,-0.359375,0.08056641,0.2685547,-0.112793
4512,111.3125,55.9375,-217.25,-0.5214844,-2.13916,-0.3476563,0.06298828,0.2709961,-0.1210938
4516,107.8125,52.5,-224.75,-0.4521484,-2.04248,-0.3129883,0.04492188,0.2724609,-0.1303711
4520,99.875,56.8125,-233.375,-0.5253906,-1.991699,-0.3012695,0.03173828,0.2763672,-0.1357422
4525,84.5,47.8125,-236.5,-0.6030273,-1.90625,-0.309082,0.01171875,0.2749023,-0.1416016
4529,65.125,35.8125,-242.3125,-0.5991211,-1.917969,-0.2670898,-0.0078125,0.2763672,-0.1469727
4533,51.8125,32.5,-250.25,-0.5292969,-1.956543,-0.1899414,-0.0234375,0.2749023,-0.1523438
4537,52.9375,40.875,-254.125,-0.5410156,-2.007324,-0.1206055,-0.04589844,0.2739258,-0.15625
4541,65,55.375,-248.875,-0.5063477,-1.983887,-0.08203125,-0.06884766,0.2685547,-0.1606445
4545,77.6875,70.5,-247.875,-0.6303711,-1.836426,-0.1323242,-0.08203125,0.2651367,-0.1645508
4549,71.25,71.375,-246.0625,-0.730957,-1.603027,-0.1743164,-0.09960938,0.2524414,-0.1738281
4553,52.3125,60.3125,-239.25,-0.8046875,-1.552734,-0.1206055,-0.1201172,0.2436523,-0.1806641
4557,49.4375,59.8125,-233.0625,-0.6884766,-1.606934,0.05175781,-0.1318359,0.2397461,-0.1821289
4561,75.0625,75,-225.1875,-0.6611328,-1.638184,0.159668,-0.1484375,0.2236328,-0.1889648
4565,112.0625,79.375,-215.625,-0.7270508,-1.439941,0.08642578,-0.1625977,0.2084961,-0.199707
4569,127.5625,65.4375,-214.875,-0.7426758,-1.074707,-0.07861328,-0.1699219,0.1972656,-0.2080078
4573,113.375,43.5625,-208,-0.730957,-0.7485352,-0.112793,-0.1816406,0.1801758,-0.21875
4577,92,26.5,-188.0625,-0.6650391,-0.6669922,-0.07470703,-0.1938477,0.1601563,-0.2270508
4581,84.5625,24.5625,-169.8125,-0.4907227,-0.6591797,0.001953125,-0.2006836,0.1474609,-0.2324219
4585,95.375,35.4375,-163.5,-0.3901367,-0.5463867,0.01708984,-0.2080078,0.1323242,-0.237793
4589,103.3125,43.8125,-159.75,-0.4130859,-0.355957,-0.01660156,-0.2114258,0.1123047,-0.2460938
4593,103.4375,46.625,-147.0625,-0.4594727,-0.1616211,-0.05126953,-0.215332,0.1000977,-0.2529297
4597,91.5,40.0625,-128.75,-0.5756836,0.1333008,-0.109375,-0.2163086,0.08398438,-0.2583008
4601,63.9375,25.375,-93.0625,-0.6611328,0.3041992,-0.2089844,-0.2172852,0.06884766,-0.2636719
4605,28.875,5.8125,-57.875,-0.6533203,0.5253906,-0.1821289,-0.21875,0.06005859,-0.2651367
4609,-2,-12.3125,-31.4375,-0.5913086,0.5332031,-0.1513672,-0.2197266,0.05761719,-0.2666016
4613,-24.5625,-27.625,-14.875,-0.4248047,0.5644531,-0.1166992,-0.2211914,0.05371094,-0.2651367
4617,-40.5,-33.4375,-8.6875,-0.3125,0.5253906,-0.06689453,-0.2246094,0.05761719,-0.2636719
4621,-47.3125,-34.6875,-2.5,-0.2773438,0.4516602,-0.009277344,-0.2270508,0.06005859,-0.2597656
4625,-47.5625,-32.3125,6.3125,-0.2851563,0.3896484,0.04443359,-0.2280273,0.0625,-0.2543945
4629,-45.625,-27.9375,19.875,-0.3393555,0.3232422,0.06738281,-0.2319336,0.06640625,-0.2529297
4633,-39.25,-26.3125,37.9375,-0.3745117,0.284668,0.09033203,-0.2329102,0.07128906,-0.2490234
4637,-33.4375,-26.6875,57.5,-0.3901367,0.2807617,0.05957031,-0.2319336,0.07763672,-0.2446289
4641,-27.5625,-24.3125,78.875,-0.3588867,0.2226563,0.05566406,-0.2304688,0.08251953,-0.2436523
4645,-18.6875,-16.125,102.75,-0.3745117,0.105957,0.03662109,-0.2304688,0.08886719,-0.2407227
4649,-8.125,-7.9375,127.375,-0.3823242,0.03613281,0.02099609,-0.2255859,0.1000977,-0.2392578
4654,-5.6875,-1.3125,147,-0.4248047,-0.02197266,-0.01318359,-0.2246094,0.1049805,-0.2392578
4658,-16.9375,-4.0625,156.8125,-0.5141602,-0.07617188,-0.04003906,-0.2163086,0.1186523,-0.237793
4662,-34.5,-16.8125,165.1875,-0.5952148,-0.2124023,-0.06298828,-0.2104492,0.1298828,-0.2368164
4666,-51.875,-30.875,177.1875,-0.6108398,-0.3637695,-0.04736328,-0.2045898,0.1386719,-0.2353516
4670,-61.1875,-44.9375,176.75,-0.5527344,-0.3364258,-0.02050781,-0.1948242,0.1538086,-0.2285156
4674,-61.0625,-57.75,182.5625,-0.5874023,-0.6083984,-0.09375,-0.1889648,0.1689453,-0.2231445
4678,-67.5625,-60.625,190.4375,-0.5991211,-0.7524414,-0.1362305,-0.1816406,0.1801758,-0.2177734
4682,-72.0625,-59,204.4375,-0.6264648,-0.9428711,-0.2055664,-0.1723633,0.1948242,-0.2109375
4686,-81.875,-50.9375,219.4375,-0.6264648,-1.078613,-0.2363281,-0.1591797,0.2084961,-0.2011719
4690,-91.8125,-48.0625,223.0625,-0.6767578,-1.21875,-0.2324219,-0.1494141,0.21875,-0.1972656
4694,-90.625,-56.9375,220.5625,-0.6728516,-1.416504,-0.1977539,-0.1342773,0.2324219,-0.1850586
4698,-81.8125,-56.3125,219.6875,-0.5063477,-1.525391,-0.1938477,-0.1152344,0.2451172,-0.1782227
4702,-78.9375,-30.4375,226.6875,-0.4594727,-1.622559,-0.1474609,-0.1054688,0.2524414,-0.1738281
4706,-80.625,-8.875,238.5625,-0.5952148,-1.743164,-0.1899414,-0.08544922,0.2597656,-0.1674805
4710,-81.9375,-6.0625,243.3125,-0.6923828,-1.80127,-0.2324219,-0.06152344,0.2675781,-0.1606445
4714,-95.4375,-13.8125,240.75,-0.715332,-1.844238,-0.2978516,-0.04833984,0.2724609,-0.15625
4718,-111.125,-21.6875,230.3125,-0.6147461,-1.968262,-0.2514648,-0.02587891,0.2763672,-0.1469727
4722,-112.875,-10.1875,226.3125,-0.5410156,-2.135742,-0.112793,-0.003417969,0.2788086,-0.1386719
4726,-102.625,4.3125,237.8125,-0.5449219,-2.255859,-0.06689453,0.009277344,0.2797852,-0.1333008
4730,-98.5,10.5,244,-0.5063477,-2.221191,-0.1435547,0.03320313,0.2788086,-0.125
4734,-113.6875,7.75,226.1875,-0.5024414,-2.135742,-0.2246094,0.0546875,0.2773438,-0.1157227
4738,-133.5625,-6,196.75,-0.6186523,-2.108398,-0.2783203,0.06787109,0.2739258,-0.1074219
4742,-152.6875,-29.0625,181.3125,-0.7851563,-2.104492,-0.2900391,0.08691406,0.2724609,-0.09667969
4746,-167.9375,-53.5,193.5625,-0.765625,-2.162598,-0.3398438,0.09960938,0.2700195,-0.08447266
4750,-170.3125,-62,220.125,-0.6069336,-2.20166,-0.394043,0.112793,0.2651367,-0.07617188
4754,-161.75,-65,226.75,-0.5102539,-2.341309,-0.2978516,0.1357422,0.2587891,-0.06640625
4758,-119.9375,-99.4375,187.8125,-0.2543945,-2.43457,-0.3632813,0.1567383,0.2524414,-0.06396484
4762,-94.0625,-111.3125,141.0625,0.2568359,-2.302734,-0.4321289,0.1748047,0.2485352,-0.07080078
4766,-79.5,-99.4375,116.6875,0.4077148,-2.43457,-0.5361328,0.1987305,0.2451172,-0.09082031
4770,-62.25,-90.5625,105.5,0.644043,-2.765137,-0.7475586,0.222168,0.2412109,-0.1210938
4774,-9.25,-86.9375,-53.8125,1.740723,-3.316895,-0.5283203,0.2353516,0.2436523,-0.144043
4778,42.1875,-29.5625,-37.5625,0.9038086,-2.780273,-0.7133789,0.2285156,0.2485352,-0.1508789
4783,96,37.875,-24,0.8496094,-2.527832,-0.6669922,0.2177734,0.2412109,-0.1357422
4787,117.5,113.3125,-51.125,0.6479492,-2.073242,-0.609375,0.2094727,0.2373047,-0.1166992
4791,136.125,126,-94.1875,0.04736328,-1.956543,-0.7285156,0.1904297,0.2348633,-0.09375
4795,130.875,108.8125,-125.0625,-0.1381836,-1.781738,-0.6245117,0.1713867,0.2373047,-0.08447266
4799,107.125,94,-154.75,-0.3666992,-1.766602,-0.5014648,0.1630859,0.2426758,-0.08447266
4803,78.5,67.3125,-176.375,-0.5214844,-1.836426,-0.4091797,0.1459961,0.25,-0.08300781
4807,61.6875,40.75,-187.75,-0.4672852,-2.057617,-0.3359375,0.1308594,0.2563477,-0.08300781
4811,66.9375,36.0625,-189.9375,-0.2700195,-2.294922,-0.2285156,0.1176758,0.2612305,-0.08447266
4815,80.25,53,-192.625,-0.2080078,-2.46582,-0.2285156,0.1020508,0.2675781,-0.08837891
4819,91.375,56.625,-212.3125,-0.3510742,-2.442383,-0.2861328,0.08544922,0.2724609,-0.09375
4823,83.125,36.75,-240.1875,-0.4555664,-2.422852,-0.309082,0.07470703,0.2763672,-0.09765625
4827,73,22.3125,-268.375,-0.5141602,-2.562988,-0.1938477,0.05224609,0.2822266,-0.1020508
4831,85.125,22.3125,-276.5,-0.5566406,-2.741699,-0.09765625,0.02832031,0.2861328,-0.1098633
4835,108.125,36.8125,-273.0625,-0.5795898,-2.640625,-0.1166992,0.009277344,0.2900391,-0.1157227
4839,121.25,44.25,-272.6875,-0.7270508,-2.52002,-0.2553711,-0.01611328,0.2885742,-0.125
4843,121.5625,43.375,-279.3125,-0.7504883,-2.333496,-0.2978516,-0.04248047,0.2836914,-0.1357422
4847,121.8125,40.0625,-292.75,-0.7348633,-2.251953,-0.2631836,-0.06152344,0.2797852,-0.1425781
4851,123.5625,48.3125,-302.125,-0.7387695,-2.12793,-0.2016602,-0.08642578,0.2700195,-0.1538086
4855,126.875,60.9375,-301.125,-0.8588867,-2.01123,-0.1591797,-0.112793,0.2573242,-0.1645508
4859,132.75,63.0625,-286,-1.009766,-1.840332,-0.1362305,-0.1293945,0.2460938,-0.1713867
4863,141.25,63.1875,-273.1875,-1.071777,-1.645996,-0.1166992,-0.1508789,0.2260742,-0.1850586
4867,151.6875,62.25,-261.25,-1.11084,-1.405273,-0.109375,-0.1708984,0.2050781,-0.199707
4871,161.9375,61.4375,-243.875,-1.095215,-1.129395,-0.128418,-0.1791992,0.1884766,-0.2080078
4875,161.3125,59,-224.3125,-1.091309,-0.8066406,-0.1362305,-0.1914063,0.1660156,-0.2231445
4879,147.5625,44.625,-203.9375,-1.114746,-0.5268555,-0.1899414,-0.2045898,0.1435547,-0.2338867
4883,125.4375,23.875,-178.125,-1.041016,-0.3286133,-0.1821289,-0.206543,0.1274414,-0.2407227
4887,104.8125,6,-155.5,-0.9248047,-0.2202148,-0.1474609,-0.2138672,0.1064453,-0.2446289
4891,90.125,-4.875,-140.5625,-0.7504883,-0.1616211,-0.07861328,-0.2197266,0.08886719,-0.2514648
4895,88.6875,-7.6875,-130.75,-0.6416016,-0.1499023,-0.04736328,-0.2246094,0.07861328,-0.2543945
4899,94.5625,-7.75,-121.25,-0.5488281,-0.002441406,-0.07861328,-0.2280273,0.0625,-0.2543945
4903,97.0625,-2.625,-110.0625,-0.4711914,0.2456055,-0.1591797,-0.234375,0.04492188,-0.2583008
4907,94.125,0.75,-96.9375,-0.4750977,0.6459961,-0.2285156,-0.2353516,0.03515625,-0.2597656
4912,78.3125,1.9375,-63.4375,-0.4672852,0.7001953,-0.3515625,-0.2353516,0.02246094,-0.2626953
4916,48.0625,-0.125,-40.375,-0.4248047,0.8984375,-0.4091797,-0.2363281,0.01123047,-0.2612305
4920,12.75,-4,-19.625,-0.4169922,0.9257813,-0.4208984,-0.2353516,0.008789063,-0.2612305
4924,-18.5625,-9.1875,1.0625,-0.4091797,0.890625,-0.378418,-0.2363281,0.006347656,-0.2626953
4928,-45.3125,-14.6875,21.75,-0.3935547,0.7895508,-0.2822266,-0.2387695,0.008789063,-0.2612305
4932,-60.5625,-20.5625,39,-0.4052734,0.6264648,-0.1938477,-0.2387695,0.01367188,-0.2583008
4936,-64.125,-26.25,55.1875,-0.3901367,0.4438477,-0.1513672,-0.2402344,0.02246094,-0.2568359
4940,-65.125,-26.6875,71.8125,-0.378418,0.3120117,-0.112793,-0.2412109,0.03369141,-0.2558594
4944,-66.1875,-23.25,90.75,-0.3862305,0.203125,-0.09765625,-0.2402344,0.04003906,-0.25
4948,-66.4375,-21.1875,110,-0.3745117,0.09814453,-0.09375,-0.2387695,0.05371094,-0.2475586
4952,-65.0625,-14.8125,126.5,-0.347168,-0.09179688,-0.04736328,-0.2387695,0.06738281,-0.2460938
4956,-53.4375,-9.375,140.375,-0.3549805,-0.2861328,-0.02441406,-0.2363281,0.07763672,-0.2421875
4960,-45.8125,-4.875,155.5625,-0.3432617,-0.387207,-0.02832031,-0.2319336,0.08984375,-0.2392578
4964,-45.8125,3.1875,168.5625,-0.2426758,-0.2548828,0.02880859,-0.2255859,0.1064453,-0.2353516
4968,-36.6875,14.9375,177.6875,-0.2851563,-0.6083984,0.05175781,-0.2197266,0.1152344,-0.237793
4972,-37.125,20.625,183.9375,-0.378418,-0.6435547,-0.01318359,-0.2089844,0.1298828,-0.2368164
4976,-46.9375,12.375,184.5,-0.5024414,-0.7329102,-0.109375,-0.1962891,0.1425781,-0.2338867
4980,-65.75,-1.75,185.1875,-0.5371094,-0.8378906,-0.1362305,-0.1899414,0.1547852,-0.2353516
4984,-81,-7.5625,186.3125,-0.5253906,-0.9814453,-0.0859375,-0.1791992,0.1713867,-0.230957
4988,-79.8125,-3.1875,186.9375,-0.5488281,-1.191406,-0.02832031,-0.1674805,0.1835938,-0.2255859
4992,-65.5,7.6875,190.5625,-0.6225586,-1.284668,0.02099609,-0.1567383,0.1948242,-0.2216797
4996,-58.375,18.3125,199.625,-0.730957,-1.276855,-0.01660156,-0.1425781,0.2050781,-0.2177734
5000,-68.0625,20.625,222.375,-0.878418,-1.381836,-0.09375,-0.1259766,0.2172852,-0.2163086
5004,-88.0625,17.25,246.9375,-0.8276367,-1.525391,-0.1166992,-0.1103516,0.2250977,-0.2109375
5008,-102,13.3125,249.25,-0.8237305,-1.74707,-0.1245117,-0.08544922,0.2363281,-0.2041016
5012,-111.4375,8.9375,240.625,-0.765625,-1.855957,-0.07470703,-0.06494141,0.2460938,-0.1972656
5016,-120.4375,7.8125,238.5625,-0.862793,-1.964355,-0.02832031,-0.05224609,0.2524414,-0.1904297
5020,-133,0.75,253.875,-0.9711914,-2.104492,-0.01318359,-0.02832031,0.2573242,-0.1806641
5024,-146.5,-7.625,282.25,-0.8354492,-2.275391,-0.001464844,-0.004394531,0.2651367,-0.1699219
5028,-149.75,-10.25,291.3125,-0.6303711,-2.527832,0.04443359,0.01171875,0.2675781,-0.1630859
5032,-126.5625,-11.25,258.875,-0.4091797,-2.559082,0.02490234,0.03808594,0.2675781,-0.1508789
5036,-116.3125,-9,211.8125,-0.4443359,-2.345215,-0.001464844,0.05810547,0.2661133,-0.1401367
5041,-136.75,-34.9375,201.4375,-0.5913086,-2.353027,-0.04003906,0.07128906,0.2651367,-0.1347656
5045,-152.5625,-65.8125,207.1875,-0.3085938,-2.535645,-0.02441406,0.08544922,0.2651367,-0.1264648
5049,-148.25,-70.4375,203.9375,0.08251953,-2.617188,0.01708984,0.1035156,0.2612305,-0.1142578
5053,-128.875,-59.6875,188.125,0.1635742,-2.745605,0.06347656,0.1103516,0.2587891,-0.1098633
5057,-103.9375,-77.75,161.5625,0.2490234,-2.69873,-0.01318359,0.1269531,0.2563477,-0.1074219
5061,-93.8125,-112.6875,132.875,0.4428711,-2.559082,-0.1015625,0.1367188,0.2539063,-0.112793
5065,-32.5,-83,188.5,4.205566,-6.988281,1.375488,0.1357422,0.2548828,-0.1181641
5069,167.1875,33.3125,-29.125,2.054688,-3.526367,0.001953125,0.1367188,0.2539063,-0.1318359
5073,86.1875,16.5625,-32.6875,0.5395508,-1.844238,-0.3745117,0.1391602,0.2460938,-0.1401367
5077,34.125,-19.5,-91.625,0.4116211,-1.692383,-0.3051758,0.1391602,0.2451172,-0.1357422
5081,26.6875,-21.8125,-134.0625,0.5551758,-1.878906,-0.005371094,0.1357422,0.2460938,-0.1357422
5085,48.4375,24.8125,-126,0.5161133,-2.154785,0.1904297,0.1259766,0.2475586,-0.1303711
5089,91,83.5,-107.125,0.3613281,-2.12793,0.2519531,0.1201172,0.2509766,-0.1289063
5093,117.9375,114.4375,-99.625,0.125,-1.941406,0.140625,0.112793,0.2509766,-0.1289063
5097,116.3125,117.4375,-109.5625,-0.1611328,-1.863281,0.1020508,0.109375,0.2524414,-0.1318359
5101,104.125,81.3125,-138.5,-0.4404297,-1.941406,0.1210938,0.1044922,0.2509766,-0.1357422
5105,90.8125,28.75,-175.375,-0.5253906,-1.972168,0.1748047,0.09521484,0.2539063,-0.1386719
5109,76.25,-3.625,-189.1875,-0.4443359,-2.146973,0.2827148,0.07861328,0.2573242,-0.1469727
5113,77.5625,-8.25,-191.9375,-0.3823242,-2.314453,0.3710938,0.07128906,0.2573242,-0.1523438
5117,95.625,-4.5625,-187.8125,-0.3862305,-2.384277,0.2866211,0.05078125,0.2612305,-0.1577148
5121,100.6875,-13.0625,-196.0625,-0.5175781,-2.197754,0.1289063,0.03564453,0.2597656,-0.1674805
5125,90.4375,-46.9375,-217.4375,-0.5292969,-2.061523,-0.005371094,0.0234375,0.2612305,-0.1713867
5129,65.9375,-76.5,-245.375,-0.4555664,-1.917969,-0.05126953,0.0009765625,0.2612305,-0.1806641
5133,46.625,-86.25,-256.75,-0.3354492,-1.987793,-0.05517578,-0.02587891,0.2573242,-0.1835938
5137,42.1875,-67.4375,-259.4375,-0.2348633,-2.019043,-0.01318359,-0.04394531,0.2563477,-0.1850586
5141,46.8125,-39.8125,-251.125,-0.347168,-2.019043,-0.005371094,-0.07128906,0.25,-0.1875
5145,50.875,-23.125,-238.375,-0.3901367,-1.945313,-0.03613281,-0.09472656,0.2436523,-0.1889648
5149,53.875,-7.75,-234.5,-0.3745117,-1.848145,-0.02441406,-0.1103516,0.2412109,-0.1928711
5153,61.0625,7.9375,-235.25,-0.4208984,-1.766602,-0.05126953,-0.1303711,0.2299805,-0.1928711
5157,67.3125,24.0625,-229.3125,-0.4868164,-1.599121,-0.05908203,-0.1484375,0.2172852,-0.199707
5161,71.5625,36.0625,-218.625,-0.5449219,-1.45166,-0.05908203,-0.1582031,0.2084961,-0.2026367
5165,73,43.3125,-207.4375,-0.6342773,-1.280762,-0.05517578,-0.1748047,0.1923828,-0.2094727
5170,73.5,40.6875,-202.4375,-0.7036133,-1.233887,0.05566406,-0.1865234,0.1787109,-0.2163086
5174,88.25,17,-217.375,-0.715332,-1.136719,0.08642578,-0.1923828,0.1660156,-0.21875
5178,102,0.5,-231.375,-0.5644531,-0.9467773,0.09033203,-0.2055664,0.1474609,-0.2255859
5182,104.8125,12.0625,-228.625,-0.4555664,-0.8725586,0.1328125,-0.2172852,0.1235352,-0.2324219
5186,114.625,30.75,-214.1875,-0.4985352,-0.7172852,0.08642578,-0.2246094,0.1098633,-0.2368164
5190,120.1875,49.6875,-189.625,-0.5253906,-0.4609375,0.04052734,-0.2304688,0.08642578,-0.2436523
5194,117.5,56.0625,-167.3125,-0.6186523,-0.1850586,-0.01318359,-0.234375,0.06396484,-0.25
