Packet number,Gyroscope X (deg/s),Gyroscope Y (deg/s),Gyroscope Z (deg/s),Accelerometer X (g),Accelerometer Y (g),Accelerometer Z (g),Magnetometer X (G),Magnetometer Y (G),Magnetometer Z (G)
1,-22.4375,8.875,13.5625,-1.001953,-0.07226563,-0.1552734,0.3212891,-0.01171875,-0.1235352
5,-26.3125,-2.25,0.8125,-1.017578,-0.05273438,-0.1743164,0.3212891,-0.01318359,-0.125
9,-26.6875,-8.75,-1.1875,-0.9750977,-0.07617188,-0.1362305,0.3198242,-0.01464844,-0.1225586
13,-22.0625,-6.3125,2.125,-0.9399414,-0.09179688,-0.1552734,0.3198242,-0.01171875,-0.1279297
17,-17.375,-2.8125,6.3125,-0.9477539,-0.08789063,-0.1743164,0.3198242,-0.01318359,-0.125
21,-12.5625,0.1875,4.625,-0.9438477,-0.09960938,-0.1669922,0.3198242,-0.01464844,-0.1264648
25,-7.3125,2.4375,3.4375,-0.9594727,-0.09570313,-0.1513672,0.3212891,-0.01318359,-0.1264648
29,-5.5,-0.5625,3.9375,-0.9868164,-0.08789063,-0.1821289,0.3198242,-0.01464844,-0.1264648
33,-6.625,-4.9375,2.1875,-0.9907227,-0.1113281,-0.1708984,0.3212891,-0.015625,-0.1264648
37,-7.4375,-9.5,-0.5625,-0.9946289,-0.1616211,-0.1938477,0.3198242,-0.015625,-0.125
41,-3.125,-11.75,-2.5,-0.9750977,-0.2861328,-0.1630859,0.3198242,-0.01464844,-0.1279297
45,2.75,-10.0625,-6.3125,-0.9868164,-0.4335938,-0.1782227,0.3188477,-0.01318359,-0.1303711
49,13.3125,-7.75,-11.125,-1.013672,-0.6938477,-0.1513672,0.3188477,-0.01074219,-0.1303711
53,28.875,-9,-22.0625,-1.087402,-0.7602539,-0.1591797,0.3154297,-0.005859375,-0.1264648
57,41.875,-20.5625,-41.625,-1.15332,-0.9389648,-0.1245117,0.3115234,0.002441406,-0.1235352
61,48.1875,-35,-75.5,-1.095215,-1.055176,-0.1513672,0.3071289,0.01611328,-0.1196289
65,48.25,-34.6875,-107.5625,-0.9946289,-1.102051,-0.1938477,0.2998047,0.03271484,-0.1113281
69,48.75,-29.125,-119.9375,-0.9633789,-1.195313,-0.2055664,0.2963867,0.04638672,-0.112793
73,55.6875,-12,-110.0625,-0.9633789,-1.334961,-0.2055664,0.2890625,0.06396484,-0.1088867
77,55.875,-1.6875,-111.75,-1.037109,-1.447754,-0.1977539,0.2841797,0.07617188,-0.105957
81,57.6875,3.625,-128.3125,-1.149414,-1.614746,-0.1782227,0.2783203,0.08740234,-0.105957
85,72.125,0.3125,-156.0625,-1.343262,-1.719727,-0.1552734,0.2749023,0.09863281,-0.105957
89,93.0625,-6.4375,-178.625,-1.45166,-1.727539,-0.1474609,0.2651367,0.1137695,-0.1088867
93,123.3125,-6.3125,-182.9375,-1.544922,-1.688477,-0.128418,0.2617188,0.1235352,-0.1113281
97,150.8125,-8.125,-171.3125,-1.641602,-1.661621,-0.1474609,0.2519531,0.1347656,-0.1166992
101,170.3125,-8.8125,-164.3125,-1.563965,-1.447754,-0.1977539,0.2436523,0.1435547,-0.1264648
105,173,-7.875,-171.3125,-1.65332,-1.29248,-0.2089844,0.237793,0.1513672,-0.1333008
109,164,-23.6875,-190.125,-1.804199,-1.207031,-0.2128906,0.2285156,0.1577148,-0.144043
113,157.8125,-36.75,-219.6875,-1.70752,-0.9389648,-0.1362305,0.2163086,0.1674805,-0.1538086
117,129.8125,-43,-208.3125,-1.765625,-0.7133789,-0.1323242,0.2070313,0.1723633,-0.1630859
122,97.3125,-51.375,-200.375,-1.757813,-0.6708984,-0.06298828,0.1914063,0.1826172,-0.1728516
126,67.375,-61.5625,-198.1875,-1.723145,-0.7290039,-0.04394531,0.1748047,0.1948242,-0.1821289
130,50.5,-67.3125,-204.4375,-1.645508,-0.8300781,-0.02441406,0.1616211,0.2026367,-0.1835938
134,50.75,-64.4375,-214,-1.541016,-0.9428711,0.01367188,0.1450195,0.2099609,-0.1918945
138,55.3125,-60.875,-222.125,-1.490234,-0.9155273,0.009765625,0.1235352,0.2197266,-0.1972656
142,54.5,-57.6875,-221.5,-1.428223,-0.8686523,0.01367188,0.1103516,0.2226563,-0.199707
146,52.875,-54.9375,-217.9375,-1.416992,-0.8105469,-0.005371094,0.08691406,0.2299805,-0.2080078
150,47.875,-55.8125,-212.625,-1.315918,-0.7719727,-0.005371094,0.06884766,0.2363281,-0.2109375
154,46.3125,-56.125,-213.1875,-1.195801,-0.8066406,-0.001464844,0.05322266,0.2348633,-0.2148438
158,56.0625,-55.625,-206.625,-1.099121,-0.8339844,-0.05126953,0.03173828,0.2387695,-0.2177734
162,66.625,-54.125,-197.125,-0.8706055,-0.8647461,-0.07861328,0.01171875,0.2397461,-0.2231445
166,82.1875,-40.625,-201.5625,-0.78125,-0.8803711,-0.09375,-0.004394531,0.2363281,-0.2285156
170,105.3125,-33.25,-201.75,-0.8745117,-0.7753906,-0.109375,-0.0234375,0.2314453,-0.2338867
174,132.75,-31.375,-192.1875,-0.8164063,-0.5620117,-0.07470703,-0.04003906,0.2226563,-0.2421875
178,157.6875,-25.125,-170.625,-0.7734375,-0.3134766,-0.02441406,-0.05224609,0.2138672,-0.2514648
182,165.9375,-26.4375,-148.625,-0.7192383,0.09033203,0.005859375,-0.06494141,0.1987305,-0.2612305
186,146.1875,-31.6875,-131.125,-0.6147461,0.3779297,0.005859375,-0.07958984,0.1835938,-0.2734375
190,108,-36.8125,-121,-0.4907227,0.4321289,0.02490234,-0.08789063,0.1748047,-0.2758789
194,55.25,-38.125,-116.1875,-0.28125,0.5839844,0.09814453,-0.09716797,0.1635742,-0.2802734
198,19.875,-37.6875,-108.25,-0.215332,0.3466797,0.144043,-0.1069336,0.15625,-0.2817383
202,19.6875,-36.9375,-92.5,-0.1611328,0.15625,0.1943359,-0.112793,0.1538086,-0.2817383
206,31.125,-38.625,-76.875,-0.1420898,0.1679688,0.1982422,-0.1220703,0.1474609,-0.2817383
210,32.9375,-40.875,-65.6875,-0.05273438,0.2495117,0.1826172,-0.128418,0.1411133,-0.2827148
214,30,-42.25,-55.375,0.05126953,0.300293,0.1635742,-0.1328125,0.1386719,-0.2841797
218,27.375,-42,-41.4375,0.1289063,0.3701172,0.1210938,-0.1401367,0.1337891,-0.2841797
222,16.8125,-37.375,-26,0.2294922,0.4633789,0.06738281,-0.1435547,0.1298828,-0.2802734
226,-1.0625,-27.375,-15.375,0.3188477,0.4829102,0.04443359,-0.1474609,0.1289063,-0.2802734
230,-14.125,-18.3125,-3.4375,0.3417969,0.4516602,0.009765625,-0.1494141,0.1289063,-0.2802734
234,-21.625,-9.0625,11.4375,0.3574219,0.4321289,-0.01318359,-0.1518555,0.1313477,-0.2758789
238,-28.3125,2.125,27.625,0.3496094,0.3974609,-0.01318359,-0.1494141,0.1323242,-0.2773438
242,-33.4375,13.375,47.75,0.2875977,0.3388672,0.001953125,-0.1494141,0.1376953,-0.2758789
246,-42.25,21.375,66.0625,0.2529297,0.3193359,0.02099609,-0.1459961,0.1425781,-0.2749023
251,-57.375,29.3125,76.8125,0.1948242,0.2416992,0.02880859,-0.1391602,0.1459961,-0.2719727
255,-68,35.5,86.9375,0.09033203,0.09033203,0.07910156,-0.1318359,0.1577148,-0.2734375
259,-62.1875,35.5,101.9375,-0.04101563,-0.1035156,0.1479492,-0.1259766,0.1650391,-0.269043
263,-41.25,33.6875,120.75,-0.1264648,-0.2124023,0.1748047,-0.1186523,0.1699219,-0.2666016
267,-21.625,33.75,140.75,-0.1459961,-0.1616211,0.1865234,-0.109375,0.1748047,-0.2666016
271,-32.8125,34.75,149.3125,-0.1572266,0.04394531,0.159668,-0.09619141,0.1826172,-0.2666016
275,-76.875,38.5,144.6875,-0.2583008,0.2070313,0.1132813,-0.08789063,0.1884766,-0.2626953
279,-128.625,32.5625,135.3125,-0.4013672,0.01660156,0.1328125,-0.07324219,0.2001953,-0.2597656
283,-140.25,25.9375,140.875,-0.5175781,-0.3637695,0.1479492,-0.06298828,0.2114258,-0.2514648
287,-117.875,24.5625,154.375,-0.6030273,-0.6083984,0.159668,-0.05224609,0.2197266,-0.2421875
291,-91.875,25.625,168.25,-0.6845703,-0.7524414,0.1479492,-0.0390625,0.2299805,-0.2353516
295,-78.875,27.5,176.6875,-0.7231445,-0.5541992,0.1171875,-0.02246094,0.2338867,-0.2285156
299,-73.5625,28.5625,180.125,-0.796875,-0.5385742,0.1171875,-0.01171875,0.2397461,-0.2270508
303,-61.1875,29.0625,186.125,-0.8706055,-0.5581055,0.1098633,0.005859375,0.2426758,-0.21875
307,-47.0625,29.125,197.875,-0.9438477,-0.5151367,0.05957031,0.0234375,0.2451172,-0.2163086
311,-41.1875,33.125,207.3125,-0.9516602,-0.4726563,0.04785156,0.03564453,0.2412109,-0.2109375
315,-48.875,34.4375,215.75,-1.029297,-0.4609375,-0.009277344,0.05566406,0.2397461,-0.2094727
319,-67.25,39.3125,212.25,-1.056641,-0.503418,-0.04736328,0.07617188,0.2373047,-0.2055664
323,-80.5,43.5625,207.5,-1.168945,-0.6123047,-0.04736328,0.09033203,0.2348633,-0.1972656
327,-80.5,46.3125,205.0625,-1.273438,-0.7211914,-0.03613281,0.109375,0.2299805,-0.1928711
331,-78.25,47.75,205.25,-1.370117,-0.7250977,-0.06689453,0.1293945,0.2236328,-0.1865234
335,-79.625,51.5,209.5625,-1.432129,-0.7055664,-0.08203125,0.1425781,0.21875,-0.1782227
339,-88.5625,51.625,215.625,-1.479004,-0.7016602,-0.08984375,0.1616211,0.2114258,-0.1738281
343,-106.5,53.8125,213.75,-1.544922,-0.7407227,-0.1245117,0.1772461,0.2011719,-0.1630859
347,-125.4375,51.4375,203.3125,-1.680176,-0.8686523,-0.1435547,0.1904297,0.1962891,-0.1547852
351,-131.25,42.875,191.6875,-1.711426,-1.036133,-0.1362305,0.2055664,0.1875,-0.1469727
355,-126.3125,37.0625,183.125,-1.67627,-1.160156,-0.1206055,0.2202148,0.1772461,-0.1347656
359,-106.9375,31.8125,177.8125,-1.618164,-1.327148,-0.09375,0.2285156,0.1699219,-0.1279297
363,-64.25,30.9375,176.0625,-1.525391,-1.439941,-0.04736328,0.237793,0.1577148,-0.1210938
367,-16.25,32.1875,178.125,-1.498047,-1.269043,-0.05126953,0.2485352,0.1435547,-0.1157227
371,13,38.0625,185.625,-1.439941,-0.9736328,-0.07080078,0.2543945,0.1323242,-0.1157227
375,9.4375,47.9375,188.1875,-1.37793,-0.6435547,-0.07861328,0.2651367,0.1176758,-0.1157227
380,-27.625,60.0625,185.375,-1.393555,-0.4570313,-0.1552734,0.2734375,0.1000977,-0.1074219
384,-72.9375,62.25,166.5,-1.633789,-0.5151367,-0.1474609,0.2783203,0.08984375,-0.1035156
388,-98.5,11.9375,120.8125,-2.017578,-0.7910156,-0.1899414,0.2880859,0.07763672,-0.1005859
392,-100.75,-34.9375,98.6875,-1.715332,-0.9736328,-0.128418,0.2900391,0.06884766,-0.1005859
396,-96.75,-34.375,119.625,-1.439941,-0.9658203,-0.0859375,0.2915039,0.06005859,-0.1020508
400,-105.375,-33.25,142.875,-1.443848,-1.008789,-0.1743164,0.2973633,0.04980469,-0.1098633
404,-116,-52.0625,150.875,-1.405273,-1.164063,-0.2822266,0.2983398,0.03271484,-0.1225586
408,-122,-56.1875,145.125,-1.067871,-1.486816,-0.4248047,0.2983398,0.02148438,-0.1357422
412,-140.6875,-61.5,-13.9375,-0.8432617,-4.661133,-0.03222656,0.2973633,0.01123047,-0.1645508
416,18.375,0.5,-21.75,-1.15332,-3.095215,-0.4438477,0.2900391,0.02246094,-0.1782227
420,83.1875,-1,-9.4375,-1.017578,-1.812988,-0.3208008,0.2915039,0.02392578,-0.1713867
424,95.0625,12.3125,-20.4375,-1.029297,-1.179688,-0.3129883,0.2973633,0.01757813,-0.1591797
428,58.875,17.5625,-53.0625,-1.191895,-1.11377,-0.2324219,0.2973633,0.01513672,-0.1401367
432,52.125,6.875,-90.25,-1.35498,-1.334961,-0.1015625,0.2983398,0.02246094,-0.1333008
436,77,-6.375,-117.125,-1.432129,-1.428223,-0.0859375,0.2973633,0.03515625,-0.1225586
440,109.1875,-10,-135.6875,-1.432129,-1.319336,-0.05517578,0.2924805,0.04980469,-0.1196289
444,123.6875,-11.4375,-143.5625,-1.525391,-1.191406,-0.09375,0.2890625,0.05615234,-0.1166992
448,133.375,-14.5625,-147.875,-1.65332,-1.191406,-0.07080078,0.2832031,0.06884766,-0.1210938
452,143.875,-24.4375,-155.875,-1.734375,-1.179688,-0.05908203,0.2792969,0.07763672,-0.1225586
456,150.25,-33.0625,-168.375,-1.753906,-1.15625,-0.03613281,0.2749023,0.08496094,-0.1279297
460,152.125,-44.0625,-187.125,-1.831543,-1.062988,-0.009277344,0.2651367,0.09375,-0.1347656
464,146.875,-60.875,-201,-1.870117,-1.020508,-0.01318359,0.2568359,0.1074219,-0.1469727
468,144.8125,-67.875,-213.625,-1.785156,-0.9658203,-0.01318359,0.2509766,0.1162109,-0.1547852
472,139.8125,-68.8125,-213.4375,-1.796387,-0.8764648,-0.02441406,0.237793,0.125,-0.1660156
476,126.125,-70,-211.875,-1.765625,-0.7485352,-0.03222656,0.2260742,0.1376953,-0.175293
480,102.5,-72.875,-220.4375,-1.687988,-0.6938477,-0.05517578,0.2163086,0.1459961,-0.1865234
484,89.1875,-71.1875,-229.6875,-1.629883,-0.7792969,-0.03613281,0.199707,0.1577148,-0.1943359
488,83.4375,-66.9375,-228.625,-1.599121,-0.7988281,-0.05126953,0.1831055,0.1699219,-0.2026367
492,68.6875,-61.4375,-225.5,-1.563965,-0.7719727,-0.1015625,0.1699219,0.1738281,-0.2094727
496,44.75,-54,-240,-1.397461,-0.8920898,-0.1206055,0.1523438,0.1875,-0.2177734
500,61.875,-38.8125,-263.9375,-1.292969,-1.133301,-0.06689453,0.1318359,0.1962891,-0.2231445
504,101.3125,-27,-266.625,-1.308105,-1.11377,-0.07470703,0.1176758,0.2026367,-0.2246094
509,131.625,-15.1875,-251.4375,-1.253906,-0.9077148,-0.05517578,0.09521484,0.2060547,-0.230957
513,124.3125,-7.3125,-235.4375,-1.23877,-0.534668,-0.03222656,0.07617188,0.2075195,-0.2421875
517,78.875,-6.8125,-215.875,-1.273438,-0.3364258,0.05957031,0.06640625,0.2050781,-0.2475586
521,30.875,-18.3125,-211.25,-1.25,-0.3754883,0.1635742,0.04736328,0.2060547,-0.2514648
525,5.625,-25.25,-209.75,-1.157227,-0.6552734,0.2827148,0.03076172,0.2099609,-0.2529297
529,27.1875,-30.375,-207.625,-1.191895,-0.9350586,0.3637695,0.01904297,0.2114258,-0.2543945
533,75.8125,-40.6875,-198.25,-1.168945,-0.9038086,0.3671875,-0.0009765625,0.2099609,-0.2583008
537,114.875,-47.875,-184.1875,-1.118652,-0.6044922,0.3251953,-0.01855469,0.2050781,-0.2651367
541,133.5625,-65.3125,-168.75,-1.11084,-0.2626953,0.2133789,-0.03076172,0.1962891,-0.2705078
545,127.6875,-87.0625,-153.6875,-0.9516602,0.1601563,0.09814453,-0.04833984,0.1850586,-0.2788086
549,86.375,-103.9375,-151,-0.6845703,0.5410156,-0.04003906,-0.06640625,0.1738281,-0.2856445
553,32.8125,-109.6875,-150.5625,-0.4208984,0.7197266,-0.1054688,-0.07714844,0.1674805,-0.2856445
557,-15.125,-101.0625,-140.3125,-0.1884766,0.6577148,-0.1015625,-0.09619141,0.1611328,-0.2827148
561,-38.625,-90.3125,-123.625,-0.04492188,0.5253906,-0.1323242,-0.1103516,0.1586914,-0.2788086
565,-43.3125,-72.6875,-103.3125,0.08251953,0.4438477,-0.1206055,-0.1210938,0.1586914,-0.2758789
569,-38.5,-54.4375,-81.125,0.1518555,0.3818359,-0.128418,-0.1303711,0.1577148,-0.2705078
573,-28.75,-37.9375,-61.5625,0.1987305,0.3818359,-0.09375,-0.1401367,0.1586914,-0.2666016
577,-21.375,-28.3125,-44.25,0.1635742,0.4243164,-0.07861328,-0.1435547,0.1586914,-0.2636719
581,-20.375,-19.4375,-28.5,0.2412109,0.4711914,-0.05908203,-0.1494141,0.1577148,-0.2626953
585,-22.1875,-8.8125,-12.8125,0.2568359,0.5058594,-0.04003906,-0.1508789,0.1601563,-0.2583008
589,-23.375,-2.875,6.3125,0.2294922,0.5019531,-0.02832031,-0.1508789,0.1586914,-0.2568359
593,-20.5625,3.0625,30.75,0.2216797,0.4672852,-0.005371094,-0.1494141,0.1611328,-0.2568359
597,-15.875,8.5,52.1875,0.2138672,0.4321289,0.001953125,-0.1474609,0.1660156,-0.2543945
601,-14.5,16.25,69.1875,0.1791992,0.4204102,-0.01318359,-0.1459961,0.1689453,-0.2543945
605,-25.875,24.625,83.125,0.1132813,0.4516602,-0.01660156,-0.1391602,0.1723633,-0.2558594
609,-48,29.0625,93.875,-0.02587891,0.4399414,0.009765625,-0.1293945,0.1772461,-0.2558594
613,-66.25,27.375,104.5625,-0.1499023,0.3120117,0.05175781,-0.1245117,0.1835938,-0.2529297
617,-72.1875,25.4375,120.8125,-0.215332,0.1796875,0.07910156,-0.1176758,0.1923828,-0.2475586
621,-73.375,24.4375,136.5,-0.28125,0.1137695,0.09814453,-0.1054688,0.2026367,-0.2446289
625,-71.1875,20.1875,147.4375,-0.3862305,-0.02197266,0.1289063,-0.09863281,0.2099609,-0.2436523
629,-61,16.625,162.25,-0.4829102,-0.1967773,0.1328125,-0.08544922,0.2172852,-0.237793
633,-46.75,14.625,179.875,-0.5566406,-0.2939453,0.09423828,-0.06982422,0.2250977,-0.2338867
638,-42.8125,17.125,189.1875,-0.5756836,-0.324707,0.04052734,-0.05908203,0.2285156,-0.230957
642,-48.25,19.9375,186.375,-0.6767578,-0.3598633,0.02490234,-0.04394531,0.2338867,-0.2299805
646,-48.3125,20,183.4375,-0.7426758,-0.4140625,0.03271484,-0.02490234,0.2387695,-0.2255859
650,-50.25,26,187.875,-0.7890625,-0.3637695,0.03662109,-0.01269531,0.2412109,-0.2216797
654,-63.25,30.8125,198.8125,-0.8974609,-0.3208008,0.009765625,0.003417969,0.2426758,-0.2177734
658,-88.0625,34.3125,210.0625,-0.9750977,-0.3754883,0.001953125,0.0234375,0.2451172,-0.2133789
662,-109.8125,35.5,213.8125,-1.103027,-0.5307617,0.001953125,0.03808594,0.2451172,-0.206543
666,-116.9375,34,210.4375,-1.223145,-0.8027344,0.01708984,0.05957031,0.2475586,-0.1958008
670,-99.8125,33.8125,210,-1.289063,-0.9658203,0.05175781,0.07958984,0.2475586,-0.1865234
674,-78.3125,36.125,213.8125,-1.381836,-0.8686523,0.001953125,0.09130859,0.2451172,-0.1806641
678,-89.8125,40.5,219.5,-1.424316,-0.6552734,-0.03613281,0.1142578,0.2387695,-0.175293
682,-131.25,38,229.6875,-1.556152,-0.6938477,-0.112793,0.1333008,0.2363281,-0.1660156
686,-160.9375,27.125,227.4375,-1.680176,-1.11377,-0.1552734,0.1459961,0.2285156,-0.15625
690,-136,16.9375,206.25,-1.629883,-1.564453,-0.1474609,0.1665039,0.2226563,-0.1455078
694,-66.1875,16.875,192.3125,-1.563965,-1.665527,-0.1015625,0.1821289,0.2124023,-0.1357422
698,-2.8125,25,205.875,-1.541016,-1.338867,-0.1206055,0.1928711,0.2060547,-0.1347656
702,7.125,34.25,217.5,-1.393555,-0.9506836,-0.1513672,0.2070313,0.1899414,-0.1333008
706,-26,46.375,210.9375,-1.362793,-0.6552734,-0.2089844,0.2236328,0.1748047,-0.1318359
710,-86.875,54.8125,190.5625,-1.505859,-0.5307617,-0.2475586,0.2294922,0.1625977,-0.1279297
714,-141.6875,49.5,176.25,-1.62207,-0.7172852,-0.2592773,0.2436523,0.1499023,-0.1196289
718,-162.75,40.1875,179,-1.730469,-1.098145,-0.2900391,0.253418,0.1411133,-0.1074219
722,-141.1875,25.875,173.25,-1.734375,-1.439941,-0.2363281,0.2592773,0.1323242,-0.09912109
726,-96.625,5.0625,167,-1.680176,-1.537109,-0.1743164,0.2666016,0.1201172,-0.09228516
730,-60.6875,-8.6875,163.8125,-1.533203,-1.401367,-0.1435547,0.2758789,0.1074219,-0.09228516
734,-44.6875,-15.875,155.625,-1.467285,-1.199219,-0.1474609,0.2792969,0.1000977,-0.09082031
738,-54.625,-25.1875,150.1875,-1.479004,-1.008789,-0.2016602,0.2856445,0.08642578,-0.09521484
742,-86.75,-26,141.4375,-1.277344,-1.020508,-0.3012695,0.2900391,0.07763672,-0.09912109
746,-119.9375,-4,103.25,-1.12207,-1.11377,-0.2822266,0.2939453,0.06982422,-0.1020508
750,-161.75,-11.125,70.0625,-1.393555,-1.42041,-0.4091797,0.2949219,0.07275391,-0.1074219
754,-81.375,-28,28.1875,-1.234863,-5.049316,-0.02441406,0.2963867,0.08007813,-0.1088867
758,27.25,-42.6875,-40.75,-1.168945,-2.609375,-0.6401367,0.2963867,0.08251953,-0.112793
762,19.4375,-32.5625,-45.3125,-0.9555664,-1.614746,-0.5478516,0.2915039,0.08398438,-0.1166992
767,30.5625,-14.8125,-42.75,-0.9169922,-1.599121,-0.3666992,0.2915039,0.08105469,-0.1166992
771,42.6875,7.375,-53.4375,-1.052734,-1.599121,-0.3286133,0.2900391,0.07763672,-0.1142578
775,60.8125,9.4375,-79.5625,-1.289063,-1.731445,-0.2514648,0.2890625,0.07617188,-0.1088867
779,88.25,-0.6875,-107.875,-1.405273,-1.727539,-0.2055664,0.2866211,0.08251953,-0.1044922
783,109.25,-8.0625,-135.5,-1.416992,-1.587891,-0.1782227,0.2832031,0.08740234,-0.1035156
787,104.1875,-11,-158.25,-1.498047,-1.385742,-0.1782227,0.2773438,0.09521484,-0.105957
791,82.3125,-9.1875,-169.875,-1.661133,-1.385742,-0.1708984,0.2709961,0.1074219,-0.1088867
795,77,-9.375,-179.25,-1.738281,-1.501953,-0.1245117,0.2651367,0.1176758,-0.1113281
799,88.4375,-18.75,-195.875,-1.847168,-1.509766,-0.1323242,0.2583008,0.1289063,-0.1142578
803,89.1875,-26.75,-215.375,-1.843262,-1.374023,-0.1552734,0.2475586,0.1450195,-0.1210938
807,84.0625,-30.6875,-237.6875,-1.862305,-1.338867,-0.1708984,0.2392578,0.1547852,-0.125
811,89.375,-30.9375,-253.3125,-1.893555,-1.327148,-0.1708984,0.2246094,0.1723633,-0.1289063
815,102,-30.9375,-255.5,-1.905273,-1.214844,-0.1938477,0.2070313,0.1884766,-0.1386719
819,103.6875,-31.4375,-254.4375,-1.87793,-1.016602,-0.2363281,0.1928711,0.2001953,-0.144043
823,90.125,-29.1875,-257.6875,-1.835449,-0.8725586,-0.2055664,0.1723633,0.2124023,-0.1523438
827,78.0625,-26.25,-261.1875,-1.827637,-0.8613281,-0.1669922,0.1533203,0.2250977,-0.1591797
831,78.875,-27.4375,-260,-1.788574,-0.8686523,-0.1206055,0.1401367,0.2324219,-0.1616211
835,83.75,-29.25,-258.125,-1.680176,-0.7641602,-0.07861328,0.1166992,0.2426758,-0.1713867
839,77.9375,-28.625,-255.4375,-1.591309,-0.6513672,-0.09765625,0.09033203,0.25,-0.175293
843,69.625,-27.25,-250.6875,-1.529297,-0.6083984,-0.07470703,0.07470703,0.2509766,-0.1796875
847,72.25,-28.8125,-243.875,-1.447754,-0.6357422,-0.02832031,0.05224609,0.2563477,-0.1821289
851,94,-31.1875,-239.25,-1.37793,-0.5966797,-0.001464844,0.02832031,0.2563477,-0.1918945
855,115.4375,-34.8125,-232.9375,-1.304199,-0.4257813,-0.005371094,0.01171875,0.2563477,-0.1987305
859,124.625,-39.9375,-224.8125,-1.20752,-0.1811523,-0.01660156,-0.009277344,0.2509766,-0.2080078
863,118.375,-45.1875,-209.3125,-1.125977,-0.06054688,-0.03613281,-0.03076172,0.2436523,-0.2163086
867,102.0625,-52.125,-194.1875,-0.9326172,0.2495117,0.001953125,-0.04589844,0.2363281,-0.2216797
871,78.75,-57.6875,-173.75,-0.7114258,0.1176758,0.05957031,-0.06396484,0.2299805,-0.230957
875,64.125,-60.375,-153.3125,-0.5605469,0.2885742,0.02490234,-0.08203125,0.2211914,-0.2368164
879,56.1875,-57.625,-134.5625,-0.4013672,0.2651367,0.04052734,-0.09228516,0.2148438,-0.237793
883,50.75,-52.125,-119.125,-0.2661133,0.315918,-0.009277344,-0.1054688,0.2075195,-0.2392578
887,41.5,-44.625,-105.6875,-0.1342773,0.3974609,-0.009277344,-0.1186523,0.2026367,-0.2407227
891,29.375,-38.375,-92.875,-0.05664063,0.4321289,0.009765625,-0.1235352,0.1972656,-0.2392578
896,17.875,-33.8125,-75.875,-0.02197266,0.4282227,0.03271484,-0.1342773,0.1899414,-0.2421875
900,6.0625,-32.5625,-56.9375,0.07861328,0.4165039,0.04785156,-0.1411133,0.1860352,-0.2407227
904,-2.375,-30.125,-40.25,0.1674805,0.3896484,0.04443359,-0.1459961,0.1850586,-0.2392578
908,-8.625,-26.4375,-25.9375,0.2138672,0.3388672,0.04785156,-0.1494141,0.1850586,-0.237793
912,-12.1875,-18.25,-15.125,0.2607422,0.2924805,0.05566406,-0.1518555,0.1835938,-0.2368164
916,-14.4375,-6.375,-5.3125,0.2724609,0.2924805,0.06738281,-0.1542969,0.1850586,-0.2368164
920,-20.0625,1.1875,10.9375,0.1948242,0.300293,0.05957031,-0.1542969,0.1835938,-0.2338867
924,-25.6875,1.9375,29.5,0.1987305,0.2416992,0.07128906,-0.1518555,0.1884766,-0.2324219
928,-24.9375,5.25,43.75,0.2294922,0.1484375,0.05175781,-0.1508789,0.1914063,-0.230957
932,-24.375,9.4375,57.25,0.2104492,0.1523438,0.02880859,-0.1484375,0.1938477,-0.2299805
936,-38.9375,13,65.5,0.206543,0.1992188,0.01367188,-0.1425781,0.1987305,-0.2285156
940,-61.5625,21.1875,72.6875,0.1713867,0.1333008,0.02099609,-0.1391602,0.2026367,-0.2255859
944,-78.625,29.0625,84.8125,0.08251953,-0.01025391,0.03662109,-0.1318359,0.2099609,-0.2246094
948,-82.5,30.875,97.5,-0.01416016,-0.1616211,0.08251953,-0.1235352,0.21875,-0.21875
952,-82.0625,29.25,106.25,-0.1069336,-0.2353516,0.09423828,-0.1152344,0.2236328,-0.2148438
956,-81.375,26.3125,112.3125,-0.1767578,-0.3017578,0.1020508,-0.1054688,0.2324219,-0.2094727
960,-77.125,25,115.5,-0.2192383,-0.3911133,0.105957,-0.09472656,0.2426758,-0.2041016
964,-67,26.6875,120.25,-0.3007813,-0.46875,0.1132813,-0.08789063,0.2451172,-0.199707
968,-52.9375,25.6875,132.9375,-0.3085938,-0.371582,0.1210938,-0.07470703,0.2524414,-0.1958008
972,-37.0625,24.625,140.0625,-0.4091797,-0.5112305,0.1171875,-0.05908203,0.2548828,-0.1918945
976,-31.75,21.1875,147.0625,-0.4868164,-0.453125,0.05566406,-0.05078125,0.2587891,-0.1918945
980,-33.75,23.0625,153.25,-0.5332031,-0.4492188,0.05957031,-0.03515625,0.2612305,-0.1875
984,-36,23.3125,159.8125,-0.6264648,-0.4609375,0.04443359,-0.02099609,0.262207,-0.1850586
988,-45.8125,23,165.875,-0.6923828,-0.453125,0.009765625,-0.009277344,0.2661133,-0.1835938
992,-62.1875,26.3125,172,-0.715332,-0.4921875,0.005859375,0.005859375,0.2661133,-0.1782227
996,-74.8125,29,169.3125,-0.862793,-0.6201172,0.01367188,0.02490234,0.2675781,-0.1738281
1000,-69.1875,21.5625,168.625,-1.017578,-0.7407227,0.05957031,0.03564453,0.2685547,-0.1699219
1004,-55.3125,13.4375,177.3125,-1.099121,-0.7949219,0.06738281,0.0546875,0.2675781,-0.1645508
1008,-40.6875,9.625,187.8125,-1.149414,-0.7949219,0.07910156,0.07128906,0.2651367,-0.1606445
1012,-35.875,4.8125,194.375,-1.234863,-0.7602539,0.04785156,0.08203125,0.2612305,-0.1591797
1016,-49,3.875,194.8125,-1.234863,-0.7250977,0.04785156,0.09863281,0.2548828,-0.1577148
1020,-64.0625,1.8125,181.625,-1.261719,-0.8183594,0.05957031,0.1166992,0.25,-0.1523438
1025,-65.25,0.25,174.3125,-1.312012,-0.8920898,0.07519531,0.1293945,0.2451172,-0.1484375
1029,-56.1875,-0.5625,173.75,-1.439941,-0.8920898,0.05957031,0.1416016,0.2387695,-0.1455078
1033,-53.0625,-2.625,183.5,-1.486328,-0.7988281,-0.001464844,0.1557617,0.2314453,-0.1416016
1037,-58.375,0.625,191.0625,-1.459473,-0.7563477,-0.05517578,0.1665039,0.2250977,-0.137207
1041,-69.3125,3.625,194.6875,-1.505859,-0.7680664,-0.1206055,0.1821289,0.2124023,-0.1347656
1045,-78.75,5.6875,190.875,-1.48291,-0.8417969,-0.109375,0.1948242,0.2026367,-0.1303711
1049,-78.6875,3.6875,185.375,-1.571777,-0.8999023,-0.1015625,0.2021484,0.1962891,-0.125
1053,-73.9375,-2.8125,183.8125,-1.567871,-0.9506836,-0.1166992,0.2163086,0.1826172,-0.1210938
1057,-69.3125,-6.625,184.6875,-1.475098,-0.9892578,-0.1591797,0.2270508,0.1713867,-0.1210938
1061,-63.75,-0.5,180.9375,-1.358887,-1.004883,-0.2089844,0.2319336,0.1625977,-0.1157227
1065,-60.5,8,172.0625,-1.366211,-0.9233398,-0.2246094,0.2426758,0.1513672,-0.1142578
1069,-68.4375,11.875,177.625,-1.436035,-0.8881836,-0.2285156,0.253418,0.1386719,-0.1113281
1073,-80.3125,9,180.3125,-1.463379,-1.032227,-0.2246094,0.2592773,0.125,-0.1098633
1077,-82.1875,-7.6875,173.5,-1.509766,-1.26123,-0.2631836,0.2666016,0.1137695,-0.1088867
1081,-65.4375,-24.0625,155.9375,-1.374023,-1.393555,-0.2670898,0.2724609,0.1000977,-0.1113281
1085,-69.75,-18.875,117.5,-1.203613,-1.276855,-0.3398438,0.2758789,0.09130859,-0.112793
1089,-133.9375,-25.4375,69.375,-1.273438,-1.160156,-0.5170898,0.2773438,0.08886719,-0.1279297
1093,-214.6875,-50.3125,38.0625,-1.203613,-1.972168,-0.6513672,0.2749023,0.1000977,-0.1386719
1097,-28.25,-44.75,-15.5,-1.11084,-4.587402,-0.4282227,0.2709961,0.1123047,-0.1455078
1101,-7.3125,-45.0625,-75.5625,-0.9287109,-2.287109,-0.7861328,0.2666016,0.1201172,-0.1484375
1105,-25.375,-36.25,-124.75,-0.6494141,-1.743164,-0.6977539,0.2626953,0.1201172,-0.1425781
1109,-10.3125,6.375,-116.8125,-0.7387695,-2.205566,-0.4555664,0.2617188,0.1201172,-0.1357422
1113,61.3125,30.625,-99.375,-1.029297,-2.244141,-0.4248047,0.2617188,0.1210938,-0.1196289
1117,109.25,44.3125,-115.375,-1.095215,-1.999512,-0.4091797,0.2602539,0.1274414,-0.112793
1121,132.4375,51.125,-145.5,-1.32373,-1.824707,-0.3554688,0.2568359,0.1323242,-0.1088867
1125,139.9375,42.5625,-171.75,-1.467285,-1.622559,-0.3051758,0.2509766,0.1401367,-0.1088867
1129,123.3125,35.4375,-192.5,-1.537109,-1.479004,-0.2900391,0.2426758,0.1513672,-0.1098633
1133,107.6875,33.125,-206.1875,-1.610352,-1.471191,-0.2475586,0.2368164,0.1601563,-0.1098633
1137,97.1875,31.9375,-213.1875,-1.691895,-1.385742,-0.1899414,0.2270508,0.1738281,-0.1142578
1141,77.875,24.625,-216.0625,-1.757813,-1.312012,-0.2089844,0.2128906,0.1860352,-0.1181641
1145,61.6875,20.4375,-224.5,-1.785156,-1.408691,-0.1669922,0.2045898,0.1948242,-0.1181641
1149,75.4375,13.375,-236.625,-1.874023,-1.595215,-0.1206055,0.1904297,0.2084961,-0.1235352
1154,105.0625,6.1875,-242.5625,-1.839355,-1.505859,-0.1245117,0.1723633,0.2236328,-0.1264648
1158,113.8125,5,-250.4375,-1.757813,-1.164063,-0.1401367,0.1591797,0.2314453,-0.1318359
1162,87,1.625,-247.8125,-1.769531,-0.9619141,-0.1708984,0.1376953,0.2412109,-0.1401367
1166,62.0625,-1.5625,-245.6875,-1.746094,-1.109863,-0.0859375,0.1176758,0.2524414,-0.1425781
1170,50.375,-19.1875,-234.5,-1.765625,-1.312012,-0.09765625,0.1044922,0.2587891,-0.1469727
1174,47.4375,-32.5625,-236.5,-1.529297,-1.556641,-0.09765625,0.08203125,0.2651367,-0.1494141
1178,64.6875,-23.6875,-252.875,-1.471191,-1.704102,-0.1166992,0.05810547,0.2700195,-0.15625
1182,98,-3.8125,-275.125,-1.575684,-1.618652,-0.109375,0.04052734,0.2739258,-0.1591797
1186,134.625,10.75,-290.5,-1.719238,-1.342773,-0.04003906,0.01269531,0.2724609,-0.168457
1190,166.125,11.6875,-280.6875,-1.812012,-0.9428711,0.009765625,-0.01269531,0.2675781,-0.1796875
1194,168,2.9375,-256.625,-1.687988,-0.4609375,0.01708984,-0.03173828,0.262207,-0.1889648
1198,150.8125,-6.6875,-237.875,-1.509766,-0.1347656,0.04785156,-0.05224609,0.25,-0.2041016
1202,132.875,-13,-222.1875,-1.32373,0.01269531,0.08251953,-0.07324219,0.2387695,-0.2163086
1206,127.3125,-16.9375,-198.6875,-1.149414,0.1137695,0.07128906,-0.08544922,0.2285156,-0.2231445
1210,128.5,-16.5,-164.75,-0.9208984,0.2963867,0.001953125,-0.1020508,0.2163086,-0.2299805
1214,121.6875,-11.5,-129.6875,-0.6923828,0.5019531,-0.09765625,-0.1137695,0.2036133,-0.2421875
1218,86.3125,-4.875,-101.1875,-0.4365234,0.8598633,-0.1743164,-0.1210938,0.1938477,-0.2446289
1222,36.0625,-2.625,-84.1875,-0.3823242,0.9916992,-0.1860352,-0.1293945,0.1826172,-0.2490234
1226,-10.9375,-20.1875,-80.625,-0.3164063,0.90625,-0.128418,-0.1352539,0.1811523,-0.2514648
1230,-32.375,-30.9375,-73.375,-0.1342773,0.7158203,-0.04736328,-0.1411133,0.1801758,-0.2475586
1234,-30.5625,-30.375,-60.625,0.05126953,0.5449219,-0.005371094,-0.1459961,0.1772461,-0.2460938
1238,-18.0625,-23.6875,-44.0625,0.175293,0.5019531,0.01367188,-0.1518555,0.1762695,-0.2421875
1242,-2.8125,-15.75,-25.125,0.2529297,0.4985352,0.02490234,-0.1567383,0.1772461,-0.2407227
1246,8.75,-10.0625,-9.0625,0.2875977,0.5410156,-0.001464844,-0.1582031,0.1723633,-0.2407227
1250,12.1875,-5.0625,1.0625,0.3149414,0.6030273,-0.001464844,-0.1582031,0.1738281,-0.2421875
1254,5.75,-7.9375,8.8125,0.2954102,0.6420898,-0.02441406,-0.1582031,0.1748047,-0.2436523
1258,-1.4375,-8.125,23.9375,0.3496094,0.6069336,-0.01660156,-0.1582031,0.1738281,-0.2436523
1262,-10.125,-1.6875,46.375,0.3613281,0.5952148,-0.05517578,-0.1567383,0.1762695,-0.2407227
1266,-24.5625,8.5,68.625,0.3535156,0.5644531,-0.05126953,-0.1557617,0.1787109,-0.2407227
1270,-44.6875,15.375,81.1875,0.2836914,0.4985352,-0.04394531,-0.1494141,0.1850586,-0.2407227
1274,-64.1875,20.5,87.125,0.1791992,0.3857422,-0.02441406,-0.1411133,0.1948242,-0.237793
1278,-82.3125,21.9375,93.75,0.04736328,0.2456055,-0.005371094,-0.1367188,0.1972656,-0.2338867
1283,-89.875,24.5625,105.0625,-0.04101563,0.05517578,0.04052734,-0.128418,0.2050781,-0.2299805
1287,-82.5625,26.8125,119.4375,-0.1533203,-0.09570313,0.07519531,-0.1186523,0.2172852,-0.2231445
1291,-70.0625,26.5,135.875,-0.2426758,-0.1499023,0.08251953,-0.109375,0.2250977,-0.21875
1295,-61.3125,25.9375,146.0625,-0.3164063,-0.1850586,0.09814453,-0.09716797,0.2348633,-0.2163086
1299,-55.5,21.4375,151.5625,-0.4555664,-0.2314453,0.07910156,-0.08398438,0.2387695,-0.2094727
1303,-53.1875,13.625,157.5,-0.5371094,-0.2744141,0.02490234,-0.07470703,0.2451172,-0.2080078
1307,-52.8125,13.9375,162.75,-0.5722656,-0.2978516,0.02880859,-0.05908203,0.2475586,-0.2055664
1311,-49.375,18.125,170.3125,-0.6342773,-0.3095703,0.02880859,-0.04492188,0.2539063,-0.1972656
1315,-49.875,22.5625,184.875,-0.7270508,-0.2861328,-0.005371094,-0.03417969,0.2573242,-0.1987305
1319,-62.8125,22.6875,198.8125,-0.847168,-0.3017578,-0.05517578,-0.01269531,0.2612305,-0.1928711
1323,-81.6875,24.875,206.375,-0.9477539,-0.4804688,-0.07470703,0.006835938,0.262207,-0.1850586
1327,-84.9375,26.25,203.625,-1.060547,-0.6591797,-0.05126953,0.01904297,0.2651367,-0.1821289
1331,-71.4375,23.4375,200.5,-1.168945,-0.7485352,-0.05126953,0.04052734,0.2661133,-0.1728516
1335,-67.3125,24.375,197.75,-1.195801,-0.6123047,-0.05517578,0.05957031,0.2636719,-0.1699219
1339,-78.6875,28.875,198.625,-1.292969,-0.5151367,-0.06298828,0.07128906,0.2597656,-0.1645508
1343,-96.8125,23.625,203.375,-1.459473,-0.4882813,-0.112793,0.09130859,0.2587891,-0.1606445
1347,-118.875,16,209.6875,-1.521484,-0.5854492,-0.1552734,0.109375,0.2509766,-0.1484375
1351,-131.5,9.4375,208.8125,-1.637695,-0.7446289,-0.2089844,0.1235352,0.25,-0.1416016
1355,-138.25,3.875,206.375,-1.618164,-0.8842773,-0.2363281,0.1425781,0.2436523,-0.1318359
1359,-128.625,7.25,203.0625,-1.629883,-0.9892578,-0.2363281,0.1606445,0.2363281,-0.1210938
1363,-109.625,8.3125,210.625,-1.723145,-1.02832,-0.2514648,0.1699219,0.2314453,-0.1157227
1367,-95.0625,9.9375,227.625,-1.746094,-1.055176,-0.2939453,0.1889648,0.2172852,-0.1074219
1371,-81.5,11,232.4375,-1.757813,-1.1875,-0.309082,0.2045898,0.2036133,-0.1005859
1375,-51.5625,10.0625,220.6875,-1.711426,-1.276855,-0.2900391,0.215332,0.1923828,-0.09765625
1379,-17.8125,14.1875,209.8125,-1.67627,-1.144531,-0.2783203,0.230957,0.1787109,-0.09521484
1383,-0.9375,22,213.875,-1.672363,-0.9389648,-0.2670898,0.2436523,0.1586914,-0.09228516
1387,-21.5,24.5,224.125,-1.719238,-0.8144531,-0.3286133,0.2509766,0.1489258,-0.09375
1391,-52.4375,26.3125,223.8125,-1.606445,-0.9697266,-0.3208008,0.2617188,0.1298828,-0.09228516
1395,-63.375,34.375,215.3125,-1.680176,-1.207031,-0.3012695,0.2749023,0.1098633,-0.08691406
1399,-59.5625,27.25,206.1875,-1.746094,-1.331055,-0.2705078,0.2807617,0.1000977,-0.08544922
1403,-59.875,24.25,198.3125,-1.665039,-1.354492,-0.2207031,0.2900391,0.08251953,-0.08447266
1407,-92,17,190.375,-1.785156,-1.405273,-0.309082,0.2949219,0.06494141,-0.08691406
1412,-159.6875,-5.375,171.625,-1.804199,-1.80127,-0.5131836,0.2998047,0.05761719,-0.08837891
1416,-189.1875,-31.125,97,-1.70752,-2.516113,-0.628418,0.3056641,0.05126953,-0.09082031
1420,-136.9375,-60,5.875,-1.428223,-3.347656,-0.628418,0.3046875,0.05615234,-0.09375
1424,-22.3125,-54.25,-55.9375,-1.157227,-3.118652,-0.5786133,0.3032227,0.06005859,-0.09375
1428,45.8125,-31.375,-63.1875,-1.191895,-2.865723,-0.7167969,0.2983398,0.06103516,-0.09375
1432,109.625,-7.5,-89.4375,-1.273438,-2.46582,-0.6323242,0.2973633,0.06103516,-0.09228516
1436,159.5625,2.4375,-114.9375,-1.486328,-2.06543,-0.5322266,0.2973633,0.06005859,-0.08837891
1440,184.5,1.4375,-133.4375,-1.723145,-1.64209,-0.4399414,0.2939453,0.06640625,-0.09228516
1444,179.25,-8.0625,-148.8125,-1.827637,-1.34668,-0.3862305,0.2890625,0.07275391,-0.09521484
1448,156.8125,-12,-176.0625,-1.889648,-1.199219,-0.324707,0.2866211,0.08007813,-0.09912109
1452,133.3125,-15.1875,-212.625,-1.943848,-1.094238,-0.2631836,0.2792969,0.09521484,-0.1035156
1456,121.75,-20.25,-237.75,-2.021484,-1.070801,-0.1938477,0.269043,0.1113281,-0.1074219
1460,123.0625,-29.1875,-251.6875,-2.09082,-1.036133,-0.1938477,0.2626953,0.1210938,-0.1142578
1464,131.875,-36.4375,-254.4375,-2.087402,-0.9970703,-0.1899414,0.2485352,0.1411133,-0.1210938
1468,141.6875,-38,-251.125,-2.060059,-0.9116211,-0.2055664,0.2353516,0.1601563,-0.1333008
1472,142.8125,-40,-254.9375,-2.032715,-0.7485352,-0.2089844,0.2246094,0.1689453,-0.1401367
1476,129.375,-42.8125,-264.25,-1.982422,-0.5966797,-0.1899414,0.2080078,0.1826172,-0.1494141
1480,113.6875,-46.1875,-271.5,-1.95166,-0.5541992,-0.1474609,0.1879883,0.1987305,-0.1606445
1484,109.25,-50.9375,-276.8125,-1.858398,-0.5854492,-0.07861328,0.1748047,0.2050781,-0.1660156
1488,114.9375,-53.875,-271.8125,-1.753906,-0.5541992,-0.05908203,0.1499023,0.2172852,-0.1782227
1492,116.4375,-51.9375,-255.5625,-1.668457,-0.4804688,-0.05126953,0.1259766,0.2260742,-0.1875
1496,110.5625,-52.125,-238,-1.587402,-0.4101563,-0.02441406,0.1103516,0.2314453,-0.1943359
1500,112.5,-52.4375,-232.75,-1.475098,-0.4067383,0.005859375,0.08886719,0.2338867,-0.2026367
1504,119.8125,-55.5625,-232.5625,-1.389648,-0.3950195,0.009765625,0.06640625,0.2348633,-0.2148438
1508,131.1875,-60.8125,-228.4375,-1.277344,-0.3950195,0.04052734,0.05224609,0.2338867,-0.2216797
1512,139.4375,-64.8125,-218.375,-1.087402,-0.4335938,0.03662109,0.02587891,0.2299805,-0.2324219
1516,153.3125,-63.1875,-211.6875,-0.9672852,-0.4296875,0.03662109,0.004394531,0.2226563,-0.2436523
1520,164.375,-65.6875,-203.625,-0.8432617,-0.2978516,0.001953125,-0.006835938,0.2138672,-0.25
1524,169.5625,-66.9375,-198.3125,-0.796875,-0.1152344,-0.005371094,-0.02929688,0.2036133,-0.2651367
1528,157.6875,-64.8125,-182.25,-0.7504883,0.07470703,0.005859375,-0.04736328,0.1899414,-0.2734375
1532,134.1875,-66.4375,-163.6875,-0.6572266,0.2148438,0.05957031,-0.05810547,0.1772461,-0.2817383
1536,106.5,-70.875,-143.375,-0.4946289,0.2729492,0.08251953,-0.07324219,0.1635742,-0.2871094
1541,77,-71.3125,-121.75,-0.3393555,0.3896484,0.06347656,-0.08886719,0.1513672,-0.2924805
1545,43.25,-66.125,-105.75,-0.2080078,0.3623047,0.05957031,-0.09716797,0.1459961,-0.2924805
1549,12.6875,-61.125,-92.125,-0.1650391,0.3388672,0.05175781,-0.1079102,0.1425781,-0.2924805
1553,-8.375,-66.3125,-80.875,-0.1303711,0.2573242,0.03271484,-0.1201172,0.1386719,-0.2871094
1557,-16.4375,-75.4375,-69.0625,-0.03710938,0.1601563,0.005859375,-0.1259766,0.1362305,-0.2871094
1561,-11.375,-80.4375,-58.625,0.07470703,0.1137695,-0.02050781,-0.1352539,0.1347656,-0.2841797
1565,-10.1875,-74.4375,-50.25,0.2294922,0.171875,-0.06298828,-0.1425781,0.1337891,-0.2788086
1569,-13.75,-60.6875,-44.125,0.3227539,0.253418,-0.09375,-0.1518555,0.1337891,-0.2773438
1573,-23.8125,-48.8125,-34.4375,0.3847656,0.3041992,-0.1323242,-0.1567383,0.1323242,-0.2734375
1577,-34.0625,-34.75,-19.25,0.4467773,0.3193359,-0.1362305,-0.1640625,0.1313477,-0.2705078
1581,-44.5,-19.3125,-3.6875,0.4506836,0.315918,-0.1552734,-0.1640625,0.1347656,-0.269043
1585,-51.625,-4.1875,12.9375,0.4428711,0.2456055,-0.1206055,-0.1650391,0.1401367,-0.2636719
1589,-48.0625,10.625,31.3125,0.3808594,0.171875,-0.06689453,-0.1650391,0.1450195,-0.2612305
1593,-41.875,21.75,51.8125,0.2758789,0.1640625,-0.02832031,-0.1616211,0.1459961,-0.2612305
1597,-45.125,27.875,69.25,0.2412109,0.1953125,-0.01660156,-0.1557617,0.1523438,-0.2597656
1601,-58.0625,34.875,83.375,0.1791992,0.1796875,0.02880859,-0.1494141,0.1611328,-0.2583008
1605,-74.4375,40.8125,95.0625,0.05126953,0.1137695,0.07910156,-0.1450195,0.1674805,-0.2568359
1609,-87.375,36.4375,104.1875,-0.04882813,0.02441406,0.09423828,-0.1352539,0.1772461,-0.2529297
1613,-94.8125,34,113.1875,-0.06054688,-0.08398438,0.1367188,-0.1245117,0.1884766,-0.2490234
1617,-99.5,32.5625,117.1875,-0.1264648,-0.1538086,0.1674805,-0.1162109,0.1948242,-0.2446289
1621,-106.3125,25.125,121.0625,-0.230957,-0.2470703,0.1518555,-0.1079102,0.2084961,-0.237793
1625,-107.625,18.5,128.25,-0.2700195,-0.4140625,0.1635742,-0.09716797,0.21875,-0.2324219
1629,-92.6875,24,133.125,-0.2661133,-0.550293,0.1787109,-0.09033203,0.2250977,-0.2246094
1633,-68.375,31.6875,136.0625,-0.3588867,-0.581543,0.1787109,-0.07714844,0.2348633,-0.21875
1637,-47.375,32.9375,143.375,-0.4711914,-0.5,0.2060547,-0.06298828,0.2397461,-0.2177734
1641,-36.5625,27.3125,154.75,-0.5449219,-0.4648438,0.2021484,-0.05419922,0.2426758,-0.2148438
1645,-32.9375,26.25,164.6875,-0.5488281,-0.4375,0.1787109,-0.0390625,0.2475586,-0.2119141
1649,-38.3125,27.9375,169.5625,-0.6225586,-0.3833008,0.1210938,-0.02246094,0.2485352,-0.2109375
1653,-47.5625,28.0625,170,-0.7192383,-0.3989258,0.125,-0.0078125,0.2509766,-0.2094727
1657,-51.9375,23.9375,170.5625,-0.8354492,-0.4140625,0.09423828,0.005859375,0.2524414,-0.2041016
1661,-56.4375,22.0625,178.8125,-0.9365234,-0.4296875,0.07910156,0.02246094,0.2524414,-0.199707
1665,-61.75,24.3125,193.3125,-1.029297,-0.453125,0.05566406,0.03417969,0.2539063,-0.1958008
1670,-74.6875,29.875,205.9375,-1.087402,-0.4492188,0.009765625,0.05322266,0.2524414,-0.1904297
1674,-98.25,36.6875,213.875,-1.168945,-0.503418,-0.05126953,0.07373047,0.25,-0.1821289
1678,-112.0625,38.8125,212.875,-1.312012,-0.6435547,-0.04736328,0.08691406,0.2485352,-0.1767578
1682,-104.5625,30.375,203.9375,-1.443848,-0.7910156,-0.04003906,0.105957,0.2451172,-0.1674805
1686,-78.75,22.625,201.625,-1.471191,-0.8378906,-0.01660156,0.1259766,0.2397461,-0.1616211
1690,-58.4375,27.0625,214.375,-1.475098,-0.8183594,-0.06298828,0.1376953,0.2363281,-0.1591797
1694,-50.9375,40.8125,228,-1.471191,-0.7949219,-0.07470703,0.1567383,0.2250977,-0.1523438
1698,-38.125,49.9375,227.0625,-1.552246,-0.8144531,-0.08984375,0.1757813,0.2124023,-0.1494141
1702,-25.125,53.5,221.4375,-1.625977,-0.7563477,-0.07080078,0.1889648,0.2026367,-0.144043
1706,-22.125,50.5625,219.875,-1.719238,-0.7641602,-0.07080078,0.203125,0.1875,-0.1416016
1710,-29.25,52.6875,217.25,-1.715332,-0.8105469,-0.01660156,0.2202148,0.1723633,-0.1357422
1714,-41.1875,58.5625,204.375,-1.672363,-0.9272461,-0.02050781,0.2285156,0.1601563,-0.1318359
1718,-30.375,60.5,190.75,-1.715332,-1.059082,0.02490234,0.2451172,0.1459961,-0.1264648
1722,-2.6875,57.0625,189.0625,-1.70752,-1.125488,0.04443359,0.253418,0.1298828,-0.1235352
1726,27.6875,57.0625,192.625,-1.614258,-1.125488,0.05957031,0.2617188,0.1186523,-0.1210938
1730,49.6875,61.375,189.8125,-1.521484,-1.070801,0.06347656,0.2724609,0.1010742,-0.1166992
1734,42.5625,64.5625,181.1875,-1.486328,-0.9155273,0.02880859,0.2807617,0.08251953,-0.1142578
1738,-1.8125,66.625,165.875,-1.486328,-0.8183594,-0.005371094,0.2866211,0.07128906,-0.112793
1742,-71.1875,62.6875,144.75,-1.587402,-0.9038086,-0.02832031,0.2915039,0.05615234,-0.1113281
1746,-145.4375,44.1875,126.9375,-1.727051,-1.253418,0.02099609,0.2973633,0.04638672,-0.105957
1750,-208.3125,14.625,106.75,-1.684082,-1.875,-0.02050781,0.3007813,0.04248047,-0.105957
1754,-231.5,-8.5625,66.375,-1.552246,-2.578613,-0.1166992,0.3032227,0.04003906,-0.1074219
1758,-194.875,-35.1875,12,-1.343262,-3.351563,-0.2436523,0.3046875,0.04394531,-0.1088867
1762,-98.375,-47.5625,-60.625,-1.184082,-3.363281,-0.3012695,0.3046875,0.04882813,-0.1113281
1766,27.875,-36.125,-101.6875,-1.060547,-3.141602,-0.2055664,0.3007813,0.05371094,-0.1088867
1770,145.8125,-20.4375,-119.3125,-1.319824,-2.531738,-0.2436523,0.2963867,0.05615234,-0.105957
1774,219.5625,-24.375,-113.4375,-1.544922,-1.894531,-0.2670898,0.2924805,0.06005859,-0.105957
1778,235.75,-36.625,-112,-1.610352,-1.323242,-0.2978516,0.2890625,0.06396484,-0.1098633
1782,185.3125,-47.4375,-132.6875,-1.583496,-0.8764648,-0.2670898,0.2856445,0.06982422,-0.1166992
1786,114.75,-51.5,-172.75,-1.595215,-0.8613281,-0.1362305,0.2792969,0.07519531,-0.1225586
1790,75.4375,-55.3125,-209.25,-1.695801,-1.062988,-0.005371094,0.2709961,0.08984375,-0.1303711
1794,71.5,-64.9375,-223.1875,-1.835449,-1.241699,0.02880859,0.2602539,0.1064453,-0.137207
1799,83.625,-70.0625,-222.6875,-1.819824,-1.245605,0.009765625,0.2543945,0.1176758,-0.1416016
1803,92.625,-69.0625,-221.75,-1.796387,-1.179688,-0.06689453,0.2402344,0.1323242,-0.1523438
1807,94.5625,-65.8125,-232.125,-1.769531,-1.094238,-0.09765625,0.2270508,0.1474609,-0.1606445
1811,93,-63.5625,-248.9375,-1.78125,-0.9580078,-0.09375,0.2163086,0.15625,-0.1674805
1815,81.5,-60.9375,-257.125,-1.769531,-0.8999023,-0.06689453,0.199707,0.1713867,-0.175293
1819,75.125,-59,-263.375,-1.785156,-0.8725586,-0.03613281,0.1796875,0.1850586,-0.1850586
1823,78.5625,-55.0625,-266.0625,-1.785156,-0.8535156,-0.005371094,0.1665039,0.1948242,-0.1889648
1827,88.5625,-50,-262,-1.757813,-0.7485352,0.02490234,0.1425781,0.2075195,-0.1943359
1831,95.75,-42.375,-254.9375,-1.691895,-0.6044922,0.05957031,0.1235352,0.2148438,-0.2041016
1835,92.0625,-40.0625,-253.875,-1.672363,-0.4101563,0.07519531,0.1069336,0.21875,-0.2080078
1839,68.8125,-48.5625,-243.3125,-1.657227,-0.3017578,0.1132813,0.08447266,0.2250977,-0.2177734
1843,49.75,-65.4375,-229.0625,-1.556152,-0.3442383,0.1865234,0.06054688,0.2275391,-0.2216797
1847,43.3125,-84.0625,-226,-1.351074,-0.4296875,0.1557617,0.04638672,0.2285156,-0.2246094
1851,41,-91.25,-224.5,-1.103027,-0.46875,0.1518555,0.02246094,0.2314453,-0.2285156
1855,39.8125,-92.9375,-218.625,-0.9829102,-0.5073242,0.1132813,-0.001953125,0.2324219,-0.230957
1859,46.0625,-91.4375,-212.25,-0.8432617,-0.5541992,0.1020508,-0.01757813,0.2314453,-0.2353516
1863,67.125,-89.5,-207.9375,-0.7426758,-0.534668,0.05957031,-0.04248047,0.2250977,-0.237793
1867,90.375,-90.9375,-201.0625,-0.6494141,-0.3676758,-0.005371094,-0.06298828,0.21875,-0.2407227
1871,102.5,-88.875,-189.0625,-0.4946289,-0.1733398,-0.05517578,-0.078125,0.2124023,-0.2421875
1875,101.75,-80.1875,-172.4375,-0.4052734,0.04736328,-0.08203125,-0.09863281,0.2001953,-0.2490234
1879,82.375,-70.5,-151.75,-0.28125,0.2148438,-0.112793,-0.1152344,0.1875,-0.2514648
1883,62.125,-59.875,-138.4375,-0.1923828,0.171875,-0.08203125,-0.1245117,0.1811523,-0.2543945
1887,47.0625,-52.625,-126.125,-0.08789063,0.315918,-0.09765625,-0.1367188,0.1713867,-0.2568359
1891,38.0625,-47.375,-109.125,-0.002441406,0.3974609,-0.1166992,-0.1484375,0.1650391,-0.2568359
1895,31.25,-39.5,-84.75,0.1015625,0.4829102,-0.112793,-0.1557617,0.1586914,-0.2568359
1899,18.8125,-27.375,-55.4375,0.159668,0.5913086,-0.09375,-0.1640625,0.1513672,-0.2558594
1903,-3.375,-13.9375,-23.25,0.1987305,0.6069336,-0.0859375,-0.1674805,0.1499023,-0.2583008
1907,-23.8125,3.25,5.0625,0.2138672,0.5292969,-0.02050781,-0.168457,0.1499023,-0.2558594
1911,-38.875,16.0625,24.5625,0.1557617,0.4282227,-0.005371094,-0.1674805,0.1499023,-0.2543945
1915,-49.5625,19.75,37,0.09375,0.3310547,0.02490234,-0.1650391,0.1547852,-0.2529297
1919,-54.3125,17.125,42,-0.002441406,0.1953125,0.06738281,-0.1625977,0.1601563,-0.25
1923,-47.625,9.5625,46.5,-0.01416016,0.05126953,0.1098633,-0.1591797,0.1674805,-0.2490234
1928,-32.25,8.75,55.5,0.02832031,-0.02587891,0.125,-0.1542969,0.1723633,-0.2460938
1932,-20.625,19.9375,69.1875,0.09765625,0.01269531,0.140625,-0.1518555,0.1762695,-0.2446289
1936,-21.9375,28.1875,82.25,0.05908203,0.105957,0.1132813,-0.1459961,0.1787109,-0.2446289
1940,-39.6875,33.3125,96.0625,0.004882813,0.1835938,0.105957,-0.1376953,0.1850586,-0.2436523
1944,-66.875,33.5,104.625,-0.1225586,0.140625,0.1132813,-0.1328125,0.1914063,-0.2436523
1948,-87.8125,26.0625,109.875,-0.2270508,-0.01025391,0.125,-0.1210938,0.2001953,-0.2392578
1952,-97.0625,19.4375,116.4375,-0.2661133,-0.1694336,0.140625,-0.112793,0.2084961,-0.2324219
1956,-93.4375,17.6875,124.0625,-0.2851563,-0.3325195,0.1748047,-0.1069336,0.2172852,-0.2299805
1960,-83.1875,19.0625,132.8125,-0.3164063,-0.3754883,0.1713867,-0.09228516,0.2260742,-0.2231445
1964,-78.3125,22.6875,143.3125,-0.362793,-0.3637695,0.1328125,-0.08056641,0.2348633,-0.2177734
1968,-77.625,27.1875,155.5,-0.4868164,-0.3754883,0.105957,-0.07324219,0.2412109,-0.2119141
1972,-78.5,24.25,162.9375,-0.5991211,-0.421875,0.09814453,-0.05664063,0.2451172,-0.206543
1976,-73.6875,17.6875,167.625,-0.6572266,-0.5073242,0.09814453,-0.04150391,0.2524414,-0.2026367
1980,-64.5625,15,173.4375,-0.699707,-0.5541992,0.09033203,-0.03076172,0.2539063,-0.1987305
1984,-63.25,16.125,179.375,-0.6962891,-0.5229492,0.07519531,-0.01416016,0.2573242,-0.1928711
1988,-69.5625,23.8125,184.0625,-0.765625,-0.519043,0.05957031,0.003417969,0.2597656,-0.1889648
1992,-79.375,26.6875,194,-0.8857422,-0.5698242,0.04052734,0.01660156,0.2612305,-0.1850586
1996,-82.8125,26.375,201.1875,-1.021484,-0.6708984,0.02880859,0.03564453,0.2612305,-0.1767578
2000,-79.9375,21.75,205.375,-1.133789,-0.7792969,0.02490234,0.05566406,0.262207,-0.1674805
2004,-63.9375,17.625,200.9375,-1.149414,-0.8300781,0.01708984,0.06787109,0.2597656,-0.1660156
2008,-48.4375,20.125,200,-1.187988,-0.7094727,-0.005371094,0.08789063,0.2563477,-0.1606445
2012,-60.5625,25.5,217.25,-1.25,-0.5966797,-0.08203125,0.1069336,0.2485352,-0.1577148
2016,-85,32.5,227.8125,-1.296875,-0.6708984,-0.1323242,0.1186523,0.2436523,-0.1523438
2020,-93.6875,37.0625,227.9375,-1.405273,-0.8457031,-0.112793,0.1416016,0.2373047,-0.1469727
2024,-81.625,34.875,218.5625,-1.498047,-0.9155273,-0.0859375,0.1591797,0.2275391,-0.1357422
2028,-71.4375,29.1875,208.375,-1.544922,-0.8027344,-0.112793,0.1738281,0.2211914,-0.1333008
2032,-89.75,28.4375,212.1875,-1.599121,-0.7172852,-0.1401367,0.1889648,0.2099609,-0.1289063
2036,-116.875,24.5,216.3125,-1.672363,-0.8725586,-0.1938477,0.203125,0.1987305,-0.1196289
2040,-119.25,17.4375,208.4375,-1.684082,-1.055176,-0.1630859,0.2138672,0.1884766,-0.112793
2044,-92.8125,7.375,202.5,-1.672363,-1.203125,-0.1435547,0.2260742,0.1748047,-0.105957
2048,-56.125,10.8125,201.875,-1.560059,-1.167969,-0.112793,0.237793,0.1611328,-0.09912109
2052,-45.6875,21.625,200,-1.521484,-0.9853516,-0.1435547,0.2451172,0.1499023,-0.09912109
2057,-63,24.875,189.25,-1.517578,-0.8803711,-0.2016602,0.2558594,0.1347656,-0.09667969
2061,-86.6875,23.6875,177.625,-1.498047,-0.8613281,-0.2285156,0.2675781,0.1210938,-0.08984375
2065,-110.3125,16.4375,175.625,-1.65332,-1.000977,-0.2363281,0.2749023,0.1088867,-0.09082031
2069,-121.8125,-10.25,169.625,-1.684082,-1.276855,-0.2822266,0.2817383,0.09521484,-0.08837891
2073,-109.875,-35.1875,155.125,-1.498047,-1.599121,-0.3632813,0.2856445,0.07861328,-0.09667969
2077,-100.625,-38.5,147,-1.285156,-1.805176,-0.5053711,0.2915039,0.06982422,-0.1098633
2081,-102.0625,-27.125,124.25,-1.125977,-2.100586,-0.6362305,0.2939453,0.06103516,-0.1303711
2085,-54.9375,-26.0625,74.5625,-1.095215,-4.039551,-0.6977539,0.2924805,0.06103516,-0.1523438
2089,23.6875,-37.6875,-22.4375,-1.246094,-2.69873,-0.7861328,0.2915039,0.06494141,-0.1577148
2093,32.1875,-42.8125,-44.1875,-1.215332,-1.972168,-0.7475586,0.2924805,0.0625,-0.1523438
2097,53.8125,-19.75,-78.5,-0.9365234,-1.848145,-0.5786133,0.2915039,0.05859375,-0.1347656
2101,83.6875,12.375,-102.375,-1.161133,-1.762695,-0.4555664,0.2890625,0.06396484,-0.1210938
2105,112.5,12.625,-119,-1.413086,-1.568359,-0.3974609,0.2880859,0.07128906,-0.1113281
2109,126.4375,5.625,-135.125,-1.45166,-1.338867,-0.3398438,0.2856445,0.08105469,-0.1035156
2113,116.5,7.3125,-144.5,-1.494141,-1.199219,-0.2978516,0.2807617,0.08886719,-0.1005859
2117,101.4375,9.5,-162.4375,-1.556152,-1.179688,-0.2089844,0.2758789,0.1000977,-0.1020508
2121,93.6875,6.5,-182.375,-1.67627,-1.222656,-0.1630859,0.2675781,0.1137695,-0.1035156
2125,87.6875,2.6875,-196.5,-1.757813,-1.226563,-0.1054688,0.2626953,0.1225586,-0.105957
2129,86.1875,-2.4375,-209.0625,-1.831543,-1.253418,-0.07470703,0.253418,0.1376953,-0.1098633
2133,92.6875,-7.375,-226.3125,-1.812012,-1.22998,-0.04394531,0.2426758,0.1538086,-0.1142578
2137,87,-9.875,-237.75,-1.839355,-1.102051,-0.05908203,0.2319336,0.1650391,-0.1166992
2141,64.1875,-13.6875,-239.625,-1.804199,-1.047363,-0.08984375,0.2202148,0.1811523,-0.1225586
2145,46.625,-6.75,-249.4375,-1.746094,-1.125488,-0.09375,0.203125,0.1948242,-0.1264648
2149,54.375,2.6875,-260.25,-1.819824,-1.237793,-0.03613281,0.1914063,0.2084961,-0.1289063
2153,84.375,10.375,-265.875,-1.874023,-1.233887,-0.001464844,0.1738281,0.2250977,-0.1318359
2157,116.25,11.125,-268.5,-1.924316,-1.055176,0.009765625,0.1508789,0.2363281,-0.1357422
2161,132.625,2,-260.4375,-1.866211,-0.8417969,-0.06689453,0.1357422,0.2426758,-0.1425781
2165,129.3125,-8.25,-245.1875,-1.649414,-0.6044922,-0.1860352,0.112793,0.2524414,-0.1547852
2169,105.375,-5.375,-231.5625,-1.385742,-0.484375,-0.2475586,0.09130859,0.2563477,-0.1630859
2173,78.4375,11.1875,-222.1875,-1.145508,-0.4570313,-0.2705078,0.07714844,0.2573242,-0.168457
2177,65.4375,31,-215.9375,-1.091309,-0.4921875,-0.2436523,0.05957031,0.2612305,-0.1728516
2181,65.25,38.875,-203.0625,-1.203613,-0.5073242,-0.1821289,0.04150391,0.262207,-0.1767578
2186,73.6875,26.1875,-194.25,-1.246094,-0.503418,-0.09765625,0.02832031,0.262207,-0.1806641
2190,88.0625,6.4375,-190.6875,-1.137695,-0.4570313,-0.04394531,0.01171875,0.2636719,-0.1865234
2194,98.1875,-12.8125,-195.3125,-1.017578,-0.340332,-0.0859375,-0.004394531,0.262207,-0.1958008
2198,100.6875,-21.875,-202.5,-0.8818359,-0.2006836,-0.08203125,-0.01855469,0.2548828,-0.1987305
2202,103.1875,-28.8125,-205.5,-0.8007813,-0.1074219,-0.0859375,-0.03759766,0.2485352,-0.2080078
2206,104.9375,-35.3125,-204.375,-0.6923828,0.02832031,-0.07470703,-0.05810547,0.2412109,-0.2163086
2210,99.8125,-40,-196.125,-0.6069336,0.2109375,-0.07080078,-0.07128906,0.2363281,-0.2202148
2214,93.6875,-42.1875,-181.9375,-0.4482422,0.6538086,-0.1054688,-0.08886719,0.2236328,-0.2285156
2218,82.25,-42.375,-147.5625,-0.2929688,0.4477539,-0.0859375,-0.1044922,0.2124023,-0.2353516
2222,65.9375,-37.625,-119.0625,-0.1264648,0.5839844,-0.07470703,-0.1152344,0.2060547,-0.237793
2226,40.5625,-32.75,-93.375,-0.03710938,0.6962891,-0.07470703,-0.1245117,0.1972656,-0.2407227
2230,11.125,-29.25,-68.875,0.004882813,0.6962891,-0.05126953,-0.1318359,0.1938477,-0.2407227
2234,-10.3125,-24.8125,-43.5,0.03173828,0.6030273,0.01367188,-0.1352539,0.1923828,-0.2407227
2238,-19.8125,-20.5,-21.875,0.03955078,0.5058594,0.02099609,-0.1411133,0.1899414,-0.237793
2242,-20.25,-16.4375,-4.4375,0.05126953,0.4243164,0.07128906,-0.1435547,0.1923828,-0.2368164
2246,-13.4375,-13.8125,11.625,0.06689453,0.3740234,0.07128906,-0.1425781,0.1923828,-0.2353516
2250,-6,-11,29.875,0.07470703,0.3623047,0.05566406,-0.1425781,0.1938477,-0.2338867
2254,-3.375,-6.4375,50.4375,0.109375,0.3623047,0.02490234,-0.1411133,0.1962891,-0.2324219
2258,-5.8125,-1.125,67.875,0.125,0.3701172,0.02490234,-0.1391602,0.1972656,-0.2324219
2262,-14.1875,4.0625,86.375,0.04736328,0.3427734,0.04052734,-0.1328125,0.2011719,-0.2299805
2266,-28.8125,5.3125,103.625,-0.002441406,0.284668,0.009765625,-0.1259766,0.2060547,-0.2299805
2270,-46.0625,11.625,115.8125,-0.02587891,0.2148438,0.05175781,-0.1220703,0.2114258,-0.2285156
2274,-63.625,17.375,128,-0.1459961,0.105957,0.05957031,-0.109375,0.2197266,-0.2255859
2278,-81.4375,19.875,138.4375,-0.2001953,-0.01806641,0.05175781,-0.09960938,0.2275391,-0.2202148
2282,-94.5,26.3125,143.125,-0.262207,-0.1655273,0.06738281,-0.08886719,0.2338867,-0.2148438
2286,-96.5625,29.25,145.4375,-0.3823242,-0.2939453,0.1020508,-0.07568359,0.2436523,-0.2109375
2290,-87.8125,22.8125,151.8125,-0.4946289,-0.4179688,0.1328125,-0.06152344,0.2509766,-0.2011719
2294,-70.4375,15.3125,161.625,-0.5253906,-0.503418,0.09814453,-0.05322266,0.2539063,-0.1972656
2298,-58.9375,20.875,171.375,-0.5102539,-0.4882813,0.005859375,-0.03662109,0.2587891,-0.1928711
2302,-54.875,32.875,177.1875,-0.4790039,-0.4804688,-0.07080078,-0.01855469,0.2636719,-0.1875
2306,-57,44.4375,171.3125,-0.5795898,-0.402832,-0.1166992,-0.006835938,0.2636719,-0.1835938
2310,-66.6875,50.5,170.0625,-0.8085938,-0.3442383,-0.1591797,0.01269531,0.2651367,-0.1806641
2315,-79.5625,57.5,180.125,-1.013672,-0.3481445,-0.1362305,0.02832031,0.2661133,-0.1738281
2319,-101.375,65.3125,201.625,-1.149414,-0.3637695,-0.1206055,0.04394531,0.2661133,-0.1674805
2323,-124.75,65.0625,216.625,-1.23877,-0.519043,-0.1323242,0.06542969,0.2661133,-0.1606445
2327,-135.1875,59.875,217.1875,-1.366211,-0.6708984,-0.1474609,0.08789063,0.2636719,-0.144043
2331,-133.375,48.5625,215,-1.537109,-0.8574219,-0.1362305,0.105957,0.262207,-0.1347656
2335,-116.3125,31.9375,208.9375,-1.587402,-0.9736328,-0.1323242,0.125,0.2563477,-0.125
2339,-95.875,17.875,201.625,-1.629883,-0.9619141,-0.1630859,0.144043,0.2475586,-0.1166992
2343,-87.5625,9.5625,202.5,-1.629883,-0.8881836,-0.2089844,0.1557617,0.2426758,-0.1098633
2347,-78.25,4.25,203.9375,-1.633789,-0.8803711,-0.2705078,0.1738281,0.2324219,-0.105957
2351,-67.5,1.75,207.3125,-1.645508,-0.8535156,-0.2744141,0.1889648,0.2197266,-0.09912109
2355,-60.1875,-1.5,210.3125,-1.687988,-0.8183594,-0.34375,0.199707,0.2124023,-0.09521484
2359,-69.5,-2.25,209.625,-1.657227,-0.7446289,-0.4360352,0.2138672,0.1987305,-0.09228516
2363,-87.1875,-0.5,198.9375,-1.62207,-0.7485352,-0.4707031,0.2270508,0.1811523,-0.09082031
2367,-104.6875,1.0625,192.625,-1.687988,-0.7949219,-0.4936523,0.2353516,0.1738281,-0.08691406
2371,-119.4375,0.25,199.875,-1.715332,-0.9541016,-0.4824219,0.2460938,0.1586914,-0.08007813
2375,-117.8125,-2.875,205.6875,-1.687988,-1.195313,-0.4477539,0.2558594,0.1425781,-0.07470703
2379,-92.0625,-2.3125,202.75,-1.599121,-1.374023,-0.394043,0.2641602,0.1337891,-0.07080078
2383,-66.1875,-1.5,193.5625,-1.583496,-1.308105,-0.3666992,0.2734375,0.1176758,-0.06933594
2387,-58.4375,4.625,190.6875,-1.471191,-1.276855,-0.3398438,0.2841797,0.1010742,-0.06933594
2391,-63.5625,12,210.3125,-1.467285,-1.517578,-0.3823242,0.2890625,0.09130859,-0.07177734
2395,-56.0625,13.3125,214.25,-1.37793,-1.972168,-0.3745117,0.2963867,0.07617188,-0.07861328
2399,46.5625,6.9375,209.375,-1.339355,-7.955566,-0.4013672,0.3046875,0.06982422,-0.08837891
2403,284.3125,-15.375,-26.25,-1.351074,-3.63916,-0.4707031,0.309082,0.06103516,-0.09667969
2407,120.5625,-30.4375,0.75,-1.362793,-1.342773,-0.7167969,0.3071289,0.05371094,-0.1035156
2411,-13.875,-22.3125,-24.6875,-1.052734,-1.125488,-0.4477539,0.3071289,0.04882813,-0.1020508
2415,-69.625,-6.8125,-72.3125,-1.044922,-1.669434,-0.2207031,0.3056641,0.04638672,-0.09912109
2419,-42.5625,9.625,-123.75,-1.234863,-1.987793,-0.1245117,0.3071289,0.04882813,-0.08984375
2423,24.75,2.9375,-146.5625,-1.560059,-2.045898,-0.06689453,0.2998047,0.0625,-0.08007813
2427,102.9375,-8.75,-147.1875,-1.641602,-1.902344,-0.03222656,0.2973633,0.07275391,-0.07861328
2431,162.5,-16.125,-145.6875,-1.715332,-1.591309,-0.08203125,0.2890625,0.08251953,-0.08007813
2435,173.25,-26.5,-159.6875,-1.827637,-1.121582,-0.128418,0.2841797,0.09228516,-0.08691406
2439,131.375,-46.125,-182.75,-1.897461,-0.7680664,-0.2285156,0.2773438,0.1025391,-0.09228516
2444,70.5625,-60.8125,-204.875,-1.847168,-0.7988281,-0.2285156,0.2700195,0.1152344,-0.09912109
2448,35.3125,-65.75,-222.5,-1.819824,-1.062988,-0.2089844,0.2583008,0.1313477,-0.1088867
2452,43,-70.0625,-234.9375,-1.847168,-1.319336,-0.2514648,0.2509766,0.1459961,-0.1098633
2456,72.3125,-71.5,-240.1875,-1.827637,-1.362305,-0.3325195,0.234375,0.1625977,-0.1196289
2460,93.25,-65.6875,-243,-1.769531,-1.199219,-0.3706055,0.21875,0.1787109,-0.1279297
2464,100.4375,-62.9375,-257.0625,-1.804199,-1.000977,-0.4248047,0.2070313,0.1923828,-0.1333008
2468,93,-60.8125,-266.875,-1.738281,-0.8613281,-0.3862305,0.1855469,0.2060547,-0.1455078
2472,82.3125,-58.75,-266.875,-1.680176,-0.7988281,-0.3901367,0.1630859,0.2197266,-0.1523438
2476,78.125,-53.625,-259.625,-1.57959,-0.7832031,-0.3359375,0.1459961,0.2285156,-0.1591797
2480,82.4375,-44.4375,-250,-1.505859,-0.7680664,-0.2783203,0.1235352,0.2387695,-0.1645508
2484,91.1875,-40.1875,-243.875,-1.48291,-0.7016602,-0.2436523,0.1020508,0.2451172,-0.175293
2488,92.9375,-43.3125,-236.875,-1.40918,-0.6083984,-0.2553711,0.08691406,0.2485352,-0.1796875
2492,81.5625,-42.875,-226.5625,-1.25,-0.5424805,-0.2436523,0.06298828,0.2524414,-0.1875
2496,69.4375,-34.75,-225.5625,-1.083496,-0.503418,-0.1899414,0.04052734,0.2509766,-0.1943359
2500,58.4375,-27.8125,-223.875,-1.041016,-0.4492188,-0.1435547,0.02490234,0.2548828,-0.1958008
2504,59.875,-24.6875,-221.5625,-1.056641,-0.4296875,-0.07470703,0.004394531,0.2539063,-0.2026367
2508,71.6875,-21.625,-210.6875,-1.029297,-0.3481445,-0.01318359,-0.01855469,0.25,-0.206543
2512,86.6875,-23.8125,-191.1875,-0.9672852,-0.2548828,-0.01318359,-0.02929688,0.2475586,-0.2109375
2516,107.3125,-28.875,-175.1875,-0.8125,-0.1577148,0.01708984,-0.04492188,0.2397461,-0.21875
2520,124.3125,-34,-159.625,-0.6689453,0.1484375,-0.005371094,-0.06396484,0.2299805,-0.2270508
2524,117.125,-35.4375,-130.4375,-0.4750977,0.2807617,-0.01660156,-0.07470703,0.2236328,-0.2338867
2528,80.125,-32.625,-111.5625,-0.3432617,0.7895508,-0.05908203,-0.08642578,0.2138672,-0.2421875
2532,23.125,-26.3125,-94.25,-0.215332,0.855957,-0.07080078,-0.09619141,0.2075195,-0.2446289
2536,-22.8125,-15.375,-77.75,-0.06835938,0.7587891,-0.04394531,-0.1010742,0.2050781,-0.2421875
2540,-42.0625,-6.25,-57.25,0.01269531,0.5644531,0.01367188,-0.1079102,0.2050781,-0.2421875
2544,-40.0625,-0.4375,-35.5,0.03564453,0.4399414,0.02490234,-0.112793,0.2050781,-0.237793
2548,-30.875,2.1875,-17.5625,0.08251953,0.3896484,0.05175781,-0.1137695,0.2099609,-0.2353516
2552,-22.25,3.0625,-6.6875,0.09375,0.3701172,0.05957031,-0.1152344,0.2084961,-0.2353516
2556,-15.8125,3,2,0.05517578,0.3388672,0.07910156,-0.1162109,0.2114258,-0.2324219
2560,-6.375,4.8125,15.875,0.02832031,0.3081055,0.105957,-0.1137695,0.2099609,-0.230957
2564,2.875,7.375,33.6875,-0.01806641,0.3041992,0.125,-0.1113281,0.2124023,-0.2324219
2568,8.8125,9.1875,52.6875,-0.03320313,0.3349609,0.1210938,-0.1069336,0.2124023,-0.2324219
2573,10.3125,10.875,71.75,-0.04492188,0.3466797,0.1328125,-0.1054688,0.2124023,-0.2324219
2577,7.4375,12.75,89.4375,-0.05664063,0.3701172,0.1132813,-0.09863281,0.2148438,-0.2368164
2581,-4.9375,16.5,104.3125,-0.1147461,0.3701172,0.06738281,-0.09033203,0.2163086,-0.2338867
2585,-22.125,20.25,120.125,-0.2192383,0.300293,0.04052734,-0.08300781,0.2211914,-0.2353516
2589,-42.875,23.625,133.875,-0.2890625,0.2109375,0.03271484,-0.07226563,0.2250977,-0.2338867
2593,-60.5625,27,143.9375,-0.362793,0.07080078,0.06738281,-0.05810547,0.2299805,-0.2285156
2597,-67,28.6875,153.125,-0.4443359,-0.08007813,0.09814453,-0.05078125,0.2338867,-0.2270508
2601,-69.1875,28.4375,162.25,-0.5952148,-0.1655273,0.06347656,-0.03515625,0.2397461,-0.2231445
2605,-80.1875,28.625,176.125,-0.6689453,-0.2626953,0.06347656,-0.01855469,0.2451172,-0.2133789
2609,-86.0625,26.6875,185.875,-0.6767578,-0.4726563,0.05957031,-0.0078125,0.2475586,-0.2109375
2613,-79.4375,28.875,190.875,-0.78125,-1.304199,0.03271484,0.01074219,0.2509766,-0.206543
2617,-61.4375,34.5,195.3125,-0.796875,-0.6630859,0.03662109,0.03076172,0.2539063,-0.199707
2621,-56.375,40.5625,201.3125,-0.8510742,-0.6552734,-0.01318359,0.04248047,0.2509766,-0.1958008
2625,-57.4375,50,196.8125,-0.9516602,-0.6821289,-0.02832031,0.06152344,0.25,-0.1918945
2629,-56.1875,53.8125,193.9375,-1.103027,-0.7133789,-0.01318359,0.08300781,0.2460938,-0.1821289
2633,-56.875,49.5625,195.375,-1.223145,-0.6938477,-0.009277344,0.09619141,0.2426758,-0.1821289
2637,-61.1875,47.8125,198.75,-1.23877,-0.7329102,-0.02832031,0.1152344,0.2373047,-0.175293
2641,-61.4375,49.0625,200.125,-1.308105,-0.8222656,-0.03613281,0.1342773,0.2314453,-0.1699219
2645,-48.5,52.25,198.625,-1.296875,-0.8686523,-0.03222656,0.1459961,0.2250977,-0.1660156
2649,-38.4375,58.3125,193.3125,-1.381836,-0.7368164,-0.05517578,0.1640625,0.2148438,-0.1616211
2653,-51.4375,63.0625,188.5625,-1.479004,-0.5854492,-0.06689453,0.1821289,0.2050781,-0.1547852
2657,-80.75,63.3125,184.625,-1.610352,-0.4960938,-0.0859375,0.1904297,0.1972656,-0.1508789
2661,-114.75,53.875,187.6875,-1.711426,-0.6005859,-0.08984375,0.2080078,0.1875,-0.1425781
2665,-129.625,41.0625,189.375,-1.703613,-0.8339844,-0.06689453,0.21875,0.1748047,-0.1303711
2669,-121.0625,30.125,184.9375,-1.672363,-1.040039,-0.1054688,0.2285156,0.1689453,-0.1235352
2673,-94.6875,25.5625,178.0625,-1.637695,-1.090332,-0.109375,0.2392578,0.1577148,-0.1166992
2677,-76.1875,25.375,175.4375,-1.641602,-0.9506836,-0.128418,0.2509766,0.1459961,-0.1088867
2681,-75.0625,21.625,183.375,-1.633789,-0.8881836,-0.1821289,0.2558594,0.1376953,-0.105957
2685,-77.4375,22.9375,194.25,-1.541016,-0.9233398,-0.2285156,0.2651367,0.1210938,-0.1005859
2689,-73.0625,33.9375,203.3125,-1.48291,-0.8959961,-0.2397461,0.2734375,0.1064453,-0.09765625
2693,-74.0625,44.6875,213.4375,-1.637695,-0.8222656,-0.2436523,0.2792969,0.09375,-0.09521484
2697,-97.4375,34.1875,230.5625,-1.843262,-0.8686523,-0.2631836,0.2900391,0.07519531,-0.08984375
2702,-121.125,-9.25,228.9375,-2.114258,-1.214844,-0.3051758,0.2998047,0.05517578,-0.08984375
2706,-123.4375,-62.75,224,-1.746094,-1.719727,-0.4594727,0.3046875,0.04003906,-0.09082031
2710,-97.875,-19.3125,195.8125,-0.8935547,-2.314453,-0.34375,0.309082,0.02001953,-0.105957
2714,-54.5,39.375,129.6875,-1.048828,-2.555176,-0.4169922,0.3139648,0.007324219,-0.1157227
2718,-19.5625,22.875,49.0625,-1.54834,-2.726074,-0.628418,0.3154297,0.001464844,-0.112793
2722,22.4375,-19.375,-27.375,-1.556152,-2.694824,-0.5170898,0.3164063,0,-0.112793
2726,77.5,-28,-78.125,-1.432129,-2.555176,-0.4399414,0.3154297,0.002441406,-0.1035156
2730,123.875,-18.3125,-110.875,-1.583496,-2.108398,-0.378418,0.3139648,0.007324219,-0.1035156
2734,143.125,-24.3125,-129.125,-1.850586,-1.692383,-0.2861328,0.309082,0.01611328,-0.09667969
2738,146,-42.3125,-141.625,-1.943848,-1.408691,-0.2207031,0.3046875,0.02636719,-0.09912109
2742,131.125,-57.0625,-162.5625,-1.947754,-1.22998,-0.1782227,0.3007813,0.03271484,-0.1005859
2746,111.125,-64.75,-190.5625,-1.916504,-1.171875,-0.1821289,0.2963867,0.04736328,-0.1088867
2750,93.1875,-67,-217.9375,-1.947754,-1.121582,-0.1899414,0.2880859,0.06396484,-0.1157227
2754,85.9375,-66.875,-244.5625,-1.974609,-1.062988,-0.1708984,0.2817383,0.07519531,-0.1210938
2758,85.3125,-65.75,-261.25,-2.094727,-0.9892578,-0.1513672,0.2709961,0.09619141,-0.1289063
2762,87.75,-67.0625,-260.75,-2.063965,-0.9272461,-0.1166992,0.2583008,0.1162109,-0.1386719
2766,91,-65.4375,-257.25,-2.005859,-0.8066406,-0.1591797,0.2509766,0.1274414,-0.1425781
2770,88.375,-61.125,-254.375,-2.036621,-0.7250977,-0.112793,0.234375,0.1474609,-0.1508789
2774,86.125,-56.4375,-259.8125,-2.025391,-0.6357422,-0.08203125,0.2177734,0.1625977,-0.1616211
2778,76.6875,-57.875,-262.3125,-1.998047,-0.503418,-0.09765625,0.2070313,0.1748047,-0.1660156
2782,60,-59.6875,-259.25,-1.936035,-0.484375,-0.06689453,0.1855469,0.1899414,-0.1738281
2786,50.5625,-62.9375,-254.375,-1.808105,-0.5307617,-0.05126953,0.1650391,0.2060547,-0.1782227
2790,52.3125,-63.3125,-249.5,-1.695801,-0.5698242,-0.04736328,0.1499023,0.2148438,-0.1850586
2794,59.625,-58.5625,-246.625,-1.591309,-0.5385742,-0.04736328,0.125,0.2260742,-0.1889648
2798,66.0625,-48.875,-248.125,-1.447754,-0.4609375,-0.001464844,0.1035156,0.2338867,-0.1943359
2802,67,-43.8125,-249.5625,-1.447754,-0.371582,0.001953125,0.08691406,0.2363281,-0.1972656
2806,68.1875,-48.375,-243,-1.393555,-0.3134766,0.005859375,0.06542969,0.2397461,-0.206543
2810,74.0625,-53.4375,-232.3125,-1.277344,-0.2705078,0.03271484,0.04052734,0.2426758,-0.2119141
2814,82.25,-56.375,-215.9375,-1.103027,-0.1850586,0.01367188,0.02587891,0.2412109,-0.2163086
2818,83.1875,-58.1875,-200.0625,-0.8935547,-0.05273438,-0.02832031,0.002441406,0.2412109,-0.2202148
2822,73.0625,-58.375,-189.25,-0.7504883,0.04736328,-0.05517578,-0.01855469,0.2363281,-0.2270508
2826,61.9375,-54.5,-176.625,-0.6069336,0.06689453,-0.05517578,-0.03076172,0.2314453,-0.2324219
2831,59.25,-50.75,-164.3125,-0.5175781,0.06689453,-0.03613281,-0.04736328,0.2285156,-0.2368164
2835,59.3125,-42.875,-151.125,-0.3510742,0.1098633,-0.005371094,-0.06494141,0.2197266,-0.2407227
2839,59.75,-30.9375,-138.9375,-0.2700195,0.1523438,0.02099609,-0.07324219,0.2163086,-0.2421875
2843,55.875,-24.0625,-126.5625,-0.215332,0.2338867,0.03271484,-0.08398438,0.2084961,-0.2460938
2847,47.4375,-24,-119.8125,-0.1611328,0.3544922,0.02880859,-0.09716797,0.2011719,-0.25
2851,29.0625,-28.3125,-115.625,-0.09521484,0.4750977,0.03271484,-0.1044922,0.1987305,-0.2490234
2855,7.9375,-33.25,-99.4375,-0.02197266,0.4985352,0.04052734,-0.112793,0.1923828,-0.25
2859,-3.25,-30.6875,-71.1875,0.05908203,0.4204102,0.06738281,-0.1220703,0.1884766,-0.25
2863,-1.875,-23.125,-37.0625,0.109375,0.3427734,0.08251953,-0.1269531,0.1875,-0.2490234
2867,4,-12.6875,-10.875,0.1831055,0.3427734,0.125,-0.1293945,0.1860352,-0.2490234
2871,1.8125,-3.3125,4.9375,0.1635742,0.3857422,0.1367188,-0.1303711,0.1850586,-0.2460938
2875,-9.5,-3.625,18.1875,0.1132813,0.3818359,0.1367188,-0.1318359,0.1835938,-0.2490234
2879,-23.125,-8.8125,30,0.07861328,0.3041992,0.1210938,-0.1293945,0.1875,-0.2460938
2883,-31.875,-9.5,41.75,0.125,0.2299805,0.1098633,-0.128418,0.1923828,-0.2446289
2887,-37.625,-5.5,51.8125,0.140625,0.1992188,0.105957,-0.1269531,0.1914063,-0.2446289
2891,-43.3125,-1.8125,62.4375,0.1289063,0.1835938,0.07128906,-0.1210938,0.1987305,-0.2407227
2895,-53.5,2.625,76,0.1015625,0.171875,0.04443359,-0.1186523,0.2036133,-0.237793
2899,-65.6875,9.5,91,0.0009765625,0.1254883,0.04052734,-0.1137695,0.2099609,-0.2338867
2903,-78.5,12.8125,110.1875,-0.1264648,0.04003906,0.03662109,-0.1054688,0.2172852,-0.2285156
2907,-87,13.9375,132.125,-0.2387695,-0.1191406,0.05566406,-0.09472656,0.2260742,-0.2246094
2911,-85.5,9.5,152.9375,-0.347168,-0.2978516,0.07910156,-0.08642578,0.2324219,-0.2177734
2915,-70.75,-0.625,163.75,-0.28125,-0.4609375,0.159668,-0.07324219,0.2426758,-0.2133789
2919,-50.75,-12.375,158.875,-0.3901367,-0.9272461,0.1098633,-0.06152344,0.2485352,-0.206543
2923,-31.1875,-19.1875,152.5625,-0.347168,-0.4414063,0.09423828,-0.05078125,0.2509766,-0.2055664
2927,-23.6875,-4,155.3125,-0.4130859,-0.4179688,0.07128906,-0.0390625,0.2539063,-0.2041016
2931,-20.8125,20.125,160.5,-0.5527344,-0.3208008,0.08251953,-0.02490234,0.2539063,-0.2026367
2935,-29.125,25.5625,169.8125,-0.7617188,-0.2744141,0.03662109,-0.01416016,0.2563477,-0.1987305
2939,-42.5,17.6875,175.3125,-0.8007813,-0.2822266,0.09423828,0.003417969,0.2563477,-0.1987305
2943,-53.3125,8.0625,177.0625,-0.7851563,-0.371582,0.05566406,0.02001953,0.2573242,-0.1928711
2947,-57.375,8.125,178.1875,-0.78125,-0.4414063,0.05566406,0.03076172,0.2563477,-0.1918945
2951,-61.75,20.8125,186.4375,-0.8393555,-0.4804688,0.02880859,0.04736328,0.2563477,-0.1875
2955,-66.4375,35.0625,197.0625,-0.9829102,-0.5307617,0.04052734,0.06640625,0.2539063,-0.1796875
2960,-68.375,41.6875,201.8125,-1.180664,-0.565918,0.04785156,0.07861328,0.2509766,-0.1767578
2964,-69.8125,34.5625,201.375,-1.351074,-0.5927734,0.05175781,0.09863281,0.2485352,-0.1713867
2968,-71.125,24.9375,205.3125,-1.366211,-0.6708984,0.05566406,0.1186523,0.2426758,-0.1645508
2972,-69.4375,23.8125,211.5625,-1.343262,-0.7641602,0.08251953,0.1318359,0.2373047,-0.1606445
2976,-60.5625,29,212.9375,-1.315918,-0.8613281,0.05566406,0.1484375,0.2299805,-0.1547852
2980,-45.1875,36.6875,205.5625,-1.374023,-0.8842773,0.05566406,0.1665039,0.21875,-0.1508789
2984,-33,36.6875,197.9375,-1.541016,-0.8144531,0.02880859,0.1772461,0.2114258,-0.1494141
2988,-33.75,31.6875,199.5,-1.603027,-0.7792969,-0.01660156,0.1928711,0.1972656,-0.1425781
2992,-36,31.6875,204.75,-1.603027,-0.8417969,-0.02441406,0.2094727,0.1835938,-0.1416016
2996,-28.3125,34.625,203,-1.591309,-0.8999023,-0.009277344,0.2163086,0.1762695,-0.1386719
3000,-18.1875,39.625,198.5,-1.587402,-0.9194336,-0.005371094,0.2294922,0.1611328,-0.1347656
3004,-8.4375,46.5,195.4375,-1.591309,-0.9116211,0.05175781,0.2426758,0.1435547,-0.1318359
3008,-4.6875,49.1875,197.25,-1.672363,-0.9194336,0.09033203,0.2475586,0.1323242,-0.1289063
3012,-3.125,48.3125,196.25,-1.687988,-0.8999023,0.140625,0.2602539,0.1152344,-0.125
3016,-26.6875,43.8125,185.875,-1.742188,-0.7446289,0.105957,0.269043,0.09863281,-0.1225586
3020,-76.1875,31.25,167.625,-1.78125,-0.7329102,0.07910156,0.2724609,0.08886719,-0.1225586
3024,-123.75,11.125,156.3125,-1.769531,-1.016602,0.04785156,0.2792969,0.07617188,-0.1181641
3028,-139.4375,-4.5625,134.6875,-1.649414,-1.304199,0.06347656,0.2856445,0.06494141,-0.1181641
3032,-134.5,-17.0625,119.4375,-1.618164,-1.479004,-0.02832031,0.2900391,0.06005859,-0.1225586
3036,-135.5625,-31,116.75,-1.537109,-1.692383,-0.1630859,0.2915039,0.04638672,-0.1279297
3040,-122.8125,-40.4375,99.5625,-1.358887,-1.991699,-0.2475586,0.2890625,0.03759766,-0.1425781
3044,-90.5625,-44.375,64.625,-1.242188,-2.232422,-0.3554688,0.2900391,0.03125,-0.1523438
3048,-55.75,-47.3125,12.1875,-1.11084,-2.259766,-0.5283203,0.2841797,0.02246094,-0.1616211
3052,-14.75,-39.125,-44.8125,-0.9750977,-2.244141,-0.5708008,0.2807617,0.02148438,-0.1606445
3056,40.1875,-19.625,-90,-1.060547,-2.081055,-0.4667969,0.2832031,0.02880859,-0.1523438
3060,97.875,-9.75,-107.4375,-1.257813,-1.863281,-0.3862305,0.2832031,0.03759766,-0.1416016
3064,148.3125,-9.1875,-108.4375,-1.413086,-1.568359,-0.3129883,0.2817383,0.04980469,-0.1347656
3068,173.125,-10,-108.875,-1.479004,-1.175781,-0.3129883,0.2807617,0.05517578,-0.1333008
3072,151.6875,-10.5,-128.5,-1.509766,-0.8183594,-0.2978516,0.2773438,0.06396484,-0.1357422
3076,95.5625,-15.1875,-158.5625,-1.567871,-0.6938477,-0.2631836,0.2758789,0.07519531,-0.1386719
3080,49.1875,-20.1875,-180.4375,-1.57959,-0.9467773,-0.1708984,0.269043,0.08398438,-0.1401367
3084,42,-13.5,-194.8125,-1.529297,-1.222656,-0.03613281,0.2602539,0.09765625,-0.1416016
3089,64.5,-8.625,-204.375,-1.680176,-1.401367,-0.001464844,0.253418,0.1152344,-0.1425781
3093,93.3125,-12.1875,-213.1875,-1.773438,-1.304199,-0.02050781,0.2475586,0.1235352,-0.1469727
3097,96.0625,-19.5,-223.25,-1.804199,-1.129395,-0.0859375,0.2368164,0.1376953,-0.1508789
3101,88.9375,-23,-243.75,-1.730469,-1.040039,-0.04736328,0.2246094,0.1499023,-0.15625
3105,87.0625,-24.25,-256.6875,-1.761719,-0.9736328,-0.02050781,0.2138672,0.1635742,-0.1616211
3109,82.6875,-26.3125,-253.8125,-1.703613,-0.9233398,-0.01660156,0.1987305,0.1762695,-0.1674805
3113,80.8125,-21.875,-247.4375,-1.649414,-0.9194336,-0.03613281,0.1796875,0.1923828,-0.1738281
3117,82.3125,-16.5625,-240.25,-1.552246,-0.9233398,-0.03222656,0.1674805,0.2001953,-0.1796875
3121,77.75,-11.625,-236.875,-1.479004,-0.8027344,-0.02441406,0.1499023,0.2114258,-0.1850586
3125,59.6875,-9.5625,-242.625,-1.494141,-0.7016602,-0.02832031,0.1308594,0.2211914,-0.1875
3129,41.375,-5.8125,-248.125,-1.517578,-0.7290039,-0.001464844,0.1176758,0.2260742,-0.1904297
3133,41.4375,0,-242.75,-1.513672,-0.8686523,0.07519531,0.09863281,0.2338867,-0.1943359
3137,70.3125,3.5,-234.5625,-1.447754,-0.9194336,0.1518555,0.07714844,0.2412109,-0.1958008
3141,110.4375,-2.0625,-229.9375,-1.358887,-0.7641602,0.1171875,0.06542969,0.2436523,-0.1987305
3145,128.125,-14.125,-220.6875,-1.261719,-0.4492188,0.03271484,0.04394531,0.2397461,-0.2094727
3149,113.1875,-16.625,-210.0625,-1.141602,-0.1928711,0.02880859,0.0234375,0.2387695,-0.2216797
3153,90,-21.5625,-204.875,-1.091309,-0.1381836,0.02490234,0.01171875,0.2348633,-0.2246094
3157,85.625,-30.3125,-201.4375,-0.9672852,-0.1655273,0.06347656,-0.006835938,0.2324219,-0.230957
3161,97.625,-34.6875,-190.6875,-0.78125,-0.08789063,0.09423828,-0.02490234,0.2260742,-0.237793
3165,102.0625,-33.0625,-164.5625,-0.6806641,0.07470703,0.1098633,-0.03662109,0.2211914,-0.2446289
3169,89.75,-28.9375,-138.875,-0.5527344,0.2963867,0.07910156,-0.05078125,0.2124023,-0.25
3173,71.25,-27.125,-111.6875,-0.4555664,0.6147461,0.04785156,-0.06494141,0.2060547,-0.2583008
3177,30,-27.375,-110.4375,-0.3666992,0.4282227,0.05957031,-0.06982422,0.2001953,-0.2597656
3181,8.6875,-24,-94.875,-0.246582,0.3505859,0.1171875,-0.08056641,0.1962891,-0.2597656
3185,6.125,-19.0625,-80.625,-0.1845703,0.2807617,0.159668,-0.09033203,0.1938477,-0.2597656
3189,10.6875,-17.3125,-70,-0.1420898,0.3271484,0.1748047,-0.09375,0.1923828,-0.2583008
3193,11.5625,-19.625,-59.5,-0.1264648,0.3935547,0.1635742,-0.09960938,0.1884766,-0.2612305
3197,8.25,-23.25,-39.625,-0.07226563,0.4750977,0.159668,-0.1054688,0.1860352,-0.2612305
3201,-2.5,-26.5,-17.375,-0.04101563,0.5605469,0.125,-0.1069336,0.1850586,-0.2612305
3205,-21.9375,-30.3125,1.875,0.004882813,0.5800781,0.1098633,-0.1113281,0.1860352,-0.2597656
3209,-38.1875,-31.625,14.125,0.02832031,0.5253906,0.1289063,-0.1113281,0.1884766,-0.2568359
3213,-45.5625,-36,23.5,-0.01025391,0.4360352,0.1020508,-0.1113281,0.1914063,-0.2543945
3218,-43.25,-42.0625,38.1875,-0.01806641,0.3193359,0.06738281,-0.112793,0.1948242,-0.2490234
3222,-35.375,-44.0625,57.0625,0.02050781,0.2651367,0.05175781,-0.112793,0.2001953,-0.2436523
3226,-29.8125,-39.875,76.0625,0.03173828,0.2651367,-0.02441406,-0.112793,0.2036133,-0.2407227
3230,-33.875,-29,91.75,0.02832031,0.3081055,-0.0859375,-0.1079102,0.2084961,-0.2407227
3234,-51.625,-13.3125,100.875,0.04345703,0.3740234,-0.109375,-0.1030273,0.2148438,-0.2338867
3238,-74.375,-0.875,108.75,-0.1069336,0.300293,-0.0859375,-0.09863281,0.2172852,-0.2299805
3242,-86.625,-1.125,129.4375,-0.2890625,0.08642578,-0.08984375,-0.08789063,0.2275391,-0.2255859
3246,-88.5,0,159.5625,-0.3046875,-0.1191406,-0.05126953,-0.07568359,0.2348633,-0.21875
3250,-79.125,8.4375,171.4375,-0.3320313,-0.2783203,-0.02050781,-0.06884766,0.2412109,-0.2148438
3254,-64.5625,17.8125,163.5,-0.4672852,-0.3095703,-0.01660156,-0.05224609,0.2475586,-0.2080078
3258,-55.9375,20.375,155.625,-0.6650391,-0.3017578,-0.01318359,-0.03515625,0.2524414,-0.2026367
3262,-55.25,17.1875,158.75,-0.8354492,-0.2978516,-0.005371094,-0.02685547,0.2524414,-0.1987305
3266,-61.125,12.9375,174.875,-0.8666992,-0.3208008,0.009765625,-0.01025391,0.2573242,-0.1972656
3270,-63.8125,11.625,195.375,-0.9208984,-0.4414063,-0.005371094,0.005859375,0.2587891,-0.1889648
3274,-60.6875,15.8125,207.5625,-0.9169922,-0.550293,-0.02050781,0.01904297,0.2597656,-0.1865234
3278,-50.625,23.3125,206.125,-1.009766,-0.6162109,-0.02832031,0.03808594,0.2587891,-0.1835938
3282,-44.8125,27.125,205.1875,-1.195801,-0.6083984,-0.05517578,0.05810547,0.2548828,-0.1796875
3286,-50.9375,31.9375,211.3125,-1.292969,-0.5893555,-0.04394531,0.07226563,0.2539063,-0.175293
3290,-66.5625,35.625,219.5,-1.432129,-0.6357422,-0.06689453,0.09130859,0.2460938,-0.1728516
3294,-81.125,39.4375,234.25,-1.479004,-0.7910156,-0.04736328,0.112793,0.2426758,-0.1660156
3298,-80.8125,42.5625,238.4375,-1.571777,-0.9658203,-0.06298828,0.1269531,0.2373047,-0.1591797
3302,-61.25,38.9375,224.9375,-1.629883,-1.074707,-0.04003906,0.1474609,0.2285156,-0.1538086
3306,-43.5625,31.5,207.9375,-1.645508,-0.9155273,-0.08203125,0.1665039,0.2172852,-0.1508789
3310,-52.625,36.0625,208.125,-1.657227,-0.7949219,-0.1054688,0.1782227,0.2084961,-0.144043
3314,-73.6875,43.6875,220.875,-1.75,-0.8417969,-0.09765625,0.1938477,0.1962891,-0.1425781
3318,-83.75,45,226.6875,-1.757813,-0.9853516,-0.06689453,0.2094727,0.1835938,-0.1318359
3322,-80.375,40,219.875,-1.835449,-1.08252,-0.06298828,0.21875,0.1738281,-0.1279297
3326,-70.4375,27.9375,210.3125,-1.831543,-1.140625,-0.07470703,0.2329102,0.1577148,-0.1235352
3330,-62.9375,20.1875,205.25,-1.730469,-1.15625,-0.08984375,0.2460938,0.1435547,-0.1166992
3334,-61.6875,20.125,201.6875,-1.62207,-1.222656,-0.0859375,0.2519531,0.1323242,-0.112793
3338,-53.125,20.0625,188.5,-1.599121,-1.272949,-0.03222656,0.2626953,0.1176758,-0.112793
3342,-40.0625,11.75,172.125,-1.610352,-1.300293,0.02880859,0.2700195,0.1010742,-0.112793
3347,-32.0625,0.9375,154.625,-1.62207,-1.210938,0.07128906,0.2758789,0.09130859,-0.1142578
3351,-49.3125,-17.8125,151.625,-1.812012,-1.245605,0.08251953,0.2817383,0.07373047,-0.1235352
3355,-117.75,-50.8125,152.4375,-1.641602,-1.498535,-0.1206055,0.2841797,0.05761719,-0.1425781
3359,-189.625,-104.625,63.5625,-0.8974609,-6.347168,-0.2822266,0.2832031,0.05126953,-0.1645508
3363,-17.6875,-59.6875,-35.875,-1.416992,-4.237305,-0.4282227,0.2734375,0.05859375,-0.1889648
3367,-6.25,-37.5625,-79,-0.6884766,-1.968262,-0.2592773,0.269043,0.06640625,-0.1835938
3371,28.125,-32.6875,-115.875,-0.9013672,-1.599121,-0.2670898,0.2700195,0.06640625,-0.1738281
3375,37,-13.25,-81.5625,-0.9907227,-1.467285,-0.1860352,0.2700195,0.06884766,-0.1591797
3379,55.5625,-0.125,-92.125,-0.9477539,-1.436035,-0.2553711,0.2700195,0.07519531,-0.144043
3383,70.9375,15.4375,-106.875,-1.037109,-1.385742,-0.2592773,0.2700195,0.08496094,-0.1357422
3387,87.125,26.4375,-125.375,-1.137695,-1.312012,-0.2744141,0.2651367,0.09765625,-0.1318359
3391,101.4375,26.625,-147.625,-1.351074,-1.207031,-0.2324219,0.2626953,0.1064453,-0.1289063
3395,105.0625,22.25,-154.875,-1.517578,-1.144531,-0.1938477,0.2568359,0.1137695,-0.1289063
3399,106.5,14.1875,-152.5,-1.614258,-1.175781,-0.1513672,0.2519531,0.1225586,-0.1303711
3403,107.75,4.9375,-154.4375,-1.595215,-1.175781,-0.1166992,0.2451172,0.1337891,-0.1347656
3407,97.5625,-5.875,-165.5,-1.57959,-1.1875,-0.1362305,0.2402344,0.1386719,-0.137207
3411,75.5,-15.875,-191,-1.544922,-1.125488,-0.1513672,0.230957,0.1474609,-0.1425781
3415,36.0625,-20.75,-214.75,-1.509766,-1.203125,-0.1743164,0.21875,0.1611328,-0.1455078
3419,17.5,-13.75,-235.8125,-1.525391,-1.471191,-0.1206055,0.2104492,0.1748047,-0.1484375
3423,43.0625,-2.125,-242.25,-1.603027,-1.622559,-0.07080078,0.1938477,0.1884766,-0.1484375
3427,85.5625,4.5625,-239.9375,-1.687988,-1.486816,-0.07861328,0.1782227,0.2050781,-0.1538086
3431,111.625,8.5625,-232.0625,-1.738281,-1.249512,-0.06689453,0.1674805,0.2124023,-0.1591797
3435,115.5,7.6875,-230.5,-1.691895,-0.9541016,-0.09375,0.1499023,0.2211914,-0.1660156
3439,89.3125,3.125,-234.5625,-1.65332,-0.7368164,-0.07080078,0.1318359,0.2324219,-0.1713867
3443,52.4375,-4.6875,-238.75,-1.641602,-0.7485352,-0.02050781,0.1186523,0.2363281,-0.175293
3447,44.8125,-8,-249.625,-1.533203,-0.8881836,0.04785156,0.09863281,0.2426758,-0.1782227
3451,63.375,-7.6875,-244,-1.505859,-0.9311523,0.05957031,0.07714844,0.25,-0.1821289
3455,93.4375,-3.8125,-236.8125,-1.424316,-0.8339844,0.09814453,0.06396484,0.2524414,-0.1865234
3459,120.9375,-8,-226.125,-1.432129,-0.6669922,0.07519531,0.04052734,0.2524414,-0.1918945
3463,138.1875,-17.375,-213.9375,-1.289063,-0.4375,0.05566406,0.02148438,0.25,-0.2055664
3467,134.8125,-24.0625,-203.3125,-1.133789,-0.2241211,0.02099609,0.006835938,0.2460938,-0.2119141
3471,116.375,-30,-195.4375,-1.013672,-0.01025391,0.001953125,-0.01025391,0.2373047,-0.2231445
3476,97.625,-28,-182.1875,-0.831543,0.03222656,0.04052734,-0.03173828,0.2324219,-0.2324219
3480,89.9375,-22,-165.9375,-0.7270508,0.05517578,0.05957031,-0.04003906,0.2275391,-0.2353516
3484,86.375,-18.375,-143.4375,-0.6225586,0.105957,0.04052734,-0.05419922,0.2197266,-0.2436523
3488,82.3125,-17.8125,-126.625,-0.4829102,0.1953125,0.02099609,-0.06738281,0.2114258,-0.2490234
3492,76.5,-20.5,-110.875,-0.4248047,0.1484375,0.009765625,-0.07324219,0.2060547,-0.2529297
3496,63.9375,-24.25,-90.8125,-0.230957,0.3310547,-0.02050781,-0.08203125,0.1987305,-0.2583008
3500,49.25,-22.125,-89.6875,-0.1030273,0.4125977,0.01367188,-0.09130859,0.1948242,-0.2612305
3504,23.75,-20.1875,-91.375,-0.06835938,0.5644531,0.005859375,-0.09863281,0.1884766,-0.2612305
3508,-10.5625,-20.5,-82.5625,-0.06835938,0.6420898,0.02099609,-0.1044922,0.1850586,-0.2636719
3512,-34.875,-18.5625,-55.0625,-0.01806641,0.5371094,0.03662109,-0.109375,0.1850586,-0.2612305
3516,-38.625,-9.5625,-24.5625,0.07470703,0.4633789,0.05957031,-0.1137695,0.1850586,-0.2568359
3520,-36.625,-0.9375,-1.625,0.1054688,0.4633789,0.02880859,-0.1152344,0.1875,-0.2543945
3524,-41.375,5.1875,20.6875,0.09033203,0.4399414,0.03271484,-0.1137695,0.1884766,-0.2558594
3528,-43.5625,6.375,33,0.05908203,0.3623047,0.04785156,-0.112793,0.1938477,-0.25
3532,-39.9375,2.0625,43.0625,0.0009765625,0.2807617,0.05175781,-0.1103516,0.1972656,-0.2490234
3536,-37.4375,-2.5,49.9375,0.03955078,0.269043,0.03662109,-0.1079102,0.2001953,-0.2446289
3540,-38.5,-4.1875,56.3125,-0.006347656,0.2729492,-0.005371094,-0.1054688,0.2026367,-0.2446289
3544,-45.6875,-4.25,70.4375,-0.01416016,0.2573242,-0.04736328,-0.1020508,0.2099609,-0.2392578
3548,-54.9375,1.375,85.5,-0.01806641,0.2416992,-0.07470703,-0.09716797,0.2148438,-0.2368164
3552,-65.25,12.0625,103.125,-0.06054688,0.2109375,-0.07861328,-0.09033203,0.21875,-0.2324219
3556,-72.3125,22.875,124.5625,-0.1806641,0.09033203,-0.06689453,-0.08056641,0.2260742,-0.2285156
3560,-72.75,28.5,143.375,-0.296875,-0.03759766,-0.05517578,-0.06884766,0.2324219,-0.2246094
3564,-73.3125,26.25,146.5625,-0.4130859,-0.07617188,-0.05908203,-0.05908203,0.2363281,-0.2202148
3568,-80.9375,17.375,142.125,-0.4829102,-0.1074219,-0.0859375,-0.04589844,0.2451172,-0.2148438
3572,-91.875,15.375,149.4375,-0.5756836,-0.2006836,-0.1166992,-0.03076172,0.25,-0.2094727
3576,-97.5,25.4375,168.1875,-0.6689453,-0.3208008,-0.1166992,-0.02099609,0.2524414,-0.2026367
3580,-95.0625,44.0625,184.8125,-0.7270508,-0.4067383,-0.07470703,-0.004394531,0.2587891,-0.1958008
3584,-85.375,51.75,194.375,-0.9555664,-0.4453125,-0.02441406,0.01660156,0.2612305,-0.1865234
3588,-73.25,38.4375,197.5,-1.191895,-0.5151367,-0.02832031,0.02978516,0.2636719,-0.1796875
3592,-68.625,22.9375,196.25,-1.20752,-0.5424805,-0.02832031,0.04882813,0.262207,-0.175293
3596,-68.125,18.5625,197,-1.269531,-0.6357422,-0.07861328,0.06982422,0.2597656,-0.1699219
3600,-64.125,23.3125,207.25,-1.273438,-0.7446289,-0.06298828,0.08056641,0.2573242,-0.1645508
3605,-45.75,32.8125,214.3125,-1.300781,-0.7988281,-0.03613281,0.1020508,0.2524414,-0.1591797
3609,-35.25,33.4375,221.125,-1.443848,-0.6513672,-0.06298828,0.1225586,0.2436523,-0.1577148
3613,-47.75,31.375,224.5625,-1.537109,-0.5698242,-0.112793,0.1357422,0.2373047,-0.1538086
3617,-81.6875,35.5,231.5625,-1.544922,-0.6240234,-0.1206055,0.1557617,0.2260742,-0.1494141
3621,-104.625,40.3125,237,-1.591309,-0.8764648,-0.1435547,0.1757813,0.2148438,-0.1425781
3625,-94.8125,42,225.25,-1.684082,-1.078613,-0.08984375,0.1879883,0.2075195,-0.1333008
3629,-74.3125,33.1875,214,-1.746094,-1.074707,-0.1401367,0.2055664,0.1938477,-0.1279297
3633,-66.6875,33.875,210.625,-1.719238,-0.9853516,-0.1435547,0.2202148,0.1801758,-0.1210938
3637,-77.375,39.25,215.0625,-1.746094,-0.9428711,-0.1630859,0.2285156,0.1723633,-0.1181641
3641,-93.8125,40,214.9375,-1.75,-0.9580078,-0.1938477,0.2402344,0.1538086,-0.1098633
3645,-105,34.9375,199.625,-1.788574,-1.000977,-0.1977539,0.2543945,0.1411133,-0.1044922
3649,-109.8125,27.5,190.375,-1.796387,-1.070801,-0.1938477,0.2602539,0.1298828,-0.09765625
3653,-106.875,18.5,186.75,-1.78125,-1.171875,-0.1977539,0.2700195,0.1176758,-0.09228516
3657,-98.0625,4.25,190.4375,-1.715332,-1.327148,-0.2207031,0.2783203,0.1025391,-0.08544922
3661,-85.625,-5.375,192.75,-1.525391,-1.471191,-0.2592773,0.2832031,0.09228516,-0.08837891
3665,-82.875,-8.875,181.375,-1.447754,-1.490723,-0.309082,0.2915039,0.07861328,-0.08984375
3669,-110.5625,-12.875,160.125,-1.432129,-1.622559,-0.3823242,0.2998047,0.06884766,-0.09375
3673,-97.3125,-9.625,168,-1.401367,-7.112793,-0.3862305,0.2998047,0.0625,-0.09521484
3677,175.125,-47.625,-71.5625,-1.223145,-3.592285,-0.5170898,0.3007813,0.05761719,-0.105957
3681,102.0625,-38.0625,-12.625,-1.07959,-1.750977,-0.7016602,0.2973633,0.05761719,-0.1098633
3685,42.5,-6.9375,-3.9375,-0.847168,-1.312012,-0.6513672,0.2983398,0.05517578,-0.1098633
3689,1.3125,23.5625,-20.125,-0.8818359,-1.490723,-0.4707031,0.3007813,0.04736328,-0.1044922
3693,-7.9375,33.625,-71.125,-1.242188,-1.750977,-0.394043,0.2998047,0.04882813,-0.09912109
3697,27.625,13.75,-117.6875,-1.471191,-1.956543,-0.2631836,0.2983398,0.05517578,-0.09521484
3701,84.8125,-0.375,-152.9375,-1.424316,-1.789551,-0.2246094,0.2949219,0.06738281,-0.08837891
3705,105.5,3.6875,-165.3125,-1.537109,-1.401367,-0.2670898,0.2890625,0.07763672,-0.09228516
3709,80.375,1,-162.6875,-1.687988,-1.144531,-0.34375,0.2841797,0.08642578,-0.09228516
3713,42.875,-5.25,-173,-1.695801,-1.175781,-0.359375,0.2758789,0.09765625,-0.09765625
3717,31,-6.625,-193.5625,-1.687988,-1.350586,-0.3745117,0.2709961,0.1152344,-0.09667969
3721,41.8125,-6.6875,-211.375,-1.761719,-1.471191,-0.3862305,0.2651367,0.125,-0.09667969
3725,65.125,-5.5625,-228.25,-1.723145,-1.424316,-0.3745117,0.2543945,0.1435547,-0.09765625
3729,76.1875,-3.625,-238.75,-1.777344,-1.272949,-0.4248047,0.2426758,0.1611328,-0.1035156
3734,74.25,1.0625,-244.25,-1.79248,-1.136719,-0.394043,0.2319336,0.1738281,-0.1044922
3738,64.875,2.875,-247.125,-1.854492,-1.043945,-0.394043,0.21875,0.1899414,-0.1088867
3742,60.75,0.4375,-247.4375,-1.815918,-1.040039,-0.3901367,0.2011719,0.2060547,-0.1113281
3746,62.5,4.8125,-252.3125,-1.78125,-1.008789,-0.3554688,0.1889648,0.2211914,-0.112793
3750,62.625,7.5625,-260.625,-1.812012,-0.9619141,-0.34375,0.1689453,0.2348633,-0.1181641
3754,62.375,5.6875,-264.5,-1.738281,-0.9389648,-0.3051758,0.1450195,0.2475586,-0.1210938
3758,74.125,9.5,-265.75,-1.703613,-0.9506836,-0.2363281,0.1308594,0.2587891,-0.125
3762,96.3125,11.625,-261.75,-1.703613,-0.8457031,-0.1899414,0.1044922,0.2675781,-0.1289063
3766,109.25,5.8125,-253.4375,-1.657227,-0.6318359,-0.1782227,0.08300781,0.2739258,-0.137207
3770,106.875,-1.25,-248.375,-1.525391,-0.4296875,-0.1821289,0.06396484,0.2749023,-0.144043
3774,94.625,-7.9375,-242.625,-1.374023,-0.2939453,-0.1401367,0.04150391,0.2773438,-0.1538086
3778,84.6875,-14.0625,-234.25,-1.199707,-0.2548828,-0.112793,0.01513672,0.2763672,-0.1577148
3782,89.0625,-13.8125,-221.9375,-1.075684,-0.2548828,-0.06298828,0.002441406,0.2749023,-0.1660156
3786,108.5625,-9.8125,-208.4375,-0.9633789,-0.1655273,-0.01318359,-0.01855469,0.2709961,-0.1728516
3790,125.8125,-8.8125,-186.25,-0.8818359,0.05517578,-0.02832031,-0.04003906,0.2651367,-0.1835938
3794,123.75,-11.4375,-154.1875,-0.7578125,0.315918,-0.06689453,-0.04980469,0.2587891,-0.1904297
3798,114,-13.375,-128.25,-0.6147461,0.284668,-0.05517578,-0.06396484,0.2509766,-0.2011719
3802,90.4375,-15.5,-103.9375,-0.4052734,0.5761719,-0.1245117,-0.07470703,0.2426758,-0.2109375
3806,59.9375,-14.75,-91.625,-0.2270508,0.6655273,-0.1054688,-0.08300781,0.2373047,-0.2133789
3810,33.4375,-14.0625,-81.5,-0.1459961,0.6459961,-0.07080078,-0.09033203,0.2324219,-0.21875
3814,22.3125,-13.75,-61.875,-0.04101563,0.5292969,0.01367188,-0.09619141,0.2275391,-0.21875
3818,25.6875,-8.75,-39.125,0.03173828,0.4477539,0.01367188,-0.1020508,0.2260742,-0.2202148
3822,28.9375,0.6875,-21.4375,0.08251953,0.4086914,0.04052734,-0.1020508,0.2236328,-0.2231445
3826,35.625,3,-6.9375,0.03955078,0.3271484,0.06347656,-0.1054688,0.2197266,-0.2231445
3830,45.6875,-2.0625,6.8125,0.05517578,0.2963867,0.06738281,-0.1069336,0.21875,-0.2285156
3834,42.5,-0.6875,18.625,0.1210938,0.3818359,0.05175781,-0.1054688,0.2148438,-0.2324219
3838,26.3125,3.3125,28.125,0.1054688,0.4282227,0.05566406,-0.1010742,0.2138672,-0.2353516
3842,4.9375,6.375,41.8125,0.02441406,0.4282227,0.07128906,-0.1010742,0.2138672,-0.2368164
3846,-19.75,8.8125,62.8125,0.02441406,0.3857422,0.105957,-0.09716797,0.2138672,-0.2338867
3850,-43.375,10.6875,82.4375,0.008789063,0.284668,0.105957,-0.09033203,0.2197266,-0.2353516
3854,-62.5625,11.9375,98.25,-0.06445313,0.1254883,0.1098633,-0.08642578,0.2226563,-0.230957
3858,-72.1875,8.75,107.75,-0.1884766,-0.06445313,0.1210938,-0.07714844,0.2285156,-0.2255859
3863,-72.3125,4.9375,115.1875,-0.2426758,-0.2509766,0.1518555,-0.06738281,0.2373047,-0.21875
3867,-63.5625,6,121.6875,-0.2773438,-0.3793945,0.1787109,-0.06054688,0.2426758,-0.2163086
3871,-49.9375,8.5,128.0625,-0.347168,-0.453125,0.2172852,-0.05078125,0.2451172,-0.2119141
3875,-32.0625,5.5625,140.5625,-0.3935547,-0.4804688,0.2480469,-0.0390625,0.2485352,-0.206543
3879,-11.5625,0.0625,160.1875,-0.4711914,-0.519043,0.2250977,-0.02929688,0.2539063,-0.206543
3883,1.6875,-6,178.3125,-0.4985352,-0.4921875,0.1479492,-0.01513672,0.2539063,-0.206543
3887,-4.3125,-8.5,183.25,-0.5214844,-0.4726563,0.05957031,0.0009765625,0.2524414,-0.2055664
3891,-6.375,-3.625,164.125,-0.5175781,-0.5112305,0.009765625,0.01269531,0.2509766,-0.2055664
3895,-0.125,5.3125,148.125,-0.6030273,-0.4726563,0.001953125,0.02734375,0.2475586,-0.206543
3899,0,14.9375,154,-0.7348633,-0.3481445,-0.005371094,0.03808594,0.2451172,-0.206543
3903,-14,24.6875,174.625,-0.8125,-0.2353516,-0.01660156,0.04980469,0.2426758,-0.2055664
3907,-47.1875,33.375,187.75,-0.9013672,-0.09960938,-0.04394531,0.06884766,0.2397461,-0.2055664
3911,-99.5625,30.625,192.5,-1.07959,-0.1655273,-0.1245117,0.08691406,0.2373047,-0.199707
3915,-142.875,23.8125,190.25,-1.25,-0.3989258,-0.128418,0.09863281,0.2373047,-0.1918945
3919,-165.5,15.25,181.3125,-1.289063,-0.6513672,-0.1591797,0.1142578,0.2373047,-0.1796875
3923,-158.375,10.3125,172.25,-1.285156,-0.8803711,-0.1669922,0.1308594,0.2363281,-0.1660156
3927,-125.625,13.625,174.6875,-1.296875,-0.9775391,-0.1552734,0.1401367,0.2348633,-0.1606445
3931,-83.4375,19.375,187.0625,-1.35498,-0.9272461,-0.1669922,0.1557617,0.2285156,-0.1494141
3935,-62.0625,25.6875,204.1875,-1.424316,-0.7133789,-0.2246094,0.1748047,0.2197266,-0.144043
3939,-77.9375,35.5625,215.4375,-1.443848,-0.6123047,-0.3012695,0.1821289,0.2099609,-0.1401367
3943,-94.875,43.0625,210.4375,-1.552246,-0.6821289,-0.2978516,0.1987305,0.1987305,-0.1318359
3947,-99.125,40.375,201.9375,-1.633789,-0.7910156,-0.2978516,0.2163086,0.1875,-0.1225586
3951,-83.9375,33.3125,196.125,-1.645508,-0.8764648,-0.2592773,0.2260742,0.1787109,-0.1181641
3955,-67.625,32.5,200.6875,-1.633789,-0.9428711,-0.2631836,0.2353516,0.1635742,-0.112793
3959,-50,35.875,204.8125,-1.587402,-0.9775391,-0.2514648,0.2475586,0.1474609,-0.105957
3963,-30.5625,39.75,199.0625,-1.57959,-0.9077148,-0.2363281,0.2583008,0.1347656,-0.1035156
3967,-27.5625,38.375,191.75,-1.57959,-0.8105469,-0.2207031,0.2675781,0.1210938,-0.09912109
3971,-42,35.6875,185,-1.517578,-0.7719727,-0.2207031,0.2758789,0.1064453,-0.09521484
3975,-62.4375,36.125,175.4375,-1.486328,-0.8105469,-0.2128906,0.2807617,0.09375,-0.09082031
3979,-84.0625,36.5625,170,-1.610352,-0.8803711,-0.1552734,0.2880859,0.08007813,-0.08837891
3983,-108.1875,28.75,166.4375,-1.684082,-0.9506836,-0.1015625,0.2939453,0.06738281,-0.08544922
3987,-138.1875,8.25,164.4375,-1.815918,-1.195313,-0.08203125,0.2998047,0.05859375,-0.08447266
3992,-153.25,-15.75,141.875,-1.629883,-1.544922,-0.109375,0.3056641,0.04736328,-0.08447266
3996,-148,-33.875,100.6875,-1.471191,-2.189941,-0.1669922,0.3081055,0.04248047,-0.08984375
4000,64.75,-39.1875,-48.0625,-1.145508,-3.938477,0.125,0.3081055,0.04248047,-0.09765625
4004,22.3125,-66.25,-71.625,-1.606445,-1.852051,-0.7167969,0.3046875,0.04980469,-0.1074219
4008,-27.8125,-72.9375,-36.5625,-1.056641,-1.45166,-0.59375,0.3022461,0.05273438,-0.1142578
4012,-26.5,-33.8125,-18.0625,-0.730957,-1.501953,-0.4516602,0.3007813,0.05126953,-0.1166992
4016,9.0625,8.0625,-40.8125,-0.8974609,-1.630371,-0.3476563,0.3032227,0.04736328,-0.112793
4020,39.375,7.6875,-76.3125,-1.285156,-1.572266,-0.3476563,0.2998047,0.04980469,-0.105957
4024,69.125,-6.8125,-118.125,-1.312012,-1.479004,-0.2783203,0.2998047,0.05517578,-0.1020508
4028,100.125,-7.375,-145.3125,-1.28125,-1.327148,-0.2324219,0.2939453,0.06396484,-0.09912109
4032,116.25,-5.0625,-156.3125,-1.381836,-0.9814453,-0.2939453,0.2866211,0.07763672,-0.1005859
4036,85.4375,-1.875,-146.25,-1.362793,-0.6787109,-0.3359375,0.2832031,0.08496094,-0.1005859
4040,22.5,9.875,-131.9375,-1.366211,-0.6748047,-0.3706055,0.2792969,0.09619141,-0.1020508
4044,-25.1875,17.25,-144,-1.401367,-1.004883,-0.4013672,0.2724609,0.1074219,-0.1020508
4048,-30.1875,14.625,-183.0625,-1.463379,-1.405273,-0.4130859,0.269043,0.1176758,-0.09912109
4052,3.625,15.8125,-215.5,-1.471191,-1.622559,-0.4282227,0.2602539,0.1347656,-0.09521484
4056,38.375,30.125,-225.9375,-1.541016,-1.544922,-0.4628906,0.2485352,0.1523438,-0.09228516
4060,54.9375,40.9375,-229.9375,-1.723145,-1.389648,-0.4863281,0.2402344,0.1660156,-0.09375
4064,70.875,45.875,-232.4375,-1.858398,-1.312012,-0.4438477,0.2294922,0.1826172,-0.09375
4068,86.625,46.625,-229.5,-1.928223,-1.210938,-0.394043,0.2138672,0.1987305,-0.09375
4072,102.125,40.0625,-230,-1.994141,-1.08252,-0.3359375,0.203125,0.2099609,-0.09667969
4076,109.75,25.3125,-229.6875,-1.998047,-1.000977,-0.309082,0.1865234,0.2250977,-0.1005859
4080,115.1875,12.375,-233.0625,-1.908691,-0.9931641,-0.3012695,0.1689453,0.2373047,-0.1088867
4084,123.5625,3.25,-250.8125,-1.808105,-0.9697266,-0.2900391,0.1547852,0.2460938,-0.112793
4088,134.4375,-1,-263.1875,-1.668457,-0.8881836,-0.2475586,0.1318359,0.2548828,-0.1225586
4092,145.4375,-4,-260.875,-1.665039,-0.7871094,-0.2285156,0.109375,0.2636719,-0.1333008
4096,155.125,-11.3125,-245.4375,-1.657227,-0.6708984,-0.1860352,0.09277344,0.2675781,-0.1416016
4100,168.1875,-18.1875,-231.5625,-1.544922,-0.5854492,-0.1245117,0.06982422,0.2685547,-0.15625
4104,186.0625,-27,-219.375,-1.413086,-0.4921875,-0.09765625,0.04638672,0.2675781,-0.1713867
4108,186.0625,-39.5625,-209.375,-1.246094,-0.2470703,-0.1401367,0.02978516,0.262207,-0.1835938
4112,161,-45.4375,-208.1875,-1.07959,-0.05664063,-0.1323242,0.01074219,0.2563477,-0.1987305
4116,125.5,-48.4375,-206.75,-0.9907227,0.004882813,-0.09375,-0.01171875,0.25,-0.2109375
4121,99.9375,-57.0625,-192.8125,-0.9287109,-0.08398438,-0.05908203,-0.02490234,0.2460938,-0.2177734
4125,106.875,-58,-175.125,-0.7578125,-0.2045898,0.005859375,-0.04394531,0.2363281,-0.2246094
4129,131.9375,-53.125,-161.375,-0.6147461,-0.1420898,0.005859375,-0.06152344,0.2260742,-0.230957
4133,140.75,-56.5,-153.8125,-0.5449219,0.08251953,-0.112793,-0.07470703,0.21875,-0.2407227
4137,125.6875,-58.4375,-151.125,-0.3510742,0.300293,-0.1860352,-0.09033203,0.2075195,-0.2490234
4141,100,-52.125,-146.625,-0.1689453,0.4125977,-0.1401367,-0.1054688,0.1938477,-0.2558594
4145,69.5,-48.75,-130.0625,-0.07226563,0.5761719,-0.1435547,-0.112793,0.1875,-0.2583008
4149,43.5,-44.8125,-102.875,-0.002441406,0.5488281,-0.1015625,-0.1259766,0.1762695,-0.2612305
4153,25.4375,-36.875,-73.125,0.09765625,0.5722656,-0.112793,-0.1342773,0.1713867,-0.2597656
4157,8.5,-33,-54.8125,0.1484375,0.6147461,-0.1938477,-0.1391602,0.1660156,-0.2612305
4161,-9.75,-24.875,-37.9375,0.2490234,0.6381836,-0.1474609,-0.1435547,0.1635742,-0.2597656
4165,-25.5,-7.5625,-15.6875,0.2915039,0.5839844,-0.1206055,-0.1459961,0.1635742,-0.2583008
4169,-39.3125,7.4375,9.75,0.2216797,0.5253906,-0.07861328,-0.1484375,0.1635742,-0.2568359
4173,-50.25,14.0625,30.75,0.2138672,0.4438477,-0.07470703,-0.1474609,0.1689453,-0.2543945
4177,-53.4375,22.1875,47.4375,0.175293,0.3310547,-0.02441406,-0.1411133,0.1738281,-0.25
4181,-51.4375,25.0625,64,0.09375,0.269043,-0.03613281,-0.1391602,0.1787109,-0.25
4185,-51.5625,27.125,76.875,0.04736328,0.2495117,-0.03613281,-0.1328125,0.1850586,-0.2475586
4189,-58.1875,31.25,89.5625,-0.002441406,0.2265625,-0.03613281,-0.1259766,0.1938477,-0.2460938
4193,-67.1875,33,102.5625,-0.07226563,0.1679688,-0.01660156,-0.1201172,0.1987305,-0.2421875
4197,-74.5,31.875,114.6875,-0.1186523,0.08251953,-0.02441406,-0.1103516,0.2075195,-0.2392578
4201,-79.375,34.125,123.125,-0.1572266,0.02441406,-0.01318359,-0.09863281,0.2163086,-0.2353516
4205,-90.3125,37.625,137.1875,-0.2661133,-0.02978516,-0.04394531,-0.09033203,0.2211914,-0.230957
4209,-107,42.125,152,-0.4013672,-0.1269531,-0.04394531,-0.07568359,0.2338867,-0.2246094
4213,-116.625,41.5,159.9375,-0.5722656,-0.2939453,0.02880859,-0.05908203,0.2426758,-0.2163086
4217,-110.25,27.6875,152.8125,-0.6728516,-0.421875,0.08251953,-0.05078125,0.2475586,-0.2109375
4221,-99.5,12.875,158.3125,-0.796875,-0.6318359,0.04785156,-0.03515625,0.2539063,-0.2011719
4225,-91.125,7.8125,168.4375,-0.796875,-0.5620117,0.06347656,-0.02001953,0.2612305,-0.1943359
4229,-85.5,7.125,179.4375,-0.8198242,-0.6279297,0.05566406,-0.0078125,0.262207,-0.1889648
4233,-75.9375,2.1875,185.25,-0.8666992,-0.6591797,0.02099609,0.009277344,0.2661133,-0.1821289
4237,-67.375,-4,180.8125,-0.9130859,-0.6005859,-0.001464844,0.02587891,0.2675781,-0.175293
4241,-74.875,-8.5,175.25,-0.9750977,-0.4726563,-0.04736328,0.03662109,0.2675781,-0.1699219
4245,-102,-6.5,177.125,-1.091309,-0.371582,-0.1323242,0.05322266,0.2661133,-0.1660156
4250,-137.875,-1.5625,189,-1.199707,-0.4179688,-0.1474609,0.06982422,0.2675781,-0.1547852
4254,-160.75,-3.75,210.25,-1.397461,-0.6435547,-0.1821289,0.08447266,0.2675781,-0.1469727
4258,-156.5625,-8.4375,232.5625,-1.428223,-0.9619141,-0.1630859,0.105957,0.2661133,-0.1333008
4262,-122.5,-12.3125,229.0625,-1.475098,-1.129395,-0.1474609,0.1259766,0.2587891,-0.1196289
4266,-83.8125,-19.75,210.0625,-1.498047,-1.05127,-0.1743164,0.1376953,0.2539063,-0.1166992
4270,-74.875,-16,215.8125,-1.498047,-0.9658203,-0.2128906,0.1557617,0.2451172,-0.1113281
4274,-71.5,-5.375,224,-1.501953,-1.032227,-0.2055664,0.1748047,0.2324219,-0.1074219
4278,-53.4375,-2,238.6875,-1.54834,-1.210938,-0.1899414,0.1865234,0.2226563,-0.1044922
4282,-5.0625,4.125,237.4375,-1.494141,-1.265137,-0.05517578,0.203125,0.2075195,-0.1035156
4286,26.8125,5.9375,227.5,-1.591309,-0.9350586,-0.112793,0.2202148,0.1875,-0.1020508
4290,-7.375,8.4375,220.75,-1.583496,-0.6279297,-0.2055664,0.2294922,0.1762695,-0.1044922
4294,-66.5,13.6875,210.8125,-1.603027,-0.7719727,-0.2324219,0.2412109,0.1586914,-0.105957
4298,-89.25,9.125,195.0625,-1.614258,-1.121582,-0.2246094,0.2543945,0.1450195,-0.1005859
4302,-60.125,5.6875,167.375,-1.494141,-1.300293,-0.1860352,0.2592773,0.1337891,-0.09765625
4306,-34.6875,4.3125,157.9375,-1.537109,-1.059082,-0.2553711,0.2666016,0.1210938,-0.09375
4310,-55.9375,11.625,172.625,-1.463379,-0.8959961,-0.2939453,0.2749023,0.1074219,-0.09521484
4314,-92.8125,17.875,181.75,-1.505859,-1.012695,-0.34375,0.2783203,0.09863281,-0.08984375
4318,-114.375,15.625,180.625,-1.505859,-1.269043,-0.3286133,0.2866211,0.08642578,-0.09082031
4322,-112.25,8.3125,161.625,-1.505859,-1.513672,-0.3168945,0.2939453,0.07128906,-0.08691406
4326,-93.75,-8.875,132.875,-1.447754,-1.661621,-0.3286133,0.2973633,0.06494141,-0.09082031
4330,-75.5625,-25.125,109.875,-1.343262,-1.781738,-0.394043,0.3007813,0.05761719,-0.09521484
4334,-23.75,-25.1875,97.875,-1.114746,-3.681641,-0.5244141,0.3046875,0.05371094,-0.105957
4338,85.375,-28.75,-18.3125,-1.095215,-2.39209,-0.6513672,0.3046875,0.05126953,-0.1113281
4342,42.6875,-34.25,-23.25,-1.187988,-1.548828,-0.7133789,0.3022461,0.05126953,-0.1142578
4346,32.25,-22.5,-32.875,-1.005859,-1.544922,-0.4863281,0.3007813,0.04638672,-0.1113281
4350,51,2,-50.375,-0.9516602,-1.649902,-0.4130859,0.2998047,0.04492188,-0.1113281
4354,91.25,5.375,-76.3125,-1.203613,-1.750977,-0.4208984,0.2998047,0.04638672,-0.1074219
4358,144.125,-3.3125,-102.8125,-1.265625,-1.634277,-0.4208984,0.2983398,0.05126953,-0.1020508
4362,175.0625,-5.125,-119.8125,-1.347168,-1.34668,-0.4555664,0.2949219,0.05615234,-0.1035156
4366,175.4375,-1.25,-133.4375,-1.347168,-1.105957,-0.4399414,0.2890625,0.06396484,-0.105957
4370,151.3125,8.875,-149.125,-1.432129,-0.8613281,-0.324707,0.2856445,0.07275391,-0.1088867
4374,99.25,6.3125,-161.4375,-1.734375,-0.7133789,-0.2475586,0.2817383,0.07861328,-0.1098633
4379,39.375,-11,-172.25,-1.827637,-0.8725586,-0.1743164,0.2773438,0.09130859,-0.112793
4383,20.5625,-25.1875,-187.1875,-1.769531,-1.222656,-0.1166992,0.2709961,0.1049805,-0.1157227
4387,34.0625,-26.8125,-200.375,-1.827637,-1.408691,-0.1206055,0.2641602,0.1176758,-0.112793
4391,53.3125,-27.8125,-215.1875,-1.800293,-1.393555,-0.1743164,0.2568359,0.1337891,-0.1210938
4395,63.1875,-23.9375,-231.3125,-1.734375,-1.288574,-0.2553711,0.2436523,0.1499023,-0.125
4399,62.875,-16.625,-240,-1.777344,-1.191406,-0.2553711,0.2353516,0.1625977,-0.1279297
4403,59.8125,-11,-240.5,-1.769531,-1.140625,-0.2514648,0.2202148,0.1801758,-0.1303711
4407,61.375,-7.1875,-244.5625,-1.858398,-1.105957,-0.2285156,0.2045898,0.1987305,-0.1347656
4411,69.75,-9.125,-252.25,-1.928223,-1.098145,-0.2016602,0.1928711,0.2084961,-0.137207
4415,84.0625,-13.625,-258.625,-1.881836,-1.043945,-0.1708984,0.1713867,0.2236328,-0.144043
4419,98.5,-18.5625,-265.375,-1.769531,-0.9116211,-0.1938477,0.1499023,0.2363281,-0.1508789
4423,108.375,-22.375,-272,-1.723145,-0.7792969,-0.2207031,0.1318359,0.2436523,-0.1538086
4427,116,-24.625,-270.375,-1.641602,-0.6591797,-0.2324219,0.1079102,0.2509766,-0.1660156
4431,128.6875,-25.8125,-266.1875,-1.498047,-0.5737305,-0.2475586,0.08300781,0.2548828,-0.1738281
4435,143.9375,-24.125,-264.375,-1.312012,-0.3950195,-0.2670898,0.06542969,0.2573242,-0.1821289
4439,140,-18.4375,-261.3125,-1.227051,-0.1694336,-0.2324219,0.04052734,0.2539063,-0.1943359
4443,123.4375,-22.4375,-256.75,-1.180664,-0.04541016,-0.1630859,0.01757813,0.2524414,-0.2041016
4447,112.8125,-29.9375,-245.5,-1.025391,-0.002441406,-0.0859375,0.0009765625,0.2485352,-0.2094727
4451,111,-28.3125,-218.875,-0.8432617,0.1137695,-0.03222656,-0.0234375,0.2426758,-0.2216797
4455,103.9375,-20.125,-179.3125,-0.7036133,0.2924805,0.005859375,-0.04150391,0.2338867,-0.2285156
4459,87.9375,-15.1875,-146.125,-0.6030273,0.5332031,0.01367188,-0.05078125,0.2275391,-0.2338867
4463,62.375,-19.1875,-117.5625,-0.5175781,0.5097656,-0.01318359,-0.06396484,0.2197266,-0.2436523
4467,39.4375,-18.0625,-102.25,-0.3203125,0.5488281,0.05175781,-0.07324219,0.2148438,-0.2460938
4471,18.8125,-13.375,-94.875,-0.2543945,0.6108398,0.05957031,-0.07958984,0.2124023,-0.2475586
4475,-4.125,-12.9375,-78.8125,-0.230957,0.6381836,0.06347656,-0.08789063,0.2099609,-0.2490234
4479,-20.8125,-13.5625,-51.125,-0.1264648,0.6225586,0.06738281,-0.09375,0.2060547,-0.2446289
4483,-27.6875,-9,-20.125,-0.05273438,0.5566406,0.1132813,-0.09716797,0.2060547,-0.2446289
4487,-28.5,-7.1875,1.6875,-0.02197266,0.5253906,0.09033203,-0.09716797,0.2099609,-0.2421875
4491,-30.875,-9.8125,11.5625,-0.03320313,0.4946289,0.07128906,-0.09863281,0.2114258,-0.2407227
4495,-33.8125,-15,18.5,-0.04492188,0.4165039,0.07519531,-0.09716797,0.2124023,-0.237793
4499,-29.6875,-17.6875,27,-0.03320313,0.3120117,0.125,-0.09863281,0.2163086,-0.2353516
4503,-17.1875,-20.6875,37.4375,-0.04492188,0.2456055,0.125,-0.09716797,0.2172852,-0.2324219
4508,-4.0625,-23.1875,52.1875,-0.04882813,0.253418,0.125,-0.09619141,0.2197266,-0.230957
4512,-1.25,-19.9375,69.6875,-0.09521484,0.300293,0.08642578,-0.09228516,0.2226563,-0.2285156
4516,-14.1875,-13.3125,91.25,-0.1108398,0.3193359,0.05175781,-0.08789063,0.2236328,-0.2285156
4520,-36.0625,-3.3125,111.375,-0.1420898,0.2651367,0.03662109,-0.08300781,0.2275391,-0.2285156
4524,-57.5625,1.875,126.125,-0.2426758,0.1484375,0.04052734,-0.07324219,0.2324219,-0.2246094
4528,-75.625,0.0625,132.625,-0.3666992,0.03222656,0.05957031,-0.06152344,0.2373047,-0.2202148
4532,-86.4375,-11.125,131.8125,-0.4750977,-0.09960938,0.03662109,-0.05419922,0.2436523,-0.2163086
4536,-91.375,-16.5625,136.0625,-0.4790039,-0.2431641,0.03662109,-0.04394531,0.2509766,-0.2080078
4540,-86,-13.25,148.375,-0.5292969,-0.387207,0.009765625,-0.03320313,0.2548828,-0.199707
4544,-69.125,-6.375,162,-0.5874023,-0.4492188,0.02880859,-0.0234375,0.2587891,-0.1928711
4548,-55.375,0.1875,176.0625,-0.7734375,-0.5893555,0.01367188,-0.006835938,0.262207,-0.1889648
4552,-47.625,-2.25,179.3125,-0.8432617,-0.4453125,0.005859375,0.006835938,0.2675781,-0.1850586
4556,-51.1875,-3,178.3125,-0.8666992,-0.3793945,-0.04394531,0.01757813,0.2661133,-0.1821289
4560,-69.8125,2.3125,180.375,-0.9169922,-0.3637695,-0.07470703,0.03564453,0.2651367,-0.175293
4564,-89.25,5.3125,196.625,-1.029297,-0.484375,-0.1435547,0.05322266,0.2651367,-0.1728516
4568,-96,10.6875,210.9375,-1.067871,-0.6474609,-0.1401367,0.06640625,0.2612305,-0.168457
4572,-90.1875,13.4375,212.4375,-1.129883,-0.8417969,-0.1782227,0.08544922,0.2612305,-0.1577148
4576,-74.5625,17.8125,210.1875,-1.168945,-0.9541016,-0.1743164,0.1079102,0.2563477,-0.1508789
4580,-61.4375,25.9375,213.5,-1.195801,-0.9541016,-0.1938477,0.1201172,0.2509766,-0.1469727
4584,-54.9375,41.3125,205.875,-1.285156,-0.8261719,-0.2016602,0.1391602,0.2426758,-0.1401367
4588,-67.0625,51.5,204.6875,-1.475098,-0.6977539,-0.3168945,0.1591797,0.2324219,-0.1347656
4592,-97.875,54.125,216.375,-1.610352,-0.7211914,-0.3666992,0.1738281,0.2250977,-0.1333008
4596,-122.625,54.875,225,-1.665039,-0.9233398,-0.3823242,0.1889648,0.2138672,-0.1225586
4600,-119.3125,49.0625,212.8125,-1.711426,-1.133301,-0.3168945,0.2080078,0.2011719,-0.1098633
4604,-96.6875,40.8125,188.875,-1.695801,-1.144531,-0.2978516,0.2177734,0.1938477,-0.1035156
4608,-89.625,41.375,178.875,-1.687988,-1.05127,-0.3325195,0.230957,0.1801758,-0.09667969
4612,-89.25,38.8125,180.125,-1.703613,-1.140625,-0.3168945,0.2402344,0.1674805,-0.08447266
4616,-74.625,32.875,182.8125,-1.672363,-1.249512,-0.2744141,0.2485352,0.1601563,-0.08154297
4620,-48.1875,28.5625,178.375,-1.637695,-1.253418,-0.2055664,0.2592773,0.1425781,-0.07617188
4624,-26.5625,19.375,175.125,-1.641602,-1.136719,-0.1669922,0.2675781,0.1298828,-0.07324219
4628,-23.75,12.4375,172.3125,-1.606445,-0.9506836,-0.128418,0.2724609,0.1210938,-0.07177734
4632,-65,1.6875,156.6875,-1.606445,-0.7211914,-0.1782227,0.2817383,0.1064453,-0.07080078
4637,-118.375,-21.875,143.375,-1.571777,-0.9506836,-0.2514648,0.2856445,0.09521484,-0.07080078
4641,-136.5625,-39,127.1875,-1.397461,-1.265137,-0.2436523,0.2890625,0.09130859,-0.07080078
4645,-117.1875,-40,104.0625,-1.257813,-1.42041,-0.2285156,0.2949219,0.08496094,-0.07617188
4649,-84.5625,-42.375,112,-0.6845703,-6.40918,-0.7402344,0.2963867,0.08642578,-0.08007813
4653,259,-25.75,-105.875,-1.32373,-3.720703,-0.3476563,0.2949219,0.08496094,-0.08984375
4657,127.8125,-59.4375,-40.125,-1.374023,-1.102051,-0.9672852,0.2915039,0.08886719,-0.1044922
4661,-43.75,-82.375,-36.4375,-0.9907227,-0.02197266,-0.7094727,0.2890625,0.08642578,-0.1113281
4665,-158.625,-81.0625,-26.8125,-0.7114258,-0.2275391,-0.6630859,0.2866211,0.08740234,-0.1142578
4669,-226.9375,-42.8125,17,-0.6225586,-0.8457031,-0.3823242,0.2866211,0.08886719,-0.1142578
4673,-181.6875,9.5625,5.1875,-0.4711914,-1.97998,-0.2207031,0.2866211,0.08642578,-0.1044922
4677,-41.4375,41.25,-61.8125,-0.831543,-2.570801,-0.1708984,0.2890625,0.08642578,-0.09667969
4681,113.3125,25.5625,-123.1875,-1.215332,-2.32959,-0.2822266,0.2856445,0.08984375,-0.08984375
4685,213.9375,6.8125,-158.1875,-1.312012,-1.692383,-0.4013672,0.2807617,0.1000977,-0.08691406
4689,231.75,20.4375,-154.125,-1.374023,-1.05127,-0.4824219,0.2758789,0.1064453,-0.09228516
4693,169.5,28.8125,-139.1875,-1.537109,-0.5737305,-0.5092773,0.269043,0.1137695,-0.09667969
4697,67.5625,16.25,-123.375,-1.556152,-0.6162109,-0.5131836,0.2641602,0.1235352,-0.09765625
4701,10.5625,4.8125,-137.75,-1.479004,-1.148438,-0.3706055,0.2617188,0.1289063,-0.09912109
4705,11.9375,-3.75,-164.9375,-1.541016,-1.61084,-0.3476563,0.2543945,0.1401367,-0.09667969
4709,44.9375,-14.25,-186.4375,-1.57959,-1.820801,-0.4091797,0.2460938,0.1547852,-0.09912109
4713,78.25,-10.5,-209.5,-1.505859,-1.735352,-0.4516602,0.2392578,0.1650391,-0.1020508
4717,88.4375,-2.3125,-231.4375,-1.583496,-1.412598,-0.5131836,0.2270508,0.1801758,-0.1074219
4721,77.5,-2.25,-245.1875,-1.65332,-1.199219,-0.5244141,0.2104492,0.1972656,-0.1113281
4725,66.6875,1.4375,-250.8125,-1.67627,-1.105957,-0.4667969,0.199707,0.2075195,-0.1157227
4729,67.3125,7,-246.3125,-1.680176,-1.105957,-0.3901367,0.1796875,0.2236328,-0.1157227
4733,79.6875,13.25,-242.75,-1.668457,-1.070801,-0.2978516,0.1606445,0.2387695,-0.1210938
4737,97.6875,15.75,-240.3125,-1.661133,-1.036133,-0.2167969,0.1474609,0.2460938,-0.1264648
4741,110.4375,11.1875,-236.5625,-1.657227,-0.8881836,-0.2324219,0.1259766,0.2548828,-0.1347656
4745,105.75,7,-242.375,-1.595215,-0.7680664,-0.2167969,0.1069336,0.262207,-0.1416016
4749,105.8125,5.6875,-253.8125,-1.567871,-0.7211914,-0.1474609,0.09033203,0.2651367,-0.1469727
4753,118.9375,-2.75,-248.5,-1.501953,-0.6474609,-0.07861328,0.06542969,0.2700195,-0.1547852
4757,137.5,-8.8125,-233.4375,-1.385742,-0.550293,-0.04003906,0.04248047,0.2685547,-0.1645508
4761,143.6875,-8.6875,-216.6875,-1.253906,-0.355957,-0.02050781,0.02734375,0.2675781,-0.1738281
4766,132.5625,-14.4375,-204.75,-1.172852,-0.2275391,-0.04394531,0.008300781,0.2636719,-0.1865234
4770,128.9375,-26.125,-200.625,-1.052734,-0.1967773,-0.005371094,-0.01269531,0.2573242,-0.1972656
4774,138.5625,-33.375,-192.25,-0.8974609,-0.1191406,0.03662109,-0.0234375,0.2539063,-0.2055664
4778,145.5625,-33.9375,-182.5625,-0.8164063,0.06298828,0.05566406,-0.04492188,0.2426758,-0.2148438
4782,134.5625,-33.25,-160.3125,-0.730957,0.3544922,0.04785156,-0.06152344,0.2324219,-0.2270508
4786,115.1875,-36.5,-135,-0.5991211,0.3896484,-0.005371094,-0.07128906,0.2260742,-0.2338867
4790,87.3125,-40.3125,-101.375,-0.3974609,0.6420898,-0.02832031,-0.08056641,0.2138672,-0.2407227
4794,59.6875,-38.1875,-78.125,-0.2231445,0.6772461,-0.06689453,-0.09228516,0.2050781,-0.2460938
4798,34.5625,-28.625,-64.3125,-0.06054688,0.6884766,-0.0859375,-0.09863281,0.2036133,-0.2490234
4802,15.1875,-22.625,-56.9375,0.004882813,0.6923828,-0.1245117,-0.1030273,0.2011719,-0.2490234
4806,-5.75,-19.3125,-43.5,0.06298828,0.7275391,-0.1401367,-0.1113281,0.1962891,-0.2490234
4810,-28.6875,-9.625,-17.5,0.08251953,0.6923828,-0.1166992,-0.112793,0.1962891,-0.2490234
4814,-43,1.375,12.75,0.05908203,0.5991211,-0.09765625,-0.112793,0.1987305,-0.2460938
4818,-43.125,6.8125,39.125,0.02441406,0.4555664,-0.07080078,-0.112793,0.2036133,-0.2421875
4822,-30.8125,8.4375,53.4375,0.05908203,0.3427734,-0.07080078,-0.109375,0.2050781,-0.2421875
4826,-15.1875,9.5625,56.875,0.07861328,0.3388672,-0.08203125,-0.1054688,0.2084961,-0.2392578
4830,-11.25,15.25,67.3125,0.0009765625,0.3857422,-0.07861328,-0.09863281,0.2114258,-0.2392578
4834,-19.25,21.9375,88.75,-0.06835938,0.3701172,-0.07080078,-0.09472656,0.2148438,-0.237793
4838,-32.3125,31.8125,114.4375,-0.1303711,0.3120117,-0.05517578,-0.08544922,0.21875,-0.2392578
4842,-47.125,43.125,136.125,-0.215332,0.2456055,-0.04394531,-0.07568359,0.2236328,-0.2353516
4846,-63.5,45.6875,150.8125,-0.3510742,0.1333008,-0.02050781,-0.06494141,0.2260742,-0.230957
4850,-72.8125,39.125,155.0625,-0.4750977,-0.03369141,0.005859375,-0.04980469,0.2338867,-0.2299805
4854,-74.5,31.625,156.6875,-0.5488281,-0.1616211,0.009765625,-0.03417969,0.2387695,-0.2231445
4858,-76.625,28.875,161.3125,-0.6376953,-0.2392578,-0.005371094,-0.02246094,0.2426758,-0.21875
4862,-76.125,30.8125,169.6875,-0.7075195,-0.340332,0.005859375,-0.006835938,0.2475586,-0.2119141
4866,-65.6875,36.8125,174.1875,-0.7773438,-0.387207,0.03662109,0.009277344,0.25,-0.2080078
4870,-54.3125,42.75,179.25,-0.8198242,-0.2275391,0.07910156,0.02246094,0.2524414,-0.2011719
4874,-45.6875,40.5625,176.625,-0.9946289,-0.2470703,-0.005371094,0.04052734,0.2485352,-0.1987305
4878,-58.9375,36.75,175.375,-1.133789,-0.09570313,-0.109375,0.05810547,0.2485352,-0.1958008
4882,-98.25,36.8125,185.6875,-1.20752,-0.06054688,-0.2016602,0.07128906,0.2475586,-0.1918945
4886,-134.75,42.1875,197.6875,-1.265625,-0.1850586,-0.2363281,0.08789063,0.2475586,-0.1796875
4890,-151.75,49.6875,217.0625,-1.397461,-0.4140625,-0.2744141,0.1079102,0.2460938,-0.1674805
4895,-153.9375,58.8125,246.3125,-1.54834,-0.6123047,-0.2744141,0.1235352,0.2436523,-0.1577148
4899,-150.75,62.1875,265.6875,-1.777344,-0.8183594,-0.2978516,0.1484375,0.2363281,-0.144043
4903,-143.9375,50.4375,258.625,-1.858398,-1.016602,-0.3286133,0.1713867,0.2275391,-0.1279297
4907,-129.25,42.125,229.875,-1.777344,-1.062988,-0.3666992,0.1865234,0.2172852,-0.1225586
4911,-127.75,41.5625,202.25,-1.87793,-0.8920898,-0.3823242,0.2045898,0.2060547,-0.1113281
4915,-146.4375,33.375,203.875,-2.001953,-0.8920898,-0.4169922,0.2211914,0.1948242,-0.09912109
4919,-150.75,24.3125,219.1875,-1.928223,-1.167969,-0.4091797,0.2285156,0.1835938,-0.09228516
4923,-124,24.0625,225.5,-1.847168,-1.331055,-0.3862305,0.2426758,0.1660156,-0.08154297
4927,-90.625,23.4375,228.3125,-1.812012,-1.34668,-0.3862305,0.2543945,0.1523438,-0.07470703
4931,-65.0625,19.875,222.125,-1.757813,-1.323242,-0.378418,0.2617188,0.1386719,-0.06787109
4935,-54.625,13,207.5,-1.672363,-1.308105,-0.4052734,0.2734375,0.1201172,-0.06640625
4939,-53.75,10.625,185,-1.603027,-1.26123,-0.3901367,0.2817383,0.1035156,-0.06640625
4943,-61.5625,8.0625,168.0625,-1.606445,-1.191406,-0.3706055,0.2866211,0.09375,-0.06396484
4947,-87.5,0.5625,161.0625,-1.599121,-1.175781,-0.3398438,0.2939453,0.08105469,-0.06640625
4951,-113.9375,-11.25,159.6875,-1.544922,-1.374023,-0.3632813,0.2983398,0.06884766,-0.06640625
4955,-128.375,-20.4375,140.875,-1.443848,-1.580078,-0.3666992,0.3046875,0.06396484,-0.06933594
4959,146.75,-11.1875,97.5,-0.9365234,-6.051758,0.6791992,0.309082,0.06005859,-0.07617188
4963,191.875,-62.9375,-76.75,-1.788574,-2.687012,-0.8168945,0.3056641,0.06103516,-0.09082031
4967,31.4375,-91.0625,-42,-0.9790039,-0.6083984,-0.7207031,0.3032227,0.06103516,-0.09765625
4971,-85.5625,-66.5625,-54.3125,-0.6376953,-0.5581055,-0.8168945,0.3007813,0.06103516,-0.1020508
4975,-137.8125,-12.6875,-29.8125,-0.6030273,-1.086426,-0.3632813,0.2983398,0.06494141,-0.09765625
4979,-101.3125,32.25,-27.0625,-0.8588867,-1.618652,-0.309082,0.3007813,0.0625,-0.09375
4983,-23.4375,30.0625,-55.375,-1.141602,-1.991699,-0.2285156,0.2983398,0.06884766,-0.08300781
4987,89,12.75,-91.125,-1.168945,-2.084961,-0.1401367,0.2973633,0.07275391,-0.07617188
4991,166.75,8.125,-118.6875,-1.261719,-1.556641,-0.2167969,0.2939453,0.07373047,-0.07470703
4995,171.5,13.8125,-124.125,-1.362793,-1.125488,-0.2822266,0.2880859,0.08398438,-0.08007813
4999,104.4375,27.6875,-113.4375,-1.455566,-0.7680664,-0.324707,0.2856445,0.08984375,-0.08154297
5003,-24.625,44.6875,-106.8125,-1.645508,-0.9194336,-0.3286133,0.2817383,0.09619141,-0.08007813
5007,-112.6875,49.8125,-130,-1.92041,-1.661621,-0.2744141,0.2773438,0.1049805,-0.07177734
5011,-86.125,40.625,-182.1875,-2.12207,-2.555176,-0.1782227,0.2749023,0.1225586,-0.0625
5015,25.75,17.375,-233.5625,-2.362305,-2.862305,-0.1630859,0.2675781,0.1347656,-0.05859375
5019,144.5625,-8,-260.3125,-2.579102,-2.349121,-0.2397461,0.2558594,0.1547852,-0.05859375
5024,217.1875,-33.6875,-274.1875,-2.660645,-1.649902,-0.359375,0.2412109,0.1748047,-0.06933594
5028,244.25,-66.25,-273.6875,-2.672363,-1.032227,-0.4975586,0.2285156,0.1899414,-0.08447266
5032,233.75,-92,-268.5,-2.51709,-0.5737305,-0.5825195,0.2080078,0.2060547,-0.1035156
5036,198.875,-102.375,-271.0625,-2.276855,-0.2548828,-0.6132813,0.1855469,0.21875,-0.1264648
5040,162.5,-104.9375,-280.3125,-2.025391,-0.1655273,-0.6171875,0.1674805,0.2275391,-0.1386719
5044,139.9375,-103.5625,-279.375,-1.858398,-0.1499023,-0.59375,0.1401367,0.2387695,-0.1547852
5048,129.0625,-100.9375,-261.9375,-1.691895,-0.2045898,-0.5092773,0.1118164,0.2460938,-0.1674805
5052,135.8125,-93.5,-249,-1.509766,-0.2241211,-0.4594727,0.09375,0.2460938,-0.1782227
5056,144.875,-87.6875,-238.875,-1.362793,-0.1308594,-0.4013672,0.06787109,0.25,-0.1918945
5060,137.125,-84.9375,-228.6875,-1.230957,0.05908203,-0.4360352,0.04248047,0.2485352,-0.206543
5064,107.9375,-85.375,-217.875,-1.087402,0.171875,-0.4321289,0.02587891,0.2460938,-0.2119141
5068,79,-79.8125,-209.25,-0.9477539,0.1484375,-0.359375,0.003417969,0.2426758,-0.21875
5072,69.3125,-71.25,-191.1875,-0.7929688,0.008789063,-0.2822266,-0.02001953,0.2373047,-0.2255859
5076,84.75,-57.125,-180.5,-0.6342773,-0.01025391,-0.2055664,-0.03320313,0.2348633,-0.2299805
5080,99.8125,-39.125,-173.6875,-0.5292969,0.07470703,-0.1591797,-0.05224609,0.2275391,-0.2368164
5084,103.8125,-32.6875,-156.3125,-0.4750977,0.203125,-0.1206055,-0.06738281,0.21875,-0.2436523
5088,95,-36.9375,-130.8125,-0.378418,0.2768555,-0.1206055,-0.07714844,0.2099609,-0.2475586
5092,85.5625,-39.9375,-110.3125,-0.2041016,0.2807617,-0.08203125,-0.08789063,0.2011719,-0.2543945
5096,77.3125,-37.8125,-98.1875,-0.1030273,0.3232422,-0.08984375,-0.09863281,0.1938477,-0.2597656
5100,62.375,-35.125,-88.375,-0.03710938,0.4086914,-0.08984375,-0.1044922,0.1860352,-0.2597656
5104,35.5625,-27.9375,-78.8125,0.07861328,0.4868164,-0.06689453,-0.1152344,0.1801758,-0.2636719
5108,4.3125,-18.375,-70.625,0.1484375,0.5058594,-0.04394531,-0.1210938,0.1748047,-0.2636719
5112,-20.6875,-9,-51.1875,0.1171875,0.4399414,0.02099609,-0.1259766,0.1738281,-0.2626953
5116,-31.3125,-1.1875,-22.4375,0.06689453,0.3310547,0.09814453,-0.128418,0.1748047,-0.2612305
5120,-30.3125,2.75,2,0.07470703,0.2651367,0.140625,-0.128418,0.1748047,-0.2583008
5124,-26.6875,0.8125,13.75,0.05126953,0.2265625,0.1210938,-0.128418,0.1772461,-0.2583008
5128,-24,-4.0625,19.0625,0.09033203,0.2109375,0.1171875,-0.1269531,0.1801758,-0.2558594
5132,-27.0625,-1.6875,26.5625,0.1289063,0.2338867,0.1132813,-0.1259766,0.1826172,-0.2568359
5136,-40.5,4.875,43.125,0.1132813,0.2109375,0.09033203,-0.1245117,0.1850586,-0.2529297
5140,-59.375,12.125,65.25,0.140625,0.15625,0.05566406,-0.1201172,0.1899414,-0.25
5144,-75.8125,20.25,80.1875,0.1367188,0.07861328,0.03662109,-0.1137695,0.1987305,-0.2460938
5148,-88.875,32.6875,91.0625,0.08251953,-0.01416016,0.04443359,-0.109375,0.2050781,-0.2446289
5153,-101.0625,41.5625,99.9375,-0.06445313,-0.1035156,0.05566406,-0.09960938,0.2124023,-0.2392578
5157,-111.4375,39.3125,105.125,-0.1342773,-0.2084961,0.04052734,-0.08886719,0.2226563,-0.230957
5161,-115.6875,34.9375,110.0625,-0.2080078,-0.371582,0.07910156,-0.08300781,0.2314453,-0.2246094
5165,-103,33.5625,112.875,-0.2543945,-0.5073242,0.1132813,-0.07128906,0.2397461,-0.2177734
5169,-86.375,32.75,118.0625,-0.2543945,-0.4414063,0.09814453,-0.05908203,0.2460938,-0.2109375
5173,-74.875,34.1875,124.75,-0.3242188,-0.4375,0.07910156,-0.04833984,0.2485352,-0.2041016
5177,-78.375,39.25,140.5,-0.4208984,-0.402832,0.01367188,-0.03662109,0.2573242,-0.199707
5181,-85.3125,44,154.25,-0.4985352,-0.4257813,-0.009277344,-0.02099609,0.2597656,-0.1928711
5185,-91.75,47.75,166.625,-0.6069336,-0.5229492,0.001953125,-0.009277344,0.2636719,-0.1889648
5189,-89.375,43.4375,172.9375,-0.7192383,-0.6474609,-0.02441406,0.008300781,0.2661133,-0.1796875
5193,-77.875,36.4375,166.4375,-0.7114258,-0.6899414,-0.03222656,0.02587891,0.2685547,-0.1738281
5197,-69.4375,36.3125,157.125,-0.8085938,-0.6357422,-0.04003906,0.03662109,0.2700195,-0.1674805
5201,-70.3125,36.6875,159.5,-0.9130859,-0.5893555,-0.06298828,0.0546875,0.2700195,-0.1591797
5205,-72.6875,34.4375,169.75,-1.009766,-0.5893555,-0.07080078,0.06982422,0.2675781,-0.15625
5209,-72.75,29.1875,181.0625,-1.052734,-0.6083984,-0.0859375,0.08447266,0.2651367,-0.1494141
5213,-74.3125,26.0625,185.9375,-1.083496,-0.6162109,-0.1323242,0.1010742,0.2597656,-0.144043
5217,-82.875,26.0625,184.625,-1.15332,-0.6318359,-0.1743164,0.1201172,0.2548828,-0.1347656
