Packet number,Gyroscope X (deg/s),Gyroscope Y (deg/s),Gyroscope Z (deg/s),Accelerometer X (g),Accelerometer Y (g),Accelerometer Z (g),Magnetometer X (G),Magnetometer Y (G),Magnetometer Z (G)
0,7.4375,-12.5,8.3125,0.2333984,-0.9775391,-0.1435547,-0.1079102,0.2963867,-0.08300781
4,7.6875,-12.1875,8.125,0.2373047,-0.9736328,-0.1474609,-0.1054688,0.2988281,-0.08154297
8,9.6875,-11.125,8.5,0.2333984,-0.9775391,-0.1435547,-0.1054688,0.2973633,-0.08300781
12,11.5625,-12.25,7.1875,0.2255859,-0.9541016,-0.1669922,-0.1030273,0.3012695,-0.08447266
16,9.8125,-13.75,7.5,0.2177734,-0.9350586,-0.1743164,-0.1020508,0.3012695,-0.08544922
20,7.9375,-14.3125,8.75,0.2294922,-0.9350586,-0.1708984,-0.1010742,0.3012695,-0.08447266
24,6.375,-11.1875,9.875,0.2373047,-0.9506836,-0.1708984,-0.1010742,0.3022461,-0.08544922
28,4.125,-6.5625,13.3125,0.2216797,-0.9350586,-0.1743164,-0.09863281,0.3037109,-0.08691406
32,1.25,-3.375,14.625,0.2138672,-0.9506836,-0.1899414,-0.09619141,0.3037109,-0.08691406
36,-2.3125,-3.8125,12.9375,0.2255859,-0.9350586,-0.2246094,-0.09228516,0.3061523,-0.08691406
40,-4.75,-2.875,4.9375,0.2758789,-0.9467773,-0.1977539,-0.09472656,0.3061523,-0.08691406
45,-3.625,0.8125,4.4375,0.3149414,-1.016602,-0.1899414,-0.09619141,0.3046875,-0.08544922
49,-2,3,5.75,0.4311523,-1.020508,-0.2207031,-0.09472656,0.3061523,-0.08691406
53,-0.375,8.75,-3.4375,0.578125,-0.9467773,-0.2055664,-0.09619141,0.3046875,-0.08837891
57,0.4375,19.75,-18.4375,0.675293,-0.9233398,-0.2324219,-0.09716797,0.3037109,-0.08544922
61,-1.4375,19.4375,-29.625,0.7568359,-0.9658203,-0.2783203,-0.1020508,0.2998047,-0.08544922
65,0.375,18.25,-52.0625,0.9311523,-0.9428711,-0.2592773,-0.1103516,0.293457,-0.08544922
69,1.25,16.375,-71.9375,0.9970703,-0.9892578,-0.2783203,-0.1176758,0.2900391,-0.08447266
73,-0.25,4.375,-85.875,1.089844,-0.9814453,-0.2978516,-0.1293945,0.28125,-0.08007813
77,-3.875,0.75,-97.5,1.361328,-1.012695,-0.2475586,-0.1425781,0.2724609,-0.07763672
81,-7.6875,20.125,-100.75,1.63623,-1.11377,-0.1513672,-0.1508789,0.2685547,-0.07470703
85,-6.4375,47.6875,-104.4375,1.841797,-1.207031,-0.1323242,-0.1616211,0.2587891,-0.07177734
89,-1.4375,69.75,-120.1875,1.922852,-1.199219,-0.1630859,-0.1699219,0.2524414,-0.07324219
93,-0.375,75.9375,-148,1.918945,-1.21875,-0.2553711,-0.1772461,0.2436523,-0.07470703
97,-3.0625,73.1875,-174.5625,1.961914,-1.366211,-0.2900391,-0.1889648,0.2363281,-0.07763672
101,-5.0625,74.4375,-196.4375,2.02002,-1.576172,-0.3476563,-0.203125,0.2260742,-0.08154297
105,-7,84.0625,-209.8125,2.116699,-1.781738,-0.3286133,-0.2114258,0.2172852,-0.08154297
109,-7.8125,108.1875,-222.4375,2.186523,-1.890625,-0.3325195,-0.2255859,0.2036133,-0.08691406
113,-13.6875,145.75,-227.875,2.082031,-2.038574,-0.3706055,-0.2387695,0.1899414,-0.09375
117,-17.4375,177.25,-226.9375,1.810547,-2.232422,-0.4013672,-0.2470703,0.1787109,-0.1020508
121,-11.1875,188.625,-222.1875,1.481445,-2.333496,-0.4477539,-0.2553711,0.1625977,-0.1113281
125,-0.625,176.1875,-222,1.237305,-2.287109,-0.4477539,-0.2651367,0.1459961,-0.1289063
129,13.0625,155.6875,-234.5,1.082031,-2.17041,-0.359375,-0.2724609,0.1337891,-0.137207
133,26.5625,126.5,-248.875,0.9233398,-2.045898,-0.3359375,-0.2783203,0.1113281,-0.1469727
137,34.375,91,-262.625,0.8535156,-1.886719,-0.3012695,-0.2851563,0.08886719,-0.1577148
141,39.625,72.9375,-269.3125,0.9389648,-1.785645,-0.309082,-0.2915039,0.07128906,-0.1645508
145,38.375,83.125,-266.25,0.9853516,-1.67334,-0.3325195,-0.2958984,0.04248047,-0.1674805
149,35.5,103.75,-261,0.8339844,-1.564453,-0.3862305,-0.2958984,0.01513672,-0.1796875
153,29.4375,110.4375,-253.25,0.6015625,-1.389648,-0.4667969,-0.2958984,-0.003417969,-0.1865234
157,21.3125,107.4375,-247.3125,0.4506836,-1.272949,-0.4594727,-0.2915039,-0.02832031,-0.1943359
161,13.375,103.75,-237.25,0.3574219,-1.171875,-0.378418,-0.2866211,-0.05322266,-0.2041016
165,6.5,104.875,-219.6875,0.3032227,-1.086426,-0.3129883,-0.2807617,-0.06689453,-0.2109375
169,0.3125,112.5625,-202.9375,0.2373047,-0.9931641,-0.2089844,-0.2724609,-0.08837891,-0.2202148
174,1.125,117.375,-186,0.1132813,-0.9233398,-0.1401367,-0.2626953,-0.1069336,-0.2299805
178,5.6875,118.4375,-171.0625,-0.08007813,-0.8920898,-0.06298828,-0.2543945,-0.1166992,-0.2368164
182,12.625,114.625,-158.25,-0.1650391,-0.7832031,-0.04394531,-0.2412109,-0.1308594,-0.2475586
186,15.8125,104.875,-147.3125,-0.246582,-0.5854492,-0.04003906,-0.2255859,-0.1445313,-0.2514648
190,15.125,93.4375,-137.6875,-0.3510742,-0.4179688,-0.005371094,-0.2172852,-0.1533203,-0.2583008
194,13.875,82.6875,-125.0625,-0.4052734,-0.3208008,-0.009277344,-0.206543,-0.1630859,-0.2651367
198,12.75,69.6875,-112.1875,-0.4946289,-0.1811523,0.01708984,-0.1948242,-0.171875,-0.269043
202,11.9375,55.1875,-97.25,-0.5449219,-0.09179688,0.04443359,-0.1889648,-0.1782227,-0.2719727
206,10.25,42,-79.4375,-0.5795898,0.01269531,0.05957031,-0.1782227,-0.1855469,-0.2734375
210,7.625,31.375,-63.3125,-0.5834961,0.07861328,0.07519531,-0.1733398,-0.1904297,-0.2758789
214,7.25,22,-48.875,-0.5874023,0.1254883,0.07910156,-0.1699219,-0.1918945,-0.2788086
218,6.6875,14.4375,-38,-0.6225586,0.1875,0.05566406,-0.1674805,-0.1958008,-0.2773438
222,1.6875,2.9375,-24.4375,-0.6923828,0.2299805,-0.005371094,-0.1640625,-0.1982422,-0.2788086
226,-8.5625,-10,-6.5,-0.7114258,0.2338867,0.009765625,-0.1625977,-0.1982422,-0.2788086
230,-14,-15.875,14.625,-0.6494141,0.15625,0.05566406,-0.1625977,-0.1958008,-0.2773438
234,-16.625,-14.875,34.625,-0.6186523,0.1254883,0.06738281,-0.1650391,-0.1958008,-0.2773438
238,-19.75,-16.25,53.6875,-0.6225586,0.1020508,0.02880859,-0.1674805,-0.1918945,-0.2773438
242,-22.9375,-16.75,73.9375,-0.5874023,-0.006347656,0.04443359,-0.1723633,-0.1870117,-0.2788086
246,-21.625,-18.8125,92.75,-0.5874023,-0.1035156,0.005859375,-0.1791992,-0.1821289,-0.2773438
250,-20.5625,-23.625,109.625,-0.5527344,-0.1967773,-0.03613281,-0.1831055,-0.1767578,-0.2773438
254,-19.625,-29.3125,126.5625,-0.5644531,-0.2744141,-0.128418,-0.1875,-0.1669922,-0.2758789
258,-18.6875,-44.75,135.8125,-0.5683594,-0.3134766,-0.2670898,-0.1962891,-0.1567383,-0.2734375
262,-27.375,-67.3125,145.4375,-0.5488281,-0.3286133,-0.3554688,-0.2045898,-0.1494141,-0.2705078
266,-40.625,-84.5625,163.125,-0.3901367,-0.484375,-0.3632813,-0.2138672,-0.1367188,-0.2680664
270,-57.75,-83.5,190,-0.1533203,-0.6860352,-0.3168945,-0.2280273,-0.1196289,-0.2626953
274,-71.8125,-68.3125,218.1875,0.08251953,-0.9233398,-0.2285156,-0.234375,-0.1044922,-0.2597656
278,-78.75,-52.625,240.5,0.2685547,-1.105957,-0.1206055,-0.2426758,-0.08203125,-0.2568359
282,-82.1875,-41.4375,248.6875,0.4077148,-1.210938,-0.07861328,-0.2485352,-0.05712891,-0.2514648
286,-83.625,-36.1875,249.1875,0.4697266,-1.362305,-0.07080078,-0.2495117,-0.03808594,-0.2514648
290,-81.75,-39.625,247.875,0.4658203,-1.471191,-0.07861328,-0.2519531,-0.01171875,-0.2460938
294,-81,-54.0625,246,0.4697266,-1.490723,-0.09765625,-0.2519531,0.01611328,-0.2421875
298,-87.6875,-68.1875,246.5625,0.6210938,-1.552734,-0.06689453,-0.2519531,0.03271484,-0.2407227
303,-91.3125,-76.1875,247.25,0.7641602,-1.704102,-0.06298828,-0.2485352,0.05615234,-0.2299805
307,-93.0625,-86,244.1875,0.9541016,-1.809082,0.001953125,-0.2460938,0.08496094,-0.2216797
311,-90.75,-86.9375,234.875,1.198242,-1.898438,0.07519531,-0.2426758,0.1010742,-0.2148438
315,-93,-73,230.375,1.380371,-1.929688,0.159668,-0.2363281,0.1235352,-0.2041016
319,-98.4375,-48,229.9375,1.376465,-1.995605,0.1982422,-0.2255859,0.1459961,-0.1972656
323,-105.625,-30.375,235.25,1.198242,-2.081055,0.1826172,-0.21875,0.1625977,-0.1904297
327,-110.1875,-29.6875,238.875,0.9541016,-2.248047,0.1557617,-0.203125,0.1826172,-0.1835938
331,-102.8125,-75.25,239.5625,0.7758789,-2.325684,0.1289063,-0.1855469,0.2011719,-0.1728516
335,-82.9375,-137.0625,218.9375,1.082031,-2.298828,0.140625,-0.1772461,0.2124023,-0.1660156
339,-52.9375,-167.5,189.75,1.481445,-2.228516,0.2021484,-0.168457,0.2260742,-0.1523438
343,-26.1875,-163,163.25,1.566406,-2.030762,0.1826172,-0.1591797,0.2324219,-0.1425781
347,-18,-153.375,168.6875,1.481445,-1.848145,0.1020508,-0.1542969,0.2373047,-0.137207
351,-10.6875,-168.4375,183.9375,1.585938,-1.727539,-0.02832031,-0.1450195,0.2460938,-0.1289063
355,0.625,-176.3125,176.4375,1.907715,-1.541016,-0.03613281,-0.1328125,0.2548828,-0.1235352
359,18.625,-154.5625,168.3125,1.942383,-1.521484,0.005859375,-0.1245117,0.2573242,-0.125
363,33.6875,-145.125,154.125,1.818359,-1.222656,-0.1591797,-0.112793,0.2651367,-0.1264648
367,17.75,-194.75,142.625,1.895996,-1.036133,-0.4130859,-0.09716797,0.2749023,-0.137207
371,-1.6875,-267.1875,197.3125,6.716309,-1.350586,0.5869141,-0.08886719,0.2797852,-0.1494141
375,23.25,13.6875,-47.25,4.325684,-1.08252,-0.001464844,-0.08544922,0.2861328,-0.1547852
379,17.5,57.875,-160.5,1.907715,-0.6630859,-0.2553711,-0.09472656,0.2788086,-0.1469727
383,-4.5625,35.8125,-116.4375,1.430664,-0.9580078,-0.4091797,-0.1069336,0.2763672,-0.1357422
387,-28.6875,59.8125,-91.25,1.76416,-0.8066406,-0.1708984,-0.1186523,0.2700195,-0.125
391,-50.6875,114.25,-82.5,1.818359,-1.040039,-0.1206055,-0.128418,0.2636719,-0.1142578
395,-54.625,142.9375,-97.625,1.624512,-1.276855,-0.1054688,-0.1318359,0.2612305,-0.112793
399,-44.9375,142.5625,-121.8125,1.461914,-1.544922,-0.1015625,-0.1391602,0.2573242,-0.1098633
403,-25.8125,126.8125,-150.875,1.349609,-1.630371,-0.09375,-0.1435547,0.2524414,-0.1098633
407,-16.5,116.1875,-168.6875,1.306641,-1.665527,-0.04736328,-0.1518555,0.25,-0.112793
411,-12.875,102.8125,-169.625,1.229492,-1.731445,-0.07080078,-0.1616211,0.2426758,-0.1157227
415,-3.0625,88.5,-174.6875,1.306641,-1.781738,-0.0859375,-0.1733398,0.2373047,-0.1181641
419,8.8125,78.1875,-192,1.384277,-1.785645,-0.1513672,-0.1791992,0.2299805,-0.1235352
423,16.75,70.125,-214.0625,1.426758,-1.785645,-0.1669922,-0.1938477,0.2211914,-0.125
427,20.9375,72.1875,-227.25,1.450195,-1.820801,-0.1708984,-0.2089844,0.2075195,-0.1303711
432,21.9375,80.4375,-232.375,1.403809,-1.820801,-0.2089844,-0.21875,0.1972656,-0.1347656
436,24.125,82.25,-237.625,1.268066,-1.859863,-0.2246094,-0.2319336,0.1826172,-0.1425781
440,29.6875,81,-236.6875,1.22168,-1.848145,-0.2363281,-0.2460938,0.1650391,-0.1484375
444,33.875,85.0625,-240.6875,1.229492,-1.844238,-0.1860352,-0.2553711,0.1499023,-0.1523438
448,41.9375,95.75,-247.5625,1.209961,-1.852051,-0.1552734,-0.2651367,0.1298828,-0.1616211
452,46.8125,109.8125,-247.6875,1.147949,-1.754883,-0.1166992,-0.2724609,0.1049805,-0.1713867
456,50.875,123.3125,-241.5,1.070313,-1.754883,-0.128418,-0.2768555,0.08984375,-0.1767578
460,53.9375,139.375,-232.9375,1.078125,-1.665527,-0.06298828,-0.2792969,0.06396484,-0.1875
464,66.6875,148.625,-237.125,0.9736328,-1.583984,-0.09765625,-0.2783203,0.03857422,-0.2041016
468,75.625,153,-242.9375,0.9077148,-1.412598,-0.1054688,-0.2758789,0.02148438,-0.2133789
472,77.625,152.5,-243.375,0.7255859,-1.315918,-0.1474609,-0.2709961,-0.004394531,-0.2270508
476,75.125,136.3125,-241.625,0.4077148,-1.152344,-0.1435547,-0.2617188,-0.03320313,-0.2407227
480,69.875,105.3125,-231,0.206543,-1.144531,-0.128418,-0.2543945,-0.05175781,-0.2475586
484,67.1875,77.3125,-212.6875,0.1791992,-1.062988,-0.01660156,-0.2460938,-0.07324219,-0.2558594
488,65.1875,70.5,-194.1875,0.2451172,-0.8647461,0.03271484,-0.2363281,-0.09814453,-0.2612305
492,59.4375,79.5625,-177.8125,0.2685547,-0.8144531,0.09423828,-0.2319336,-0.109375,-0.2636719
496,64.75,88.9375,-169.4375,0.1987305,-0.7368164,0.03662109,-0.2197266,-0.1279297,-0.269043
500,63.6875,92.1875,-160.9375,0.07080078,-0.550293,-0.01318359,-0.2104492,-0.1445313,-0.2734375
504,57.3125,86.25,-148.1875,-0.1845703,-0.4179688,-0.09765625,-0.1982422,-0.1557617,-0.2749023
508,51,68.9375,-128.25,-0.3706055,-0.2666016,-0.128418,-0.1865234,-0.1704102,-0.2773438
512,43.4375,48.625,-111.5,-0.4711914,-0.1269531,-0.1323242,-0.1757813,-0.1806641,-0.2802734
516,34,32.625,-94.875,-0.4711914,-0.08007813,-0.0859375,-0.1723633,-0.1870117,-0.2802734
520,33.25,27.3125,-84.9375,-0.3901367,-0.09960938,0.01708984,-0.1640625,-0.1958008,-0.2802734
524,36.3125,29.375,-77.1875,-0.4287109,-0.02197266,0.03271484,-0.1567383,-0.2006836,-0.2817383
528,34.4375,22.0625,-65.8125,-0.6376953,0.06689453,-0.04003906,-0.1518555,-0.2080078,-0.2802734
532,29.9375,2.375,-49.9375,-0.6342773,0.171875,-0.05517578,-0.1474609,-0.2104492,-0.2802734
536,21.5,-17.75,-25.6875,-0.8276367,0.21875,-0.08984375,-0.1459961,-0.2158203,-0.2802734
540,10.1875,-31.125,-3.5,-0.7504883,0.2456055,-0.06298828,-0.1459961,-0.2158203,-0.2773438
544,-3.375,-38.875,20.8125,-0.6611328,0.171875,-0.02050781,-0.1484375,-0.2192383,-0.2758789
548,-10.125,-45.4375,40,-0.5683594,0.105957,0.02099609,-0.1542969,-0.2167969,-0.2734375
552,-13.6875,-48.8125,54.625,-0.4750977,0.03613281,0.03271484,-0.1591797,-0.2143555,-0.2734375
556,-14.8125,-55.4375,65.5625,-0.4521484,-0.02587891,0.02880859,-0.1650391,-0.2094727,-0.2705078
561,-14.5,-65.5,77.75,-0.4169922,-0.08789063,0.03662109,-0.1733398,-0.2055664,-0.269043
565,-17.0625,-77.6875,93.6875,-0.3549805,-0.1811523,0.01708984,-0.1816406,-0.2006836,-0.2636719
569,-18.9375,-89.25,108.25,-0.230957,-0.2314453,0.06347656,-0.1899414,-0.1933594,-0.2612305
573,-19.1875,-90.0625,125.6875,-0.03320313,-0.3017578,0.1210938,-0.2045898,-0.1855469,-0.2568359
577,-15.9375,-76.5625,140.0625,0.1791992,-0.4140625,0.1635742,-0.2114258,-0.1757813,-0.2529297
581,-11.1875,-63.125,150.375,0.2490234,-0.4140625,0.1210938,-0.2236328,-0.1630859,-0.2490234
585,-12.4375,-63.375,157.9375,0.2646484,-0.421875,0.04785156,-0.234375,-0.1533203,-0.2446289
589,-17.375,-67.75,163,0.3886719,-0.5112305,0.04052734,-0.2402344,-0.1445313,-0.2392578
593,-22.4375,-55.875,174.6875,0.574707,-0.6591797,0.07128906,-0.2509766,-0.1279297,-0.2368164
597,-24.875,-31.5,188.5625,0.6982422,-0.7792969,0.09814453,-0.2592773,-0.1108398,-0.2324219
601,-26.0625,-17,196.1875,0.7216797,-0.6899414,0.03271484,-0.2636719,-0.09960938,-0.230957
605,-38.75,-15.875,198.125,0.7568359,-0.6201172,-0.04736328,-0.2661133,-0.07958984,-0.230957
609,-55.25,-13.75,197.9375,0.7680664,-0.7329102,-0.02050781,-0.2685547,-0.05810547,-0.2299805
613,-62.3125,-21.6875,200.25,0.625,-0.8842773,-0.02050781,-0.2700195,-0.04296875,-0.2270508
617,-66.5,-45.9375,204.875,0.5898438,-1.008789,-0.009277344,-0.2709961,-0.02197266,-0.2255859
621,-69,-70.6875,214.125,0.690918,-1.195313,0.05566406,-0.2744141,0.001464844,-0.2216797
625,-64.75,-91.1875,220.1875,0.7993164,-1.327148,0.07519531,-0.2744141,0.01757813,-0.2133789
629,-56.8125,-110.8125,222.4375,0.9350586,-1.455566,0.03662109,-0.2758789,0.04248047,-0.2055664
633,-46.75,-122.9375,216.3125,1.13623,-1.548828,0.01367188,-0.2758789,0.06396484,-0.1958008
637,-35.9375,-121.375,208.375,1.26416,-1.576172,0.02099609,-0.2758789,0.08105469,-0.1865234
641,-29.0625,-108.875,204.625,1.268066,-1.580078,-0.01318359,-0.2734375,0.09863281,-0.1767578
645,-24,-100.9375,206.8125,1.144043,-1.568359,-0.0859375,-0.2675781,0.1186523,-0.1660156
649,-21.75,-105.9375,208.9375,1.09375,-1.494629,-0.1669922,-0.2617188,0.1313477,-0.1616211
653,-23.375,-111.75,206.5,1.05127,-1.475098,-0.2207031,-0.2519531,0.1513672,-0.1508789
657,-24.8125,-124.1875,210.125,0.9389648,-1.552734,-0.2861328,-0.2470703,0.1660156,-0.1425781
661,-25.625,-140.3125,216.1875,0.9814453,-1.638184,-0.2670898,-0.2387695,0.1762695,-0.1347656
665,-20.1875,-150.1875,218.125,1.109375,-1.583984,-0.2783203,-0.2270508,0.1914063,-0.125
669,-19.125,-148,219,1.279785,-1.45166,-0.324707,-0.2163086,0.2060547,-0.1113281
673,-20.1875,-124.5625,219.5625,1.550781,-1.505859,-0.2397461,-0.2089844,0.2163086,-0.1074219
677,-3.375,-78.3125,204.0625,1.670898,-1.412598,-0.1474609,-0.1948242,0.2260742,-0.09912109
681,0.8125,-32.6875,186.375,1.380371,-1.199219,-0.1977539,-0.1831055,0.2373047,-0.09667969
685,-16.8125,-24,187.25,1.027832,-1.21875,-0.2744141,-0.1723633,0.2426758,-0.09521484
690,-30.3125,-52.4375,193,0.9311523,-1.37793,-0.3286133,-0.1591797,0.2509766,-0.09375
694,-39,-94.875,174.9375,1.124512,-1.463379,-0.2900391,-0.1450195,0.2597656,-0.08837891
698,-25.6875,-141.125,152.5625,1.39209,-1.731445,-0.2783203,-0.1391602,0.2675781,-0.08691406
702,1.6875,-186.75,127.75,1.984863,-1.634277,-0.2939453,-0.1303711,0.2724609,-0.07861328
706,28.25,-193.5625,98.375,3.275391,-1.432129,-0.2207031,-0.128418,0.2797852,-0.06933594
710,18.75,34.8125,-8.375,5.178223,-0.8574219,-0.02441406,-0.1245117,0.2861328,-0.06787109
714,35.5625,58.375,-57.5,2.504395,-0.8339844,-0.7822266,-0.1259766,0.2836914,-0.07324219
718,13.9375,56.6875,-73.375,2.384277,-0.534668,-0.559082,-0.1269531,0.2788086,-0.07861328
722,-24.1875,93.1875,-94.625,2.349121,-0.9038086,-0.2939453,-0.1342773,0.2763672,-0.08300781
726,-20,151.1875,-107.1875,2.221191,-1.350586,-0.2089844,-0.1352539,0.2724609,-0.08154297
730,-8.6875,179.4375,-121.25,1.942383,-1.362305,-0.2285156,-0.1376953,0.2651367,-0.08544922
734,-7.375,169.6875,-148.6875,1.663574,-1.393555,-0.2436523,-0.1425781,0.262207,-0.09082031
738,0.625,131.25,-188.125,1.473633,-1.661621,-0.1323242,-0.1518555,0.2563477,-0.09521484
742,25.25,90,-213.875,1.484863,-1.867188,-0.06298828,-0.1640625,0.2451172,-0.1020508
746,39.375,73.9375,-223.0625,1.616699,-1.890625,-0.02050781,-0.1748047,0.2373047,-0.1044922
750,42.1875,75.125,-225.6875,1.694336,-1.910156,-0.06298828,-0.1899414,0.2275391,-0.1113281
754,46.375,81.8125,-240.5,1.748535,-2.007324,-0.1015625,-0.2045898,0.2138672,-0.1181641
758,52.3125,93.125,-255.0625,1.740723,-2.034668,-0.1166992,-0.215332,0.2036133,-0.125
762,49.25,114,-265.375,1.651855,-2.092773,-0.1206055,-0.2294922,0.1850586,-0.1333008
766,51.3125,127.125,-271.125,1.395996,-2.221191,-0.1630859,-0.2446289,0.1660156,-0.1455078
770,57.25,125.75,-267.875,1.213867,-2.17041,-0.1743164,-0.2553711,0.1513672,-0.1538086
774,59.875,121.8125,-263.0625,1.082031,-2.104492,-0.2016602,-0.2651367,0.1264648,-0.1660156
778,62.125,116,-257.75,0.9501953,-2.038574,-0.2016602,-0.2709961,0.1000977,-0.1782227
782,68.0625,104,-255,0.8378906,-1.882813,-0.1860352,-0.2758789,0.08251953,-0.1865234
786,71,90.1875,-257.4375,0.7954102,-1.727539,-0.1669922,-0.2807617,0.05517578,-0.1943359
790,70.1875,81.5625,-258.125,0.7797852,-1.638184,-0.1323242,-0.2817383,0.02734375,-0.2026367
794,71.4375,83.0625,-251.0625,0.7719727,-1.513672,-0.1401367,-0.2817383,0.007324219,-0.2080078
798,67.125,88.625,-240.6875,0.6831055,-1.338867,-0.1552734,-0.2807617,-0.01806641,-0.2148438
802,61.5,88.875,-227.6875,0.609375,-1.164063,-0.1552734,-0.2758789,-0.04589844,-0.2231445
806,54.125,89.8125,-219.375,0.5317383,-1.105957,-0.1552734,-0.2700195,-0.06298828,-0.2270508
810,48.4375,90.75,-210.125,0.527832,-1.008789,-0.1552734,-0.2617188,-0.08544922,-0.2338867
814,44.625,98.0625,-211,0.4814453,-0.8764648,-0.1474609,-0.2509766,-0.1069336,-0.2436523
819,42.0625,106.375,-211.0625,0.3496094,-0.7792969,-0.1899414,-0.2436523,-0.1196289,-0.2490234
823,35.375,109.125,-203.875,0.1635742,-0.6591797,-0.2128906,-0.2304688,-0.140625,-0.2558594
827,27.4375,106.25,-186.1875,-0.02587891,-0.5698242,-0.1821289,-0.215332,-0.1582031,-0.2612305
831,22.1875,92.0625,-165.6875,-0.1650391,-0.453125,-0.1474609,-0.2055664,-0.1679688,-0.2651367
835,17.9375,71.25,-152.875,-0.2192383,-0.340332,-0.1362305,-0.1914063,-0.1782227,-0.2705078
839,9.5625,58.1875,-138,-0.2387695,-0.2548828,-0.05517578,-0.1791992,-0.1918945,-0.2719727
843,4.0625,53.125,-121.8125,-0.296875,-0.2392578,0.01367188,-0.1723633,-0.1967773,-0.2773438
847,4.6875,46.25,-104.5625,-0.3974609,-0.2163086,0.02099609,-0.1616211,-0.203125,-0.2802734
851,8.125,29.5,-89,-0.5214844,-0.1308594,0.03662109,-0.1533203,-0.2080078,-0.2802734
855,9.875,11.375,-69.9375,-0.5527344,-0.07226563,0.05566406,-0.1474609,-0.2119141,-0.2841797
859,13.4375,-3,-51.625,-0.5102539,-0.01806641,0.07128906,-0.1435547,-0.2158203,-0.2817383
863,13.375,-8,-38.875,-0.4594727,0.09423828,0.09814453,-0.1411133,-0.2207031,-0.2817383
867,9.3125,-8.4375,-25.625,-0.4594727,0.1333008,0.09814453,-0.1411133,-0.2207031,-0.2802734
871,4.3125,-10.8125,-11.6875,-0.4985352,0.1445313,0.09814453,-0.1411133,-0.2231445,-0.2802734
875,0.125,-14.9375,4.1875,-0.4868164,0.1020508,0.1132813,-0.1401367,-0.2231445,-0.2788086
879,2.25,-17.8125,19.6875,-0.4208984,0.05908203,0.1713867,-0.1425781,-0.2216797,-0.2773438
883,5.5,-21.5625,32.9375,-0.4287109,0.1176758,0.1557617,-0.1435547,-0.2207031,-0.2773438
887,1.8125,-32.375,48.5625,-0.4248047,0.1333008,0.1328125,-0.1494141,-0.2231445,-0.2758789
891,-5,-48.125,62.5,-0.3901367,0.09423828,0.09423828,-0.1518555,-0.2182617,-0.2719727
895,-10.6875,-63.8125,77.75,-0.3046875,0.008789063,0.1367188,-0.1616211,-0.2143555,-0.2719727
899,-11.3125,-72.625,92.9375,-0.1845703,-0.1230469,0.1787109,-0.1708984,-0.2094727,-0.2680664
903,-3.1875,-75.125,105.625,-0.05273438,-0.2392578,0.2211914,-0.1791992,-0.2045898,-0.2666016
907,6.9375,-71.6875,115.5625,0.03955078,-0.2314453,0.2172852,-0.1899414,-0.1982422,-0.2612305
911,10,-69.6875,126.6875,0.09765625,-0.1928711,0.159668,-0.2021484,-0.1918945,-0.2558594
915,5.1875,-69.6875,140.0625,0.1289063,-0.2314453,0.1367188,-0.2089844,-0.1855469,-0.2529297
919,0.5625,-74.125,157.375,0.1635742,-0.2861328,0.1020508,-0.2211914,-0.1733398,-0.2475586
923,-4.6875,-76.625,179.125,0.2836914,-0.3950195,0.125,-0.2329102,-0.1621094,-0.2392578
927,-0.625,-68.625,197.5,0.4541016,-0.581543,0.2211914,-0.2426758,-0.1494141,-0.237793
931,16.125,-63.6875,203.0625,0.4853516,-0.6435547,0.1826172,-0.253418,-0.1357422,-0.2324219
935,17,-74.375,194.9375,0.4931641,-0.5268555,0.06347656,-0.2617188,-0.1181641,-0.2255859
939,-2.4375,-90.25,182.8125,0.5473633,-0.5893555,0.02099609,-0.2675781,-0.1083984,-0.2202148
943,-9.875,-90,186.375,0.6289063,-0.8803711,0.1098633,-0.2768555,-0.09082031,-0.2163086
948,-6.125,-77.75,203.5,0.7490234,-1.020508,0.1518555,-0.2851563,-0.07324219,-0.206543
952,-3.625,-57.4375,216.0625,0.8261719,-1.055176,0.105957,-0.2875977,-0.05957031,-0.199707
956,-8.6875,-51.1875,226.625,0.7797852,-1.032227,-0.009277344,-0.2915039,-0.03808594,-0.1958008
960,-15.375,-64.9375,228.25,0.8149414,-1.055176,-0.06689453,-0.293457,-0.01708984,-0.1904297
964,-18.3125,-76.3125,227.125,0.9697266,-1.207031,-0.06298828,-0.2958984,-0.0004882813,-0.1875
968,-15.125,-69.375,221,1.194336,-1.319336,-0.02832031,-0.2958984,0.02392578,-0.1806641
972,-8.0625,-45.8125,213.1875,1.194336,-1.323242,-0.04394531,-0.2924805,0.04248047,-0.175293
976,-12.375,-33.5,216.125,1.004395,-1.226563,-0.1591797,-0.2890625,0.05761719,-0.1728516
980,-27.625,-41.375,225.8125,0.8803711,-1.21875,-0.2207031,-0.2827148,0.07763672,-0.1699219
984,-39.4375,-58.3125,228.5625,0.9155273,-1.308105,-0.2397461,-0.2758789,0.1000977,-0.1674805
988,-46.375,-67.0625,222.5625,1.043457,-1.405273,-0.2089844,-0.2700195,0.1152344,-0.1616211
992,-47.5,-60.8125,214,1.140137,-1.548828,-0.1552734,-0.2626953,0.1376953,-0.1547852
996,-48.4375,-41.9375,208.875,1.151855,-1.475098,-0.1552734,-0.2509766,0.1547852,-0.1494141
1000,-58.8125,-24.375,214.625,1.078125,-1.405273,-0.2016602,-0.2436523,0.1650391,-0.1455078
1004,-77.375,-12.3125,221.25,1.035645,-1.362305,-0.2592773,-0.2280273,0.1811523,-0.1401367
1008,-96,-8.5,222.8125,1.059082,-1.467285,-0.2514648,-0.2128906,0.1972656,-0.1333008
1012,-103.875,-1.8125,212,1.140137,-1.580078,-0.1591797,-0.2006836,0.2099609,-0.1289063
1016,-109.25,9.5,201.3125,1.147949,-1.626465,-0.05908203,-0.1855469,0.2250977,-0.1225586
1020,-111.9375,14.375,193,1.000488,-1.669434,-0.04003906,-0.1723633,0.2363281,-0.112793
1024,-102.375,-37.625,178.8125,0.6870117,-1.828613,-0.09375,-0.1616211,0.2451172,-0.1088867
1028,-72.625,-124.0625,159.125,0.9272461,-1.828613,-0.04736328,-0.1474609,0.2548828,-0.09667969
1032,-34.4375,-182.6875,117,1.523926,-1.606934,0.03271484,-0.1401367,0.2636719,-0.08691406
1036,-3.875,-188.125,90,2.042969,-1.370117,0.125,-0.1391602,0.2675781,-0.08300781
1040,9.625,-161.5,96.5,2.411133,-1.338867,0.1479492,-0.1367188,0.2724609,-0.07861328
1044,24.125,-152.6875,114.625,2.945801,-1.319336,-0.03613281,-0.1318359,0.2797852,-0.07470703
1048,35,-120.75,98.1875,4.554199,-1.066895,0.1518555,-0.1293945,0.2851563,-0.07324219
1052,74,-1.375,-61.3125,4.193848,-1.195313,-0.1591797,-0.1259766,0.2861328,-0.07617188
1056,70.625,74.1875,-152.5,3.108887,-0.519043,-0.2055664,-0.1318359,0.2797852,-0.08447266
1060,7.6875,149.375,-148.5625,2.469238,-1.000977,-0.112793,-0.1391602,0.2709961,-0.08691406
1064,0,206.25,-113.625,1.969238,-1.42041,-0.08203125,-0.1450195,0.262207,-0.09228516
1068,11.9375,207.375,-109.0625,1.616699,-1.358398,-0.128418,-0.1474609,0.2573242,-0.1035156
1072,19.125,151.875,-143.5625,1.407715,-1.428223,-0.1245117,-0.1484375,0.2524414,-0.1044922
1077,37.6875,93.1875,-186.75,1.601563,-1.603027,0.02880859,-0.1567383,0.2436523,-0.1113281
1081,55.625,80.375,-216.9375,1.806641,-1.727539,0.144043,-0.1708984,0.2363281,-0.1210938
1085,66.4375,88.6875,-228.6875,1.771973,-1.820801,0.08642578,-0.1806641,0.2260742,-0.1264648
1089,71.375,88.1875,-231.1875,1.628418,-1.882813,-0.06298828,-0.1938477,0.2114258,-0.1333008
1093,73.9375,76.9375,-244.5625,1.512207,-1.902344,-0.1323242,-0.206543,0.1972656,-0.144043
1097,71.6875,68.4375,-255.4375,1.395996,-1.90625,-0.1860352,-0.21875,0.1850586,-0.1538086
1101,63,67.25,-254.75,1.29541,-1.910156,-0.1782227,-0.234375,0.1650391,-0.1606445
1105,54.625,79,-245.9375,1.213867,-1.987793,-0.1552734,-0.2460938,0.1459961,-0.168457
1109,52.375,99.875,-236.8125,1.159668,-1.991699,-0.1362305,-0.253418,0.1323242,-0.175293
1113,53.75,111.375,-230.4375,0.9462891,-1.855957,-0.1708984,-0.2617188,0.1088867,-0.1865234
1117,55.25,107.25,-223.875,0.8032227,-1.677246,-0.1591797,-0.2651367,0.08740234,-0.1943359
1121,55.75,91,-217.125,0.6982422,-1.61084,-0.128418,-0.2685547,0.07275391,-0.2011719
1125,51.8125,70.5,-211.5625,0.7954102,-1.552734,-0.06298828,-0.2709961,0.04882813,-0.2094727
1129,47.3125,75.375,-212.4375,0.9970703,-1.576172,0.05566406,-0.2734375,0.02880859,-0.2163086
1133,52.8125,102.6875,-212.375,1.027832,-1.583984,0.140625,-0.2700195,0.01367188,-0.21875
1137,60.125,128.375,-210.5,0.8339844,-1.467285,0.04052734,-0.2661133,-0.01074219,-0.2299805
1141,63.75,125.6875,-213.25,0.5708008,-1.323242,-0.03222656,-0.2592773,-0.03320313,-0.2436523
1145,65,111.6875,-212.5625,0.4116211,-1.148438,-0.07080078,-0.253418,-0.04931641,-0.2475586
1149,64.4375,89.5,-201.375,0.2568359,-0.9736328,-0.08203125,-0.2446289,-0.07080078,-0.2529297
1153,55.1875,66.5625,-191.0625,0.2177734,-0.7719727,-0.07470703,-0.2363281,-0.09179688,-0.2612305
1157,41.1875,53.625,-179.6875,0.2294922,-0.5737305,-0.03613281,-0.2319336,-0.1030273,-0.2636719
1161,22.125,52.875,-159.4375,0.2138672,-0.4882813,0.005859375,-0.222168,-0.1196289,-0.2651367
1165,5.5625,53.375,-135.75,0.1445313,-0.4453125,0.01708984,-0.2163086,-0.1318359,-0.2705078
1169,-5.375,49.0625,-122,0.1210938,-0.4257813,0.05566406,-0.2114258,-0.1396484,-0.2719727
1173,0,44.5,-129.5,0.175293,-0.5073242,0.140625,-0.2021484,-0.1494141,-0.2773438
1177,24.125,47.375,-146.875,0.159668,-0.5229492,0.1635742,-0.1962891,-0.1567383,-0.2788086
1181,41,46.625,-155.375,-0.02587891,-0.3134766,0.1289063,-0.1865234,-0.1669922,-0.2802734
1185,41.625,42.75,-150.75,-0.1611328,-0.1811523,0.09423828,-0.1757813,-0.1782227,-0.2841797
1189,34.8125,39.5,-130.875,-0.3203125,-0.09570313,0.04785156,-0.1665039,-0.1904297,-0.2827148
1193,26.4375,33.5,-105.875,-0.4711914,-0.03759766,0.02880859,-0.1582031,-0.1967773,-0.2817383
1197,26.5625,14.0625,-84.1875,-0.6225586,-0.01416016,-0.04003906,-0.1508789,-0.2045898,-0.2856445
1201,27.6875,-10.1875,-65,-0.6264648,0.07470703,-0.04003906,-0.1474609,-0.2094727,-0.2817383
1206,26.1875,-21.0625,-42.375,-0.4907227,0.1293945,0.005859375,-0.1459961,-0.2128906,-0.2802734
1210,21.625,-16.9375,-21.9375,-0.378418,0.2070313,0.01367188,-0.1459961,-0.2167969,-0.2802734
1214,12.5,-11.125,-10.75,-0.3510742,0.300293,-0.03613281,-0.1459961,-0.2192383,-0.2788086
1218,1.625,-9.8125,-1.625,-0.3862305,0.2768555,-0.03613281,-0.1459961,-0.2207031,-0.2758789
1222,-7.375,-8.3125,17.1875,-0.4169922,0.2338867,-0.01318359,-0.1459961,-0.2207031,-0.2719727
1226,-15.25,-10.875,36.5,-0.4521484,0.2226563,-0.01660156,-0.1484375,-0.2167969,-0.2758789
1230,-22.75,-22.8125,52.8125,-0.4750977,0.1679688,-0.009277344,-0.1518555,-0.2167969,-0.2758789
1234,-24.8125,-42.375,64.125,-0.4482422,0.140625,-0.02832031,-0.1567383,-0.2104492,-0.2758789
1238,-26.8125,-65.4375,69.25,-0.3588867,0.1020508,-0.01318359,-0.1640625,-0.2045898,-0.2749023
1242,-28.5625,-82.125,77.3125,-0.2504883,-0.01416016,0.005859375,-0.1708984,-0.2006836,-0.2734375
1246,-29.375,-91.8125,88.625,-0.1381836,-0.1347656,0.07128906,-0.1816406,-0.1943359,-0.2680664
1250,-18,-99.4375,92.4375,0.008789063,-0.3095703,0.1557617,-0.1948242,-0.1855469,-0.2666016
1254,-5.0625,-101.625,98.6875,0.1054688,-0.2822266,0.1748047,-0.2006836,-0.1821289,-0.2597656
1258,-9.9375,-101,115.625,0.1713867,-0.2939453,0.140625,-0.2128906,-0.1733398,-0.2558594
1262,-16.125,-95.6875,135.875,0.2412109,-0.4375,0.1479492,-0.2255859,-0.1606445,-0.2490234
1266,-21.1875,-94.8125,153.375,0.2490234,-0.46875,0.1020508,-0.234375,-0.1533203,-0.2421875
1270,-15,-102.625,161.8125,0.2646484,-0.6396484,0.1328125,-0.2470703,-0.1396484,-0.2368164
1274,-0.3125,-109.3125,162.375,0.3652344,-0.7211914,0.1171875,-0.2602539,-0.1245117,-0.2270508
1278,8.6875,-103.6875,168.9375,0.4658203,-0.7407227,0.06738281,-0.2626953,-0.1142578,-0.2202148
1282,5.25,-93.8125,189.0625,0.4658203,-0.8144531,-0.02441406,-0.2768555,-0.09960938,-0.2119141
1286,-5.4375,-97.6875,212.375,0.4775391,-0.9233398,-0.1015625,-0.2841797,-0.08056641,-0.2041016
1290,-7.5625,-103.5625,224.8125,0.6674805,-1.08252,-0.112793,-0.2900391,-0.06689453,-0.1972656
1294,-3.125,-96.5,228.875,0.9155273,-1.199219,-0.1015625,-0.2958984,-0.04443359,-0.1889648
1298,-0.375,-75.875,228.625,1.059082,-1.183594,-0.1323242,-0.3007813,-0.02197266,-0.1796875
1302,-9.125,-55.4375,226.3125,1.043457,-1.098145,-0.1782227,-0.3017578,-0.005859375,-0.1767578
1306,-23.6875,-44.4375,230.6875,0.9233398,-1.226563,-0.2397461,-0.2998047,0.01757813,-0.1713867
1310,-36.125,-46.6875,247.1875,0.8920898,-1.366211,-0.2900391,-0.2983398,0.04248047,-0.1674805
1314,-46.25,-55.5625,253.5625,0.9931641,-1.447754,-0.2861328,-0.293457,0.05859375,-0.1630859
1318,-46.875,-61.9375,244.6875,1.171387,-1.439941,-0.2553711,-0.2890625,0.08496094,-0.1606445
1322,-50.6875,-43.5,226.4375,1.260254,-1.397461,-0.2324219,-0.2807617,0.1074219,-0.1538086
1326,-61.5625,-29.875,222.0625,0.9697266,-1.393555,-0.309082,-0.2724609,0.1210938,-0.1469727
1330,-77.0625,-50,234.6875,0.7641602,-1.509766,-0.3901367,-0.2617188,0.1450195,-0.144043
1335,-88.8125,-84.75,241.9375,0.9619141,-1.67334,-0.394043,-0.2470703,0.1660156,-0.1333008
1339,-86.9375,-104.1875,228.25,1.302734,-1.781738,-0.324707,-0.2387695,0.1787109,-0.1279297
1343,-79.625,-100.875,198.375,1.512207,-1.692383,-0.2783203,-0.2270508,0.1962891,-0.112793
1347,-74.375,-84.5,176.625,1.411621,-1.692383,-0.2128906,-0.2172852,0.2099609,-0.1005859
1351,-79,-72.5625,175.625,1.213867,-1.727539,-0.2246094,-0.2089844,0.21875,-0.09375
1355,-85.3125,-87.125,181.1875,1.012207,-1.878906,-0.2514648,-0.1972656,0.2285156,-0.08544922
1359,-70.25,-138.6875,183.25,1.16748,-2.003418,-0.1899414,-0.184082,0.2412109,-0.07324219
1363,-37.5,-163.625,151.8125,1.826172,-1.852051,-0.06689453,-0.1772461,0.2485352,-0.06542969
1367,-0.875,-140.3125,119.75,2.209961,-1.708008,0.02099609,-0.168457,0.2548828,-0.05566406
1371,27.4375,-115.75,107.9375,2.198242,-1.416504,-0.06689453,-0.1616211,0.2597656,-0.05029297
1375,38.75,-134.25,98.375,2.256348,-1.066895,-0.2705078,-0.1582031,0.2651367,-0.05175781
1379,45.4375,-188.0625,75.375,2.899414,-0.7368164,-0.4594727,-0.1542969,0.2685547,-0.04736328
1383,11.8125,-104.125,60.625,5.797852,-0.1347656,0.009765625,-0.1508789,0.2709961,-0.04492188
1387,37.25,-42.1875,-99.125,3.437988,-0.9155273,-0.5517578,-0.1533203,0.2700195,-0.04199219
1391,61.4375,2.25,-154.125,2.814453,-0.5620117,-0.4516602,-0.1616211,0.2661133,-0.04345703
1395,18.875,62.375,-148.4375,2.48877,-0.7290039,-0.3476563,-0.1723633,0.2573242,-0.05273438
1399,-11.6875,140.4375,-106.9375,2.248535,-1.070801,-0.2939453,-0.1782227,0.2524414,-0.05419922
1403,-15,192.9375,-89.1875,1.969238,-1.203125,-0.3823242,-0.1816406,0.2475586,-0.05957031
1407,-11.3125,195.25,-106.0625,1.72168,-1.300293,-0.4628906,-0.1855469,0.2426758,-0.06787109
1411,0,162.1875,-151.9375,1.566406,-1.397461,-0.4516602,-0.1875,0.2363281,-0.07177734
1415,14.875,137.25,-191.8125,1.582031,-1.622559,-0.3168945,-0.1972656,0.2299805,-0.08007813
1419,27.375,134.25,-209.6875,1.531738,-1.739258,-0.2861328,-0.2104492,0.2172852,-0.09082031
1423,31.9375,128.375,-210.625,1.438477,-1.735352,-0.3398438,-0.2172852,0.2099609,-0.1005859
1427,25.6875,122.75,-215.625,1.454102,-1.696289,-0.378418,-0.2304688,0.1962891,-0.1098633
1431,23.5,123.6875,-223.6875,1.442383,-1.828613,-0.3862305,-0.2412109,0.1801758,-0.1181641
1435,25.125,122.6875,-230.8125,1.341797,-1.812988,-0.4399414,-0.2485352,0.1699219,-0.1264648
1439,22.3125,119.25,-241.9375,1.287598,-1.74707,-0.3823242,-0.2617188,0.1513672,-0.1347656
1443,23.25,121.625,-247.8125,1.19043,-1.727539,-0.359375,-0.2685547,0.1289063,-0.1484375
1447,18.0625,124.8125,-239.3125,1.117188,-1.665527,-0.3286133,-0.2768555,0.1152344,-0.1538086
1451,15.6875,127.75,-227.4375,1.027832,-1.587891,-0.2900391,-0.2817383,0.09228516,-0.1645508
1455,15.25,126.6875,-220.375,0.9233398,-1.544922,-0.2514648,-0.2841797,0.07275391,-0.1767578
1459,23.6875,120.25,-217.875,0.8110352,-1.556641,-0.2128906,-0.2851563,0.05615234,-0.1821289
1464,32,115.875,-213.6875,0.7954102,-1.455566,-0.1708984,-0.2851563,0.03515625,-0.1928711
1468,37.25,118.625,-211.3125,0.7568359,-1.362305,-0.1435547,-0.2841797,0.01269531,-0.2041016
1472,39.5625,119.25,-203.4375,0.675293,-1.245605,-0.1591797,-0.2792969,-0.001953125,-0.2109375
1476,42.125,117.75,-197.5,0.574707,-1.102051,-0.1206055,-0.2744141,-0.02441406,-0.2231445
1480,44.875,113,-192.1875,0.4892578,-1.047363,-0.1054688,-0.2675781,-0.04589844,-0.2299805
1484,43.4375,110.6875,-182.125,0.4697266,-0.9580078,-0.04736328,-0.2626953,-0.05712891,-0.2392578
1488,43.375,118.9375,-166.4375,0.4697266,-0.9194336,-0.001464844,-0.2543945,-0.078125,-0.2460938
1492,46.125,128.75,-150.5,0.4116211,-0.8144531,0.01708984,-0.2426758,-0.09423828,-0.2529297
1496,44.875,135.4375,-145.5625,0.3110352,-0.6318359,-0.05126953,-0.234375,-0.1054688,-0.2612305
1500,37.875,138.9375,-148.25,0.140625,-0.5463867,-0.06298828,-0.2197266,-0.1206055,-0.2719727
1504,38.625,135.625,-142.125,-0.09912109,-0.5151367,-0.05908203,-0.2055664,-0.1333008,-0.2802734
1508,38.9375,119.375,-129.25,-0.362793,-0.421875,-0.0859375,-0.1948242,-0.1430664,-0.2856445
1512,35.75,84.375,-109.4375,-0.5795898,-0.3286133,-0.07861328,-0.1806641,-0.1533203,-0.2895508
1516,31.625,47.0625,-86.0625,-0.6186523,-0.2084961,-0.03613281,-0.1699219,-0.1655273,-0.2924805
1520,29.875,16.125,-67.1875,-0.5834961,-0.08789063,-0.05126953,-0.1674805,-0.1694336,-0.2924805
1524,28.625,-6.5625,-54.0625,-0.5371094,0.02832031,-0.07470703,-0.1616211,-0.1733398,-0.2939453
1528,23.9375,-23,-37.4375,-0.4482422,0.06689453,-0.005371094,-0.1616211,-0.1782227,-0.2924805
1532,23.875,-32.125,-23.0625,-0.3242188,0.08642578,-0.005371094,-0.1616211,-0.1821289,-0.2910156
1536,22.5625,-41.0625,-17.75,-0.2041016,0.237793,-0.02441406,-0.1616211,-0.1845703,-0.2885742
1540,17.0625,-39.1875,-14.625,-0.1030273,0.2338867,0.02490234,-0.1650391,-0.1870117,-0.2856445
1544,10.3125,-29.25,-2.5,-0.08789063,0.1953125,0.06738281,-0.168457,-0.1879883,-0.2817383
1548,7.8125,-23.4375,9.625,-0.1420898,0.1445313,0.07519531,-0.1708984,-0.1879883,-0.2773438
1552,6.125,-28.6875,20,-0.1923828,0.1835938,0.04785156,-0.1733398,-0.1894531,-0.2788086
1556,-3.9375,-39.625,33.5,-0.1923828,0.1796875,0.05175781,-0.1757813,-0.1870117,-0.2758789
1560,-12.25,-49.25,49.0625,-0.1303711,0.1254883,0.07910156,-0.1816406,-0.1831055,-0.2773438
1564,-13.6875,-56,60.375,-0.06835938,0.07861328,0.1171875,-0.1875,-0.1806641,-0.2734375
1568,-16.125,-66.0625,69.5625,-0.04882813,0.06298828,0.1171875,-0.1923828,-0.1791992,-0.2719727
1572,-19.25,-79.25,77.625,0.0009765625,-0.02587891,0.144043,-0.2006836,-0.1679688,-0.2666016
1576,-15.875,-90,86.8125,0.07470703,-0.09960938,0.159668,-0.2104492,-0.1645508,-0.2636719
1580,-15.9375,-99.625,96.5625,0.1518555,-0.1308594,0.1479492,-0.2172852,-0.1567383,-0.2583008
1584,-17.6875,-105.6875,106.4375,0.2836914,-0.2470703,0.159668,-0.2294922,-0.1479492,-0.2514648
1588,-16.4375,-101.875,114.8125,0.4233398,-0.3364258,0.1865234,-0.2402344,-0.1396484,-0.2446289
1593,-14.5,-89.0625,122.75,0.5126953,-0.4067383,0.2060547,-0.2470703,-0.1318359,-0.2368164
1597,-17.0625,-78.375,128.4375,0.5395508,-0.2241211,0.2709961,-0.2553711,-0.1206055,-0.230957
1601,-14.875,-77.5625,138.8125,0.4506836,-0.503418,0.159668,-0.2651367,-0.1069336,-0.2255859
1605,-12.9375,-83.1875,146.5625,0.4467773,-0.5620117,0.1328125,-0.2709961,-0.09716797,-0.2202148
1609,-11.375,-93.75,152.8125,0.4892578,-0.6474609,0.09423828,-0.2768555,-0.08056641,-0.2148438
1613,-6.5,-106.5,156.875,0.5976563,-0.7368164,0.08642578,-0.2851563,-0.06835938,-0.2041016
1617,-1.4375,-107.1875,160.5625,0.7451172,-0.8144531,0.1098633,-0.2900391,-0.05712891,-0.1972656
1621,3,-96.0625,169.125,0.8339844,-0.9194336,0.08642578,-0.2973633,-0.04199219,-0.1889648
1625,5.25,-86.25,178.0625,0.8110352,-0.9350586,0.01367188,-0.2983398,-0.02587891,-0.1806641
1629,4.5625,-87.4375,183.1875,0.7954102,-0.9350586,-0.05126953,-0.3017578,-0.01171875,-0.1738281
1633,5.75,-90.9375,183.5625,0.8535156,-0.9736328,-0.09765625,-0.3056641,0.006347656,-0.168457
1637,2.875,-88.875,184,0.8999023,-1.055176,-0.1206055,-0.3056641,0.02392578,-0.1591797
1641,-0.5,-80.9375,190.25,0.8730469,-1.171875,-0.1474609,-0.3041992,0.03759766,-0.1538086
1645,-2.125,-85.625,202.125,0.8071289,-1.26123,-0.2167969,-0.3007813,0.05615234,-0.1484375
1649,-4.625,-98.3125,209.25,0.8769531,-1.300293,-0.2705078,-0.2998047,0.07617188,-0.1401367
1653,-7.625,-104,212.8125,1.059082,-1.358398,-0.2705078,-0.2958984,0.08984375,-0.1303711
1657,-5.75,-94.5625,210.5625,1.229492,-1.397461,-0.2285156,-0.2890625,0.1098633,-0.1264648
1661,-2.25,-77.875,200.3125,1.248535,-1.331055,-0.2861328,-0.2807617,0.1274414,-0.1196289
1665,-8.0625,-68.6875,193.75,1.159668,-1.288574,-0.3286133,-0.2734375,0.1376953,-0.1113281
1669,-14.625,-66.375,192,1.023926,-1.350586,-0.3476563,-0.2636719,0.15625,-0.1088867
1673,-17.0625,-78.8125,196.75,0.8999023,-1.393555,-0.378418,-0.253418,0.1699219,-0.1020508
1677,-18,-102.25,198.875,0.8881836,-1.393555,-0.4052734,-0.2470703,0.1811523,-0.09667969
1681,-19.5625,-129.3125,197.75,0.9423828,-1.370117,-0.4360352,-0.2353516,0.1938477,-0.08837891
1685,-23.25,-150.75,194.875,1.101563,-1.370117,-0.4667969,-0.2255859,0.2075195,-0.07763672
1689,-26.1875,-150.875,198.75,1.380371,-1.389648,-0.4282227,-0.2163086,0.2148438,-0.07177734
1693,-22.4375,-120.6875,200.3125,1.647949,-1.412598,-0.3476563,-0.2055664,0.2275391,-0.05957031
1697,-4.1875,-68.75,187,1.709961,-1.34668,-0.3359375,-0.1914063,0.2397461,-0.05273438
1701,10.625,-39.5,173.5,1.500488,-1.15625,-0.5361328,-0.1816406,0.2485352,-0.05566406
1705,-1.4375,-52.4375,164.0625,1.384277,-0.9038086,-0.6591797,-0.1699219,0.2573242,-0.05419922
1709,-21.8125,-98.1875,149.75,1.504395,-0.9350586,-0.7055664,-0.1582031,0.2661133,-0.05175781
1713,-15.1875,-150.75,127.125,1.942383,-1.284668,-0.5668945,-0.1533203,0.2739258,-0.04736328
1717,25.875,-189,80.5,2.628418,-1.350586,-0.6748047,-0.1484375,0.28125,-0.04199219
1722,31.375,-128.0625,43.25,4.32959,-1.008789,-0.1474609,-0.1450195,0.2861328,-0.03515625
1726,41.625,-15.1875,-93.0625,3.267578,-0.9506836,-0.6513672,-0.1459961,0.2822266,-0.03271484
1730,17.875,57.0625,-136.4375,2.694336,-0.8764648,-0.309082,-0.1542969,0.2763672,-0.03662109
1734,3.375,145.5625,-115.9375,2.236816,-1.331055,-0.2900391,-0.1601563,0.2675781,-0.04345703
1738,13.4375,192.625,-94.125,1.69043,-1.253418,-0.4746094,-0.1650391,0.262207,-0.04736328
1742,0,180.75,-85.1875,1.469727,-1.121582,-0.5551758,-0.1674805,0.2563477,-0.05712891
1746,-11.625,149.5,-106.375,1.578125,-1.269043,-0.5361328,-0.168457,0.2509766,-0.0625
1750,-6.0625,135.5625,-144.875,1.779785,-1.529297,-0.3706055,-0.1757813,0.2485352,-0.06640625
1754,10,148.9375,-172.125,1.880371,-1.688477,-0.2978516,-0.184082,0.2412109,-0.07324219
1758,21.6875,164.3125,-191.5,1.756348,-1.758789,-0.378418,-0.1948242,0.2299805,-0.08300781
1762,28.375,158.4375,-204.6875,1.543457,-1.809082,-0.4975586,-0.203125,0.2226563,-0.08984375
1766,32.6875,138.8125,-222.8125,1.415527,-1.777832,-0.5517578,-0.2163086,0.2099609,-0.1035156
1770,34.8125,118.6875,-246.6875,1.341797,-1.820801,-0.5322266,-0.2294922,0.1948242,-0.1142578
1774,39.875,104.1875,-257.3125,1.252441,-1.848145,-0.5439453,-0.237793,0.1826172,-0.1196289
1778,34.5,102.625,-258.875,1.291504,-1.758789,-0.4785156,-0.2543945,0.1625977,-0.1289063
1782,24.25,112.3125,-257.5625,1.256348,-1.739258,-0.4282227,-0.2661133,0.1386719,-0.1386719
1786,20.1875,119.25,-253.625,1.113281,-1.762695,-0.4208984,-0.2734375,0.125,-0.144043
1790,20.0625,110.8125,-247.1875,0.9423828,-1.67334,-0.4052734,-0.2792969,0.1035156,-0.1547852
1794,16.4375,94.8125,-241.9375,0.8339844,-1.568359,-0.378418,-0.2851563,0.08007813,-0.1630859
1798,12.25,79.75,-238.3125,0.8378906,-1.541016,-0.2900391,-0.2915039,0.06396484,-0.168457
1802,12.8125,77.5625,-235.8125,0.8730469,-1.537109,-0.1821289,-0.2949219,0.04248047,-0.1767578
1806,14.6875,84.5625,-230.6875,0.8417969,-1.501953,-0.109375,-0.2949219,0.01757813,-0.1821289
1810,18.4375,94,-221.625,0.8071289,-1.471191,-0.04003906,-0.2949219,0.001464844,-0.1875
1814,25.6875,99.625,-220.625,0.7216797,-1.374023,-0.02832031,-0.2915039,-0.02050781,-0.1972656
1818,34.5,94.4375,-226.125,0.6401367,-1.237793,-0.02050781,-0.2875977,-0.04296875,-0.206543
1822,40.25,90.5625,-229.4375,0.578125,-1.08252,0.005859375,-0.2827148,-0.05957031,-0.2109375
1826,41.5625,90.5625,-223.8125,0.4428711,-1.016602,0.02490234,-0.2758789,-0.08300781,-0.21875
1830,40.9375,91.0625,-210.3125,0.3149414,-0.8417969,0.02099609,-0.2675781,-0.1054688,-0.2270508
1834,36.5625,86.5625,-194.5,0.1948242,-0.7602539,0.02880859,-0.2602539,-0.1206055,-0.2285156
1838,34.5,79.6875,-177.1875,0.1518555,-0.7094727,0.07519531,-0.2485352,-0.1396484,-0.2368164
1842,36.25,79.875,-161.8125,0.09375,-0.6279297,0.09423828,-0.2353516,-0.1567383,-0.2421875
1846,38.5625,82.3125,-150.75,-0.002441406,-0.5151367,0.09033203,-0.2246094,-0.1655273,-0.2436523
1851,38.125,81.625,-139.125,-0.1728516,-0.3754883,0.02880859,-0.215332,-0.1791992,-0.25
1855,34.75,75.3125,-125.8125,-0.3393555,-0.2392578,-0.01318359,-0.2045898,-0.1918945,-0.2543945
1859,32.8125,59.5625,-112,-0.5141602,-0.1113281,-0.05517578,-0.1962891,-0.1982422,-0.2514648
1863,30.6875,39.9375,-97.25,-0.6264648,-0.002441406,-0.1166992,-0.1865234,-0.2080078,-0.2568359
1867,25.3125,21.75,-76.3125,-0.7075195,0.140625,-0.1630859,-0.1772461,-0.2167969,-0.2568359
1871,16.1875,6.25,-54.0625,-0.6923828,0.2807617,-0.1513672,-0.1748047,-0.2192383,-0.2568359
1875,-1,-5.0625,-28.125,-0.6806641,0.2885742,-0.1401367,-0.1723633,-0.2231445,-0.2568359
1879,-16.8125,-15.625,0.3125,-0.6455078,0.21875,-0.1323242,-0.1723633,-0.2231445,-0.2558594
1883,-30.75,-26.875,23.3125,-0.5722656,0.1367188,-0.05908203,-0.1733398,-0.2231445,-0.2583008
1887,-30.5625,-31.8125,36.9375,-0.4521484,0.04736328,0.02490234,-0.1757813,-0.2207031,-0.2583008
1891,-24.125,-28.3125,47,-0.3588867,0.02832031,0.08642578,-0.1816406,-0.2128906,-0.2568359
1895,-19.0625,-22.5,53.25,-0.3320313,0.01269531,0.07910156,-0.1831055,-0.2104492,-0.2568359
1899,-19.125,-19.1875,61.1875,-0.3432617,0.02050781,0.05957031,-0.1889648,-0.2070313,-0.2583008
1903,-21.9375,-23.875,72.625,-0.3901367,-0.01416016,0.02099609,-0.1948242,-0.2006836,-0.2583008
1907,-28.125,-35.375,90.6875,-0.4013672,-0.09179688,0.001953125,-0.1972656,-0.1943359,-0.2558594
1911,-35.375,-49.1875,110.75,-0.3203125,-0.2275391,0.04052734,-0.206543,-0.1894531,-0.2514648
1915,-30.4375,-58.5625,124.6875,-0.1884766,-0.3676758,0.09033203,-0.215332,-0.1757813,-0.2514648
1919,-23.0625,-66.6875,132.6875,-0.06835938,-0.4648438,0.1210938,-0.2211914,-0.1679688,-0.25
1923,-8,-81.6875,132,0.008789063,-0.5698242,0.09423828,-0.2319336,-0.1542969,-0.2421875
1927,6,-99.25,125.9375,0.109375,-0.519043,0.03662109,-0.2436523,-0.1455078,-0.2368164
1931,1.3125,-106.875,138.5625,0.2607422,-0.5620117,0.02099609,-0.2509766,-0.1396484,-0.2324219
1935,-7.125,-97.9375,163.375,0.3925781,-0.6396484,0.03271484,-0.2617188,-0.1254883,-0.2246094
1939,-15.1875,-86.5625,189.375,0.4506836,-0.8339844,-0.02050781,-0.2724609,-0.1083984,-0.2148438
1943,-15.6875,-87.75,201.3125,0.527832,-0.9428711,-0.01318359,-0.2768555,-0.09716797,-0.2094727
1947,-6.875,-95.0625,200.6875,0.7177734,-1.008789,0.03271484,-0.2866211,-0.07568359,-0.2041016
1951,0.4375,-86.625,197.9375,0.9311523,-1.036133,0.05957031,-0.2924805,-0.05810547,-0.1958008
1955,-0.875,-62,206.25,0.9697266,-1.059082,0.04443359,-0.2958984,-0.04443359,-0.1875
1959,-4.9375,-49.125,214.8125,0.8613281,-1.105957,-0.01660156,-0.2998047,-0.02441406,-0.1835938
1963,-9.6875,-56.3125,221.6875,0.7529297,-1.183594,-0.1245117,-0.2983398,-0.001953125,-0.1796875
1967,-18.3125,-75.0625,229.1875,0.7680664,-1.331055,-0.1323242,-0.2983398,0.01367188,-0.1767578
1971,-15.6875,-90.6875,230.875,0.8959961,-1.548828,-0.1245117,-0.2983398,0.03613281,-0.1699219
1975,-5.25,-101.3125,230.875,1.055176,-1.525391,-0.1552734,-0.2958984,0.06005859,-0.1591797
1980,-5.625,-96.75,227.1875,1.179199,-1.447754,-0.1782227,-0.2924805,0.07763672,-0.1547852
1984,-13.5625,-86.4375,229.875,1.151855,-1.490723,-0.2246094,-0.2875977,0.09619141,-0.1469727
1988,-21.125,-89.5625,229.875,1.05127,-1.544922,-0.3051758,-0.2792969,0.1186523,-0.137207
1992,-26,-105.5,226.8125,0.9970703,-1.71582,-0.3051758,-0.2734375,0.1323242,-0.1357422
1996,-21.25,-119.25,232.9375,1.13623,-1.859863,-0.309082,-0.2636719,0.1513672,-0.1235352
2000,-19.5,-115.75,238.9375,1.399902,-1.793457,-0.2631836,-0.2509766,0.1699219,-0.1142578
2004,-19.0625,-96.875,235.375,1.558594,-1.731445,-0.2631836,-0.2426758,0.1826172,-0.1098633
2008,-20.0625,-65.875,217.75,1.597656,-1.634277,-0.2553711,-0.2294922,0.1962891,-0.1044922
2012,-20.5,-52,209.375,1.376465,-1.665527,-0.2592773,-0.2172852,0.2114258,-0.09521484
2016,-15.5625,-71.1875,211.5,1.384277,-1.576172,-0.3398438,-0.2080078,0.2197266,-0.09375
2020,-14.875,-96.8125,206.5625,1.73291,-1.459473,-0.3325195,-0.1938477,0.2338867,-0.08837891
2024,-10.3125,-108.375,189.625,2.13623,-1.34668,-0.309082,-0.1791992,0.2436523,-0.08300781
2028,-2.9375,-106.0625,159,2.651367,-1.062988,-0.394043,-0.168457,0.2485352,-0.07861328
2032,-2.25,-92.5,118.9375,3.112793,-0.8066406,-0.3974609,-0.1601563,0.2573242,-0.07763672
2036,-0.6875,-74.8125,75.1875,3.306152,-0.7250977,-0.4399414,-0.1542969,0.262207,-0.07324219
2040,8.6875,-77,35.6875,3.383789,-0.6860352,-0.5283203,-0.1518555,0.2661133,-0.07617188
2044,11.125,-65.4375,-14.625,3.639648,-0.5854492,-0.5131836,-0.1518555,0.2661133,-0.07324219
2048,-5.75,-1.8125,-74.25,3.693848,-0.7368164,-0.34375,-0.1567383,0.2636719,-0.06933594
2052,-19.875,81,-121.5,3.248047,-1.140625,-0.1977539,-0.1601563,0.2597656,-0.06542969
2056,-10.5,137.9375,-146.875,2.632324,-1.548828,-0.1245117,-0.168457,0.2524414,-0.06787109
2060,11.5,152.4375,-163.9375,2.097168,-1.704102,-0.1899414,-0.1772461,0.2451172,-0.07324219
2064,28.75,123.875,-188.75,1.744629,-1.692383,-0.2631836,-0.1855469,0.2387695,-0.08007813
2068,36.3125,88.4375,-220.375,1.725586,-1.739258,-0.2167969,-0.1972656,0.2275391,-0.08544922
2072,42,77.8125,-240.875,1.794922,-1.80127,-0.1977539,-0.2128906,0.2124023,-0.09667969
2076,43.6875,90.25,-250.625,1.810547,-1.852051,-0.2285156,-0.222168,0.2036133,-0.1005859
2080,39.0625,113.5,-258.4375,1.794922,-1.878906,-0.2822266,-0.2387695,0.1860352,-0.1088867
2084,33.1875,138.8125,-261.875,1.659668,-1.890625,-0.3051758,-0.2519531,0.1660156,-0.1196289
2088,28.125,155.3125,-265.875,1.42334,-1.914063,-0.3286133,-0.2617188,0.1513672,-0.1289063
2092,28.125,151.75,-270.625,1.182617,-1.960449,-0.3286133,-0.2700195,0.1289063,-0.1425781
2096,33.0625,137.875,-275.8125,1.004395,-1.949219,-0.2978516,-0.2792969,0.1049805,-0.1547852
2100,38,121.8125,-274.625,0.8457031,-1.867188,-0.2436523,-0.2841797,0.08886719,-0.1630859
2104,40.8125,104.6875,-268.5625,0.6791992,-1.692383,-0.2167969,-0.2875977,0.06005859,-0.1738281
2109,42.1875,82.9375,-259.4375,0.4506836,-1.505859,-0.2397461,-0.2900391,0.03271484,-0.1835938
2113,44.125,34.125,-242.1875,0.2490234,-1.29248,-0.3823242,-0.2924805,0.01513672,-0.1865234
2117,34.125,-25.3125,-229.25,0.2724609,-0.9658203,-0.4555664,-0.293457,-0.01074219,-0.1889648
2121,7.5,-71.5625,-213.6875,0.5668945,-0.8457031,-0.4555664,-0.2983398,-0.03466797,-0.1850586
2125,-16.6875,-81.6875,-206.875,1.023926,-0.8574219,-0.3129883,-0.3007813,-0.046875,-0.1796875
2129,-34.4375,-42.8125,-207.6875,1.322266,-0.8999023,-0.1821289,-0.3032227,-0.06591797,-0.175293
2133,-49.125,25.875,-205.8125,1.326172,-0.9892578,-0.07080078,-0.3017578,-0.08447266,-0.1699219
2137,-53.9375,92.5,-197.1875,1.055176,-1.066895,0.001953125,-0.3007813,-0.09716797,-0.175293
2141,-50.375,144.9375,-185.75,0.7216797,-1.066895,-0.001464844,-0.2900391,-0.1132813,-0.1875
2145,-38.0625,167.625,-177.75,0.2758789,-1.02832,-0.02441406,-0.2783203,-0.1279297,-0.2026367
2149,-20.0625,155.125,-175.5625,-0.1342773,-0.9077148,-0.08984375,-0.2675781,-0.1381836,-0.2119141
2153,-8.125,130.75,-169.625,-0.3588867,-0.6860352,-0.06689453,-0.2519531,-0.1518555,-0.2270508
2157,-4.0625,99.5,-153.5625,-0.4790039,-0.5620117,-0.03613281,-0.237793,-0.1655273,-0.2368164
2161,-2.875,76.25,-128,-0.4868164,-0.4453125,0.06347656,-0.2280273,-0.1743164,-0.2392578
2165,-0.75,61.375,-97.1875,-0.5063477,-0.324707,0.125,-0.2197266,-0.1821289,-0.2460938
2169,1.9375,48.3125,-72.75,-0.5214844,-0.2431641,0.1171875,-0.2114258,-0.1879883,-0.25
2173,4.25,37.375,-52.3125,-0.4985352,-0.1694336,0.140625,-0.2055664,-0.1904297,-0.2514648
2177,8.5,29.4375,-39.125,-0.4633789,-0.1459961,0.1904297,-0.2021484,-0.1958008,-0.2529297
2181,17.375,23.9375,-31.1875,-0.4365234,-0.1074219,0.1982422,-0.1962891,-0.1982422,-0.2543945
2185,22.625,22.0625,-19.875,-0.4482422,-0.01416016,0.1674805,-0.1948242,-0.2016602,-0.2543945
2189,24,17.25,-6.0625,-0.4907227,0.02832031,0.1098633,-0.1923828,-0.2045898,-0.2568359
2193,22.3125,9,8.4375,-0.5214844,0.08251953,0.04443359,-0.1923828,-0.2070313,-0.2558594
2197,12.375,-2.375,23.4375,-0.5253906,0.1523438,0.03271484,-0.1923828,-0.2080078,-0.2543945
2201,4.9375,-10.75,41.5,-0.4790039,0.09814453,0.07128906,-0.1923828,-0.2045898,-0.2514648
2205,2.125,-13.9375,61.4375,-0.4326172,0.05908203,0.09814453,-0.1982422,-0.2016602,-0.2514648
2209,0.375,-22.1875,79.4375,-0.4365234,0.0009765625,0.07128906,-0.2006836,-0.1992188,-0.2514648
2213,0.4375,-42.5625,93.4375,-0.4091797,-0.09960938,0.03271484,-0.206543,-0.1958008,-0.2490234
2217,0.375,-68.3125,101.1875,-0.296875,-0.1655273,0.009765625,-0.2163086,-0.1870117,-0.2460938
2221,-0.875,-84,109.1875,-0.1186523,-0.1889648,0.04443359,-0.2211914,-0.1831055,-0.2407227
2225,-5.6875,-76.625,127.75,0.04736328,-0.2666016,0.105957,-0.2319336,-0.1733398,-0.237793
2229,-11.5625,-61.875,155.5625,0.1210938,-0.371582,0.1020508,-0.2436523,-0.1621094,-0.2324219
2233,-15.625,-55.25,177.375,0.175293,-0.484375,0.07519531,-0.2509766,-0.1518555,-0.2285156
2238,-19.4375,-59.375,186.375,0.2490234,-0.6240234,0.005859375,-0.2578125,-0.1357422,-0.2246094
2242,-20.625,-66.125,188.6875,0.3378906,-0.6787109,0.02099609,-0.2675781,-0.1166992,-0.2177734
2246,-18.6875,-69.6875,189.9375,0.4233398,-0.7949219,-0.009277344,-0.2744141,-0.1054688,-0.2133789
2250,-14.9375,-74.3125,190.0625,0.4311523,-0.7792969,-0.02441406,-0.2817383,-0.08691406,-0.2094727
2254,-14.75,-82.5,190.9375,0.4038086,-0.8300781,-0.07080078,-0.2875977,-0.06689453,-0.2011719
2258,-19.25,-97.25,199.75,0.3769531,-0.9970703,-0.1166992,-0.2915039,-0.05322266,-0.1943359
2262,-22.125,-115.5625,213.75,0.4541016,-1.195313,-0.1323242,-0.2973633,-0.03076172,-0.1865234
2266,-17.5,-130.6875,231.75,0.6518555,-1.304199,-0.1669922,-0.3007813,-0.008300781,-0.1767578
2270,-13,-129.875,238.375,0.9853516,-1.436035,-0.1591797,-0.3066406,0.006347656,-0.168457
2274,-8.4375,-109.3125,232.125,1.206055,-1.471191,-0.1630859,-0.3081055,0.03125,-0.1577148
2278,-6.75,-79.6875,220.9375,1.206055,-1.479004,-0.112793,-0.3041992,0.05517578,-0.1469727
2282,-6.1875,-55.4375,221.3125,1.023926,-1.576172,-0.128418,-0.3017578,0.06738281,-0.144043
2286,-9.5,-57.625,238.75,0.7875977,-1.657715,-0.2475586,-0.293457,0.09130859,-0.1401367
2290,-8.375,-89.125,248.0625,0.8261719,-1.688477,-0.394043,-0.2841797,0.1152344,-0.1333008
2294,-10.5,-112.75,240.75,1.124512,-1.74707,-0.4052734,-0.2783203,0.1289063,-0.1264648
2298,-9.875,-100.1875,233.25,1.380371,-1.902344,-0.2861328,-0.2685547,0.1499023,-0.1196289
2302,-3.5,-78.6875,233.3125,1.388184,-1.828613,-0.3012695,-0.2553711,0.1674805,-0.1113281
2306,-11.5625,-68.125,231.25,1.361328,-1.71582,-0.3325195,-0.2460938,0.1772461,-0.1088867
2310,-19.3125,-70.25,228.6875,1.302734,-1.700195,-0.3515625,-0.2329102,0.1948242,-0.1035156
2314,-21.25,-80.5,225.6875,1.322266,-1.587891,-0.4130859,-0.21875,0.2084961,-0.09667969
2318,-27.875,-95.25,218.1875,1.46582,-1.479004,-0.4863281,-0.2080078,0.2172852,-0.09082031
2322,-26.9375,-103.5625,195.75,1.628418,-1.486816,-0.4628906,-0.1948242,0.2324219,-0.08447266
2326,-15.0625,-106.8125,168.0625,1.725586,-1.393555,-0.4594727,-0.1806641,0.2412109,-0.07617188
2330,-8.5625,-125.3125,150.6875,1.791016,-1.253418,-0.4936523,-0.1733398,0.2460938,-0.07470703
2334,-11.6875,-153.5,133,2.070313,-1.098145,-0.5551758,-0.1650391,0.2539063,-0.07080078
2338,-14.5625,-167.6875,101.875,2.53125,-0.9970703,-0.5361328,-0.1567383,0.262207,-0.06542969
2342,-6.0625,-163.75,61.25,2.90332,-0.9428711,-0.5131836,-0.1582031,0.2675781,-0.05957031
2346,8.5625,-139.1875,17.875,3.225098,-0.8613281,-0.5283203,-0.1557617,0.2709961,-0.05419922
2350,12.3125,-81.75,-25.8125,3.488281,-0.7407227,-0.5053711,-0.1591797,0.2685547,-0.05029297
2354,1.875,13.625,-60.5,3.379883,-0.8183594,-0.4052734,-0.1591797,0.2685547,-0.04882813
2358,-9.25,105.75,-76.25,2.849121,-1.032227,-0.3862305,-0.1625977,0.2636719,-0.04638672
2362,-11.4375,169.1875,-79.4375,2.310547,-1.237793,-0.3666992,-0.1674805,0.2587891,-0.05029297
2367,-9.0625,189,-87.5625,1.833984,-1.338867,-0.4248047,-0.168457,0.2548828,-0.05419922
2371,-0.9375,158.375,-122.6875,1.508301,-1.405273,-0.3974609,-0.1748047,0.25,-0.05957031
2375,13.5,99.1875,-169.8125,1.380371,-1.533203,-0.3745117,-0.1816406,0.2436523,-0.06640625
2379,27.9375,49.6875,-210.9375,1.570313,-1.529297,-0.3168945,-0.1914063,0.2373047,-0.06933594
2383,29.1875,45.875,-230.5,1.810547,-1.580078,-0.2553711,-0.206543,0.2226563,-0.07470703
2387,25.3125,72.9375,-229.375,1.946289,-1.708008,-0.3208008,-0.2246094,0.2084961,-0.08007813
2391,20.4375,113.625,-229.8125,1.98877,-1.719727,-0.4052734,-0.234375,0.2001953,-0.08300781
2395,11.625,149.3125,-232,1.791016,-1.793457,-0.4975586,-0.2470703,0.1826172,-0.09375
2399,4.6875,164.6875,-233.375,1.578125,-1.863281,-0.5361328,-0.2602539,0.1660156,-0.1044922
2403,3,165,-238.1875,1.361328,-1.983887,-0.5322266,-0.2675781,0.1538086,-0.1166992
2407,6.625,151.3125,-243.9375,1.213867,-2.015137,-0.5361328,-0.2768555,0.1323242,-0.1303711
2411,8.75,139.4375,-252.3125,1.132324,-1.968262,-0.4360352,-0.2841797,0.1137695,-0.1416016
2415,12.5625,135.75,-261.25,1.027832,-1.956543,-0.3862305,-0.2875977,0.09619141,-0.1484375
2419,19.5625,137.4375,-258.9375,0.9038086,-1.917969,-0.3168945,-0.2924805,0.07128906,-0.1606445
2423,23.5,141.5625,-252.4375,0.7836914,-1.754883,-0.2783203,-0.2949219,0.04638672,-0.1728516
2427,26.375,142.9375,-243.5,0.6328125,-1.649902,-0.2592773,-0.2949219,0.02734375,-0.1782227
2431,28,140.25,-236.1875,0.4892578,-1.583984,-0.2285156,-0.2900391,0.002441406,-0.1918945
2435,32.6875,130.875,-230.8125,0.3574219,-1.498535,-0.1782227,-0.2890625,-0.02197266,-0.2055664
2439,39.375,123.625,-223.75,0.2758789,-1.389648,-0.109375,-0.2817383,-0.03808594,-0.2133789
2443,45.75,125.375,-210.875,0.2529297,-1.29248,-0.01318359,-0.2724609,-0.06054688,-0.2216797
2447,48.8125,134.75,-190.875,0.1870117,-1.183594,0.04052734,-0.2636719,-0.08056641,-0.2338867
2451,52.6875,135.5625,-176.625,0.02441406,-1.047363,-0.009277344,-0.2543945,-0.09570313,-0.2407227
2455,56.3125,122.0625,-171.375,-0.1845703,-0.8496094,-0.0859375,-0.2436523,-0.1142578,-0.2514648
2459,58.5,99.375,-164.0625,-0.3085938,-0.6938477,-0.09765625,-0.2294922,-0.1333008,-0.2568359
2463,63.625,82.0625,-149.5625,-0.362793,-0.5151367,-0.1166992,-0.2211914,-0.1445313,-0.2612305
2467,61.9375,71.8125,-132.9375,-0.3588867,-0.2045898,-0.1977539,-0.2089844,-0.1621094,-0.2651367
2471,43.875,65.375,-115.6875,-0.4169922,0.04003906,-0.2475586,-0.2006836,-0.1733398,-0.2680664
2475,22.8125,54.9375,-88.125,-0.4633789,0.07080078,-0.1899414,-0.1938477,-0.1791992,-0.2680664
2479,10.375,43.5,-61.1875,-0.4594727,0.1679688,-0.1552734,-0.1865234,-0.1870117,-0.2705078
2483,-0.9375,28.875,-38.75,-0.4404297,0.1992188,-0.1323242,-0.1791992,-0.1904297,-0.2749023
2487,-4.8125,11.9375,-29.25,-0.3935547,0.237793,-0.1245117,-0.1772461,-0.1918945,-0.2749023
2491,-5.125,-3.625,-30,-0.3510742,0.2651367,-0.109375,-0.1748047,-0.1918945,-0.2749023
2496,-10.375,-12.6875,-28.125,-0.3354492,0.253418,-0.06689453,-0.1748047,-0.1943359,-0.2749023
2500,-19.5,-18.1875,-18.1875,-0.3706055,0.1757813,-0.02832031,-0.1757813,-0.1933594,-0.2749023
2504,-27.4375,-24.3125,-0.875,-0.4248047,0.1137695,0.02490234,-0.1757813,-0.1933594,-0.2734375
2508,-32.9375,-33,20.8125,-0.4365234,0.05126953,0.04443359,-0.1772461,-0.1894531,-0.2749023
2512,-33.625,-41.875,41.75,-0.3974609,0.02050781,0.07519531,-0.1816406,-0.1879883,-0.2734375
2516,-32.5,-52.3125,56.375,-0.3549805,0.008789063,0.06347656,-0.1855469,-0.1806641,-0.2734375
2520,-29.8125,-67,65.375,-0.2851563,-0.01806641,0.05175781,-0.1938477,-0.1757813,-0.2680664
2524,-29.875,-81.75,76.3125,-0.2192383,-0.03369141,0.03662109,-0.199707,-0.1704102,-0.269043
2528,-35.0625,-96.625,87.5,-0.1381836,-0.09960938,0.02490234,-0.2089844,-0.1621094,-0.2626953
2532,-37.125,-105.75,96.5,0.02441406,-0.2509766,0.08251953,-0.222168,-0.1533203,-0.2583008
2536,-34.5625,-101.75,110.0625,0.2104492,-0.3520508,0.1635742,-0.2304688,-0.1445313,-0.2529297
2540,-30.25,-87.625,117.9375,0.3535156,-0.3911133,0.1865234,-0.2402344,-0.1333008,-0.2475586
2544,-30.625,-76.6875,126.75,0.3339844,-0.5424805,0.1328125,-0.2495117,-0.1206055,-0.2421875
2548,-32,-81.125,132.3125,0.2836914,-0.4648438,0.09423828,-0.253418,-0.1118164,-0.237793
2552,-35.8125,-95.9375,134.3125,0.2915039,-0.5737305,0.05957031,-0.2636719,-0.09716797,-0.230957
2556,-35.8125,-103.4375,139.5,0.3808594,-0.7368164,0.1210938,-0.2709961,-0.08300781,-0.2216797
2560,-24.0625,-96.3125,145.25,0.4892578,-0.8535156,0.1865234,-0.2768555,-0.07177734,-0.2148438
2564,-8.9375,-90.5625,150.4375,0.4467773,-0.8613281,0.1210938,-0.2841797,-0.05712891,-0.206543
2568,-9.0625,-101.8125,162.375,0.3999023,-0.8574219,-0.02050781,-0.2900391,-0.04199219,-0.199707
2572,-14.875,-119.6875,169.625,0.5087891,-0.9580078,-0.08203125,-0.2924805,-0.02929688,-0.1943359
2576,-16,-129,172.4375,0.625,-1.125488,-0.04394531,-0.2958984,-0.01318359,-0.1821289
2580,-3.5625,-126.6875,174.875,0.7451172,-1.354492,-0.04394531,-0.3017578,0.00390625,-0.1728516
2584,13.25,-124.875,178.375,0.7490234,-1.397461,-0.1206055,-0.3056641,0.01513672,-0.1630859
2588,19.25,-132.8125,185.9375,0.8071289,-1.327148,-0.2089844,-0.3066406,0.03613281,-0.1538086
2592,17.3125,-137.3125,197.125,0.9970703,-1.342773,-0.2514648,-0.3066406,0.05273438,-0.1425781
2596,12.9375,-127.6875,209.6875,1.213867,-1.350586,-0.2822266,-0.3056641,0.06494141,-0.1347656
2600,5.6875,-99.875,213.6875,1.384277,-1.393555,-0.2670898,-0.3041992,0.08740234,-0.125
2604,0.25,-64.625,213.25,1.361328,-1.48291,-0.2705078,-0.2949219,0.1064453,-0.1166992
2608,0.6875,-51.0625,210.375,1.13623,-1.494629,-0.324707,-0.2890625,0.1201172,-0.1142578
2612,-1.875,-65.8125,207.875,0.9658203,-1.529297,-0.4091797,-0.2768555,0.1386719,-0.1113281
2616,-2.625,-89.5,203.8125,1.101563,-1.583984,-0.4555664,-0.2675781,0.15625,-0.1035156
2620,-1.5625,-90.5,199.875,1.299316,-1.587891,-0.3974609,-0.2602539,0.1660156,-0.09765625
2625,-3.1875,-69.8125,197.6875,1.395996,-1.498535,-0.3632813,-0.2495117,0.1801758,-0.09228516
2629,-8.75,-49.8125,198.375,1.26416,-1.424316,-0.378418,-0.2363281,0.1938477,-0.08984375
2633,-13.5625,-54.875,198.1875,1.19043,-1.331055,-0.4628906,-0.2255859,0.2036133,-0.08691406
2637,-21.1875,-63.875,193.0625,1.229492,-1.207031,-0.5053711,-0.215332,0.2148438,-0.08154297
2641,-31.3125,-76.375,184.9375,1.225586,-1.179688,-0.5131836,-0.203125,0.2250977,-0.07763672
2645,-32.0625,-91.3125,176.125,1.29541,-1.241699,-0.4746094,-0.1948242,0.2338867,-0.07080078
2649,-23.3125,-99.4375,176.375,1.473633,-1.304199,-0.4208984,-0.1816406,0.2436523,-0.06542969
2653,-16.5625,-103.5,178.625,1.713867,-1.233887,-0.4282227,-0.1708984,0.2548828,-0.05957031
2657,-16.375,-109.9375,161.375,1.942383,-1.125488,-0.4477539,-0.1625977,0.2612305,-0.05859375
2661,-17.0625,-132.8125,136.625,2.236816,-1.098145,-0.4707031,-0.1533203,0.2739258,-0.05029297
2665,-5.0625,-154.8125,88,2.697754,-1.117676,-0.4130859,-0.1459961,0.28125,-0.04345703
2669,24.125,-126.875,24.625,3.20166,-1.055176,-0.4169922,-0.1459961,0.2822266,-0.04052734
2673,30,-38.5,-33.375,3.387695,-0.8300781,-0.3706055,-0.1450195,0.2836914,-0.03662109
2677,7.9375,66.5625,-71.9375,3.039063,-0.7563477,-0.4477539,-0.1494141,0.2797852,-0.03662109
2681,-15.3125,150.875,-83.8125,2.484863,-1.036133,-0.4248047,-0.1508789,0.2739258,-0.04052734
2685,-16.0625,202.25,-81,1.992676,-1.29248,-0.4594727,-0.1533203,0.2675781,-0.04638672
2689,-8.75,208.125,-87.6875,1.655762,-1.354492,-0.5283203,-0.1557617,0.262207,-0.05419922
2693,0.625,174,-118.9375,1.458008,-1.389648,-0.5092773,-0.1591797,0.2587891,-0.05859375
2697,11.1875,127.6875,-152.9375,1.461914,-1.490723,-0.4516602,-0.1674805,0.2524414,-0.06640625
2701,21.3125,97.4375,-183.5,1.608887,-1.556641,-0.4052734,-0.1782227,0.2451172,-0.07177734
2705,26.875,87.9375,-202.875,1.725586,-1.618652,-0.4208984,-0.1875,0.2387695,-0.07861328
2709,27,92.8125,-213.875,1.818359,-1.657715,-0.4785156,-0.2021484,0.2260742,-0.08447266
2713,22,111.1875,-225.5625,1.853027,-1.71582,-0.4975586,-0.215332,0.2163086,-0.08984375
2717,17.125,136.75,-239.0625,1.725586,-1.824707,-0.5361328,-0.2270508,0.2050781,-0.09765625
2721,10.5,152.9375,-248,1.48877,-1.925781,-0.5551758,-0.2387695,0.1884766,-0.1088867
2725,6.875,162.125,-247.0625,1.326172,-2.038574,-0.5131836,-0.253418,0.1713867,-0.1166992
2729,10.6875,168.25,-246.6875,1.194336,-2.06543,-0.4438477,-0.2592773,0.1586914,-0.125
2733,17.125,173.8125,-243.125,1.121094,-2.01123,-0.394043,-0.2685547,0.1376953,-0.1416016
2737,22.3125,173.5,-246.625,1.055176,-1.929688,-0.359375,-0.2758789,0.1137695,-0.15625
2741,30.0625,172.25,-257.0625,0.9658203,-1.878906,-0.2822266,-0.2783203,0.09765625,-0.1660156
2745,41.25,161.5625,-255.75,0.7680664,-1.828613,-0.2514648,-0.2817383,0.07128906,-0.1821289
2749,47.4375,143.3125,-250.0625,0.7177734,-1.634277,-0.2128906,-0.2827148,0.04736328,-0.1943359
2754,46.3125,132.3125,-247.8125,0.7412109,-1.513672,-0.2016602,-0.2807617,0.02880859,-0.2026367
2758,45.8125,130.8125,-240.75,0.7373047,-1.397461,-0.1323242,-0.2768555,0.00390625,-0.2133789
2762,42,135.5,-231.0625,0.7333984,-1.284668,-0.1401367,-0.2724609,-0.02197266,-0.2270508
2766,36.3125,141,-229,0.7216797,-1.191406,-0.09375,-0.2651367,-0.03564453,-0.2353516
2770,36.3125,147.375,-231.1875,0.6635742,-1.179688,-0.03222656,-0.2553711,-0.06054688,-0.2446289
2774,40.125,157.5625,-226.5625,0.5551758,-1.140625,0.005859375,-0.2426758,-0.08056641,-0.2583008
2778,43.4375,170.9375,-215.8125,0.3730469,-1.059082,-0.001464844,-0.2319336,-0.09570313,-0.2666016
2782,52,172,-196.1875,0.05126953,-0.9814453,-0.02050781,-0.2138672,-0.1157227,-0.2773438
2786,59.625,156.8125,-177.5625,-0.215332,-0.7563477,-0.06689453,-0.1948242,-0.1318359,-0.2856445
2790,63.9375,120.1875,-162.8125,-0.4482422,-0.6044922,-0.08203125,-0.1816406,-0.1455078,-0.2910156
2794,66.625,77.3125,-148.5625,-0.5683594,-0.4882813,-0.09765625,-0.1674805,-0.1591797,-0.2963867
2798,65.875,39.4375,-131.9375,-0.5795898,-0.3364258,-0.112793,-0.1557617,-0.1757813,-0.2978516
2802,61.6875,17.3125,-116.5,-0.5722656,-0.2202148,-0.1474609,-0.1508789,-0.1806641,-0.2963867
2806,50.125,6.125,-97.5,-0.5605469,-0.1538086,-0.1474609,-0.1435547,-0.1933594,-0.2949219
2810,37.25,-7.5625,-76.75,-0.6767578,-0.04882813,-0.1977539,-0.1391602,-0.2006836,-0.2924805
2814,31.3125,-21.375,-62.0625,-0.7426758,0.05517578,-0.2128906,-0.1391602,-0.203125,-0.2895508
2818,25.6875,-35.5625,-42.5625,-0.7695313,0.07861328,-0.1938477,-0.1367188,-0.2104492,-0.2895508
2822,17.75,-42.6875,-14.5,-0.699707,0.08642578,-0.128418,-0.1376953,-0.2128906,-0.2856445
2826,12.125,-47.625,9.25,-0.6186523,0.04736328,-0.1323242,-0.1391602,-0.2128906,-0.2827148
2830,5.75,-49.9375,23.8125,-0.5024414,0.05517578,-0.09765625,-0.1459961,-0.2143555,-0.2802734
2834,-1.8125,-45.9375,35.9375,-0.4052734,0.02050781,-0.04736328,-0.1508789,-0.2119141,-0.2802734
2838,-4.875,-36.625,48.6875,-0.3510742,-0.02587891,-0.01660156,-0.1557617,-0.2119141,-0.2758789
2842,-8.0625,-26,64.6875,-0.3510742,-0.01806641,-0.02441406,-0.1601563,-0.2070313,-0.2773438
2846,-12.875,-20.8125,82.625,-0.3706055,-0.06445313,-0.03613281,-0.1650391,-0.203125,-0.2758789
2850,-19.75,-24.5,104,-0.3974609,-0.09960938,-0.08984375,-0.1708984,-0.1982422,-0.2758789
2854,-31.3125,-38.5,124.6875,-0.3901367,-0.1538086,-0.128418,-0.1772461,-0.1918945,-0.2749023
2858,-44.875,-56.25,142.6875,-0.2661133,-0.3364258,-0.09375,-0.1889648,-0.1791992,-0.2749023
2862,-47.75,-65.5625,149.5625,0.004882813,-0.1694336,0.105957,-0.1972656,-0.1733398,-0.2719727
2866,-36.375,-72.9375,162.5625,0.06689453,-0.6552734,0.04785156,-0.206543,-0.1567383,-0.2680664
2870,-22.8125,-78.625,164.9375,0.2373047,-0.6938477,0.07128906,-0.2172852,-0.1420898,-0.2651367
2874,-19.375,-79.75,170.25,0.3999023,-0.7290039,0.05566406,-0.2270508,-0.1318359,-0.2597656
2878,-24.5,-78.1875,175,0.5009766,-0.7172852,0.02490234,-0.2363281,-0.1181641,-0.2543945
2883,-37.75,-72.875,186.875,0.578125,-0.7407227,0.04785156,-0.2460938,-0.1005859,-0.25
2887,-49.125,-66.5625,202.75,0.6328125,-0.8764648,0.09033203,-0.2519531,-0.08837891,-0.2446289
2891,-53.5,-67.25,214.5,0.644043,-0.9775391,0.1020508,-0.2578125,-0.06689453,-0.2392578
2895,-52.5,-75,217.1875,0.7294922,-1.136719,0.125,-0.2636719,-0.04296875,-0.2353516
2899,-43.1875,-79.25,215,0.7915039,-1.245605,0.09814453,-0.2675781,-0.02929688,-0.230957
2903,-38.375,-89.375,219.8125,0.8222656,-1.29248,0.02490234,-0.2700195,-0.006835938,-0.2216797
2907,-40.5625,-101.875,227.9375,0.8613281,-1.304199,-0.02832031,-0.2724609,0.01513672,-0.2133789
2911,-43.8125,-114.8125,236.3125,0.9501953,-1.374023,-0.03222656,-0.2744141,0.03125,-0.2094727
2915,-45,-116.25,243.3125,1.159668,-1.447754,-0.04003906,-0.2758789,0.05615234,-0.199707
2919,-45.1875,-109.1875,243.3125,1.260254,-1.494629,-0.06689453,-0.2709961,0.07861328,-0.1875
2923,-44.75,-104.9375,234.625,1.275879,-1.479004,-0.1015625,-0.2675781,0.09521484,-0.1821289
2927,-46.1875,-112,225.4375,1.19043,-1.513672,-0.128418,-0.2636719,0.1176758,-0.1699219
2931,-44.875,-122.3125,223.875,1.237305,-1.626465,-0.1474609,-0.2543945,0.1347656,-0.1591797
2935,-41.4375,-122.375,220.3125,1.233398,-1.708008,-0.112793,-0.2495117,0.1523438,-0.1523438
2939,-33.1875,-123.8125,224.375,1.202148,-1.824707,-0.1245117,-0.2402344,0.1689453,-0.1425781
2943,-21.375,-130.75,232.375,1.345703,-1.848145,-0.1401367,-0.2294922,0.1835938,-0.1289063
2947,-12.5625,-134.1875,215.3125,1.597656,-1.661621,-0.1821289,-0.2211914,0.1938477,-0.125
2951,-9,-122.5625,184.5625,1.760254,-1.583984,-0.09765625,-0.2114258,0.2075195,-0.1157227
2955,-5.75,-99.875,172.6875,1.822266,-1.533203,0.005859375,-0.2006836,0.21875,-0.1098633
2959,-2.6875,-75.125,175.3125,1.89209,-1.401367,0.07519531,-0.1948242,0.2250977,-0.1035156
2963,2.0625,-50.375,179.375,2.008301,-1.284668,0.06738281,-0.1816406,0.2363281,-0.1020508
2967,5.8125,-24.6875,167.5,1.992676,-1.207031,0.07910156,-0.168457,0.2451172,-0.1044922
2971,16.125,-21.625,162.3125,1.849121,-1.22998,0.01367188,-0.1601563,0.2509766,-0.1044922
2975,27.25,-61.0625,152.875,1.794922,-1.125488,-0.07861328,-0.1459961,0.2597656,-0.1098633
2979,42,-147.9375,136.875,2.058594,-0.9506836,-0.3901367,-0.1303711,0.2700195,-0.1142578
2983,41.9375,-234.625,74.25,2.856934,-0.6435547,-0.5170898,-0.1245117,0.2739258,-0.1166992
2987,34.9375,-203.0625,-32.5,3.713379,-0.4921875,-0.3398438,-0.128418,0.2763672,-0.1142578
2991,20.375,-61.4375,-114.625,3.697754,-0.6552734,-0.07080078,-0.1401367,0.2724609,-0.1088867
2995,-7.25,97.125,-116.5,3.085449,-0.9814453,0.03271484,-0.1459961,0.2661133,-0.1035156
2999,-20.4375,216.625,-86.625,2.450195,-1.203125,-0.1435547,-0.1557617,0.2563477,-0.1044922
3003,-20.0625,256.5625,-74.5625,1.837891,-1.22998,-0.3476563,-0.1557617,0.2509766,-0.1074219
3007,-15.4375,212.3125,-110.875,1.333984,-1.342773,-0.4169922,-0.1582031,0.2460938,-0.112793
3012,0.9375,125.5,-163.9375,1.182617,-1.572266,-0.2783203,-0.1625977,0.2397461,-0.1181641
3016,22.8125,71.25,-194.125,1.388184,-1.766602,-0.03613281,-0.1748047,0.2314453,-0.1225586
3020,38.375,55.875,-202,1.512207,-1.840332,-0.005371094,-0.1816406,0.2236328,-0.125
3024,48.4375,39.625,-212.3125,1.426758,-1.793457,-0.08203125,-0.1962891,0.2114258,-0.1318359
3028,55.625,0,-232.25,1.299316,-1.653809,-0.2285156,-0.2104492,0.1987305,-0.1357422
3032,58.4375,-48.9375,-256.1875,1.372559,-1.626465,-0.2978516,-0.2236328,0.1875,-0.137207
3036,51.5625,-66.9375,-269.1875,1.678711,-1.638184,-0.2978516,-0.2412109,0.1689453,-0.137207
3040,34.6875,-41.875,-274.25,1.915039,-1.67334,-0.2822266,-0.2617188,0.1459961,-0.1347656
3044,11.0625,13.1875,-271.6875,1.950195,-1.731445,-0.2514648,-0.2724609,0.1313477,-0.1347656
3048,-10,65.75,-266.25,1.698242,-1.828613,-0.1938477,-0.2866211,0.1074219,-0.137207
3052,-17.625,101.4375,-260,1.419434,-1.902344,-0.1552734,-0.2949219,0.08398438,-0.1416016
3056,-12.5,111.1875,-267.1875,1.09375,-1.933594,-0.1435547,-0.2998047,0.06884766,-0.1494141
3060,-2,101.5625,-277.0625,0.8574219,-1.902344,-0.128418,-0.3032227,0.04248047,-0.1547852
3064,2.875,98.625,-275.0625,0.7490234,-1.809082,-0.04736328,-0.3041992,0.01367188,-0.1645508
3068,2.6875,112.125,-262.875,0.675293,-1.71582,-0.001464844,-0.3056641,-0.003417969,-0.1728516
3072,2.1875,126,-246,0.5048828,-1.548828,-0.01660156,-0.3007813,-0.03076172,-0.1821289
3076,4.8125,130.9375,-232.25,0.3071289,-1.412598,-0.001464844,-0.293457,-0.05322266,-0.1943359
3080,11.75,120.9375,-218.5,0.1831055,-1.296387,-0.01660156,-0.2890625,-0.06933594,-0.199707
3084,16.75,109.1875,-204.625,0.1518555,-1.125488,-0.01660156,-0.2768555,-0.09082031,-0.2119141
3088,16,108,-194.5,0.1713867,-0.9077148,-0.005371094,-0.2675781,-0.109375,-0.2202148
3092,10.875,111.9375,-186.4375,0.03564453,-0.7680664,-0.001464844,-0.2592773,-0.1230469,-0.2285156
3096,10.625,111.6875,-166.875,-0.09521484,-0.7133789,0.02099609,-0.2460938,-0.1381836,-0.237793
3100,15.75,100.3125,-136.625,-0.1962891,-0.6005859,-0.001464844,-0.2353516,-0.1518555,-0.2446289
3104,16.625,79.75,-117.0625,-0.1420898,-0.3095703,-0.05517578,-0.2294922,-0.1606445,-0.2475586
3108,11.5625,61.625,-115.0625,-0.03710938,-0.1381836,-0.04003906,-0.21875,-0.1704102,-0.2543945
3112,3.875,53.625,-113.0625,0.1171875,-0.06835938,-0.03613281,-0.2089844,-0.1782227,-0.2558594
3116,-6.6875,60,-107.5,0.1674805,-0.06835938,0.07128906,-0.203125,-0.1845703,-0.2597656
3120,-9.75,72.5625,-91.0625,0.1132813,-0.1655273,0.159668,-0.1923828,-0.1904297,-0.2651367
3124,1.75,81.3125,-88.1875,-0.006347656,-0.07226563,0.1132813,-0.184082,-0.1958008,-0.2666016
3128,5.875,86.125,-91.25,-0.1923828,0.04736328,0.105957,-0.1733398,-0.1992188,-0.2705078
3132,6.875,77.3125,-80.5,-0.4555664,0.1484375,0.05566406,-0.1625977,-0.203125,-0.2758789
3136,7.75,47.9375,-65.875,-0.6650391,0.3427734,-0.01318359,-0.1533203,-0.2080078,-0.2788086
3141,-2,5.8125,-48.75,-0.8237305,0.2612305,-0.06298828,-0.1474609,-0.2094727,-0.2802734
3145,-11.6875,-35.625,-26.8125,-0.7929688,0.2265625,0.001953125,-0.1459961,-0.2119141,-0.2817383
3149,-17.3125,-60.25,3.1875,-0.6494141,0.1445313,0.06347656,-0.1508789,-0.2119141,-0.2788086
3153,-21.25,-67.25,33.3125,-0.4868164,0.09814453,0.1098633,-0.1542969,-0.2104492,-0.2734375
3157,-25.125,-65.75,55.3125,-0.3745117,0.03222656,0.144043,-0.1616211,-0.2080078,-0.2734375
3161,-22.9375,-64.1875,67.3125,-0.328125,-0.05664063,0.1748047,-0.1699219,-0.1992188,-0.2734375
3165,-17.1875,-64.125,77.5,-0.2890625,-0.1113281,0.2021484,-0.1757813,-0.1958008,-0.2719727
3169,-12.5,-62.0625,88.875,-0.262207,-0.1616211,0.2250977,-0.1855469,-0.1933594,-0.2680664
3173,-6.5,-61.9375,102.125,-0.2734375,-0.2470703,0.2133789,-0.1938477,-0.1845703,-0.2636719
3177,0.125,-69.8125,117.25,-0.3046875,-0.3208008,0.159668,-0.2021484,-0.1791992,-0.2583008
3181,5.8125,-80.0625,133.0625,-0.2270508,-0.4067383,0.1557617,-0.2114258,-0.171875,-0.2558594
3185,13.6875,-82.9375,148.4375,0.01269531,-0.355957,0.2749023,-0.2236328,-0.1621094,-0.2490234
3189,43,-74.375,158.5625,0.1210938,-0.7719727,0.2983398,-0.2304688,-0.1542969,-0.2436523
3193,75.1875,-65.625,170.125,0.1987305,-0.7949219,0.2636719,-0.2402344,-0.1455078,-0.237793
3197,84,-63.375,185.8125,0.3149414,-0.5581055,0.07519531,-0.253418,-0.1381836,-0.230957
3201,50.375,-67.5,191.125,0.5126953,-0.2978516,-0.04003906,-0.2578125,-0.1293945,-0.2255859
3205,8.5,-59.5625,184.3125,0.6948242,-0.371582,0.05566406,-0.2685547,-0.1157227,-0.2177734
3209,-5.125,-34.625,180.125,0.6982422,-0.7290039,0.1748047,-0.2744141,-0.09814453,-0.2148438
3213,2.4375,-18.4375,193.375,0.5859375,-0.9506836,0.159668,-0.2783203,-0.08691406,-0.2119141
3217,6.6875,-19.125,211.0625,0.5708008,-0.8881836,0.1210938,-0.2807617,-0.06933594,-0.2080078
3221,-2.9375,-30,222.8125,0.609375,-0.8378906,0.05957031,-0.2827148,-0.04833984,-0.2055664
3225,-16.125,-44.0625,226.1875,0.7060547,-0.8842773,0.01708984,-0.2851563,-0.03564453,-0.206543
3229,-28,-49,219.8125,0.8261719,-0.9853516,0.05566406,-0.2841797,-0.01318359,-0.2026367
3233,-35.125,-44.5,221.5,0.8417969,-1.207031,0.07519531,-0.2866211,0.008789063,-0.1972656
3237,-35.625,-47.1875,230.0625,0.7875977,-1.300293,0.02880859,-0.2875977,0.02490234,-0.1958008
3241,-38.1875,-68,241.625,0.7680664,-1.354492,-0.05126953,-0.2807617,0.04882813,-0.1918945
3245,-45.4375,-89.75,244.125,0.9116211,-1.397461,-0.08984375,-0.2768555,0.07275391,-0.1835938
3249,-54.0625,-98,238,1.059082,-1.556641,-0.06689453,-0.2734375,0.08886719,-0.1767578
3253,-46.125,-100.5625,230.1875,1.175293,-1.696289,-0.07080078,-0.2685547,0.1123047,-0.1699219
3257,-37.625,-97.9375,217.125,1.233398,-1.638184,-0.1054688,-0.2602539,0.1298828,-0.1591797
3261,-41.0625,-90.1875,209.75,1.179199,-1.665527,-0.08984375,-0.253418,0.1411133,-0.1523438
3265,-41,-84.8125,214.625,1.066406,-1.781738,-0.1015625,-0.2460938,0.1601563,-0.144043
3270,-35.4375,-91.0625,230.1875,1.132324,-1.812988,-0.1552734,-0.2319336,0.1762695,-0.1357422
3274,-31.3125,-89.25,223.0625,1.403809,-1.677246,-0.1669922,-0.2255859,0.1884766,-0.1279297
3278,-34.1875,-67.4375,193.125,1.454102,-1.576172,-0.1938477,-0.2128906,0.2026367,-0.1225586
3282,-40.375,-55.0625,177.9375,1.144043,-1.626465,-0.2324219,-0.2021484,0.2138672,-0.1142578
3286,-46.4375,-72.1875,181.75,0.9389648,-1.696289,-0.2475586,-0.1948242,0.2211914,-0.112793
3290,-43.5625,-109.6875,197.6875,0.9580078,-1.773926,-0.2592773,-0.1816406,0.2324219,-0.1044922
3294,-33.3125,-142.75,201.9375,1.241211,-1.688477,-0.2016602,-0.168457,0.2451172,-0.09765625
3298,-17.5,-156.4375,193.25,1.550781,-1.560547,-0.2436523,-0.1601563,0.2539063,-0.09228516
3302,0,-152.1875,159.3125,1.888184,-1.463379,-0.1938477,-0.1450195,0.2661133,-0.08837891
3306,20.875,-138.0625,126.9375,2.085938,-1.253418,-0.2783203,-0.1328125,0.2773438,-0.09082031
3310,28.5,-135.125,108.125,2.302734,-1.121582,-0.4785156,-0.1259766,0.2875977,-0.09912109
3314,33.5,-129.3125,83.875,2.620605,-1.086426,-0.6513672,-0.1152344,0.2998047,-0.112793
3318,35.125,-98.1875,52.3125,3.089355,-0.9155273,-0.7553711,-0.1079102,0.3076172,-0.1225586
3322,24.625,-30.25,-35.8125,3.120605,-0.7211914,-0.7246094,-0.109375,0.3061523,-0.1235352
3326,1.25,67.3125,-102.3125,2.721191,-0.7368164,-0.5244141,-0.1152344,0.2963867,-0.1142578
3330,-18.625,157.4375,-114.25,2.166992,-1.15625,-0.4667969,-0.1269531,0.2851563,-0.1005859
3334,-23.125,217.1875,-97.0625,1.570313,-1.315918,-0.4902344,-0.1328125,0.2749023,-0.09521484
3338,-26.9375,230.375,-87.875,1.151855,-1.334961,-0.4936523,-0.1411133,0.2651367,-0.09375
3342,-26.8125,203.0625,-104.4375,0.9350586,-1.401367,-0.4667969,-0.1450195,0.2587891,-0.09765625
3346,-17.125,158.875,-133.8125,0.8769531,-1.537109,-0.3706055,-0.1474609,0.2548828,-0.09912109
3350,-3.9375,119,-163.1875,0.9814453,-1.665527,-0.2055664,-0.1567383,0.2485352,-0.1035156
3354,10.8125,101.25,-178.3125,1.163574,-1.67334,-0.08984375,-0.168457,0.2426758,-0.1074219
3358,15.5,107.4375,-176.875,1.302734,-1.618652,-0.05517578,-0.1757813,0.2338867,-0.1113281
3362,13.5625,115.75,-178.0625,1.322266,-1.61084,-0.09765625,-0.1855469,0.2260742,-0.1166992
3366,13.9375,112.125,-192.8125,1.283691,-1.669434,-0.1435547,-0.1962891,0.2148438,-0.1235352
3370,21,99.3125,-218.5,1.279785,-1.789551,-0.1435547,-0.2055664,0.2099609,-0.1279297
3374,27.0625,96.375,-236.6875,1.322266,-1.882813,-0.0859375,-0.2172852,0.1948242,-0.1386719
3378,32,106.5,-238.0625,1.29541,-1.917969,-0.04736328,-0.2294922,0.1801758,-0.1455078
3382,31.8125,123,-235.5,1.233398,-1.882813,-0.07080078,-0.237793,0.1674805,-0.1523438
3386,29.5625,137.8125,-232.3125,1.109375,-1.886719,-0.0859375,-0.2485352,0.1474609,-0.1616211
3390,36.0625,144.4375,-232.5,0.9892578,-1.921875,-0.0859375,-0.2553711,0.1289063,-0.1738281
3394,52.1875,139.625,-239.25,0.7954102,-1.852051,-0.0859375,-0.2568359,0.1152344,-0.1821289
3399,62.25,125.8125,-246.625,0.6518555,-1.711914,-0.07470703,-0.2626953,0.09130859,-0.1943359
3403,62.375,109.375,-243.1875,0.5200195,-1.583984,-0.04003906,-0.2661133,0.06640625,-0.2055664
3407,60.25,94.8125,-228.75,0.4580078,-1.513672,-0.01660156,-0.2661133,0.04980469,-0.2109375
3411,60.625,84.25,-212,0.4467773,-1.432129,0.02099609,-0.2675781,0.02636719,-0.2231445
3415,63.3125,77.5,-201.1875,0.4155273,-1.312012,0.02099609,-0.2651367,0.004882813,-0.2299805
3419,67.5,71.8125,-193.875,0.3535156,-1.1875,0.009765625,-0.2636719,-0.009277344,-0.2338867
3423,70.875,61.625,-183.25,0.3227539,-0.9736328,-0.02441406,-0.2602539,-0.03173828,-0.237793
3427,66.1875,58.125,-180.125,0.3574219,-0.7172852,-0.04003906,-0.2578125,-0.05322266,-0.2446289
3431,55.9375,59.8125,-169.25,0.3227539,-0.6162109,-0.04394531,-0.253418,-0.06591797,-0.2475586
3435,44.875,60.125,-152.1875,0.2797852,-0.4921875,-0.05126953,-0.2470703,-0.08300781,-0.25
3439,33.0625,61.4375,-136.3125,0.2954102,-0.371582,-0.04394531,-0.2412109,-0.09814453,-0.2568359
3443,21.875,67.0625,-121.125,0.3227539,-0.2705078,-0.01660156,-0.2363281,-0.1069336,-0.2583008
3447,6.875,79.5625,-114.3125,0.3110352,-0.1191406,0.02490234,-0.2255859,-0.1181641,-0.2626953
3451,-4.125,87.625,-112.8125,0.159668,-0.1733398,0.07128906,-0.21875,-0.1269531,-0.269043
3455,0.125,80.1875,-107.4375,0.02050781,-0.2431641,0.105957,-0.2114258,-0.1333008,-0.2749023
3459,8.5,63.8125,-100.8125,-0.07226563,-0.1850586,0.1132813,-0.2021484,-0.1396484,-0.2802734
3463,10.6875,48.25,-89.625,-0.08398438,-0.1152344,0.1557617,-0.1948242,-0.1469727,-0.2827148
3467,11.9375,41.9375,-83.6875,-0.07617188,-0.06054688,0.1904297,-0.1889648,-0.1518555,-0.2827148
3471,11.3125,41.125,-75.6875,-0.1342773,-0.002441406,0.2060547,-0.1831055,-0.1582031,-0.2841797
3475,9.4375,39.875,-67.8125,-0.2426758,0.03613281,0.1713867,-0.1748047,-0.1630859,-0.2885742
3479,6.375,28.8125,-55.1875,-0.3823242,0.07470703,0.1479492,-0.1708984,-0.1669922,-0.2895508
3483,4.5625,11.8125,-38.5,-0.5063477,0.06298828,0.1171875,-0.168457,-0.1704102,-0.2895508
3487,0.8125,-9.6875,-21.8125,-0.5683594,0.08642578,0.09033203,-0.1665039,-0.1733398,-0.2924805
3491,-0.375,-30,-5,-0.5488281,0.08642578,0.105957,-0.1674805,-0.1733398,-0.2895508
3495,1.875,-42.8125,9.8125,-0.4672852,0.06689453,0.1289063,-0.1699219,-0.171875,-0.2895508
3499,4.5625,-49.5,20.6875,-0.3823242,0.1020508,0.08642578,-0.1733398,-0.1704102,-0.2871094
3503,1.75,-52.3125,31.5625,-0.3203125,0.1098633,0.08642578,-0.1757813,-0.171875,-0.2856445
3507,-1.875,-52.0625,43.75,-0.2851563,0.04003906,0.1020508,-0.1816406,-0.1704102,-0.2817383
3511,-1.75,-54,56.1875,-0.2661133,-0.002441406,0.09814453,-0.1899414,-0.1669922,-0.2788086
3515,-2.1875,-57.8125,68.5625,-0.2348633,-0.04150391,0.09423828,-0.1948242,-0.1621094,-0.2734375
3519,-2.0625,-62.1875,81.625,-0.1845703,-0.1113281,0.1020508,-0.2006836,-0.1591797,-0.2734375
3523,-0.25,-67.4375,95.875,-0.1459961,-0.1694336,0.07519531,-0.2089844,-0.1518555,-0.2680664
3528,0,-79.3125,108.8125,-0.09912109,-0.1772461,0.05566406,-0.2163086,-0.1479492,-0.2636719
3532,-2.125,-92.875,116.6875,0.008789063,-0.1694336,0.03271484,-0.2270508,-0.1367188,-0.2583008
3536,-7.6875,-104.8125,124.5625,0.09033203,-0.2470703,0.02099609,-0.2353516,-0.1293945,-0.25
3540,-10.6875,-112.375,137.0625,0.1870117,-0.4335938,-0.001464844,-0.2446289,-0.1206055,-0.2436523
3544,-11.25,-116.8125,146.9375,0.3305664,-0.5737305,0.05566406,-0.2578125,-0.1083984,-0.2353516
3548,-1.3125,-117.625,149.4375,0.4892578,-0.6083984,0.04443359,-0.2675781,-0.09423828,-0.2246094
3552,-2.0625,-108.875,153.5625,0.644043,-0.5854492,0.02880859,-0.2758789,-0.08300781,-0.2202148
3556,-14.9375,-89.875,160.4375,0.7138672,-0.6162109,0.02099609,-0.2817383,-0.06933594,-0.2094727
3560,-25.5625,-74.4375,167.9375,0.659668,-0.7753906,0.01708984,-0.2875977,-0.0546875,-0.2026367
3564,-24.75,-74.0625,171.0625,0.5708008,-0.9658203,-0.001464844,-0.2915039,-0.04052734,-0.199707
3568,-15.4375,-84,174.5625,0.5551758,-1.066895,-0.04736328,-0.293457,-0.0234375,-0.1943359
3572,-10.9375,-95.3125,184.875,0.6328125,-1.109863,-0.08984375,-0.2973633,-0.004394531,-0.1850586
3576,-13.0625,-98.125,192.5,0.7954102,-1.160156,-0.1054688,-0.2983398,0.006347656,-0.1782227
3580,-12.875,-92.75,195.75,0.8999023,-1.226563,-0.109375,-0.2983398,0.02636719,-0.1699219
3584,-13.75,-85.75,200.125,0.9350586,-1.315918,-0.1323242,-0.3007813,0.04736328,-0.1630859
3588,-15.25,-79.1875,212.4375,0.9814453,-1.362305,-0.1401367,-0.2958984,0.06103516,-0.1591797
3592,-17.3125,-72.9375,222.875,1.082031,-1.323242,-0.1323242,-0.2924805,0.08251953,-0.1508789
3596,-21,-60.5625,219.4375,1.171387,-1.323242,-0.1630859,-0.2851563,0.1035156,-0.144043
3600,-29.25,-52.9375,213,1.066406,-1.334961,-0.2167969,-0.2792969,0.1201172,-0.1401367
3604,-39.6875,-53.3125,212.9375,0.9814453,-1.439941,-0.2167969,-0.2685547,0.1376953,-0.1357422
3608,-44.25,-57.5,220.25,0.9736328,-1.564453,-0.2055664,-0.2592773,0.1577148,-0.1289063
3612,-45.1875,-65.625,224.4375,1.023926,-1.630371,-0.1977539,-0.2509766,0.1689453,-0.1235352
3616,-41.875,-76.6875,218.6875,1.155762,-1.657715,-0.2089844,-0.2387695,0.1860352,-0.1166992
3620,-34.9375,-77.625,196.875,1.279785,-1.606934,-0.1708984,-0.2246094,0.2026367,-0.1074219
3624,-33.3125,-59.375,177.6875,1.310547,-1.564453,-0.1166992,-0.2172852,0.2114258,-0.105957
3628,-35.875,-32.25,177.1875,1.155762,-1.603027,-0.07861328,-0.2055664,0.2197266,-0.1020508
3632,-35.0625,-30.75,191.0625,0.9541016,-1.649902,-0.1401367,-0.1938477,0.2299805,-0.09667969
3636,-28.6875,-57.8125,191,1.043457,-1.552734,-0.2324219,-0.1816406,0.2373047,-0.09375
3640,-25.5,-72.6875,163.875,1.237305,-1.408691,-0.1899414,-0.168457,0.2460938,-0.08691406
3644,-21,-62.875,132.25,1.291504,-1.312012,-0.1591797,-0.1582031,0.2548828,-0.08300781
3648,-21.8125,-35.4375,118.3125,1.163574,-1.245605,-0.1166992,-0.1533203,0.2587891,-0.08007813
3652,-28.125,-1.5625,128.6875,0.9814453,-1.22998,-0.1323242,-0.1435547,0.2651367,-0.07861328
3657,-39,6.9375,137.5,0.6791992,-1.160156,-0.2246094,-0.1328125,0.2709961,-0.07763672
3661,-48.25,-24.0625,126.125,0.4931641,-1.133301,-0.3359375,-0.1259766,0.2763672,-0.07324219
3665,-52.25,-103.3125,77.8125,0.2138672,-1.15625,-0.3901367,-0.1186523,0.2822266,-0.06933594
3669,-16.25,-201.1875,106.875,3.868164,-2.694824,0.2866211,-0.1201172,0.2851563,-0.05859375
3673,53.5625,194.875,-6.0625,4.484375,-1.078613,0.1098633,-0.1113281,0.2900391,-0.05859375
3677,52.0625,118.25,-37.4375,1.012207,-0.6201172,-0.6479492,-0.1113281,0.2875977,-0.07324219
3681,25.125,-7.5625,-74.3125,0.206543,-0.7055664,-0.644043,-0.1152344,0.2851563,-0.07763672
3685,37.0625,-62.75,-70.625,0.0009765625,-0.9619141,-0.3476563,-0.1201172,0.2861328,-0.07617188
3689,11.875,-89.4375,-24,-0.1499023,-0.7988281,-0.3168945,-0.1269531,0.2822266,-0.08154297
