Packet number,Gyroscope X (deg/s),Gyroscope Y (deg/s),Gyroscope Z (deg/s),Accelerometer X (g),Accelerometer Y (g),Accelerometer Z (g),Magnetometer X (G),Magnetometer Y (G),Magnetometer Z (G)
1,1.625,-20.8125,13,0.9853516,-0.01416016,-0.009277344,-0.3188477,-0.08447266,-0.1035156
5,-3.75,-16.75,13.875,1.039551,-0.04882813,-0.03222656,-0.3208008,-0.08544922,-0.1005859
9,-7.25,-13.8125,24.0625,1.004395,-0.04882813,-0.04394531,-0.3222656,-0.08203125,-0.1035156
13,-9.0625,-12.4375,29.0625,1.039551,-0.06445313,-0.04003906,-0.3232422,-0.08203125,-0.1005859
17,-5.4375,-8.125,27.3125,1.039551,-0.07617188,-0.05908203,-0.3232422,-0.07568359,-0.1005859
21,1.9375,-7.3125,21.875,0.9970703,-0.08789063,-0.07080078,-0.3232422,-0.07324219,-0.09912109
25,9.4375,-10.0625,17.3125,0.9736328,-0.1074219,-0.08984375,-0.324707,-0.07177734,-0.09912109
30,15.8125,-14.0625,17.0625,0.9775391,-0.1074219,-0.08203125,-0.3256836,-0.06933594,-0.09912109
34,16.1875,-13.625,18.75,1.008301,-0.07617188,-0.04003906,-0.3271484,-0.06689453,-0.09667969
38,14.0625,-10.5,18.3125,0.9931641,-0.02978516,-0.05126953,-0.3271484,-0.06445313,-0.09667969
42,11.25,-9.375,14.25,1.031738,-0.04150391,-0.06689453,-0.3295898,-0.06298828,-0.09667969
46,10.3125,-4.9375,15.375,1.027832,-0.04541016,-0.03613281,-0.3305664,-0.06201172,-0.09765625
50,10.1875,-4.125,15.1875,0.9697266,-0.02978516,-0.05126953,-0.331543,-0.05712891,-0.09667969
54,9.8125,-4,11.375,0.9814453,0.01660156,-0.07861328,-0.331543,-0.05810547,-0.09667969
58,8.375,-7.8125,10.3125,0.9462891,0.05126953,-0.1054688,-0.3330078,-0.05566406,-0.09667969
62,5.8125,-11.4375,4.8125,0.9892578,0.1098633,-0.1015625,-0.3339844,-0.05322266,-0.09667969
66,2.125,-9.3125,0.375,1.02002,0.171875,-0.09765625,-0.3339844,-0.05322266,-0.09521484
70,-5.125,-8.875,-5.3125,1.016113,0.2573242,-0.1166992,-0.3330078,-0.0546875,-0.09521484
74,-13.875,-6.3125,-17.875,1.059082,0.3623047,-0.1323242,-0.3364258,-0.05810547,-0.09521484
78,-22.8125,-2.4375,-32.9375,1.09375,0.4125977,-0.1245117,-0.3330078,-0.05957031,-0.09521484
82,-33,1.375,-44.25,1.097656,0.4477539,-0.1669922,-0.331543,-0.06689453,-0.09375
86,-42.25,-0.625,-49.5625,1.09375,0.4750977,-0.1708984,-0.3295898,-0.07568359,-0.09375
90,-40.75,-1.6875,-55.9375,1.147949,0.4672852,-0.1938477,-0.3271484,-0.08203125,-0.09375
94,-37.5,-4.375,-59.1875,1.159668,0.5722656,-0.1938477,-0.324707,-0.08935547,-0.09082031
98,-41.375,-2.8125,-70.875,1.225586,0.7080078,-0.1630859,-0.3208008,-0.09960938,-0.08984375
102,-43.1875,-1.3125,-81.8125,1.271973,0.7119141,-0.1206055,-0.3198242,-0.1054688,-0.08984375
106,-39.5625,3.75,-93.3125,1.322266,0.7626953,-0.08203125,-0.3125,-0.1181641,-0.08837891
110,-34.25,8.625,-104.875,1.337891,0.809082,-0.06298828,-0.3125,-0.1279297,-0.08984375
114,-36.9375,12.0625,-111.3125,1.341797,0.890625,-0.04736328,-0.3081055,-0.1342773,-0.08984375
118,-46,13.6875,-112.4375,1.380371,0.8945313,-0.04394531,-0.3041992,-0.1445313,-0.09228516
122,-47.625,14.5,-114.9375,1.43457,0.8984375,-0.02050781,-0.3007813,-0.1557617,-0.09521484
126,-43.75,16,-126.9375,1.52002,0.9140625,0.005859375,-0.2973633,-0.1621094,-0.09765625
130,-39,21.125,-141.1875,1.605469,0.8984375,0.009765625,-0.2900391,-0.1743164,-0.09912109
134,-35.5625,27.6875,-150.625,1.640137,0.855957,0.02490234,-0.2851563,-0.1870117,-0.1020508
138,-36.875,32.6875,-152.4375,1.647949,0.8710938,-0.01318359,-0.2792969,-0.1943359,-0.1044922
142,-39,33.9375,-154.6875,1.647949,0.9375,-0.03613281,-0.2724609,-0.2070313,-0.1113281
146,-37.6875,32.0625,-160.4375,1.597656,0.953125,-0.04736328,-0.2636719,-0.2192383,-0.1157227
150,-28.9375,27.375,-173.875,1.546875,1.034668,-0.04736328,-0.2578125,-0.2294922,-0.1166992
154,-23.4375,22.125,-191.125,1.554688,1.057617,0.005859375,-0.2470703,-0.2407227,-0.1210938
159,-21.9375,19.625,-201.75,1.601563,1.01123,0.009765625,-0.234375,-0.2583008,-0.1235352
163,-18.9375,20,-206.125,1.612793,0.956543,0.001953125,-0.2255859,-0.265625,-0.1264648
167,-16.875,20.875,-213.8125,1.624512,0.9375,-0.02832031,-0.2104492,-0.2807617,-0.1289063
171,-21.5625,20.8125,-214.6875,1.616699,0.9023438,-0.04736328,-0.1948242,-0.2954102,-0.1333008
175,-30.9375,21.5625,-211.1875,1.601563,0.8598633,-0.08203125,-0.184082,-0.3056641,-0.1318359
179,-42.875,18.9375,-210.6875,1.566406,0.8710938,-0.1206055,-0.1650391,-0.3178711,-0.1386719
183,-55.125,19.1875,-208.25,1.546875,0.7626953,-0.09765625,-0.1484375,-0.328125,-0.1401367
187,-62.125,20.75,-206,1.450195,0.6616211,-0.1166992,-0.1342773,-0.3344727,-0.1455078
191,-63.4375,18.125,-205.8125,1.380371,0.5371094,-0.112793,-0.1176758,-0.3417969,-0.1508789
195,-60.9375,19.5,-207.0625,1.318359,0.4477539,-0.0859375,-0.09619141,-0.3466797,-0.15625
199,-63,18,-202.125,1.209961,0.3779297,-0.06689453,-0.08300781,-0.3491211,-0.1591797
203,-66.125,17.4375,-188.6875,1.109375,0.2924805,-0.06689453,-0.06152344,-0.3520508,-0.1674805
207,-73,16.6875,-179.0625,1.016113,0.2456055,-0.05126953,-0.04589844,-0.3544922,-0.1728516
211,-80.875,18.25,-167,0.9736328,0.1176758,0.001953125,-0.03076172,-0.3544922,-0.1782227
215,-82.5625,22.125,-156.3125,0.8496094,0.008789063,0.05175781,-0.01757813,-0.3530273,-0.1850586
219,-74.9375,27.375,-153.125,0.8149414,-0.1035156,0.1020508,0,-0.3481445,-0.1918945
223,-64.5,36.0625,-147.8125,0.7060547,-0.1694336,0.140625,0.009277344,-0.3457031,-0.1958008
227,-58.6875,36.9375,-135.8125,0.5048828,-0.06445313,0.1171875,0.0234375,-0.3417969,-0.2041016
231,-67.3125,36.3125,-127.5,0.4506836,-0.01806641,0.1098633,0.04052734,-0.3378906,-0.2055664
235,-81.4375,40.25,-108.4375,0.3417969,-0.05664063,0.105957,0.04638672,-0.3344727,-0.2133789
239,-84.625,40.75,-90.0625,0.3227539,-0.06054688,0.09033203,0.05957031,-0.3256836,-0.21875
243,-70.375,38.75,-71.5,0.08251953,-0.1850586,0.09814453,0.07128906,-0.3217773,-0.2255859
247,-52.9375,33.0625,-60.3125,-0.03710938,-0.1655273,0.1132813,0.07470703,-0.3154297,-0.230957
251,-37.6875,29.4375,-50.125,-0.09912109,-0.1616211,0.1557617,0.08300781,-0.3120117,-0.230957
255,-22,26.8125,-42.4375,-0.1303711,-0.1347656,0.159668,0.08886719,-0.3066406,-0.2353516
259,-8.1875,24.3125,-34.875,-0.1611328,-0.1269531,0.144043,0.09130859,-0.3081055,-0.2324219
263,6.0625,19.3125,-19.25,-0.215332,-0.1733398,0.105957,0.09375,-0.3056641,-0.2338867
267,25.6875,10.625,-4.875,-0.246582,-0.1538086,0.08642578,0.09765625,-0.3056641,-0.230957
271,40.375,0.75,6.1875,-0.246582,-0.01806641,0.07128906,0.09619141,-0.3081055,-0.2299805
275,41.875,-4.6875,14.125,-0.1884766,0.1293945,0.08251953,0.09619141,-0.3105469,-0.2285156
279,33.125,-5.5,20.875,-0.1303711,0.203125,0.1132813,0.09375,-0.3129883,-0.2216797
283,23.875,-7.4375,30.375,-0.1459961,0.1875,0.09423828,0.09521484,-0.3168945,-0.2216797
288,20.125,-12.25,41.6875,-0.1264648,0.140625,0.08642578,0.08886719,-0.3178711,-0.2202148
292,21.5625,-15.5,52,-0.06835938,0.1367188,0.08642578,0.08544922,-0.3178711,-0.21875
296,28.125,-20.6875,63.1875,-0.08007813,0.09423828,0.08251953,0.08300781,-0.3217773,-0.21875
300,37.6875,-27.4375,71.9375,-0.01416016,0.15625,0.09814453,0.07470703,-0.3256836,-0.2163086
304,40.4375,-27.0625,75.8125,0.1132813,0.2885742,0.1210938,0.06640625,-0.3305664,-0.2133789
308,30,-22.9375,82.3125,0.1674805,0.3779297,0.125,0.06054688,-0.3330078,-0.2109375
312,17.375,-22.1875,92.3125,0.1870117,0.3232422,0.105957,0.05224609,-0.3354492,-0.2080078
316,16.0625,-27.25,100.75,0.2294922,0.284668,0.09814453,0.04394531,-0.3378906,-0.2094727
320,17.0625,-29.5,108.75,0.3417969,0.2729492,0.1289063,0.03320313,-0.3393555,-0.2055664
324,14.0625,-28.125,113.875,0.4506836,0.2963867,0.1171875,0.02148438,-0.3393555,-0.2026367
328,10.75,-27.25,120.5625,0.5200195,0.2768555,0.105957,0.01171875,-0.3408203,-0.2041016
332,10.8125,-27.25,126.3125,0.574707,0.2924805,0.1132813,0.0009765625,-0.3408203,-0.2026367
336,12.3125,-26.5625,134.375,0.6289063,0.3041992,0.1328125,-0.01025391,-0.3378906,-0.2011719
340,21.4375,-27.4375,145.0625,0.6401367,0.3310547,0.1289063,-0.02490234,-0.3393555,-0.2011719
344,37.9375,-32.5625,150.125,0.6831055,0.4438477,0.105957,-0.03662109,-0.3378906,-0.1987305
348,52.0625,-32.125,145.875,0.8149414,0.6147461,0.1132813,-0.05078125,-0.3393555,-0.1928711
352,60.5625,-31.125,138.75,0.8417969,0.7587891,0.09033203,-0.06494141,-0.3378906,-0.1889648
356,57.75,-36.3125,136.8125,0.8574219,0.8632813,0.06738281,-0.07568359,-0.3378906,-0.1850586
360,35.375,-40.9375,143,0.9350586,0.953125,0.1098633,-0.08886719,-0.3369141,-0.1806641
364,4.875,-42.625,160.125,0.9931641,0.921875,0.1557617,-0.1020508,-0.3291016,-0.1767578
368,-9.625,-46.0625,172.8125,1.055176,0.8012695,0.1826172,-0.1152344,-0.3266602,-0.1738281
372,-2,-49.625,169.5625,1.171387,0.8012695,0.2133789,-0.1328125,-0.3168945,-0.1767578
376,9.5625,-41.625,154.1875,1.341797,0.8789063,0.2441406,-0.1474609,-0.3105469,-0.1728516
380,5.25,-34.375,144.875,1.244629,0.8789063,0.2060547,-0.1591797,-0.3056641,-0.1728516
384,-9.625,-36.125,149.0625,1.213867,0.7705078,0.1557617,-0.1708984,-0.2954102,-0.1713867
388,-17.125,-37.625,164.0625,1.244629,0.6069336,0.1518555,-0.184082,-0.2856445,-0.1699219
392,0.3125,-37.875,168.4375,1.29541,0.5253906,0.1289063,-0.1948242,-0.2768555,-0.1674805
396,38.375,-37.1875,157.25,1.357422,0.5214844,0.1171875,-0.2055664,-0.265625,-0.1674805
400,67.5625,-32.5625,141.3125,1.403809,0.7314453,0.07128906,-0.2172852,-0.2583008,-0.1616211
404,49.4375,-26.4375,139.375,1.407715,0.9760742,0.06738281,-0.2236328,-0.2519531,-0.1547852
408,-18.3125,-24.0625,160.0625,1.322266,1.034668,0.05175781,-0.2329102,-0.2416992,-0.1508789
412,-71.75,-27.625,184.5625,1.279785,0.6264648,0.07910156,-0.2436523,-0.2270508,-0.1523438
417,-40.3125,-30.75,184.4375,1.330078,0.1914063,0.144043,-0.2495117,-0.2143555,-0.1538086
421,51.6875,-27.8125,150.125,1.368652,0.2924805,0.1210938,-0.2592773,-0.1992188,-0.1508789
425,97.625,-19.0625,123.9375,1.380371,0.5566406,0.08642578,-0.2651367,-0.1904297,-0.144043
429,70.6875,-1.75,116.75,1.388184,0.9335938,0.09814453,-0.2700195,-0.1879883,-0.1425781
433,1.5625,1.875,129.9375,1.244629,0.987793,0.04052734,-0.2744141,-0.1767578,-0.1386719
437,-38.0625,-22.0625,147.0625,1.128418,0.6186523,0.01367188,-0.2807617,-0.1655273,-0.1386719
441,-13.875,-36.6875,146.3125,1.291504,0.4438477,0.07519531,-0.2851563,-0.1542969,-0.1401367
445,26.5,-40.6875,127.125,1.287598,0.5097656,0.105957,-0.2915039,-0.140625,-0.1347656
449,52.0625,-38.25,111.5,1.376465,0.5878906,0.1367188,-0.2949219,-0.1308594,-0.1333008
453,66.5,-24.0625,100.375,1.376465,0.6655273,0.1674805,-0.2983398,-0.1269531,-0.1303711
457,76.875,-12.6875,94.875,1.302734,0.6772461,0.1635742,-0.3032227,-0.1181641,-0.1264648
461,83.1875,-10.125,93.0625,1.213867,0.809082,0.1020508,-0.3066406,-0.109375,-0.1289063
465,87.1875,-12.875,85.125,1.213867,1.01123,0.08642578,-0.309082,-0.1054688,-0.1279297
469,84.5,-15.8125,64.0625,1.237305,1.213379,0.07519531,-0.3125,-0.09814453,-0.1289063
473,67.75,-12,37.5625,1.364746,1.403809,0.125,-0.3149414,-0.09326172,-0.1264648
477,32.75,0.1875,15.8125,1.337891,1.485352,0.1518555,-0.3164063,-0.09326172,-0.1279297
481,-7.25,9.125,4.875,1.302734,1.353027,0.08251953,-0.3164063,-0.09179688,-0.1289063
485,-23.625,10.3125,-10.5,1.186523,1.104492,0.001953125,-0.3173828,-0.09179688,-0.1289063
489,-26.875,5.25,-28.0625,1.132324,1.003418,-0.03222656,-0.3164063,-0.09326172,-0.1279297
493,-26.4375,-2.5625,-48.6875,1.089844,0.972168,-0.05126953,-0.3139648,-0.09960938,-0.1264648
497,-23.0625,-13.25,-68.5625,1.155762,0.9257813,0.005859375,-0.3115234,-0.1044922,-0.1235352
501,-19.6875,-14.4375,-84.75,1.306641,0.972168,0.08642578,-0.309082,-0.109375,-0.1210938
505,-25.8125,-7.5,-99.125,1.395996,1.015137,0.105957,-0.3081055,-0.1206055,-0.1196289
509,-38.25,-0.6875,-105.8125,1.450195,1.026855,0.1328125,-0.3032227,-0.1279297,-0.1166992
513,-49.875,7.9375,-114.5625,1.512207,1.034668,0.125,-0.3007813,-0.1357422,-0.1166992
517,-55,14.6875,-125.375,1.558594,1.034668,0.09033203,-0.2983398,-0.1445313,-0.1181641
521,-57,19.9375,-139.875,1.59375,1.019043,0.09814453,-0.293457,-0.1557617,-0.1196289
525,-57.6875,25.125,-152.8125,1.644043,0.9916992,0.07910156,-0.2890625,-0.1630859,-0.1235352
529,-56.25,33.375,-165.1875,1.694336,0.987793,0.06347656,-0.2817383,-0.1743164,-0.1289063
533,-55.125,39.0625,-176.1875,1.725586,0.9643555,0.04443359,-0.2724609,-0.1879883,-0.1347656
537,-53.5625,46.75,-188.1875,1.740723,1.026855,0.005859375,-0.2675781,-0.1958008,-0.137207
541,-63.4375,48.5625,-206.3125,1.768066,1.124023,-0.04394531,-0.2578125,-0.2119141,-0.1455078
546,-84.5,50.125,-222.5,1.806641,1.189941,-0.03222656,-0.2436523,-0.2270508,-0.1523438
550,-114.8125,54.1875,-232.3125,1.771973,1.135742,0.01708984,-0.2353516,-0.2358398,-0.1577148
554,-149,54.5,-229.25,1.713867,1.022949,0.01367188,-0.2211914,-0.2480469,-0.1699219
558,-176.25,55.5625,-219.1875,1.760254,0.7666016,0.06738281,-0.2045898,-0.2568359,-0.1835938
562,-173.1875,70.4375,-209.1875,1.73291,0.4594727,0.105957,-0.1914063,-0.2617188,-0.1958008
566,-139.6875,79,-204.5625,1.585938,0.1679688,0.1289063,-0.1757813,-0.265625,-0.2109375
570,-86.6875,83.8125,-205.125,1.458008,0.09423828,0.1328125,-0.1567383,-0.2695313,-0.2216797
574,-44.9375,84.875,-203.25,1.376465,0.1679688,0.1328125,-0.1411133,-0.2768555,-0.2255859
578,-23,80.625,-198,1.213867,0.3232422,0.09814453,-0.1245117,-0.2807617,-0.2338867
582,-18,72.625,-188.0625,1.132324,0.3662109,0.09033203,-0.1020508,-0.2905273,-0.237793
586,-16.6875,68,-172.3125,1.082031,0.3974609,0.07910156,-0.08886719,-0.2919922,-0.237793
590,-13.9375,62.9375,-160.1875,0.9853516,0.4829102,0.08251953,-0.07226563,-0.2954102,-0.2421875
594,-9.125,61.9375,-163.375,0.9423828,0.6264648,0.06738281,-0.05664063,-0.3007813,-0.2460938
598,-17.9375,55.3125,-171.5,0.8110352,0.7314453,0.04785156,-0.04394531,-0.3032227,-0.2436523
602,-37.6875,47.1875,-167.875,0.7490234,0.7431641,0.001953125,-0.02587891,-0.3032227,-0.2475586
606,-64.3125,35.625,-159,0.659668,0.7197266,-0.01660156,-0.009277344,-0.3032227,-0.2529297
610,-83.5,22.3125,-148.6875,0.59375,0.5722656,0.02099609,0,-0.2993164,-0.2543945
614,-83.9375,16.3125,-137.0625,0.5126953,0.3701172,0.06738281,0.01269531,-0.2929688,-0.2636719
618,-67.75,9.125,-128.4375,0.4970703,0.2338867,0.1328125,0.02246094,-0.2856445,-0.269043
622,-41.1875,9.9375,-128.9375,0.5356445,0.1445313,0.1943359,0.03076172,-0.2841797,-0.2719727
626,-18.5625,17.5625,-135.1875,0.5161133,0.1137695,0.2597656,0.04150391,-0.2792969,-0.2749023
630,-14.1875,24.8125,-128.3125,0.4467773,0.1333008,0.2827148,0.05322266,-0.2744141,-0.2758789
634,-25.0625,29.8125,-112.8125,0.3691406,0.1020508,0.2675781,0.05957031,-0.2744141,-0.2758789
638,-33.3125,31.5625,-91.375,0.2685547,-0.05664063,0.2441406,0.07128906,-0.2705078,-0.2802734
642,-31.25,30.0625,-74,0.175293,-0.2124023,0.2060547,0.07958984,-0.2641602,-0.2802734
646,-14.5625,29.25,-63.6875,0.05517578,-0.3286133,0.1826172,0.08300781,-0.2617188,-0.2802734
650,5,22.3125,-59.375,-0.04492188,-0.3481445,0.1943359,0.08886719,-0.2583008,-0.2802734
654,21.625,16.25,-51.5625,-0.05273438,-0.2314453,0.1943359,0.09619141,-0.2583008,-0.2802734
658,30.25,14.125,-41,-0.09521484,-0.1772461,0.1826172,0.09863281,-0.2583008,-0.2788086
662,33.3125,10.3125,-31,-0.1303711,-0.1035156,0.1982422,0.1020508,-0.2592773,-0.2749023
666,34.0625,8.625,-19,-0.1264648,-0.07617188,0.2094727,0.105957,-0.2592773,-0.269043
670,33,8.25,-6.625,-0.1572266,-0.01416016,0.2250977,0.105957,-0.2617188,-0.2705078
675,30.375,0.875,2.5,-0.2001953,0.03222656,0.1943359,0.105957,-0.2641602,-0.269043
679,28.75,-5.9375,8.1875,-0.1611328,0.07470703,0.2250977,0.1079102,-0.265625,-0.2666016
683,28.5625,-7.375,16.8125,-0.1342773,0.06298828,0.2402344,0.105957,-0.2670898,-0.2651367
687,29.9375,-7,25.4375,-0.09912109,0.09814453,0.2480469,0.1044922,-0.2719727,-0.2626953
691,31.6875,-6.875,36.125,-0.1030273,0.1137695,0.2368164,0.09863281,-0.2768555,-0.2626953
695,35.4375,-12.1875,48.125,-0.1303711,0.1333008,0.2211914,0.09863281,-0.2807617,-0.2612305
699,43.125,-19.125,57.125,-0.1108398,0.15625,0.2133789,0.09521484,-0.2841797,-0.2597656
703,52.625,-22.8125,66.1875,-0.02978516,0.2109375,0.2558594,0.08691406,-0.2866211,-0.2558594
707,61.4375,-20.1875,72.25,0.03564453,0.315918,0.2827148,0.08056641,-0.2919922,-0.2543945
711,62.625,-17.0625,78.25,0.07861328,0.4868164,0.2519531,0.07470703,-0.2983398,-0.2490234
715,56.6875,-19.875,79.4375,0.1015625,0.5991211,0.2402344,0.06884766,-0.3041992,-0.2446289
719,44,-24.1875,78.5,0.1328125,0.6381836,0.2368164,0.06152344,-0.3066406,-0.2421875
723,30.0625,-28.5625,83.6875,0.1791992,0.5371094,0.2636719,0.0546875,-0.3129883,-0.237793
727,26.0625,-29.9375,91.5625,0.2797852,0.4282227,0.2944336,0.04492188,-0.3144531,-0.237793
731,29.9375,-24.5625,97.8125,0.3652344,0.3818359,0.3173828,0.03808594,-0.3178711,-0.2324219
735,39.1875,-17.875,106.125,0.4272461,0.3779297,0.3173828,0.02832031,-0.3208008,-0.230957
739,49.0625,-14.375,113.9375,0.4116211,0.4790039,0.2402344,0.01757813,-0.3232422,-0.2299805
743,55,-17.3125,117.5,0.4116211,0.5913086,0.1943359,0.01074219,-0.3291016,-0.2246094
747,51.5625,-20.3125,114.375,0.4931641,0.7275391,0.1943359,-0.0009765625,-0.3291016,-0.2202148
751,39.625,-18.9375,114.5,0.574707,0.7119141,0.1982422,-0.01269531,-0.3320313,-0.2163086
755,37.1875,-17.625,118.5625,0.5859375,0.6069336,0.1748047,-0.02001953,-0.3330078,-0.2133789
759,43.875,-20.3125,122.9375,0.644043,0.5449219,0.1674805,-0.03173828,-0.3344727,-0.2119141
763,58.3125,-20,133.875,0.6362305,0.5371094,0.1518555,-0.04492188,-0.3344727,-0.206543
767,74.6875,-24.3125,138.25,0.5820313,0.6655273,0.1289063,-0.05322266,-0.3354492,-0.2026367
771,81.6875,-29.4375,136.25,0.6479492,0.793457,0.144043,-0.06738281,-0.3344727,-0.1972656
775,70.9375,-26.625,134.75,0.8222656,0.921875,0.1982422,-0.07958984,-0.3369141,-0.1865234
779,49.8125,-18.375,135.5,0.9350586,0.8984375,0.1713867,-0.09033203,-0.3354492,-0.1835938
783,44,-16.6875,141.375,0.9658203,0.7548828,0.07519531,-0.1044922,-0.3305664,-0.1796875
787,54.4375,-20.0625,146.4375,0.9736328,0.7236328,0.06347656,-0.1162109,-0.3291016,-0.1738281
791,62.4375,-18.1875,142.625,0.9775391,0.8442383,0.08642578,-0.1269531,-0.3242188,-0.1713867
795,51.6875,-16.125,142.625,0.9775391,0.9335938,0.07519531,-0.1401367,-0.3232422,-0.1645508
799,31.8125,-14.5,143.25,1.070313,0.9257813,0.05566406,-0.1508789,-0.3168945,-0.1616211
804,27.3125,-15.25,146.9375,1.097656,0.7895508,0.01367188,-0.1601563,-0.3120117,-0.1616211
808,33.75,-15.125,140.5,1.159668,0.8168945,-0.01660156,-0.1733398,-0.3056641,-0.15625
812,41.6875,-14.875,133,1.213867,0.7856445,-0.001464844,-0.184082,-0.296875,-0.1538086
816,49.75,-11.6875,132.75,1.213867,0.8012695,-0.02050781,-0.1914063,-0.2919922,-0.1494141
820,44.875,-8.5625,132.375,1.213867,0.8632813,-0.04736328,-0.2021484,-0.2841797,-0.1455078
824,35.9375,-7.625,139.3125,1.128418,0.7973633,-0.05908203,-0.2104492,-0.2753906,-0.1425781
828,29.5,-8.625,141.125,1.151855,0.793457,-0.06689453,-0.2163086,-0.2695313,-0.1425781
832,12.1875,-11.375,144.75,1.144043,0.7392578,-0.07080078,-0.2255859,-0.2607422,-0.1386719
836,-2.75,-16.9375,154.3125,1.155762,0.5527344,-0.04394531,-0.2353516,-0.2495117,-0.1357422
840,6.6875,-20.3125,164.3125,1.202148,0.3779297,-0.02441406,-0.2426758,-0.2392578,-0.137207
844,40.875,-21.5625,157.3125,1.306641,0.2885742,0.009765625,-0.2519531,-0.2270508,-0.1333008
848,84.5,-13.1875,141.375,1.426758,0.3466797,0.03662109,-0.2602539,-0.2192383,-0.1303711
852,97.875,-4.5,125.25,1.399902,0.6616211,0.02490234,-0.2651367,-0.2119141,-0.1264648
856,67,-2.375,121.125,1.306641,0.8789063,-0.001464844,-0.2700195,-0.2045898,-0.1196289
860,43,-6.25,112.0625,1.291504,0.6264648,-0.02832031,-0.2734375,-0.1958008,-0.1181641
864,61.125,-7.6875,103.875,1.302734,0.2924805,-0.05517578,-0.2792969,-0.1904297,-0.1142578
868,94.625,-3.75,107.8125,1.349609,0.3740234,-0.05517578,-0.2817383,-0.1855469,-0.1098633
872,94.9375,10.6875,113.8125,1.403809,0.7275391,-0.0859375,-0.2875977,-0.1767578,-0.1074219
876,57.875,15.5625,112.5,1.159668,1.01123,-0.1591797,-0.2900391,-0.171875,-0.105957
880,9.5,2.25,106.75,1.05127,0.9604492,-0.1630859,-0.293457,-0.1621094,-0.105957
884,-18.0625,-10.5625,97.9375,1.124512,0.7041016,-0.04003906,-0.2983398,-0.1508789,-0.1074219
888,-11,-10.3125,91.25,1.244629,0.4052734,0.04443359,-0.3007813,-0.1469727,-0.1044922
892,24.9375,-3.6875,86.5625,1.326172,0.3388672,0.09423828,-0.3056641,-0.1381836,-0.105957
896,48,6.625,75.625,1.244629,0.5913086,0.04443359,-0.309082,-0.1308594,-0.1074219
900,47.6875,12.25,72.125,1.206055,0.6381836,0.005859375,-0.3115234,-0.1230469,-0.1098633
904,41.4375,14.9375,80.5625,1.163574,0.6499023,-0.001464844,-0.3139648,-0.1181641,-0.1098633
908,46.75,15.375,86.75,1.140137,0.7080078,-0.01660156,-0.3188477,-0.109375,-0.1157227
912,59.8125,16.625,85.375,1.117188,0.7548828,-0.08203125,-0.3198242,-0.1044922,-0.1181641
916,79.4375,14.375,68.1875,1.182617,0.9257813,-0.06298828,-0.3222656,-0.09716797,-0.1210938
920,97.8125,15.1875,16.6875,1.105469,1.314453,-0.1821289,-0.3256836,-0.09179688,-0.1235352
924,69.4375,1.9375,-22.5625,1.082031,1.601563,-0.1938477,-0.3232422,-0.09423828,-0.1235352
928,10.9375,-5.4375,-45.125,1.241211,1.671875,-0.1591797,-0.3222656,-0.09814453,-0.1196289
933,-44.375,-1.6875,-63.8125,1.39209,1.523926,-0.109375,-0.3173828,-0.1030273,-0.1166992
937,-80.0625,5.3125,-75,1.43457,1.333496,-0.1206055,-0.3164063,-0.109375,-0.1142578
941,-98.625,6.9375,-90.5625,1.446289,1.221191,-0.1401367,-0.3115234,-0.1166992,-0.1142578
945,-101.0625,8.0625,-111.1875,1.484863,1.077148,-0.08984375,-0.3066406,-0.1245117,-0.1113281
949,-90.125,12.1875,-129,1.582031,0.9643555,-0.07080078,-0.3056641,-0.1308594,-0.112793
953,-74.9375,16,-144,1.5625,0.9604492,-0.09765625,-0.2983398,-0.140625,-0.1157227
957,-64.25,13,-155.75,1.543457,1.015137,-0.1401367,-0.2949219,-0.1542969,-0.1157227
961,-58.5625,9.5625,-164.1875,1.632324,1.038574,-0.1245117,-0.2900391,-0.1645508,-0.1210938
965,-56.75,10,-176,1.69043,1.084961,-0.1401367,-0.2817383,-0.1757813,-0.1235352
969,-56.75,7.375,-191.75,1.752441,1.022949,-0.1362305,-0.2758789,-0.1918945,-0.1264648
973,-42.875,7.875,-209.375,1.841797,0.8520508,-0.1206055,-0.2700195,-0.2006836,-0.1289063
977,-32.5,6.125,-217.6875,1.806641,0.8168945,-0.0859375,-0.2578125,-0.2167969,-0.1318359
981,-33.5,8.3125,-214.5,1.814453,0.8325195,-0.07470703,-0.2470703,-0.234375,-0.1347656
985,-43,10.5625,-204.5625,1.806641,0.8632813,-0.04003906,-0.2402344,-0.2431641,-0.1347656
989,-57,11.8125,-202.875,1.806641,0.8945313,-0.04003906,-0.2280273,-0.2583008,-0.1386719
993,-57.125,16.4375,-217.5625,1.768066,0.8325195,-0.112793,-0.215332,-0.2705078,-0.1425781
997,-49.875,8.125,-230.25,1.655762,0.6694336,-0.1591797,-0.203125,-0.2807617,-0.1469727
1001,-33.625,-3.1875,-238.0625,1.663574,0.5449219,-0.09765625,-0.1855469,-0.2954102,-0.1508789
1005,-16.3125,-5.4375,-238.125,1.640137,0.4516602,-0.04003906,-0.168457,-0.3095703,-0.1523438
1009,-7.625,-5.9375,-232.0625,1.5625,0.4399414,-0.01660156,-0.1567383,-0.3168945,-0.1508789
1013,-4.3125,-8.625,-219.8125,1.438477,0.3896484,-0.009277344,-0.1376953,-0.3305664,-0.1523438
1017,4.375,-10.875,-209.75,1.384277,0.3818359,0.01708984,-0.1176758,-0.3408203,-0.1523438
1021,10.875,-12.625,-206.3125,1.306641,0.4399414,0.02880859,-0.1054688,-0.3457031,-0.1523438
1025,12.0625,-12.0625,-203.625,1.233398,0.5058594,0.05175781,-0.08789063,-0.3530273,-0.1494141
1029,2.0625,-9.4375,-198.9375,1.155762,0.5527344,0.05566406,-0.06884766,-0.3603516,-0.1484375
1033,-19.625,-7.5625,-190.5,1.055176,0.6108398,0.08642578,-0.05566406,-0.3657227,-0.1484375
1037,-47.8125,-4.875,-181.75,1.023926,0.5644531,0.1132813,-0.03662109,-0.3657227,-0.1523438
1041,-65.8125,3.4375,-170.1875,0.9658203,0.4204102,0.1367188,-0.02099609,-0.3666992,-0.15625
1045,-77.75,12.8125,-157.125,0.8652344,0.3544922,0.08642578,-0.009277344,-0.3657227,-0.1616211
1049,-86.1875,16.875,-140.75,0.6674805,0.2070313,0.009765625,0.005859375,-0.3618164,-0.168457
1053,-82.4375,11.6875,-119.9375,0.4389648,0.07080078,-0.04003906,0.02001953,-0.3554688,-0.1796875
1057,-63.6875,-0.75,-102.4375,0.3339844,-0.01025391,-0.005371094,0.02978516,-0.3554688,-0.1821289
1062,-32.3125,-3.125,-104,0.4155273,0.06689453,0.09814453,0.03808594,-0.3505859,-0.1850586
1066,-3.6875,11.0625,-121.25,0.4155273,0.2148438,0.1518555,0.04980469,-0.3505859,-0.1904297
1070,0.8125,14.3125,-127.25,0.2294922,0.3583984,0.1098633,0.05712891,-0.3491211,-0.1875
1074,-13.8125,12.5,-123.3125,0.2177734,0.3779297,0.1328125,0.06982422,-0.3457031,-0.1904297
1078,-23.3125,16.3125,-110.0625,0.1367188,0.2651367,0.125,0.08056641,-0.3417969,-0.1889648
1082,-26.125,14.1875,-95.875,0.02441406,0.1953125,0.09423828,0.09033203,-0.3408203,-0.1918945
1086,-23.5625,8.875,-85.75,-0.08007813,0.1796875,0.07519531,0.09863281,-0.3344727,-0.1958008
1090,-25.125,3.8125,-76,-0.1108398,0.171875,0.1098633,0.105957,-0.3291016,-0.1972656
1094,-28.25,1.1875,-65.625,-0.1499023,0.121582,0.1328125,0.109375,-0.3266602,-0.199707
1098,-20.9375,0.1875,-58.0625,-0.1264648,0.03613281,0.1787109,0.1152344,-0.3232422,-0.2011719
1102,-7.1875,3.3125,-51.125,-0.1499023,0.02832031,0.1943359,0.1201172,-0.3193359,-0.2026367
1106,-1,4.5625,-37.875,-0.230957,0.09033203,0.1826172,0.1225586,-0.3178711,-0.2011719
1110,-1.375,2.1875,-23.3125,-0.2773438,0.1367188,0.1748047,0.1259766,-0.3168945,-0.1987305
1114,-0.375,-3.625,-11.3125,-0.2890625,0.1445313,0.1787109,0.1269531,-0.3168945,-0.2026367
1118,4,-8.5,-1.8125,-0.2700195,0.1293945,0.2133789,0.128418,-0.3129883,-0.2011719
1122,12.5,-6.875,0.625,-0.1767578,0.1914063,0.2905273,0.1293945,-0.3178711,-0.2026367
1126,14.75,-0.375,1.75,-0.1806641,0.2456055,0.3095703,0.1269531,-0.3168945,-0.2026367
1130,10.3125,2.875,8.75,-0.1884766,0.237793,0.2983398,0.1259766,-0.3193359,-0.199707
1134,7.625,5.5625,19.0625,-0.2080078,0.1757813,0.2558594,0.1259766,-0.3193359,-0.1987305
1138,12.25,3.375,33.4375,-0.1962891,0.1098633,0.2329102,0.1235352,-0.3217773,-0.1987305
1142,17.9375,2.9375,49.8125,-0.1572266,0.09814453,0.2211914,0.1225586,-0.3232422,-0.1972656
1146,22.625,1.875,62.1875,-0.1186523,0.171875,0.1943359,0.1186523,-0.3266602,-0.1958008
1150,22.25,3.0625,67.375,-0.04492188,0.2651367,0.2021484,0.112793,-0.3291016,-0.1943359
1154,18,8.5,69.5,0.01269531,0.2807617,0.1982422,0.109375,-0.3320313,-0.1928711
1158,15.4375,11.3125,75.1875,-0.01025391,0.2612305,0.1787109,0.1035156,-0.3354492,-0.1889648
1162,15.75,9.6875,88.8125,-0.02197266,0.2338867,0.1557617,0.09619141,-0.3378906,-0.1889648
1166,18.0625,5.75,102.9375,0.0009765625,0.269043,0.1367188,0.09033203,-0.3417969,-0.1865234
1170,25.0625,0.6875,117.75,0.05126953,0.2807617,0.09814453,0.08203125,-0.3457031,-0.1835938
1174,34.1875,-6.0625,129.25,0.1289063,0.4052734,0.1132813,0.06982422,-0.3491211,-0.1821289
1178,31.875,-7.8125,132.8125,0.2875977,0.5991211,0.140625,0.06054688,-0.3544922,-0.1782227
1182,21.0625,-4.5,128.1875,0.4619141,0.6381836,0.1787109,0.04882813,-0.3530273,-0.175293
1186,18.875,4.9375,123.9375,0.5200195,0.5449219,0.1748047,0.03564453,-0.3579102,-0.1738281
1191,20,8.0625,128.4375,0.5087891,0.5214844,0.144043,0.02734375,-0.3603516,-0.1728516
1195,19,11.25,137.75,0.5239258,0.5371094,0.1098633,0.01513672,-0.359375,-0.1713867
1199,15.125,13,145.3125,0.5629883,0.5097656,0.05175781,0.003417969,-0.3618164,-0.1699219
1203,26.9375,11.8125,152.75,0.59375,0.4204102,-0.03613281,-0.006835938,-0.3632813,-0.168457
1207,58.375,5.25,153,0.6674805,0.4516602,-0.05908203,-0.0234375,-0.3603516,-0.1645508
1211,76.1875,3.5625,143.125,0.7602539,0.7119141,-0.04003906,-0.03662109,-0.3642578,-0.15625
1215,49.625,7.1875,136.75,0.9462891,0.9296875,-0.005371094,-0.04394531,-0.3632813,-0.1547852
1219,8.25,16.75,153,0.9423828,0.7856445,-0.02050781,-0.05810547,-0.3603516,-0.1508789
1223,3.5625,17.6875,175.4375,0.7138672,0.5488281,-0.1245117,-0.07128906,-0.3579102,-0.1494141
1227,30.875,-1.6875,177.75,0.7177734,0.5722656,-0.1977539,-0.08544922,-0.3544922,-0.1484375
1231,55.8125,-19.1875,167.9375,0.9775391,0.7236328,-0.1401367,-0.1010742,-0.3481445,-0.1469727
1235,43,-19.8125,153.6875,1.229492,0.9682617,-0.06689453,-0.1162109,-0.3417969,-0.1401367
1239,9.5625,-8.8125,163,1.271973,0.7973633,0.02490234,-0.1245117,-0.3393555,-0.1386719
1243,3.9375,1.5625,183,1.055176,0.7470703,-0.109375,-0.1401367,-0.3320313,-0.1401367
1247,14.25,-16.625,179.5,1.016113,0.7856445,-0.1474609,-0.1557617,-0.3232422,-0.137207
1251,29.75,-26.4375,164.6875,1.229492,0.809082,-0.109375,-0.1665039,-0.3168945,-0.1357422
1255,25.875,-25.5,154.125,1.399902,0.8984375,-0.05126953,-0.1806641,-0.3066406,-0.1333008
1259,7.4375,-19.25,152.375,1.399902,0.8129883,-0.02050781,-0.1923828,-0.296875,-0.1303711
1263,4.0625,-15.375,162.75,1.244629,0.6538086,-0.03613281,-0.2021484,-0.2905273,-0.1289063
1267,24.3125,-21.25,164.75,1.09375,0.6069336,-0.1245117,-0.2138672,-0.2792969,-0.1279297
1271,54,-33.75,152.625,1.16748,0.6538086,-0.1166992,-0.2236328,-0.2695313,-0.1235352
1275,77.75,-34.5625,135.75,1.395996,0.6733398,-0.07861328,-0.2304688,-0.2617188,-0.1210938
1279,89,-28,124.8125,1.484863,0.6811523,-0.05517578,-0.2412109,-0.2558594,-0.112793
1283,83.5625,-22.25,121.25,1.496582,0.6264648,-0.02441406,-0.2485352,-0.2470703,-0.1044922
1287,76.9375,-8.75,136.3125,1.554688,0.5371094,0.005859375,-0.253418,-0.2407227,-0.1005859
1291,77,8.125,157.125,1.484863,0.6884766,-0.1323242,-0.2626953,-0.2329102,-0.09667969
1295,77.125,7.25,150.625,1.403809,0.9101563,-0.2324219,-0.2685547,-0.2192383,-0.09228516
1299,65.4375,-2.9375,125.9375,1.322266,1.015137,-0.2436523,-0.2734375,-0.2128906,-0.09082031
1303,46.125,-7.125,106,1.42334,0.8286133,-0.128418,-0.2807617,-0.203125,-0.08544922
1307,16.4375,-4,110.25,1.384277,0.7119141,-0.08203125,-0.2841797,-0.1958008,-0.08154297
1311,-11.5,-0.8125,127.75,1.43457,0.4985352,-0.01660156,-0.2875977,-0.1855469,-0.08447266
1315,-16.5625,6.125,145.25,1.458008,0.3505859,-0.005371094,-0.2915039,-0.1743164,-0.08300781
1320,-1.8125,12.3125,143.25,1.411621,0.3779297,-0.04394531,-0.2983398,-0.1621094,-0.08544922
1324,11.375,10.3125,127.625,1.275879,0.4633789,-0.09375,-0.3017578,-0.1542969,-0.08447266
1328,16.8125,1.4375,112.375,1.241211,0.5097656,-0.1015625,-0.3066406,-0.1420898,-0.08837891
1332,16.6875,-3.875,102.8125,1.310547,0.4516602,-0.04736328,-0.3105469,-0.1308594,-0.08837891
1336,33.0625,4.75,106.625,1.357422,0.5488281,-0.04736328,-0.3125,-0.1269531,-0.08984375
1340,24.3125,13.1875,97.9375,1.252441,1.069336,-0.1015625,-0.3173828,-0.1142578,-0.09082031
1344,-13.375,20.3125,77.6875,1.179199,1.298828,-0.1435547,-0.3198242,-0.1030273,-0.09765625
1348,-35,25.0625,52.5,1.089844,1.36084,-0.2016602,-0.3208008,-0.09960938,-0.1005859
1352,-4.875,11.875,-19.125,1.016113,1.84668,-0.324707,-0.3232422,-0.09423828,-0.105957
1356,-29.125,1.75,-15.125,1.13623,1.399902,-0.1669922,-0.3222656,-0.09570313,-0.1074219
1360,-46.625,5.5625,7.25,1.132324,1.019043,-0.1669922,-0.3222656,-0.09716797,-0.105957
1364,-46.25,11.125,2.625,1.233398,1.026855,-0.09375,-0.3198242,-0.09570313,-0.1074219
1368,-21.125,2.625,-19.4375,1.233398,1.20166,-0.1362305,-0.3208008,-0.09570313,-0.105957
1372,-5.875,-0.375,-69.4375,1.384277,1.442383,-0.112793,-0.3173828,-0.09570313,-0.1044922
1376,-9.3125,2.25,-110.3125,1.454102,1.508301,-0.1206055,-0.3164063,-0.1054688,-0.09667969
1380,-36.5,1.9375,-134.4375,1.512207,1.52002,-0.1245117,-0.3105469,-0.1166992,-0.1005859
1384,-71.5625,3.125,-140.625,1.578125,1.341309,-0.1166992,-0.309082,-0.1269531,-0.09765625
1388,-89.75,5.25,-137.8125,1.678711,1.12793,-0.109375,-0.3041992,-0.1381836,-0.09912109
1392,-85.0625,9.9375,-147.5625,1.76416,1.022949,-0.08984375,-0.3007813,-0.1479492,-0.1020508
1396,-68.625,15,-167.125,1.849121,0.987793,-0.0859375,-0.2949219,-0.1557617,-0.1044922
1400,-56.375,19.3125,-188.875,1.89209,0.9604492,-0.06689453,-0.2900391,-0.1704102,-0.1098633
1404,-49.125,23.875,-204.375,1.907715,0.8632813,-0.08984375,-0.2817383,-0.1870117,-0.1113281
1408,-46.9375,24.6875,-210.4375,1.86084,0.8051758,-0.1206055,-0.2758789,-0.1992188,-0.1166992
1412,-47.75,24.875,-211.875,1.884277,0.7080078,-0.1435547,-0.2651367,-0.2143555,-0.1225586
1416,-43.875,26.75,-211,1.899902,0.6186523,-0.1401367,-0.253418,-0.2319336,-0.125
1420,-36.0625,27.0625,-211.75,1.899902,0.5913086,-0.1782227,-0.2460938,-0.2431641,-0.1289063
1424,-29,31.875,-218.375,1.926758,0.5878906,-0.1362305,-0.2319336,-0.2592773,-0.1347656
1428,-14.25,37.875,-221.375,1.798828,0.5253906,-0.1513672,-0.2163086,-0.2744141,-0.137207
1432,12,36.4375,-224.9375,1.620605,0.5371094,-0.2128906,-0.2055664,-0.2856445,-0.1386719
1436,43.9375,28.0625,-229.25,1.454102,0.6069336,-0.2783203,-0.1875,-0.3017578,-0.137207
1440,68.25,9,-237.3125,1.291504,0.7275391,-0.3325195,-0.1674805,-0.3178711,-0.1347656
1444,82.5,-16.8125,-245.4375,1.237305,0.8598633,-0.3286133,-0.1542969,-0.3305664,-0.125
1449,81.1875,-39.375,-247,1.314453,0.9453125,-0.2744141,-0.1318359,-0.3442383,-0.1225586
1453,63.1875,-51.9375,-242.0625,1.399902,1.061523,-0.1708984,-0.1103516,-0.3579102,-0.112793
1457,24.5,-58.625,-231,1.43457,1.12793,-0.1015625,-0.09619141,-0.3666992,-0.1074219
1461,-23,-59,-218.25,1.492676,1.13916,-0.02050781,-0.07714844,-0.371582,-0.1044922
1465,-76.125,-51.8125,-214.9375,1.527832,1.06543,0.05566406,-0.05419922,-0.3779297,-0.1088867
1469,-120.1875,-38.5,-215.4375,1.454102,0.8364258,0.07128906,-0.04248047,-0.3793945,-0.1157227
1473,-148.25,-26.125,-214.125,1.426758,0.4868164,0.09033203,-0.02099609,-0.3779297,-0.1264648
1477,-143.25,-8.875,-208.6875,1.26416,0.1137695,0.08251953,-0.0009765625,-0.3754883,-0.1416016
1481,-123.8125,3.6875,-204.1875,1.016113,-0.1113281,0.07519531,0.01269531,-0.371582,-0.1494141
1485,-103.3125,10.5625,-190.9375,0.8032227,-0.2202148,0.01708984,0.03417969,-0.3657227,-0.1616211
1489,-92.125,12.75,-169.3125,0.5976563,-0.2353516,-0.04394531,0.05224609,-0.3579102,-0.1713867
1493,-88.875,9.5625,-146.0625,0.3886719,-0.2744141,-0.109375,0.06298828,-0.3544922,-0.1782227
1497,-84.375,1.4375,-126.25,0.1987305,-0.340332,-0.112793,0.07714844,-0.3466797,-0.1821289
1501,-77.8125,-8.9375,-106.875,0.1132813,-0.4179688,-0.0859375,0.08789063,-0.3378906,-0.1928711
1505,-66.3125,-7.4375,-92.6875,0.1674805,-0.2900391,0.07128906,0.09375,-0.3354492,-0.1958008
1509,-60.75,-2.3125,-82.0625,0.09033203,-0.2045898,0.1171875,0.09960938,-0.328125,-0.2041016
1513,-57.8125,-1.3125,-72.4375,0.05126953,-0.1694336,0.1787109,0.1079102,-0.3217773,-0.2094727
1517,-51.1875,3.4375,-63.5,0.01269531,-0.1967773,0.2094727,0.1118164,-0.3178711,-0.2119141
1521,-42.375,8.25,-51.8125,-0.05664063,-0.1616211,0.2597656,0.1176758,-0.3105469,-0.2163086
1525,-34.8125,15.125,-36.9375,-0.1420898,-0.1113281,0.2788086,0.1225586,-0.3081055,-0.2177734
1529,-24.375,14.625,-26.125,-0.2192383,-0.03369141,0.2519531,0.125,-0.3041992,-0.21875
1533,-12.4375,8.8125,-17.75,-0.2504883,0.02832031,0.2827148,0.128418,-0.3017578,-0.2216797
1537,-5.125,10.5,-12.5,-0.1806641,0.09033203,0.3251953,0.128418,-0.3032227,-0.2202148
1541,-0.0625,17,-5.5625,-0.2041016,0.1367188,0.3330078,0.1308594,-0.3007813,-0.2216797
1545,7.0625,20.9375,-1.125,-0.2119141,0.1137695,0.3095703,0.1318359,-0.2993164,-0.2202148
1549,16.625,24.875,2.375,-0.2192383,0.1098633,0.3056641,0.1333008,-0.3017578,-0.21875
1553,21.375,25.9375,9.25,-0.2773438,0.09033203,0.2558594,0.1333008,-0.3032227,-0.2163086
1557,22.3125,21.6875,23.6875,-0.246582,0.05517578,0.2329102,0.1342773,-0.3032227,-0.2133789
1561,27.9375,19.125,38.25,-0.2387695,-0.002441406,0.1865234,0.1342773,-0.3066406,-0.2133789
1565,38.75,12.1875,54,-0.1884766,-0.01416016,0.1557617,0.1308594,-0.3105469,-0.2080078
1569,45.9375,11.4375,68.8125,-0.09912109,0.09033203,0.140625,0.1269531,-0.3144531,-0.2055664
1573,44.125,13.375,77,-0.07617188,0.1992188,0.08251953,0.1225586,-0.3208008,-0.2011719
1578,42,10.5625,82.0625,-0.04882813,0.1992188,0.05957031,0.1166992,-0.3256836,-0.1972656
1582,36.4375,5.1875,89.125,-0.002441406,0.1757813,0.05175781,0.109375,-0.3305664,-0.1943359
1586,36.0625,4.3125,102.375,0.1054688,0.1523438,0.08642578,0.1035156,-0.3354492,-0.1904297
1590,32.9375,4.8125,116.0625,0.1132813,0.2265625,0.08642578,0.09619141,-0.3408203,-0.1889648
1594,28.9375,3.625,126.375,0.206543,0.2963867,0.07128906,0.08691406,-0.3466797,-0.1850586
1598,9.75,4.875,130.1875,0.3071289,0.4399414,0.07519531,0.07470703,-0.3481445,-0.1821289
1602,-13.5,5.9375,139.6875,0.3535156,0.3120117,0.06347656,0.06640625,-0.3505859,-0.1821289
1606,-14.8125,-1.625,151.125,0.3925781,0.1484375,0.03271484,0.05566406,-0.3544922,-0.1821289
1610,12.9375,-9.125,156.25,0.5356445,0.02832031,0.09423828,0.0390625,-0.3520508,-0.1821289
1614,42.6875,-5.6875,160.5625,0.7333984,0.1835938,0.1328125,0.02490234,-0.3544922,-0.1821289
1618,38.4375,6.0625,165.75,0.8613281,0.5019531,0.1210938,0.01171875,-0.3579102,-0.1782227
1622,6.5,13.5625,176.1875,0.8378906,0.5488281,0.04443359,-0.004394531,-0.3579102,-0.175293
1626,-5.125,9.25,189.1875,0.7060547,0.4477539,-0.04736328,-0.01757813,-0.3554688,-0.175293
1630,3.8125,-6.375,194.5,0.7529297,0.3896484,-0.1166992,-0.03320313,-0.3530273,-0.175293
1634,18.25,-21.3125,198.8125,0.9233398,0.4672852,-0.1054688,-0.05224609,-0.3481445,-0.1728516
1638,25.375,-28.5,198.375,1.055176,0.5800781,-0.09765625,-0.06640625,-0.3481445,-0.1713867
1642,31.75,-33.6875,200.4375,1.101563,0.5913086,-0.09375,-0.08300781,-0.3417969,-0.1699219
1646,48.4375,-37.0625,198.375,1.140137,0.6030273,-0.07861328,-0.1044922,-0.3369141,-0.1660156
1650,63.25,-45.3125,193.625,1.271973,0.6538086,-0.07861328,-0.1176758,-0.3344727,-0.1606445
1654,73.625,-50.5,201.875,1.43457,0.7041016,-0.06689453,-0.1367188,-0.3256836,-0.1523438
1658,83.125,-50.375,207.5,1.59375,0.8286133,-0.09375,-0.1557617,-0.3193359,-0.1455078
1662,91.875,-47.25,199.1875,1.644043,1.06543,-0.06298828,-0.1699219,-0.3154297,-0.1401367
1666,77.75,-38.5,180.1875,1.655762,1.291016,-0.03222656,-0.1865234,-0.3056641,-0.1318359
1670,37.9375,-32.375,176.5,1.59375,1.209473,0.005859375,-0.2021484,-0.2929688,-0.1235352
1674,14.25,-34.4375,188.875,1.543457,0.9296875,0.01367188,-0.2089844,-0.2856445,-0.1210938
1678,31.6875,-35.25,194.9375,1.670898,0.6923828,0.04052734,-0.2246094,-0.2729492,-0.1181641
1682,80.125,-23.5625,185.5625,1.779785,0.8051758,0.07128906,-0.2387695,-0.2583008,-0.112793
1686,97.25,-5.75,160.0625,1.756348,1.287109,0.009765625,-0.2436523,-0.2519531,-0.1098633
1690,57.1875,11.375,139.5,1.616699,1.590332,-0.05908203,-0.253418,-0.2407227,-0.1020508
1694,-11.125,14.8125,138.5,1.419434,1.407715,-0.09765625,-0.2602539,-0.2304688,-0.1044922
1698,-49,11.4375,148.625,1.349609,1.01123,-0.0859375,-0.2651367,-0.2231445,-0.1020508
1702,-48,4.3125,148.625,1.302734,0.5991211,-0.09375,-0.2724609,-0.2080078,-0.105957
1707,-1.625,-0.4375,148.0625,1.368652,0.300293,-0.07470703,-0.2783203,-0.1933594,-0.1088867
1711,68.8125,0.625,130.9375,1.341797,0.284668,-0.112793,-0.2817383,-0.1855469,-0.105957
1715,120.1875,0.8125,113,1.252441,0.4985352,-0.2324219,-0.2875977,-0.1767578,-0.1020508
1719,130,-5.1875,104.5625,1.237305,0.6772461,-0.2783203,-0.2915039,-0.1694336,-0.09765625
1723,113.4375,-9.4375,107.125,1.225586,0.7041016,-0.2978516,-0.2949219,-0.1669922,-0.09375
1727,92.1875,-20.5,112.1875,1.19043,0.6381836,-0.2744141,-0.2983398,-0.1582031,-0.09082031
1731,73.875,-29.4375,119.3125,1.233398,0.5878906,-0.2436523,-0.3032227,-0.1479492,-0.08544922
1735,59,-27.0625,119.9375,1.415527,0.7236328,-0.1474609,-0.3081055,-0.1420898,-0.08300781
1739,44.3125,-8.9375,103,1.469727,1.019043,-0.128418,-0.3139648,-0.1308594,-0.08300781
1743,3.1875,3,73.1875,1.306641,1.372559,-0.112793,-0.3164063,-0.1220703,-0.08447266
1747,-60.3125,8.6875,54.0625,1.209961,1.255859,-0.1015625,-0.3173828,-0.1166992,-0.08544922
1751,-96.6875,14.5625,53.8125,1.163574,0.9140625,-0.1054688,-0.3198242,-0.1108398,-0.09082031
1755,-91.125,12.875,51.8125,1.0625,0.7470703,-0.112793,-0.3188477,-0.1020508,-0.09521484
1759,-54.375,8.1875,29.0625,1.105469,0.7626953,-0.07861328,-0.3198242,-0.09716797,-0.09667969
1763,-8.1875,10.6875,-8.8125,1.179199,0.9101563,-0.08984375,-0.3208008,-0.09423828,-0.09765625
1767,27.4375,6.6875,-44.125,1.151855,1.154785,-0.128418,-0.3198242,-0.09716797,-0.09912109
1771,40.0625,0.25,-71.25,1.237305,1.458008,-0.109375,-0.3188477,-0.1020508,-0.09765625
1775,21.125,-0.1875,-90.8125,1.333984,1.671875,-0.1054688,-0.3164063,-0.1108398,-0.09375
1779,-18.125,1,-99,1.43457,1.780273,-0.128418,-0.3149414,-0.1206055,-0.09082031
1783,-56.1875,5.4375,-112.1875,1.566406,1.706543,-0.1401367,-0.3125,-0.1279297,-0.09082031
1787,-77.4375,11.3125,-129.25,1.651855,1.590332,-0.1591797,-0.3081055,-0.1381836,-0.09082031
1791,-84.5625,14.375,-150.25,1.713867,1.458008,-0.1860352,-0.3017578,-0.1508789,-0.09375
1795,-84.3125,16,-170.6875,1.798828,1.345215,-0.1669922,-0.2983398,-0.1591797,-0.09521484
1799,-79.9375,21.375,-187.4375,1.856934,1.209473,-0.1513672,-0.2915039,-0.1733398,-0.1020508
1803,-68.25,26,-200.75,1.849121,1.06543,-0.1938477,-0.2841797,-0.1879883,-0.1074219
1807,-48.5625,24.9375,-212.125,1.837891,1.030762,-0.2128906,-0.2768555,-0.1992188,-0.1074219
1811,-40.6875,21.625,-226.25,1.853027,1.104492,-0.2397461,-0.2651367,-0.2182617,-0.1157227
1815,-52.5,16.8125,-237.125,1.915039,1.100586,-0.2285156,-0.2519531,-0.234375,-0.1166992
1819,-75,19.9375,-241.375,2.085938,1.045898,-0.1435547,-0.2436523,-0.2456055,-0.1210938
1823,-96.25,30.3125,-242.3125,2.112793,0.9101563,-0.109375,-0.2280273,-0.2641602,-0.1289063
1827,-107.25,40.75,-240.25,2.093262,0.7587891,-0.08984375,-0.2104492,-0.2768555,-0.1386719
1831,-102.125,47.8125,-242.5625,1.992676,0.6381836,-0.07861328,-0.199707,-0.2856445,-0.1455078
1836,-81.3125,51.0625,-241.9375,1.853027,0.4282227,-0.07080078,-0.1782227,-0.2983398,-0.1547852
1840,-42.6875,47.0625,-240.375,1.670898,0.3466797,-0.0859375,-0.1601563,-0.3105469,-0.1616211
1844,-1.1875,34.0625,-241.5,1.546875,0.3740234,-0.09375,-0.1435547,-0.3178711,-0.1645508
1848,28.5,17.75,-236.6875,1.508301,0.4594727,-0.07080078,-0.1220703,-0.3305664,-0.1616211
1852,42.4375,7.5,-226.9375,1.516113,0.6420898,-0.001464844,-0.1030273,-0.3432617,-0.1606445
1856,38.5625,8.5625,-227.9375,1.516113,0.8598633,0.04785156,-0.08642578,-0.3505859,-0.1591797
1860,15.125,8,-235.25,1.361328,0.9335938,0.03662109,-0.06494141,-0.3579102,-0.1538086
1864,-16.9375,2.375,-231.5625,1.306641,0.855957,0.05175781,-0.04248047,-0.3642578,-0.1577148
1868,-51.1875,4.3125,-224.75,1.310547,0.7314453,0.08251953,-0.02929688,-0.3632813,-0.15625
1872,-80.375,12.1875,-216.875,1.244629,0.5175781,0.08642578,-0.005859375,-0.3632813,-0.1630859
1876,-98.125,20.125,-193.625,1.043457,0.1796875,0.07128906,0.01757813,-0.3618164,-0.1699219
1880,-105.75,23.0625,-157.375,0.8378906,-0.07226563,0.04052734,0.02832031,-0.3569336,-0.1782227
1884,-106.0625,21.125,-119.9375,0.6054688,-0.2744141,-0.04736328,0.04248047,-0.3505859,-0.1889648
1888,-98.8125,11.5,-97.3125,0.3378906,-0.3793945,-0.128418,0.05712891,-0.3417969,-0.1972656
1892,-78.125,-5.25,-92.625,0.3457031,-0.4140625,-0.01318359,0.06298828,-0.3378906,-0.2026367
1896,-48.375,5.9375,-107.3125,0.3496094,-0.4257813,0.04052734,0.06982422,-0.3320313,-0.2080078
1900,-34.4375,9.9375,-103.1875,0.1015625,-0.4609375,0.009765625,0.08203125,-0.328125,-0.2119141
1904,-30.5,0.875,-86.375,-0.01025391,-0.4414063,0.01708984,0.08691406,-0.3256836,-0.2148438
1908,-28.9375,-2.125,-66.875,-0.02197266,-0.4414063,0.05566406,0.09375,-0.3193359,-0.2163086
1912,-25.0625,-3.4375,-48.3125,-0.08007813,-0.4296875,0.07128906,0.09960938,-0.3154297,-0.2216797
1916,-16.4375,-3.6875,-38.0625,-0.09521484,-0.3598633,0.1020508,0.1020508,-0.3144531,-0.2216797
1920,-8.5,1.5625,-37.8125,-0.1459961,-0.2783203,0.1289063,0.105957,-0.3129883,-0.2231445
1924,-4.0625,5,-31.125,-0.2192383,-0.2275391,0.09423828,0.1079102,-0.3120117,-0.2246094
1928,-1.625,-1.1875,-17.3125,-0.230957,-0.1538086,0.07910156,0.1079102,-0.3095703,-0.2246094
1932,-0.5,-5.4375,-8.4375,-0.2119141,-0.02587891,0.1289063,0.1103516,-0.3081055,-0.2246094
1936,1.375,-2.3125,-4.625,-0.1650391,0.05126953,0.1674805,0.1103516,-0.3081055,-0.2246094
1940,-4.9375,-1.5625,4.0625,-0.1884766,0.1137695,0.1748047,0.1118164,-0.3095703,-0.2246094
1944,-11.3125,-2.875,14.5625,-0.1499023,0.09033203,0.2094727,0.1103516,-0.3081055,-0.2255859
1948,-8.1875,-0.6875,26.4375,-0.1420898,0.02050781,0.2133789,0.1079102,-0.3066406,-0.2246094
1952,5.25,-1.6875,40.1875,-0.1650391,-0.02978516,0.1865234,0.1069336,-0.3081055,-0.2231445
1956,27.0625,-8.3125,52.5625,-0.1728516,-0.02587891,0.1479492,0.1035156,-0.3105469,-0.2255859
1960,48.9375,-12.875,58.625,-0.01806641,0.04736328,0.1865234,0.09619141,-0.3144531,-0.2216797
1965,61.6875,-9.625,62.125,0.07861328,0.140625,0.2094727,0.09375,-0.3178711,-0.2177734
1969,57.5,-5.375,76.5625,0.1713867,0.171875,0.2480469,0.08886719,-0.3242188,-0.2133789
1973,47.375,4.875,104.25,0.190918,0.1293945,0.2402344,0.07958984,-0.328125,-0.2094727
1977,49.5625,5.8125,136.0625,0.140625,0.1293945,0.1557617,0.07226563,-0.3344727,-0.206543
1981,61.8125,1.75,151.3125,0.2255859,0.2338867,0.1171875,0.06152344,-0.3393555,-0.1987305
1985,68.625,2.8125,141.1875,0.3227539,0.4555664,0.08251953,0.04882813,-0.3442383,-0.1972656
1989,57,2,132.9375,0.3652344,0.4672852,0.04785156,0.0390625,-0.3491211,-0.1918945
1993,45,0.125,146.5625,0.4389648,0.3427734,0.06347656,0.02587891,-0.3530273,-0.1865234
1997,38.875,0.1875,168.1875,0.5126953,0.3427734,0.04443359,0.008300781,-0.3569336,-0.1806641
2001,38.9375,-2.8125,180,0.5708008,0.4399414,0.04443359,0,-0.3569336,-0.1782227
2005,32,-4.75,174.5,0.6870117,0.5449219,0.02099609,-0.01757813,-0.3554688,-0.1767578
2009,14.5,-3.9375,165.5625,0.8378906,0.5566406,0.07519531,-0.03320313,-0.3554688,-0.1713867
2013,-0.375,0.625,174.5625,0.8613281,0.3623047,0.04785156,-0.04492188,-0.3530273,-0.1699219
2017,4.4375,-7.5,197.3125,0.8032227,0.3310547,-0.01660156,-0.06298828,-0.3520508,-0.1728516
2021,24.9375,-21.375,197.5625,0.9116211,0.4282227,-0.03613281,-0.08056641,-0.3442383,-0.1699219
2025,40.75,-25.9375,185.0625,1.117188,0.6108398,-0.02441406,-0.09228516,-0.3417969,-0.1674805
2029,26.5625,-19.3125,166.1875,1.209961,0.793457,-0.04394531,-0.1113281,-0.3369141,-0.1645508
2033,-1.0625,-19.875,171.25,1.140137,0.5566406,-0.05517578,-0.1259766,-0.3291016,-0.1616211
2037,-6.625,-29.8125,189.6875,1.155762,0.4125977,-0.06298828,-0.1376953,-0.3232422,-0.1606445
2041,5.8125,-39.9375,203.6875,1.256348,0.3623047,-0.03613281,-0.1542969,-0.3129883,-0.1616211
2045,31.3125,-44.875,201.5,1.415527,0.5332031,-0.02832031,-0.1733398,-0.3041992,-0.1577148
2049,50.0625,-42.3125,181.75,1.523926,0.6884766,-0.03222656,-0.1831055,-0.2944336,-0.1547852
2053,55.25,-37.9375,163.3125,1.477539,0.8364258,-0.09765625,-0.2006836,-0.2856445,-0.1494141
2057,36.75,-43.25,162.5,1.438477,0.809082,-0.08203125,-0.2114258,-0.2753906,-0.1416016
2061,22.75,-44.25,178.0625,1.558594,0.6069336,-0.02050781,-0.2211914,-0.2680664,-0.1386719
2065,34.6875,-43.9375,187.4375,1.578125,0.5566406,-0.02441406,-0.2329102,-0.2543945,-0.137207
2069,61.9375,-44.1875,180,1.674805,0.6381836,-0.01318359,-0.2446289,-0.2416992,-0.1289063
2073,80.125,-36.6875,160.875,1.663574,0.8012695,-0.02441406,-0.2519531,-0.2319336,-0.1225586
2077,82.25,-30.625,149.1875,1.605469,0.793457,-0.07080078,-0.2626953,-0.2231445,-0.1166992
2081,83.8125,-30.3125,145.625,1.632324,0.6538086,-0.08984375,-0.2724609,-0.2119141,-0.1113281
2085,92.625,-30.5,148.25,1.72168,0.6694336,-0.1206055,-0.2744141,-0.2045898,-0.1044922
2089,96.3125,-25,145.125,1.756348,0.8208008,-0.1015625,-0.2817383,-0.1933594,-0.09912109
2094,76.3125,-13.9375,135.5625,1.698242,0.956543,-0.07470703,-0.2875977,-0.1845703,-0.09082031
2098,37.25,-2.875,131.125,1.644043,0.9101563,-0.07470703,-0.2915039,-0.1767578,-0.08984375
2102,1.6875,2.3125,134.75,1.535645,0.7548828,-0.06689453,-0.2973633,-0.1645508,-0.08984375
2106,-5.5,4,140.875,1.496582,0.5683594,-0.06689453,-0.3032227,-0.1533203,-0.08837891
2110,14.375,4.25,133.5625,1.43457,0.6147461,-0.08203125,-0.3056641,-0.1430664,-0.09082031
2114,37.125,2.875,110.875,1.353516,0.7856445,-0.07861328,-0.309082,-0.1318359,-0.09228516
2118,47.8125,6.4375,83.5625,1.349609,0.8867188,-0.05126953,-0.3125,-0.1220703,-0.09082031
2122,49.4375,11.3125,67.5625,1.244629,0.8867188,-0.07080078,-0.3149414,-0.1181641,-0.09082031
2126,55.6875,11.5625,60.1875,1.179199,0.8671875,-0.1166992,-0.3164063,-0.1142578,-0.09667969
2130,76.4375,12.5625,46.4375,1.237305,0.9257813,-0.08984375,-0.3188477,-0.109375,-0.09667969
2134,95.125,21.125,20.375,1.306641,1.39209,-0.1054688,-0.3198242,-0.109375,-0.09667969
2138,50.8125,21.9375,-9.25,1.248535,2.309082,-0.03613281,-0.3198242,-0.1108398,-0.1005859
2142,4.625,21.6875,-34.875,1.198242,1.570801,-0.1552734,-0.3208008,-0.1142578,-0.105957
2146,-3.0625,17.375,-54.1875,1.163574,1.271484,-0.1708984,-0.3164063,-0.1157227,-0.1020508
2150,-16.6875,15.8125,-64.3125,1.225586,1.310547,-0.1743164,-0.3139648,-0.1206055,-0.1044922
2154,-37.5,11.125,-70.875,1.237305,1.341309,-0.1821289,-0.3115234,-0.1245117,-0.1035156
2158,-61.4375,3.5625,-80.5625,1.260254,1.317871,-0.1860352,-0.309082,-0.1293945,-0.1035156
2162,-72.9375,-1.25,-91.1875,1.39209,1.166504,-0.1474609,-0.3066406,-0.1367188,-0.1035156
2166,-65.75,2.875,-106.75,1.523926,1.13916,-0.109375,-0.3032227,-0.1430664,-0.1035156
2170,-55,5.625,-127.5625,1.523926,1.189941,-0.1362305,-0.3007813,-0.1494141,-0.105957
2174,-51.1875,4.6875,-147.6875,1.624512,1.251953,-0.1245117,-0.293457,-0.1591797,-0.1035156
2178,-55.875,10.75,-162.0625,1.702148,1.221191,-0.1206055,-0.2890625,-0.1733398,-0.105957
2182,-56.75,14,-172.9375,1.752441,1.131836,-0.1323242,-0.2866211,-0.1821289,-0.1098633
2186,-51.6875,15.1875,-185.5,1.798828,1.092773,-0.1435547,-0.2758789,-0.1967773,-0.1142578
2190,-49.3125,15.75,-197.5625,1.864746,1.057617,-0.128418,-0.2675781,-0.2119141,-0.1166992
2194,-49.875,18.1875,-209.375,1.864746,0.9995117,-0.1323242,-0.2617188,-0.2216797,-0.1196289
2198,-51.5,18,-222.5,1.864746,0.8867188,-0.1206055,-0.2495117,-0.2382813,-0.125
2202,-49.625,19.5625,-234.125,1.876465,0.7739258,-0.08203125,-0.2353516,-0.2543945,-0.1303711
2206,-46.1875,19.625,-235.5,1.841797,0.6459961,-0.06689453,-0.2255859,-0.2641602,-0.1333008
2210,-32.5,16.8125,-228.3125,1.760254,0.5410156,-0.05908203,-0.2089844,-0.2792969,-0.1347656
2214,-11.875,15.0625,-225.5625,1.748535,0.5761719,-0.02441406,-0.1938477,-0.2944336,-0.137207
2218,11.9375,14.3125,-234.4375,1.644043,0.6616211,-0.03222656,-0.1816406,-0.3081055,-0.1386719
2223,24.4375,12,-245.1875,1.612793,0.7119141,-0.05517578,-0.1640625,-0.3208008,-0.137207
2227,24.25,4.25,-239.5,1.543457,0.7353516,-0.07861328,-0.1401367,-0.3344727,-0.1347656
2231,16.375,-3.4375,-231.9375,1.473633,0.7739258,-0.07861328,-0.1259766,-0.3442383,-0.1347656
2235,9.375,-12,-221.8125,1.39209,0.7626953,-0.1054688,-0.1030273,-0.3544922,-0.1333008
2239,-0.1875,-20.6875,-213.25,1.361328,0.8208008,-0.07861328,-0.08544922,-0.3632813,-0.1303711
2243,-16.5625,-21.6875,-216,1.353516,0.855957,-0.01660156,-0.07226563,-0.3657227,-0.1303711
2247,-30.5,-19.5,-215.625,1.260254,0.7548828,-0.01318359,-0.05078125,-0.3706055,-0.1318359
2251,-47.9375,-22.6875,-208.1875,1.179199,0.6845703,0.001953125,-0.03076172,-0.3745117,-0.1357422
2255,-67.625,-21.5,-202.5625,1.140137,0.6186523,0.005859375,-0.01513672,-0.3745117,-0.1401367
2259,-90.625,-16.375,-195.4375,0.9970703,0.4750977,-0.02441406,0.002441406,-0.371582,-0.1469727
2263,-108.6875,-13,-184.625,0.8691406,0.2299805,-0.05126953,0.02148438,-0.3681641,-0.15625
2267,-116.125,-10.8125,-172.625,0.7412109,-0.02978516,-0.08203125,0.03320313,-0.3642578,-0.1630859
2271,-108.0625,-9,-153.125,0.527832,-0.3286133,-0.112793,0.04882813,-0.3569336,-0.175293
2275,-87.125,-16.125,-131.5625,0.3496094,-0.5073242,-0.112793,0.06298828,-0.3520508,-0.1850586
2279,-63.875,-19.25,-112.25,0.3339844,-0.4726563,0.005859375,0.06884766,-0.3457031,-0.1865234
2283,-43.5625,-16,-100.625,0.2333984,-0.3950195,0.02099609,0.07861328,-0.3393555,-0.1943359
2287,-39.3125,-15.0625,-90.9375,0.1367188,-0.2744141,0.06347656,0.08691406,-0.3330078,-0.199707
2291,-45.625,-17.5625,-78.4375,0.1015625,-0.2783203,0.1020508,0.09375,-0.3320313,-0.2026367
2295,-48.75,-17.1875,-63.25,0.09765625,-0.3325195,0.1943359,0.09765625,-0.3266602,-0.2080078
2299,-46.625,-10.0625,-45.75,0.03955078,-0.3793945,0.2250977,0.1010742,-0.3217773,-0.2119141
2303,-41.5,-1.5,-29.0625,-0.04882813,-0.3754883,0.2368164,0.1044922,-0.3178711,-0.2148438
2307,-32.6875,3.5,-15.6875,-0.1303711,-0.3598633,0.2133789,0.1044922,-0.3154297,-0.2177734
2311,-18.5,5.125,-9.4375,-0.1728516,-0.3598633,0.2133789,0.1069336,-0.3120117,-0.2177734
2315,-0.5625,3.125,1.3125,-0.1884766,-0.3095703,0.2172852,0.1069336,-0.3120117,-0.2202148
2319,9.5,3.75,15.8125,-0.1728516,-0.1850586,0.2402344,0.1069336,-0.3144531,-0.2216797
2323,15.375,3.8125,29.4375,-0.1650391,-0.09960938,0.2329102,0.105957,-0.3129883,-0.21875
2327,24.8125,5.0625,34.8125,-0.1030273,0.004882813,0.2636719,0.1035156,-0.3129883,-0.2177734
2331,28.75,10.75,37.8125,-0.08007813,0.105957,0.2597656,0.1020508,-0.3168945,-0.2119141
2335,24.5,12.75,51.4375,-0.08007813,0.1601563,0.2133789,0.09863281,-0.3193359,-0.2119141
2339,19.4375,9.75,64.6875,-0.05273438,0.140625,0.1904297,0.09619141,-0.3232422,-0.2109375
2343,23.1875,4.625,75.125,0.02050781,0.08251953,0.1982422,0.09033203,-0.3266602,-0.2094727
2347,30.875,1.3125,84.9375,0.07861328,0.08642578,0.2290039,0.08300781,-0.3291016,-0.2055664
2352,31.375,6.1875,97.8125,0.2412109,0.1523438,0.3442383,0.07958984,-0.3344727,-0.2055664
2356,37.0625,28.25,111.6875,0.2954102,0.1757813,0.3173828,0.06884766,-0.3378906,-0.2011719
2360,54,36.375,120,0.2255859,0.2109375,0.1982422,0.06054688,-0.3432617,-0.1943359
2364,66.6875,29.4375,120.875,0.2529297,0.3818359,0.05566406,0.05566406,-0.3466797,-0.1928711
2368,58.25,18.375,121.0625,0.3730469,0.5175781,0.09423828,0.04492188,-0.3530273,-0.1865234
2372,41.9375,19.625,130.625,0.4970703,0.4360352,0.144043,0.03417969,-0.3554688,-0.1796875
2376,41.3125,23.75,142.625,0.4775391,0.3818359,0.09814453,0.02587891,-0.3579102,-0.1767578
2380,46,17.4375,147.6875,0.5512695,0.4438477,0.08251953,0.01269531,-0.3618164,-0.175293
2384,39.5625,18.5,150.25,0.690918,0.5527344,0.05175781,-0.001953125,-0.3618164,-0.1674805
2388,24.625,20.75,158.8125,0.7373047,0.6030273,0.04443359,-0.009277344,-0.3632813,-0.1660156
2392,12.9375,21,166.375,0.6948242,0.5761719,0.01367188,-0.0234375,-0.3618164,-0.1645508
2396,21.1875,12.75,167.6875,0.6674805,0.5136719,-0.04003906,-0.0390625,-0.359375,-0.1645508
2400,32.625,-0.25,168.9375,0.8071289,0.5292969,-0.02050781,-0.05078125,-0.3569336,-0.1606445
2404,35.1875,-5.75,173.6875,0.9931641,0.6225586,-0.01318359,-0.06738281,-0.3544922,-0.1591797
2408,23.4375,-6.0625,178.6875,1.179199,0.6962891,0.03271484,-0.08300781,-0.3505859,-0.15625
2412,17.9375,2.6875,185.5625,1.132324,0.6147461,0.07519531,-0.09375,-0.3481445,-0.1538086
2416,33.875,7.0625,187.625,1.008301,0.5761719,-0.02441406,-0.1103516,-0.3378906,-0.1538086
2420,54.1875,-4,184.4375,1.089844,0.6264648,-0.04394531,-0.1269531,-0.3330078,-0.1508789
2424,59.875,-6.1875,180.125,1.306641,0.7705078,-0.01660156,-0.1391602,-0.3305664,-0.1469727
2428,50,-1.25,181.1875,1.42334,0.8520508,-0.009277344,-0.1518555,-0.3232422,-0.1401367
2432,31.625,6.375,182.875,1.46582,0.9604492,0.02880859,-0.168457,-0.3129883,-0.137207
2436,16.125,15.625,183.625,1.376465,0.9179688,-0.02832031,-0.1791992,-0.3081055,-0.137207
2440,12.875,5.9375,184,1.233398,0.8945313,-0.1513672,-0.1914063,-0.2944336,-0.137207
2444,16.4375,-23.4375,177.8125,1.256348,0.8828125,-0.1401367,-0.2055664,-0.2832031,-0.1386719
2448,27.625,-33.5,165.5,1.492676,0.9023438,-0.07080078,-0.2128906,-0.2753906,-0.1333008
2452,20.0625,-28.0625,159.75,1.554688,0.9643555,0.001953125,-0.2255859,-0.2641602,-0.1289063
2456,4.1875,-22.1875,162.25,1.446289,0.9956055,-0.02441406,-0.2329102,-0.2529297,-0.1289063
2460,-8.4375,-26.1875,161.625,1.380371,0.8632813,-0.05517578,-0.2412109,-0.2407227,-0.1279297
2464,1.375,-31.1875,163.6875,1.419434,0.7470703,-0.06298828,-0.2519531,-0.2304688,-0.125
2468,28.9375,-34.9375,155.25,1.415527,0.793457,-0.08984375,-0.2592773,-0.2167969,-0.1235352
2472,37.1875,-37.9375,136.1875,1.458008,0.956543,-0.07470703,-0.2661133,-0.2080078,-0.1166992
2476,24.75,-29.375,120.1875,1.512207,0.9682617,0.005859375,-0.2734375,-0.1992188,-0.1098633
2481,8.4375,-23.5625,116.25,1.384277,0.7626953,0.01367188,-0.2792969,-0.1894531,-0.1098633
2485,5.625,-22.875,124.0625,1.318359,0.6381836,-0.005371094,-0.2841797,-0.1831055,-0.1074219
2489,15.4375,-21,125.75,1.349609,0.6694336,-0.02441406,-0.2900391,-0.171875,-0.1074219
2493,23.75,-19.75,116.3125,1.337891,0.8051758,-0.05126953,-0.2958984,-0.1606445,-0.1044922
2497,19.5,-13.875,93.1875,1.368652,0.953125,-0.005371094,-0.2998047,-0.1557617,-0.1035156
2501,-13.25,-0.9375,80.4375,1.291504,1.038574,-0.001464844,-0.3032227,-0.1430664,-0.1044922
2505,-64.9375,2.6875,86.75,1.241211,0.9916992,0.001953125,-0.3056641,-0.1357422,-0.1044922
2509,-95.8125,7.5,84.875,1.26416,0.8325195,0.02490234,-0.3081055,-0.1293945,-0.1074219
2513,-69.75,14.5625,68.5625,1.225586,0.6108398,0.04785156,-0.3125,-0.1196289,-0.112793
2517,-13.75,7.1875,34.5625,1.027832,0.7548828,-0.02832031,-0.3125,-0.1108398,-0.1166992
2521,22.125,-10.6875,-4.9375,1.066406,0.9414063,0.001953125,-0.3139648,-0.1083984,-0.1181641
2525,28.0625,-19.4375,-17.875,1.256348,1.124023,0.1518555,-0.3149414,-0.1108398,-0.1157227
2529,6,-5.3125,-13.5,1.380371,1.317871,0.2636719,-0.3149414,-0.1142578,-0.1157227
2533,-13.0625,10.9375,-12.75,1.330078,1.388184,0.1787109,-0.3115234,-0.1142578,-0.112793
2537,-26.6875,14.75,-35.1875,1.287598,1.504395,0.08251953,-0.3115234,-0.1166992,-0.1113281
2541,-38.3125,14.75,-66.375,1.314453,1.500488,0.05175781,-0.309082,-0.1196289,-0.1142578
2545,-50.25,15.125,-85.25,1.376465,1.446289,0.02099609,-0.3066406,-0.1245117,-0.1142578
2549,-63.1875,14.3125,-101.125,1.46582,1.395996,0.04785156,-0.3007813,-0.1318359,-0.1157227
2553,-72.625,18.1875,-118.625,1.531738,1.306641,0.05566406,-0.2983398,-0.140625,-0.1157227
2557,-75.5,20.1875,-136.9375,1.574219,1.154785,0.05175781,-0.2958984,-0.1455078,-0.1196289
2561,-63.25,23.375,-152.0625,1.678711,0.972168,0.1132813,-0.2900391,-0.1582031,-0.1235352
2565,-47.3125,30.5625,-163.6875,1.729004,0.9414063,0.140625,-0.2841797,-0.1694336,-0.1289063
2569,-35.375,39.1875,-171.6875,1.756348,0.9838867,0.1171875,-0.2768555,-0.1782227,-0.1318359
2573,-29.5625,45.25,-183.9375,1.713867,1.022949,0.06738281,-0.2700195,-0.1918945,-0.1347656
2577,-22.125,45.5625,-196.875,1.659668,0.9375,-0.009277344,-0.2617188,-0.2070313,-0.1425781
2581,-2.9375,37.625,-205.3125,1.601563,0.855957,-0.05908203,-0.2519531,-0.2192383,-0.144043
2585,15.6875,29.125,-217.5625,1.63623,0.8945313,-0.09765625,-0.2412109,-0.234375,-0.1469727
2589,17.4375,21.5,-228.375,1.666992,0.9414063,-0.08984375,-0.2280273,-0.2543945,-0.1484375
2593,-1.4375,19.5625,-231.6875,1.729004,1.01123,-0.128418,-0.2163086,-0.2670898,-0.1469727
2597,-34,17.5,-234.3125,1.663574,0.9375,-0.1552734,-0.199707,-0.2807617,-0.1508789
2601,-65,11.5625,-231.125,1.597656,0.7973633,-0.1591797,-0.1831055,-0.296875,-0.1538086
2605,-84.75,7.3125,-225.125,1.640137,0.6577148,-0.09375,-0.1708984,-0.3032227,-0.1577148
2610,-89.375,8.5,-226.9375,1.589844,0.5566406,-0.04003906,-0.1508789,-0.3129883,-0.1660156
2614,-88.9375,7.375,-233.3125,1.5625,0.5097656,0.02490234,-0.1328125,-0.3193359,-0.1713867
2618,-84,15.8125,-230.5,1.512207,0.4013672,0.105957,-0.1201172,-0.3266602,-0.1782227
2622,-76.6875,24.625,-217.1875,1.353516,0.3779297,0.105957,-0.09960938,-0.3305664,-0.1865234
2626,-66.75,26.8125,-204.3125,1.159668,0.3662109,0.08251953,-0.07958984,-0.3344727,-0.1904297
2630,-51.25,22.375,-190.8125,1.031738,0.3120117,0.08642578,-0.06640625,-0.3354492,-0.1958008
2634,-22.1875,15.625,-177.1875,0.9272461,0.3193359,0.1098633,-0.04833984,-0.3378906,-0.2011719
2638,8.125,11.0625,-179,0.9580078,0.4125977,0.1674805,-0.03173828,-0.3408203,-0.2026367
2642,39.8125,17.6875,-192.4375,0.9541016,0.4790039,0.2211914,-0.01855469,-0.3417969,-0.2011719
2646,46.5,21,-196.3125,0.8652344,0.6186523,0.2290039,-0.001953125,-0.3457031,-0.1972656
2650,29.0625,23.0625,-182.125,0.8032227,0.7080078,0.2094727,0.01757813,-0.3505859,-0.1928711
2654,7.75,24.75,-172.0625,0.7216797,0.7587891,0.1557617,0.03076172,-0.3481445,-0.1918945
2658,-16.1875,24.25,-169.25,0.6557617,0.7080078,0.1289063,0.04638672,-0.3481445,-0.1928711
2662,-38.625,25.9375,-168.3125,0.609375,0.5878906,0.06347656,0.06396484,-0.3442383,-0.1928711
2666,-54.0625,28.3125,-166.0625,0.4853516,0.3740234,0.005859375,0.07617188,-0.3378906,-0.1972656
2670,-49.5,22.6875,-164.1875,0.3266602,0.2148438,-0.03613281,0.09033203,-0.3330078,-0.2011719
2674,-41.6875,18.75,-154.1875,0.1987305,0.04736328,-0.06298828,0.1079102,-0.3217773,-0.2041016
2678,-39.375,16.125,-136.5625,0.06689453,-0.02197266,-0.1166992,0.1176758,-0.3193359,-0.206543
2682,-38.8125,6.8125,-115.875,-0.08007813,-0.1074219,-0.1552734,0.128418,-0.3120117,-0.2094727
2686,-32.9375,-6.9375,-93.3125,-0.215332,-0.2392578,-0.1245117,0.1367188,-0.3032227,-0.2109375
2690,-25.9375,-23.25,-70.6875,-0.2231445,-0.2900391,-0.07080078,0.1416016,-0.2993164,-0.2133789
2694,-19.3125,-31.3125,-51.25,-0.1459961,-0.2626953,0.05566406,0.1450195,-0.2944336,-0.21875
2698,-12.1875,-27.625,-38.875,-0.02978516,-0.2431641,0.1865234,0.1459961,-0.2919922,-0.2216797
2702,-4.375,-9.5,-32.5,-0.05273438,-0.2241211,0.2402344,0.1474609,-0.2895508,-0.2216797
2706,0.125,-2.375,-21.5625,-0.2426758,-0.2163086,0.1787109,0.1499023,-0.2866211,-0.2216797
2710,1.0625,-14.1875,-5.9375,-0.3164063,-0.1889648,0.1748047,0.1508789,-0.2895508,-0.2216797
2714,-1.125,-20.625,9.5,-0.1845703,-0.1928711,0.2402344,0.1484375,-0.2856445,-0.2231445
2718,-1.8125,-15.6875,21.4375,-0.09521484,-0.1577148,0.3291016,0.1474609,-0.2880859,-0.2246094
2722,0.4375,-7.875,29.875,-0.09521484,-0.1381836,0.390625,0.1450195,-0.2880859,-0.2255859
2726,3.4375,1.6875,40.5625,-0.1108398,-0.09179688,0.3442383,0.1425781,-0.2905273,-0.2246094
2730,6.6875,4,50.3125,-0.1689453,-0.09570313,0.2441406,0.1391602,-0.2919922,-0.2246094
2734,22.3125,1.375,61.4375,-0.2080078,-0.1499023,0.1982422,0.1357422,-0.296875,-0.2216797
2739,42.875,-7.75,72.875,-0.2041016,-0.1152344,0.1674805,0.1308594,-0.2993164,-0.2202148
2743,56.625,-15.3125,86.625,-0.05664063,0.0009765625,0.1982422,0.1259766,-0.3056641,-0.21875
2747,62.125,-13.75,94.875,0.1171875,0.1523438,0.2788086,0.1166992,-0.3120117,-0.2119141
2751,53.6875,-4.6875,98.875,0.2373047,0.2963867,0.3520508,0.1118164,-0.3178711,-0.2119141
2755,38.5625,8.125,107.0625,0.2724609,0.3271484,0.3364258,0.1035156,-0.3242188,-0.2055664
2759,28.4375,16.0625,121.3125,0.2412109,0.2729492,0.2675781,0.09277344,-0.3320313,-0.2041016
2763,41.1875,13,133.4375,0.1948242,0.1992188,0.1904297,0.08691406,-0.3354492,-0.2011719
2767,59.375,4.5,135.125,0.3071289,0.3081055,0.1635742,0.07470703,-0.3378906,-0.1972656
2771,63.3125,5.9375,134.5625,0.4467773,0.4516602,0.1787109,0.06152344,-0.3466797,-0.1889648
2775,49.9375,10.4375,142.0625,0.543457,0.5761719,0.1635742,0.0546875,-0.3491211,-0.1865234
2779,43.875,12.875,153.5,0.5161133,0.5913086,0.1479492,0.04150391,-0.3544922,-0.1806641
2783,49.5,13.25,165.25,0.5200195,0.6420898,0.09033203,0.02490234,-0.3569336,-0.1782227
2787,52.6875,7.6875,169.375,0.5898438,0.809082,0.02490234,0.01513672,-0.3603516,-0.1728516
2791,32.625,4.25,163.125,0.8032227,0.9838867,0.05175781,0.0009765625,-0.359375,-0.168457
2795,5.8125,12.8125,159.75,0.8652344,0.8286133,0.06738281,-0.01416016,-0.3618164,-0.1660156
2799,-0.6875,13,167.1875,0.7836914,0.6381836,0.01367188,-0.02490234,-0.3618164,-0.1660156
2803,14.875,5.125,176.1875,0.7680664,0.5839844,-0.03222656,-0.04003906,-0.3579102,-0.1660156
2807,38.75,0.375,168.5625,0.8959961,0.6655273,-0.04003906,-0.05908203,-0.3544922,-0.1630859
2811,48.125,0.9375,166.5625,0.9580078,0.7895508,-0.06298828,-0.06738281,-0.3544922,-0.1616211
2815,31.1875,-1,164.125,1.074219,0.9375,-0.09765625,-0.08398438,-0.3520508,-0.1577148
2819,7.5,-4.3125,172.625,1.121094,0.7817383,-0.1054688,-0.09960938,-0.3442383,-0.15625
2823,7,-7.75,185.25,1.089844,0.6303711,-0.1054688,-0.1103516,-0.3417969,-0.15625
2827,35.1875,-15.5,192.6875,1.13623,0.5605469,-0.1362305,-0.1259766,-0.3320313,-0.1547852
2831,77.625,-22.375,185.125,1.256348,0.6538086,-0.1630859,-0.1450195,-0.3256836,-0.1508789
2835,88.875,-22.9375,174.625,1.411621,0.921875,-0.1630859,-0.1557617,-0.3208008,-0.144043
2839,51.75,-16.375,169.125,1.566406,1.092773,-0.1054688,-0.168457,-0.3129883,-0.1357422
2843,0.5625,-8.9375,183.625,1.504395,0.8520508,-0.06298828,-0.1831055,-0.3041992,-0.1347656
2847,-29.75,-15.1875,213.375,1.39209,0.6030273,-0.05517578,-0.1938477,-0.2944336,-0.1347656
2851,-16.125,-22.3125,233.8125,1.458008,0.4711914,-0.05908203,-0.2089844,-0.2768555,-0.137207
2855,33.75,-29.1875,220.5625,1.52002,0.5292969,-0.0859375,-0.2255859,-0.2617188,-0.1347656
2859,81.3125,-30.5,184.375,1.516113,0.8208008,-0.1630859,-0.2353516,-0.2519531,-0.1289063
2863,78.625,-27.0625,145.1875,1.543457,1.034668,-0.1513672,-0.2460938,-0.2392578,-0.1210938
2868,44.625,-25.1875,138.1875,1.500488,0.8325195,-0.1474609,-0.2543945,-0.2304688,-0.1166992
2872,28.375,-32.625,162.5,1.450195,0.4868164,-0.08984375,-0.2602539,-0.2231445,-0.1113281
2876,52.8125,-35.125,187.25,1.601563,0.3857422,-0.04003906,-0.2700195,-0.2080078,-0.1088867
2880,99.25,-24.625,181.375,1.655762,0.7275391,-0.06689453,-0.2807617,-0.1958008,-0.1035156
2884,113.5,-14.4375,148,1.585938,1.13916,-0.1362305,-0.2841797,-0.1879883,-0.09765625
2888,89.25,-6.8125,115.5625,1.484863,1.314453,-0.1591797,-0.2915039,-0.1791992,-0.09228516
2892,48.4375,1,102.375,1.345703,1.166504,-0.1401367,-0.2949219,-0.171875,-0.08984375
2896,23.5,-1,116,1.252441,1.007324,-0.1591797,-0.2998047,-0.1621094,-0.09082031
2900,20.1875,-8.375,121.5,1.225586,1.034668,-0.128418,-0.3041992,-0.1542969,-0.09228516
2904,30.5625,-7.9375,107.25,1.287598,1.174316,-0.109375,-0.3125,-0.140625,-0.09082031
2908,42.0625,-3.4375,79.8125,1.322266,1.314453,-0.07080078,-0.3125,-0.1342773,-0.09228516
2912,59.5,4.3125,47.4375,1.252441,1.43457,-0.1166992,-0.3188477,-0.1269531,-0.09667969
2916,57.125,6.375,13.5625,1.213867,2.312988,-0.109375,-0.3208008,-0.1269531,-0.09765625
2920,-6.125,6.625,-2.125,1.268066,2.437012,-0.1362305,-0.3222656,-0.1279297,-0.1005859
2924,0.375,11.1875,-38.875,1.147949,1.683105,-0.2128906,-0.3208008,-0.1269531,-0.1005859
2928,24.5625,4.625,-84.0625,1.070313,1.508301,-0.2514648,-0.3188477,-0.1333008,-0.09667969
2932,26.6875,-4.5,-99.6875,1.186523,1.59375,-0.2246094,-0.3139648,-0.1396484,-0.09228516
2936,4.8125,-5,-105.9375,1.279785,1.632813,-0.2363281,-0.3081055,-0.1494141,-0.08691406
2940,-15.9375,-10.25,-109.625,1.326172,1.625,-0.2822266,-0.3007813,-0.1621094,-0.08544922
2944,-30.5,-17.0625,-122.75,1.461914,1.605469,-0.2783203,-0.3007813,-0.1704102,-0.08300781
2948,-34.625,-12.4375,-146.25,1.694336,1.601563,-0.2553711,-0.293457,-0.1821289,-0.08154297
2952,-36.75,-5.8125,-172,1.756348,1.559082,-0.2631836,-0.2866211,-0.1933594,-0.08154297
2956,-42.0625,-2.5,-191.6875,1.806641,1.512207,-0.3325195,-0.2792969,-0.2045898,-0.08300781
2960,-50.1875,-1,-205.6875,1.845703,1.411133,-0.3666992,-0.2709961,-0.2207031,-0.08544922
2964,-57.9375,-0.8125,-214.0625,1.899902,1.310547,-0.3862305,-0.2602539,-0.2358398,-0.08691406
2968,-60.875,0.25,-225.375,1.922852,1.186035,-0.4399414,-0.253418,-0.2480469,-0.09082031
2972,-60.125,-1.875,-236.4375,1.915039,1.09668,-0.4594727,-0.237793,-0.2631836,-0.09521484
2976,-64.1875,-6.75,-243.4375,1.868652,0.9995117,-0.4360352,-0.222168,-0.2817383,-0.09912109
2980,-68.5625,-13.0625,-243.1875,1.849121,0.8671875,-0.3974609,-0.2114258,-0.2919922,-0.09912109
2984,-67.9375,-17.4375,-242.9375,1.826172,0.7705078,-0.3666992,-0.1923828,-0.3066406,-0.105957
2988,-67,-21.5625,-240.1875,1.798828,0.7041016,-0.3325195,-0.1748047,-0.3232422,-0.1098633
2992,-65.6875,-26.5,-237.5,1.783691,0.6811523,-0.2436523,-0.1640625,-0.3305664,-0.1113281
2997,-70.625,-26.5,-238.4375,1.748535,0.6108398,-0.1899414,-0.1411133,-0.3432617,-0.1166992
3001,-78,-24.8125,-230.75,1.69043,0.5527344,-0.1323242,-0.1220703,-0.3505859,-0.1196289
3005,-93.5,-21.1875,-216.125,1.574219,0.5488281,-0.06689453,-0.1079102,-0.3554688,-0.125
3009,-113.5625,-17.6875,-198.8125,1.516113,0.5019531,-0.01660156,-0.09033203,-0.359375,-0.1347656
3013,-125.375,-10.5,-187.8125,1.430664,0.4633789,0.01708984,-0.06884766,-0.3618164,-0.144043
3017,-128.375,-1.9375,-184.0625,1.364746,0.3662109,0.07519531,-0.05908203,-0.3603516,-0.1508789
3021,-127.1875,7.5625,-182.625,1.252441,0.2885742,0.09814453,-0.04003906,-0.3603516,-0.1630859
3025,-128.4375,15.1875,-172.0625,1.128418,0.2495117,0.09423828,-0.02246094,-0.3569336,-0.1767578
3029,-128.125,17.625,-157.5,0.9580078,0.1601563,0.08642578,-0.01025391,-0.3530273,-0.1850586
3033,-107.9375,12.9375,-152.875,0.7797852,-0.01025391,0.05175781,0.004394531,-0.3466797,-0.1972656
3037,-64.3125,1.9375,-149.625,0.6401367,-0.1538086,0.02490234,0.01904297,-0.3417969,-0.2041016
3041,-12.3125,-3.0625,-158.375,0.6635742,-0.02197266,0.159668,0.02832031,-0.3408203,-0.2055664
3045,16.9375,13.5,-177.0625,0.59375,0.2148438,0.1943359,0.04248047,-0.3378906,-0.206543
3049,13.625,23.6875,-174.3125,0.4272461,0.284668,0.1826172,0.05957031,-0.3354492,-0.2041016
3053,-3,24.1875,-154.75,0.3305664,0.2807617,0.1635742,0.07226563,-0.3344727,-0.2041016
3057,-17.375,25.4375,-135.75,0.2875977,0.2109375,0.1674805,0.08544922,-0.3320313,-0.2026367
3061,-21.25,28.9375,-120.1875,0.1870117,0.1367188,0.1289063,0.09863281,-0.3256836,-0.206543
3065,-22.3125,30.5,-107.1875,0.04345703,0.09423828,0.09423828,0.109375,-0.3208008,-0.2080078
3069,-19.3125,27.5,-99.8125,-0.08007813,0.008789063,0.05566406,0.1186523,-0.3168945,-0.2055664
3073,-17.25,24.6875,-90.125,-0.1533203,-0.09960938,0.04443359,0.128418,-0.3120117,-0.2094727
3077,-13.3125,19.875,-67,-0.2192383,-0.3056641,0.05957031,0.1333008,-0.3105469,-0.2094727
3081,-5.1875,14.375,-35.1875,-0.3125,-0.4101563,0.04443359,0.1401367,-0.3056641,-0.2094727
3085,8.5,7.0625,-6.125,-0.3432617,-0.4492188,0.001953125,0.1416016,-0.3041992,-0.2094727
3089,27,-3.625,15.375,-0.4013672,-0.402832,-0.02050781,0.1425781,-0.3041992,-0.2080078
3093,38.6875,-14.375,33.875,-0.3393555,-0.2978516,0.009765625,0.1391602,-0.3081055,-0.206543
3097,43.0625,-19.6875,45.3125,-0.246582,-0.1811523,0.04443359,0.1357422,-0.3105469,-0.2026367
3101,45.9375,-24.5,47,-0.1533203,-0.1074219,0.09033203,0.1318359,-0.3144531,-0.2026367
3105,48.4375,-18.4375,43.875,-0.05664063,-0.05664063,0.1826172,0.1269531,-0.3178711,-0.1987305
3109,42.875,-6.6875,46.0625,-0.03710938,-0.006347656,0.2094727,0.1225586,-0.3217773,-0.1972656
3113,28.9375,1.5625,58.125,-0.04101563,-0.02197266,0.1713867,0.1201172,-0.3256836,-0.1918945
3117,22.6875,5.5,72.8125,-0.03710938,-0.1074219,0.1210938,0.1152344,-0.3291016,-0.1918945
3121,30.375,2.125,87.625,-0.01416016,-0.1733398,0.06347656,0.1079102,-0.3344727,-0.1875
3126,44.375,-3.875,101.625,0.004882813,-0.1308594,0.02880859,0.1010742,-0.3378906,-0.1850586
3130,58.1875,-9.8125,114.9375,0.08251953,-0.06835938,0.04443359,0.09277344,-0.3442383,-0.1821289
3134,71,-7.8125,120.9375,0.2954102,0.03222656,0.09033203,0.08203125,-0.3481445,-0.175293
3138,80,3.5625,120.3125,0.3925781,0.1293945,0.08251953,0.07226563,-0.3544922,-0.1713867
3142,84.3125,9.9375,125.125,0.3886719,0.1601563,0.005859375,0.06054688,-0.3618164,-0.1630859
3146,79.75,7.625,136.9375,0.4155273,0.2573242,-0.01660156,0.04882813,-0.3681641,-0.1538086
3150,62.4375,2.3125,151.4375,0.5629883,0.3193359,0.005859375,0.0390625,-0.3691406,-0.1494141
3154,37.875,7.875,166.25,0.7451172,0.2924805,0.04785156,0.0234375,-0.3745117,-0.1455078
3158,12.4375,13.5625,188.4375,0.8652344,0.2885742,0.05566406,0.005859375,-0.3745117,-0.1416016
3162,0.3125,20.4375,208.5625,0.9116211,0.2226563,0.02490234,-0.005859375,-0.3730469,-0.1401367
3166,15.375,18.625,217,0.9350586,0.1914063,-0.05908203,-0.02490234,-0.371582,-0.1386719
3170,43.8125,13.3125,214.75,1.121094,0.300293,-0.1245117,-0.04736328,-0.3681641,-0.137207
3174,77.625,11,202.4375,1.237305,0.3857422,-0.1743164,-0.06054688,-0.3666992,-0.1333008
3178,105.9375,16.9375,188.375,1.302734,0.5410156,-0.2016602,-0.07958984,-0.3632813,-0.125
3182,110.1875,20.875,187.1875,1.287598,0.6811523,-0.2631836,-0.09716797,-0.359375,-0.1166992
3186,85.25,17.5625,204.8125,1.376465,0.8286133,-0.3208008,-0.1103516,-0.3603516,-0.1113281
3190,46.25,12.75,233,1.469727,0.8867188,-0.2900391,-0.1303711,-0.3505859,-0.105957
3194,21.9375,9.8125,252.9375,1.508301,0.9604492,-0.2900391,-0.1508789,-0.3408203,-0.1020508
3198,15.625,4.5625,246.5,1.558594,1.022949,-0.2744141,-0.1650391,-0.3305664,-0.1020508
3202,20.5,0.875,224.625,1.597656,1.092773,-0.2744141,-0.1865234,-0.3168945,-0.1044922
3206,10.9375,-2.9375,200.3125,1.554688,1.166504,-0.2514648,-0.203125,-0.3017578,-0.09912109
3210,-14.8125,-6.9375,190.875,1.608887,0.9799805,-0.1977539,-0.2104492,-0.2929688,-0.1005859
3214,-31.25,-16,203.375,1.539551,0.6733398,-0.1630859,-0.2255859,-0.2792969,-0.1005859
3218,-14.6875,-29.4375,227.25,1.63623,0.3505859,-0.01660156,-0.2412109,-0.2607422,-0.1020508
3222,52.1875,-28.9375,230.75,1.853027,0.4052734,-0.04003906,-0.2495117,-0.2456055,-0.1020508
3226,120.1875,-23.3125,192,1.911133,0.9838867,-0.08203125,-0.2626953,-0.2304688,-0.09521484
3230,137.0625,-8.1875,130.5625,1.830078,1.341309,-0.1166992,-0.2724609,-0.2192383,-0.08544922
3234,118.4375,5.0625,100.3125,1.616699,1.255859,-0.1821289,-0.2758789,-0.2128906,-0.08154297
3238,74.4375,8.0625,108.5625,1.492676,1.077148,-0.1977539,-0.2807617,-0.2055664,-0.07324219
3242,30.5625,8.875,138.5625,1.415527,0.8364258,-0.2436523,-0.2841797,-0.1958008,-0.07470703
3246,27.1875,6.0625,163.875,1.368652,0.6694336,-0.34375,-0.2900391,-0.1879883,-0.07324219
3250,52.0625,-2.875,156.75,1.310547,0.8325195,-0.4321289,-0.2973633,-0.1733398,-0.07177734
3255,80.3125,-7.1875,121.1875,1.306641,1.084961,-0.4785156,-0.3041992,-0.1591797,-0.07080078
3259,101.4375,-13.625,81.6875,1.244629,1.213379,-0.5131836,-0.3066406,-0.1533203,-0.06933594
3263,112.5625,-23.75,58.3125,1.26416,1.368652,-0.5014648,-0.3139648,-0.1479492,-0.06933594
3267,111.5,-28.4375,48.125,1.341797,1.586426,-0.4516602,-0.3188477,-0.1430664,-0.06542969
3271,93.3125,-20.3125,39.8125,1.407715,1.990234,-0.4208984,-0.3222656,-0.1430664,-0.06396484
3275,53.6875,-6.25,20.5625,1.411621,2.309082,-0.4707031,-0.3256836,-0.140625,-0.05957031
3279,12.375,3.4375,-12.5625,1.26416,2.40625,-0.5629883,-0.3271484,-0.140625,-0.05859375
3283,-27.0625,0.125,-51.5,1.248535,2.347656,-0.5825195,-0.324707,-0.140625,-0.05859375
3287,-71.5625,0.3125,-79.25,1.341797,2.103027,-0.5439453,-0.3188477,-0.1469727,-0.05712891
3291,-110.125,3.4375,-90.9375,1.438477,1.799805,-0.5170898,-0.3115234,-0.1557617,-0.05712891
3295,-135.5625,7,-97.875,1.496582,1.555176,-0.5400391,-0.309082,-0.1606445,-0.05957031
3299,-147,7,-106.5625,1.550781,1.426758,-0.5322266,-0.3017578,-0.1669922,-0.0625
3303,-148.5625,6.875,-123.6875,1.632324,1.376465,-0.4863281,-0.2973633,-0.1782227,-0.06640625
3307,-146.625,13.125,-148,1.736816,1.314453,-0.4516602,-0.2924805,-0.1845703,-0.07080078
3311,-142.25,21.5,-169.6875,1.717773,1.174316,-0.4594727,-0.2866211,-0.1943359,-0.07861328
3315,-121.75,21,-180.75,1.63623,0.953125,-0.5400391,-0.2783203,-0.2070313,-0.08691406
3319,-73.0625,10.3125,-188.9375,1.620605,0.7973633,-0.5551758,-0.2724609,-0.2167969,-0.09228516
3323,-9.8125,-8.625,-210.375,1.647949,0.8710938,-0.5786133,-0.2636719,-0.2329102,-0.09521484
3327,40.25,-26.6875,-236.4375,1.783691,1.081055,-0.5170898,-0.2495117,-0.2519531,-0.09228516
3331,64.125,-37.5625,-261.6875,1.880371,1.228516,-0.5053711,-0.2426758,-0.2670898,-0.08837891
3335,58.6875,-50.5,-273.5,1.911133,1.294922,-0.4746094,-0.2246094,-0.2856445,-0.08154297
3339,25.25,-61.375,-266.75,1.969238,1.345215,-0.3901367,-0.206543,-0.3095703,-0.07470703
3343,-30.8125,-64.8125,-244.75,2.027832,1.310547,-0.2900391,-0.1938477,-0.3217773,-0.07080078
3347,-84.5625,-57.625,-222.875,2.004395,1.182129,-0.2436523,-0.1748047,-0.3354492,-0.07080078
3351,-122.5625,-50.5625,-217.25,1.961914,1.045898,-0.2514648,-0.1567383,-0.3466797,-0.07861328
3355,-137.375,-41.9375,-220.1875,1.958008,0.777832,-0.2089844,-0.1425781,-0.3505859,-0.08300781
3359,-138.375,-30.6875,-229.125,1.918945,0.6342773,-0.1552734,-0.1210938,-0.3618164,-0.09082031
3363,-146.0625,-17.8125,-231.875,1.837891,0.5019531,-0.09375,-0.09863281,-0.3666992,-0.105957
3367,-157.875,-3.875,-220.3125,1.682617,0.3662109,-0.07861328,-0.08300781,-0.3691406,-0.1157227
3371,-170.25,5.4375,-202.3125,1.531738,0.2265625,-0.05126953,-0.06152344,-0.3706055,-0.1289063
3375,-176.4375,17.0625,-185.1875,1.415527,0.1098633,-0.02050781,-0.04248047,-0.3666992,-0.1455078
3379,-177.6875,27.4375,-172.9375,1.260254,0.004882813,-0.02441406,-0.02929688,-0.3666992,-0.1591797
3384,-168.5625,33.9375,-163.9375,1.082031,-0.1655273,-0.03222656,-0.01171875,-0.3569336,-0.1738281
3388,-145.4375,36.5,-152.5625,0.8769531,-0.3173828,-0.02441406,0.004394531,-0.3491211,-0.1928711
3392,-117,38.9375,-142.1875,0.7255859,-0.3754883,0.01367188,0.01513672,-0.3466797,-0.1987305
3396,-92.4375,43.0625,-132.625,0.578125,-0.3173828,-0.01660156,0.03320313,-0.3378906,-0.2094727
3400,-79.1875,46.125,-129.125,0.3886719,-0.2822266,-0.05908203,0.04638672,-0.3320313,-0.2163086
3404,-72.5,42.6875,-123.75,0.2451172,-0.2939453,-0.08203125,0.05566406,-0.328125,-0.2216797
3408,-60.0625,35.125,-107.8125,0.08642578,-0.4609375,-0.0859375,0.06982422,-0.3208008,-0.2246094
3412,-42.8125,27.6875,-88.4375,-0.05664063,-0.5229492,-0.07080078,0.08056641,-0.3144531,-0.2299805
3416,-23.375,16.3125,-66.0625,-0.1533203,-0.5073242,-0.05517578,0.08544922,-0.3120117,-0.230957
3420,-5.625,6.6875,-47.5,-0.1845703,-0.4375,-0.04394531,0.09277344,-0.3095703,-0.2324219
3424,9.4375,0.375,-34.5,-0.2041016,-0.3364258,0.01367188,0.09619141,-0.3066406,-0.2338867
3428,17.6875,-3.9375,-25.6875,-0.2001953,-0.2084961,0.03662109,0.09765625,-0.3081055,-0.230957
3432,23.875,-6.375,-20.0625,-0.1884766,-0.09960938,0.09814453,0.09863281,-0.3081055,-0.2299805
3436,26.25,-4.4375,-17.5625,-0.1845703,-0.02587891,0.1289063,0.1010742,-0.3095703,-0.2255859
3440,22.8125,-1.375,-8.375,-0.1420898,0.04394531,0.1865234,0.09863281,-0.3095703,-0.2285156
3444,16.1875,6,3.375,-0.1381836,0.08251953,0.1635742,0.1020508,-0.3105469,-0.2246094
3448,10.4375,5.5625,16.375,-0.1572266,0.07861328,0.1132813,0.1020508,-0.3120117,-0.2231445
3452,9.25,4.1875,25.25,-0.1845703,0.04003906,0.06738281,0.09960938,-0.3105469,-0.2231445
3456,14.125,-3.1875,35.8125,-0.2387695,-0.02978516,0.04785156,0.09765625,-0.3144531,-0.2216797
3460,22.8125,-10.1875,49.9375,-0.1962891,-0.05273438,0.04052734,0.09375,-0.3144531,-0.2231445
3464,38.75,-14.625,62,-0.1342773,-0.05664063,0.06347656,0.09130859,-0.3178711,-0.21875
3468,49.3125,-14.625,68,-0.02197266,0.04736328,0.05566406,0.08447266,-0.3242188,-0.2177734
3472,55.5,-12.6875,70.375,0.05517578,0.07080078,0.06347656,0.07714844,-0.3305664,-0.2119141
3476,60.25,-13.6875,78.875,0.07470703,0.07470703,0.03662109,0.07373047,-0.3320313,-0.2094727
3480,62.75,-21.4375,92.5625,0.1484375,0.08251953,0.04785156,0.06396484,-0.3393555,-0.2041016
3484,61.6875,-20.9375,109.0625,0.2875977,0.1137695,0.1210938,0.05322266,-0.3442383,-0.1987305
3488,50.5625,-9.6875,122.4375,0.4077148,0.2109375,0.1328125,0.04638672,-0.3457031,-0.1972656
3492,43.0625,0.5,135.125,0.4619141,0.1875,0.05175781,0.03173828,-0.3491211,-0.1904297
3496,53.75,3.375,138.0625,0.4350586,0.1679688,-0.05517578,0.02148438,-0.3530273,-0.1850586
3500,74.375,-6.125,142.8125,0.4467773,0.1914063,-0.1323242,0.01074219,-0.3554688,-0.1806641
3504,85,-15,145.25,0.6289063,0.3271484,-0.1401367,-0.003417969,-0.359375,-0.1738281
3508,75.0625,-15.8125,153.375,0.7954102,0.4052734,-0.112793,-0.01757813,-0.3618164,-0.1645508
3513,58.3125,-8.875,170.25,0.8652344,0.3896484,-0.04736328,-0.02832031,-0.3618164,-0.1606445
3517,42.625,-7.6875,189.1875,0.8842773,0.4790039,-0.07861328,-0.04589844,-0.3603516,-0.15625
3521,19.125,-10.8125,203.4375,1.066406,0.6186523,-0.06298828,-0.06640625,-0.359375,-0.1523438
3525,2.5625,-11.5,219,1.175293,0.6303711,-0.08984375,-0.07958984,-0.3569336,-0.1538086
3529,6.5625,-13.4375,220.375,1.186523,0.6264648,-0.09765625,-0.1010742,-0.3505859,-0.1508789
3533,13.4375,-16,205.0625,1.306641,0.7080078,-0.05908203,-0.1201172,-0.3408203,-0.1494141
3537,18.25,-10.4375,188.25,1.368652,0.6030273,-0.04003906,-0.1318359,-0.3354492,-0.1494141
3541,34.3125,-9.875,186,1.322266,0.4750977,-0.1054688,-0.1484375,-0.3242188,-0.1484375
3545,58.625,-18.8125,192.25,1.384277,0.4360352,-0.109375,-0.1650391,-0.3154297,-0.144043
3549,81.8125,-20.375,194.75,1.527832,0.5800781,-0.1166992,-0.1772461,-0.3066406,-0.1386719
3553,86.6875,-15.4375,194.3125,1.620605,0.7431641,-0.1435547,-0.1938477,-0.3007813,-0.1333008
3557,78.375,-8.8125,187.0625,1.686523,0.855957,-0.1708984,-0.206543,-0.2880859,-0.125
3561,74.9375,-7,181.4375,1.632324,0.8286133,-0.2089844,-0.2172852,-0.2807617,-0.1210938
3565,82.5,-10.0625,176,1.601563,0.809082,-0.2744141,-0.2304688,-0.2695313,-0.1157227
3569,87,-17,174.5,1.632324,0.8168945,-0.2861328,-0.2412109,-0.2583008,-0.1098633
3573,86.3125,-20.3125,171.625,1.670898,0.8208008,-0.2553711,-0.2485352,-0.2495117,-0.1005859
3577,76.3125,-18.0625,169,1.73291,0.7666016,-0.2167969,-0.2568359,-0.2382813,-0.09912109
3581,71.25,-9.125,174.5625,1.756348,0.7119141,-0.1860352,-0.2675781,-0.2246094,-0.08984375
3585,74.125,-6.0625,172.6875,1.655762,0.875,-0.2363281,-0.2734375,-0.2167969,-0.08984375
3589,65.125,-6.6875,159.625,1.632324,1.092773,-0.2246094,-0.2817383,-0.2016602,-0.08544922
3593,44.375,-3.9375,145.3125,1.523926,1.131836,-0.2128906,-0.2890625,-0.1894531,-0.08300781
3597,16.25,-3.125,135.9375,1.481445,1.022949,-0.1782227,-0.2924805,-0.1831055,-0.07861328
3601,2.625,-1.75,137.0625,1.48877,0.7739258,-0.1323242,-0.2983398,-0.1669922,-0.08154297
3605,19,-0.625,141.8125,1.458008,0.7856445,-0.112793,-0.3032227,-0.1582031,-0.08007813
3609,45,-1.0625,124.25,1.42334,0.9604492,-0.109375,-0.3066406,-0.1494141,-0.08154297
3613,68.125,5,90.625,1.380371,1.146973,-0.08203125,-0.3105469,-0.1367188,-0.08007813
3617,83.8125,10.25,57.9375,1.299316,1.259766,-0.1362305,-0.3149414,-0.1318359,-0.08007813
3621,97.8125,10.0625,41.5625,1.237305,1.251953,-0.1743164,-0.3164063,-0.1308594,-0.08154297
3625,118.75,9.125,33.4375,1.241211,1.426758,-0.2285156,-0.3173828,-0.1269531,-0.08154297
3629,126.1875,9.875,18.8125,1.241211,1.896973,-0.2900391,-0.3188477,-0.1279297,-0.08300781
3633,91.9375,15.1875,-10.125,1.306641,2.506836,-0.2939453,-0.3198242,-0.1293945,-0.08007813
3637,41.1875,13.875,-58.0625,1.085938,2.339844,-0.4824219,-0.3188477,-0.1333008,-0.08154297
3642,-7.25,2,-90,1.140137,2.130371,-0.4399414,-0.3164063,-0.140625,-0.08007813
3646,-65.875,-4.9375,-89.5625,1.306641,1.869629,-0.3706055,-0.3139648,-0.1455078,-0.07617188
3650,-111.625,-2.25,-84.3125,1.450195,1.609375,-0.3012695,-0.309082,-0.1518555,-0.07763672
3654,-132.25,1.375,-86.625,1.52002,1.430664,-0.2822266,-0.3032227,-0.1591797,-0.07861328
3658,-122.625,5.4375,-108,1.624512,1.294922,-0.2744141,-0.3032227,-0.1630859,-0.08154297
3662,-96.75,7.375,-140.9375,1.678711,1.259766,-0.2592773,-0.2958984,-0.171875,-0.08544922
3666,-72.8125,9.4375,-174.25,1.748535,1.263672,-0.2475586,-0.2890625,-0.1855469,-0.08837891
3670,-59.6875,13.25,-193.125,1.783691,1.228516,-0.2822266,-0.2851563,-0.1933594,-0.09228516
3674,-51.75,13.4375,-205.1875,1.760254,1.244141,-0.34375,-0.2744141,-0.2094727,-0.09521484
3678,-51.0625,7.5,-214.25,1.752441,1.225098,-0.4282227,-0.2636719,-0.2255859,-0.09912109
3682,-49.9375,-0.6875,-224.0625,1.822266,1.166504,-0.4438477,-0.2568359,-0.2368164,-0.1005859
3686,-44.5,-6.75,-240.25,1.830078,1.084961,-0.4628906,-0.2446289,-0.2558594,-0.105957
3690,-38.4375,-17.9375,-255.75,1.826172,1.038574,-0.4785156,-0.2294922,-0.2719727,-0.105957
3694,-38,-24.8125,-265.375,1.903809,0.9916992,-0.4321289,-0.2172852,-0.2841797,-0.105957
3698,-43.3125,-25,-269.75,1.876465,0.9682617,-0.4130859,-0.199707,-0.3032227,-0.1098633
3702,-52.25,-27.875,-266.5625,1.810547,0.9257813,-0.4052734,-0.1772461,-0.3193359,-0.1098633
3706,-60.6875,-37.75,-259.1875,1.771973,0.9257813,-0.359375,-0.1650391,-0.3291016,-0.1098633
3710,-72.4375,-43.375,-254.625,1.802734,0.9335938,-0.2939453,-0.1435547,-0.3417969,-0.1157227
3714,-93.625,-44.125,-248.5,1.833984,0.9453125,-0.2324219,-0.1201172,-0.3530273,-0.1196289
3718,-127.9375,-38,-240.5,1.798828,0.90625,-0.1899414,-0.1054688,-0.3579102,-0.125
3722,-163.8125,-29.875,-231.25,1.729004,0.7236328,-0.1782227,-0.08398438,-0.3603516,-0.1357422
3726,-180.1875,-18.5,-218.125,1.663574,0.3896484,-0.1362305,-0.06396484,-0.3618164,-0.1508789
3730,-171.125,-7.0625,-203.875,1.481445,0.1137695,-0.07470703,-0.05078125,-0.3579102,-0.1630859
3734,-143.3125,0.6875,-189.3125,1.248535,-0.09570313,-0.01318359,-0.03173828,-0.3530273,-0.1782227
3738,-113.5625,4.4375,-180.375,1.074219,-0.08398438,0.01367188,-0.01416016,-0.3505859,-0.1904297
3742,-99.3125,2.375,-167.0625,0.9423828,-0.08007813,0.009765625,-0.001953125,-0.3466797,-0.1987305
3746,-94.5625,1.0625,-144.125,0.8457031,-0.1538086,0.03271484,0.01269531,-0.3417969,-0.206543
3750,-88.8125,3.8125,-119.75,0.6557617,-0.2124023,0.03662109,0.02587891,-0.3344727,-0.2133789
3754,-77.3125,6.3125,-102.6875,0.5161133,-0.2392578,0.01367188,0.03320313,-0.3305664,-0.2202148
3758,-58.5625,9.375,-90.9375,0.3769531,-0.2783203,0.03271484,0.04150391,-0.3242188,-0.2255859
3762,-36.875,12.8125,-80.8125,0.2646484,-0.2548828,0.02490234,0.05078125,-0.3193359,-0.2324219
3766,-19.625,8.4375,-71.8125,0.1328125,-0.1772461,0.005859375,0.05566406,-0.3178711,-0.2270508
3771,-8.8125,1.375,-67.75,0.1289063,-0.02197266,0.05566406,0.06298828,-0.3168945,-0.2324219
3775,-6,4.4375,-70.875,0.1445313,0.121582,0.125,0.06787109,-0.3144531,-0.2324219
3779,-11.4375,10,-70.625,0.05126953,0.1679688,0.1557617,0.07226563,-0.3129883,-0.2353516
3783,-22.125,11.5625,-61.5,0.008789063,0.1914063,0.1826172,0.07958984,-0.3120117,-0.2353516
3787,-30.8125,13.6875,-51.5,-0.03710938,0.1640625,0.2250977,0.08544922,-0.3081055,-0.237793
3791,-31.8125,15.1875,-43.75,-0.06835938,0.1020508,0.2441406,0.08886719,-0.3032227,-0.2392578
3795,-25.1875,15.6875,-38.875,-0.09912109,0.06298828,0.2480469,0.09277344,-0.3017578,-0.2407227
3799,-15.625,21.6875,-34.1875,-0.08398438,0.004882813,0.2636719,0.09619141,-0.296875,-0.2407227
3803,-6.5625,27.0625,-26.75,-0.1845703,0.03222656,0.2133789,0.09765625,-0.296875,-0.2436523
3807,-4.75,26.625,-20.75,-0.2543945,0.02050781,0.1826172,0.1020508,-0.2944336,-0.2436523
3811,-2.375,21.9375,-8.625,-0.2734375,-0.03759766,0.125,0.105957,-0.2929688,-0.2436523
3815,6.1875,10.75,5.625,-0.3164063,-0.09179688,0.105957,0.105957,-0.2929688,-0.2421875
3819,19.6875,0.6875,19.375,-0.2851563,-0.1538086,0.09814453,0.1069336,-0.2954102,-0.237793
3823,36.125,-4.25,32.25,-0.2348633,-0.1459961,0.1098633,0.1035156,-0.296875,-0.2392578
3827,52.6875,-8.8125,41.375,-0.2001953,-0.08007813,0.09423828,0.1035156,-0.3017578,-0.2353516
3831,65.1875,-11.875,47.375,-0.1303711,0.0009765625,0.125,0.09863281,-0.3066406,-0.230957
3835,66.5,-10.4375,58.25,-0.05273438,0.09033203,0.1289063,0.09375,-0.3120117,-0.2270508
3839,60.75,-10.5625,70.625,-0.06054688,0.140625,0.07910156,0.09033203,-0.3178711,-0.2246094
3843,56.4375,-16.6875,85.125,0.0009765625,0.1137695,0.06347656,0.08056641,-0.3232422,-0.2177734
3847,57.1875,-20.4375,98.5625,0.1328125,0.1254883,0.08251953,0.07470703,-0.3291016,-0.2148438
3851,55.75,-19.125,108.3125,0.2177734,0.1757813,0.08251953,0.06787109,-0.3330078,-0.2094727
3855,51.1875,-17.75,115.375,0.3227539,0.1796875,0.105957,0.05810547,-0.3393555,-0.206543
3859,60.375,-11.6875,116.3125,0.3417969,0.1367188,0.1171875,0.04492188,-0.3432617,-0.2026367
3863,78.75,-9.125,116.625,0.3613281,0.1523438,0.09033203,0.0390625,-0.3466797,-0.1987305
3867,87.75,-8.1875,124.25,0.4619141,0.269043,0.05957031,0.02490234,-0.3491211,-0.1904297
3871,77.6875,-7.0625,139.125,0.5820313,0.4052734,-0.005371094,0.01269531,-0.3579102,-0.1806641
3875,56.5,-8.8125,159,0.6791992,0.4399414,-0.03222656,0.0009765625,-0.3579102,-0.175293
3879,49.3125,-8.125,171.8125,0.8032227,0.4052734,-0.01318359,-0.01416016,-0.359375,-0.1713867
3883,63.9375,-5.75,169.75,0.8535156,0.4243164,-0.02832031,-0.02929688,-0.359375,-0.1674805
3887,81.375,-5.4375,162.9375,0.9194336,0.4985352,-0.02050781,-0.04150391,-0.3603516,-0.1616211
3891,90.375,1.625,162.1875,1.027832,0.5800781,-0.02441406,-0.05810547,-0.3603516,-0.1538086
3895,88,7.9375,165.9375,1.043457,0.6381836,-0.1015625,-0.07470703,-0.3603516,-0.144043
3900,85.6875,12.0625,171.4375,1.105469,0.6923828,-0.1323242,-0.08642578,-0.3579102,-0.1386719
3904,80.6875,12.75,176.5,1.089844,0.793457,-0.2128906,-0.1010742,-0.3554688,-0.1318359
3908,64.5,6.6875,182.3125,1.159668,0.8598633,-0.2324219,-0.1162109,-0.3530273,-0.1279297
3912,52.1875,3.1875,191,1.182617,0.7705078,-0.2128906,-0.1293945,-0.3466797,-0.125
3916,50.125,-1.125,193.375,1.275879,0.6923828,-0.2089844,-0.1474609,-0.3378906,-0.1196289
3920,62.75,-1.8125,192.3125,1.42334,0.6459961,-0.1860352,-0.1650391,-0.3305664,-0.1142578
3924,74.4375,0.5,194.5,1.508301,0.793457,-0.2167969,-0.1748047,-0.3232422,-0.1113281
3928,66,3.1875,190.1875,1.539551,0.9799805,-0.2631836,-0.1923828,-0.3120117,-0.1074219
3932,35.9375,3.375,187.5625,1.484863,1.057617,-0.2631836,-0.206543,-0.3007813,-0.1035156
3936,12.875,0.9375,185.0625,1.473633,0.793457,-0.2397461,-0.215332,-0.2929688,-0.1005859
3940,8.1875,-4.9375,190.875,1.484863,0.6030273,-0.2822266,-0.2280273,-0.2783203,-0.09912109
3944,27.6875,-12.4375,196.125,1.616699,0.4672852,-0.2514648,-0.2402344,-0.2617188,-0.09912109
3948,60.25,-12.5625,195.75,1.666992,0.6962891,-0.3012695,-0.2470703,-0.2519531,-0.09667969
3952,68.5625,-13.4375,184.375,1.651855,0.9956055,-0.2939453,-0.2592773,-0.2368164,-0.09082031
3956,41.875,-7.3125,160.75,1.59375,1.248047,-0.2592773,-0.2700195,-0.2231445,-0.08691406
3960,-5.625,-5.0625,150.0625,1.481445,1.053711,-0.2436523,-0.2758789,-0.2167969,-0.08544922
3964,-35.25,-9.5,158.9375,1.473633,0.7314453,-0.2475586,-0.2817383,-0.203125,-0.08544922
3968,-26.25,-19,173.5625,1.39209,0.4829102,-0.2592773,-0.2915039,-0.1870117,-0.08691406
3972,16.1875,-31.125,169.0625,1.376465,0.4633789,-0.2514648,-0.2958984,-0.1757813,-0.08447266
3976,60.8125,-38.8125,148.4375,1.407715,0.5991211,-0.2207031,-0.3007813,-0.1621094,-0.08154297
3980,91.0625,-38.125,126.875,1.516113,0.7470703,-0.1362305,-0.3066406,-0.1494141,-0.07470703
3984,109.4375,-30.125,112.5625,1.550781,0.9101563,-0.08984375,-0.3115234,-0.1420898,-0.07177734
3988,111.6875,-19.0625,102,1.5625,1.158691,-0.08203125,-0.3149414,-0.1342773,-0.06640625
3992,105.5,-5.25,88,1.52002,1.302734,-0.07080078,-0.3198242,-0.1279297,-0.06396484
3996,104.875,9.25,77.8125,1.527832,1.458008,-0.08203125,-0.3232422,-0.1245117,-0.06542969
4000,100,21.75,51.625,1.419434,2.106934,-0.2207031,-0.328125,-0.1181641,-0.06542969
4004,37.0625,22.875,-21,1.368652,3.171387,-0.2978516,-0.3295898,-0.1166992,-0.06787109
4008,39.5,25.625,-33.875,1.333984,1.807617,-0.3129883,-0.3295898,-0.1206055,-0.06787109
4012,36.8125,25.25,-47.8125,1.151855,1.76123,-0.3745117,-0.3256836,-0.1230469,-0.07177734
4016,1.25,5.625,-67.5,1.182617,1.955078,-0.3359375,-0.3222656,-0.1279297,-0.06933594
4020,-38.5625,5.625,-88.75,1.496582,1.904785,-0.2744141,-0.3208008,-0.1318359,-0.06933594
4024,-77.5,15.5625,-103.5625,1.558594,1.791992,-0.2861328,-0.3139648,-0.1396484,-0.07080078
4029,-107.0625,19.3125,-115.375,1.63623,1.601563,-0.3129883,-0.3081055,-0.1508789,-0.07177734
4033,-116.0625,23.25,-134.0625,1.702148,1.411133,-0.2978516,-0.3081055,-0.1557617,-0.07324219
4037,-105.1875,26.5625,-154.4375,1.794922,1.17041,-0.2861328,-0.2998047,-0.1669922,-0.08007813
4041,-82.4375,32,-174.125,1.864746,1.092773,-0.2900391,-0.293457,-0.1806641,-0.08447266
4045,-69.6875,33.875,-192,1.849121,1.17041,-0.3129883,-0.2875977,-0.1904297,-0.08984375
4049,-72,32.625,-208.25,1.903809,1.182129,-0.34375,-0.2768555,-0.2045898,-0.09521484
4053,-75.4375,34.4375,-222.25,1.930664,1.131836,-0.3745117,-0.2661133,-0.2231445,-0.1035156
4057,-82.3125,32.0625,-233.5625,1.930664,1.069336,-0.3974609,-0.2578125,-0.2329102,-0.105957
4061,-89.4375,29.875,-240.5625,1.961914,0.9101563,-0.4052734,-0.2426758,-0.2519531,-0.1142578
4065,-89.25,25.1875,-244.0625,1.911133,0.7973633,-0.3862305,-0.2280273,-0.2670898,-0.1225586
4069,-89.3125,20.3125,-247.3125,1.841797,0.6962891,-0.3862305,-0.2163086,-0.2783203,-0.1264648
4073,-87.1875,14.125,-251.625,1.814453,0.7353516,-0.378418,-0.199707,-0.2905273,-0.1357422
4077,-94.6875,10.625,-257.8125,1.736816,0.8710938,-0.3706055,-0.1772461,-0.3066406,-0.1425781
4081,-115.625,1.0625,-264.6875,1.640137,0.9492188,-0.3823242,-0.1650391,-0.3129883,-0.1484375
4085,-136.75,-4.5625,-269.625,1.678711,0.8710938,-0.3325195,-0.1425781,-0.3242188,-0.1591797
4089,-148.9375,-7.9375,-264.9375,1.694336,0.6499023,-0.2744141,-0.1201172,-0.3320313,-0.1713867
4093,-146.125,-9.5,-248.1875,1.674805,0.4282227,-0.1821289,-0.1044922,-0.3330078,-0.1782227
4097,-140.875,-6.5625,-238.3125,1.620605,0.3349609,-0.07470703,-0.08300781,-0.3330078,-0.1904297
4101,-138.9375,0.9375,-220.875,1.546875,0.203125,0.005859375,-0.06152344,-0.3344727,-0.199707
4105,-126.625,9.1875,-200.5625,1.333984,0.06689453,0.04785156,-0.04833984,-0.3305664,-0.2094727
4109,-98.625,12.4375,-186.625,1.144043,0.0009765625,0.07910156,-0.03320313,-0.328125,-0.2202148
4113,-66.1875,9.625,-178.8125,0.9580078,0.008789063,0.105957,-0.01269531,-0.3256836,-0.2299805
4117,-37.8125,9,-166.5,0.8613281,0.02050781,0.1328125,-0.005859375,-0.3232422,-0.2324219
4121,-25.9375,6.4375,-147.5625,0.8149414,0.1333008,0.1674805,0.009277344,-0.3208008,-0.2368164
4125,-30.6875,9,-130.9375,0.8032227,0.1835938,0.2021484,0.02246094,-0.3193359,-0.2353516
4129,-38.375,23,-124.5625,0.7954102,0.2226563,0.2675781,0.03076172,-0.3154297,-0.237793
4133,-36.9375,46.625,-127.625,0.6948242,0.15625,0.2788086,0.04394531,-0.3105469,-0.2421875
4137,-33.875,64.4375,-131.5,0.6015625,0.15625,0.2402344,0.05810547,-0.3105469,-0.2446289
4141,-38.375,74.75,-133.375,0.4311523,0.1367188,0.1826172,0.06884766,-0.3056641,-0.2446289
4145,-41.375,79.8125,-132.1875,0.2758789,0.05908203,0.1132813,0.08447266,-0.2954102,-0.2475586
4149,-38.25,78.9375,-134,0.1484375,-0.01416016,0.08251953,0.09863281,-0.2919922,-0.2460938
4153,-33.9375,79.8125,-136.375,0.04736328,-0.1035156,0.05566406,0.1103516,-0.2841797,-0.2460938
4158,-28.6875,79.375,-122.1875,-0.1108398,-0.3286133,0.03662109,0.1259766,-0.2783203,-0.25
4162,-23,65.0625,-86.5625,-0.2929688,-0.5112305,0.01708984,0.1391602,-0.2719727,-0.2460938
4166,-10,45.0625,-44.875,-0.362793,-0.5268555,-0.02441406,0.1450195,-0.2670898,-0.2446289
4170,5.1875,29.375,-19.625,-0.4013672,-0.4414063,-0.01318359,0.1499023,-0.265625,-0.2446289
4174,19.8125,18.3125,-5.3125,-0.3588867,-0.3676758,0.02099609,0.1547852,-0.265625,-0.2436523
4178,33.125,12.625,3.5625,-0.347168,-0.2666016,0.05566406,0.1533203,-0.2641602,-0.2421875
4182,37.9375,7.375,12.875,-0.3354492,-0.1811523,0.05957031,0.1547852,-0.2695313,-0.2392578
4186,38.5625,1.5625,22.625,-0.3046875,-0.1381836,0.05566406,0.1533203,-0.2729492,-0.2368164
4190,38.625,-1.9375,28.875,-0.3007813,-0.1420898,0.04443359,0.1523438,-0.2719727,-0.2338867
4194,41.5625,-7.875,41.625,-0.2773438,-0.2006836,0.05957031,0.1499023,-0.2783203,-0.2324219
4198,46.6875,-12.9375,60.0625,-0.2348633,-0.2045898,0.06347656,0.1450195,-0.2817383,-0.2270508
4202,50.75,-18.125,80.4375,-0.215332,-0.1928711,0.05566406,0.1416016,-0.2880859,-0.2255859
4206,56.5,-26,99.75,-0.1650391,-0.1616211,0.05175781,0.1333008,-0.2954102,-0.2231445
4210,65.375,-32.0625,114,-0.06054688,-0.09179688,0.07519531,0.1225586,-0.3017578,-0.2216797
4214,78.25,-29.875,117.875,0.09765625,0.008789063,0.1132813,0.1166992,-0.3120117,-0.2163086
4218,85.5625,-21.3125,114.625,0.2255859,0.1601563,0.1518555,0.1044922,-0.3208008,-0.2109375
4222,76.5625,-9,114.75,0.3691406,0.300293,0.144043,0.09521484,-0.3291016,-0.2041016
4226,59.6875,0,125,0.3305664,0.3041992,0.09423828,0.08691406,-0.3330078,-0.2011719
4230,57,-1,140.9375,0.2797852,0.2070313,0.03271484,0.07470703,-0.3417969,-0.1943359
4234,70.6875,-8.5625,150.5,0.3535156,0.2070313,-0.009277344,0.06054688,-0.3466797,-0.1889648
4238,79,-9.25,154.6875,0.5708008,0.3349609,0.001953125,0.05224609,-0.3505859,-0.1835938
4242,74.3125,-0.8125,156.375,0.6635742,0.4633789,0.005859375,0.03662109,-0.3579102,-0.175293
4246,63.625,3.3125,158.8125,0.7333984,0.5136719,-0.01318359,0.02001953,-0.3603516,-0.1713867
4250,55.25,5.75,165.3125,0.7915039,0.4633789,-0.009277344,0.01074219,-0.3632813,-0.1645508
4254,50.0625,7.0625,177.3125,0.8881836,0.4477539,-0.03222656,-0.005859375,-0.3642578,-0.1606445
4258,47.0625,10.0625,193.4375,0.9501953,0.4243164,-0.07470703,-0.02490234,-0.3657227,-0.1547852
4262,52.875,7.4375,207.875,0.9931641,0.5019531,-0.1323242,-0.03515625,-0.3642578,-0.1523438
4266,57.6875,6.625,207.9375,1.074219,0.6499023,-0.1669922,-0.05566406,-0.3618164,-0.1455078
4270,52.875,5.75,201.5625,1.117188,0.7626953,-0.1899414,-0.07470703,-0.359375,-0.1416016
4274,36.4375,0.875,201.5625,1.186523,0.7001953,-0.1938477,-0.08886719,-0.3554688,-0.1386719
4278,30.9375,-3.625,215.1875,1.314453,0.4633789,-0.1860352,-0.1079102,-0.3505859,-0.137207
4282,47.75,-9.625,231.375,1.388184,0.4438477,-0.2016602,-0.1269531,-0.3408203,-0.1333008
4287,77.5625,-16,236.9375,1.461914,0.5136719,-0.2167969,-0.1450195,-0.3369141,-0.1289063
4291,109.4375,-19.25,226.375,1.558594,0.7470703,-0.2631836,-0.1625977,-0.3242188,-0.1225586
4295,129.25,-19.0625,205.5625,1.63623,0.8828125,-0.2670898,-0.1831055,-0.3154297,-0.1113281
4299,129.6875,-12,189.9375,1.713867,1.007324,-0.2861328,-0.1938477,-0.3105469,-0.105957
4303,111.875,-2.8125,191.5,1.713867,1.030762,-0.3012695,-0.2080078,-0.2993164,-0.09375
4307,89.5625,-3.0625,203.25,1.63623,1.030762,-0.3168945,-0.2236328,-0.2856445,-0.08300781
4311,72,-7,208.0625,1.601563,1.045898,-0.378418,-0.2304688,-0.2753906,-0.08300781
4315,61.6875,-13.875,204.375,1.624512,1.053711,-0.359375,-0.2446289,-0.2607422,-0.07763672
4319,55.9375,-10.4375,186.125,1.682617,1.057617,-0.3129883,-0.2568359,-0.2470703,-0.07177734
4323,47.6875,-6.0625,171.625,1.620605,0.956543,-0.3325195,-0.2636719,-0.2368164,-0.07080078
4327,50.6875,-7.5,172.375,1.597656,0.9023438,-0.3632813,-0.2724609,-0.2231445,-0.06640625
4331,49.0625,-10.875,167.375,1.531738,1.081055,-0.3823242,-0.2817383,-0.2080078,-0.06396484
4335,35.3125,-13.5625,157.125,1.484863,1.131836,-0.3706055,-0.2875977,-0.2006836,-0.0625
4339,16.375,-12.75,145.5,1.454102,1.026855,-0.3168945,-0.293457,-0.1855469,-0.05957031
4343,7,-13.4375,139.0625,1.419434,0.855957,-0.2822266,-0.3007813,-0.171875,-0.05859375
4347,14.5,-15.4375,141.6875,1.415527,0.7119141,-0.2363281,-0.3041992,-0.1645508,-0.05712891
4351,39.625,-15.75,135.25,1.473633,0.8632813,-0.2167969,-0.309082,-0.1518555,-0.05712891
4355,61,-11.8125,105.875,1.484863,1.061523,-0.1782227,-0.3164063,-0.1396484,-0.05566406
4359,66.9375,-4.0625,68.9375,1.430664,1.298828,-0.2055664,-0.3208008,-0.1357422,-0.05175781
4363,55.5,-0.8125,38,1.357422,1.283203,-0.1938477,-0.3208008,-0.1293945,-0.05175781
4367,40.8125,2.9375,23.1875,1.349609,1.174316,-0.1708984,-0.3256836,-0.1293945,-0.05175781
4371,27.4375,7.25,7.375,1.357422,1.854492,-0.2397461,-0.3232422,-0.1269531,-0.05175781
4375,11.125,12.0625,-27.5,1.260254,1.84668,-0.2631836,-0.3271484,-0.1279297,-0.05419922
4379,42.3125,17,-47.625,1.283691,1.205566,-0.2861328,-0.324707,-0.1308594,-0.05712891
4383,45.0625,15.9375,-52.0625,1.13623,1.559082,-0.3325195,-0.3222656,-0.1342773,-0.05712891
4387,30.4375,7.3125,-79.25,1.163574,1.799805,-0.4169922,-0.3198242,-0.1396484,-0.05419922
4391,1,0.5625,-109.5,1.279785,1.947754,-0.4628906,-0.3139648,-0.1479492,-0.05273438
4395,-45.4375,-0.375,-125.6875,1.450195,1.908691,-0.4707031,-0.3115234,-0.1557617,-0.05175781
4399,-94.6875,2.3125,-129.1875,1.550781,1.776367,-0.4863281,-0.3041992,-0.1655273,-0.05029297
4403,-130.125,4.4375,-130.75,1.644043,1.543457,-0.5170898,-0.2983398,-0.1782227,-0.05419922
4407,-141.25,8.125,-136.875,1.740723,1.345215,-0.5170898,-0.2958984,-0.1855469,-0.05859375
4411,-128.875,11.125,-155.25,1.76416,1.251953,-0.4975586,-0.2890625,-0.1958008,-0.06396484
4416,-107.6875,11.9375,-185.0625,1.830078,1.189941,-0.4824219,-0.2817383,-0.2070313,-0.07080078
4420,-92.0625,10.125,-212.6875,1.845703,1.154785,-0.4516602,-0.2758789,-0.2192383,-0.07470703
4424,-87.375,11.5625,-228.1875,1.899902,1.077148,-0.4091797,-0.2626953,-0.234375,-0.08300781
4428,-89.625,11.375,-230.875,1.903809,1.026855,-0.4052734,-0.2509766,-0.2529297,-0.08837891
4432,-90.875,7.125,-231.8125,1.946289,0.9296875,-0.3554688,-0.2387695,-0.2631836,-0.09375
4436,-79.5,5.125,-235.875,1.996582,0.8364258,-0.309082,-0.2246094,-0.2792969,-0.09912109
4440,-61.25,7.5,-247.5625,2.004395,0.809082,-0.2363281,-0.2104492,-0.296875,-0.1044922
4444,-51.625,9.1875,-259.625,1.969238,0.7817383,-0.1899414,-0.1948242,-0.3066406,-0.1074219
4448,-54.5,12.5625,-262.3125,1.96582,0.793457,-0.1206055,-0.1733398,-0.3232422,-0.112793
4452,-70.0625,17,-254.1875,1.895996,0.7275391,-0.1401367,-0.1494141,-0.3354492,-0.1142578
4456,-82.25,18.3125,-239.75,1.779785,0.6381836,-0.128418,-0.1352539,-0.3417969,-0.1225586
4460,-84.3125,20.5625,-228.875,1.63623,0.5449219,-0.1166992,-0.112793,-0.3491211,-0.1289063
4464,-77.3125,20,-226.9375,1.523926,0.4946289,-0.1435547,-0.09033203,-0.3569336,-0.1386719
4468,-67.125,17.5625,-227.4375,1.399902,0.4243164,-0.1245117,-0.07568359,-0.359375,-0.1416016
4472,-65.75,14.6875,-223.8125,1.283691,0.4360352,-0.128418,-0.05322266,-0.3632813,-0.1469727
4476,-75,11.375,-210.125,1.155762,0.3857422,-0.09765625,-0.03173828,-0.3642578,-0.1538086
4480,-87.375,6.375,-187.25,1.05127,0.2924805,-0.109375,-0.01757813,-0.3632813,-0.1591797
4484,-91.75,5.5,-164.5625,0.9272461,0.1757813,-0.09375,0.0009765625,-0.3618164,-0.168457
4488,-89.75,4.3125,-148.0625,0.7602539,0.09423828,-0.09375,0.01660156,-0.3569336,-0.1782227
4492,-85.1875,2,-137.8125,0.6518555,0.03613281,-0.0859375,0.02587891,-0.3530273,-0.1806641
4496,-78.75,-1.625,-126.8125,0.5668945,-0.02978516,-0.02832031,0.0390625,-0.3491211,-0.1904297
4500,-72.8125,-1.5,-118.1875,0.5048828,-0.06835938,0.03271484,0.05078125,-0.3417969,-0.199707
4504,-68.5625,5.125,-116,0.4350586,-0.08398438,0.07910156,0.05810547,-0.3408203,-0.2011719
4508,-67,11.875,-112.5,0.3417969,-0.1577148,0.1020508,0.06787109,-0.3330078,-0.2080078
4512,-66,19.8125,-103,0.2685547,-0.2587891,0.1098633,0.08056641,-0.3266602,-0.2163086
4516,-58.4375,22.4375,-94.3125,0.1987305,-0.09960938,0.1557617,0.08691406,-0.3217773,-0.21875
4520,-38.8125,21.875,-81.5625,-0.002441406,-0.4257813,0.01367188,0.09619141,-0.3154297,-0.2231445
4524,-11.75,17.25,-75.5625,-0.1420898,-0.4765625,0.02490234,0.1035156,-0.3120117,-0.2255859
4528,14.1875,9.9375,-66.0625,-0.230957,-0.46875,0.02880859,0.1079102,-0.3095703,-0.2231445
4532,33.8125,2,-49.625,-0.2270508,-0.4414063,0.05175781,0.112793,-0.3081055,-0.2202148
4536,45.375,0.75,-32.375,-0.230957,-0.3481445,0.06347656,0.1176758,-0.3081055,-0.2177734
4540,47.4375,-0.8125,-16.6875,-0.2504883,-0.2587891,0.07128906,0.1186523,-0.3120117,-0.2148438
4545,43.5625,-0.375,-1,-0.1845703,-0.1850586,0.08642578,0.1186523,-0.3129883,-0.2119141
4549,37.0625,3.8125,10.375,-0.1342773,-0.1152344,0.1289063,0.1201172,-0.3154297,-0.2109375
4553,28.1875,11,21,-0.1108398,-0.06445313,0.140625,0.1176758,-0.3178711,-0.206543
4557,16.3125,16.5,30.625,-0.1342773,-0.05273438,0.09814453,0.1186523,-0.3193359,-0.206543
4561,9.9375,18.8125,44.4375,-0.1611328,-0.1381836,0.05175781,0.1142578,-0.3217773,-0.2041016
4565,17.9375,15.0625,58.5,-0.1845703,-0.2431641,-0.02050781,0.112793,-0.3242188,-0.2026367
4569,34.9375,5.3125,74.5625,-0.1689453,-0.2587891,-0.04736328,0.1079102,-0.328125,-0.2011719
4573,49.75,-3.875,91.5,-0.06445313,-0.2006836,-0.03613281,0.1020508,-0.3320313,-0.1943359
4577,65,-7,106.625,0.1015625,-0.1420898,0.001953125,0.09521484,-0.3354492,-0.1928711
4581,82.875,-4.5,115.0625,0.2490234,-0.04882813,0.01367188,0.08447266,-0.3417969,-0.1875
4585,100,-0.6875,118,0.3339844,0.09814453,-0.005371094,0.07226563,-0.3505859,-0.1782227
4589,105.875,3,121.625,0.4428711,0.2416992,-0.01660156,0.06542969,-0.3569336,-0.1728516
4593,100.125,7.6875,129.3125,0.5512695,0.3081055,-0.02832031,0.05322266,-0.3632813,-0.1606445
4597,87.6875,10.5625,147.5625,0.578125,0.3544922,-0.06298828,0.04052734,-0.3691406,-0.1508789
4601,80.125,8.625,163.6875,0.6713867,0.4282227,-0.05126953,0.03076172,-0.3691406,-0.144043
4605,74,14.5,170.375,0.7680664,0.4907227,-0.06689453,0.01269531,-0.3745117,-0.1357422
4609,58.6875,19.25,173.5625,0.8803711,0.6147461,-0.08203125,-0.003417969,-0.3754883,-0.1303711
4613,40.875,23.3125,185.6875,0.9233398,0.6069336,-0.1362305,-0.01513672,-0.3769531,-0.1264648
4617,35.4375,20.125,196.4375,0.9462891,0.5722656,-0.1708984,-0.03173828,-0.3769531,-0.125
4621,35.875,17.6875,200.375,1.070313,0.6342773,-0.1591797,-0.05078125,-0.371582,-0.1196289
4625,25.9375,17.3125,201.8125,1.159668,0.6772461,-0.1708984,-0.06396484,-0.3691406,-0.1181641
4629,16.875,16,210.25,1.144043,0.6923828,-0.1708984,-0.08398438,-0.3642578,-0.1166992
4633,16.5625,9.625,214.4375,1.13623,0.6733398,-0.2016602,-0.1044922,-0.3579102,-0.1157227
4637,25.625,1.75,210.1875,1.194336,0.6264648,-0.2514648,-0.1162109,-0.3520508,-0.1157227
4641,40.3125,-7.25,206.5625,1.299316,0.5722656,-0.2363281,-0.1367188,-0.3432617,-0.1142578
4645,50.375,-14.25,210.6875,1.419434,0.6030273,-0.2363281,-0.1567383,-0.3330078,-0.1098633
4649,48.3125,-16.625,218.3125,1.531738,0.6845703,-0.2167969,-0.1674805,-0.3256836,-0.1074219
4653,43.1875,-18.9375,224.3125,1.582031,0.7041016,-0.2514648,-0.1855469,-0.3144531,-0.1005859
4657,47.625,-22.25,228.4375,1.601563,0.7080078,-0.2861328,-0.2045898,-0.2993164,-0.09765625
4661,57.625,-29.4375,221.1875,1.608887,0.7626953,-0.2783203,-0.2163086,-0.2895508,-0.09228516
4665,66.625,-31.125,209.5625,1.678711,0.7856445,-0.2744141,-0.2319336,-0.2729492,-0.08691406
4669,77.3125,-30.75,204.125,1.706055,0.875,-0.309082,-0.2446289,-0.2592773,-0.08154297
4674,73.5,-30.375,199.3125,1.678711,1.069336,-0.359375,-0.2553711,-0.2495117,-0.07470703
4678,45.0625,-30.0625,188.875,1.682617,1.166504,-0.3706055,-0.2651367,-0.234375,-0.07080078
4682,20.5625,-35.5,182.875,1.628418,0.9492188,-0.3515625,-0.2758789,-0.2182617,-0.06542969
4686,22.875,-37,178.75,1.644043,0.7856445,-0.3286133,-0.2827148,-0.2070313,-0.0625
4690,45.75,-40.375,172.6875,1.616699,0.8129883,-0.3012695,-0.293457,-0.1933594,-0.05859375
4694,61.4375,-39.1875,154.5,1.624512,1.092773,-0.2822266,-0.2998047,-0.1767578,-0.05029297
4698,61,-30.3125,124.6875,1.601563,1.221191,-0.2397461,-0.3032227,-0.1694336,-0.04736328
4702,45.75,-18.875,106.9375,1.531738,1.174316,-0.2055664,-0.3081055,-0.1591797,-0.04492188
4706,32.9375,-13.9375,109.125,1.481445,1.06543,-0.1821289,-0.3125,-0.1479492,-0.04345703
4710,37.6875,-4,118.9375,1.543457,1.069336,-0.1474609,-0.3149414,-0.1420898,-0.03955078
4714,53.5,-0.6875,107.5,1.415527,1.39209,-0.2705078,-0.3198242,-0.1318359,-0.04052734
4718,65.9375,-9.8125,68.0625,1.388184,1.757324,-0.309082,-0.3256836,-0.1245117,-0.03808594
4722,76,-6.3125,10.75,1.442383,1.998047,-0.3632813,-0.3271484,-0.1220703,-0.03808594
4726,71.5,-0.625,-36.8125,1.454102,2.122559,-0.4477539,-0.328125,-0.1220703,-0.03515625
4730,43.5625,-0.125,-64.375,1.446289,2.227051,-0.5170898,-0.3256836,-0.1269531,-0.03515625
4734,-10.5625,3.3125,-77.125,1.461914,2.266113,-0.559082,-0.324707,-0.1318359,-0.03271484
4738,-75.125,6.6875,-79.625,1.46582,2.161133,-0.6245117,-0.3198242,-0.1381836,-0.03271484
4742,-125.5,7.6875,-88.25,1.492676,1.970703,-0.6552734,-0.3149414,-0.1430664,-0.03515625
4746,-141.5625,8.75,-109.8125,1.616699,1.660156,-0.644043,-0.3149414,-0.1508789,-0.03808594
4750,-133.875,9.6875,-135.125,1.698242,1.516113,-0.6245117,-0.3081055,-0.1606445,-0.04492188
4754,-127.5625,6.75,-162.5625,1.787598,1.458008,-0.609375,-0.3017578,-0.171875,-0.04736328
4758,-119.6875,6.75,-187.25,1.930664,1.302734,-0.5400391,-0.2983398,-0.1831055,-0.05175781
4762,-101.875,11.25,-206.1875,2.016113,1.197754,-0.5283203,-0.2890625,-0.1982422,-0.05957031
4766,-89.4375,10,-222.9375,2.082031,1.189941,-0.5551758,-0.2807617,-0.2158203,-0.06396484
4770,-91.25,10.25,-236.375,2.206055,1.213379,-0.5283203,-0.2724609,-0.2255859,-0.06640625
4774,-110.5,14.9375,-245,2.229004,1.158691,-0.5322266,-0.2578125,-0.2456055,-0.07617188
4778,-130.9375,18.5,-251.5625,2.206055,0.9799805,-0.5244141,-0.2436523,-0.2641602,-0.08447266
4782,-138.4375,20.6875,-249.875,2.170898,0.7392578,-0.5131836,-0.2304688,-0.2768555,-0.09082031
4786,-132.8125,21.6875,-253.125,2.124512,0.5566406,-0.4975586,-0.2138672,-0.2919922,-0.1020508
4790,-121.875,20.9375,-254.875,2.10498,0.4672852,-0.4248047,-0.1938477,-0.3056641,-0.1098633
4794,-117.3125,24.25,-254.375,2.035156,0.4125977,-0.324707,-0.1806641,-0.3168945,-0.1166992
4798,-122.9375,33.1875,-249.875,1.961914,0.3544922,-0.2436523,-0.1582031,-0.3266602,-0.1318359
4803,-132.3125,41,-235.8125,1.876465,0.203125,-0.1938477,-0.1342773,-0.3369141,-0.1416016
4807,-127,50.625,-210.625,1.73291,0.02441406,-0.09765625,-0.1186523,-0.3417969,-0.1494141
4811,-104.0625,58.6875,-191.6875,1.597656,0.02050781,-0.05517578,-0.09863281,-0.3442383,-0.1630859
4815,-78.6875,62.75,-185.625,1.469727,0.1601563,-0.07080078,-0.07958984,-0.3442383,-0.1738281
4819,-68.75,67.3125,-188.375,1.326172,0.3232422,-0.07861328,-0.06494141,-0.3481445,-0.1796875
4823,-71.5,70,-189.5625,1.121094,0.3349609,-0.1206055,-0.04394531,-0.3481445,-0.1865234
4827,-76.4375,65.1875,-186.5,0.8920898,0.2807617,-0.1782227,-0.02246094,-0.3466797,-0.1928711
4831,-80.3125,59.1875,-177.125,0.6870117,0.2109375,-0.2167969,-0.006835938,-0.3466797,-0.1987305
4835,-76.5625,46.9375,-167.75,0.4350586,0.08251953,-0.2514648,0.01171875,-0.3417969,-0.2041016
4839,-56.9375,22.1875,-158.0625,0.2685547,-0.04541016,-0.2324219,0.02832031,-0.3369141,-0.2109375
4843,-23.125,-4.5,-146.5,0.190918,-0.1191406,-0.1669922,0.03808594,-0.3330078,-0.2148438
4847,7.3125,-29.1875,-134.0625,0.190918,-0.02978516,-0.08984375,0.04980469,-0.3320313,-0.2163086
4851,14.875,-38.4375,-120.625,0.3071289,0.1640625,0.005859375,0.06054688,-0.3291016,-0.2163086
4855,-8.875,-26.8125,-119.875,0.3808594,0.4321289,0.1171875,0.06884766,-0.3291016,-0.2163086
4859,-56.6875,-7.9375,-118.4375,0.3227539,0.4594727,0.09814453,0.07617188,-0.3242188,-0.21875
4863,-104.9375,1.4375,-112.1875,0.1987305,0.2651367,0.05566406,0.08544922,-0.3154297,-0.2255859
4867,-132.0625,3.0625,-96.9375,0.1015625,-0.04150391,0.04443359,0.09130859,-0.3095703,-0.2324219
4871,-133.75,2.5,-73.3125,-0.01806641,-0.3676758,0.09033203,0.09765625,-0.2954102,-0.2436523
4875,-114.75,3.4375,-53,-0.05664063,-0.5776367,0.1748047,0.1035156,-0.2832031,-0.2514648
4879,-76.875,4.0625,-41.75,-0.1186523,-0.6748047,0.1132813,0.1079102,-0.2783203,-0.2568359
4883,-31.4375,5.375,-36.75,-0.1689453,-0.7016602,0.1748047,0.1103516,-0.2729492,-0.2626953
4887,6.875,11.3125,-30.4375,-0.1650391,-0.5776367,0.2290039,0.112793,-0.2695313,-0.2612305
4891,28.1875,17,-22.5,-0.1845703,-0.4492188,0.2480469,0.1142578,-0.2680664,-0.2612305
4895,32,19.25,-7.125,-0.1962891,-0.340332,0.2060547,0.1176758,-0.2695313,-0.2568359
4899,27.25,16.1875,12,-0.2270508,-0.3208008,0.1826172,0.1186523,-0.2729492,-0.2558594
4903,26.375,14.6875,28.1875,-0.1962891,-0.3442383,0.1674805,0.1186523,-0.2744141,-0.2543945
4907,35.25,16.5,40.5625,-0.1689453,-0.387207,0.1328125,0.1166992,-0.2768555,-0.2514648
4911,52.6875,12.75,53.4375,-0.1845703,-0.4179688,0.08251953,0.1152344,-0.2832031,-0.2475586
4915,71,6.1875,65.75,-0.1147461,-0.3598633,0.05957031,0.1142578,-0.2866211,-0.2436523
4919,81.75,7.125,75.25,0.05517578,-0.2548828,0.105957,0.1069336,-0.2944336,-0.2353516
4923,81.4375,15.0625,84.125,0.1674805,-0.1459961,0.1171875,0.1010742,-0.3041992,-0.2324219
4927,75.1875,19.75,98.4375,0.2216797,-0.1113281,0.08642578,0.09765625,-0.3095703,-0.2285156
4932,71.1875,23.25,114.8125,0.2836914,-0.06445313,0.04443359,0.09277344,-0.3193359,-0.2202148
4936,68.5625,24.5,132.4375,0.3886719,-0.01025391,-0.01318359,0.08056641,-0.3266602,-0.2148438
4940,66.1875,26.0625,142,0.4541016,0.07470703,-0.009277344,0.07470703,-0.3305664,-0.2094727
4944,62.375,28.6875,148.125,0.578125,0.105957,-0.06298828,0.06396484,-0.3378906,-0.2026367
4948,57.875,27.125,162.8125,0.6015625,0.140625,-0.0859375,0.04980469,-0.3442383,-0.1972656
4952,53.4375,20.5,188.875,0.6982422,0.21875,-0.09765625,0.04052734,-0.3442383,-0.1943359
4956,55.375,12.4375,207.625,0.7836914,0.3271484,-0.1435547,0.0234375,-0.3505859,-0.1865234
4960,58.625,6.1875,211.6875,0.9155273,0.4165039,-0.1054688,0.004394531,-0.3520508,-0.1821289
4964,55.3125,10.5625,200.875,1.070313,0.6225586,-0.1054688,-0.0078125,-0.3554688,-0.1782227
4968,51.5625,10.125,196.6875,1.004395,0.5800781,-0.1513672,-0.02832031,-0.3554688,-0.1699219
4972,54.9375,-2.9375,204.8125,1.039551,0.4711914,-0.1669922,-0.04736328,-0.3530273,-0.168457
4976,67,-16,222.9375,1.175293,0.4790039,-0.1474609,-0.05810547,-0.3530273,-0.1645508
4980,77.625,-23.9375,236.5625,1.333984,0.6459961,-0.1401367,-0.08203125,-0.3491211,-0.1577148
4984,80.375,-28.0625,241.625,1.43457,0.9375,-0.1323242,-0.1030273,-0.3432617,-0.1508789
4988,64.1875,-26.6875,233.5625,1.496582,1.081055,-0.0859375,-0.1201172,-0.3393555,-0.1455078
4992,54.75,-25.25,227.25,1.508301,1.015137,-0.09375,-0.1391602,-0.3291016,-0.1386719
4996,59.3125,-28.75,216.8125,1.535645,0.9414063,-0.1401367,-0.1616211,-0.3193359,-0.1318359
5000,66.9375,-35.0625,216.1875,1.605469,0.9023438,-0.1708984,-0.1748047,-0.3144531,-0.1289063
5004,71.3125,-40,222.6875,1.678711,1.01123,-0.1743164,-0.1914063,-0.3017578,-0.1225586
5008,60,-41.5625,218.9375,1.702148,1.317871,-0.1938477,-0.206543,-0.2880859,-0.1166992
5012,19.4375,-39.6875,204.6875,1.670898,1.46582,-0.1782227,-0.2197266,-0.2783203,-0.1098633
5016,-23.9375,-41.625,192.9375,1.628418,1.143066,-0.1708984,-0.234375,-0.2641602,-0.1088867
5020,-38.5625,-47.1875,194.1875,1.640137,0.7314453,-0.2128906,-0.2470703,-0.2480469,-0.105957
5024,-3.8125,-61.25,203.125,1.628418,0.3193359,-0.2055664,-0.2543945,-0.234375,-0.105957
5028,69.9375,-71.9375,208.0625,1.709961,0.4243164,-0.2324219,-0.2685547,-0.2182617,-0.09912109
5032,116.8125,-72.1875,188.5625,1.86084,0.9995117,-0.1708984,-0.2817383,-0.2055664,-0.08837891
5036,99.625,-43.875,161.0625,1.958008,1.46582,-0.06298828,-0.2866211,-0.1943359,-0.08007813
5040,38.6875,-19.6875,148.0625,1.748535,1.411133,-0.08984375,-0.293457,-0.1791992,-0.07324219
5044,2.75,-21.6875,148.75,1.578125,0.9492188,-0.109375,-0.2998047,-0.1694336,-0.07177734
5048,17,-24.4375,155.375,1.601563,0.6225586,-0.02441406,-0.3041992,-0.1591797,-0.06933594
5052,59.5,-14.4375,155,1.694336,0.6381836,0.04443359,-0.3105469,-0.1455078,-0.06640625
5056,110.75,10.3125,145.6875,1.818359,0.6694336,0.105957,-0.3149414,-0.1308594,-0.06542969
5061,158.875,50.625,131.1875,1.984863,0.840332,0.1557617,-0.3198242,-0.1245117,-0.06640625
5065,171.125,114.0625,104.25,2.101074,1.850586,0.03662109,-0.3232422,-0.1166992,-0.07080078
5069,2.6875,116.5,6.8125,0.9541016,4.278809,-0.2670898,-0.3222656,-0.1142578,-0.08300781
5073,-29.6875,33.8125,-37.125,1.023926,1.869629,-0.6245117,-0.3208008,-0.1157227,-0.09228516
5077,-29.375,20.75,-12.5625,1.426758,1.259766,-0.1435547,-0.3198242,-0.1157227,-0.09521484
5081,-50.4375,40.6875,1.125,1.322266,1.267578,-0.1630859,-0.3188477,-0.1132813,-0.09912109
5085,-55.5625,30.625,-22,1.144043,1.353027,-0.2246094,-0.3173828,-0.1108398,-0.1005859
5089,-41.875,19.375,-70,1.268066,1.39209,-0.2514648,-0.3139648,-0.1142578,-0.1005859
5093,-25.375,12.75,-116.3125,1.43457,1.399902,-0.2167969,-0.3105469,-0.1206055,-0.09765625
5097,-26.625,6,-148.375,1.508301,1.43457,-0.2246094,-0.309082,-0.1293945,-0.09912109
5101,-46.8125,3.375,-170.4375,1.666992,1.384277,-0.1938477,-0.3032227,-0.1420898,-0.1020508
5105,-74.625,7.875,-177.6875,1.76416,1.221191,-0.1899414,-0.2958984,-0.1567383,-0.1005859
5109,-90.375,11,-175.9375,1.833984,1.030762,-0.1708984,-0.293457,-0.1655273,-0.1044922
5113,-93,15.3125,-178.3125,1.86084,0.956543,-0.1591797,-0.2851563,-0.1791992,-0.1098633
5117,-79.5,17.1875,-190.8125,1.841797,0.8325195,-0.1552734,-0.2783203,-0.1933594,-0.1166992
5121,-39.125,13.625,-203.5,1.810547,0.6923828,-0.1362305,-0.2709961,-0.203125,-0.1166992
5125,17.4375,6.875,-225.0625,1.806641,0.7236328,-0.1552734,-0.2626953,-0.2207031,-0.1196289
5129,59.6875,-2.1875,-249.375,1.845703,0.9179688,-0.1860352,-0.2485352,-0.2392578,-0.1166992
5133,76.0625,-9.1875,-268.6875,1.845703,1.019043,-0.2324219,-0.2402344,-0.2568359,-0.1157227
5137,66.875,-21.625,-275.3125,1.868652,1.034668,-0.2900391,-0.2236328,-0.2783203,-0.1098633
5141,44.5625,-35.5625,-268.6875,1.868652,1.003418,-0.2861328,-0.203125,-0.3017578,-0.1035156
5145,15.5,-45.25,-255,1.884277,0.9760742,-0.2514648,-0.1899414,-0.3144531,-0.1005859
5149,-13.875,-53.1875,-240.375,1.837891,0.9760742,-0.2167969,-0.1708984,-0.3305664,-0.09667969
5153,-41.5625,-57.25,-238.125,1.880371,1.015137,-0.1591797,-0.1518555,-0.3442383,-0.09521484
5157,-70.875,-49.5,-245.375,1.93457,1.003418,-0.1166992,-0.1376953,-0.3520508,-0.09521484
5161,-99.25,-38.8125,-249.875,1.876465,0.9023438,-0.09765625,-0.1152344,-0.3603516,-0.1005859
5165,-131.5625,-24.6875,-247,1.853027,0.8325195,-0.09375,-0.09130859,-0.3666992,-0.1088867
5169,-157.125,-7.1875,-229.0625,1.744629,0.6420898,-0.1245117,-0.07714844,-0.3681641,-0.1181641
5173,-172.0625,6.625,-213.5625,1.582031,0.5488281,-0.1821289,-0.05419922,-0.3706055,-0.1333008
5177,-177.1875,13.375,-205.625,1.384277,0.4516602,-0.1938477,-0.03320313,-0.3657227,-0.1508789
5181,-183.1875,12.75,-203.875,1.198242,0.3081055,-0.2514648,-0.01855469,-0.3642578,-0.1630859
5185,-173.0625,4.0625,-197,1.043457,-0.006347656,-0.2285156,0.002441406,-0.3569336,-0.1782227
5190,-145.9375,1.25,-183.3125,0.9501953,-0.2163086,-0.1669922,0.01904297,-0.3466797,-0.1943359
5194,-111.5,3.9375,-168.1875,0.7758789,-0.3442383,-0.128418,0.03076172,-0.3442383,-0.2041016
5198,-81.5625,4.0625,-160.125,0.527832,-0.3754883,-0.1401367,0.04736328,-0.3354492,-0.2133789
5202,-59.3125,-1.625,-148.625,0.3691406,-0.4492188,-0.1015625,0.06152344,-0.328125,-0.21875
5206,-45.1875,-7.0625,-125.3125,0.2646484,-0.5541992,-0.06689453,0.06982422,-0.3232422,-0.2216797
5210,-34.75,-8.4375,-96.5625,0.190918,-0.5424805,-0.05126953,0.07861328,-0.3168945,-0.2255859
5214,-26.8125,-8.1875,-72.6875,0.07861328,-0.4921875,-0.005371094,0.08544922,-0.3120117,-0.230957
5218,-24.5,-2.125,-58.125,0.05908203,-0.3520508,0.05957031,0.08886719,-0.3095703,-0.230957
5222,-26.6875,3.5625,-51,-0.07226563,-0.2705078,0.04443359,0.09375,-0.3041992,-0.2338867
5226,-33.375,-4.5625,-49.3125,-0.1845703,-0.2084961,0.07519531,0.09765625,-0.3017578,-0.2368164
5230,-37.5625,-6.8125,-48.75,-0.1303711,-0.2822266,0.1557617,0.1010742,-0.3007813,-0.237793
5234,-40.3125,2.25,-38.125,-0.1650391,-0.371582,0.1982422,0.1020508,-0.2929688,-0.2392578
5238,-39.125,6.5,-23.125,-0.1845703,-0.3676758,0.1943359,0.1069336,-0.2905273,-0.2436523
5242,-32.6875,6.4375,-4.5,-0.2661133,-0.4414063,0.1904297,0.1079102,-0.2880859,-0.2460938
5246,-20.75,5.25,2.375,-0.2661133,-0.3911133,0.2250977,0.109375,-0.2866211,-0.2475586
5250,-6.25,6.6875,6,-0.2001953,-0.3950195,0.2368164,0.1069336,-0.2856445,-0.2490234
5254,8.6875,8.8125,14.9375,-0.1767578,-0.3950195,0.2402344,0.1079102,-0.2866211,-0.2490234
5258,21.875,11.375,30.0625,-0.1767578,-0.3793945,0.2290039,0.1069336,-0.2880859,-0.2460938
5262,34.75,8.1875,47.6875,-0.2231445,-0.3598633,0.1635742,0.1044922,-0.2905273,-0.2460938
