Packet number,Gyroscope X (deg/s),Gyroscope Y (deg/s),Gyroscope Z (deg/s),Accelerometer X (g),Accelerometer Y (g),Accelerometer Z (g),Magnetometer X (G),Magnetometer Y (G),Magnetometer Z (G)
0,-5.5625,2.9375,12.125,0.9931641,0.04394531,-0.04003906,-0.331543,-0.09326172,-0.09228516
4,-7.6875,5.375,12.0625,1.016113,0.04736328,-0.06298828,-0.331543,-0.09326172,-0.09228516
8,-9.8125,7.25,11.1875,1.008301,0.07080078,-0.0859375,-0.331543,-0.09082031,-0.09521484
12,-13.625,6.25,10.875,0.9892578,0.07470703,-0.1166992,-0.331543,-0.09082031,-0.09375
16,-17.5,4.4375,11.125,0.9931641,0.05908203,-0.1206055,-0.3330078,-0.08935547,-0.09521484
20,-18.4375,1.75,11.3125,0.9814453,0.05908203,-0.1245117,-0.331543,-0.08691406,-0.09521484
24,-17.0625,-1.125,9.1875,1.008301,0.105957,-0.09375,-0.331543,-0.08544922,-0.09521484
28,-20.8125,1.5,2.875,1.039551,0.1796875,-0.07861328,-0.331543,-0.08544922,-0.09667969
32,-31.75,4,-0.5625,1.004395,0.1601563,-0.0859375,-0.3305664,-0.08691406,-0.09765625
36,-40.875,3.6875,1.4375,1.008301,0.06298828,-0.07861328,-0.3295898,-0.08544922,-0.09765625
40,-39.625,3.625,3.6875,1.02002,-0.02978516,-0.06298828,-0.3305664,-0.08544922,-0.09765625
44,-28.1875,4.3125,0.75,1.039551,-0.07226563,-0.03613281,-0.3305664,-0.08544922,-0.1005859
48,-10.125,6.625,-3.375,1.074219,0.02050781,-0.02050781,-0.328125,-0.08544922,-0.09765625
52,7.4375,9.75,-17.5,1.070313,0.1367188,-0.01318359,-0.3271484,-0.08691406,-0.09912109
56,20.3125,10.3125,-31.9375,1.070313,0.237793,-0.04736328,-0.3256836,-0.08837891,-0.09912109
60,24.0625,4.8125,-48.3125,1.008301,0.3779297,-0.05908203,-0.324707,-0.09326172,-0.09912109
64,26.8125,-1.625,-53.8125,1.117188,0.4243164,-0.03613281,-0.3222656,-0.09814453,-0.09765625
68,33.9375,0.25,-57.9375,1.19043,0.5566406,-0.02441406,-0.3208008,-0.1054688,-0.09912109
73,39.1875,2.3125,-66.3125,1.186523,0.7080078,-0.06689453,-0.3173828,-0.1157227,-0.09521484
77,42.6875,3.75,-80.5625,1.241211,0.9375,-0.09765625,-0.3139648,-0.1206055,-0.09667969
81,34.9375,5.6875,-92.1875,1.260254,1.13916,-0.1552734,-0.3105469,-0.1333008,-0.09082031
85,15.125,8.5625,-96.5,1.287598,1.325684,-0.2397461,-0.3081055,-0.1430664,-0.09082031
89,-16.3125,7.875,-102.1875,1.268066,1.458008,-0.3359375,-0.3032227,-0.1518555,-0.09228516
93,-51.4375,4.25,-107.4375,1.302734,1.438477,-0.378418,-0.2973633,-0.1630859,-0.09082031
97,-78.875,2.5,-113.3125,1.330078,1.321777,-0.3666992,-0.293457,-0.171875,-0.09375
101,-94.4375,-1.5,-121,1.388184,1.20166,-0.3286133,-0.2890625,-0.1782227,-0.09521484
105,-98.875,-1.8125,-134.125,1.508301,1.092773,-0.2670898,-0.2841797,-0.1879883,-0.09912109
109,-98.9375,0.5,-148.8125,1.578125,0.987793,-0.2436523,-0.2783203,-0.1982422,-0.1035156
113,-100.6875,-0.1875,-158.375,1.624512,0.8945313,-0.2016602,-0.2734375,-0.2045898,-0.1074219
117,-104.8125,2.8125,-162.8125,1.674805,0.7666016,-0.1513672,-0.2675781,-0.2143555,-0.112793
121,-107.25,7.75,-159,1.717773,0.6884766,-0.06298828,-0.2578125,-0.2270508,-0.1181641
125,-107.5,17.125,-156.3125,1.744629,0.6811523,0.005859375,-0.2519531,-0.2319336,-0.1225586
129,-105.5625,26.3125,-158.6875,1.69043,0.7119141,0.009765625,-0.2446289,-0.2416992,-0.1303711
133,-102.75,33.1875,-168.875,1.663574,0.7353516,0.02099609,-0.2353516,-0.2504883,-0.1401367
137,-97.125,39.3125,-178.25,1.63623,0.6655273,0.04443359,-0.2270508,-0.2592773,-0.1455078
141,-84.3125,44.625,-184.9375,1.608887,0.6381836,0.03662109,-0.2138672,-0.2680664,-0.15625
145,-69,47.0625,-188.1875,1.570313,0.6186523,0.02880859,-0.2006836,-0.2783203,-0.1630859
149,-53.1875,47.9375,-191.5,1.539551,0.6225586,0.04052734,-0.1889648,-0.2856445,-0.168457
153,-37.6875,48.875,-195.0625,1.496582,0.6655273,0.07910156,-0.1723633,-0.2983398,-0.1738281
157,-21.1875,47.8125,-200,1.42334,0.6733398,0.07519531,-0.1542969,-0.3081055,-0.1806641
161,-6.375,46.375,-207.25,1.407715,0.7236328,0.08642578,-0.1411133,-0.3129883,-0.1806641
165,7.6875,45.5625,-212.1875,1.349609,0.7470703,0.04785156,-0.1220703,-0.3232422,-0.1835938
169,11.75,41.5625,-216.3125,1.302734,0.824707,0.06347656,-0.1010742,-0.3320313,-0.1835938
173,-3.9375,41.0625,-213.6875,1.287598,0.8632813,0.08251953,-0.08642578,-0.3378906,-0.1821289
177,-35.0625,43.875,-199.5,1.229492,0.8012695,0.08251953,-0.06640625,-0.3432617,-0.1850586
181,-65.3125,47.4375,-182.0625,1.159668,0.7353516,0.06738281,-0.04492188,-0.3457031,-0.1918945
185,-89.1875,52,-174.625,1.109375,0.6069336,0.07128906,-0.03320313,-0.3457031,-0.1972656
189,-90.4375,58,-174.8125,0.9736328,0.3505859,0.02880859,-0.01171875,-0.3432617,-0.2041016
193,-74.125,57.5,-178.4375,0.8071289,0.171875,0.03271484,0.005859375,-0.3369141,-0.2119141
197,-59.875,56.625,-176.625,0.6674805,0.09814453,0.01708984,0.02001953,-0.3354492,-0.2148438
202,-60.8125,55.6875,-165.8125,0.5317383,0.1098633,-0.01660156,0.0390625,-0.3330078,-0.21875
206,-73.625,51.9375,-150.6875,0.3496094,0.04736328,-0.09765625,0.05712891,-0.3256836,-0.2255859
210,-81.5625,43.8125,-130.25,0.1791992,-0.1655273,-0.1401367,0.06640625,-0.3208008,-0.2299805
214,-74.875,35.3125,-106.625,0.07080078,-0.3442383,-0.128418,0.07958984,-0.3105469,-0.2368164
218,-59.125,26.4375,-89.6875,-0.05273438,-0.3911133,-0.1166992,0.09033203,-0.3017578,-0.2407227
222,-36.6875,17.625,-82.5,-0.1689453,-0.387207,-0.05517578,0.09521484,-0.2983398,-0.2421875
226,-14.3125,3.3125,-78.5625,-0.262207,-0.3095703,-0.05126953,0.1044922,-0.2944336,-0.2436523
230,-4.125,-12.25,-70.5625,-0.2583008,-0.2006836,-0.001464844,0.1103516,-0.2895508,-0.2446289
234,-7.1875,-23,-54.5,-0.1923828,-0.1347656,0.08251953,0.1103516,-0.2880859,-0.2446289
238,-12.875,-25.6875,-35,-0.1533203,-0.1074219,0.1479492,0.1142578,-0.2841797,-0.2475586
242,-17.8125,-27.125,-21.125,-0.1611328,-0.06054688,0.2021484,0.1142578,-0.2832031,-0.25
246,-20.0625,-25.75,-12,-0.1767578,-0.04882813,0.2329102,0.1142578,-0.2792969,-0.25
250,-11.9375,-25.9375,-7.875,-0.1923828,-0.06835938,0.2558594,0.1142578,-0.2792969,-0.25
254,6.3125,-28.3125,-4.5,-0.1806641,-0.09570313,0.2983398,0.1103516,-0.2783203,-0.2558594
258,23.1875,-29.875,4.8125,-0.1420898,-0.01025391,0.3173828,0.109375,-0.2807617,-0.2543945
262,28.375,-27.3125,14.25,-0.1030273,0.105957,0.355957,0.1069336,-0.2832031,-0.2543945
266,25.1875,-22.9375,23.4375,-0.1069336,0.1914063,0.3291016,0.1035156,-0.2841797,-0.2529297
270,20.375,-23.375,32.1875,-0.08007813,0.203125,0.2983398,0.1010742,-0.2866211,-0.25
274,21.9375,-20.875,38.875,-0.05664063,0.1914063,0.3017578,0.09863281,-0.2895508,-0.2514648
278,29.0625,-21.6875,47.125,-0.08398438,0.1875,0.2709961,0.09277344,-0.2919922,-0.25
282,38.9375,-24.3125,53.5625,-0.04882813,0.2456055,0.2675781,0.09033203,-0.2954102,-0.2490234
286,44.0625,-24.8125,59,-0.01806641,0.3388672,0.2866211,0.08447266,-0.2983398,-0.2446289
290,39.3125,-24.25,65.0625,0.04345703,0.4013672,0.2788086,0.07617188,-0.3032227,-0.2421875
294,34.625,-25.375,72.4375,0.07470703,0.4052734,0.2788086,0.07226563,-0.3066406,-0.2407227
298,36.625,-25.5625,76.6875,0.1870117,0.4052734,0.2827148,0.06396484,-0.3129883,-0.2368164
302,34.5,-20.8125,80.125,0.2373047,0.4321289,0.3017578,0.05566406,-0.3168945,-0.237793
306,26.25,-14.9375,89.375,0.2333984,0.4477539,0.3056641,0.04980469,-0.3178711,-0.2338867
310,23.0625,-13.5625,99.75,0.1831055,0.4321289,0.2558594,0.04248047,-0.3208008,-0.2338867
314,36.1875,-21.4375,103.3125,0.2026367,0.4204102,0.2211914,0.03173828,-0.3232422,-0.2299805
318,51.3125,-29.25,99.75,0.3496094,0.4868164,0.2133789,0.0234375,-0.3242188,-0.2270508
322,51,-26.1875,102.0625,0.5126953,0.5644531,0.2368164,0.01416016,-0.3291016,-0.2216797
326,41.8125,-19.5625,112.6875,0.543457,0.5449219,0.1982422,0.002441406,-0.3320313,-0.2202148
331,44.8125,-20.0625,118.375,0.5161133,0.5410156,0.1557617,-0.004394531,-0.3330078,-0.2163086
335,51.625,-21.0625,114.625,0.578125,0.5644531,0.1328125,-0.01611328,-0.3354492,-0.2109375
339,52.4375,-18.25,116.9375,0.6171875,0.5761719,0.1479492,-0.02832031,-0.3378906,-0.2080078
343,45.125,-17.0625,122.25,0.675293,0.6381836,0.1210938,-0.03662109,-0.3393555,-0.2055664
347,45.0625,-19.5625,130.6875,0.7177734,0.6069336,0.1098633,-0.04980469,-0.3393555,-0.199707
351,50.1875,-19.875,134.1875,0.7758789,0.6811523,0.1210938,-0.06298828,-0.3408203,-0.1958008
355,46.3125,-16.75,133.9375,0.8613281,0.7509766,0.1020508,-0.07226563,-0.3378906,-0.1918945
359,32.8125,-12.125,137.5625,0.9155273,0.7705078,0.07519531,-0.08398438,-0.3354492,-0.1889648
363,14.5,-8.9375,141,0.9389648,0.7275391,0.005859375,-0.09716797,-0.3320313,-0.1865234
367,25.75,-17.25,148.625,0.8110352,0.5371094,-0.05517578,-0.1054688,-0.3266602,-0.1835938
371,51.875,-30.0625,146.5625,0.9350586,0.6459961,-0.02050781,-0.1210938,-0.3232422,-0.1796875
375,58.9375,-32.25,140.8125,1.070313,0.8129883,0.01367188,-0.1318359,-0.3208008,-0.175293
379,40.8125,-27.875,140.5,1.159668,0.9375,0.009765625,-0.1411133,-0.3168945,-0.1713867
383,26.875,-27.9375,150.25,1.05127,0.9257813,0.02099609,-0.1542969,-0.3095703,-0.1660156
387,15.0625,-37.1875,156.25,1.035645,0.921875,0.02490234,-0.1699219,-0.3032227,-0.1645508
391,10.6875,-42.5,157.875,1.186523,0.8789063,0.08251953,-0.1791992,-0.296875,-0.1630859
395,8.3125,-38.9375,154.25,1.310547,0.8442383,0.1020508,-0.1938477,-0.2880859,-0.1606445
399,4.875,-29.8125,147.625,1.380371,0.8632813,0.09423828,-0.2045898,-0.2783203,-0.15625
403,6.5625,-24.6875,143.3125,1.248535,0.7197266,0.07128906,-0.2114258,-0.2695313,-0.1547852
407,24.75,-25.75,140.125,1.198242,0.6069336,0.05175781,-0.2211914,-0.2607422,-0.1538086
411,52.25,-27.5625,132.9375,1.229492,0.6264648,0.03271484,-0.2304688,-0.2495117,-0.1508789
415,69.5625,-25.25,126.0625,1.260254,0.7509766,-0.009277344,-0.2363281,-0.2441406,-0.1469727
419,62.5625,-24.0625,122.8125,1.26416,0.9023438,-0.06298828,-0.2460938,-0.2358398,-0.1386719
423,31.4375,-23.375,122.9375,1.241211,0.972168,-0.07080078,-0.2495117,-0.2280273,-0.1357422
427,-3.125,-24.125,129.9375,1.175293,0.793457,-0.02832031,-0.2553711,-0.2216797,-0.1318359
431,-17.6875,-29.4375,135.375,1.117188,0.6186523,-0.03222656,-0.2636719,-0.2104492,-0.1289063
435,3.25,-35.625,127.25,1.198242,0.3935547,0.04052734,-0.2700195,-0.1967773,-0.1289063
439,41,-30.3125,109.5,1.29541,0.4594727,0.07128906,-0.2768555,-0.1894531,-0.1225586
443,54.0625,-20.3125,97.375,1.299316,0.6845703,0.04443359,-0.2807617,-0.1831055,-0.1235352
447,24.75,-16.4375,93.5625,1.182617,0.9179688,0.001953125,-0.2851563,-0.1757813,-0.1166992
451,-29.125,-17.6875,105.875,1.144043,0.7856445,0.005859375,-0.2875977,-0.1694336,-0.1166992
455,-50.6875,-20.3125,117,1.13623,0.4399414,-0.009277344,-0.293457,-0.1591797,-0.1181641
460,-9.6875,-28.9375,111.5625,1.113281,0.1640625,-0.04394531,-0.2973633,-0.1455078,-0.1157227
464,62.9375,-37.25,84.4375,1.244629,0.2456055,-0.03613281,-0.3017578,-0.140625,-0.1142578
468,111.5,-34.75,65.5,1.345703,0.4829102,0.01708984,-0.3056641,-0.1333008,-0.1074219
472,128.875,-23.25,58.8125,1.345703,0.777832,0.04052734,-0.3081055,-0.1293945,-0.1035156
476,120.9375,-16.875,62.1875,1.287598,1.003418,0.09423828,-0.3105469,-0.1279297,-0.1005859
480,117.6875,-4.0625,61.5625,1.357422,1.135742,0.1020508,-0.3139648,-0.1254883,-0.09912109
484,119.8125,11.8125,46.875,1.361328,1.333496,-0.005371094,-0.3188477,-0.1206055,-0.1005859
488,118.5,17.8125,27.5625,1.260254,1.601563,-0.2167969,-0.3188477,-0.1196289,-0.09912109
492,86.1875,7.1875,-12.1875,1.159668,1.962891,-0.2631836,-0.3222656,-0.1206055,-0.09667969
496,20.8125,2.1875,-43,1.16748,1.877441,-0.2016602,-0.3188477,-0.1230469,-0.09765625
500,-41.25,2.125,-44.75,1.121094,1.601563,-0.1977539,-0.3188477,-0.1269531,-0.09667969
504,-91.1875,-3.625,-38.125,1.105469,1.418945,-0.2055664,-0.3139648,-0.1308594,-0.09521484
508,-115.4375,-5.8125,-44.25,1.202148,1.283203,-0.1708984,-0.3105469,-0.1342773,-0.09667969
512,-125.375,-5,-59.25,1.322266,1.162598,-0.09765625,-0.309082,-0.1367188,-0.09521484
516,-119.9375,0.75,-81.3125,1.419434,1.038574,-0.02050781,-0.3066406,-0.1396484,-0.09765625
520,-107,7.8125,-97.6875,1.477539,0.9101563,0.04443359,-0.3032227,-0.1455078,-0.1005859
524,-87.5625,15.6875,-106.5,1.543457,0.8789063,0.06347656,-0.3007813,-0.1508789,-0.1035156
528,-68.1875,22.8125,-116.9375,1.539551,0.921875,0.03662109,-0.2958984,-0.1582031,-0.1088867
532,-54.5,25.625,-130.8125,1.574219,1.01123,0.05566406,-0.2915039,-0.1679688,-0.1142578
536,-46.5,31.1875,-145.6875,1.624512,1.022949,0.05175781,-0.2866211,-0.1743164,-0.1166992
540,-36.9375,36.8125,-160.8125,1.666992,0.953125,0.07128906,-0.2792969,-0.1870117,-0.1196289
544,-20.4375,43.6875,-178.6875,1.682617,0.9296875,0.03271484,-0.2724609,-0.2006836,-0.125
548,-21.8125,46.75,-185,1.69043,0.9760742,-0.009277344,-0.2651367,-0.2119141,-0.1289063
552,-39.0625,50.6875,-186.5625,1.674805,0.9956055,-0.06298828,-0.2543945,-0.2280273,-0.1333008
556,-56.375,49.8125,-187.9375,1.644043,0.9101563,-0.109375,-0.2436523,-0.2416992,-0.1401367
560,-64.0625,49.75,-197.1875,1.663574,0.793457,-0.1206055,-0.234375,-0.2495117,-0.1469727
564,-66.3125,51.0625,-206.25,1.651855,0.6694336,-0.112793,-0.2197266,-0.2617188,-0.1508789
568,-63.3125,54.125,-203.625,1.574219,0.4985352,-0.1245117,-0.203125,-0.2753906,-0.1591797
572,-45.875,53.4375,-199.375,1.411621,0.3544922,-0.1435547,-0.1923828,-0.2832031,-0.1645508
576,-29.5625,46.6875,-196.1875,1.287598,0.3662109,-0.1552734,-0.1757813,-0.2954102,-0.1713867
580,-22.5,39.3125,-189.0625,1.217773,0.4516602,-0.1362305,-0.1567383,-0.3041992,-0.1728516
584,-26.375,30.9375,-183.4375,1.163574,0.5410156,-0.1323242,-0.1459961,-0.3105469,-0.1767578
589,-33.125,24.4375,-179.0625,1.144043,0.5175781,-0.09765625,-0.1303711,-0.3193359,-0.1796875
593,-36.5,22.75,-174.0625,1.097656,0.4868164,-0.03613281,-0.1152344,-0.3256836,-0.1835938
597,-41.1875,21.3125,-170.3125,1.043457,0.4672852,-0.005371094,-0.1020508,-0.3291016,-0.1865234
601,-42.1875,22,-163.5,0.9892578,0.4243164,0.03271484,-0.08642578,-0.3344727,-0.1904297
605,-45.3125,22.6875,-156.1875,0.9155273,0.4477539,0.03662109,-0.07128906,-0.3354492,-0.1943359
609,-51.0625,23.9375,-148.375,0.8261719,0.4013672,0.04052734,-0.06054688,-0.3369141,-0.199707
613,-50.1875,23.8125,-142.0625,0.7177734,0.315918,0.04443359,-0.04736328,-0.3369141,-0.2041016
617,-44.125,22.5625,-135.625,0.659668,0.2573242,0.08251953,-0.03320313,-0.3369141,-0.2094727
621,-29.625,22.4375,-128,0.6015625,0.237793,0.1210938,-0.0234375,-0.3344727,-0.2109375
625,-17.375,23.9375,-126.0625,0.4892578,0.3271484,0.1132813,-0.009277344,-0.3354492,-0.2133789
629,-15.5,21.25,-120.3125,0.4389648,0.3896484,0.1132813,0,-0.3354492,-0.2163086
633,-20.375,21.125,-114.8125,0.3925781,0.4360352,0.1367188,0.009277344,-0.3344727,-0.2148438
637,-29,22,-109.5625,0.3457031,0.4438477,0.159668,0.02148438,-0.3330078,-0.2177734
641,-38.1875,24.5,-105,0.3188477,0.4165039,0.1674805,0.03173828,-0.3320313,-0.2216797
645,-45.625,25.0625,-99.125,0.2104492,0.3662109,0.1367188,0.03808594,-0.328125,-0.2231445
649,-46.875,23.0625,-94.6875,0.1289063,0.3427734,0.1132813,0.04980469,-0.3242188,-0.2270508
653,-44.3125,21.8125,-97.6875,0.06298828,0.4243164,0.159668,0.05810547,-0.3208008,-0.2299805
657,-36.9375,20.625,-101.1875,0.03564453,0.3935547,0.1787109,0.06542969,-0.3168945,-0.2338867
661,-26.125,14.625,-94.25,-0.01416016,0.3466797,0.2060547,0.07470703,-0.3120117,-0.2353516
665,-21.375,9.5625,-76.1875,-0.02587891,0.3310547,0.2402344,0.08447266,-0.3066406,-0.2392578
669,-23,7,-54.0625,-0.04882813,0.4438477,0.2788086,0.08691406,-0.3066406,-0.2392578
673,-25.125,7.4375,-46.875,-0.02197266,0.5527344,0.3017578,0.09277344,-0.3017578,-0.2421875
677,-25,10.875,-51.25,-0.04492188,0.6108398,0.3017578,0.09521484,-0.2993164,-0.2421875
681,-28.9375,9.375,-51.6875,-0.09521484,0.5644531,0.3134766,0.09960938,-0.2944336,-0.2421875
685,-29.0625,6.3125,-46.5625,-0.1030273,0.4282227,0.3330078,0.1020508,-0.2929688,-0.2446289
689,-26.1875,7.9375,-38.0625,-0.08007813,0.3271484,0.3251953,0.1069336,-0.2866211,-0.2475586
693,-23.75,9,-25.1875,-0.1459961,0.2338867,0.2597656,0.109375,-0.2866211,-0.2475586
697,-18.125,4.5625,-11.9375,-0.2119141,0.1445313,0.2211914,0.1142578,-0.2856445,-0.25
701,-7.8125,0,-7.0625,-0.1923828,0.1254883,0.2094727,0.1142578,-0.2832031,-0.2490234
705,2.4375,-2,-5.6875,-0.215332,0.1367188,0.1748047,0.1142578,-0.2817383,-0.25
709,4.9375,-8.875,-0.25,-0.2119141,0.1367188,0.1674805,0.112793,-0.2841797,-0.2514648
713,0.9375,-14.4375,8.5625,-0.1845703,0.1098633,0.1748047,0.112793,-0.2832031,-0.25
718,-3.1875,-20.25,21.1875,-0.1108398,0.02441406,0.2021484,0.1118164,-0.2832031,-0.25
722,-2.5625,-17.625,34.9375,-0.01025391,-0.07226563,0.2172852,0.1044922,-0.2832031,-0.2529297
726,7.6875,-13.75,48.5625,-0.01025391,-0.1074219,0.2060547,0.1044922,-0.2856445,-0.2529297
730,18.8125,-15.125,58.6875,-0.06445313,-0.05273438,0.159668,0.1010742,-0.2895508,-0.25
734,28,-21.375,68.5625,-0.06054688,0.03222656,0.1171875,0.09521484,-0.2919922,-0.25
738,39.25,-31.25,76,0.02441406,0.07470703,0.1367188,0.08691406,-0.2954102,-0.25
742,49.3125,-33.75,83.625,0.1791992,0.1484375,0.2133789,0.08203125,-0.3007813,-0.2460938
746,55.6875,-29,84.375,0.2568359,0.237793,0.2749023,0.07226563,-0.3056641,-0.2436523
750,60.0625,-25.8125,89.1875,0.2529297,0.2338867,0.2788086,0.06298828,-0.3105469,-0.2407227
754,65.875,-23.625,100.5,0.2836914,0.1914063,0.2480469,0.05712891,-0.3144531,-0.2368164
758,82,-25.375,116.4375,0.3378906,0.21875,0.1982422,0.04638672,-0.3217773,-0.2299805
762,105.6875,-27.5625,128.8125,0.4814453,0.3935547,0.2021484,0.03417969,-0.328125,-0.2231445
766,109.25,-17.375,125.875,0.578125,0.7587891,0.2250977,0.02587891,-0.3354492,-0.2148438
770,77.1875,-8.125,123.625,0.5898438,0.953125,0.1904297,0.01171875,-0.3408203,-0.206543
774,39.9375,-7.25,127.5,0.578125,0.7739258,0.09814453,-0.001953125,-0.3457031,-0.2011719
778,35.1875,-13.125,137.0625,0.6289063,0.4868164,0.07910156,-0.0078125,-0.3457031,-0.2011719
782,54.5625,-15.375,148.4375,0.7255859,0.4086914,0.09423828,-0.02099609,-0.3466797,-0.1943359
786,68.875,-14.0625,153.625,0.8071289,0.6264648,0.06738281,-0.03515625,-0.3466797,-0.1918945
790,64.3125,-10.25,157.9375,0.8920898,0.7548828,0.05175781,-0.04589844,-0.3481445,-0.1850586
794,42.6875,-6.0625,164.9375,0.9155273,0.8012695,0.01367188,-0.06298828,-0.3491211,-0.1806641
798,38.3125,-8.75,178.25,0.8920898,0.6186523,-0.04736328,-0.07714844,-0.3457031,-0.1767578
802,58.5,-13.125,186.625,1.008301,0.5878906,-0.02832031,-0.08886719,-0.3408203,-0.1738281
806,69.25,-6.4375,192,1.179199,0.7895508,0.001953125,-0.1069336,-0.3378906,-0.1660156
810,44.5625,2.5625,187.125,1.225586,1.162598,-0.07080078,-0.1245117,-0.3330078,-0.1630859
814,2.6875,-5.625,181.3125,1.059082,1.178223,-0.1669922,-0.1367188,-0.328125,-0.1616211
818,5.4375,-23.6875,184,0.9311523,0.8129883,-0.1362305,-0.1494141,-0.3178711,-0.1591797
822,42.5625,-44.625,173.4375,1.000488,0.8828125,-0.05517578,-0.1665039,-0.3081055,-0.1591797
826,54.8125,-46.8125,158.625,1.306641,1.057617,0.07519531,-0.1757813,-0.3032227,-0.1508789
830,25.1875,-34.3125,151.625,1.438477,1.205566,0.1132813,-0.1899414,-0.2919922,-0.1469727
834,-28.9375,-22.875,159.25,1.473633,1.003418,0.08642578,-0.2045898,-0.2832031,-0.1425781
838,-27.0625,-19.1875,178.4375,1.248535,0.7197266,0.05566406,-0.2114258,-0.2744141,-0.1469727
842,9.0625,-27.1875,164.4375,1.198242,0.7041016,0.08251953,-0.2255859,-0.2592773,-0.1484375
847,48.1875,-26.375,143.875,1.310547,0.8129883,0.05175781,-0.2363281,-0.2495117,-0.1425781
851,46.8125,-21.9375,129.8125,1.271973,1.030762,0.001953125,-0.2412109,-0.2441406,-0.1386719
855,5.375,-19.75,125.5,1.310547,1.049805,0.005859375,-0.2485352,-0.2319336,-0.1357422
859,-39.375,-18.6875,135.875,1.326172,0.809082,0.04785156,-0.2553711,-0.2231445,-0.1347656
863,-55.375,-14.1875,151.6875,1.372559,0.6577148,0.07910156,-0.2617188,-0.2128906,-0.1357422
867,-56.5,-8.5625,144.875,1.337891,0.7509766,0.1171875,-0.2675781,-0.1982422,-0.1386719
871,-59.875,-1.3125,127.75,1.337891,0.7119141,0.1748047,-0.2744141,-0.1845703,-0.137207
875,-57.75,5.8125,116.6875,1.171387,0.6342773,0.144043,-0.2758789,-0.1743164,-0.1416016
879,-49.3125,1,108.125,1.059082,0.5371094,0.07519531,-0.2807617,-0.1645508,-0.1425781
883,-28.0625,-10.875,104.375,0.9892578,0.3935547,0.005859375,-0.2827148,-0.1518555,-0.144043
887,4.9375,-27.6875,102.3125,1.000488,0.3388672,0.02099609,-0.2866211,-0.1445313,-0.144043
891,37.75,-40.6875,100.625,1.085938,0.4013672,0.08251953,-0.2915039,-0.1357422,-0.1401367
895,68.8125,-43.75,95.8125,1.209961,0.4907227,0.1826172,-0.293457,-0.1279297,-0.1347656
899,94.1875,-35.3125,91.875,1.299316,0.6616211,0.1826172,-0.2983398,-0.1245117,-0.1318359
903,116.9375,-27.8125,81.4375,1.283691,0.8129883,0.159668,-0.3017578,-0.1196289,-0.125
907,129.625,-20.6875,75.1875,1.287598,0.9643555,0.1210938,-0.3032227,-0.1157227,-0.1210938
911,120.6875,-14.5625,75.1875,1.29541,1.108398,0.105957,-0.309082,-0.1132813,-0.1196289
915,92.5625,-10.1875,78,1.256348,1.213379,0.07519531,-0.309082,-0.109375,-0.1157227
919,60.5,-3.3125,82.5625,1.345703,1.228516,0.05566406,-0.3125,-0.1020508,-0.112793
923,29.125,4.375,67.0625,1.364746,1.403809,0.03271484,-0.3115234,-0.09814453,-0.1142578
927,-1.6875,14,26.5,1.349609,1.477539,0.005859375,-0.3125,-0.09326172,-0.1142578
931,-24.875,15.9375,-14.5,1.175293,1.399902,-0.05517578,-0.3139648,-0.09179688,-0.1157227
935,-46.625,6.6875,-38.5625,1.194336,1.267578,-0.03613281,-0.3115234,-0.09326172,-0.1157227
939,-61.125,5.25,-48.25,1.268066,1.174316,-0.01660156,-0.309082,-0.09570313,-0.1157227
943,-70.875,5.6875,-54.875,1.306641,1.146973,0.03662109,-0.3081055,-0.1005859,-0.1166992
947,-71.9375,7.25,-65.375,1.395996,1.162598,0.07910156,-0.3066406,-0.1030273,-0.1181641
951,-61.6875,7.875,-85.375,1.484863,1.193848,0.1132813,-0.3056641,-0.1083984,-0.1225586
955,-40.625,3.8125,-118.4375,1.612793,1.158691,0.1748047,-0.3041992,-0.1157227,-0.1196289
959,-15.5625,5.5625,-151.875,1.802734,1.146973,0.2441406,-0.3032227,-0.1230469,-0.1225586
963,-6,14.8125,-176.5625,1.969238,1.158691,0.3017578,-0.2983398,-0.1367188,-0.1225586
967,-13.8125,30.9375,-185.375,2.027832,1.112305,0.2558594,-0.2924805,-0.1542969,-0.1235352
971,-31.625,46.75,-187.375,2.050781,1.038574,0.1787109,-0.2890625,-0.1645508,-0.1264648
976,-45.8125,59.4375,-189.6875,1.980957,0.9101563,0.07910156,-0.2807617,-0.1821289,-0.1357422
980,-49.9375,64.125,-198.1875,1.918945,0.8012695,-0.005371094,-0.2685547,-0.1967773,-0.1416016
984,-46.3125,64.25,-212.9375,1.930664,0.7197266,-0.02441406,-0.2602539,-0.2094727,-0.1469727
988,-42.625,67.25,-221.125,1.880371,0.6342773,-0.03222656,-0.2495117,-0.2255859,-0.1547852
992,-39.125,65.5625,-221.625,1.771973,0.5722656,-0.05517578,-0.2329102,-0.2416992,-0.1616211
996,-31.3125,61.1875,-215.875,1.752441,0.5253906,-0.02441406,-0.2236328,-0.2504883,-0.1660156
1000,-19.125,59.75,-212.5625,1.713867,0.6186523,-0.02050781,-0.2055664,-0.2670898,-0.1713867
1004,-18.4375,55.875,-221.0625,1.682617,0.7041016,-0.01660156,-0.1899414,-0.2807617,-0.175293
1008,-21.625,55.8125,-229.8125,1.682617,0.6499023,-0.005371094,-0.1757813,-0.2905273,-0.1796875
1012,-29.25,56.6875,-233.3125,1.644043,0.5913086,-0.02832031,-0.1557617,-0.3032227,-0.1821289
1016,-38.0625,55.5625,-230.4375,1.539551,0.4868164,-0.02441406,-0.1328125,-0.3129883,-0.1875
1020,-51.1875,53.8125,-217.9375,1.458008,0.4243164,-0.005371094,-0.1186523,-0.3193359,-0.1918945
1024,-63.75,56.625,-203.75,1.361328,0.3081055,-0.02050781,-0.09716797,-0.3217773,-0.1972656
1028,-66,59.5,-197.375,1.22168,0.203125,-0.04394531,-0.07568359,-0.328125,-0.2041016
1032,-65.375,59.625,-191.125,1.070313,0.1367188,-0.0859375,-0.06298828,-0.3291016,-0.206543
1036,-64.75,57.5,-185.3125,0.8769531,0.07470703,-0.1166992,-0.04150391,-0.3291016,-0.2148438
1040,-58.4375,48.625,-177,0.6982422,-0.04150391,-0.1435547,-0.02490234,-0.3266602,-0.2231445
1044,-48.75,37.5625,-165.75,0.59375,-0.07226563,-0.09375,-0.01171875,-0.3266602,-0.2285156
1048,-43.9375,31.0625,-149.625,0.5239258,-0.07226563,-0.06298828,0.005859375,-0.3232422,-0.2324219
1052,-43.5,27.75,-134.375,0.4580078,-0.03369141,-0.01660156,0.01757813,-0.3217773,-0.2368164
1056,-43.625,29.4375,-126.25,0.3652344,-0.01025391,0.02490234,0.02832031,-0.3208008,-0.2368164
1060,-45.3125,29.0625,-115.8125,0.2646484,-0.04541016,0.03271484,0.04052734,-0.3144531,-0.2407227
1064,-41.6875,25.625,-101.625,0.159668,-0.05664063,0.02490234,0.05078125,-0.3081055,-0.2436523
1068,-36.625,19.1875,-92.375,0.09033203,-0.06054688,0.02880859,0.05810547,-0.3066406,-0.2446289
1072,-35.4375,12.375,-83.4375,0.004882813,-0.06445313,0.08251953,0.06542969,-0.3017578,-0.2490234
1076,-35.375,9.3125,-69.125,0.01660156,-0.09570313,0.1367188,0.07617188,-0.2983398,-0.2490234
1080,-29.0625,13.9375,-57.25,0.01269531,-0.1152344,0.1635742,0.07861328,-0.2944336,-0.2543945
1084,-15.3125,16.5,-49.5,-0.1225586,-0.1381836,0.1328125,0.08300781,-0.2919922,-0.2543945
1088,0.8125,10.75,-40.3125,-0.2080078,-0.07617188,0.125,0.09033203,-0.2895508,-0.2543945
1092,11.1875,-0.0625,-25.875,-0.2348633,0.02832031,0.1635742,0.09130859,-0.2880859,-0.2543945
1096,11.375,-9.0625,-11.625,-0.2001953,0.1137695,0.2021484,0.09130859,-0.2880859,-0.2529297
1100,10.75,-10.5625,-3.4375,-0.07617188,0.1757813,0.2905273,0.09130859,-0.2895508,-0.2514648
1105,13.6875,-2.3125,-2.5625,-0.09130859,0.237793,0.3017578,0.09277344,-0.2905273,-0.2529297
1109,11.625,-0.75,-1.8125,-0.1420898,0.2885742,0.2983398,0.09277344,-0.2905273,-0.2529297
1113,1.375,-1.5,4.3125,-0.1572266,0.284668,0.2827148,0.09130859,-0.2919922,-0.25
1117,-3.5,-4.75,18.0625,-0.2001953,0.171875,0.2636719,0.09277344,-0.2919922,-0.2514648
1121,6.3125,-11.125,31.375,-0.2080078,0.09423828,0.2329102,0.09033203,-0.2929688,-0.2529297
1125,26.625,-20.5,39.375,-0.1572266,0.09814453,0.2329102,0.08691406,-0.2944336,-0.2529297
1129,43.0625,-24.875,43.9375,-0.06054688,0.1796875,0.2709961,0.07958984,-0.296875,-0.2490234
1133,51.625,-27.0625,48.8125,-0.01025391,0.269043,0.3056641,0.07617188,-0.3007813,-0.2460938
1137,53.5,-25.625,50.9375,0.08642578,0.3310547,0.3710938,0.06982422,-0.3066406,-0.2436523
1141,47.1875,-15.8125,55.9375,0.1557617,0.3583984,0.409668,0.06640625,-0.3081055,-0.2407227
1145,42.1875,-5.5,71.5,0.1054688,0.3427734,0.355957,0.06298828,-0.3105469,-0.237793
1149,45.75,-4.0625,84.75,0.07080078,0.3779297,0.2441406,0.0546875,-0.3178711,-0.2353516
1153,51.9375,-11.5625,91.375,0.01660156,0.4516602,0.1557617,0.04882813,-0.3242188,-0.2299805
1157,48.8125,-24.75,92.0625,0.1054688,0.5449219,0.1635742,0.04052734,-0.3266602,-0.2270508
1161,34.3125,-28.0625,92.25,0.3378906,0.5527344,0.2636719,0.02832031,-0.3305664,-0.2231445
1165,20.0625,-16.0625,94.875,0.4506836,0.4360352,0.2866211,0.0234375,-0.3330078,-0.2216797
1169,20.5,-7.6875,109,0.3999023,0.2963867,0.2402344,0.01416016,-0.3320313,-0.2177734
1173,27.625,-9.0625,121.125,0.3847656,0.3740234,0.1328125,0.0009765625,-0.3344727,-0.2177734
1177,29.875,-12.25,125.8125,0.4389648,0.4516602,0.09423828,-0.005859375,-0.3354492,-0.2148438
1181,14.1875,-15.5,125.1875,0.5551758,0.5332031,0.06347656,-0.01611328,-0.3354492,-0.2133789
1185,4.125,-16.3125,133.5,0.625,0.300293,0.05175781,-0.03076172,-0.3354492,-0.2109375
1189,18.9375,-18.5,148.875,0.625,0.2070313,0.01367188,-0.03759766,-0.3344727,-0.2119141
1193,40.6875,-24.6875,157.5625,0.6635742,0.3041992,0.02490234,-0.05322266,-0.3320313,-0.2094727
1197,45.0625,-27.0625,162.625,0.7568359,0.5097656,0.02880859,-0.07128906,-0.3305664,-0.2041016
1201,17.75,-30.5625,160.875,0.8378906,0.6923828,-0.009277344,-0.08203125,-0.328125,-0.2026367
1205,0,-43,160.3125,0.9155273,0.4829102,-0.04003906,-0.09619141,-0.3232422,-0.199707
1209,18.375,-49.625,165.9375,0.9619141,0.3818359,-0.03222656,-0.1113281,-0.3193359,-0.199707
1213,52.875,-55.1875,159,0.9892578,0.5019531,-0.02050781,-0.1235352,-0.3129883,-0.1943359
1217,69,-58.6875,141.875,1.070313,0.6577148,-0.001464844,-0.1391602,-0.3105469,-0.1875
1221,52.125,-57.3125,139.875,1.206055,0.7548828,0.05175781,-0.1533203,-0.3041992,-0.1796875
1225,18.5625,-51.125,157.8125,1.29541,0.5605469,0.1098633,-0.1640625,-0.3017578,-0.175293
1229,26.1875,-47.6875,190.4375,1.291504,0.4204102,0.1518555,-0.1782227,-0.2919922,-0.1728516
1234,59.3125,-43.75,190.25,1.403809,0.5449219,0.1367188,-0.1938477,-0.2817383,-0.1674805
1238,89.0625,-36.3125,165.8125,1.500488,0.7739258,0.125,-0.2055664,-0.2768555,-0.1616211
1242,75.875,-23.9375,141.0625,1.473633,1.061523,0.09423828,-0.2172852,-0.265625,-0.15625
1246,27.875,-22.375,140,1.446289,1.026855,0.08642578,-0.2280273,-0.2583008,-0.1494141
1250,8.5,-20.0625,157,1.46582,0.6069336,0.08642578,-0.234375,-0.2504883,-0.1469727
1254,28,-21.1875,164.5625,1.376465,0.5410156,0.001953125,-0.2436523,-0.2368164,-0.1469727
1258,57.0625,-31,151.9375,1.426758,0.6499023,0.005859375,-0.253418,-0.2270508,-0.1416016
1262,69.8125,-27.125,131.875,1.52002,0.7626953,0.05566406,-0.2578125,-0.2192383,-0.137207
1266,58.75,-16.3125,125,1.554688,0.809082,0.05566406,-0.2651367,-0.2080078,-0.1318359
1270,37.3125,-8.4375,125.25,1.508301,0.777832,0.04785156,-0.2709961,-0.2006836,-0.1279297
1274,31.9375,-1.6875,130.1875,1.481445,0.6030273,0.04785156,-0.2734375,-0.1933594,-0.1279297
1278,49.9375,2.375,135.8125,1.376465,0.6303711,0.01367188,-0.2792969,-0.1845703,-0.1235352
1282,68.6875,-4.9375,124,1.279785,0.8286133,-0.04003906,-0.2851563,-0.1733398,-0.1225586
1286,69.3125,-13.875,98.1875,1.287598,0.972168,-0.009277344,-0.2875977,-0.1694336,-0.1181641
1290,54.8125,-8.3125,79.6875,1.446289,0.90625,0.08642578,-0.2900391,-0.1630859,-0.1166992
1294,31.5625,5.375,77.125,1.368652,0.8520508,0.09814453,-0.2924805,-0.1582031,-0.1142578
1298,2.6875,11.25,87,1.318359,0.7509766,0.1020508,-0.2958984,-0.1533203,-0.1113281
1302,-13.5625,17,103.5625,1.252441,0.6772461,0.05957031,-0.2998047,-0.1430664,-0.1157227
1306,-2.4375,17.75,98.3125,1.179199,0.6772461,0.009765625,-0.3017578,-0.1357422,-0.1181641
1310,14.3125,13.3125,76.625,1.105469,0.7705078,-0.02832031,-0.3032227,-0.1279297,-0.1196289
1314,21.3125,10.6875,53.5,1.128418,0.8051758,-0.001464844,-0.3041992,-0.1230469,-0.1210938
1318,16.25,12.8125,44.3125,1.089844,0.8012695,0.02099609,-0.3041992,-0.1196289,-0.1225586
1322,1.4375,12.375,47.8125,1.101563,0.8442383,0.03662109,-0.3041992,-0.1142578,-0.125
1326,-9.25,13.8125,47.9375,1.155762,0.8129883,0.06347656,-0.3056641,-0.1108398,-0.1264648
1330,1.0625,12.875,37.8125,1.175293,0.8671875,0.04443359,-0.3066406,-0.1069336,-0.125
1334,17.1875,6.6875,2.8125,1.159668,1.053711,0.07519531,-0.3081055,-0.1054688,-0.1279297
1338,17.5,6.75,-31.1875,1.252441,1.178223,0.1132813,-0.3056641,-0.1054688,-0.1279297
1342,1.6875,11,-44.9375,1.314453,1.306641,0.1098633,-0.3041992,-0.109375,-0.1279297
1346,-23.25,14.75,-52.875,1.310547,1.388184,0.07519531,-0.3041992,-0.1132813,-0.1279297
1350,-49.1875,13.8125,-59.25,1.326172,1.384277,0.07128906,-0.3032227,-0.1157227,-0.1289063
1354,-66.0625,15.125,-68.5,1.442383,1.372559,0.105957,-0.3007813,-0.1206055,-0.1303711
1358,-71.9375,21.5625,-85.75,1.531738,1.337402,0.144043,-0.2998047,-0.1230469,-0.1318359
1363,-64.75,26.375,-111.8125,1.527832,1.279297,0.1132813,-0.293457,-0.1308594,-0.1357422
1367,-50.375,26.6875,-139.25,1.566406,1.213379,0.09033203,-0.2915039,-0.1396484,-0.1401367
1371,-35.5625,25.5,-159.5,1.605469,1.124023,0.09033203,-0.2866211,-0.1469727,-0.1416016
1375,-29.625,25.6875,-169.8125,1.651855,1.088867,0.06738281,-0.2792969,-0.1606445,-0.1469727
1379,-31.125,24.75,-177.3125,1.686523,1.049805,0.05566406,-0.2724609,-0.1743164,-0.1494141
1383,-29.0625,25.375,-190.4375,1.736816,0.9956055,0.04443359,-0.2685547,-0.1831055,-0.1523438
1387,-25.8125,26.0625,-203.25,1.771973,0.9375,0.05175781,-0.2602539,-0.1992188,-0.1547852
1391,-24.6875,27.75,-215.75,1.802734,0.90625,0.06738281,-0.2495117,-0.2158203,-0.1591797
1395,-26.4375,28.6875,-223.375,1.779785,0.8325195,0.05566406,-0.2412109,-0.2246094,-0.1616211
1399,-33.625,28.25,-225.8125,1.783691,0.7739258,0.09423828,-0.2270508,-0.2431641,-0.1645508
1403,-40.625,33.3125,-224.75,1.787598,0.7236328,0.105957,-0.215332,-0.2583008,-0.1699219
1407,-41.875,39.125,-228.625,1.744629,0.6342773,0.140625,-0.2021484,-0.2705078,-0.1728516
1411,-32.4375,44,-231.3125,1.694336,0.5019531,0.1367188,-0.184082,-0.2832031,-0.1796875
1415,-21.25,44.25,-227.1875,1.543457,0.5332031,0.09814453,-0.1665039,-0.2954102,-0.1850586
1419,-16.1875,37.3125,-226.75,1.454102,0.5683594,0.07519531,-0.1533203,-0.3017578,-0.1850586
1423,-13.25,31,-220.25,1.388184,0.5253906,0.06738281,-0.1318359,-0.3154297,-0.1865234
1427,-10.875,24.9375,-209.875,1.260254,0.5214844,0.07128906,-0.112793,-0.3242188,-0.1875
1431,-9.625,17.8125,-202.5,1.241211,0.5058594,0.08251953,-0.1010742,-0.3291016,-0.1904297
1435,-3.625,16.6875,-202.5,1.213867,0.4790039,0.1020508,-0.08056641,-0.3354492,-0.1918945
1439,-1.25,16.25,-199.5,1.113281,0.4946289,0.09033203,-0.06298828,-0.3393555,-0.1918945
1443,-7.0625,14.8125,-195.9375,1.035645,0.5058594,0.1020508,-0.04833984,-0.3457031,-0.1918945
1447,-20.125,13.625,-188.25,0.9389648,0.4594727,0.1171875,-0.03173828,-0.3466797,-0.1918945
1451,-31.125,13.75,-177,0.8535156,0.3935547,0.1328125,-0.01269531,-0.3491211,-0.1958008
1455,-40.75,14.4375,-170,0.8071289,0.3310547,0.144043,-0.0009765625,-0.3457031,-0.1972656
1459,-49.5,20.1875,-158.375,0.7758789,0.2338867,0.1289063,0.01416016,-0.3457031,-0.2011719
1463,-57,29.3125,-149.5,0.6557617,0.1835938,0.09423828,0.02978516,-0.3408203,-0.206543
1467,-62.3125,35.3125,-140.75,0.5317383,0.09033203,0.001953125,0.04150391,-0.3369141,-0.2094727
1471,-61.6875,39.25,-132.4375,0.3339844,-0.02978516,-0.07080078,0.05566406,-0.3344727,-0.2133789
1475,-49.625,31.875,-113.4375,0.08642578,-0.1499023,-0.112793,0.06982422,-0.3242188,-0.21875
1479,-29.1875,14.4375,-96.25,-0.04101563,-0.1577148,-0.1245117,0.07617188,-0.3217773,-0.2216797
1483,-10.125,-3.6875,-87.125,-0.09521484,-0.07617188,-0.06298828,0.08544922,-0.3208008,-0.2246094
1487,-5.0625,-16.3125,-76.3125,-0.02197266,0.004882813,0.02490234,0.09375,-0.3144531,-0.2231445
1492,-8.375,-15.5,-62,0.03955078,0.07080078,0.144043,0.09619141,-0.3144531,-0.2255859
1496,-12.875,-11.6875,-50.6875,-0.006347656,0.09423828,0.1787109,0.09863281,-0.3120117,-0.2270508
1500,-14.25,-10.3125,-42.875,-0.06445313,0.09814453,0.1982422,0.1020508,-0.3095703,-0.2285156
1504,-16.25,-10.8125,-34.25,-0.09130859,0.1098633,0.2441406,0.1035156,-0.3056641,-0.2285156
1508,-19.625,-10.375,-25.375,-0.09912109,0.1367188,0.3212891,0.105957,-0.3056641,-0.2299805
1512,-23.75,-5.6875,-20.1875,-0.06054688,0.140625,0.3979492,0.1069336,-0.3017578,-0.2324219
1516,-25.875,1.375,-13.8125,-0.05273438,0.05517578,0.4213867,0.1079102,-0.2993164,-0.2338867
1520,-21.625,9.125,-7.25,-0.08398438,-0.02587891,0.4018555,0.109375,-0.296875,-0.237793
1524,-10.25,13.75,4.0625,-0.1611328,-0.1152344,0.3520508,0.1103516,-0.2954102,-0.237793
1528,6.5625,10.875,20.9375,-0.2270508,-0.1420898,0.3056641,0.1118164,-0.2954102,-0.2353516
1532,25.5625,3.9375,35.5,-0.2119141,-0.09570313,0.2788086,0.1079102,-0.2983398,-0.2353516
1536,43.1875,-0.1875,45.375,-0.1186523,-0.01416016,0.2749023,0.105957,-0.3041992,-0.2338867
1540,55.6875,-0.5,49.75,-0.06445313,0.06689453,0.2597656,0.1035156,-0.3066406,-0.230957
1544,56.0625,0.5,53.4375,0.07470703,0.1523438,0.3173828,0.09863281,-0.3120117,-0.2255859
1548,42.6875,12.5,62,0.1870117,0.1953125,0.3251953,0.09521484,-0.3178711,-0.2216797
1552,20.8125,22.1875,78.5625,0.2138672,0.1757813,0.2749023,0.09277344,-0.3178711,-0.2202148
1556,14.8125,25.75,98.75,0.1870117,0.09033203,0.2172852,0.08691406,-0.3232422,-0.2163086
1560,21.375,25.6875,106.4375,0.2333984,0.1484375,0.1518555,0.07861328,-0.328125,-0.2148438
1564,32.5,31.125,109.75,0.2993164,0.1914063,0.125,0.07373047,-0.3305664,-0.2148438
1568,40.625,32.5625,111.375,0.2294922,0.2299805,0.04785156,0.06640625,-0.3344727,-0.2109375
1572,43,21.3125,116.5,0.2255859,0.315918,-0.02050781,0.05712891,-0.3378906,-0.2026367
1576,34.3125,10.5625,129.25,0.3496094,0.3427734,0.005859375,0.05078125,-0.3417969,-0.2011719
1580,31.0625,6.25,148.3125,0.4311523,0.2768555,0.009765625,0.03808594,-0.3457031,-0.1987305
1584,48.625,-2.5625,159,0.5200195,0.253418,0.03662109,0.0234375,-0.3466797,-0.1958008
1588,70.5625,-1.625,160.25,0.659668,0.3857422,0.06738281,0.01269531,-0.3491211,-0.1904297
1592,70.375,-0.1875,159.25,0.7719727,0.5800781,0.06347656,-0.0009765625,-0.3530273,-0.1835938
1596,50.3125,1,162.6875,0.9423828,0.6538086,0.02490234,-0.01757813,-0.3554688,-0.1767578
1600,39.8125,3.5625,177.75,0.9389648,0.5800781,0.04052734,-0.02587891,-0.3569336,-0.175293
1604,41.75,3.5625,184.5625,0.9038086,0.6030273,0.02490234,-0.04394531,-0.3569336,-0.1728516
1608,49.5625,-0.9375,187.0625,0.9038086,0.6923828,0.001953125,-0.06152344,-0.3520508,-0.1660156
1612,45.5,-8.125,184,0.9775391,0.793457,-0.02832031,-0.07226563,-0.3520508,-0.1660156
1616,27.6875,-16.25,183.0625,1.132324,0.8442383,-0.01318359,-0.09033203,-0.3457031,-0.1591797
1621,20.5625,-19.125,192.5,1.237305,0.6811523,0.05566406,-0.1069336,-0.3417969,-0.1606445
1625,42.0625,-14.375,204.8125,1.237305,0.7001953,0.07910156,-0.1201172,-0.3354492,-0.1577148
1629,61.6875,-18.3125,193.6875,1.233398,0.9257813,0.07519531,-0.1391602,-0.3291016,-0.1538086
1633,58.1875,-19,183.5625,1.372559,1.116211,0.144043,-0.1567383,-0.3232422,-0.1469727
1637,38.375,-7.0625,176.75,1.442383,1.135742,0.1826172,-0.1665039,-0.3154297,-0.144043
1641,27.375,3.25,188.4375,1.345703,1.092773,0.1557617,-0.1806641,-0.3041992,-0.1425781
1645,21.1875,5.125,184.75,1.248535,1.217285,0.04785156,-0.1938477,-0.2919922,-0.1401367
1649,14.875,4.25,170.625,1.26416,1.236328,-0.06689453,-0.203125,-0.2856445,-0.1386719
1653,10,-4.8125,157.125,1.182617,1.17041,-0.128418,-0.2138672,-0.2753906,-0.1357422
1657,-3.6875,-19,146.1875,1.279785,1.112305,-0.05908203,-0.2236328,-0.2631836,-0.1357422
1661,-25.3125,-20.875,139.75,1.353516,1.022949,0.03662109,-0.2294922,-0.2568359,-0.137207
1665,-37.125,-20.625,145.5625,1.349609,0.7973633,0.07519531,-0.237793,-0.2431641,-0.1357422
1669,-19.375,-20.0625,145,1.306641,0.6845703,0.04052734,-0.2460938,-0.2294922,-0.137207
1673,11.8125,-22.4375,133.5,1.314453,0.809082,0.02490234,-0.2519531,-0.2231445,-0.1357422
1677,20.9375,-22.1875,118,1.306641,1.003418,0.03662109,-0.2602539,-0.2128906,-0.1318359
1681,10.0625,-22.5,106.875,1.268066,1.030762,0.05566406,-0.2661133,-0.2045898,-0.1303711
1685,-3,-22.25,99.5,1.279785,0.8671875,0.08642578,-0.2700195,-0.1967773,-0.1279297
1689,-6.8125,-19.125,93.6875,1.26416,0.6655273,0.1289063,-0.2744141,-0.1894531,-0.1279297
1693,3.625,-16.5625,94.4375,1.244629,0.4165039,0.144043,-0.2807617,-0.1806641,-0.125
1697,45.3125,-11.75,96.1875,1.217773,0.2070313,0.08251953,-0.2807617,-0.1767578,-0.125
1701,97.3125,-12.9375,88.0625,1.179199,0.3081055,0.005859375,-0.2866211,-0.1704102,-0.1235352
1705,124,-13.0625,79.5625,1.279785,0.5292969,0.02490234,-0.2900391,-0.1655273,-0.1166992
1709,122.75,2.5625,72.5,1.39209,0.7314453,0.07128906,-0.293457,-0.1621094,-0.112793
1713,96.75,19.3125,74,1.368652,0.8208008,0.09814453,-0.2949219,-0.1606445,-0.1113281
1717,58.6875,33.875,86.625,1.322266,0.8168945,0.08642578,-0.2983398,-0.1533203,-0.1142578
1721,15.375,44,104.3125,1.241211,0.7856445,0.08642578,-0.2983398,-0.1494141,-0.1142578
1725,-14,40.3125,105,1.039551,0.6538086,-0.02050781,-0.3007813,-0.1367188,-0.1210938
1729,15.25,26.5,79.25,0.9814453,0.4829102,-0.06689453,-0.3032227,-0.1254883,-0.1279297
1733,58.6875,20.625,34.0625,0.9892578,0.7739258,-0.08984375,-0.3056641,-0.1220703,-0.1279297
1737,49.4375,18.1875,-1.1875,0.9814453,1.088867,-0.1513672,-0.3032227,-0.1196289,-0.1318359
1741,2.5625,10.75,-9.1875,0.9775391,1.275391,-0.1743164,-0.3017578,-0.1206055,-0.1347656
1745,-41.125,2.25,-14,0.9580078,1.135742,-0.2363281,-0.3041992,-0.1220703,-0.1333008
1750,-50.75,-9.6875,-26.8125,1.035645,1.045898,-0.1899414,-0.3017578,-0.1206055,-0.1357422
1754,-42.3125,-10.875,-43.6875,1.179199,1.108398,-0.128418,-0.3007813,-0.1230469,-0.1318359
1758,-33,-9.0625,-65.125,1.22168,1.236328,-0.1166992,-0.3007813,-0.1269531,-0.1303711
1762,-29.25,-12.1875,-89.625,1.237305,1.380371,-0.128418,-0.2998047,-0.1357422,-0.1289063
1766,-36.875,-17.8125,-105.5625,1.302734,1.531738,-0.1435547,-0.2973633,-0.1469727,-0.1235352
1770,-63.1875,-24.5,-118.625,1.42334,1.679688,-0.1054688,-0.2949219,-0.1508789,-0.1235352
1774,-88.1875,-22.3125,-132.4375,1.612793,1.543457,-0.02832031,-0.2890625,-0.1606445,-0.1196289
1778,-91,-14.9375,-147.75,1.678711,1.380371,0.01708984,-0.2851563,-0.1694336,-0.1235352
1782,-83.875,-10.1875,-165,1.771973,1.302734,0.04443359,-0.2792969,-0.1782227,-0.1210938
1786,-72.5625,-3.25,-185.25,1.849121,1.225098,0.07910156,-0.2744141,-0.1904297,-0.1264648
1790,-63.625,1.5625,-201.1875,1.864746,1.100586,0.08251953,-0.2675781,-0.203125,-0.1289063
1794,-51.8125,6.5,-211.5,1.884277,0.9453125,0.08642578,-0.2617188,-0.2143555,-0.1333008
1798,-38.4375,9.5,-219.8125,1.915039,0.8520508,0.105957,-0.2495117,-0.2294922,-0.1347656
1802,-26.8125,15.1875,-225.125,1.942383,0.7856445,0.1020508,-0.237793,-0.2456055,-0.137207
1806,-22.625,17.125,-228.75,1.899902,0.7509766,0.1020508,-0.2280273,-0.2592773,-0.1386719
1810,-24.375,21.875,-232.125,1.895996,0.7001953,0.105957,-0.2128906,-0.2744141,-0.1425781
1814,-30.5,29.1875,-236.1875,1.853027,0.5991211,0.105957,-0.1962891,-0.2919922,-0.1469727
1818,-31.0625,34.125,-232.9375,1.725586,0.3779297,0.07519531,-0.1806641,-0.3017578,-0.1484375
1822,-17.5625,37.5,-227.5,1.620605,0.1914063,0.03271484,-0.1650391,-0.3144531,-0.1538086
1826,4.8125,35.1875,-220.6875,1.426758,0.1137695,-0.005371094,-0.1435547,-0.3256836,-0.15625
1830,22.625,30.4375,-211.375,1.283691,0.2226563,-0.05908203,-0.1293945,-0.3320313,-0.1577148
1834,22.9375,22.4375,-201.625,1.16748,0.3740234,-0.09375,-0.109375,-0.3442383,-0.1538086
1838,13.6875,15.25,-193.25,1.078125,0.4750977,-0.09765625,-0.09033203,-0.3530273,-0.1494141
1842,6,6.875,-187.375,0.9541016,0.4985352,-0.1206055,-0.078125,-0.3544922,-0.1523438
1846,-0.8125,-3.8125,-185.5625,0.8417969,0.5683594,-0.09765625,-0.06054688,-0.359375,-0.1508789
1850,-20.1875,-13,-182,0.8920898,0.6342773,-0.02050781,-0.04150391,-0.3657227,-0.1523438
1854,-43.5625,-9,-175.0625,0.8842773,0.5952148,0.02880859,-0.03076172,-0.3642578,-0.1508789
1858,-64.375,-8.5,-169.75,0.7993164,0.5371094,0.06738281,-0.01513672,-0.3642578,-0.1577148
1862,-80.1875,-2.6875,-164.3125,0.8300781,0.4321289,0.1210938,0.0009765625,-0.3632813,-0.1616211
1866,-87.4375,5.25,-157.75,0.7099609,0.315918,0.140625,0.01269531,-0.3618164,-0.1699219
1870,-83.6875,8.6875,-153.3125,0.6210938,0.1992188,0.1479492,0.02832031,-0.3569336,-0.1767578
1874,-80.875,15.5625,-146,0.5395508,0.1293945,0.1557617,0.04394531,-0.3491211,-0.1875
1879,-76.8125,20.4375,-127.1875,0.3652344,0.09423828,0.09423828,0.05224609,-0.3481445,-0.1918945
1883,-70.25,17.9375,-114.25,0.2177734,0.09814453,0.05957031,0.06298828,-0.3408203,-0.1987305
1887,-49.3125,12.9375,-106.1875,0.125,-0.02587891,0.08251953,0.07617188,-0.3369141,-0.2041016
1891,-19.625,10.9375,-94.3125,0.07861328,-0.03759766,0.1518555,0.08203125,-0.3320313,-0.2055664
1895,5,11.9375,-75.75,0.02050781,0.1137695,0.1982422,0.09130859,-0.328125,-0.2055664
1899,5.25,10.6875,-66.6875,0.008789063,0.3544922,0.1748047,0.09863281,-0.328125,-0.2055664
1903,-11.8125,8.75,-60.5,-0.01025391,0.4243164,0.1557617,0.1020508,-0.3256836,-0.2041016
1907,-26.625,6.125,-54.9375,-0.03710938,0.315918,0.1787109,0.1079102,-0.3232422,-0.2041016
1911,-29.25,6.25,-45.625,-0.08007813,0.1757813,0.1865234,0.1118164,-0.3178711,-0.2055664
1915,-20.3125,4.1875,-35.3125,-0.1650391,0.09423828,0.1787109,0.1152344,-0.3178711,-0.2080078
1919,-9.5,2.125,-24,-0.1533203,0.1098633,0.1982422,0.1176758,-0.3154297,-0.2109375
1923,-2.4375,1.5,-14.625,-0.1572266,0.1484375,0.1787109,0.1201172,-0.3120117,-0.2133789
1927,2.3125,-1.4375,-9.625,-0.1884766,0.171875,0.2021484,0.1201172,-0.3129883,-0.2109375
1931,4.25,-2.625,-4.4375,-0.1381836,0.1679688,0.2290039,0.1201172,-0.3129883,-0.2094727
1935,1.0625,-1.875,7.0625,-0.1030273,0.1757813,0.2133789,0.1210938,-0.3129883,-0.2109375
1939,1.3125,1.125,16.625,-0.08007813,0.1367188,0.1982422,0.1210938,-0.3144531,-0.2109375
1943,8.1875,2.8125,23.5,-0.1303711,0.1137695,0.144043,0.1201172,-0.3129883,-0.2109375
1947,15.4375,-0.625,31.75,-0.1689453,0.1445313,0.09814453,0.1186523,-0.3193359,-0.2080078
1951,20.375,-8.5625,45,-0.1845703,0.1757813,0.07128906,0.1142578,-0.3178711,-0.2080078
1955,24.6875,-16.875,58.125,-0.09912109,0.2338867,0.09814453,0.1103516,-0.3232422,-0.206543
1959,30.1875,-19.875,64.6875,-0.006347656,0.300293,0.1210938,0.1035156,-0.3232422,-0.206543
1963,29.75,-18.3125,66.75,0.04736328,0.4052734,0.144043,0.09765625,-0.328125,-0.2041016
1967,22,-16.875,70.9375,0.09375,0.4360352,0.1674805,0.09130859,-0.3320313,-0.2026367
1971,11.3125,-16.5625,79.625,0.08251953,0.4052734,0.1635742,0.08447266,-0.3330078,-0.2011719
1975,5.625,-18.1875,89.4375,0.1445313,0.3818359,0.1635742,0.07861328,-0.3369141,-0.199707
1979,5,-17.0625,95.1875,0.190918,0.3466797,0.159668,0.06787109,-0.3378906,-0.199707
1983,11.625,-20.125,102.6875,0.1791992,0.3232422,0.1289063,0.05957031,-0.3408203,-0.2011719
1987,8.1875,-23.875,107.625,0.2568359,0.4086914,0.105957,0.05078125,-0.3408203,-0.199707
1991,-8.3125,-26.5625,111.8125,0.3457031,0.4165039,0.1171875,0.04150391,-0.3432617,-0.1987305
1995,-9.75,-32.9375,128.4375,0.4038086,0.1484375,0.125,0.02978516,-0.3442383,-0.199707
1999,24.9375,-38.9375,135.4375,0.5009766,0.121582,0.1479492,0.01904297,-0.3466797,-0.199707
2003,48.3125,-37.5625,137,0.6518555,0.284668,0.1904297,0.004394531,-0.3442383,-0.1972656
2008,45,-33.125,142.875,0.7836914,0.4985352,0.1904297,-0.01171875,-0.3466797,-0.1918945
2012,33.5625,-26.25,159,0.8574219,0.4672852,0.1557617,-0.02246094,-0.3481445,-0.1918945
2016,47.3125,-22.4375,166.75,0.8222656,0.4516602,0.09814453,-0.03662109,-0.3481445,-0.1875
2020,68.0625,-22.9375,163.625,0.8457031,0.6538086,0.03271484,-0.05322266,-0.3466797,-0.1806641
2024,70.125,-30.4375,161.9375,0.8959961,0.7895508,-0.005371094,-0.06494141,-0.3457031,-0.1767578
2028,66.6875,-34.3125,165.875,0.9931641,0.8129883,0.03662109,-0.08056641,-0.3457031,-0.1713867
2032,64.25,-32.375,169.4375,1.078125,0.8632813,0.1171875,-0.1010742,-0.3432617,-0.1660156
2036,62.8125,-24.625,167.375,1.16748,0.8710938,0.1132813,-0.1103516,-0.3408203,-0.1606445
2040,65.125,-19,164.3125,1.19043,0.9179688,0.07519531,-0.1259766,-0.3354492,-0.1538086
2044,60.3125,-15.8125,160.9375,1.22168,0.9375,0.02490234,-0.1411133,-0.328125,-0.1484375
2048,54.0625,-15.75,165.125,1.194336,0.9375,-0.01660156,-0.1494141,-0.3256836,-0.1455078
2052,37.4375,-19.25,169.1875,1.237305,0.9375,-0.01660156,-0.1665039,-0.3168945,-0.1401367
2056,24.25,-17.8125,175,1.29541,0.90625,-0.001464844,-0.1816406,-0.3081055,-0.1357422
2060,1.25,-16.9375,175.9375,1.306641,0.90625,0.03662109,-0.1889648,-0.3032227,-0.1347656
2064,-10.875,-11.625,180.5,1.337891,0.7431641,0.06738281,-0.2045898,-0.2905273,-0.1347656
2068,3.25,-6.9375,177.5,1.237305,0.5410156,0.009765625,-0.2172852,-0.2753906,-0.1333008
2072,49.625,-17.25,167.4375,1.225586,0.3583984,-0.009277344,-0.2246094,-0.2680664,-0.1333008
2076,117.875,-24.3125,148.6875,1.411621,0.3427734,0.01367188,-0.2353516,-0.2592773,-0.1264648
2080,163.9375,-11.5625,139.6875,1.574219,0.6772461,-0.01660156,-0.2446289,-0.2519531,-0.1166992
2084,151.25,6.25,122.875,1.620605,1.166504,-0.02832031,-0.2485352,-0.2470703,-0.1088867
2088,74.25,23.625,123.625,1.450195,1.454102,-0.07080078,-0.2543945,-0.2431641,-0.1020508
2092,-7.125,17.6875,144.5,1.241211,1.108398,-0.1206055,-0.2626953,-0.2294922,-0.1020508
2096,-22.5625,7.875,156.75,1.209961,0.7739258,-0.109375,-0.2651367,-0.2231445,-0.1020508
2100,12.5,-2.625,150.625,1.248535,0.5722656,-0.05517578,-0.2734375,-0.2055664,-0.1020508
2104,64.5,-1.25,130.25,1.322266,0.6342773,-0.06298828,-0.2817383,-0.1967773,-0.1020508
2108,83.375,2.375,119,1.322266,0.8520508,-0.1015625,-0.2827148,-0.1904297,-0.09765625
2112,65.0625,11.9375,107.5,1.407715,1.06543,-0.05517578,-0.2875977,-0.1821289,-0.09667969
2116,21.75,25.5625,99.0625,1.330078,1.146973,-0.05908203,-0.2924805,-0.1733398,-0.09667969
2120,-22.3125,26.125,104.0625,1.213867,0.9956055,-0.05126953,-0.2949219,-0.1694336,-0.09765625
2124,-46.875,23.9375,110.5,1.175293,0.8671875,-0.01318359,-0.2998047,-0.1591797,-0.1044922
2128,-53.875,25.875,106.375,1.175293,0.7548828,0.02099609,-0.3032227,-0.1430664,-0.1074219
2132,-45.0625,30.1875,103.6875,1.117188,0.6694336,-0.01660156,-0.3041992,-0.1367188,-0.1113281
2137,-36.0625,29.25,92.1875,1.113281,0.7080078,-0.01660156,-0.3056641,-0.1269531,-0.1166992
2141,-22.3125,31.875,70.25,1.097656,0.7158203,-0.04394531,-0.3105469,-0.1181641,-0.1210938
2145,-5.1875,22.4375,44,0.9931641,0.7587891,-0.07470703,-0.309082,-0.1118164,-0.1225586
2149,10.5625,8.5,17.4375,1.047363,0.7666016,-0.05517578,-0.309082,-0.109375,-0.1264648
2153,23.5625,0.5625,-2.9375,1.128418,0.7587891,-0.02441406,-0.3105469,-0.1069336,-0.1279297
2157,27.8125,3.1875,-18.125,1.182617,0.8012695,-0.009277344,-0.309082,-0.1069336,-0.1264648
2161,24.75,7.375,-30.9375,1.171387,0.8520508,-0.05517578,-0.3066406,-0.1108398,-0.1264648
2165,16.125,5.375,-38.625,1.13623,0.9023438,-0.09765625,-0.3066406,-0.1142578,-0.1264648
2169,6.0625,0,-48.375,1.140137,0.972168,-0.09375,-0.3056641,-0.1181641,-0.125
2173,-2.9375,-4.5625,-64,1.248535,1.057617,-0.07080078,-0.3017578,-0.1230469,-0.1225586
2177,-10.75,-2.5,-81.6875,1.306641,1.143066,-0.04736328,-0.3017578,-0.1308594,-0.1196289
2181,-23.0625,-1.6875,-98.1875,1.330078,1.17041,-0.07470703,-0.2998047,-0.1357422,-0.1196289
2185,-34,-1.75,-105.5625,1.395996,1.182129,-0.109375,-0.2958984,-0.1445313,-0.1181641
2189,-46.75,-1.9375,-115.5,1.458008,1.221191,-0.1245117,-0.293457,-0.1557617,-0.1196289
2193,-56.875,-1.25,-130.3125,1.535645,1.197754,-0.1054688,-0.2915039,-0.1606445,-0.1210938
2197,-62.1875,1.75,-145.375,1.616699,1.092773,-0.08203125,-0.2866211,-0.171875,-0.125
2201,-62.125,4.625,-161.1875,1.624512,1.003418,-0.09765625,-0.2792969,-0.1831055,-0.1225586
2205,-66.3125,1.25,-173.25,1.640137,0.9101563,-0.0859375,-0.2768555,-0.1894531,-0.1264648
2209,-75.5,5.5,-180.1875,1.694336,0.809082,-0.05517578,-0.2675781,-0.203125,-0.1318359
2213,-87.9375,13.8125,-178.75,1.69043,0.6884766,-0.04003906,-0.2592773,-0.2182617,-0.1357422
2217,-95.8125,21.4375,-170.625,1.63623,0.5991211,-0.04736328,-0.253418,-0.2216797,-0.1416016
2221,-93,25.3125,-170.0625,1.601563,0.5878906,-0.04394531,-0.2436523,-0.234375,-0.1484375
2225,-76.75,26.0625,-181.1875,1.523926,0.5136719,-0.03613281,-0.234375,-0.2441406,-0.1577148
2229,-48.8125,22.5625,-195.4375,1.442383,0.4790039,-0.01318359,-0.2246094,-0.2519531,-0.1606445
2233,-23.8125,14.375,-204.375,1.399902,0.4672852,0.04052734,-0.2114258,-0.265625,-0.1630859
2237,0,8.3125,-201.5625,1.411621,0.4516602,0.07519531,-0.199707,-0.2807617,-0.1660156
2241,17.0625,2.125,-190.25,1.380371,0.5449219,0.105957,-0.1889648,-0.2866211,-0.1630859
2245,28.4375,-1.3125,-180.0625,1.326172,0.6884766,0.1020508,-0.1748047,-0.2993164,-0.1616211
2249,34.625,-7.75,-189.3125,1.368652,0.8520508,0.1367188,-0.1601563,-0.3144531,-0.1606445
2253,38.25,-5,-200.1875,1.39209,0.8598633,0.1748047,-0.1494141,-0.3217773,-0.1577148
2257,36.0625,-3.9375,-202.8125,1.341797,0.8789063,0.1904297,-0.1328125,-0.3330078,-0.1538086
2261,24.1875,-2.5,-200,1.326172,0.953125,0.2094727,-0.1152344,-0.3432617,-0.1508789
2266,-4.8125,2.8125,-199.125,1.330078,0.9995117,0.2094727,-0.1020508,-0.3505859,-0.1469727
2270,-38,11.1875,-192.5,1.299316,0.8789063,0.1904297,-0.08300781,-0.3579102,-0.1508789
2274,-69.25,21.25,-185.5625,1.186523,0.7895508,0.1210938,-0.06396484,-0.3618164,-0.1547852
2278,-93.3125,25.875,-178.75,1.0625,0.6499023,0.08251953,-0.05078125,-0.359375,-0.1616211
2282,-96.375,27.75,-178.4375,0.9541016,0.4125977,0.05957031,-0.03320313,-0.3603516,-0.1699219
2286,-86.3125,28.0625,-180.5,0.8496094,0.2729492,0.04052734,-0.01269531,-0.3569336,-0.1796875
2290,-76.6875,27.875,-176.8125,0.7060547,0.1640625,0.04443359,-0.001953125,-0.3544922,-0.1865234
2294,-71.3125,28.75,-162,0.6054688,0.09814453,0.04443359,0.01513672,-0.3520508,-0.1928711
2298,-70.625,27.8125,-141.3125,0.4697266,0.07470703,0.02490234,0.03173828,-0.3466797,-0.1987305
2302,-69.375,26.375,-121.3125,0.3730469,0.07470703,0.02490234,0.04150391,-0.3417969,-0.2026367
2306,-64.1875,26.875,-112.4375,0.2685547,0.08251953,0.02099609,0.05322266,-0.3369141,-0.2080078
2310,-55.125,21.9375,-107,0.1713867,0.06298828,0.02880859,0.06640625,-0.3291016,-0.2119141
2314,-42.0625,19.125,-105.25,0.159668,0.06298828,0.1020508,0.07226563,-0.328125,-0.2148438
2318,-32.125,19.625,-102.25,0.08251953,0.08642578,0.1171875,0.08300781,-0.3217773,-0.21875
2322,-32.0625,17.875,-91.8125,0.01269531,0.08642578,0.1171875,0.09375,-0.3168945,-0.2216797
2326,-31.6875,14.3125,-77.0625,-0.03320313,0.05126953,0.1289063,0.09765625,-0.3144531,-0.2231445
2330,-29.5625,13,-63,-0.1030273,0.0009765625,0.1367188,0.105957,-0.3095703,-0.2255859
2334,-21.375,8.4375,-47.4375,-0.1533203,-0.02587891,0.1518555,0.1103516,-0.3066406,-0.2270508
2338,-9.25,5.625,-38.75,-0.1650391,0.01269531,0.1674805,0.1142578,-0.3017578,-0.2270508
2342,-4.375,4.4375,-32.125,-0.1689453,0.07470703,0.1943359,0.1166992,-0.3007813,-0.2299805
2346,-7.125,4.25,-22.6875,-0.1689453,0.1098633,0.2094727,0.1201172,-0.3017578,-0.2299805
2350,-9.4375,4.375,-14.25,-0.1689453,0.07861328,0.2133789,0.1186523,-0.2983398,-0.2255859
2354,-5.625,5.9375,-6.1875,-0.1845703,0.05126953,0.1982422,0.1225586,-0.2983398,-0.2299805
2358,-1.9375,4.375,3.3125,-0.2426758,0.03613281,0.1904297,0.1210938,-0.2983398,-0.2285156
2362,2.875,0.0625,16.1875,-0.2583008,0.01660156,0.1674805,0.1210938,-0.2993164,-0.2285156
2366,9.4375,-4.5,29,-0.2700195,0.01269531,0.1479492,0.1186523,-0.2993164,-0.2285156
2370,20.4375,-10.0625,38.75,-0.2348633,0.008789063,0.1479492,0.1176758,-0.3007813,-0.2270508
2374,34.9375,-15.25,46.125,-0.1962891,0.04394531,0.159668,0.112793,-0.3032227,-0.2255859
2378,45.375,-18.0625,54.5,-0.1264648,0.121582,0.1787109,0.109375,-0.3081055,-0.2255859
2382,44.625,-18.625,62,-0.05664063,0.2070313,0.1904297,0.1035156,-0.3120117,-0.2202148
2386,34.125,-17.0625,71.75,0.03173828,0.2416992,0.1982422,0.09960938,-0.3154297,-0.2202148
2390,28.125,-13.4375,84.75,0.02050781,0.171875,0.1904297,0.09033203,-0.3208008,-0.2177734
2395,33.6875,-14.125,96.625,0.01269531,0.1992188,0.1635742,0.08300781,-0.3266602,-0.2148438
2399,43.1875,-17.375,105.125,0.07470703,0.2573242,0.1367188,0.07470703,-0.328125,-0.2133789
2403,54.6875,-21.9375,112.3125,0.1289063,0.3271484,0.1210938,0.06640625,-0.3330078,-0.2109375
2407,61.9375,-26.4375,114.3125,0.2255859,0.4477539,0.140625,0.0546875,-0.3393555,-0.2041016
2411,59.4375,-28.375,116.125,0.3378906,0.5371094,0.1635742,0.04638672,-0.3432617,-0.199707
2415,46.1875,-25.6875,116.4375,0.4658203,0.5991211,0.1982422,0.03417969,-0.3481445,-0.1958008
2419,25.6875,-19.875,121.9375,0.5395508,0.5527344,0.2172852,0.02001953,-0.3505859,-0.1928711
2423,6.9375,-13.0625,130.75,0.574707,0.4711914,0.1982422,0.01171875,-0.3520508,-0.1904297
2427,0,-9.75,144.3125,0.5708008,0.3388672,0.1289063,0,-0.3505859,-0.1904297
2431,12.8125,-14.4375,154.75,0.5668945,0.3041992,0.05957031,-0.01513672,-0.3505859,-0.1889648
2435,29.6875,-19.4375,155.3125,0.6870117,0.3740234,0.04443359,-0.02490234,-0.3491211,-0.1889648
2439,43.75,-21.0625,154.625,0.7719727,0.4633789,0.02490234,-0.04003906,-0.3505859,-0.1850586
2443,47.0625,-22.875,157.0625,0.8339844,0.5214844,-0.005371094,-0.05566406,-0.3481445,-0.1806641
2447,55.4375,-26.5,163.8125,0.8959961,0.5214844,-0.03613281,-0.06738281,-0.3491211,-0.175293
2451,61.9375,-31.5,166.75,0.9736328,0.5839844,-0.02832031,-0.08544922,-0.3442383,-0.1699219
2455,63.75,-31.6875,169.75,1.105469,0.6342773,-0.02050781,-0.1020508,-0.3417969,-0.1660156
2459,62.9375,-27.8125,173.4375,1.132324,0.6655273,-0.02832031,-0.1113281,-0.3408203,-0.1606445
2463,68,-28,177.3125,1.151855,0.6655273,-0.02832031,-0.1293945,-0.3344727,-0.1547852
2467,84.25,-27.3125,177.5,1.16748,0.7197266,-0.05517578,-0.1450195,-0.3305664,-0.1469727
2471,97.9375,-30.8125,175.8125,1.206055,0.777832,-0.04736328,-0.1557617,-0.3242188,-0.1416016
2475,105,-30.0625,170.625,1.353516,0.9296875,-0.001464844,-0.1733398,-0.3168945,-0.1318359
2479,92.375,-18.875,158.4375,1.500488,1.09668,0.03662109,-0.1865234,-0.3120117,-0.1225586
2483,63,-3.875,152.875,1.496582,1.154785,0.03662109,-0.1962891,-0.3056641,-0.1157227
2487,33.6875,3.625,157,1.442383,1.01123,-0.02050781,-0.2080078,-0.2954102,-0.112793
2491,18.125,2.5,160.9375,1.39209,0.9604492,-0.005371094,-0.2211914,-0.2841797,-0.112793
2495,1.4375,4.9375,158.875,1.42334,0.9140625,0.005859375,-0.2255859,-0.2783203,-0.1098633
2499,-11.25,6.625,157.1875,1.419434,0.8442383,-0.009277344,-0.2363281,-0.265625,-0.1113281
2503,-20.375,6.75,153.9375,1.450195,0.7314453,0.01367188,-0.2460938,-0.2519531,-0.1142578
2507,-14.9375,10.0625,153.75,1.461914,0.6655273,0.01708984,-0.2509766,-0.2416992,-0.1157227
2511,-10.875,12.8125,147,1.372559,0.6884766,0.009765625,-0.2602539,-0.2304688,-0.1157227
2515,-14.375,9.5,141.375,1.357422,0.6381836,-0.01660156,-0.2661133,-0.2167969,-0.1210938
2519,-12.625,6.25,144.625,1.326172,0.4985352,-0.01660156,-0.2709961,-0.2094727,-0.1210938
2524,13.3125,3.8125,151.0625,1.333984,0.3740234,-0.04003906,-0.2758789,-0.1943359,-0.1181641
2528,48.25,1.5,147.4375,1.306641,0.4829102,-0.05517578,-0.2817383,-0.1831055,-0.1181641
2532,69,-3.625,133.375,1.268066,0.6459961,-0.07080078,-0.2851563,-0.1767578,-0.1166992
2536,58.6875,-2.0625,120.125,1.333984,0.8481445,-0.005371094,-0.2915039,-0.1669922,-0.112793
2540,7,2.25,124.0625,1.322266,0.8442383,0.04785156,-0.2949219,-0.1567383,-0.112793
2544,-19.1875,5.75,151.8125,1.380371,0.5449219,0.04443359,-0.2983398,-0.1479492,-0.1142578
2548,-1.8125,6.0625,165.6875,1.345703,0.5058594,0.01708984,-0.3032227,-0.1333008,-0.1157227
2552,20.875,0.875,153.5625,1.291504,0.6225586,-0.01318359,-0.3056641,-0.1166992,-0.1166992
2556,30.6875,-3.1875,134,1.326172,0.6459961,-0.02050781,-0.3105469,-0.1069336,-0.1157227
2560,27.5625,-3.375,116.75,1.345703,0.6420898,-0.03222656,-0.3115234,-0.09570313,-0.1157227
2564,17.6875,-2.4375,104.3125,1.279785,0.5449219,-0.03222656,-0.3164063,-0.08447266,-0.1181641
2568,30.3125,-9.5,108.4375,1.213867,0.1953125,-0.005371094,-0.3173828,-0.07714844,-0.1181641
2572,80.5,-19.6875,124.5,1.333984,0.2265625,-0.0859375,-0.3188477,-0.06445313,-0.1196289
2576,116.125,-13.6875,120.3125,1.546875,0.5991211,-0.04394531,-0.3222656,-0.05322266,-0.1196289
2580,107.5625,14,81.8125,1.608887,1.162598,-0.04003906,-0.3222656,-0.046875,-0.1225586
2584,63.125,37,34.75,1.333984,1.271484,-0.09375,-0.3198242,-0.04296875,-0.1264648
2588,25.75,32.5625,5.75,1.260254,1.13916,-0.1591797,-0.3198242,-0.03955078,-0.1289063
2592,-0.1875,24.1875,-20.6875,1.241211,1.092773,-0.1860352,-0.3188477,-0.03955078,-0.1289063
2596,-21.5,17.0625,-47.375,1.345703,1.061523,-0.2055664,-0.3173828,-0.04589844,-0.1279297
2600,-40.5625,17.0625,-67.8125,1.430664,0.9838867,-0.1977539,-0.3149414,-0.05078125,-0.125
2604,-53.25,20.4375,-85.625,1.477539,0.9023438,-0.2089844,-0.3139648,-0.05712891,-0.125
2608,-57.75,22.25,-105,1.496582,0.8208008,-0.2324219,-0.3115234,-0.06835938,-0.1235352
2612,-56.125,16.375,-123.9375,1.473633,0.777832,-0.2514648,-0.3105469,-0.07714844,-0.1225586
2616,-51.125,6.375,-141.8125,1.531738,0.7158203,-0.2055664,-0.309082,-0.08300781,-0.1235352
2620,-44,0.375,-160.1875,1.620605,0.6884766,-0.1513672,-0.3056641,-0.09814453,-0.1235352
2624,-37.3125,-3.3125,-175.625,1.682617,0.6733398,-0.1245117,-0.3032227,-0.1118164,-0.1264648
2628,-30.5625,-7.3125,-190.5,1.740723,0.6655273,-0.08203125,-0.3007813,-0.1220703,-0.1235352
2632,-28.4375,-9.75,-205,1.806641,0.6694336,-0.06298828,-0.2958984,-0.1396484,-0.125
2636,-32.125,-10.6875,-215.1875,1.856934,0.6499023,-0.01660156,-0.2890625,-0.1582031,-0.125
2640,-39.25,-11.3125,-219.75,1.864746,0.6030273,-0.005371094,-0.2866211,-0.1704102,-0.1264648
2644,-45.5,-10.5,-220.875,1.911133,0.5449219,0.01708984,-0.2783203,-0.1879883,-0.1289063
2648,-49.875,-9.5625,-224.25,1.911133,0.5136719,0.03271484,-0.2700195,-0.2070313,-0.1279297
2653,-51.25,-8,-227.6875,1.895996,0.3974609,0.09423828,-0.2626953,-0.2207031,-0.1289063
2657,-40.75,-4.6875,-226.4375,1.93457,0.300293,0.1479492,-0.2519531,-0.2358398,-0.1347656
2661,-21.75,3.4375,-220.25,1.938477,0.2495117,0.1826172,-0.2387695,-0.2543945,-0.1347656
2665,-5.125,11.75,-209.5625,1.841797,0.3623047,0.2021484,-0.2304688,-0.265625,-0.1357422
2669,-0.75,20.3125,-207,1.670898,0.4672852,0.1518555,-0.215332,-0.2817383,-0.137207
2673,5.125,20.125,-205.625,1.574219,0.4790039,0.09814453,-0.1972656,-0.296875,-0.137207
2677,8.75,13.6875,-208.375,1.48877,0.5952148,0.02880859,-0.1855469,-0.3066406,-0.1357422
2681,-1,3.5625,-216.5625,1.461914,0.6420898,0.03271484,-0.1699219,-0.3208008,-0.137207
2685,-17.0625,0.375,-218.3125,1.48877,0.5952148,0.08642578,-0.1494141,-0.3305664,-0.137207
2689,-39.5625,3.9375,-217.1875,1.446289,0.5488281,0.1098633,-0.1391602,-0.3393555,-0.1386719
2693,-66.625,13.5625,-212.75,1.407715,0.4790039,0.09033203,-0.1176758,-0.3457031,-0.1416016
2697,-90.3125,24.6875,-203.5,1.275879,0.3427734,0.09423828,-0.09716797,-0.3520508,-0.1484375
2701,-107.25,34.5625,-191.8125,1.155762,0.2265625,0.06738281,-0.08544922,-0.3530273,-0.15625
2705,-115.625,45.25,-179.75,1.027832,0.1367188,0.001953125,-0.06494141,-0.3554688,-0.1660156
2709,-117.625,50.9375,-168.5,0.8691406,0.07470703,-0.05517578,-0.04492188,-0.3530273,-0.1796875
2713,-117.4375,52.625,-163.9375,0.7641602,0.01660156,-0.1054688,-0.03320313,-0.3520508,-0.1865234
2717,-112.0625,54.8125,-155.25,0.6015625,-0.04150391,-0.1513672,-0.01757813,-0.3457031,-0.1987305
2721,-105.125,53.875,-142.5625,0.4194336,-0.09570313,-0.1401367,0.002441406,-0.3417969,-0.2080078
2725,-96.375,50.9375,-127.0625,0.2724609,-0.1420898,-0.128418,0.01269531,-0.3369141,-0.2148438
2729,-82.75,44.9375,-110.6875,0.1289063,-0.1733398,-0.1401367,0.02734375,-0.3291016,-0.2231445
2733,-66.75,35.0625,-100.75,0.004882813,-0.1655273,-0.1245117,0.0390625,-0.3242188,-0.2285156
2737,-53.5625,24.125,-95.75,-0.06835938,-0.1347656,-0.08203125,0.04492188,-0.3217773,-0.2299805
2741,-43.5,11.125,-86.875,-0.1186523,-0.1459961,-0.04394531,0.0546875,-0.3144531,-0.2353516
2745,-34.875,-0.4375,-73.1875,-0.1186523,-0.1499023,0.02099609,0.06298828,-0.3144531,-0.2407227
2749,-29.5,-5.25,-57.625,-0.09912109,-0.1347656,0.08642578,0.06542969,-0.3081055,-0.2407227
2753,-26.9375,-5.4375,-42.5,-0.06054688,-0.1074219,0.1865234,0.06982422,-0.3056641,-0.2436523
2757,-23.625,1.875,-34.1875,-0.03320313,-0.08789063,0.2441406,0.07373047,-0.3017578,-0.2460938
2761,-20.9375,10,-26.9375,-0.09130859,-0.07617188,0.2519531,0.07470703,-0.3007813,-0.2460938
2765,-20.1875,9.625,-15.9375,-0.1884766,-0.09960938,0.2290039,0.07861328,-0.2993164,-0.2475586
2769,-15.0625,4.5625,-1.1875,-0.2080078,-0.1347656,0.2060547,0.07958984,-0.2983398,-0.25
2773,-3.0625,-2.1875,13.1875,-0.2192383,-0.1733398,0.1826172,0.08056641,-0.2983398,-0.25
2777,8.8125,-9,27.25,-0.2270508,-0.1577148,0.144043,0.07861328,-0.296875,-0.25
2782,20.625,-18.3125,41.8125,-0.215332,-0.1381836,0.144043,0.07373047,-0.2993164,-0.2490234
2786,33.125,-27.9375,56.4375,-0.1728516,-0.1269531,0.1479492,0.07128906,-0.3032227,-0.2490234
2790,47.625,-34.125,70.25,-0.06835938,-0.06054688,0.2060547,0.06298828,-0.3066406,-0.2460938
2794,56.875,-33.875,80.125,0.01660156,0.04003906,0.2060547,0.05566406,-0.3105469,-0.2436523
2798,58.5,-35.6875,90.625,0.08642578,0.140625,0.1865234,0.04882813,-0.3144531,-0.2392578
2802,56.4375,-34.375,92,0.2216797,0.2338867,0.2133789,0.0390625,-0.3193359,-0.2368164
2806,56.6875,-27.4375,90.1875,0.2451172,0.203125,0.2094727,0.02978516,-0.3242188,-0.2324219
2810,58.5625,-26.5,96.8125,0.2333984,0.1953125,0.2060547,0.02148438,-0.328125,-0.2255859
2814,58.375,-27.625,110.0625,0.3071289,0.2456055,0.1826172,0.01171875,-0.3305664,-0.2216797
2818,52.375,-28.1875,118.125,0.4389648,0.300293,0.144043,0,-0.3344727,-0.2163086
2822,49.75,-30.1875,127.4375,0.5126953,0.2924805,0.1289063,-0.009277344,-0.3354492,-0.2119141
2826,54.125,-27.3125,131.0625,0.5629883,0.2924805,0.1328125,-0.02246094,-0.3369141,-0.2080078
2830,66.3125,-27.4375,134.5625,0.5629883,0.300293,0.1020508,-0.03515625,-0.3378906,-0.2041016
2834,71.5625,-31.8125,137.75,0.675293,0.4086914,0.06738281,-0.04492188,-0.3408203,-0.1987305
2838,60,-31.5,141.4375,0.8457031,0.5097656,0.07128906,-0.06152344,-0.3408203,-0.1918945
2842,35.875,-24.1875,152.5,0.9501953,0.5527344,0.08642578,-0.07324219,-0.3408203,-0.1875
2846,7.6875,-14.6875,164.4375,0.9814453,0.5683594,0.09423828,-0.08398438,-0.3369141,-0.1865234
2850,-11.8125,-8.75,175.8125,0.9077148,0.4946289,0.06738281,-0.09863281,-0.3320313,-0.1835938
2854,-18.1875,-15.5625,185.1875,0.9077148,0.4399414,-0.02050781,-0.1152344,-0.3242188,-0.1865234
2858,-6.6875,-29.625,188.25,1.023926,0.4086914,-0.05126953,-0.1259766,-0.3178711,-0.1875
2862,10.625,-43.125,177.9375,1.159668,0.4946289,-0.05517578,-0.1450195,-0.3095703,-0.1806641
2866,20.4375,-45.8125,164.1875,1.271973,0.5644531,0.02099609,-0.1616211,-0.2993164,-0.1821289
2870,23.9375,-43.125,157.4375,1.198242,0.5410156,0.07128906,-0.1708984,-0.2919922,-0.1782227
2874,22.4375,-48.125,166.375,1.206055,0.5214844,0.06738281,-0.1831055,-0.2841797,-0.175293
2878,28.1875,-55,178.1875,1.333984,0.5332031,0.07128906,-0.1982422,-0.2729492,-0.1713867
2882,36.1875,-57.125,176.0625,1.46582,0.5913086,0.07128906,-0.2089844,-0.265625,-0.1645508
2886,44,-53.875,164.0625,1.570313,0.6655273,0.1020508,-0.2211914,-0.2543945,-0.1606445
2890,44.5625,-41.6875,149.375,1.566406,0.6694336,0.1289063,-0.2329102,-0.2441406,-0.1523438
2894,37.4375,-33.625,143.5,1.484863,0.6030273,0.1020508,-0.2412109,-0.2358398,-0.1494141
2898,41.75,-34,151.375,1.500488,0.4907227,0.01367188,-0.2495117,-0.2280273,-0.1484375
2902,58.125,-38.9375,157.6875,1.512207,0.5761719,0.005859375,-0.2578125,-0.2128906,-0.1416016
2906,67.6875,-38.5625,148.0625,1.574219,0.7509766,0.001953125,-0.2636719,-0.2080078,-0.137207
2911,59.125,-31.625,128.4375,1.578125,0.8481445,0.02880859,-0.2724609,-0.1982422,-0.1264648
2915,22.5625,-24.125,122.125,1.523926,0.8671875,0.06347656,-0.2792969,-0.1870117,-0.1279297
2919,-15.375,-23.3125,128.9375,1.508301,0.6186523,0.08642578,-0.2827148,-0.1806641,-0.125
2923,-18.9375,-24.0625,144.4375,1.558594,0.3857422,0.06738281,-0.2851563,-0.1669922,-0.1235352
2927,4.5,-26.5,151.875,1.597656,0.4399414,0.08251953,-0.2924805,-0.1518555,-0.1210938
2931,19.3125,-19,134.1875,1.601563,0.6577148,0.105957,-0.2973633,-0.1455078,-0.1196289
2935,14.8125,-9.1875,110.6875,1.477539,0.6884766,0.09814453,-0.3017578,-0.1333008,-0.1166992
2939,8.8125,-7.25,105.125,1.388184,0.5136719,0.06347656,-0.3041992,-0.1230469,-0.1166992
2943,22.75,-9.8125,109.5,1.353516,0.3896484,0.04785156,-0.3066406,-0.1157227,-0.1166992
2947,56.3125,-10.625,110,1.376465,0.4516602,0.05566406,-0.3105469,-0.1069336,-0.1166992
2951,83.9375,-6.9375,96.75,1.399902,0.7236328,0.04052734,-0.309082,-0.09814453,-0.1142578
2955,94.8125,3.6875,65.0625,1.380371,0.953125,0.005859375,-0.3125,-0.09423828,-0.112793
2959,80.75,10.6875,37.375,1.209961,1.17041,-0.06689453,-0.3149414,-0.08935547,-0.1142578
2963,40.6875,6.1875,28.3125,1.117188,1.217285,-0.128418,-0.3149414,-0.08691406,-0.1166992
2967,2.75,-1.25,27.8125,1.128418,1.12793,-0.1245117,-0.3139648,-0.08691406,-0.1166992
2971,-17.9375,-5.625,21,1.179199,1.022949,-0.08203125,-0.3149414,-0.08447266,-0.1181641
2975,-21.0625,-4.25,4.75,1.260254,0.9643555,-0.03222656,-0.3164063,-0.08203125,-0.1181641
2979,-19.125,0.75,-20.25,1.279785,0.9682617,-0.005371094,-0.3164063,-0.08203125,-0.1166992
2983,-20.625,3.5625,-42.9375,1.268066,0.9140625,0.005859375,-0.3173828,-0.08447266,-0.1166992
2987,-22.4375,3.5625,-54.375,1.271973,0.8481445,0.02099609,-0.3139648,-0.08935547,-0.1166992
2991,-21.1875,3.875,-62.5,1.314453,0.8286133,0.03271484,-0.3139648,-0.09179688,-0.1142578
2995,-16.3125,3.5625,-74.4375,1.341797,0.855957,0.04052734,-0.3125,-0.1005859,-0.112793
2999,-11.3125,5.375,-91.9375,1.426758,0.9023438,0.06738281,-0.3105469,-0.1083984,-0.1157227
3003,-9.8125,10.6875,-109.5625,1.492676,0.9414063,0.07128906,-0.309082,-0.1132813,-0.112793
3007,-13.1875,15.25,-123,1.550781,0.9760742,0.07910156,-0.3041992,-0.1254883,-0.1157227
3011,-21.625,18.1875,-132.3125,1.601563,0.9956055,0.09033203,-0.2998047,-0.1357422,-0.1157227
3015,-28.9375,24.5625,-143.25,1.686523,0.987793,0.07128906,-0.2983398,-0.1430664,-0.1166992
3019,-34.5,30.6875,-149.75,1.686523,0.9682617,0.04785156,-0.2924805,-0.1567383,-0.1210938
3023,-38.375,32.875,-159,1.694336,0.972168,-0.009277344,-0.2866211,-0.1694336,-0.1225586
3027,-36.375,33.8125,-171.1875,1.702148,0.8984375,-0.03222656,-0.2817383,-0.1782227,-0.1279297
3031,-32,33.625,-186.9375,1.706055,0.8632813,-0.06689453,-0.2734375,-0.1918945,-0.1333008
3035,-31.3125,32.625,-196.5625,1.670898,0.8051758,-0.07080078,-0.2636719,-0.2094727,-0.1357422
3040,-34,28.625,-198.75,1.663574,0.7470703,-0.0859375,-0.2568359,-0.2207031,-0.1386719
3044,-37.75,26.1875,-196,1.647949,0.6923828,-0.07080078,-0.2460938,-0.2329102,-0.1455078
3048,-44.4375,25.25,-195.5625,1.616699,0.7041016,-0.09765625,-0.234375,-0.2480469,-0.1494141
3052,-56.5,22.0625,-200.125,1.531738,0.6772461,-0.128418,-0.2255859,-0.2568359,-0.1508789
3056,-71.125,17.0625,-201.4375,1.48877,0.5952148,-0.1474609,-0.2114258,-0.2705078,-0.1577148
3060,-81,13.375,-197.9375,1.430664,0.4750977,-0.1435547,-0.1972656,-0.2807617,-0.1645508
3064,-75,8.25,-189.125,1.287598,0.3818359,-0.1513672,-0.1889648,-0.2866211,-0.1660156
3068,-60.8125,-2.375,-191,1.244629,0.3701172,-0.112793,-0.1733398,-0.2954102,-0.1728516
3072,-38.875,-10.3125,-196.6875,1.229492,0.3623047,-0.06298828,-0.1591797,-0.3056641,-0.1767578
3076,-33,-17.75,-199.1875,1.241211,0.4477539,0.009765625,-0.1494141,-0.3105469,-0.1782227
3080,-41.875,-15.75,-195.4375,1.279785,0.4672852,0.09814453,-0.1328125,-0.3193359,-0.175293
3084,-56.5625,-7.0625,-181.6875,1.233398,0.4360352,0.1289063,-0.1162109,-0.3256836,-0.1821289
3088,-65.5625,-1.5,-161.875,1.155762,0.3974609,0.1713867,-0.1079102,-0.328125,-0.1865234
3092,-71.25,5.5625,-151.25,1.124512,0.4477539,0.2060547,-0.09375,-0.3320313,-0.1928711
3096,-81.3125,15.5625,-148.875,1.02002,0.4321289,0.2060547,-0.078125,-0.3330078,-0.1972656
3100,-82.0625,21.6875,-146.0625,0.9116211,0.3081055,0.2402344,-0.06982422,-0.3330078,-0.2026367
3104,-69,30.375,-138.0625,0.8457031,0.21875,0.2827148,-0.05566406,-0.3305664,-0.2109375
3108,-53.375,38.8125,-131.875,0.7875977,0.3310547,0.2827148,-0.04150391,-0.328125,-0.2163086
3112,-49,44.3125,-123.375,0.7177734,0.4516602,0.2675781,-0.03173828,-0.3291016,-0.2202148
3116,-57.0625,49,-116.875,0.6557617,0.5839844,0.2402344,-0.01855469,-0.3266602,-0.2255859
3120,-79.875,52.625,-114.375,0.574707,0.6616211,0.2094727,-0.005859375,-0.3242188,-0.230957
3124,-100.3125,57.1875,-113.5,0.5239258,0.5488281,0.2250977,0.004394531,-0.3193359,-0.2353516
3128,-104.1875,60.5625,-115.9375,0.4233398,0.3701172,0.1518555,0.01757813,-0.3120117,-0.2446289
3132,-91.625,59.375,-121.875,0.3188477,0.1757813,0.140625,0.03173828,-0.3056641,-0.2543945
3136,-73.5,59.625,-120.4375,0.2568359,0.01269531,0.140625,0.04052734,-0.2993164,-0.2568359
3140,-60.875,58.6875,-105.125,0.1518555,-0.04150391,0.1367188,0.0546875,-0.2929688,-0.2597656
3144,-56.375,55.625,-85.75,0.06298828,-0.06835938,0.09814453,0.06884766,-0.2841797,-0.2651367
3148,-51.8125,51.625,-69.875,-0.04882813,-0.08007813,0.04785156,0.07373047,-0.2817383,-0.2680664
3152,-44.25,43.1875,-59.625,-0.1225586,-0.1074219,0.01367188,0.08300781,-0.2768555,-0.269043
3156,-30.8125,36.25,-50.6875,-0.2080078,-0.1694336,-0.02832031,0.08886719,-0.2719727,-0.2705078
3160,-14.75,26.375,-40.625,-0.2734375,-0.2124023,-0.07861328,0.09375,-0.2680664,-0.2680664
3164,1.75,13.1875,-28.5625,-0.3974609,-0.2548828,-0.05126953,0.09765625,-0.2670898,-0.2719727
3169,15.375,-4.75,-12.125,-0.3935547,-0.2470703,-0.009277344,0.09960938,-0.2680664,-0.2705078
3173,24.1875,-20.9375,8.0625,-0.3085938,-0.2163086,0.03662109,0.1010742,-0.2680664,-0.269043
3177,31.25,-26.75,21.625,-0.1533203,-0.1616211,0.1479492,0.09765625,-0.2705078,-0.2705078
3181,37.6875,-20.4375,25.5625,-0.05664063,-0.09960938,0.2021484,0.09521484,-0.2729492,-0.269043
3185,39.125,-15.3125,33.125,-0.05664063,-0.04541016,0.2060547,0.09277344,-0.2783203,-0.2666016
3189,34.1875,-13.125,43.5,-0.07617188,0.01660156,0.1982422,0.08789063,-0.2807617,-0.2636719
3193,28.25,-17.3125,58.9375,-0.09912109,0.0009765625,0.159668,0.08203125,-0.2841797,-0.2626953
3197,31.3125,-26.1875,71.0625,-0.04101563,-0.02978516,0.1635742,0.07861328,-0.2880859,-0.2597656
3201,42.0625,-32.375,80.25,0.07470703,-0.02197266,0.1826172,0.06982422,-0.2895508,-0.2583008
3205,50.875,-32.5,86.375,0.1987305,0.05908203,0.2094727,0.06298828,-0.2944336,-0.2543945
3209,49.4375,-24.25,92.4375,0.2797852,0.1601563,0.2250977,0.05566406,-0.3007813,-0.2543945
3213,42.5625,-16.375,101.125,0.2412109,0.203125,0.1865234,0.04638672,-0.3081055,-0.2490234
3217,43.875,-20.375,111.875,0.1870117,0.15625,0.125,0.03564453,-0.3081055,-0.2460938
3221,54.375,-34.9375,120.5625,0.2529297,0.1640625,0.1098633,0.02978516,-0.3144531,-0.2421875
3225,63.8125,-44.5,121.625,0.4428711,0.1875,0.1479492,0.01757813,-0.3168945,-0.2392578
3229,67.75,-41,127.8125,0.6870117,0.2226563,0.1943359,0.0009765625,-0.3217773,-0.2338867
3233,71.8125,-28.8125,142.25,0.7529297,0.284668,0.1943359,-0.0078125,-0.3256836,-0.2285156
3237,75.125,-19.6875,154.5,0.7021484,0.4052734,0.1635742,-0.02099609,-0.3291016,-0.2231445
3241,69.1875,-19.5,164.125,0.6982422,0.6108398,0.1171875,-0.03515625,-0.3305664,-0.2163086
3245,39.4375,-23,165.25,0.7758789,0.8051758,0.08251953,-0.04736328,-0.3305664,-0.2119141
3249,6.75,-26.875,167.375,0.8222656,0.7353516,0.09033203,-0.06152344,-0.328125,-0.2094727
3253,-10.1875,-31.0625,170.3125,0.9116211,0.5952148,0.1479492,-0.07958984,-0.3256836,-0.2080078
3257,-17.8125,-31.6875,176.875,1.031738,0.5800781,0.1865234,-0.09130859,-0.3178711,-0.2094727
3261,-25.25,-35.25,185.5625,1.132324,0.5566406,0.2402344,-0.1079102,-0.3120117,-0.2080078
3265,-23.9375,-36.125,184.25,1.260254,0.5253906,0.2866211,-0.1245117,-0.3017578,-0.2080078
3269,-18.6875,-30.3125,176.0625,1.306641,0.4711914,0.2749023,-0.1342773,-0.2929688,-0.2094727
3273,-10.6875,-29.25,172.8125,1.318359,0.3779297,0.2368164,-0.1508789,-0.2841797,-0.2109375
3277,8.625,-28.375,182.625,1.376465,0.2768555,0.1787109,-0.1625977,-0.2744141,-0.2094727
3281,39.5,-31.75,192.875,1.287598,0.4086914,0.09423828,-0.1748047,-0.2670898,-0.2080078
3285,61.875,-43.5625,186.875,1.349609,0.5175781,0.04443359,-0.1875,-0.2568359,-0.2041016
3289,75.75,-51.5,181.625,1.496582,0.6381836,0.06738281,-0.2021484,-0.2495117,-0.1943359
3293,71.6875,-51.625,175,1.589844,0.7509766,0.09423828,-0.2114258,-0.2431641,-0.1904297
3298,55.8125,-49.375,176.875,1.616699,0.7080078,0.125,-0.2246094,-0.2329102,-0.1821289
3302,56.125,-46.5,189.125,1.620605,0.5800781,0.1328125,-0.2363281,-0.2231445,-0.1767578
3306,79.875,-45.9375,186.0625,1.582031,0.6303711,0.06347656,-0.2446289,-0.2128906,-0.1713867
3310,112.5,-47.75,171.0625,1.585938,0.7587891,0.04052734,-0.253418,-0.2006836,-0.1630859
3314,125.375,-43.25,141.75,1.589844,0.9838867,0.02490234,-0.2617188,-0.1958008,-0.1538086
3318,94.3125,-37.125,127,1.52002,1.053711,0.04785156,-0.2661133,-0.1904297,-0.1484375
3322,49.0625,-32.625,140.9375,1.601563,0.8364258,0.08251953,-0.2734375,-0.1821289,-0.1425781
3326,26.125,-25.5,162.75,1.605469,0.8012695,0.08642578,-0.2792969,-0.1694336,-0.137207
3330,5.3125,-20.0625,162.125,1.504395,0.9375,0.09423828,-0.2851563,-0.1606445,-0.1347656
3334,-16.125,-16.4375,144.4375,1.438477,0.9101563,0.09423828,-0.2900391,-0.1455078,-0.1347656
3338,-32.9375,-14.375,127.8125,1.349609,0.7041016,0.06738281,-0.2949219,-0.1333008,-0.1333008
3342,-39.125,-18.5625,123.8125,1.29541,0.4321289,0.06738281,-0.2973633,-0.1220703,-0.1333008
3346,-15.75,-23.375,133.125,1.345703,0.1875,0.09814453,-0.3017578,-0.1083984,-0.1318359
3350,30.625,-23.9375,128.0625,1.376465,0.2148438,0.1171875,-0.3056641,-0.09326172,-0.1318359
3354,81.4375,-18.5,105.5625,1.415527,0.3779297,0.105957,-0.3081055,-0.08544922,-0.1333008
3358,131.625,-13.5625,78.875,1.403809,0.4985352,0.1020508,-0.3105469,-0.07714844,-0.1333008
3362,228.25,-10.5625,53.4375,1.492676,0.6225586,0.2905273,-0.3125,-0.06933594,-0.137207
3366,269.125,0.625,-104.8125,1.663574,2.875977,0.01708984,-0.3115234,-0.07421875,-0.1425781
3370,56.0625,32.625,-47.5,1.337891,2.581055,0.005859375,-0.3081055,-0.08544922,-0.1455078
3374,-48.5,35.375,-18.8125,0.8730469,1.275391,-0.112793,-0.3056641,-0.09179688,-0.1484375
3378,-89.5625,21.75,21.375,1.113281,0.921875,-0.1054688,-0.3041992,-0.08935547,-0.144043
3382,-81.625,13.6875,17.8125,1.0625,0.7739258,-0.08984375,-0.3032227,-0.08691406,-0.1416016
3386,-44,2.8125,-23.75,1.09375,0.824707,-0.04736328,-0.3041992,-0.08935547,-0.1401367
3390,-10.375,2.25,-84.5,1.202148,0.9760742,-0.001464844,-0.3032227,-0.09082031,-0.1357422
3394,-8,2.5,-119.25,1.229492,0.9682617,0.02490234,-0.3017578,-0.1044922,-0.1333008
3398,-22.9375,0.4375,-121.875,1.268066,0.8671875,0.04785156,-0.2998047,-0.1181641,-0.1318359
3402,-40.625,1.5,-110.125,1.330078,0.8129883,0.01367188,-0.2998047,-0.1269531,-0.1318359
3406,-43.875,-1.25,-104.4375,1.364746,0.7895508,-0.02050781,-0.2949219,-0.1342773,-0.1303711
3410,-29.75,-4.1875,-115.375,1.454102,0.7895508,-0.02441406,-0.2915039,-0.1455078,-0.1289063
3414,-9.125,-6.9375,-134.0625,1.535645,0.875,0.009765625,-0.2890625,-0.1533203,-0.1289063
3418,4.75,-6.75,-157.1875,1.63623,1.003418,0.05175781,-0.2851563,-0.1655273,-0.1318359
3422,1.875,-5.0625,-179.375,1.674805,1.077148,0.05175781,-0.2783203,-0.1821289,-0.1289063
3427,-15.5,-2.5,-187.3125,1.744629,1.038574,0.04785156,-0.2734375,-0.1904297,-0.1289063
3431,-37.75,4.5625,-184.25,1.787598,0.953125,0.02880859,-0.2661133,-0.2055664,-0.1303711
3435,-55.875,10.0625,-179,1.748535,0.890625,-0.001464844,-0.2578125,-0.2216797,-0.1333008
3439,-64.9375,13,-178.375,1.72168,0.793457,-0.02050781,-0.2509766,-0.2270508,-0.137207
3443,-58.9375,13.1875,-185.25,1.655762,0.7041016,-0.02441406,-0.237793,-0.2392578,-0.1416016
3447,-41.9375,12.1875,-194.6875,1.640137,0.6420898,-0.001464844,-0.2280273,-0.2543945,-0.1469727
3451,-20.875,12.1875,-206.4375,1.616699,0.6069336,0.005859375,-0.2197266,-0.2631836,-0.144043
3455,-6.6875,11.375,-214.0625,1.59375,0.6186523,0.009765625,-0.2045898,-0.2783203,-0.1508789
3459,-9.1875,9.6875,-213.625,1.558594,0.6577148,0.01708984,-0.1899414,-0.2919922,-0.1494141
3463,-19.25,11.75,-204.6875,1.52002,0.6225586,0.03271484,-0.1806641,-0.3017578,-0.1508789
3467,-32.25,12.3125,-195.9375,1.461914,0.6772461,0.02490234,-0.1625977,-0.3129883,-0.1523438
3471,-48.3125,13.625,-192.9375,1.454102,0.6577148,0.04052734,-0.1474609,-0.3232422,-0.15625
3475,-58,18.375,-190.5,1.411621,0.6147461,0.06347656,-0.1352539,-0.328125,-0.1591797
3479,-67.25,23.375,-190.75,1.314453,0.6225586,0.07910156,-0.1162109,-0.3344727,-0.1674805
3483,-81.4375,27.9375,-188.4375,1.302734,0.6225586,0.1210938,-0.09863281,-0.3378906,-0.1728516
3487,-96.0625,39.5625,-178.9375,1.287598,0.5913086,0.1674805,-0.08642578,-0.3408203,-0.1796875
3491,-105.4375,50.25,-168.625,1.229492,0.6147461,0.1748047,-0.06982422,-0.3393555,-0.1889648
3495,-110,58.75,-168.8125,1.147949,0.6499023,0.1713867,-0.05078125,-0.3393555,-0.199707
3499,-116.0625,63.875,-177.0625,1.039551,0.6108398,0.1635742,-0.0390625,-0.3369141,-0.2041016
3503,-118.625,68.0625,-181.75,0.9462891,0.4399414,0.1713867,-0.01855469,-0.3305664,-0.2177734
3507,-113.25,72.4375,-180.5625,0.8652344,0.253418,0.1518555,0.0009765625,-0.3256836,-0.2285156
3511,-101.125,77,-166.0625,0.7099609,0.09814453,0.1367188,0.01513672,-0.3217773,-0.2324219
3515,-86.125,78.0625,-152.375,0.559082,-0.01416016,0.105957,0.03564453,-0.3120117,-0.2407227
3519,-75.0625,73.5,-135.5625,0.3691406,-0.02197266,0.06347656,0.05078125,-0.3041992,-0.2460938
3523,-67.3125,63.9375,-123.25,0.190918,-0.04541016,0.03271484,0.06152344,-0.3007813,-0.25
3527,-60.3125,53.9375,-114.375,0.1054688,-0.1113281,-0.005371094,0.07617188,-0.2944336,-0.2529297
3531,-49.9375,45.3125,-105.9375,-0.002441406,-0.2275391,-0.04736328,0.08789063,-0.2856445,-0.2558594
3535,-42.6875,34,-92.25,-0.1264648,-0.5229492,-0.08984375,0.09521484,-0.2807617,-0.2568359
3539,-26.4375,18.125,-63.4375,-0.2001953,-0.5,-0.06689453,0.105957,-0.2753906,-0.2568359
3543,-10.125,3.5625,-34.75,-0.2734375,-0.5463867,-0.06298828,0.1079102,-0.2719727,-0.2612305
3547,6.875,-8.0625,-15.1875,-0.3125,-0.5112305,-0.07861328,0.1118164,-0.2719727,-0.2612305
3551,23,-20.0625,-3.375,-0.3242188,-0.4296875,-0.04394531,0.1103516,-0.2705078,-0.2612305
3556,34.1875,-29.5,4.125,-0.2700195,-0.340332,-0.005371094,0.1079102,-0.2753906,-0.2583008
3560,38.125,-34.0625,12.5625,-0.1845703,-0.2666016,0.04443359,0.1069336,-0.2753906,-0.2583008
3564,38.6875,-28.375,17.8125,-0.09521484,-0.2006836,0.1020508,0.1044922,-0.2807617,-0.2583008
3568,33.5,-21.125,23.875,-0.1069336,-0.1499023,0.07910156,0.1010742,-0.2841797,-0.2558594
3572,23.375,-20.4375,37.125,-0.1303711,-0.1459961,0.05957031,0.09765625,-0.2841797,-0.2558594
3576,17.6875,-23.75,54,-0.1459961,-0.1694336,0.02099609,0.09375,-0.2895508,-0.2543945
3580,22.5625,-32.0625,68,-0.1533203,-0.1850586,-0.005371094,0.08789063,-0.2905273,-0.25
3584,36.0625,-41.625,76.8125,-0.07226563,-0.1499023,0.01708984,0.08300781,-0.2929688,-0.2529297
3588,52.25,-43.3125,80.0625,0.02441406,-0.08007813,0.07128906,0.07226563,-0.2993164,-0.2490234
3592,62.375,-44.8125,85.625,0.08251953,0.02441406,0.07519531,0.06152344,-0.3066406,-0.2446289
3596,61.0625,-49.625,97.0625,0.190918,0.121582,0.09423828,0.0546875,-0.3105469,-0.2460938
3600,54.5625,-52.6875,110.5625,0.3305664,0.171875,0.1171875,0.04248047,-0.3129883,-0.2368164
3604,52.875,-53.3125,124,0.4541016,0.2226563,0.159668,0.02978516,-0.3193359,-0.2338867
3608,51.6875,-49.375,134.3125,0.5512695,0.2807617,0.2172852,0.01904297,-0.3232422,-0.2324219
3612,45.1875,-40.5625,137.875,0.6713867,0.4321289,0.2329102,0.005859375,-0.3256836,-0.2270508
3616,29.6875,-30.5,142.375,0.7177734,0.4555664,0.2094727,-0.009277344,-0.328125,-0.2255859
3620,27.3125,-30.5625,152.4375,0.6328125,0.4052734,0.1479492,-0.01757813,-0.328125,-0.2231445
3624,36.25,-40.3125,152.125,0.644043,0.4165039,0.125,-0.03515625,-0.3266602,-0.21875
3628,44.1875,-45.125,151.375,0.8183594,0.4477539,0.1787109,-0.05078125,-0.3266602,-0.2148438
3632,49.6875,-40.875,152.4375,0.9619141,0.4321289,0.1713867,-0.05908203,-0.3266602,-0.2109375
3636,64.5,-38,159.5,0.9814453,0.3818359,0.159668,-0.07568359,-0.3256836,-0.206543
3640,89.125,-40.375,168.1875,1.02002,0.4477539,0.105957,-0.09228516,-0.3242188,-0.199707
3644,106.0625,-42.6875,166.6875,1.089844,0.6069336,0.06738281,-0.1044922,-0.3242188,-0.1928711
3648,107.25,-43.9375,168.8125,1.206055,0.8051758,0.07128906,-0.1201172,-0.3217773,-0.1806641
3652,88.3125,-37.75,166.875,1.353516,0.9682617,0.07128906,-0.1376953,-0.3193359,-0.1728516
3656,60.5,-29.5625,167.5625,1.341797,0.9682617,0.1020508,-0.1484375,-0.3144531,-0.1674805
3660,33.25,-23.4375,163.125,1.357422,0.809082,0.105957,-0.1625977,-0.3081055,-0.1616211
3664,24,-19.875,170.25,1.376465,0.5566406,0.07910156,-0.1772461,-0.2993164,-0.1591797
3668,51.6875,-21.6875,188.0625,1.411621,0.4438477,-0.01318359,-0.1855469,-0.2929688,-0.15625
3672,82.4375,-27.0625,183.875,1.384277,0.7856445,-0.07080078,-0.199707,-0.2832031,-0.1523438
3676,69.8125,-27.0625,154.625,1.469727,1.143066,-0.04394531,-0.2138672,-0.2744141,-0.144043
3680,10.75,-20.6875,139.25,1.461914,1.146973,-0.04003906,-0.2211914,-0.2670898,-0.1416016
3685,-41.9375,-27.5,150.4375,1.322266,0.6342773,-0.04394531,-0.2304688,-0.2568359,-0.1401367
3689,-26.125,-38.0625,190.9375,1.361328,0.06298828,-0.04394531,-0.2402344,-0.2407227,-0.1401367
3693,69,-47.6875,203.3125,1.407715,0.105957,-0.09375,-0.2509766,-0.2294922,-0.1386719
3697,144.375,-50.375,174.25,1.612793,0.8364258,-0.112793,-0.2617188,-0.2158203,-0.1289063
3701,150.0625,-36.625,119.6875,1.589844,1.446289,-0.1323242,-0.2709961,-0.2080078,-0.1166992
3705,82.5,-29.25,93.3125,1.430664,1.570801,-0.1206055,-0.2724609,-0.2055664,-0.1098633
3709,7.8125,-30.4375,107.625,1.43457,1.084961,-0.07861328,-0.2792969,-0.1992188,-0.1044922
3713,-28.1875,-31.3125,138.5625,1.43457,0.7314453,-0.09765625,-0.2841797,-0.1870117,-0.1020508
3717,-14.1875,-34.375,149.8125,1.42334,0.5410156,-0.05908203,-0.2900391,-0.1767578,-0.1005859
3721,33,-32,127.25,1.407715,0.6264648,-0.07861328,-0.2958984,-0.1645508,-0.09912109
3725,57.6875,-28.0625,93.875,1.302734,0.793457,-0.08203125,-0.3007813,-0.1557617,-0.09521484
3729,52.5625,-28.25,78.5,1.229492,0.7856445,-0.07080078,-0.3056641,-0.1494141,-0.09375
3733,35.875,-29.3125,79.875,1.213867,0.6616211,-0.04003906,-0.3081055,-0.1445313,-0.08984375
3737,24.625,-28.3125,86.6875,1.233398,0.5175781,-0.005371094,-0.3115234,-0.1367188,-0.08691406
3741,21.3125,-27.25,93.9375,1.225586,0.4125977,-0.02050781,-0.3115234,-0.1308594,-0.08544922
3745,30.5,-28.125,96.625,1.237305,0.3041992,-0.02832031,-0.3188477,-0.1230469,-0.08300781
3749,59.1875,-24.8125,81.5,1.283691,0.2109375,-0.02441406,-0.3232422,-0.1166992,-0.08154297
3753,90.6875,-11.4375,52.9375,1.302734,0.2338867,-0.05126953,-0.3256836,-0.1108398,-0.08154297
3757,95.8125,3.5625,34.375,1.279785,0.7119141,-0.1591797,-0.3295898,-0.1083984,-0.08007813
3761,-15.3125,24.875,-40.375,1.415527,2.755859,0.04785156,-0.331543,-0.109375,-0.08447266
3765,-87.0625,26.0625,-49.3125,1.074219,1.259766,-0.2822266,-0.3295898,-0.1142578,-0.08544922
3769,-81.75,11.375,-16.25,0.9038086,0.3701172,-0.3325195,-0.3271484,-0.1166992,-0.08984375
3773,-73.875,9.4375,5.875,0.7954102,0.140625,-0.3974609,-0.3295898,-0.1142578,-0.09228516
3777,-86.75,-9,37.875,0.6171875,-0.1152344,-0.4013672,-0.328125,-0.1118164,-0.09228516
